Username,ID,ExperimentName,Session,Trial,Date,TimeDif,"Condition Number","Stimuli File","Order File","Condition Description","Condition Notes",Stimuli*Cue,Stimuli*Answer,Stimuli*Shuffle,"Stimuli*Stimuli Notes",Stimuli*Value,Procedure*Item,"Procedure*Trial Type","Procedure*Max Time","Procedure*Min Time",Procedure*Text,"Procedure*Procedure Notes",Procedure*Shuffle,Response*RT,Response*Response,Response*Accuracy,Response*RTfirst,Response*RTlast,Response*strictAcc,Response*lenientAcc,Response*focus,Response*Focus
w214242BG,k0xr6met6l,Nick_Dissertation_EX1,1,1,2020-07-17T10:09:48-07:00,10.909219026566,1,versionA_stim.csv,READVersionA.csv,"Read Version A","Dissertation, read only version A",,,,,,0,Instruct,-,10,"Please study each of the following word pairs. Remember that your memory will be tested! When finished, press Enter to move to the next pair.",Initial_Instruct,Instruct1,10555,,,-1,-1,,,,1
w214242BG,k0xr6met6l,Nick_Dissertation_EX1,1,2,2020-07-17T10:09:50-07:00,2.3442370891571,1,versionA_stim.csv,READVersionA.csv,"Read Version A","Dissertation, read only version A",SPACE,JAM,BUFFER1,Buffer,5,2,Study,User,-,,Study/JOL,BUFFER,1882,,,-1,-1,,,,1
w214242BG,k0xr6met6l,Nick_Dissertation_EX1,1,3,2020-07-17T10:09:51-07:00,0.89868402481079,1,versionA_stim.csv,READVersionA.csv,"Read Version A","Dissertation, read only version A",SCARE,HIDE,BUFFER1,Buffer,4,6,Study,User,-,,Study/JOL,BUFFER,592,,,-1,-1,,,,1
w214242BG,k0xr6met6l,Nick_Dissertation_EX1,1,4,2020-07-17T10:09:52-07:00,1.1192140579224,1,versionA_stim.csv,READVersionA.csv,"Read Version A","Dissertation, read only version A",BASEBALL,CATCHER,BUFFER1,Buffer,2,3,Study,User,-,,Study/JOL,BUFFER,810,,,-1,-1,,,,1
w214242BG,k0xr6met6l,Nick_Dissertation_EX1,1,5,2020-07-17T10:09:53-07:00,0.94308495521545,1,versionA_stim.csv,READVersionA.csv,"Read Version A","Dissertation, read only version A",TREES,GREEN,BUFFER1,Buffer,1,5,Study,User,-,,Study/JOL,BUFFER,636,,,-1,-1,,,,1
w214242BG,k0xr6met6l,Nick_Dissertation_EX1,1,6,2020-07-17T10:09:54-07:00,0.91925191879272,1,versionA_stim.csv,READVersionA.csv,"Read Version A","Dissertation, read only version A",PEANUT,BUTTER,BUFFER1,Buffer,3,4,Study,User,-,,Study/JOL,BUFFER,623,,,-1,-1,,,,1
w214242BG,k0xr6met6l,Nick_Dissertation_EX1,1,7,2020-07-17T10:09:55-07:00,0.88800001144409,1,versionA_stim.csv,READVersionA.csv,"Read Version A","Dissertation, read only version A",CLOTHES,ATTIRE,Study1,B,43,18,Study,User,-,,Study/JOL,"Study Phase",552,,,-1,-1,,,,1
w214242BG,k0xr6met6l,Nick_Dissertation_EX1,1,8,2020-07-17T10:09:56-07:00,0.86855506896973,1,versionA_stim.csv,READVersionA.csv,"Read Version A","Dissertation, read only version A",WORK,CHORE,Study1,B,39,84,Study,User,-,,Study/JOL,"Study Phase",584,,,-1,-1,,,,1
w214242BG,k0xr6met6l,Nick_Dissertation_EX1,1,9,2020-07-17T10:09:57-07:00,0.9139928817749,1,versionA_stim.csv,READVersionA.csv,"Read Version A","Dissertation, read only version A",CASH,WOULD,Study1,U,83,72,Study,User,-,,Study/JOL,"Study Phase",624,,,-1,-1,,,,1
w214242BG,k0xr6met6l,Nick_Dissertation_EX1,1,10,2020-07-17T10:09:57-07:00,0.84120607376099,1,versionA_stim.csv,READVersionA.csv,"Read Version A","Dissertation, read only version A",BEGIN,END,Study1,S,54,86,Study,User,-,,Study/JOL,"Study Phase",525,,,-1,-1,,,,1
w214242BG,k0xr6met6l,Nick_Dissertation_EX1,1,11,2020-07-17T10:09:58-07:00,0.85715508460999,1,versionA_stim.csv,READVersionA.csv,"Read Version A","Dissertation, read only version A",HEIGHT,GROWTH,Study1,B,30,78,Study,User,-,,Study/JOL,"Study Phase",551,,,-1,-1,,,,1
w214242BG,k0xr6met6l,Nick_Dissertation_EX1,1,12,2020-07-17T10:09:59-07:00,0.82554197311401,1,versionA_stim.csv,READVersionA.csv,"Read Version A","Dissertation, read only version A",PLANE,PILOT,Study1,B,44,9,Study,User,-,,Study/JOL,"Study Phase",527,,,-1,-1,,,,1
w214242BG,k0xr6met6l,Nick_Dissertation_EX1,1,13,2020-07-17T10:10:00-07:00,0.78123092651367,1,versionA_stim.csv,READVersionA.csv,"Read Version A","Dissertation, read only version A",LOCATION,SITE,Study1,S,48,83,Study,User,-,,Study/JOL,"Study Phase",502,,,-1,-1,,,,1
w214242BG,k0xr6met6l,Nick_Dissertation_EX1,1,14,2020-07-17T10:10:01-07:00,0.97445392608643,1,versionA_stim.csv,READVersionA.csv,"Read Version A","Dissertation, read only version A",GEOLOGY,ROCK,Study1,F,19,8,Study,User,-,,Study/JOL,"Study Phase",647,,,-1,-1,,,,1
w214242BG,k0xr6met6l,Nick_Dissertation_EX1,1,15,2020-07-17T10:10:02-07:00,0.807049036026,1,versionA_stim.csv,READVersionA.csv,"Read Version A","Dissertation, read only version A",FULL,ENOUGH,Study1,B,26,38,Study,User,-,,Study/JOL,"Study Phase",526,,,-1,-1,,,,1
w214242BG,k0xr6met6l,Nick_Dissertation_EX1,1,16,2020-07-17T10:10:03-07:00,0.92556405067444,1,versionA_stim.csv,READVersionA.csv,"Read Version A","Dissertation, read only version A",SENTENCE,WORD,Study1,B,31,57,Study,User,-,,Study/JOL,"Study Phase",634,,,-1,-1,,,,1
w214242BG,k0xr6met6l,Nick_Dissertation_EX1,1,17,2020-07-17T10:10:04-07:00,1.0670380592346,1,versionA_stim.csv,READVersionA.csv,"Read Version A","Dissertation, read only version A",DEATH,BUSINESS,Study1,U,72,56,Study,User,-,,Study/JOL,"Study Phase",736,,,-1,-1,,,,1
w214242BG,k0xr6met6l,Nick_Dissertation_EX1,1,18,2020-07-17T10:10:06-07:00,2.1249389648438,1,versionA_stim.csv,READVersionA.csv,"Read Version A","Dissertation, read only version A",DEBATE,SIGHT,Study1,U,73,55,Study,User,-,,Study/JOL,"Study Phase",745,,,-1,-1,,,,1
w214242BG,k0xr6met6l,Nick_Dissertation_EX1,1,19,2020-07-17T10:10:07-07:00,1.5732250213623,1,versionA_stim.csv,READVersionA.csv,"Read Version A","Dissertation, read only version A",HAPPY,CAR,Study1,U,77,64,Study,User,-,,Study/JOL,"Study Phase",1167,,,-1,-1,,,,1
w214242BG,k0xr6met6l,Nick_Dissertation_EX1,1,20,2020-07-17T10:10:09-07:00,1.109267950058,1,versionA_stim.csv,READVersionA.csv,"Read Version A","Dissertation, read only version A",STRONG,ACCIDENT,Study1,U,80,7,Study,User,-,,Study/JOL,"Study Phase",801,,,-1,-1,,,,1
w214242BG,k0xr6met6l,Nick_Dissertation_EX1,1,21,2020-07-17T10:10:09-07:00,0.95961499214172,1,versionA_stim.csv,READVersionA.csv,"Read Version A","Dissertation, read only version A",HIDE,SICK,Study1,U,84,42,Study,User,-,,Study/JOL,"Study Phase",659,,,-1,-1,,,,1
w214242BG,k0xr6met6l,Nick_Dissertation_EX1,1,22,2020-07-17T10:10:11-07:00,1.0355639457703,1,versionA_stim.csv,READVersionA.csv,"Read Version A","Dissertation, read only version A",BLOW,WIND,Study1,S,55,80,Study,User,-,,Study/JOL,"Study Phase",666,,,-1,-1,,,,1
w214242BG,k0xr6met6l,Nick_Dissertation_EX1,1,23,2020-07-17T10:10:12-07:00,1.5743391513824,1,versionA_stim.csv,READVersionA.csv,"Read Version A","Dissertation, read only version A",DIGESTION,STOMACH,Study1,F,7,71,Study,User,-,,Study/JOL,"Study Phase",1200,,,-1,-1,,,,1
w214242BG,k0xr6met6l,Nick_Dissertation_EX1,1,24,2020-07-17T10:10:13-07:00,1.1617720127106,1,versionA_stim.csv,READVersionA.csv,"Read Version A","Dissertation, read only version A",FIRE,BLAZE,Study1,B,45,85,Study,User,-,,Study/JOL,"Study Phase",865,,,-1,-1,,,,1
w214242BG,k0xr6met6l,Nick_Dissertation_EX1,1,25,2020-07-17T10:10:14-07:00,1.0758759975433,1,versionA_stim.csv,READVersionA.csv,"Read Version A","Dissertation, read only version A",VALLEY,ADD,Study1,U,82,27,Study,User,-,,Study/JOL,"Study Phase",790,,,-1,-1,,,,1
w214242BG,k0xr6met6l,Nick_Dissertation_EX1,1,26,2020-07-17T10:10:15-07:00,1.1123518943787,1,versionA_stim.csv,READVersionA.csv,"Read Version A","Dissertation, read only version A",TUNA,FISH,Study1,F,25,13,Study,User,-,,Study/JOL,"Study Phase",798,,,-1,-1,,,,1
w214242BG,k0xr6met6l,Nick_Dissertation_EX1,1,27,2020-07-17T10:10:17-07:00,1.4401199817657,1,versionA_stim.csv,READVersionA.csv,"Read Version A","Dissertation, read only version A",DIETARY,SACKING,Study1,U,67,36,Study,User,-,,Study/JOL,"Study Phase",1088,,,-1,-1,,,,1
w214242BG,k0xr6met6l,Nick_Dissertation_EX1,1,28,2020-07-17T10:10:18-07:00,1.3980369567871,1,versionA_stim.csv,READVersionA.csv,"Read Version A","Dissertation, read only version A",LETTUCE,SALAD,Study1,S,59,35,Study,User,-,,Study/JOL,"Study Phase",1022,,,-1,-1,,,,1
w214242BG,k0xr6met6l,Nick_Dissertation_EX1,1,29,2020-07-17T10:10:20-07:00,1.5690941810608,1,versionA_stim.csv,READVersionA.csv,"Read Version A","Dissertation, read only version A",PARK,HUNGRY,Study1,U,68,58,Study,User,-,,Study/JOL,"Study Phase",1205,,,-1,-1,,,,1
w214242BG,k0xr6met6l,Nick_Dissertation_EX1,1,30,2020-07-17T10:10:21-07:00,0.94410300254822,1,versionA_stim.csv,READVersionA.csv,"Read Version A","Dissertation, read only version A",CREDIT,CARD,Study1,F,23,11,Study,User,-,,Study/JOL,"Study Phase",569,,,-1,-1,,,,1
w214242BG,k0xr6met6l,Nick_Dissertation_EX1,1,31,2020-07-17T10:10:22-07:00,0.92914390563965,1,versionA_stim.csv,READVersionA.csv,"Read Version A","Dissertation, read only version A",WINE,CHEESE,Study1,S,57,77,Study,User,-,,Study/JOL,"Study Phase",656,,,-1,-1,,,,1
w214242BG,k0xr6met6l,Nick_Dissertation_EX1,1,32,2020-07-17T10:10:23-07:00,0.80756807327271,1,versionA_stim.csv,READVersionA.csv,"Read Version A","Dissertation, read only version A",CIRCLE,ROUND,Study1,S,65,67,Study,User,-,,Study/JOL,"Study Phase",517,,,-1,-1,,,,1
w214242BG,k0xr6met6l,Nick_Dissertation_EX1,1,33,2020-07-17T10:10:23-07:00,0.90959501266479,1,versionA_stim.csv,READVersionA.csv,"Read Version A","Dissertation, read only version A",FIX,HAND,Study1,U,75,62,Study,User,-,,Study/JOL,"Study Phase",622,,,-1,-1,,,,1
w214242BG,k0xr6met6l,Nick_Dissertation_EX1,1,34,2020-07-17T10:10:27-07:00,3.1760349273682,1,versionA_stim.csv,READVersionA.csv,"Read Version A","Dissertation, read only version A",TAKE,SEIZE,Study1,B,29,40,Study,User,-,,Study/JOL,"Study Phase",1252,,,-1,-1,,,,1
w214242BG,k0xr6met6l,Nick_Dissertation_EX1,1,35,2020-07-17T10:10:28-07:00,1.3509230613708,1,versionA_stim.csv,READVersionA.csv,"Read Version A","Dissertation, read only version A",ROOT,PLANT,Study1,F,13,39,Study,User,-,,Study/JOL,"Study Phase",909,,,-1,-1,,,,1
w214242BG,k0xr6met6l,Nick_Dissertation_EX1,1,36,2020-07-17T10:10:29-07:00,0.98432397842407,1,versionA_stim.csv,READVersionA.csv,"Read Version A","Dissertation, read only version A",DELINQUENT,BAD,Study1,F,6,15,Study,User,-,,Study/JOL,"Study Phase",685,,,-1,-1,,,,1
w214242BG,k0xr6met6l,Nick_Dissertation_EX1,1,37,2020-07-17T10:10:30-07:00,1.0556688308716,1,versionA_stim.csv,READVersionA.csv,"Read Version A","Dissertation, read only version A",SLEEP,DROWSY,Study1,B,41,32,Study,User,-,,Study/JOL,"Study Phase",757,,,-1,-1,,,,1
w214242BG,k0xr6met6l,Nick_Dissertation_EX1,1,38,2020-07-17T10:10:31-07:00,1.269268989563,1,versionA_stim.csv,READVersionA.csv,"Read Version A","Dissertation, read only version A",ARCHITECTURE,DESIGN,Study1,S,51,31,Study,User,-,,Study/JOL,"Study Phase",895,,,-1,-1,,,,1
w214242BG,k0xr6met6l,Nick_Dissertation_EX1,1,39,2020-07-17T10:10:32-07:00,1.1057820320129,1,versionA_stim.csv,READVersionA.csv,"Read Version A","Dissertation, read only version A",EDITOR,NEWS,Study1,F,10,44,Study,User,-,,Study/JOL,"Study Phase",808,,,-1,-1,,,,1
w214242BG,k0xr6met6l,Nick_Dissertation_EX1,1,40,2020-07-17T10:10:34-07:00,1.7043349742889,1,versionA_stim.csv,READVersionA.csv,"Read Version A","Dissertation, read only version A",NUMBER,AMOUNT,Study1,S,47,41,Study,User,-,,Study/JOL,"Study Phase",1325,,,-1,-1,,,,1
w214242BG,k0xr6met6l,Nick_Dissertation_EX1,1,41,2020-07-17T10:10:35-07:00,1.2960801124573,1,versionA_stim.csv,READVersionA.csv,"Read Version A","Dissertation, read only version A",BITTER,COLD,Study1,F,12,33,Study,User,-,,Study/JOL,"Study Phase",954,,,-1,-1,,,,1
w214242BG,k0xr6met6l,Nick_Dissertation_EX1,1,42,2020-07-17T10:10:36-07:00,1.0494749546051,1,versionA_stim.csv,READVersionA.csv,"Read Version A","Dissertation, read only version A",SHOE,FOOT,Study1,S,60,47,Study,User,-,,Study/JOL,"Study Phase",754,,,-1,-1,,,,1
w214242BG,k0xr6met6l,Nick_Dissertation_EX1,1,43,2020-07-17T10:10:38-07:00,1.4122669696808,1,versionA_stim.csv,READVersionA.csv,"Read Version A","Dissertation, read only version A",PAW,DOG,Study1,F,15,68,Study,User,-,,Study/JOL,"Study Phase",1068,,,-1,-1,,,,1
w214242BG,k0xr6met6l,Nick_Dissertation_EX1,1,44,2020-07-17T10:10:39-07:00,1.2957220077515,1,versionA_stim.csv,READVersionA.csv,"Read Version A","Dissertation, read only version A",HERD,COW,Study1,F,22,26,Study,User,-,,Study/JOL,"Study Phase",900,,,-1,-1,,,,1
w214242BG,k0xr6met6l,Nick_Dissertation_EX1,1,45,2020-07-17T10:10:40-07:00,0.95410299301147,1,versionA_stim.csv,READVersionA.csv,"Read Version A","Dissertation, read only version A",POP,SODA,Study1,S,56,49,Study,User,-,,Study/JOL,"Study Phase",658,,,-1,-1,,,,1
w214242BG,k0xr6met6l,Nick_Dissertation_EX1,1,46,2020-07-17T10:10:41-07:00,0.98186016082764,1,versionA_stim.csv,READVersionA.csv,"Read Version A","Dissertation, read only version A",HYGIENE,CLEAN,Study1,F,17,73,Study,User,-,,Study/JOL,"Study Phase",701,,,-1,-1,,,,1
w214242BG,k0xr6met6l,Nick_Dissertation_EX1,1,47,2020-07-17T10:10:42-07:00,1.0409898757935,1,versionA_stim.csv,READVersionA.csv,"Read Version A","Dissertation, read only version A",HONEY,BEE,Study1,S,63,63,Study,User,-,,Study/JOL,"Study Phase",676,,,-1,-1,,,,1
w214242BG,k0xr6met6l,Nick_Dissertation_EX1,1,48,2020-07-17T10:10:43-07:00,1.0086541175842,1,versionA_stim.csv,READVersionA.csv,"Read Version A","Dissertation, read only version A",ARTERY,BRONZE,Study1,U,74,76,Study,User,-,,Study/JOL,"Study Phase",710,,,-1,-1,,,,1
w214242BG,k0xr6met6l,Nick_Dissertation_EX1,1,49,2020-07-17T10:10:44-07:00,0.83062291145325,1,versionA_stim.csv,READVersionA.csv,"Read Version A","Dissertation, read only version A",HUNGER,FAMINE,Study1,B,40,28,Study,User,-,,Study/JOL,"Study Phase",511,,,-1,-1,,,,1
w214242BG,k0xr6met6l,Nick_Dissertation_EX1,1,50,2020-07-17T10:10:45-07:00,1.3068370819092,1,versionA_stim.csv,READVersionA.csv,"Read Version A","Dissertation, read only version A",DUMP,WASTE,Study1,S,49,16,Study,User,-,,Study/JOL,"Study Phase",936,,,-1,-1,,,,1
w214242BG,k0xr6met6l,Nick_Dissertation_EX1,1,51,2020-07-17T10:10:46-07:00,0.87884902954102,1,versionA_stim.csv,READVersionA.csv,"Read Version A","Dissertation, read only version A",SOON,BELT,Study1,U,70,52,Study,User,-,,Study/JOL,"Study Phase",570,,,-1,-1,,,,1
w214242BG,k0xr6met6l,Nick_Dissertation_EX1,1,52,2020-07-17T10:10:48-07:00,1.8174369335175,1,versionA_stim.csv,READVersionA.csv,"Read Version A","Dissertation, read only version A",PUSHER,CLUTTER,Study1,U,66,21,Study,User,-,,Study/JOL,"Study Phase",1229,,,-1,-1,,,,1
w214242BG,k0xr6met6l,Nick_Dissertation_EX1,1,53,2020-07-17T10:10:49-07:00,1.0962359905243,1,versionA_stim.csv,READVersionA.csv,"Read Version A","Dissertation, read only version A",REVOLUTION,WAR,Study1,F,20,43,Study,User,-,,Study/JOL,"Study Phase",746,,,-1,-1,,,,1
w214242BG,k0xr6met6l,Nick_Dissertation_EX1,1,54,2020-07-17T10:10:51-07:00,2.3460328578949,1,versionA_stim.csv,READVersionA.csv,"Read Version A","Dissertation, read only version A",MEANING,DEFINITION,Study1,S,62,81,Study,User,-,,Study/JOL,"Study Phase",1992,,,-1,-1,,,,1
w214242BG,k0xr6met6l,Nick_Dissertation_EX1,1,55,2020-07-17T10:10:52-07:00,1.0216810703278,1,versionA_stim.csv,READVersionA.csv,"Read Version A","Dissertation, read only version A",BALL,RACKET,Study1,B,38,17,Study,User,-,,Study/JOL,"Study Phase",737,,,-1,-1,,,,1
w214242BG,k0xr6met6l,Nick_Dissertation_EX1,1,56,2020-07-17T10:10:53-07:00,0.8600640296936,1,versionA_stim.csv,READVersionA.csv,"Read Version A","Dissertation, read only version A",DARK,CAVE,Study1,B,28,30,Study,User,-,,Study/JOL,"Study Phase",580,,,-1,-1,,,,1
w214242BG,k0xr6met6l,Nick_Dissertation_EX1,1,57,2020-07-17T10:10:54-07:00,0.92821788787842,1,versionA_stim.csv,READVersionA.csv,"Read Version A","Dissertation, read only version A",PAST,FUTURE,Study1,S,61,61,Study,User,-,,Study/JOL,"Study Phase",548,,,-1,-1,,,,1
w214242BG,k0xr6met6l,Nick_Dissertation_EX1,1,58,2020-07-17T10:10:55-07:00,1.0411112308502,1,versionA_stim.csv,READVersionA.csv,"Read Version A","Dissertation, read only version A",DUE,ASSIGNMENT,Study1,S,46,29,Study,User,-,,Study/JOL,"Study Phase",762,,,-1,-1,,,,1
w214242BG,k0xr6met6l,Nick_Dissertation_EX1,1,59,2020-07-17T10:10:56-07:00,1.0869488716125,1,versionA_stim.csv,READVersionA.csv,"Read Version A","Dissertation, read only version A",MATH,DIVISION,Study1,B,33,53,Study,User,-,,Study/JOL,"Study Phase",765,,,-1,-1,,,,1
w214242BG,k0xr6met6l,Nick_Dissertation_EX1,1,60,2020-07-17T10:10:57-07:00,0.97314810752869,1,versionA_stim.csv,READVersionA.csv,"Read Version A","Dissertation, read only version A",BRIDGE,WATER,Study1,F,18,60,Study,User,-,,Study/JOL,"Study Phase",664,,,-1,-1,,,,1
w214242BG,k0xr6met6l,Nick_Dissertation_EX1,1,61,2020-07-17T10:10:58-07:00,0.90519285202026,1,versionA_stim.csv,READVersionA.csv,"Read Version A","Dissertation, read only version A",GREAT,FANTASTIC,Study1,B,35,45,Study,User,-,,Study/JOL,"Study Phase",606,,,-1,-1,,,,1
w214242BG,k0xr6met6l,Nick_Dissertation_EX1,1,62,2020-07-17T10:10:59-07:00,1.0029230117798,1,versionA_stim.csv,READVersionA.csv,"Read Version A","Dissertation, read only version A",BABY,CHILD,Study1,S,64,19,Study,User,-,,Study/JOL,"Study Phase",723,,,-1,-1,,,,1
w214242BG,k0xr6met6l,Nick_Dissertation_EX1,1,63,2020-07-17T10:11:00-07:00,0.96272993087769,1,versionA_stim.csv,READVersionA.csv,"Read Version A","Dissertation, read only version A",ART,LION,Study1,U,79,20,Study,User,-,,Study/JOL,"Study Phase",641,,,-1,-1,,,,1
w214242BG,k0xr6met6l,Nick_Dissertation_EX1,1,64,2020-07-17T10:11:01-07:00,0.93455004692078,1,versionA_stim.csv,READVersionA.csv,"Read Version A","Dissertation, read only version A",BATHROOM,TOILET,Study1,S,58,37,Study,User,-,,Study/JOL,"Study Phase",641,,,-1,-1,,,,1
w214242BG,k0xr6met6l,Nick_Dissertation_EX1,1,65,2020-07-17T10:11:02-07:00,1.0114071369171,1,versionA_stim.csv,READVersionA.csv,"Read Version A","Dissertation, read only version A",DISCUSSION,TALK,Study1,F,21,24,Study,User,-,,Study/JOL,"Study Phase",695,,,-1,-1,,,,1
w214242BG,k0xr6met6l,Nick_Dissertation_EX1,1,66,2020-07-17T10:11:03-07:00,0.84701204299927,1,versionA_stim.csv,READVersionA.csv,"Read Version A","Dissertation, read only version A",HORNET,STING,Study1,F,11,50,Study,User,-,,Study/JOL,"Study Phase",559,,,-1,-1,,,,1
w214242BG,k0xr6met6l,Nick_Dissertation_EX1,1,67,2020-07-17T10:11:04-07:00,1.120992898941,1,versionA_stim.csv,READVersionA.csv,"Read Version A","Dissertation, read only version A",DRINK,SIP,Study1,B,27,51,Study,User,-,,Study/JOL,"Study Phase",691,,,-1,-1,,,,1
w214242BG,k0xr6met6l,Nick_Dissertation_EX1,1,68,2020-07-17T10:11:05-07:00,0.84191703796387,1,versionA_stim.csv,READVersionA.csv,"Read Version A","Dissertation, read only version A",KEY,LATCH,Study1,B,36,10,Study,User,-,,Study/JOL,"Study Phase",540,,,-1,-1,,,,1
w214242BG,k0xr6met6l,Nick_Dissertation_EX1,1,69,2020-07-17T10:11:06-07:00,0.94017505645752,1,versionA_stim.csv,READVersionA.csv,"Read Version A","Dissertation, read only version A",KIDNEY,LIVER,Study1,S,53,59,Study,User,-,,Study/JOL,"Study Phase",631,,,-1,-1,,,,1
w214242BG,k0xr6met6l,Nick_Dissertation_EX1,1,70,2020-07-17T10:11:07-07:00,1.1005718708038,1,versionA_stim.csv,READVersionA.csv,"Read Version A","Dissertation, read only version A",DISCOVER,FLOOR,Study1,U,71,34,Study,User,-,,Study/JOL,"Study Phase",815,,,-1,-1,,,,1
w214242BG,k0xr6met6l,Nick_Dissertation_EX1,1,71,2020-07-17T10:11:08-07:00,0.8169469833374,1,versionA_stim.csv,READVersionA.csv,"Read Version A","Dissertation, read only version A",KING,VASE,Study1,U,85,75,Study,User,-,,Study/JOL,"Study Phase",531,,,-1,-1,,,,1
w214242BG,k0xr6met6l,Nick_Dissertation_EX1,1,72,2020-07-17T10:11:09-07:00,0.95845913887024,1,versionA_stim.csv,READVersionA.csv,"Read Version A","Dissertation, read only version A",SMELL,STENCH,Study1,B,42,48,Study,User,-,,Study/JOL,"Study Phase",674,,,-1,-1,,,,1
w214242BG,k0xr6met6l,Nick_Dissertation_EX1,1,73,2020-07-17T10:11:10-07:00,0.90223789215088,1,versionA_stim.csv,READVersionA.csv,"Read Version A","Dissertation, read only version A",SUGAR,RIDDLE,Study1,U,81,14,Study,User,-,,Study/JOL,"Study Phase",618,,,-1,-1,,,,1
w214242BG,k0xr6met6l,Nick_Dissertation_EX1,1,74,2020-07-17T10:11:11-07:00,1.0168199539185,1,versionA_stim.csv,READVersionA.csv,"Read Version A","Dissertation, read only version A",LIFT,WOMAN,Study1,U,69,12,Study,User,-,,Study/JOL,"Study Phase",708,,,-1,-1,,,,1
w214242BG,k0xr6met6l,Nick_Dissertation_EX1,1,75,2020-07-17T10:11:12-07:00,1.0364689826965,1,versionA_stim.csv,READVersionA.csv,"Read Version A","Dissertation, read only version A",MACHINE,POSITION,Study1,U,76,66,Study,User,-,,Study/JOL,"Study Phase",707,,,-1,-1,,,,1
w214242BG,k0xr6met6l,Nick_Dissertation_EX1,1,76,2020-07-17T10:11:13-07:00,1.0909819602966,1,versionA_stim.csv,READVersionA.csv,"Read Version A","Dissertation, read only version A",CHISEL,HAMMER,Study1,F,9,23,Study,User,-,,Study/JOL,"Study Phase",805,,,-1,-1,,,,1
w214242BG,k0xr6met6l,Nick_Dissertation_EX1,1,77,2020-07-17T10:11:14-07:00,1.0846521854401,1,versionA_stim.csv,READVersionA.csv,"Read Version A","Dissertation, read only version A",WAY,OUT,Study1,F,16,79,Study,User,-,,Study/JOL,"Study Phase",789,,,-1,-1,,,,1
w214242BG,k0xr6met6l,Nick_Dissertation_EX1,1,78,2020-07-17T10:11:15-07:00,0.99328398704529,1,versionA_stim.csv,READVersionA.csv,"Read Version A","Dissertation, read only version A",ORCHID,FLOWER,Study1,F,24,46,Study,User,-,,Study/JOL,"Study Phase",703,,,-1,-1,,,,1
w214242BG,k0xr6met6l,Nick_Dissertation_EX1,1,79,2020-07-17T10:11:16-07:00,0.95865201950073,1,versionA_stim.csv,READVersionA.csv,"Read Version A","Dissertation, read only version A",GRILL,BAR,Study1,S,52,54,Study,User,-,,Study/JOL,"Study Phase",671,,,-1,-1,,,,1
w214242BG,k0xr6met6l,Nick_Dissertation_EX1,1,80,2020-07-17T10:11:17-07:00,0.92336797714233,1,versionA_stim.csv,READVersionA.csv,"Read Version A","Dissertation, read only version A",TRIAL,JURY,Study1,S,50,69,Study,User,-,,Study/JOL,"Study Phase",631,,,-1,-1,,,,1
w214242BG,k0xr6met6l,Nick_Dissertation_EX1,1,81,2020-07-17T10:11:18-07:00,0.85829186439514,1,versionA_stim.csv,READVersionA.csv,"Read Version A","Dissertation, read only version A",ALLOW,TUCK,Study1,U,78,74,Study,User,-,,Study/JOL,"Study Phase",580,,,-1,-1,,,,1
w214242BG,k0xr6met6l,Nick_Dissertation_EX1,1,82,2020-07-17T10:11:18-07:00,0.86237716674805,1,versionA_stim.csv,READVersionA.csv,"Read Version A","Dissertation, read only version A",SWAN,BIRD,Study1,F,14,70,Study,User,-,,Study/JOL,"Study Phase",542,,,-1,-1,,,,1
w214242BG,k0xr6met6l,Nick_Dissertation_EX1,1,83,2020-07-17T10:11:19-07:00,0.88166689872742,1,versionA_stim.csv,READVersionA.csv,"Read Version A","Dissertation, read only version A",WAGE,MONEY,Study1,F,8,65,Study,User,-,,Study/JOL,"Study Phase",602,,,-1,-1,,,,1
w214242BG,k0xr6met6l,Nick_Dissertation_EX1,1,84,2020-07-17T10:11:20-07:00,0.87447905540466,1,versionA_stim.csv,READVersionA.csv,"Read Version A","Dissertation, read only version A",BUG,WASP,Study1,B,32,25,Study,User,-,,Study/JOL,"Study Phase",599,,,-1,-1,,,,1
w214242BG,k0xr6met6l,Nick_Dissertation_EX1,1,85,2020-07-17T10:11:21-07:00,0.89665794372559,1,versionA_stim.csv,READVersionA.csv,"Read Version A","Dissertation, read only version A",LAW,ATTORNEY,Study1,B,34,22,Study,User,-,,Study/JOL,"Study Phase",604,,,-1,-1,,,,1
w214242BG,k0xr6met6l,Nick_Dissertation_EX1,1,86,2020-07-17T10:11:22-07:00,0.87762689590454,1,versionA_stim.csv,READVersionA.csv,"Read Version A","Dissertation, read only version A",HOT,CHILI,Study1,B,37,82,Study,User,-,,Study/JOL,"Study Phase",583,,,-1,-1,,,,1
w214242BG,k0xr6met6l,Nick_Dissertation_EX1,1,87,2020-07-17T10:11:23-07:00,0.91487407684326,1,versionA_stim.csv,READVersionA.csv,"Read Version A","Dissertation, read only version A",GEESE,GOOSE,BUFFER2,Buffer,86,89,Study,User,-,,Study/JOL,BUFFER2,625,,,-1,-1,,,,1
w214242BG,k0xr6met6l,Nick_Dissertation_EX1,1,88,2020-07-17T10:11:24-07:00,0.84868311882019,1,versionA_stim.csv,READVersionA.csv,"Read Version A","Dissertation, read only version A",SHERRIF,POLICE,BUFFER2,Buffer,87,88,Study,User,-,,Study/JOL,BUFFER2,561,,,-1,-1,,,,1
w214242BG,k0xr6met6l,Nick_Dissertation_EX1,1,89,2020-07-17T10:11:25-07:00,0.94078898429871,1,versionA_stim.csv,READVersionA.csv,"Read Version A","Dissertation, read only version A",MALT,CHOCOLATE,BUFFER2,Buffer,88,87,Study,User,-,,Study/JOL,BUFFER2,617,,,-1,-1,,,,1
w214242BG,k0xr6met6l,Nick_Dissertation_EX1,1,90,2020-07-17T10:11:26-07:00,0.87888288497925,1,versionA_stim.csv,READVersionA.csv,"Read Version A","Dissertation, read only version A",THING,STUFF,BUFFER2,Buffer,90,90,Study,User,-,,Study/JOL,BUFFER2,597,,,-1,-1,,,,1
w214242BG,k0xr6met6l,Nick_Dissertation_EX1,1,91,2020-07-17T10:11:26-07:00,0.87338209152222,1,versionA_stim.csv,READVersionA.csv,"Read Version A","Dissertation, read only version A",MOON,SPACE,BUFFER2,Buffer,89,91,Study,User,-,,Study/JOL,BUFFER2,570,,,-1,-1,,,,1
w214242BG,k0xr6met6l,Nick_Dissertation_EX1,1,92,2020-07-17T10:11:28-07:00,1.6854069232941,1,versionA_stim.csv,READVersionA.csv,"Read Version A","Dissertation, read only version A",,,,,,0,Instruct,User,-,"You have completed this section. Please press Enter.",Filler_Instruction,Instruct2,1278,,,-1,-1,,,,1
w214242BG,k0xr6met6l,Nick_Dissertation_EX1,1,93,2020-07-17T10:13:29-07:00,120.41291093826,1,versionA_stim.csv,READVersionA.csv,"Read Version A","Dissertation, read only version A",,,,,,0,FreeRecall,120,120,"Please list the 50 US states in alphabetical order. The task will automatically advance to the next screen after two minutes.",,Filler1,120001,"Alabama, Alaska, Arizona, Arkansas, California, Colorado, Connecticut, Delaware, Florida, Georgia, Hawaii, Idaho, Illinois, Indiana, Iowa, Kansas, Kentucky, Louisiana, Maine, Maryland, Massachusetts, Michigan, Minnesota, Mississippi, Missouri, Montana, Nebraska, Nevada, New Hampshire, New Jersey, New Mexico, New York, North Carolina, North Dakota, Ohio, Oklahoma, Oregon, Pennsylvania, Rhode Island, South Carolina, South Dakota, Tennessee, Texas, Utah, Vermont, Virginia, Washington, West Virginia, Wisconsin, Wyoming",0,2830,110001,0,0,,1
w214242BG,k0xr6met6l,Nick_Dissertation_EX1,1,94,2020-07-17T10:13:42-07:00,13.682042121887,1,versionA_stim.csv,READVersionA.csv,"Read Version A","Dissertation, read only version A",,,,,,0,Instruct,-,10,"You will now be presented with the first word from each of the previously studied item pairs. Please type the missing word. If you do not know the word, you may guess or press Enter to skip forward to the next pair.",,Instruct3,12132,,,-1,-1,,,,1
w214242BG,k0xr6met6l,Nick_Dissertation_EX1,1,95,2020-07-17T10:13:46-07:00,3.531594991684,1,versionA_stim.csv,READVersionA.csv,"Read Version A","Dissertation, read only version A",HORNET,STING,Study1,F,11,50,Test,User,-,,Recall,Recall1,2954,sting,100,2386,2736,1,1,,1
w214242BG,k0xr6met6l,Nick_Dissertation_EX1,1,96,2020-07-17T10:13:51-07:00,4.9332768917084,1,versionA_stim.csv,READVersionA.csv,"Read Version A","Dissertation, read only version A",FULL,ENOUGH,Study1,B,26,38,Test,User,-,,Recall,Recall1,4581,,0,-1,-1,0,0,,1
w214242BG,k0xr6met6l,Nick_Dissertation_EX1,1,97,2020-07-17T10:13:53-07:00,1.9129750728607,1,versionA_stim.csv,READVersionA.csv,"Read Version A","Dissertation, read only version A",KING,VASE,Study1,U,85,75,Test,User,-,,Recall,Recall1,1527,,0,-1,-1,0,0,,1
w214242BG,k0xr6met6l,Nick_Dissertation_EX1,1,98,2020-07-17T10:13:55-07:00,2.2800951004028,1,versionA_stim.csv,READVersionA.csv,"Read Version A","Dissertation, read only version A",HIDE,SICK,Study1,U,84,42,Test,User,-,,Recall,Recall1,1899,away,0,1012,1510,0,0,,1
w214242BG,k0xr6met6l,Nick_Dissertation_EX1,1,99,2020-07-17T10:13:57-07:00,2.1637020111084,1,versionA_stim.csv,READVersionA.csv,"Read Version A","Dissertation, read only version A",LETTUCE,SALAD,Study1,S,59,35,Test,User,-,,Recall,Recall1,1795,salad,100,1083,1698,1,1,,1
w214242BG,k0xr6met6l,Nick_Dissertation_EX1,1,100,2020-07-17T10:13:59-07:00,1.9622249603271,1,versionA_stim.csv,READVersionA.csv,"Read Version A","Dissertation, read only version A",ROOT,PLANT,Study1,F,13,39,Test,User,-,,Recall,Recall1,1487,plant,100,847,1299,1,1,,1
w214242BG,k0xr6met6l,Nick_Dissertation_EX1,1,101,2020-07-17T10:14:01-07:00,1.5123109817505,1,versionA_stim.csv,READVersionA.csv,"Read Version A","Dissertation, read only version A",DARK,CAVE,Study1,B,28,30,Test,User,-,,Recall,Recall1,1145,,0,-1,-1,0,0,,1
w214242BG,k0xr6met6l,Nick_Dissertation_EX1,1,102,2020-07-17T10:14:07-07:00,6.6242280006409,1,versionA_stim.csv,READVersionA.csv,"Read Version A","Dissertation, read only version A",BALL,RACKET,Study1,B,38,17,Test,User,-,,Recall,Recall1,6260,,0,-1,-1,0,0,,1
w214242BG,k0xr6met6l,Nick_Dissertation_EX1,1,103,2020-07-17T10:14:09-07:00,1.6689610481262,1,versionA_stim.csv,READVersionA.csv,"Read Version A","Dissertation, read only version A",HOT,CHILI,Study1,B,37,82,Test,User,-,,Recall,Recall1,1288,,0,-1,-1,0,0,,1
w214242BG,k0xr6met6l,Nick_Dissertation_EX1,1,104,2020-07-17T10:14:12-07:00,2.9431259632111,1,versionA_stim.csv,READVersionA.csv,"Read Version A","Dissertation, read only version A",GREAT,FANTASTIC,Study1,B,35,45,Test,User,-,,Recall,Recall1,2268,fantastic,100,911,2118,1,1,,1
w214242BG,k0xr6met6l,Nick_Dissertation_EX1,1,105,2020-07-17T10:14:13-07:00,1.5161969661713,1,versionA_stim.csv,READVersionA.csv,"Read Version A","Dissertation, read only version A",HERD,COW,Study1,F,22,26,Test,User,-,,Recall,Recall1,1131,cow,100,817,973,1,1,,1
w214242BG,k0xr6met6l,Nick_Dissertation_EX1,1,106,2020-07-17T10:14:18-07:00,4.2905819416046,1,versionA_stim.csv,READVersionA.csv,"Read Version A","Dissertation, read only version A",WORK,CHORE,Study1,B,39,84,Test,User,-,,Recall,Recall1,2876,,0,-1,-1,0,0,,1
w214242BG,k0xr6met6l,Nick_Dissertation_EX1,1,107,2020-07-17T10:14:19-07:00,1.8228349685669,1,versionA_stim.csv,READVersionA.csv,"Read Version A","Dissertation, read only version A",WINE,CHEESE,Study1,S,57,77,Test,User,-,,Recall,Recall1,1440,cheese,100,834,1372,1,1,,1
w214242BG,k0xr6met6l,Nick_Dissertation_EX1,1,108,2020-07-17T10:14:24-07:00,4.5156221389771,1,versionA_stim.csv,READVersionA.csv,"Read Version A","Dissertation, read only version A",HAPPY,CAR,Study1,U,77,64,Test,User,-,,Recall,Recall1,4179,,0,-1,-1,0,0,,1
w214242BG,k0xr6met6l,Nick_Dissertation_EX1,1,109,2020-07-17T10:14:28-07:00,4.2563328742981,1,versionA_stim.csv,READVersionA.csv,"Read Version A","Dissertation, read only version A",BABY,CHILD,Study1,S,64,19,Test,User,-,,Recall,Recall1,3878,,0,-1,-1,0,0,,1
w214242BG,k0xr6met6l,Nick_Dissertation_EX1,1,110,2020-07-17T10:14:34-07:00,5.673159122467,1,versionA_stim.csv,READVersionA.csv,"Read Version A","Dissertation, read only version A",SENTENCE,WORD,Study1,B,31,57,Test,User,-,,Recall,Recall1,5325,word,100,3232,3612,1,1,,1
w214242BG,k0xr6met6l,Nick_Dissertation_EX1,1,111,2020-07-17T10:14:36-07:00,2.1533999443054,1,versionA_stim.csv,READVersionA.csv,"Read Version A","Dissertation, read only version A",SUGAR,RIDDLE,Study1,U,81,14,Test,User,-,,Recall,Recall1,1780,riddle,100,1122,1663,1,1,,1
w214242BG,k0xr6met6l,Nick_Dissertation_EX1,1,112,2020-07-17T10:14:39-07:00,3.2215909957886,1,versionA_stim.csv,READVersionA.csv,"Read Version A","Dissertation, read only version A",BITTER,COLD,Study1,F,12,33,Test,User,-,,Recall,Recall1,2861," cold",100,1257,2672,1,1,,1
w214242BG,k0xr6met6l,Nick_Dissertation_EX1,1,113,2020-07-17T10:14:41-07:00,1.4306519031525,1,versionA_stim.csv,READVersionA.csv,"Read Version A","Dissertation, read only version A",BUG,WASP,Study1,B,32,25,Test,User,-,,Recall,Recall1,1079,,0,-1,-1,0,0,,1
w214242BG,k0xr6met6l,Nick_Dissertation_EX1,1,114,2020-07-17T10:14:43-07:00,1.8952670097351,1,versionA_stim.csv,READVersionA.csv,"Read Version A","Dissertation, read only version A",BRIDGE,WATER,Study1,F,18,60,Test,User,-,,Recall,Recall1,1508,water,100,916,1293,1,1,,1
w214242BG,k0xr6met6l,Nick_Dissertation_EX1,1,115,2020-07-17T10:14:49-07:00,6.0340270996094,1,versionA_stim.csv,READVersionA.csv,"Read Version A","Dissertation, read only version A",CHISEL,HAMMER,Study1,F,9,23,Test,User,-,,Recall,Recall1,5638,hammer,100,4576,5416,1,1,,1
w214242BG,k0xr6met6l,Nick_Dissertation_EX1,1,116,2020-07-17T10:15:01-07:00,12.286899089813,1,versionA_stim.csv,READVersionA.csv,"Read Version A","Dissertation, read only version A",SOON,BELT,Study1,U,70,52,Test,User,-,,Recall,Recall1,11891,belt,100,5948,11572,1,1,,1
w214242BG,k0xr6met6l,Nick_Dissertation_EX1,1,117,2020-07-17T10:15:03-07:00,1.9308958053589,1,versionA_stim.csv,READVersionA.csv,"Read Version A","Dissertation, read only version A",BEGIN,END,Study1,S,54,86,Test,User,-,,Recall,Recall1,1543,end,100,1247,1411,1,1,,1
w214242BG,k0xr6met6l,Nick_Dissertation_EX1,1,118,2020-07-17T10:15:04-07:00,1.4628221988678,1,versionA_stim.csv,READVersionA.csv,"Read Version A","Dissertation, read only version A",PLANE,PILOT,Study1,B,44,9,Test,User,-,,Recall,Recall1,1075,,0,-1,-1,0,0,,1
w214242BG,k0xr6met6l,Nick_Dissertation_EX1,1,119,2020-07-17T10:15:08-07:00,3.829060792923,1,versionA_stim.csv,READVersionA.csv,"Read Version A","Dissertation, read only version A",MACHINE,POSITION,Study1,U,76,66,Test,User,-,,Recall,Recall1,3447,position,100,1963,3034,1,1,,1
w214242BG,k0xr6met6l,Nick_Dissertation_EX1,1,120,2020-07-17T10:15:10-07:00,1.6141541004181,1,versionA_stim.csv,READVersionA.csv,"Read Version A","Dissertation, read only version A",REVOLUTION,WAR,Study1,F,20,43,Test,User,-,,Recall,Recall1,1214,war,100,872,1040,1,1,,1
w214242BG,k0xr6met6l,Nick_Dissertation_EX1,1,121,2020-07-17T10:15:13-07:00,2.8262550830841,1,versionA_stim.csv,READVersionA.csv,"Read Version A","Dissertation, read only version A",HYGIENE,CLEAN,Study1,F,17,73,Test,User,-,,Recall,Recall1,2447,clean,100,1290,2138,1,1,,1
w214242BG,k0xr6met6l,Nick_Dissertation_EX1,1,122,2020-07-17T10:15:16-07:00,2.9593279361725,1,versionA_stim.csv,READVersionA.csv,"Read Version A","Dissertation, read only version A",PAW,DOG,Study1,F,15,68,Test,User,-,,Recall,Recall1,2531,dog,100,2066,2276,1,1,,1
w214242BG,k0xr6met6l,Nick_Dissertation_EX1,1,123,2020-07-17T10:15:17-07:00,1.7194180488586,1,versionA_stim.csv,READVersionA.csv,"Read Version A","Dissertation, read only version A",HEIGHT,GROWTH,Study1,B,30,78,Test,User,-,,Recall,Recall1,1337,,0,-1,-1,0,0,,1
w214242BG,k0xr6met6l,Nick_Dissertation_EX1,1,124,2020-07-17T10:15:19-07:00,1.7004759311676,1,versionA_stim.csv,READVersionA.csv,"Read Version A","Dissertation, read only version A",TUNA,FISH,Study1,F,25,13,Test,User,-,,Recall,Recall1,1312,fish,100,822,1075,1,1,,1
w214242BG,k0xr6met6l,Nick_Dissertation_EX1,1,125,2020-07-17T10:15:23-07:00,3.9803040027618,1,versionA_stim.csv,READVersionA.csv,"Read Version A","Dissertation, read only version A",CLOTHES,ATTIRE,Study1,B,43,18,Test,User,-,,Recall,Recall1,2600,child,18.181818181818,2038,2395,0,0,,1
w214242BG,k0xr6met6l,Nick_Dissertation_EX1,1,126,2020-07-17T10:15:26-07:00,3.4135820865631,1,versionA_stim.csv,READVersionA.csv,"Read Version A","Dissertation, read only version A",CASH,WOULD,Study1,U,83,72,Test,User,-,,Recall,Recall1,2967,would,100,809,2685,1,1,,1
w214242BG,k0xr6met6l,Nick_Dissertation_EX1,1,127,2020-07-17T10:15:28-07:00,1.7381799221039,1,versionA_stim.csv,READVersionA.csv,"Read Version A","Dissertation, read only version A",PAST,FUTURE,Study1,S,61,61,Test,User,-,,Recall,Recall1,1355,,0,-1,-1,0,0,,1
w214242BG,k0xr6met6l,Nick_Dissertation_EX1,1,128,2020-07-17T10:15:30-07:00,1.6996910572052,1,versionA_stim.csv,READVersionA.csv,"Read Version A","Dissertation, read only version A",DELINQUENT,BAD,Study1,F,6,15,Test,User,-,,Recall,Recall1,1325,bad,100,891,1187,1,1,,1
w214242BG,k0xr6met6l,Nick_Dissertation_EX1,1,129,2020-07-17T10:15:31-07:00,1.2647700309753,1,versionA_stim.csv,READVersionA.csv,"Read Version A","Dissertation, read only version A",FIRE,BLAZE,Study1,B,45,85,Test,User,-,,Recall,Recall1,908,,0,-1,-1,0,0,,1
w214242BG,k0xr6met6l,Nick_Dissertation_EX1,1,130,2020-07-17T10:15:34-07:00,2.9192669391632,1,versionA_stim.csv,READVersionA.csv,"Read Version A","Dissertation, read only version A",TAKE,SEIZE,Study1,B,29,40,Test,User,-,,Recall,Recall1,2547,seize,100,1815,2279,1,1,,1
w214242BG,k0xr6met6l,Nick_Dissertation_EX1,1,131,2020-07-17T10:15:35-07:00,1.0725338459015,1,versionA_stim.csv,READVersionA.csv,"Read Version A","Dissertation, read only version A",KEY,LATCH,Study1,B,36,10,Test,User,-,,Recall,Recall1,775,,0,-1,-1,0,0,,1
w214242BG,k0xr6met6l,Nick_Dissertation_EX1,1,132,2020-07-17T10:15:40-07:00,5.2849900722504,1,versionA_stim.csv,READVersionA.csv,"Read Version A","Dissertation, read only version A",SMELL,STENCH,Study1,B,42,48,Test,User,-,,Recall,Recall1,4881,stench,100,2623,3167,1,1,,1
w214242BG,k0xr6met6l,Nick_Dissertation_EX1,1,133,2020-07-17T10:15:44-07:00,3.6822061538696,1,versionA_stim.csv,READVersionA.csv,"Read Version A","Dissertation, read only version A",STRONG,ACCIDENT,Study1,U,80,7,Test,User,-,,Recall,Recall1,2220,accident,100,961,2045,1,1,,1
w214242BG,k0xr6met6l,Nick_Dissertation_EX1,1,134,2020-07-17T10:15:46-07:00,1.5236968994141,1,versionA_stim.csv,READVersionA.csv,"Read Version A","Dissertation, read only version A",MATH,DIVISION,Study1,B,33,53,Test,User,-,,Recall,Recall1,1137,,0,-1,-1,0,0,,1
w214242BG,k0xr6met6l,Nick_Dissertation_EX1,1,135,2020-07-17T10:15:48-07:00,2.8796830177307,1,versionA_stim.csv,READVersionA.csv,"Read Version A","Dissertation, read only version A",VALLEY,ADD,Study1,U,82,27,Test,User,-,,Recall,Recall1,2513,add,100,1642,2008,1,1,,1
w214242BG,k0xr6met6l,Nick_Dissertation_EX1,1,136,2020-07-17T10:15:51-07:00,2.5509860515594,1,versionA_stim.csv,READVersionA.csv,"Read Version A","Dissertation, read only version A",ALLOW,TUCK,Study1,U,78,74,Test,User,-,,Recall,Recall1,2148,,0,-1,-1,0,0,,1
w214242BG,k0xr6met6l,Nick_Dissertation_EX1,1,137,2020-07-17T10:15:53-07:00,2.3068969249725,1,versionA_stim.csv,READVersionA.csv,"Read Version A","Dissertation, read only version A",GRILL,BAR,Study1,S,52,54,Test,User,-,,Recall,Recall1,1942,bar,100,1483,1750,1,1,,1
w214242BG,k0xr6met6l,Nick_Dissertation_EX1,1,138,2020-07-17T10:15:55-07:00,2.0140678882599,1,versionA_stim.csv,READVersionA.csv,"Read Version A","Dissertation, read only version A",WAY,OUT,Study1,F,16,79,Test,User,-,,Recall,Recall1,1647,out,100,1232,1475,1,1,,1
w214242BG,k0xr6met6l,Nick_Dissertation_EX1,1,139,2020-07-17T10:15:58-07:00,2.7441091537476,1,versionA_stim.csv,READVersionA.csv,"Read Version A","Dissertation, read only version A",MEANING,DEFINITION,Study1,S,62,81,Test,User,-,,Recall,Recall1,2346,definition,100,921,2129,1,1,,1
w214242BG,k0xr6met6l,Nick_Dissertation_EX1,1,140,2020-07-17T10:16:01-07:00,3.3673689365387,1,versionA_stim.csv,READVersionA.csv,"Read Version A","Dissertation, read only version A",SLEEP,DROWSY,Study1,B,41,32,Test,User,-,,Recall,Recall1,3018,drowsy,100,2031,2722,1,1,,1
w214242BG,k0xr6met6l,Nick_Dissertation_EX1,1,141,2020-07-17T10:16:03-07:00,1.8128399848938,1,versionA_stim.csv,READVersionA.csv,"Read Version A","Dissertation, read only version A",DUMP,WASTE,Study1,S,49,16,Test,User,-,,Recall,Recall1,1442,waste,100,904,1250,1,1,,1
w214242BG,k0xr6met6l,Nick_Dissertation_EX1,1,142,2020-07-17T10:16:12-07:00,8.4012479782104,1,versionA_stim.csv,READVersionA.csv,"Read Version A","Dissertation, read only version A",NUMBER,AMOUNT,Study1,S,47,41,Test,User,-,,Recall,Recall1,7964,add,22.222222222222,6668,7034,0,0,,1
w214242BG,k0xr6met6l,Nick_Dissertation_EX1,1,143,2020-07-17T10:16:14-07:00,2.3739280700684,1,versionA_stim.csv,READVersionA.csv,"Read Version A","Dissertation, read only version A",LIFT,WOMAN,Study1,U,69,12,Test,User,-,,Recall,Recall1,2006,woman,100,1424,1762,1,1,,1
w214242BG,k0xr6met6l,Nick_Dissertation_EX1,1,144,2020-07-17T10:16:17-07:00,3.0697720050812,1,versionA_stim.csv,READVersionA.csv,"Read Version A","Dissertation, read only version A",FIX,HAND,Study1,U,75,62,Test,User,-,,Recall,Recall1,2696,hand,100,2255,2480,1,1,,1
w214242BG,k0xr6met6l,Nick_Dissertation_EX1,1,145,2020-07-17T10:16:20-07:00,2.7591450214386,1,versionA_stim.csv,READVersionA.csv,"Read Version A","Dissertation, read only version A",DISCUSSION,TALK,Study1,F,21,24,Test,User,-,,Recall,Recall1,2355,,0,-1,-1,0,0,,1
w214242BG,k0xr6met6l,Nick_Dissertation_EX1,1,146,2020-07-17T10:16:22-07:00,2.4967260360718,1,versionA_stim.csv,READVersionA.csv,"Read Version A","Dissertation, read only version A",HONEY,BEE,Study1,S,63,63,Test,User,-,,Recall,Recall1,2136,bee,100,1424,1823,1,1,,1
w214242BG,k0xr6met6l,Nick_Dissertation_EX1,1,147,2020-07-17T10:16:28-07:00,5.7720739841461,1,versionA_stim.csv,READVersionA.csv,"Read Version A","Dissertation, read only version A",DIGESTION,STOMACH,Study1,F,7,71,Test,User,-,,Recall,Recall1,5407,stomach,100,4670,5204,1,1,,1
w214242BG,k0xr6met6l,Nick_Dissertation_EX1,1,148,2020-07-17T10:16:30-07:00,1.695699930191,1,versionA_stim.csv,READVersionA.csv,"Read Version A","Dissertation, read only version A",POP,SODA,Study1,S,56,49,Test,User,-,,Recall,Recall1,1317,soda,100,829,1191,1,1,,1
w214242BG,k0xr6met6l,Nick_Dissertation_EX1,1,149,2020-07-17T10:16:32-07:00,1.8107640743256,1,versionA_stim.csv,READVersionA.csv,"Read Version A","Dissertation, read only version A",ORCHID,FLOWER,Study1,F,24,46,Test,User,-,,Recall,Recall1,1385,flower,100,805,1232,1,1,,1
w214242BG,k0xr6met6l,Nick_Dissertation_EX1,1,150,2020-07-17T10:16:34-07:00,1.9701089859009,1,versionA_stim.csv,READVersionA.csv,"Read Version A","Dissertation, read only version A",DEATH,BUSINESS,Study1,U,72,56,Test,User,-,,Recall,Recall1,1610,,0,-1,-1,0,0,,1
w214242BG,k0xr6met6l,Nick_Dissertation_EX1,1,151,2020-07-17T10:16:35-07:00,1.9354588985443,1,versionA_stim.csv,READVersionA.csv,"Read Version A","Dissertation, read only version A",DRINK,SIP,Study1,B,27,51,Test,User,-,,Recall,Recall1,1582,sip,100,1077,1307,1,1,,1
w214242BG,k0xr6met6l,Nick_Dissertation_EX1,1,152,2020-07-17T10:16:38-07:00,2.6566989421844,1,versionA_stim.csv,READVersionA.csv,"Read Version A","Dissertation, read only version A",DUE,ASSIGNMENT,Study1,S,46,29,Test,User,-,,Recall,Recall1,2286,,0,-1,-1,0,0,,1
w214242BG,k0xr6met6l,Nick_Dissertation_EX1,1,153,2020-07-17T10:16:44-07:00,5.8789091110229,1,versionA_stim.csv,READVersionA.csv,"Read Version A","Dissertation, read only version A",LOCATION,SITE,Study1,S,48,83,Test,User,-,,Recall,Recall1,5490,,0,-1,-1,0,0,,1
w214242BG,k0xr6met6l,Nick_Dissertation_EX1,1,154,2020-07-17T10:16:46-07:00,1.8850119113922,1,versionA_stim.csv,READVersionA.csv,"Read Version A","Dissertation, read only version A",SWAN,BIRD,Study1,F,14,70,Test,User,-,,Recall,Recall1,1495,,0,-1,-1,0,0,,1
w214242BG,k0xr6met6l,Nick_Dissertation_EX1,1,155,2020-07-17T10:16:48-07:00,2.5661430358887,1,versionA_stim.csv,READVersionA.csv,"Read Version A","Dissertation, read only version A",DEBATE,SIGHT,Study1,U,73,55,Test,User,-,,Recall,Recall1,2221,,0,-1,-1,0,0,,1
w214242BG,k0xr6met6l,Nick_Dissertation_EX1,1,156,2020-07-17T10:16:50-07:00,1.9359641075134,1,versionA_stim.csv,READVersionA.csv,"Read Version A","Dissertation, read only version A",CIRCLE,ROUND,Study1,S,65,67,Test,User,-,,Recall,Recall1,1525,round,100,993,1363,1,1,,1
w214242BG,k0xr6met6l,Nick_Dissertation_EX1,1,157,2020-07-17T10:16:54-07:00,3.5872218608856,1,versionA_stim.csv,READVersionA.csv,"Read Version A","Dissertation, read only version A",LAW,ATTORNEY,Study1,B,34,22,Test,User,-,,Recall,Recall1,3230,,0,-1,-1,0,0,,1
w214242BG,k0xr6met6l,Nick_Dissertation_EX1,1,158,2020-07-17T10:16:57-07:00,3.2344360351562,1,versionA_stim.csv,READVersionA.csv,"Read Version A","Dissertation, read only version A",PARK,HUNGRY,Study1,U,68,58,Test,User,-,,Recall,Recall1,2858,hungry,100,968,2543,1,1,,1
w214242BG,k0xr6met6l,Nick_Dissertation_EX1,1,159,2020-07-17T10:16:59-07:00,2.0725059509277,1,versionA_stim.csv,READVersionA.csv,"Read Version A","Dissertation, read only version A",WAGE,MONEY,Study1,F,8,65,Test,User,-,,Recall,Recall1,1706,,0,-1,-1,0,0,,1
w214242BG,k0xr6met6l,Nick_Dissertation_EX1,1,160,2020-07-17T10:17:07-07:00,7.2238969802856,1,versionA_stim.csv,READVersionA.csv,"Read Version A","Dissertation, read only version A",DIETARY,SACKING,Study1,U,67,36,Test,User,-,,Recall,Recall1,6842,,0,-1,-1,0,0,,1
w214242BG,k0xr6met6l,Nick_Dissertation_EX1,1,161,2020-07-17T10:17:10-07:00,3.4295251369476,1,versionA_stim.csv,READVersionA.csv,"Read Version A","Dissertation, read only version A",HUNGER,FAMINE,Study1,B,40,28,Test,User,-,,Recall,Recall1,3035,,0,-1,-1,0,0,,1
w214242BG,k0xr6met6l,Nick_Dissertation_EX1,1,162,2020-07-17T10:17:12-07:00,2.1006960868835,1,versionA_stim.csv,READVersionA.csv,"Read Version A","Dissertation, read only version A",BATHROOM,TOILET,Study1,S,58,37,Test,User,-,,Recall,Recall1,1724,toilet,100,1073,1476,1,1,,1
w214242BG,k0xr6met6l,Nick_Dissertation_EX1,1,163,2020-07-17T10:17:14-07:00,1.5377898216248,1,versionA_stim.csv,READVersionA.csv,"Read Version A","Dissertation, read only version A",TRIAL,JURY,Study1,S,50,69,Test,User,-,,Recall,Recall1,1142,,0,-1,-1,0,0,,1
w214242BG,k0xr6met6l,Nick_Dissertation_EX1,1,164,2020-07-17T10:17:17-07:00,3.5053241252899,1,versionA_stim.csv,READVersionA.csv,"Read Version A","Dissertation, read only version A",KIDNEY,LIVER,Study1,S,53,59,Test,User,-,,Recall,Recall1,3119,liver,100,1664,2717,1,1,,1
w214242BG,k0xr6met6l,Nick_Dissertation_EX1,1,165,2020-07-17T10:17:20-07:00,2.9408929347992,1,versionA_stim.csv,READVersionA.csv,"Read Version A","Dissertation, read only version A",EDITOR,NEWS,Study1,F,10,44,Test,User,-,,Recall,Recall1,2568,news,100,1695,2011,1,1,,1
w214242BG,k0xr6met6l,Nick_Dissertation_EX1,1,166,2020-07-17T10:17:28-07:00,8.362508058548,1,versionA_stim.csv,READVersionA.csv,"Read Version A","Dissertation, read only version A",ART,LION,Study1,U,79,20,Test,User,-,,Recall,Recall1,7989,,0,-1,-1,0,0,,1
w214242BG,k0xr6met6l,Nick_Dissertation_EX1,1,167,2020-07-17T10:17:31-07:00,2.5872030258179,1,versionA_stim.csv,READVersionA.csv,"Read Version A","Dissertation, read only version A",PUSHER,CLUTTER,Study1,U,66,21,Test,User,-,,Recall,Recall1,2229,clutter,100,1084,1840,1,1,,1
w214242BG,k0xr6met6l,Nick_Dissertation_EX1,1,168,2020-07-17T10:17:32-07:00,1.466689825058,1,versionA_stim.csv,READVersionA.csv,"Read Version A","Dissertation, read only version A",DISCOVER,FLOOR,Study1,U,71,34,Test,User,-,,Recall,Recall1,1100,,0,-1,-1,0,0,,1
w214242BG,k0xr6met6l,Nick_Dissertation_EX1,1,169,2020-07-17T10:17:35-07:00,2.6932590007782,1,versionA_stim.csv,READVersionA.csv,"Read Version A","Dissertation, read only version A",ARCHITECTURE,DESIGN,Study1,S,51,31,Test,User,-,,Recall,Recall1,2038,design,100,972,1706,1,1,,1
w214242BG,k0xr6met6l,Nick_Dissertation_EX1,1,170,2020-07-17T10:17:37-07:00,1.8093230724335,1,versionA_stim.csv,READVersionA.csv,"Read Version A","Dissertation, read only version A",CREDIT,CARD,Study1,F,23,11,Test,User,-,,Recall,Recall1,1427,card,100,775,1150,1,1,,1
w214242BG,k0xr6met6l,Nick_Dissertation_EX1,1,171,2020-07-17T10:17:39-07:00,2.0035679340363,1,versionA_stim.csv,READVersionA.csv,"Read Version A","Dissertation, read only version A",GEOLOGY,ROCK,Study1,F,19,8,Test,User,-,,Recall,Recall1,1401,rock,100,847,1095,1,1,,1
w214242BG,k0xr6met6l,Nick_Dissertation_EX1,1,172,2020-07-17T10:17:43-07:00,4.4021601676941,1,versionA_stim.csv,READVersionA.csv,"Read Version A","Dissertation, read only version A",ARTERY,BRONZE,Study1,U,74,76,Test,User,-,,Recall,Recall1,4056,bronze,100,3130,3738,1,1,,1
w214242BG,k0xr6met6l,Nick_Dissertation_EX1,1,173,2020-07-17T10:17:50-07:00,6.7412979602814,1,versionA_stim.csv,READVersionA.csv,"Read Version A","Dissertation, read only version A",BLOW,WIND,Study1,S,55,80,Test,User,-,,Recall,Recall1,6328,wind,100,5727,6005,1,1,,1
w214242BG,k0xr6met6l,Nick_Dissertation_EX1,1,174,2020-07-17T10:17:52-07:00,2.0266799926758,1,versionA_stim.csv,READVersionA.csv,"Read Version A","Dissertation, read only version A",SHOE,FOOT,Study1,S,60,47,Test,User,-,,Recall,Recall1,1661,foot,100,1151,1427,1,1,,1
w214242BG,k0xr6met6l,Nick_Dissertation_EX1,1,175,2020-07-17T10:18:03-07:00,10.929574012756,1,versionA_stim.csv,READVersionA.csv,"Read Version A","Dissertation, read only version A",,,,,,0,Instruct,-,10,"You will now be presented with a new set of word pairs. Please study each pair. Remember that your memory will be tested! When finished, press Enter to move to the next pair.",Initial_Instruct,Instruct4,10570,,,-1,-1,,,,1
w214242BG,k0xr6met6l,Nick_Dissertation_EX1,1,176,2020-07-17T10:18:06-07:00,2.8297538757324,1,versionA_stim.csv,READVersionA.csv,"Read Version A","Dissertation, read only version A",NOODLE,STRING,BUFFER3,Buffer,92,92,Study,User,-,,Study/JOL,BUFFER3,2243,,,-1,-1,,,,1
w214242BG,k0xr6met6l,Nick_Dissertation_EX1,1,177,2020-07-17T10:18:09-07:00,3.4018590450287,1,versionA_stim.csv,READVersionA.csv,"Read Version A","Dissertation, read only version A",CAMP,ADVENTURE,BUFFER3,Buffer,95,94,Study,User,-,,Study/JOL,BUFFER3,2003,,,-1,-1,,,,1
w214242BG,k0xr6met6l,Nick_Dissertation_EX1,1,178,2020-07-17T10:18:11-07:00,1.7286660671234,1,versionA_stim.csv,READVersionA.csv,"Read Version A","Dissertation, read only version A",CARROT,POTATO,BUFFER3,Buffer,91,93,Study,User,-,,Study/JOL,BUFFER3,1371,,,-1,-1,,,,1
w214242BG,k0xr6met6l,Nick_Dissertation_EX1,1,179,2020-07-17T10:18:13-07:00,1.7664389610291,1,versionA_stim.csv,READVersionA.csv,"Read Version A","Dissertation, read only version A",ICE,FROZEN,BUFFER3,Buffer,94,96,Study,User,-,,Study/JOL,BUFFER3,1352,,,-1,-1,,,,1
w214242BG,k0xr6met6l,Nick_Dissertation_EX1,1,180,2020-07-17T10:18:15-07:00,2.4911830425262,1,versionA_stim.csv,READVersionA.csv,"Read Version A","Dissertation, read only version A",SHRIMP,FISH,BUFFER3,Buffer,93,95,Study,User,-,,Study/JOL,BUFFER3,2110,,,-1,-1,,,,1
w214242BG,k0xr6met6l,Nick_Dissertation_EX1,1,181,2020-07-17T10:18:24-07:00,8.9413750171661,1,versionA_stim.csv,READVersionA.csv,"Read Version A","Dissertation, read only version A",MAZE,ELECTION,Study2,U,159,139,Study,User,-,,Study/JOL,"Study Phase2",8571,,,-1,-1,,,,1
w214242BG,k0xr6met6l,Nick_Dissertation_EX1,1,182,2020-07-17T10:18:27-07:00,2.6696019172668,1,versionA_stim.csv,READVersionA.csv,"Read Version A","Dissertation, read only version A",PHONE,COMMUNICATION,Study2,S,149,165,Study,User,-,,Study/JOL,"Study Phase2",1288,,,-1,-1,,,,1
w214242BG,k0xr6met6l,Nick_Dissertation_EX1,1,183,2020-07-17T10:18:37-07:00,10.53388094902,1,versionA_stim.csv,READVersionA.csv,"Read Version A","Dissertation, read only version A",RAZOR,SHAVE,Study2,S,136,123,Study,User,-,,Study/JOL,"Study Phase2",10170,,,-1,-1,,,,1
w214242BG,k0xr6met6l,Nick_Dissertation_EX1,1,184,2020-07-17T10:18:41-07:00,3.2246601581573,1,versionA_stim.csv,READVersionA.csv,"Read Version A","Dissertation, read only version A",CHILL,COLD,Study2,F,114,112,Study,User,-,,Study/JOL,"Study Phase2",2868,,,-1,-1,,,,1
w214242BG,k0xr6met6l,Nick_Dissertation_EX1,1,185,2020-07-17T10:18:42-07:00,1.4249420166016,1,versionA_stim.csv,READVersionA.csv,"Read Version A","Dissertation, read only version A",TANTRUM,TEMPER,Study2,S,154,130,Study,User,-,,Study/JOL,"Study Phase2",1040,,,-1,-1,,,,1
w214242BG,k0xr6met6l,Nick_Dissertation_EX1,1,186,2020-07-17T10:18:45-07:00,2.5415949821472,1,versionA_stim.csv,READVersionA.csv,"Read Version A","Dissertation, read only version A",STAR,ACTRESS,Study2,B,120,138,Study,User,-,,Study/JOL,"Study Phase2",2141,,,-1,-1,,,,1
w214242BG,k0xr6met6l,Nick_Dissertation_EX1,1,187,2020-07-17T10:18:56-07:00,11.606137990952,1,versionA_stim.csv,READVersionA.csv,"Read Version A","Dissertation, read only version A",DRY,WET,Study2,S,146,147,Study,User,-,,Study/JOL,"Study Phase2",11240,,,-1,-1,,,,1
w214242BG,k0xr6met6l,Nick_Dissertation_EX1,1,188,2020-07-17T10:18:59-07:00,3.2591869831085,1,versionA_stim.csv,READVersionA.csv,"Read Version A","Dissertation, read only version A",NAME,HATE,Study2,U,167,142,Study,User,-,,Study/JOL,"Study Phase2",2887,,,-1,-1,,,,1
w214242BG,k0xr6met6l,Nick_Dissertation_EX1,1,189,2020-07-17T10:19:01-07:00,2.00865483284,1,versionA_stim.csv,READVersionA.csv,"Read Version A","Dissertation, read only version A",EVEN,REVENGE,Study2,B,122,107,Study,User,-,,Study/JOL,"Study Phase2",692,,,-1,-1,,,,1
w214242BG,k0xr6met6l,Nick_Dissertation_EX1,1,190,2020-07-17T10:19:04-07:00,2.7174551486969,1,versionA_stim.csv,READVersionA.csv,"Read Version A","Dissertation, read only version A",DOCUMENT,PAPER,Study2,F,109,104,Study,User,-,,Study/JOL,"Study Phase2",2073,,,-1,-1,,,,1
w214242BG,k0xr6met6l,Nick_Dissertation_EX1,1,191,2020-07-17T10:19:07-07:00,3.1975650787354,1,versionA_stim.csv,READVersionA.csv,"Read Version A","Dissertation, read only version A",MONEY,BANKER,Study2,B,132,131,Study,User,-,,Study/JOL,"Study Phase2",2569,,,-1,-1,,,,1
w214242BG,k0xr6met6l,Nick_Dissertation_EX1,1,192,2020-07-17T10:19:10-07:00,2.4819588661194,1,versionA_stim.csv,READVersionA.csv,"Read Version A","Dissertation, read only version A",SHOELACE,TIE,Study2,F,99,132,Study,User,-,,Study/JOL,"Study Phase2",2120,,,-1,-1,,,,1
w214242BG,k0xr6met6l,Nick_Dissertation_EX1,1,193,2020-07-17T10:19:11-07:00,1.6202111244202,1,versionA_stim.csv,READVersionA.csv,"Read Version A","Dissertation, read only version A",STRETCH,CLOTH,Study2,U,157,160,Study,User,-,,Study/JOL,"Study Phase2",1230,,,-1,-1,,,,1
w214242BG,k0xr6met6l,Nick_Dissertation_EX1,1,194,2020-07-17T10:19:20-07:00,8.1372249126434,1,versionA_stim.csv,READVersionA.csv,"Read Version A","Dissertation, read only version A",LOAN,SIGN,Study2,U,171,120,Study,User,-,,Study/JOL,"Study Phase2",7694,,,-1,-1,,,,1
w214242BG,k0xr6met6l,Nick_Dissertation_EX1,1,195,2020-07-17T10:19:23-07:00,3.137414932251,1,versionA_stim.csv,READVersionA.csv,"Read Version A","Dissertation, read only version A",PLANE,AIRCRAFT,Study2,B,129,128,Study,User,-,,Study/JOL,"Study Phase2",2746,,,-1,-1,,,,1
w214242BG,k0xr6met6l,Nick_Dissertation_EX1,1,196,2020-07-17T10:19:25-07:00,2.0004761219025,1,versionA_stim.csv,READVersionA.csv,"Read Version A","Dissertation, read only version A",WATER,DRINK,Study2,S,143,98,Study,User,-,,Study/JOL,"Study Phase2",1594,,,-1,-1,,,,1
w214242BG,k0xr6met6l,Nick_Dissertation_EX1,1,197,2020-07-17T10:19:27-07:00,1.9087729454041,1,versionA_stim.csv,READVersionA.csv,"Read Version A","Dissertation, read only version A",LOUD,NOISE,Study2,S,152,134,Study,User,-,,Study/JOL,"Study Phase2",599,,,-1,-1,,,,1
w214242BG,k0xr6met6l,Nick_Dissertation_EX1,1,198,2020-07-17T10:19:28-07:00,1.6922309398651,1,versionA_stim.csv,READVersionA.csv,"Read Version A","Dissertation, read only version A",CAKE,CLOTHES,Study2,U,166,125,Study,User,-,,Study/JOL,"Study Phase2",1336,,,-1,-1,,,,1
w214242BG,k0xr6met6l,Nick_Dissertation_EX1,1,199,2020-07-17T10:19:30-07:00,1.3589160442352,1,versionA_stim.csv,READVersionA.csv,"Read Version A","Dissertation, read only version A",BAD,VILLAIN,Study2,B,118,153,Study,User,-,,Study/JOL,"Study Phase2",947,,,-1,-1,,,,1
w214242BG,k0xr6met6l,Nick_Dissertation_EX1,1,200,2020-07-17T10:19:31-07:00,0.87539601325989,1,versionA_stim.csv,READVersionA.csv,"Read Version A","Dissertation, read only version A",ELEMENT,CARBON,Study2,S,141,161,Study,User,-,,Study/JOL,"Study Phase2",575,,,-1,-1,,,,1
w214242BG,k0xr6met6l,Nick_Dissertation_EX1,1,201,2020-07-17T10:19:32-07:00,1.3910648822784,1,versionA_stim.csv,READVersionA.csv,"Read Version A","Dissertation, read only version A",ALONE,LONELY,Study2,S,145,157,Study,User,-,,Study/JOL,"Study Phase2",1028,,,-1,-1,,,,1
w214242BG,k0xr6met6l,Nick_Dissertation_EX1,1,202,2020-07-17T10:19:33-07:00,1.3399441242218,1,versionA_stim.csv,READVersionA.csv,"Read Version A","Dissertation, read only version A",KEYS,JOKE,Study2,U,165,100,Study,User,-,,Study/JOL,"Study Phase2",914,,,-1,-1,,,,1
w214242BG,k0xr6met6l,Nick_Dissertation_EX1,1,203,2020-07-17T10:19:35-07:00,1.3690409660339,1,versionA_stim.csv,READVersionA.csv,"Read Version A","Dissertation, read only version A",OWN,HAVE,Study2,S,153,141,Study,User,-,,Study/JOL,"Study Phase2",777,,,-1,-1,,,,1
w214242BG,k0xr6met6l,Nick_Dissertation_EX1,1,204,2020-07-17T10:19:36-07:00,0.85647392272949,1,versionA_stim.csv,READVersionA.csv,"Read Version A","Dissertation, read only version A",CHERRY,RED,Study2,F,104,136,Study,User,-,,Study/JOL,"Study Phase2",550,,,-1,-1,,,,1
w214242BG,k0xr6met6l,Nick_Dissertation_EX1,1,205,2020-07-17T10:19:37-07:00,1.0104610919952,1,versionA_stim.csv,READVersionA.csv,"Read Version A","Dissertation, read only version A",EXTENSION,LONG,Study2,F,96,143,Study,User,-,,Study/JOL,"Study Phase2",681,,,-1,-1,,,,1
w214242BG,k0xr6met6l,Nick_Dissertation_EX1,1,206,2020-07-17T10:19:38-07:00,1.0134088993073,1,versionA_stim.csv,READVersionA.csv,"Read Version A","Dissertation, read only version A",SUN,TAN,Study2,S,155,175,Study,User,-,,Study/JOL,"Study Phase2",705,,,-1,-1,,,,1
w214242BG,k0xr6met6l,Nick_Dissertation_EX1,1,207,2020-07-17T10:19:39-07:00,1.1465470790863,1,versionA_stim.csv,READVersionA.csv,"Read Version A","Dissertation, read only version A",CAR,WINDSHIELD,Study2,B,117,116,Study,User,-,,Study/JOL,"Study Phase2",839,,,-1,-1,,,,1
w214242BG,k0xr6met6l,Nick_Dissertation_EX1,1,208,2020-07-17T10:19:42-07:00,3.6776440143585,1,versionA_stim.csv,READVersionA.csv,"Read Version A","Dissertation, read only version A",HONEST,TRUTHFUL,Study2,B,133,140,Study,User,-,,Study/JOL,"Study Phase2",3311,,,-1,-1,,,,1
w214242BG,k0xr6met6l,Nick_Dissertation_EX1,1,209,2020-07-17T10:19:43-07:00,1.0816221237183,1,versionA_stim.csv,READVersionA.csv,"Read Version A","Dissertation, read only version A",CLUE,GAME,Study2,F,97,110,Study,User,-,,Study/JOL,"Study Phase2",785,,,-1,-1,,,,1
w214242BG,k0xr6met6l,Nick_Dissertation_EX1,1,210,2020-07-17T10:19:45-07:00,1.0706148147583,1,versionA_stim.csv,READVersionA.csv,"Read Version A","Dissertation, read only version A",TEMPERATURE,Morning,Study2,U,173,105,Study,User,-,,Study/JOL,"Study Phase2",763,,,-1,-1,,,,1
w214242BG,k0xr6met6l,Nick_Dissertation_EX1,1,211,2020-07-17T10:19:45-07:00,0.92583513259888,1,versionA_stim.csv,READVersionA.csv,"Read Version A","Dissertation, read only version A",POP,BALLOON,Study2,B,123,108,Study,User,-,,Study/JOL,"Study Phase2",642,,,-1,-1,,,,1
w214242BG,k0xr6met6l,Nick_Dissertation_EX1,1,212,2020-07-17T10:19:47-07:00,1.7777218818665,1,versionA_stim.csv,READVersionA.csv,"Read Version A","Dissertation, read only version A",VEHICLE,CHARM,Study2,U,160,167,Study,User,-,,Study/JOL,"Study Phase2",1409,,,-1,-1,,,,1
w214242BG,k0xr6met6l,Nick_Dissertation_EX1,1,213,2020-07-17T10:19:48-07:00,1.1167540550232,1,versionA_stim.csv,READVersionA.csv,"Read Version A","Dissertation, read only version A",BOTH,OUNCE,Study2,U,172,144,Study,User,-,,Study/JOL,"Study Phase2",812,,,-1,-1,,,,1
w214242BG,k0xr6met6l,Nick_Dissertation_EX1,1,214,2020-07-17T10:19:49-07:00,1.0702910423279,1,versionA_stim.csv,READVersionA.csv,"Read Version A","Dissertation, read only version A",SCALP,HEAD,Study2,F,105,173,Study,User,-,,Study/JOL,"Study Phase2",775,,,-1,-1,,,,1
w214242BG,k0xr6met6l,Nick_Dissertation_EX1,1,215,2020-07-17T10:19:52-07:00,2.151004076004,1,versionA_stim.csv,READVersionA.csv,"Read Version A","Dissertation, read only version A",GONE,AWAY,Study2,S,142,111,Study,User,-,,Study/JOL,"Study Phase2",834,,,-1,-1,,,,1
w214242BG,k0xr6met6l,Nick_Dissertation_EX1,1,216,2020-07-17T10:19:53-07:00,1.1765308380127,1,versionA_stim.csv,READVersionA.csv,"Read Version A","Dissertation, read only version A",BEST,FAVORITE,Study2,B,125,164,Study,User,-,,Study/JOL,"Study Phase2",852,,,-1,-1,,,,1
w214242BG,k0xr6met6l,Nick_Dissertation_EX1,1,217,2020-07-17T10:19:54-07:00,0.87306499481201,1,versionA_stim.csv,READVersionA.csv,"Read Version A","Dissertation, read only version A",CHOP,CUT,Study2,F,107,121,Study,User,-,,Study/JOL,"Study Phase2",548,,,-1,-1,,,,1
w214242BG,k0xr6met6l,Nick_Dissertation_EX1,1,218,2020-07-17T10:19:55-07:00,1.077043056488,1,versionA_stim.csv,READVersionA.csv,"Read Version A","Dissertation, read only version A",BIRD,PENGUIN,Study2,B,119,122,Study,User,-,,Study/JOL,"Study Phase2",761,,,-1,-1,,,,1
w214242BG,k0xr6met6l,Nick_Dissertation_EX1,1,219,2020-07-17T10:19:56-07:00,1.3881559371948,1,versionA_stim.csv,READVersionA.csv,"Read Version A","Dissertation, read only version A",FISH,SARDINE,Study2,B,130,99,Study,User,-,,Study/JOL,"Study Phase2",1010,,,-1,-1,,,,1
w214242BG,k0xr6met6l,Nick_Dissertation_EX1,1,220,2020-07-17T10:19:57-07:00,0.95648598670959,1,versionA_stim.csv,READVersionA.csv,"Read Version A","Dissertation, read only version A",FRUIT,STRAWBERRY,Study2,B,124,150,Study,User,-,,Study/JOL,"Study Phase2",638,,,-1,-1,,,,1
w214242BG,k0xr6met6l,Nick_Dissertation_EX1,1,221,2020-07-17T10:19:58-07:00,1.012834072113,1,versionA_stim.csv,READVersionA.csv,"Read Version A","Dissertation, read only version A",DETECTIVE,MYSTERY,Study2,F,100,151,Study,User,-,,Study/JOL,"Study Phase2",713,,,-1,-1,,,,1
w214242BG,k0xr6met6l,Nick_Dissertation_EX1,1,222,2020-07-17T10:19:59-07:00,0.89661407470703,1,versionA_stim.csv,READVersionA.csv,"Read Version A","Dissertation, read only version A",DRIVER,CAR,Study2,F,106,124,Study,User,-,,Study/JOL,"Study Phase2",607,,,-1,-1,,,,1
w214242BG,k0xr6met6l,Nick_Dissertation_EX1,1,223,2020-07-17T10:20:02-07:00,3.0834858417511,1,versionA_stim.csv,READVersionA.csv,"Read Version A","Dissertation, read only version A",Shell,SHAKE,Study2,U,163,133,Study,User,-,,Study/JOL,"Study Phase2",2704,,,-1,-1,,,,1
w214242BG,k0xr6met6l,Nick_Dissertation_EX1,1,224,2020-07-17T10:20:04-07:00,1.9007551670074,1,versionA_stim.csv,READVersionA.csv,"Read Version A","Dissertation, read only version A",GIVE,STEAK,Study2,U,158,171,Study,User,-,,Study/JOL,"Study Phase2",1522,,,-1,-1,,,,1
w214242BG,k0xr6met6l,Nick_Dissertation_EX1,1,225,2020-07-17T10:20:05-07:00,0.79212498664856,1,versionA_stim.csv,READVersionA.csv,"Read Version A","Dissertation, read only version A",CANDLE,WAX,Study2,S,139,154,Study,User,-,,Study/JOL,"Study Phase2",491,,,-1,-1,,,,1
w214242BG,k0xr6met6l,Nick_Dissertation_EX1,1,226,2020-07-17T10:20:06-07:00,1.1348929405212,1,versionA_stim.csv,READVersionA.csv,"Read Version A","Dissertation, read only version A",FLEA,TICK,Study2,S,151,114,Study,User,-,,Study/JOL,"Study Phase2",806,,,-1,-1,,,,1
w214242BG,k0xr6met6l,Nick_Dissertation_EX1,1,227,2020-07-17T10:20:07-07:00,1.0868060588837,1,versionA_stim.csv,READVersionA.csv,"Read Version A","Dissertation, read only version A",ADJOURN,END,Study2,F,101,155,Study,User,-,,Study/JOL,"Study Phase2",785,,,-1,-1,,,,1
w214242BG,k0xr6met6l,Nick_Dissertation_EX1,1,228,2020-07-17T10:20:08-07:00,1.5144720077515,1,versionA_stim.csv,READVersionA.csv,"Read Version A","Dissertation, read only version A",CRACKLE,ABLE,Study2,U,162,163,Study,User,-,,Study/JOL,"Study Phase2",1136,,,-1,-1,,,,1
w214242BG,k0xr6met6l,Nick_Dissertation_EX1,1,229,2020-07-17T10:20:10-07:00,1.0152199268341,1,versionA_stim.csv,READVersionA.csv,"Read Version A","Dissertation, read only version A",LISTEN,FICTION,Study2,U,164,97,Study,User,-,,Study/JOL,"Study Phase2",710,,,-1,-1,,,,1
w214242BG,k0xr6met6l,Nick_Dissertation_EX1,1,230,2020-07-17T10:20:12-07:00,2.6715130805969,1,versionA_stim.csv,READVersionA.csv,"Read Version A","Dissertation, read only version A",AFFECTION,LOVE,Study2,F,115,146,Study,User,-,,Study/JOL,"Study Phase2",2290,,,-1,-1,,,,1
w214242BG,k0xr6met6l,Nick_Dissertation_EX1,1,231,2020-07-17T10:20:13-07:00,1.181135892868,1,versionA_stim.csv,READVersionA.csv,"Read Version A","Dissertation, read only version A",FEUD,FIGHT,Study2,F,113,172,Study,User,-,,Study/JOL,"Study Phase2",849,,,-1,-1,,,,1
w214242BG,k0xr6met6l,Nick_Dissertation_EX1,1,232,2020-07-17T10:20:15-07:00,1.1808559894562,1,versionA_stim.csv,READVersionA.csv,"Read Version A","Dissertation, read only version A",THREAD,THIMBLE,Study2,B,121,170,Study,User,-,,Study/JOL,"Study Phase2",878,,,-1,-1,,,,1
w214242BG,k0xr6met6l,Nick_Dissertation_EX1,1,233,2020-07-17T10:20:15-07:00,0.95650792121887,1,versionA_stim.csv,READVersionA.csv,"Read Version A","Dissertation, read only version A",BASEBALL,LEAGUE,Study2,B,131,135,Study,User,-,,Study/JOL,"Study Phase2",562,,,-1,-1,,,,1
w214242BG,k0xr6met6l,Nick_Dissertation_EX1,1,234,2020-07-17T10:20:17-07:00,1.1426160335541,1,versionA_stim.csv,READVersionA.csv,"Read Version A","Dissertation, read only version A",JUSTICE,MAROON,Study2,U,156,158,Study,User,-,,Study/JOL,"Study Phase2",839,,,-1,-1,,,,1
w214242BG,k0xr6met6l,Nick_Dissertation_EX1,1,235,2020-07-17T10:21:39-07:00,82.786535978317,1,versionA_stim.csv,READVersionA.csv,"Read Version A","Dissertation, read only version A",DEAD,COFFIN,Study2,B,128,115,Study,User,-,,Study/JOL,"Study Phase2",1706,,,-1,-1,,,,0.889
w214242BG,k0xr6met6l,Nick_Dissertation_EX1,1,236,2020-07-17T10:21:40-07:00,1.0154180526733,1,versionA_stim.csv,READVersionA.csv,"Read Version A","Dissertation, read only version A",DINE,EAT,Study2,F,111,109,Study,User,-,,Study/JOL,"Study Phase2",706,,,-1,-1,,,,1
w214242BG,k0xr6met6l,Nick_Dissertation_EX1,1,237,2020-07-17T10:21:42-07:00,1.160031080246,1,versionA_stim.csv,READVersionA.csv,"Read Version A","Dissertation, read only version A",MIRROR,CHILDREN,Study2,U,174,156,Study,User,-,,Study/JOL,"Study Phase2",872,,,-1,-1,,,,1
w214242BG,k0xr6met6l,Nick_Dissertation_EX1,1,238,2020-07-17T10:21:42-07:00,0.80454707145691,1,versionA_stim.csv,READVersionA.csv,"Read Version A","Dissertation, read only version A",TURN,FLIP,Study2,B,116,129,Study,User,-,,Study/JOL,"Study Phase2",513,,,-1,-1,,,,1
w214242BG,k0xr6met6l,Nick_Dissertation_EX1,1,239,2020-07-17T10:21:43-07:00,0.98205184936523,1,versionA_stim.csv,READVersionA.csv,"Read Version A","Dissertation, read only version A",GLASS,BREAKABLE,Study2,B,127,159,Study,User,-,,Study/JOL,"Study Phase2",674,,,-1,-1,,,,1
w214242BG,k0xr6met6l,Nick_Dissertation_EX1,1,240,2020-07-17T10:21:44-07:00,0.84893202781677,1,versionA_stim.csv,READVersionA.csv,"Read Version A","Dissertation, read only version A",CACTUS,PLANT,Study2,F,98,152,Study,User,-,,Study/JOL,"Study Phase2",556,,,-1,-1,,,,1
w214242BG,k0xr6met6l,Nick_Dissertation_EX1,1,241,2020-07-17T10:21:45-07:00,0.8867449760437,1,versionA_stim.csv,READVersionA.csv,"Read Version A","Dissertation, read only version A",MAIN,SCAR,Study2,U,175,103,Study,User,-,,Study/JOL,"Study Phase2",570,,,-1,-1,,,,1
w214242BG,k0xr6met6l,Nick_Dissertation_EX1,1,242,2020-07-17T10:21:47-07:00,1.697606086731,1,versionA_stim.csv,READVersionA.csv,"Read Version A","Dissertation, read only version A",INCENSE,SMELL,Study2,F,110,174,Study,User,-,,Study/JOL,"Study Phase2",1327,,,-1,-1,,,,1
w214242BG,k0xr6met6l,Nick_Dissertation_EX1,1,243,2020-07-17T10:21:48-07:00,0.90931105613708,1,versionA_stim.csv,READVersionA.csv,"Read Version A","Dissertation, read only version A",SHEARS,SCISSORS,Study2,F,112,149,Study,User,-,,Study/JOL,"Study Phase2",606,,,-1,-1,,,,1
w214242BG,k0xr6met6l,Nick_Dissertation_EX1,1,244,2020-07-17T10:21:49-07:00,0.97657489776611,1,versionA_stim.csv,READVersionA.csv,"Read Version A","Dissertation, read only version A",LEASE,TOIL,Study2,U,170,119,Study,User,-,,Study/JOL,"Study Phase2",612,,,-1,-1,,,,1
w214242BG,k0xr6met6l,Nick_Dissertation_EX1,1,245,2020-07-17T10:21:51-07:00,1.8635039329529,1,versionA_stim.csv,READVersionA.csv,"Read Version A","Dissertation, read only version A",MOAT,CLEAR,Study2,U,169,102,Study,User,-,,Study/JOL,"Study Phase2",1509,,,-1,-1,,,,1
w214242BG,k0xr6met6l,Nick_Dissertation_EX1,1,246,2020-07-17T10:21:51-07:00,0.92878198623657,1,versionA_stim.csv,READVersionA.csv,"Read Version A","Dissertation, read only version A",FUZZY,BANG,Study2,U,168,148,Study,User,-,,Study/JOL,"Study Phase2",620,,,-1,-1,,,,1
w214242BG,k0xr6met6l,Nick_Dissertation_EX1,1,247,2020-07-17T10:21:53-07:00,1.4081289768219,1,versionA_stim.csv,READVersionA.csv,"Read Version A","Dissertation, read only version A",ROD,REEL,Study2,S,150,117,Study,User,-,,Study/JOL,"Study Phase2",1013,,,-1,-1,,,,1
w214242BG,k0xr6met6l,Nick_Dissertation_EX1,1,248,2020-07-17T10:21:55-07:00,1.7570509910583,1,versionA_stim.csv,READVersionA.csv,"Read Version A","Dissertation, read only version A",CAT,PANTHER,Study2,B,126,137,Study,User,-,,Study/JOL,"Study Phase2",465,,,-1,-1,,,,1
w214242BG,k0xr6met6l,Nick_Dissertation_EX1,1,249,2020-07-17T10:21:57-07:00,2.4580202102661,1,versionA_stim.csv,READVersionA.csv,"Read Version A","Dissertation, read only version A",FIGHT,BRAWL,Study2,B,135,113,Study,User,-,,Study/JOL,"Study Phase2",1116,,,-1,-1,,,,1
w214242BG,k0xr6met6l,Nick_Dissertation_EX1,1,250,2020-07-17T10:21:58-07:00,0.9636127948761,1,versionA_stim.csv,READVersionA.csv,"Read Version A","Dissertation, read only version A",TRUTH,LIE,Study2,S,148,145,Study,User,-,,Study/JOL,"Study Phase2",628,,,-1,-1,,,,1
w214242BG,k0xr6met6l,Nick_Dissertation_EX1,1,251,2020-07-17T10:22:00-07:00,1.4212481975555,1,versionA_stim.csv,READVersionA.csv,"Read Version A","Dissertation, read only version A",EARTH,GROUND,Study2,S,144,168,Study,User,-,,Study/JOL,"Study Phase2",1056,,,-1,-1,,,,1
w214242BG,k0xr6met6l,Nick_Dissertation_EX1,1,252,2020-07-17T10:22:01-07:00,1.1430168151855,1,versionA_stim.csv,READVersionA.csv,"Read Version A","Dissertation, read only version A",MEAT,OBTAIN,Study2,U,161,126,Study,User,-,,Study/JOL,"Study Phase2",844,,,-1,-1,,,,1
w214242BG,k0xr6met6l,Nick_Dissertation_EX1,1,253,2020-07-17T10:22:02-07:00,1.0342950820923,1,versionA_stim.csv,READVersionA.csv,"Read Version A","Dissertation, read only version A",FURRY,DOG,Study2,F,102,127,Study,User,-,,Study/JOL,"Study Phase2",735,,,-1,-1,,,,1
w214242BG,k0xr6met6l,Nick_Dissertation_EX1,1,254,2020-07-17T10:22:03-07:00,1.1343410015106,1,versionA_stim.csv,READVersionA.csv,"Read Version A","Dissertation, read only version A",RIGHTS,EQUAL,Study2,S,137,106,Study,User,-,,Study/JOL,"Study Phase2",843,,,-1,-1,,,,1
w214242BG,k0xr6met6l,Nick_Dissertation_EX1,1,255,2020-07-17T10:22:04-07:00,0.98033905029297,1,versionA_stim.csv,READVersionA.csv,"Read Version A","Dissertation, read only version A",MASON,JAR,Study2,S,138,162,Study,User,-,,Study/JOL,"Study Phase2",634,,,-1,-1,,,,1
w214242BG,k0xr6met6l,Nick_Dissertation_EX1,1,256,2020-07-17T10:22:05-07:00,0.95577907562256,1,versionA_stim.csv,READVersionA.csv,"Read Version A","Dissertation, read only version A",SAFETY,SEATBELT,Study2,S,147,118,Study,User,-,,Study/JOL,"Study Phase2",642,,,-1,-1,,,,1
w214242BG,k0xr6met6l,Nick_Dissertation_EX1,1,257,2020-07-17T10:22:08-07:00,3.0217998027802,1,versionA_stim.csv,READVersionA.csv,"Read Version A","Dissertation, read only version A",LITTER,TRASH,Study2,F,103,169,Study,User,-,,Study/JOL,"Study Phase2",1686,,,-1,-1,,,,1
w214242BG,k0xr6met6l,Nick_Dissertation_EX1,1,258,2020-07-17T10:22:09-07:00,1.1016321182251,1,versionA_stim.csv,READVersionA.csv,"Read Version A","Dissertation, read only version A",WRIST,BRACELET,Study2,S,140,166,Study,User,-,,Study/JOL,"Study Phase2",730,,,-1,-1,,,,1
w214242BG,k0xr6met6l,Nick_Dissertation_EX1,1,259,2020-07-17T10:22:10-07:00,0.94865989685059,1,versionA_stim.csv,READVersionA.csv,"Read Version A","Dissertation, read only version A",MULE,DONKEY,Study2,F,108,101,Study,User,-,,Study/JOL,"Study Phase2",648,,,-1,-1,,,,1
w214242BG,k0xr6met6l,Nick_Dissertation_EX1,1,260,2020-07-17T10:22:11-07:00,1.0968971252441,1,versionA_stim.csv,READVersionA.csv,"Read Version A","Dissertation, read only version A",SLEEP,NAP,Study2,B,134,176,Study,User,-,,Study/JOL,"Study Phase2",495,,,-1,-1,,,,1
w214242BG,k0xr6met6l,Nick_Dissertation_EX1,1,261,2020-07-17T10:22:12-07:00,1.1300549507141,1,versionA_stim.csv,READVersionA.csv,"Read Version A","Dissertation, read only version A",OCTOBER,SPOOKY,BUFFER4,Buffer,180,181,Study,User,-,,Study/JOL,BUFFER4,816,,,-1,-1,,,,1
w214242BG,k0xr6met6l,Nick_Dissertation_EX1,1,262,2020-07-17T10:22:13-07:00,1.1091890335083,1,versionA_stim.csv,READVersionA.csv,"Read Version A","Dissertation, read only version A",MONTH,YEAR,BUFFER4,Buffer,177,180,Study,User,-,,Study/JOL,BUFFER4,821,,,-1,-1,,,,1
w214242BG,k0xr6met6l,Nick_Dissertation_EX1,1,263,2020-07-17T10:22:14-07:00,1.0052559375763,1,versionA_stim.csv,READVersionA.csv,"Read Version A","Dissertation, read only version A",SPRING,MARCH,BUFFER4,Buffer,179,177,Study,User,-,,Study/JOL,BUFFER4,718,,,-1,-1,,,,1
w214242BG,k0xr6met6l,Nick_Dissertation_EX1,1,264,2020-07-17T10:22:15-07:00,0.81498408317566,1,versionA_stim.csv,READVersionA.csv,"Read Version A","Dissertation, read only version A",TOOL,SHED,BUFFER4,Buffer,178,178,Study,User,-,,Study/JOL,BUFFER4,541,,,-1,-1,,,,1
w214242BG,k0xr6met6l,Nick_Dissertation_EX1,1,265,2020-07-17T10:22:16-07:00,0.78262186050415,1,versionA_stim.csv,READVersionA.csv,"Read Version A","Dissertation, read only version A",DAYS,WEAKS,BUFFER4,Buffer,176,179,Study,User,-,,Study/JOL,BUFFER4,489,,,-1,-1,,,,1
w214242BG,k0xr6met6l,Nick_Dissertation_EX1,1,266,2020-07-17T10:22:17-07:00,1.6627070903778,1,versionA_stim.csv,READVersionA.csv,"Read Version A","Dissertation, read only version A",,,,,,0,Instruct,User,-,"You have completed this section. Please press Enter.",Filler_Instruction,Instruct5,1314,,,-1,-1,,,,1
w214242BG,k0xr6met6l,Nick_Dissertation_EX1,1,267,2020-07-17T10:24:18-07:00,120.41185307503,1,versionA_stim.csv,READVersionA.csv,"Read Version A","Dissertation, read only version A",,,,,,0,FreeRecall,120,120,"Please list the 50 US states in reverse alphabetical order (z - a). The task will automatically advance to the next screen after two minutes.",,Filler2,120001,"Wyoming, Wisconsin, West Virginia, Washington, Virginia, Vermont, Utah, ",0,4179,28978,0,0,,1
w214242BG,k0xr6met6l,Nick_Dissertation_EX1,1,268,2020-07-17T10:24:29-07:00,11.019963026047,1,versionA_stim.csv,READVersionA.csv,"Read Version A","Dissertation, read only version A",,,,,,0,Instruct,-,10,"You will now be presented with the first word from each of the previously studied item pairs. Please type the missing word. If you do not know the word, you may guess or press Enter to skip forward to the next pair.",,Instruct6,10636,,,-1,-1,,,,1
w214242BG,k0xr6met6l,Nick_Dissertation_EX1,1,269,2020-07-17T10:24:32-07:00,2.9231939315796,1,versionA_stim.csv,READVersionA.csv,"Read Version A","Dissertation, read only version A",EXTENSION,LONG,Study2,F,96,143,Test,User,-,,Recall,Recall2,2574,long,100,1873,2195,1,1,,1
w214242BG,k0xr6met6l,Nick_Dissertation_EX1,1,270,2020-07-17T10:24:35-07:00,2.7404718399048,1,versionA_stim.csv,READVersionA.csv,"Read Version A","Dissertation, read only version A",FRUIT,STRAWBERRY,Study2,B,124,150,Test,User,-,,Recall,Recall2,2362,strawberry,100,914,2048,1,1,,1
w214242BG,k0xr6met6l,Nick_Dissertation_EX1,1,271,2020-07-17T10:24:38-07:00,3.9177541732788,1,versionA_stim.csv,READVersionA.csv,"Read Version A","Dissertation, read only version A",MONEY,BANKER,Study2,B,132,131,Test,User,-,,Recall,Recall2,3513,cash,20,2901,3205,0,0,,1
w214242BG,k0xr6met6l,Nick_Dissertation_EX1,1,272,2020-07-17T10:24:41-07:00,2.9788768291473,1,versionA_stim.csv,READVersionA.csv,"Read Version A","Dissertation, read only version A",WATER,DRINK,Study2,S,143,98,Test,User,-,,Recall,Recall2,2618,,0,-1,-1,0,0,,1
w214242BG,k0xr6met6l,Nick_Dissertation_EX1,1,273,2020-07-17T10:24:44-07:00,2.6071300506592,1,versionA_stim.csv,READVersionA.csv,"Read Version A","Dissertation, read only version A",EARTH,GROUND,Study2,S,144,168,Test,User,-,,Recall,Recall2,2262,ground,100,1145,1824,1,1,,1
w214242BG,k0xr6met6l,Nick_Dissertation_EX1,1,274,2020-07-17T10:24:48-07:00,3.7927401065826,1,versionA_stim.csv,READVersionA.csv,"Read Version A","Dissertation, read only version A",PHONE,COMMUNICATION,Study2,S,149,165,Test,User,-,,Recall,Recall2,3369,,0,-1,-1,0,0,,1
w214242BG,k0xr6met6l,Nick_Dissertation_EX1,1,275,2020-07-17T10:24:51-07:00,3.3627469539642,1,versionA_stim.csv,READVersionA.csv,"Read Version A","Dissertation, read only version A",SLEEP,NAP,Study2,B,134,176,Test,User,-,,Recall,Recall2,2998,drowsy,0,1186,2651,0,0,,1
w214242BG,k0xr6met6l,Nick_Dissertation_EX1,1,276,2020-07-17T10:24:53-07:00,1.8851308822632,1,versionA_stim.csv,READVersionA.csv,"Read Version A","Dissertation, read only version A",TURN,FLIP,Study2,B,116,129,Test,User,-,,Recall,Recall2,1525,flip,100,911,1198,1,1,,1
w214242BG,k0xr6met6l,Nick_Dissertation_EX1,1,277,2020-07-17T10:24:55-07:00,1.8357260227203,1,versionA_stim.csv,READVersionA.csv,"Read Version A","Dissertation, read only version A",FEUD,FIGHT,Study2,F,113,172,Test,User,-,,Recall,Recall2,1463,fight,100,866,1209,1,1,,1
w214242BG,k0xr6met6l,Nick_Dissertation_EX1,1,278,2020-07-17T10:24:59-07:00,3.8140571117401,1,versionA_stim.csv,READVersionA.csv,"Read Version A","Dissertation, read only version A",LOAN,SIGN,Study2,U,171,120,Test,User,-,,Recall,Recall2,3422,,0,-1,-1,0,0,,1
w214242BG,k0xr6met6l,Nick_Dissertation_EX1,1,279,2020-07-17T10:25:01-07:00,2.4192190170288,1,versionA_stim.csv,READVersionA.csv,"Read Version A","Dissertation, read only version A",CHERRY,RED,Study2,F,104,136,Test,User,-,,Recall,Recall2,2057,red,100,1177,1454,1,1,,1
w214242BG,k0xr6met6l,Nick_Dissertation_EX1,1,280,2020-07-17T10:25:08-07:00,6.8341109752655,1,versionA_stim.csv,READVersionA.csv,"Read Version A","Dissertation, read only version A",CAT,PANTHER,Study2,B,126,137,Test,User,-,,Recall,Recall2,6463,fur,20,4931,6173,0,0,,1
w214242BG,k0xr6met6l,Nick_Dissertation_EX1,1,281,2020-07-17T10:25:12-07:00,3.8295629024506,1,versionA_stim.csv,READVersionA.csv,"Read Version A","Dissertation, read only version A",MEAT,OBTAIN,Study2,U,161,126,Test,User,-,,Recall,Recall2,3452,,0,-1,-1,0,0,,1
w214242BG,k0xr6met6l,Nick_Dissertation_EX1,1,282,2020-07-17T10:25:14-07:00,2.2824771404266,1,versionA_stim.csv,READVersionA.csv,"Read Version A","Dissertation, read only version A",ALONE,LONELY,Study2,S,145,157,Test,User,-,,Recall,Recall2,1916,lonely,100,1004,1605,1,1,,1
w214242BG,k0xr6met6l,Nick_Dissertation_EX1,1,283,2020-07-17T10:25:16-07:00,2.3574709892273,1,versionA_stim.csv,READVersionA.csv,"Read Version A","Dissertation, read only version A",GIVE,STEAK,Study2,U,158,171,Test,User,-,,Recall,Recall2,1961,steak,100,1185,1657,1,1,,1
w214242BG,k0xr6met6l,Nick_Dissertation_EX1,1,284,2020-07-17T10:25:18-07:00,1.755805015564,1,versionA_stim.csv,READVersionA.csv,"Read Version A","Dissertation, read only version A",BIRD,PENGUIN,Study2,B,119,122,Test,User,-,,Recall,Recall2,1312,,0,-1,-1,0,0,,1
w214242BG,k0xr6met6l,Nick_Dissertation_EX1,1,285,2020-07-17T10:25:20-07:00,1.7068338394165,1,versionA_stim.csv,READVersionA.csv,"Read Version A","Dissertation, read only version A",SCALP,HEAD,Study2,F,105,173,Test,User,-,,Recall,Recall2,1333,head,100,874,1129,1,1,,1
w214242BG,k0xr6met6l,Nick_Dissertation_EX1,1,286,2020-07-17T10:25:22-07:00,2.0111122131348,1,versionA_stim.csv,READVersionA.csv,"Read Version A","Dissertation, read only version A",ELEMENT,CARBON,Study2,S,141,161,Test,User,-,,Recall,Recall2,1648,carbon,100,889,1341,1,1,,1
w214242BG,k0xr6met6l,Nick_Dissertation_EX1,1,287,2020-07-17T10:25:24-07:00,1.8544549942017,1,versionA_stim.csv,READVersionA.csv,"Read Version A","Dissertation, read only version A",MULE,DONKEY,Study2,F,108,101,Test,User,-,,Recall,Recall2,1497,donkey,100,772,1235,1,1,,1
w214242BG,k0xr6met6l,Nick_Dissertation_EX1,1,288,2020-07-17T10:25:27-07:00,3.0584149360657,1,versionA_stim.csv,READVersionA.csv,"Read Version A","Dissertation, read only version A",WRIST,BRACELET,Study2,S,140,166,Test,User,-,,Recall,Recall2,2664,bracelet,100,996,2430,1,1,,1
w214242BG,k0xr6met6l,Nick_Dissertation_EX1,1,289,2020-07-17T10:25:29-07:00,1.8722670078278,1,versionA_stim.csv,READVersionA.csv,"Read Version A","Dissertation, read only version A",MAIN,SCAR,Study2,U,175,103,Test,User,-,,Recall,Recall2,1453,,0,-1,-1,0,0,,1
w214242BG,k0xr6met6l,Nick_Dissertation_EX1,1,290,2020-07-17T10:25:32-07:00,3.2465350627899,1,versionA_stim.csv,READVersionA.csv,"Read Version A","Dissertation, read only version A",CLUE,GAME,Study2,F,97,110,Test,User,-,,Recall,Recall2,1837,game,100,1304,1591,1,1,,1
w214242BG,k0xr6met6l,Nick_Dissertation_EX1,1,291,2020-07-17T10:25:34-07:00,2.2400949001312,1,versionA_stim.csv,READVersionA.csv,"Read Version A","Dissertation, read only version A",CANDLE,WAX,Study2,S,139,154,Test,User,-,,Recall,Recall2,1854,,0,-1,-1,0,0,,1
w214242BG,k0xr6met6l,Nick_Dissertation_EX1,1,292,2020-07-17T10:25:37-07:00,2.3622009754181,1,versionA_stim.csv,READVersionA.csv,"Read Version A","Dissertation, read only version A",CAKE,CLOTHES,Study2,U,166,125,Test,User,-,,Recall,Recall2,1968,clothes,100,1198,1742,1,1,,1
w214242BG,k0xr6met6l,Nick_Dissertation_EX1,1,293,2020-07-17T10:25:39-07:00,1.9790201187134,1,versionA_stim.csv,READVersionA.csv,"Read Version A","Dissertation, read only version A",CHOP,CUT,Study2,F,107,121,Test,User,-,,Recall,Recall2,1606,cut,100,1157,1352,1,1,,1
w214242BG,k0xr6met6l,Nick_Dissertation_EX1,1,294,2020-07-17T10:25:41-07:00,2.0150709152222,1,versionA_stim.csv,READVersionA.csv,"Read Version A","Dissertation, read only version A",TANTRUM,TEMPER,Study2,S,154,130,Test,User,-,,Recall,Recall2,1627,temper,100,1007,1398,1,1,,1
w214242BG,k0xr6met6l,Nick_Dissertation_EX1,1,295,2020-07-17T10:25:44-07:00,3.7628870010376,1,versionA_stim.csv,READVersionA.csv,"Read Version A","Dissertation, read only version A",Shell,SHAKE,Study2,U,163,133,Test,User,-,,Recall,Recall2,3399,shake,100,2517,3018,1,1,,1
w214242BG,k0xr6met6l,Nick_Dissertation_EX1,1,296,2020-07-17T10:25:48-07:00,3.2593870162964,1,versionA_stim.csv,READVersionA.csv,"Read Version A","Dissertation, read only version A",SAFETY,SEATBELT,Study2,S,147,118,Test,User,-,,Recall,Recall2,2681,seatbelt,100,1533,2439,1,1,,1
w214242BG,k0xr6met6l,Nick_Dissertation_EX1,1,297,2020-07-17T10:25:49-07:00,1.5605869293213,1,versionA_stim.csv,READVersionA.csv,"Read Version A","Dissertation, read only version A",MIRROR,CHILDREN,Study2,U,174,156,Test,User,-,,Recall,Recall2,1156,,0,-1,-1,0,0,,1
w214242BG,k0xr6met6l,Nick_Dissertation_EX1,1,298,2020-07-17T10:25:55-07:00,6.01518201828,1,versionA_stim.csv,READVersionA.csv,"Read Version A","Dissertation, read only version A",RAZOR,SHAVE,Study2,S,136,123,Test,User,-,,Recall,Recall2,5605,shave,100,1302,5330,1,1,,1
w214242BG,k0xr6met6l,Nick_Dissertation_EX1,1,299,2020-07-17T10:25:58-07:00,3.0051689147949,1,versionA_stim.csv,READVersionA.csv,"Read Version A","Dissertation, read only version A",LEASE,TOIL,Study2,U,170,119,Test,User,-,,Recall,Recall2,2432,loan,25,1738,2078,0,0,,1
w214242BG,k0xr6met6l,Nick_Dissertation_EX1,1,300,2020-07-17T10:26:00-07:00,1.5067820549011,1,versionA_stim.csv,READVersionA.csv,"Read Version A","Dissertation, read only version A",INCENSE,SMELL,Study2,F,110,174,Test,User,-,,Recall,Recall2,1130,,0,-1,-1,0,0,,1
w214242BG,k0xr6met6l,Nick_Dissertation_EX1,1,301,2020-07-17T10:26:02-07:00,2.446592092514,1,versionA_stim.csv,READVersionA.csv,"Read Version A","Dissertation, read only version A",MOAT,CLEAR,Study2,U,169,102,Test,User,-,,Recall,Recall2,2073,clear,100,1510,1822,1,1,,1
w214242BG,k0xr6met6l,Nick_Dissertation_EX1,1,302,2020-07-17T10:26:04-07:00,2.0764708518982,1,versionA_stim.csv,READVersionA.csv,"Read Version A","Dissertation, read only version A",CHILL,COLD,Study2,F,114,112,Test,User,-,,Recall,Recall2,1680,cold,100,1169,1450,1,1,,1
w214242BG,k0xr6met6l,Nick_Dissertation_EX1,1,303,2020-07-17T10:26:07-07:00,2.8419191837311,1,versionA_stim.csv,READVersionA.csv,"Read Version A","Dissertation, read only version A",AFFECTION,LOVE,Study2,F,115,146,Test,User,-,,Recall,Recall2,2418,love,100,1409,1734,1,1,,1
w214242BG,k0xr6met6l,Nick_Dissertation_EX1,1,304,2020-07-17T10:26:09-07:00,2.0203258991241,1,versionA_stim.csv,READVersionA.csv,"Read Version A","Dissertation, read only version A",CACTUS,PLANT,Study2,F,98,152,Test,User,-,,Recall,Recall2,1616,plant,100,944,1374,1,1,,1
w214242BG,k0xr6met6l,Nick_Dissertation_EX1,1,305,2020-07-17T10:26:13-07:00,3.5021529197693,1,versionA_stim.csv,READVersionA.csv,"Read Version A","Dissertation, read only version A",NAME,HATE,Study2,U,167,142,Test,User,-,,Recall,Recall2,2099,,0,-1,-1,0,0,,1
w214242BG,k0xr6met6l,Nick_Dissertation_EX1,1,306,2020-07-17T10:26:14-07:00,1.5182921886444,1,versionA_stim.csv,READVersionA.csv,"Read Version A","Dissertation, read only version A",SUN,TAN,Study2,S,155,175,Test,User,-,,Recall,Recall2,1121,,0,-1,-1,0,0,,1
w214242BG,k0xr6met6l,Nick_Dissertation_EX1,1,307,2020-07-17T10:26:16-07:00,1.6310019493103,1,versionA_stim.csv,READVersionA.csv,"Read Version A","Dissertation, read only version A",ADJOURN,END,Study2,F,101,155,Test,User,-,,Recall,Recall2,1252,end,100,832,1003,1,1,,1
w214242BG,k0xr6met6l,Nick_Dissertation_EX1,1,308,2020-07-17T10:26:17-07:00,1.7485389709473,1,versionA_stim.csv,READVersionA.csv,"Read Version A","Dissertation, read only version A",POP,BALLOON,Study2,B,123,108,Test,User,-,,Recall,Recall2,1368,soda,18.181818181818,863,1131,0,0,,1
w214242BG,k0xr6met6l,Nick_Dissertation_EX1,1,309,2020-07-17T10:26:23-07:00,5.2913088798523,1,versionA_stim.csv,READVersionA.csv,"Read Version A","Dissertation, read only version A",DRIVER,CAR,Study2,F,106,124,Test,User,-,,Recall,Recall2,4936,car,100,4011,4706,1,1,,1
w214242BG,k0xr6met6l,Nick_Dissertation_EX1,1,310,2020-07-17T10:26:25-07:00,1.876118183136,1,versionA_stim.csv,READVersionA.csv,"Read Version A","Dissertation, read only version A",FLEA,TICK,Study2,S,151,114,Test,User,-,,Recall,Recall2,1495,tick,100,979,1248,1,1,,1
w214242BG,k0xr6met6l,Nick_Dissertation_EX1,1,311,2020-07-17T10:26:28-07:00,3.6978549957275,1,versionA_stim.csv,READVersionA.csv,"Read Version A","Dissertation, read only version A",KEYS,JOKE,Study2,U,165,100,Test,User,-,,Recall,Recall2,3309,,0,-1,-1,0,0,,1
w214242BG,k0xr6met6l,Nick_Dissertation_EX1,1,312,2020-07-17T10:26:35-07:00,6.5248808860779,1,versionA_stim.csv,READVersionA.csv,"Read Version A","Dissertation, read only version A",LITTER,TRASH,Study2,F,103,169,Test,User,-,,Recall,Recall2,6170,,0,-1,-1,0,0,,1
w214242BG,k0xr6met6l,Nick_Dissertation_EX1,1,313,2020-07-17T10:26:38-07:00,3.5432870388031,1,versionA_stim.csv,READVersionA.csv,"Read Version A","Dissertation, read only version A",DETECTIVE,MYSTERY,Study2,F,100,151,Test,User,-,,Recall,Recall2,3124,mystery,100,1586,2825,1,1,,1
w214242BG,k0xr6met6l,Nick_Dissertation_EX1,1,314,2020-07-17T10:26:41-07:00,2.7657380104065,1,versionA_stim.csv,READVersionA.csv,"Read Version A","Dissertation, read only version A",FISH,SARDINE,Study2,B,130,99,Test,User,-,,Recall,Recall2,2329,sardine,100,1350,2023,1,1,,1
w214242BG,k0xr6met6l,Nick_Dissertation_EX1,1,315,2020-07-17T10:26:43-07:00,1.6742179393768,1,versionA_stim.csv,READVersionA.csv,"Read Version A","Dissertation, read only version A",JUSTICE,MAROON,Study2,U,156,158,Test,User,-,,Recall,Recall2,1171,,0,-1,-1,0,0,,1
w214242BG,k0xr6met6l,Nick_Dissertation_EX1,1,316,2020-07-17T10:26:46-07:00,3.119950056076,1,versionA_stim.csv,READVersionA.csv,"Read Version A","Dissertation, read only version A",PLANE,AIRCRAFT,Study2,B,129,128,Test,User,-,,Recall,Recall2,2638,aircraft,100,1292,2121,1,1,,1
w214242BG,k0xr6met6l,Nick_Dissertation_EX1,1,317,2020-07-17T10:26:48-07:00,1.9235110282898,1,versionA_stim.csv,READVersionA.csv,"Read Version A","Dissertation, read only version A",ROD,REEL,Study2,S,150,117,Test,User,-,,Recall,Recall2,1502,reel,100,908,1229,1,1,,1
w214242BG,k0xr6met6l,Nick_Dissertation_EX1,1,318,2020-07-17T10:26:50-07:00,2.2329568862915,1,versionA_stim.csv,READVersionA.csv,"Read Version A","Dissertation, read only version A",CRACKLE,ABLE,Study2,U,162,163,Test,User,-,,Recall,Recall2,1793,able,100,1171,1532,1,1,,1
w214242BG,k0xr6met6l,Nick_Dissertation_EX1,1,319,2020-07-17T10:26:53-07:00,2.7479419708252,1,versionA_stim.csv,READVersionA.csv,"Read Version A","Dissertation, read only version A",TRUTH,LIE,Study2,S,148,145,Test,User,-,,Recall,Recall2,2295,,0,-1,-1,0,0,,1
w214242BG,k0xr6met6l,Nick_Dissertation_EX1,1,320,2020-07-17T10:26:55-07:00,1.6984021663666,1,versionA_stim.csv,READVersionA.csv,"Read Version A","Dissertation, read only version A",DRY,WET,Study2,S,146,147,Test,User,-,,Recall,Recall2,1282,wet,100,847,1059,1,1,,1
w214242BG,k0xr6met6l,Nick_Dissertation_EX1,1,321,2020-07-17T10:26:59-07:00,4.1141519546509,1,versionA_stim.csv,READVersionA.csv,"Read Version A","Dissertation, read only version A",FUZZY,BANG,Study2,U,168,148,Test,User,-,,Recall,Recall2,3658,paw,28.571428571429,1547,3353,0,0,,1
w214242BG,k0xr6met6l,Nick_Dissertation_EX1,1,322,2020-07-17T10:27:02-07:00,3.5933690071106,1,versionA_stim.csv,READVersionA.csv,"Read Version A","Dissertation, read only version A",GLASS,BREAKABLE,Study2,B,127,159,Test,User,-,,Recall,Recall2,3132,breakable,100,1943,2790,1,1,,1
w214242BG,k0xr6met6l,Nick_Dissertation_EX1,1,323,2020-07-17T10:27:06-07:00,3.7333860397339,1,versionA_stim.csv,READVersionA.csv,"Read Version A","Dissertation, read only version A",EVEN,REVENGE,Study2,B,122,107,Test,User,-,,Recall,Recall2,2301,revenge,100,1388,2085,1,1,,1
w214242BG,k0xr6met6l,Nick_Dissertation_EX1,1,324,2020-07-17T10:27:11-07:00,4.7826159000397,1,versionA_stim.csv,READVersionA.csv,"Read Version A","Dissertation, read only version A",LISTEN,FICTION,Study2,U,164,97,Test,User,-,,Recall,Recall2,4327,,0,-1,-1,0,0,,1
w214242BG,k0xr6met6l,Nick_Dissertation_EX1,1,325,2020-07-17T10:27:14-07:00,3.1230239868164,1,versionA_stim.csv,READVersionA.csv,"Read Version A","Dissertation, read only version A",MAZE,ELECTION,Study2,U,159,139,Test,User,-,,Recall,Recall2,1653,,0,-1,-1,0,0,,1
w214242BG,k0xr6met6l,Nick_Dissertation_EX1,1,326,2020-07-17T10:27:17-07:00,3.3127100467682,1,versionA_stim.csv,READVersionA.csv,"Read Version A","Dissertation, read only version A",SHOELACE,TIE,Study2,F,99,132,Test,User,-,,Recall,Recall2,2838,,0,-1,-1,0,0,,1
w214242BG,k0xr6met6l,Nick_Dissertation_EX1,1,327,2020-07-17T10:27:23-07:00,6.013927936554,1,versionA_stim.csv,READVersionA.csv,"Read Version A","Dissertation, read only version A",CAR,WINDSHIELD,Study2,B,117,116,Test,User,-,,Recall,Recall2,5587,,0,-1,-1,0,0,,1
w214242BG,k0xr6met6l,Nick_Dissertation_EX1,1,328,2020-07-17T10:27:27-07:00,3.4422421455383,1,versionA_stim.csv,READVersionA.csv,"Read Version A","Dissertation, read only version A",GONE,AWAY,Study2,S,142,111,Test,User,-,,Recall,Recall2,2579,away,100,1887,2245,1,1,,1
w214242BG,k0xr6met6l,Nick_Dissertation_EX1,1,329,2020-07-17T10:27:28-07:00,1.4890849590302,1,versionA_stim.csv,READVersionA.csv,"Read Version A","Dissertation, read only version A",BOTH,OUNCE,Study2,U,172,144,Test,User,-,,Recall,Recall2,1019,,0,-1,-1,0,0,,1
w214242BG,k0xr6met6l,Nick_Dissertation_EX1,1,330,2020-07-17T10:27:34-07:00,6.0752449035645,1,versionA_stim.csv,READVersionA.csv,"Read Version A","Dissertation, read only version A",RIGHTS,EQUAL,Study2,S,137,106,Test,User,-,,Recall,Recall2,5655,,0,-1,-1,0,0,,1
w214242BG,k0xr6met6l,Nick_Dissertation_EX1,1,331,2020-07-17T10:27:36-07:00,1.6025309562683,1,versionA_stim.csv,READVersionA.csv,"Read Version A","Dissertation, read only version A",VEHICLE,CHARM,Study2,U,160,167,Test,User,-,,Recall,Recall2,1160,,0,-1,-1,0,0,,1
w214242BG,k0xr6met6l,Nick_Dissertation_EX1,1,332,2020-07-17T10:27:38-07:00,2.4827680587769,1,versionA_stim.csv,READVersionA.csv,"Read Version A","Dissertation, read only version A",HONEST,TRUTHFUL,Study2,B,133,140,Test,User,-,,Recall,Recall2,2057,,0,-1,-1,0,0,,1
w214242BG,k0xr6met6l,Nick_Dissertation_EX1,1,333,2020-07-17T10:27:41-07:00,2.6782760620117,1,versionA_stim.csv,READVersionA.csv,"Read Version A","Dissertation, read only version A",DOCUMENT,PAPER,Study2,F,109,104,Test,User,-,,Recall,Recall2,2232,paper,100,1045,1730,1,1,,1
w214242BG,k0xr6met6l,Nick_Dissertation_EX1,1,334,2020-07-17T10:27:43-07:00,1.7300159931183,1,versionA_stim.csv,READVersionA.csv,"Read Version A","Dissertation, read only version A",MASON,JAR,Study2,S,138,162,Test,User,-,,Recall,Recall2,1290,jar,100,907,1046,1,1,,1
w214242BG,k0xr6met6l,Nick_Dissertation_EX1,1,335,2020-07-17T10:27:45-07:00,2.5124459266663,1,versionA_stim.csv,READVersionA.csv,"Read Version A","Dissertation, read only version A",STRETCH,CLOTH,Study2,U,157,160,Test,User,-,,Recall,Recall2,2040,clothes,83.333333333333,1295,1792,0,1,,1
w214242BG,k0xr6met6l,Nick_Dissertation_EX1,1,336,2020-07-17T10:27:50-07:00,4.4267301559448,1,versionA_stim.csv,READVersionA.csv,"Read Version A","Dissertation, read only version A",TEMPERATURE,Morning,Study2,U,173,105,Test,User,-,,Recall,Recall2,3930,morning,100,3128,3620,1,1,,1
w214242BG,k0xr6met6l,Nick_Dissertation_EX1,1,337,2020-07-17T10:27:53-07:00,3.4621868133545,1,versionA_stim.csv,READVersionA.csv,"Read Version A","Dissertation, read only version A",THREAD,THIMBLE,Study2,B,121,170,Test,User,-,,Recall,Recall2,2957,thimble,100,1135,2747,1,1,,1
w214242BG,k0xr6met6l,Nick_Dissertation_EX1,1,338,2020-07-17T10:27:56-07:00,2.4048600196838,1,versionA_stim.csv,READVersionA.csv,"Read Version A","Dissertation, read only version A",BASEBALL,LEAGUE,Study2,B,131,135,Test,User,-,,Recall,Recall2,1918,league,100,1178,1574,1,1,,1
w214242BG,k0xr6met6l,Nick_Dissertation_EX1,1,339,2020-07-17T10:27:58-07:00,2.321221113205,1,versionA_stim.csv,READVersionA.csv,"Read Version A","Dissertation, read only version A",DEAD,COFFIN,Study2,B,128,115,Test,User,-,,Recall,Recall2,1891,coffin,100,1024,1448,1,1,,1
w214242BG,k0xr6met6l,Nick_Dissertation_EX1,1,340,2020-07-17T10:28:02-07:00,3.7536840438843,1,versionA_stim.csv,READVersionA.csv,"Read Version A","Dissertation, read only version A",SHEARS,SCISSORS,Study2,F,112,149,Test,User,-,,Recall,Recall2,3288,trim,16.666666666667,2594,2962,0,0,,1
w214242BG,k0xr6met6l,Nick_Dissertation_EX1,1,341,2020-07-17T10:28:07-07:00,5.4522860050201,1,versionA_stim.csv,READVersionA.csv,"Read Version A","Dissertation, read only version A",OWN,HAVE,Study2,S,153,141,Test,User,-,,Recall,Recall2,5028,give,50,4550,4788,0,0,,1
w214242BG,k0xr6met6l,Nick_Dissertation_EX1,1,342,2020-07-17T10:28:08-07:00,1.4139919281006,1,versionA_stim.csv,READVersionA.csv,"Read Version A","Dissertation, read only version A",BEST,FAVORITE,Study2,B,125,164,Test,User,-,,Recall,Recall2,969,,0,-1,-1,0,0,,1
w214242BG,k0xr6met6l,Nick_Dissertation_EX1,1,343,2020-07-17T10:28:11-07:00,2.8221840858459,1,versionA_stim.csv,READVersionA.csv,"Read Version A","Dissertation, read only version A",DINE,EAT,Study2,F,111,109,Test,User,-,,Recall,Recall2,2344,out,33.333333333333,1832,2079,0,0,,1
w214242BG,k0xr6met6l,Nick_Dissertation_EX1,1,344,2020-07-17T10:28:13-07:00,1.7458188533783,1,versionA_stim.csv,READVersionA.csv,"Read Version A","Dissertation, read only version A",LOUD,NOISE,Study2,S,152,134,Test,User,-,,Recall,Recall2,1316,,0,-1,-1,0,0,,1
w214242BG,k0xr6met6l,Nick_Dissertation_EX1,1,345,2020-07-17T10:28:16-07:00,3.4613189697266,1,versionA_stim.csv,READVersionA.csv,"Read Version A","Dissertation, read only version A",FURRY,DOG,Study2,F,102,127,Test,User,-,,Recall,Recall2,3020,paw,0,2477,2701,0,0,,1
w214242BG,k0xr6met6l,Nick_Dissertation_EX1,1,346,2020-07-17T10:28:20-07:00,3.2863731384277,1,versionA_stim.csv,READVersionA.csv,"Read Version A","Dissertation, read only version A",FIGHT,BRAWL,Study2,B,135,113,Test,User,-,,Recall,Recall2,1005,,0,-1,-1,0,0,,1
w214242BG,k0xr6met6l,Nick_Dissertation_EX1,1,347,2020-07-17T10:28:24-07:00,3.9312779903412,1,versionA_stim.csv,READVersionA.csv,"Read Version A","Dissertation, read only version A",BAD,VILLAIN,Study2,B,118,153,Test,User,-,,Recall,Recall2,3414,villian,85.714285714286,2142,3068,0,1,,1
w214242BG,k0xr6met6l,Nick_Dissertation_EX1,1,348,2020-07-17T10:28:26-07:00,2.642462015152,1,versionA_stim.csv,READVersionA.csv,"Read Version A","Dissertation, read only version A",STAR,ACTRESS,Study2,B,120,138,Test,User,-,,Recall,Recall2,2204,actress,100,1165,1996,1,1,,1
w214242BG,k0xr6met6l,Nick_Dissertation_EX1,1,349,2020-07-17T10:28:28-07:00,1.9942739009857,1,versionA_stim.csv,READVersionA.csv,"Read Version A","Dissertation, read only version A",,,,,,0,Instruct,User,-,"You have completed this section. Please press Enter.",,Instruct7,1555,,,-1,-1,,,,1
w214242BG,k0xr6met6l,Nick_Dissertation_EX1,1,350,2020-07-17T10:28:31-07:00,2.2922070026398,1,versionA_stim.csv,READVersionA.csv,"Read Version A","Dissertation, read only version A",,,,,,0,Instruct,User,-,"The following screen will ask you a few questions abour your experience today. You must complete these questions to receive credit.",,Instruct8,1815,,,-1,-1,,,,1
