Username,ID,ExperimentName,Session,Trial,Date,TimeDif,"Condition Number","Stimuli File","Order File","Condition Description","Condition Notes",Stimuli*Cue,Stimuli*Answer,Stimuli*Shuffle,"Stimuli*Stimuli Notes",Stimuli*Value,Procedure*Item,"Procedure*Trial Type","Procedure*Max Time","Procedure*Min Time",Procedure*Text,"Procedure*Procedure Notes",Procedure*Shuffle,Response*RT,Response*Response,Response*Accuracy,Response*RTfirst,Response*RTlast,Response*strictAcc,Response*lenientAcc,Response*focus,Response*Focus
w812089FS,k4ls0net7v,Nick_Dissertation_EX1,1,1,2020-07-13T17:11:31-07:00,20.232749938965,2,versionA_stim.csv,READVersionB.csv,"Read Version B","Dissertation, read only version B",,,,,,0,Instruct,-,10,"Please study each of the following word pairs. Remember that your memory will be tested! When finished, press Enter to move to the next pair.",Initial_Instruct,Instruct1,19845,,,-1,-1,,,,1
w812089FS,k4ls0net7v,Nick_Dissertation_EX1,1,2,2020-07-13T17:11:36-07:00,4.9818470478058,2,versionA_stim.csv,READVersionB.csv,"Read Version B","Dissertation, read only version B",NOODLE,STRING,BUFFER3,Buffer,92,92,Study,User,-,,Study/JOL,BUFFER,4589,,,-1,-1,,,,1
w812089FS,k4ls0net7v,Nick_Dissertation_EX1,1,3,2020-07-13T17:11:37-07:00,1.6986508369446,2,versionA_stim.csv,READVersionB.csv,"Read Version B","Dissertation, read only version B",ICE,FROZEN,BUFFER3,Buffer,94,95,Study,User,-,,Study/JOL,BUFFER,1456,,,-1,-1,,,,1
w812089FS,k4ls0net7v,Nick_Dissertation_EX1,1,4,2020-07-13T17:11:39-07:00,1.58318400383,2,versionA_stim.csv,READVersionB.csv,"Read Version B","Dissertation, read only version B",CAMP,ADVENTURE,BUFFER3,Buffer,95,93,Study,User,-,,Study/JOL,BUFFER,1355,,,-1,-1,,,,1
w812089FS,k4ls0net7v,Nick_Dissertation_EX1,1,5,2020-07-13T17:11:41-07:00,1.7804620265961,2,versionA_stim.csv,READVersionB.csv,"Read Version B","Dissertation, read only version B",SHRIMP,FISH,BUFFER3,Buffer,93,96,Study,User,-,,Study/JOL,BUFFER,1531,,,-1,-1,,,,1
w812089FS,k4ls0net7v,Nick_Dissertation_EX1,1,6,2020-07-13T17:11:43-07:00,1.8946530818939,2,versionA_stim.csv,READVersionB.csv,"Read Version B","Dissertation, read only version B",CARROT,POTATO,BUFFER3,Buffer,91,94,Study,User,-,,Study/JOL,BUFFER,1638,,,-1,-1,,,,1
w812089FS,k4ls0net7v,Nick_Dissertation_EX1,1,7,2020-07-13T17:11:45-07:00,2.5236039161682,2,versionA_stim.csv,READVersionB.csv,"Read Version B","Dissertation, read only version B",LEASE,TOIL,Study2,U,170,102,Study,User,-,,Study/JOL,"Study Phase",2280,,,-1,-1,,,,1
w812089FS,k4ls0net7v,Nick_Dissertation_EX1,1,8,2020-07-13T17:11:47-07:00,1.9104740619659,2,versionA_stim.csv,READVersionB.csv,"Read Version B","Dissertation, read only version B",BASEBALL,LEAGUE,Study2,B,131,164,Study,User,-,,Study/JOL,"Study Phase",1656,,,-1,-1,,,,1
w812089FS,k4ls0net7v,Nick_Dissertation_EX1,1,9,2020-07-13T17:11:49-07:00,1.7550120353699,2,versionA_stim.csv,READVersionB.csv,"Read Version B","Dissertation, read only version B",RAZOR,SHAVE,Study2,S,136,116,Study,User,-,,Study/JOL,"Study Phase",1514,,,-1,-1,,,,1
w812089FS,k4ls0net7v,Nick_Dissertation_EX1,1,10,2020-07-13T17:11:51-07:00,2.1799039840698,2,versionA_stim.csv,READVersionB.csv,"Read Version B","Dissertation, read only version B",GIVE,STEAK,Study2,U,158,172,Study,User,-,,Study/JOL,"Study Phase",1911,,,-1,-1,,,,1
w812089FS,k4ls0net7v,Nick_Dissertation_EX1,1,11,2020-07-13T17:11:53-07:00,1.7603759765625,2,versionA_stim.csv,READVersionB.csv,"Read Version B","Dissertation, read only version B",CHILL,COLD,Study2,F,114,144,Study,User,-,,Study/JOL,"Study Phase",1509,,,-1,-1,,,,1
w812089FS,k4ls0net7v,Nick_Dissertation_EX1,1,12,2020-07-13T17:11:55-07:00,2.4624509811401,2,versionA_stim.csv,READVersionB.csv,"Read Version B","Dissertation, read only version B",CHOP,CUT,Study2,F,107,117,Study,User,-,,Study/JOL,"Study Phase",2230,,,-1,-1,,,,1
w812089FS,k4ls0net7v,Nick_Dissertation_EX1,1,13,2020-07-13T17:11:57-07:00,1.8796989917755,2,versionA_stim.csv,READVersionB.csv,"Read Version B","Dissertation, read only version B",SHOELACE,TIE,Study2,F,99,132,Study,User,-,,Study/JOL,"Study Phase",1621,,,-1,-1,,,,1
w812089FS,k4ls0net7v,Nick_Dissertation_EX1,1,14,2020-07-13T17:11:59-07:00,1.6565589904785,2,versionA_stim.csv,READVersionB.csv,"Read Version B","Dissertation, read only version B",CAKE,CLOTHES,Study2,U,166,139,Study,User,-,,Study/JOL,"Study Phase",1362,,,-1,-1,,,,1
w812089FS,k4ls0net7v,Nick_Dissertation_EX1,1,15,2020-07-13T17:12:01-07:00,2.6208190917969,2,versionA_stim.csv,READVersionB.csv,"Read Version B","Dissertation, read only version B",JUSTICE,MAROON,Study2,U,156,137,Study,User,-,,Study/JOL,"Study Phase",2359,,,-1,-1,,,,1
w812089FS,k4ls0net7v,Nick_Dissertation_EX1,1,16,2020-07-13T17:12:03-07:00,1.9069139957428,2,versionA_stim.csv,READVersionB.csv,"Read Version B","Dissertation, read only version B",NAME,HATE,Study2,U,167,176,Study,User,-,,Study/JOL,"Study Phase",1676,,,-1,-1,,,,1
w812089FS,k4ls0net7v,Nick_Dissertation_EX1,1,17,2020-07-13T17:12:05-07:00,1.8039228916168,2,versionA_stim.csv,READVersionB.csv,"Read Version B","Dissertation, read only version B",FLEA,TICK,Study2,S,151,131,Study,User,-,,Study/JOL,"Study Phase",1514,,,-1,-1,,,,1
w812089FS,k4ls0net7v,Nick_Dissertation_EX1,1,18,2020-07-13T17:12:08-07:00,2.6637380123138,2,versionA_stim.csv,READVersionB.csv,"Read Version B","Dissertation, read only version B",VEHICLE,CHARM,Study2,U,160,155,Study,User,-,,Study/JOL,"Study Phase",2403,,,-1,-1,,,,1
w812089FS,k4ls0net7v,Nick_Dissertation_EX1,1,19,2020-07-13T17:12:09-07:00,1.527134180069,2,versionA_stim.csv,READVersionB.csv,"Read Version B","Dissertation, read only version B",WATER,DRINK,Study2,S,143,107,Study,User,-,,Study/JOL,"Study Phase",1267,,,-1,-1,,,,1
w812089FS,k4ls0net7v,Nick_Dissertation_EX1,1,20,2020-07-13T17:12:11-07:00,1.5082468986511,2,versionA_stim.csv,READVersionB.csv,"Read Version B","Dissertation, read only version B",MONEY,BANKER,Study2,B,132,161,Study,User,-,,Study/JOL,"Study Phase",1270,,,-1,-1,,,,1
w812089FS,k4ls0net7v,Nick_Dissertation_EX1,1,21,2020-07-13T17:12:13-07:00,2.1187500953674,2,versionA_stim.csv,READVersionB.csv,"Read Version B","Dissertation, read only version B",MAIN,SCAR,Study2,U,175,148,Study,User,-,,Study/JOL,"Study Phase",1507,,,-1,-1,,,,1
w812089FS,k4ls0net7v,Nick_Dissertation_EX1,1,22,2020-07-13T17:12:14-07:00,1.2536978721619,2,versionA_stim.csv,READVersionB.csv,"Read Version B","Dissertation, read only version B",DINE,EAT,Study2,F,111,113,Study,User,-,,Study/JOL,"Study Phase",1015,,,-1,-1,,,,1
w812089FS,k4ls0net7v,Nick_Dissertation_EX1,1,23,2020-07-13T17:12:16-07:00,1.6727991104126,2,versionA_stim.csv,READVersionB.csv,"Read Version B","Dissertation, read only version B",SLEEP,NAP,Study2,B,134,123,Study,User,-,,Study/JOL,"Study Phase",1391,,,-1,-1,,,,1
w812089FS,k4ls0net7v,Nick_Dissertation_EX1,1,24,2020-07-13T17:12:18-07:00,2.3947508335114,2,versionA_stim.csv,READVersionB.csv,"Read Version B","Dissertation, read only version B",EVEN,REVENGE,Study2,B,122,101,Study,User,-,,Study/JOL,"Study Phase",2106,,,-1,-1,,,,1
w812089FS,k4ls0net7v,Nick_Dissertation_EX1,1,25,2020-07-13T17:12:20-07:00,1.6764559745789,2,versionA_stim.csv,READVersionB.csv,"Read Version B","Dissertation, read only version B",CAT,PANTHER,Study2,B,126,114,Study,User,-,,Study/JOL,"Study Phase",1445,,,-1,-1,,,,1
w812089FS,k4ls0net7v,Nick_Dissertation_EX1,1,26,2020-07-13T17:12:23-07:00,3.4233520030975,2,versionA_stim.csv,READVersionB.csv,"Read Version B","Dissertation, read only version B",FURRY,DOG,Study2,F,102,134,Study,User,-,,Study/JOL,"Study Phase",3163,,,-1,-1,,,,1
w812089FS,k4ls0net7v,Nick_Dissertation_EX1,1,27,2020-07-13T17:12:25-07:00,1.6210350990295,2,versionA_stim.csv,READVersionB.csv,"Read Version B","Dissertation, read only version B",Shell,SHAKE,Study2,U,163,173,Study,User,-,,Study/JOL,"Study Phase",1386,,,-1,-1,,,,1
w812089FS,k4ls0net7v,Nick_Dissertation_EX1,1,28,2020-07-13T17:12:26-07:00,1.4310410022736,2,versionA_stim.csv,READVersionB.csv,"Read Version B","Dissertation, read only version B",CANDLE,WAX,Study2,S,139,105,Study,User,-,,Study/JOL,"Study Phase",1196,,,-1,-1,,,,1
w812089FS,k4ls0net7v,Nick_Dissertation_EX1,1,29,2020-07-13T17:12:27-07:00,1.0559039115906,2,versionA_stim.csv,READVersionB.csv,"Read Version B","Dissertation, read only version B",ADJOURN,END,Study2,F,101,146,Study,User,-,,Study/JOL,"Study Phase",814,,,-1,-1,,,,1
w812089FS,k4ls0net7v,Nick_Dissertation_EX1,1,30,2020-07-13T17:12:29-07:00,1.3729360103607,2,versionA_stim.csv,READVersionB.csv,"Read Version B","Dissertation, read only version B",KEYS,JOKE,Study2,U,165,136,Study,User,-,,Study/JOL,"Study Phase",1071,,,-1,-1,,,,1
w812089FS,k4ls0net7v,Nick_Dissertation_EX1,1,31,2020-07-13T17:12:31-07:00,2.5973951816559,2,versionA_stim.csv,READVersionB.csv,"Read Version B","Dissertation, read only version B",PHONE,COMMUNICATION,Study2,S,149,133,Study,User,-,,Study/JOL,"Study Phase",2330,,,-1,-1,,,,1
w812089FS,k4ls0net7v,Nick_Dissertation_EX1,1,32,2020-07-13T17:13:24-07:00,52.349027872086,2,versionA_stim.csv,READVersionB.csv,"Read Version B","Dissertation, read only version B",SAFETY,SEATBELT,Study2,S,147,103,Study,User,-,,Study/JOL,"Study Phase",8409,,,-1,-1,,,,1
w812089FS,k4ls0net7v,Nick_Dissertation_EX1,1,33,2020-07-13T17:13:26-07:00,1.7979679107666,2,versionA_stim.csv,READVersionB.csv,"Read Version B","Dissertation, read only version B",MOAT,CLEAR,Study2,U,169,111,Study,User,-,,Study/JOL,"Study Phase",1554,,,-1,-1,,,,1
w812089FS,k4ls0net7v,Nick_Dissertation_EX1,1,34,2020-07-13T17:13:27-07:00,1.5250940322876,2,versionA_stim.csv,READVersionB.csv,"Read Version B","Dissertation, read only version B",SCALP,HEAD,Study2,F,105,112,Study,User,-,,Study/JOL,"Study Phase",1222,,,-1,-1,,,,1
w812089FS,k4ls0net7v,Nick_Dissertation_EX1,1,35,2020-07-13T17:13:30-07:00,2.8503761291504,2,versionA_stim.csv,READVersionB.csv,"Read Version B","Dissertation, read only version B",MIRROR,CHILDREN,Study2,U,174,127,Study,User,-,,Study/JOL,"Study Phase",2604,,,-1,-1,,,,1
w812089FS,k4ls0net7v,Nick_Dissertation_EX1,1,36,2020-07-13T17:13:32-07:00,2.2175078392029,2,versionA_stim.csv,READVersionB.csv,"Read Version B","Dissertation, read only version B",AFFECTION,LOVE,Study2,F,115,115,Study,User,-,,Study/JOL,"Study Phase",1967,,,-1,-1,,,,1
w812089FS,k4ls0net7v,Nick_Dissertation_EX1,1,37,2020-07-13T17:13:35-07:00,2.390527009964,2,versionA_stim.csv,READVersionB.csv,"Read Version B","Dissertation, read only version B",LOAN,SIGN,Study2,U,171,119,Study,User,-,,Study/JOL,"Study Phase",2133,,,-1,-1,,,,1
w812089FS,k4ls0net7v,Nick_Dissertation_EX1,1,38,2020-07-13T17:13:37-07:00,2.3868491649628,2,versionA_stim.csv,READVersionB.csv,"Read Version B","Dissertation, read only version B",FEUD,FIGHT,Study2,F,113,126,Study,User,-,,Study/JOL,"Study Phase",2159,,,-1,-1,,,,1
w812089FS,k4ls0net7v,Nick_Dissertation_EX1,1,39,2020-07-13T17:13:39-07:00,2.4235758781433,2,versionA_stim.csv,READVersionB.csv,"Read Version B","Dissertation, read only version B",THREAD,THIMBLE,Study2,B,121,121,Study,User,-,,Study/JOL,"Study Phase",2167,,,-1,-1,,,,1
w812089FS,k4ls0net7v,Nick_Dissertation_EX1,1,40,2020-07-13T17:13:44-07:00,4.4398519992828,2,versionA_stim.csv,READVersionB.csv,"Read Version B","Dissertation, read only version B",FUZZY,BANG,Study2,U,168,174,Study,User,-,,Study/JOL,"Study Phase",4148,,,-1,-1,,,,1
w812089FS,k4ls0net7v,Nick_Dissertation_EX1,1,41,2020-07-13T17:13:45-07:00,1.3924720287323,2,versionA_stim.csv,READVersionB.csv,"Read Version B","Dissertation, read only version B",DRY,WET,Study2,S,146,98,Study,User,-,,Study/JOL,"Study Phase",1117,,,-1,-1,,,,1
w812089FS,k4ls0net7v,Nick_Dissertation_EX1,1,42,2020-07-13T17:13:48-07:00,2.4143369197845,2,versionA_stim.csv,READVersionB.csv,"Read Version B","Dissertation, read only version B",GLASS,BREAKABLE,Study2,B,127,157,Study,User,-,,Study/JOL,"Study Phase",2092,,,-1,-1,,,,1
w812089FS,k4ls0net7v,Nick_Dissertation_EX1,1,43,2020-07-13T17:14:14-07:00,26.230082988739,2,versionA_stim.csv,READVersionB.csv,"Read Version B","Dissertation, read only version B",SHEARS,SCISSORS,Study2,F,112,154,Study,User,-,,Study/JOL,"Study Phase",4157,,,-1,-1,,,,1
w812089FS,k4ls0net7v,Nick_Dissertation_EX1,1,44,2020-07-13T17:14:15-07:00,1.2169990539551,2,versionA_stim.csv,READVersionB.csv,"Read Version B","Dissertation, read only version B",ROD,REEL,Study2,S,150,159,Study,User,-,,Study/JOL,"Study Phase",965,,,-1,-1,,,,1
w812089FS,k4ls0net7v,Nick_Dissertation_EX1,1,45,2020-07-13T17:14:16-07:00,1.2089049816132,2,versionA_stim.csv,READVersionB.csv,"Read Version B","Dissertation, read only version B",RIGHTS,EQUAL,Study2,S,137,135,Study,User,-,,Study/JOL,"Study Phase",952,,,-1,-1,,,,1
w812089FS,k4ls0net7v,Nick_Dissertation_EX1,1,46,2020-07-13T17:14:20-07:00,3.494117975235,2,versionA_stim.csv,READVersionB.csv,"Read Version B","Dissertation, read only version B",BOTH,OUNCE,Study2,U,172,100,Study,User,-,,Study/JOL,"Study Phase",3216,,,-1,-1,,,,1
w812089FS,k4ls0net7v,Nick_Dissertation_EX1,1,47,2020-07-13T17:15:02-07:00,42.137867212296,2,versionA_stim.csv,READVersionB.csv,"Read Version B","Dissertation, read only version B",CRACKLE,ABLE,Study2,U,162,118,Study,User,-,,Study/JOL,"Study Phase",8656,,,-1,-1,,,,1
w812089FS,k4ls0net7v,Nick_Dissertation_EX1,1,48,2020-07-13T17:15:05-07:00,3.2649970054626,2,versionA_stim.csv,READVersionB.csv,"Read Version B","Dissertation, read only version B",FIGHT,BRAWL,Study2,B,135,171,Study,User,-,,Study/JOL,"Study Phase",3011,,,-1,-1,,,,1
w812089FS,k4ls0net7v,Nick_Dissertation_EX1,1,49,2020-07-13T17:15:08-07:00,2.8542017936707,2,versionA_stim.csv,READVersionB.csv,"Read Version B","Dissertation, read only version B",GONE,AWAY,Study2,S,142,142,Study,User,-,,Study/JOL,"Study Phase",2506,,,-1,-1,,,,1
w812089FS,k4ls0net7v,Nick_Dissertation_EX1,1,50,2020-07-13T17:15:10-07:00,2.4370911121368,2,versionA_stim.csv,READVersionB.csv,"Read Version B","Dissertation, read only version B",TANTRUM,TEMPER,Study2,S,154,138,Study,User,-,,Study/JOL,"Study Phase",2162,,,-1,-1,,,,1
w812089FS,k4ls0net7v,Nick_Dissertation_EX1,1,51,2020-07-13T17:15:13-07:00,2.441663980484,2,versionA_stim.csv,READVersionB.csv,"Read Version B","Dissertation, read only version B",OWN,HAVE,Study2,S,153,106,Study,User,-,,Study/JOL,"Study Phase",2192,,,-1,-1,,,,1
w812089FS,k4ls0net7v,Nick_Dissertation_EX1,1,52,2020-07-13T17:15:15-07:00,2.5458059310913,2,versionA_stim.csv,READVersionB.csv,"Read Version B","Dissertation, read only version B",DEAD,COFFIN,Study2,B,128,109,Study,User,-,,Study/JOL,"Study Phase",2287,,,-1,-1,,,,1
w812089FS,k4ls0net7v,Nick_Dissertation_EX1,1,53,2020-07-13T17:15:19-07:00,3.0791110992432,2,versionA_stim.csv,READVersionB.csv,"Read Version B","Dissertation, read only version B",FISH,SARDINE,Study2,B,130,156,Study,User,-,,Study/JOL,"Study Phase",2819,,,-1,-1,,,,1
w812089FS,k4ls0net7v,Nick_Dissertation_EX1,1,54,2020-07-13T17:15:23-07:00,4.1217930316925,2,versionA_stim.csv,READVersionB.csv,"Read Version B","Dissertation, read only version B",ELEMENT,CARBON,Study2,S,141,110,Study,User,-,,Study/JOL,"Study Phase",3849,,,-1,-1,,,,1
w812089FS,k4ls0net7v,Nick_Dissertation_EX1,1,55,2020-07-13T17:15:25-07:00,1.8562169075012,2,versionA_stim.csv,READVersionB.csv,"Read Version B","Dissertation, read only version B",CLUE,GAME,Study2,F,97,143,Study,User,-,,Study/JOL,"Study Phase",1499,,,-1,-1,,,,1
w812089FS,k4ls0net7v,Nick_Dissertation_EX1,1,56,2020-07-13T17:15:28-07:00,3.8430540561676,2,versionA_stim.csv,READVersionB.csv,"Read Version B","Dissertation, read only version B",EXTENSION,LONG,Study2,F,96,124,Study,User,-,,Study/JOL,"Study Phase",3589,,,-1,-1,,,,1
w812089FS,k4ls0net7v,Nick_Dissertation_EX1,1,57,2020-07-13T17:15:31-07:00,2.8816270828247,2,versionA_stim.csv,READVersionB.csv,"Read Version B","Dissertation, read only version B",EARTH,GROUND,Study2,S,144,141,Study,User,-,,Study/JOL,"Study Phase",2641,,,-1,-1,,,,1
w812089FS,k4ls0net7v,Nick_Dissertation_EX1,1,58,2020-07-13T17:15:34-07:00,2.7114038467407,2,versionA_stim.csv,READVersionB.csv,"Read Version B","Dissertation, read only version B",SUN,TAN,Study2,S,155,104,Study,User,-,,Study/JOL,"Study Phase",2474,,,-1,-1,,,,1
w812089FS,k4ls0net7v,Nick_Dissertation_EX1,1,59,2020-07-13T17:15:40-07:00,5.9093220233917,2,versionA_stim.csv,READVersionB.csv,"Read Version B","Dissertation, read only version B",MAZE,ELECTION,Study2,U,159,175,Study,User,-,,Study/JOL,"Study Phase",5669,,,-1,-1,,,,1
w812089FS,k4ls0net7v,Nick_Dissertation_EX1,1,60,2020-07-13T17:15:42-07:00,1.9758250713348,2,versionA_stim.csv,READVersionB.csv,"Read Version B","Dissertation, read only version B",PLANE,AIRCRAFT,Study2,B,129,120,Study,User,-,,Study/JOL,"Study Phase",1711,,,-1,-1,,,,1
w812089FS,k4ls0net7v,Nick_Dissertation_EX1,1,61,2020-07-13T17:15:44-07:00,2.4516558647156,2,versionA_stim.csv,READVersionB.csv,"Read Version B","Dissertation, read only version B",HONEST,TRUTHFUL,Study2,B,133,130,Study,User,-,,Study/JOL,"Study Phase",2187,,,-1,-1,,,,1
w812089FS,k4ls0net7v,Nick_Dissertation_EX1,1,62,2020-07-13T17:15:46-07:00,2.1810531616211,2,versionA_stim.csv,READVersionB.csv,"Read Version B","Dissertation, read only version B",POP,BALLOON,Study2,B,123,108,Study,User,-,,Study/JOL,"Study Phase",1920,,,-1,-1,,,,1
w812089FS,k4ls0net7v,Nick_Dissertation_EX1,1,63,2020-07-13T17:15:50-07:00,3.0749230384827,2,versionA_stim.csv,READVersionB.csv,"Read Version B","Dissertation, read only version B",LITTER,TRASH,Study2,F,103,125,Study,User,-,,Study/JOL,"Study Phase",2743,,,-1,-1,,,,1
w812089FS,k4ls0net7v,Nick_Dissertation_EX1,1,64,2020-07-13T17:15:52-07:00,2.3945260047913,2,versionA_stim.csv,READVersionB.csv,"Read Version B","Dissertation, read only version B",CAR,WINDSHIELD,Study2,B,117,151,Study,User,-,,Study/JOL,"Study Phase",2148,,,-1,-1,,,,1
w812089FS,k4ls0net7v,Nick_Dissertation_EX1,1,65,2020-07-13T17:15:57-07:00,4.5636539459229,2,versionA_stim.csv,READVersionB.csv,"Read Version B","Dissertation, read only version B",DETECTIVE,MYSTERY,Study2,F,100,166,Study,User,-,,Study/JOL,"Study Phase",4330,,,-1,-1,,,,1
w812089FS,k4ls0net7v,Nick_Dissertation_EX1,1,66,2020-07-13T17:16:00-07:00,3.1495668888092,2,versionA_stim.csv,READVersionB.csv,"Read Version B","Dissertation, read only version B",DRIVER,CAR,Study2,F,106,163,Study,User,-,,Study/JOL,"Study Phase",2895,,,-1,-1,,,,1
w812089FS,k4ls0net7v,Nick_Dissertation_EX1,1,67,2020-07-13T17:16:02-07:00,2.7790219783783,2,versionA_stim.csv,READVersionB.csv,"Read Version B","Dissertation, read only version B",TEMPERATURE,Morning,Study2,U,173,149,Study,User,-,,Study/JOL,"Study Phase",2538,,,-1,-1,,,,1
w812089FS,k4ls0net7v,Nick_Dissertation_EX1,1,68,2020-07-13T17:16:05-07:00,2.6387431621552,2,versionA_stim.csv,READVersionB.csv,"Read Version B","Dissertation, read only version B",BEST,FAVORITE,Study2,B,125,147,Study,User,-,,Study/JOL,"Study Phase",2362,,,-1,-1,,,,1
w812089FS,k4ls0net7v,Nick_Dissertation_EX1,1,69,2020-07-13T17:16:08-07:00,2.4238028526306,2,versionA_stim.csv,READVersionB.csv,"Read Version B","Dissertation, read only version B",LOUD,NOISE,Study2,S,152,167,Study,User,-,,Study/JOL,"Study Phase",2158,,,-1,-1,,,,1
w812089FS,k4ls0net7v,Nick_Dissertation_EX1,1,70,2020-07-13T17:16:11-07:00,3.7547481060028,2,versionA_stim.csv,READVersionB.csv,"Read Version B","Dissertation, read only version B",FRUIT,STRAWBERRY,Study2,B,124,165,Study,User,-,,Study/JOL,"Study Phase",3512,,,-1,-1,,,,1
w812089FS,k4ls0net7v,Nick_Dissertation_EX1,1,71,2020-07-13T17:16:14-07:00,2.4219169616699,2,versionA_stim.csv,READVersionB.csv,"Read Version B","Dissertation, read only version B",WRIST,BRACELET,Study2,S,140,97,Study,User,-,,Study/JOL,"Study Phase",2174,,,-1,-1,,,,1
w812089FS,k4ls0net7v,Nick_Dissertation_EX1,1,72,2020-07-13T17:16:16-07:00,2.3858880996704,2,versionA_stim.csv,READVersionB.csv,"Read Version B","Dissertation, read only version B",CHERRY,RED,Study2,F,104,145,Study,User,-,,Study/JOL,"Study Phase",1871,,,-1,-1,,,,1
w812089FS,k4ls0net7v,Nick_Dissertation_EX1,1,73,2020-07-13T17:16:20-07:00,3.7864589691162,2,versionA_stim.csv,READVersionB.csv,"Read Version B","Dissertation, read only version B",ALONE,LONELY,Study2,S,145,169,Study,User,-,,Study/JOL,"Study Phase",3486,,,-1,-1,,,,1
w812089FS,k4ls0net7v,Nick_Dissertation_EX1,1,74,2020-07-13T17:16:22-07:00,1.9275209903717,2,versionA_stim.csv,READVersionB.csv,"Read Version B","Dissertation, read only version B",DOCUMENT,PAPER,Study2,F,109,153,Study,User,-,,Study/JOL,"Study Phase",1657,,,-1,-1,,,,1
w812089FS,k4ls0net7v,Nick_Dissertation_EX1,1,75,2020-07-13T17:16:23-07:00,1.7162299156189,2,versionA_stim.csv,READVersionB.csv,"Read Version B","Dissertation, read only version B",BIRD,PENGUIN,Study2,B,119,150,Study,User,-,,Study/JOL,"Study Phase",1469,,,-1,-1,,,,1
w812089FS,k4ls0net7v,Nick_Dissertation_EX1,1,76,2020-07-13T17:16:51-07:00,27.648718118668,2,versionA_stim.csv,READVersionB.csv,"Read Version B","Dissertation, read only version B",MASON,JAR,Study2,S,138,162,Study,User,-,,Study/JOL,"Study Phase",1342,,,-1,-1,,,,1
w812089FS,k4ls0net7v,Nick_Dissertation_EX1,1,77,2020-07-13T17:16:52-07:00,1.0211169719696,2,versionA_stim.csv,READVersionB.csv,"Read Version B","Dissertation, read only version B",LISTEN,FICTION,Study2,U,164,152,Study,User,-,,Study/JOL,"Study Phase",772,,,-1,-1,,,,1
w812089FS,k4ls0net7v,Nick_Dissertation_EX1,1,78,2020-07-13T17:16:53-07:00,1.0231509208679,2,versionA_stim.csv,READVersionB.csv,"Read Version B","Dissertation, read only version B",STAR,ACTRESS,Study2,B,120,140,Study,User,-,,Study/JOL,"Study Phase",784,,,-1,-1,,,,1
w812089FS,k4ls0net7v,Nick_Dissertation_EX1,1,79,2020-07-13T17:16:54-07:00,0.96824097633362,2,versionA_stim.csv,READVersionB.csv,"Read Version B","Dissertation, read only version B",MULE,DONKEY,Study2,F,108,158,Study,User,-,,Study/JOL,"Study Phase",721,,,-1,-1,,,,1
w812089FS,k4ls0net7v,Nick_Dissertation_EX1,1,80,2020-07-13T17:16:55-07:00,0.9167001247406,2,versionA_stim.csv,READVersionB.csv,"Read Version B","Dissertation, read only version B",TRUTH,LIE,Study2,S,148,99,Study,User,-,,Study/JOL,"Study Phase",651,,,-1,-1,,,,1
w812089FS,k4ls0net7v,Nick_Dissertation_EX1,1,81,2020-07-13T17:16:56-07:00,0.9634838104248,2,versionA_stim.csv,READVersionB.csv,"Read Version B","Dissertation, read only version B",TURN,FLIP,Study2,B,116,170,Study,User,-,,Study/JOL,"Study Phase",721,,,-1,-1,,,,1
w812089FS,k4ls0net7v,Nick_Dissertation_EX1,1,82,2020-07-13T17:16:57-07:00,1.0144650936127,2,versionA_stim.csv,READVersionB.csv,"Read Version B","Dissertation, read only version B",INCENSE,SMELL,Study2,F,110,168,Study,User,-,,Study/JOL,"Study Phase",771,,,-1,-1,,,,1
w812089FS,k4ls0net7v,Nick_Dissertation_EX1,1,83,2020-07-13T17:16:58-07:00,1.0371010303497,2,versionA_stim.csv,READVersionB.csv,"Read Version B","Dissertation, read only version B",MEAT,OBTAIN,Study2,U,161,122,Study,User,-,,Study/JOL,"Study Phase",812,,,-1,-1,,,,1
w812089FS,k4ls0net7v,Nick_Dissertation_EX1,1,84,2020-07-13T17:17:01-07:00,3.2388050556183,2,versionA_stim.csv,READVersionB.csv,"Read Version B","Dissertation, read only version B",BAD,VILLAIN,Study2,B,118,128,Study,User,-,,Study/JOL,"Study Phase",2920,,,-1,-1,,,,1
w812089FS,k4ls0net7v,Nick_Dissertation_EX1,1,85,2020-07-13T17:17:03-07:00,1.3275349140167,2,versionA_stim.csv,READVersionB.csv,"Read Version B","Dissertation, read only version B",CACTUS,PLANT,Study2,F,98,129,Study,User,-,,Study/JOL,"Study Phase",1069,,,-1,-1,,,,1
w812089FS,k4ls0net7v,Nick_Dissertation_EX1,1,86,2020-07-13T17:17:04-07:00,1.5309109687805,2,versionA_stim.csv,READVersionB.csv,"Read Version B","Dissertation, read only version B",STRETCH,CLOTH,Study2,U,157,160,Study,User,-,,Study/JOL,"Study Phase",1266,,,-1,-1,,,,1
w812089FS,k4ls0net7v,Nick_Dissertation_EX1,1,87,2020-07-13T17:17:06-07:00,1.9040830135345,2,versionA_stim.csv,READVersionB.csv,"Read Version B","Dissertation, read only version B",OCTOBER,SPOOKY,BUFFER4,Buffer,180,179,Study,User,-,,Study/JOL,BUFFER2,1663,,,-1,-1,,,,1
w812089FS,k4ls0net7v,Nick_Dissertation_EX1,1,88,2020-07-13T17:17:12-07:00,5.493537902832,2,versionA_stim.csv,READVersionB.csv,"Read Version B","Dissertation, read only version B",DAYS,WEAKS,BUFFER4,Buffer,176,177,Study,User,-,,Study/JOL,BUFFER2,5174,,,-1,-1,,,,1
w812089FS,k4ls0net7v,Nick_Dissertation_EX1,1,89,2020-07-13T17:17:13-07:00,1.5261840820312,2,versionA_stim.csv,READVersionB.csv,"Read Version B","Dissertation, read only version B",SPRING,MARCH,BUFFER4,Buffer,179,181,Study,User,-,,Study/JOL,BUFFER2,1267,,,-1,-1,,,,1
w812089FS,k4ls0net7v,Nick_Dissertation_EX1,1,90,2020-07-13T17:17:15-07:00,1.6774549484253,2,versionA_stim.csv,READVersionB.csv,"Read Version B","Dissertation, read only version B",TOOL,SHED,BUFFER4,Buffer,178,178,Study,User,-,,Study/JOL,BUFFER2,1380,,,-1,-1,,,,1
w812089FS,k4ls0net7v,Nick_Dissertation_EX1,1,91,2020-07-13T17:17:16-07:00,1.4886360168457,2,versionA_stim.csv,READVersionB.csv,"Read Version B","Dissertation, read only version B",MONTH,YEAR,BUFFER4,Buffer,177,180,Study,User,-,,Study/JOL,BUFFER2,1228,,,-1,-1,,,,1
w812089FS,k4ls0net7v,Nick_Dissertation_EX1,1,92,2020-07-13T17:17:19-07:00,2.5835220813751,2,versionA_stim.csv,READVersionB.csv,"Read Version B","Dissertation, read only version B",,,,,,0,Instruct,User,-,"You have completed this section. Please press Enter.",Filler_Instruction,Instruct2,2336,,,-1,-1,,,,1
w812089FS,k4ls0net7v,Nick_Dissertation_EX1,1,93,2020-07-13T17:19:19-07:00,120.60991287231,2,versionA_stim.csv,READVersionB.csv,"Read Version B","Dissertation, read only version B",,,,,,0,FreeRecall,120,120,"Please list the 50 US states in alphabetical order. The task will automatically advance to the next screen after two minutes.",,Filler1,120003,"Alabama Alaska Arizona Arkansas California Colorado Connecticut Delaware Florida Georgia Hawaii Idaho Illinois Indiana Iowa Kansas Kentucky Louisiana Maine Maryland Massachusetts Michiga",0,34174,119966,0,0,,1
w812089FS,k4ls0net7v,Nick_Dissertation_EX1,1,94,2020-07-13T17:19:34-07:00,14.628975152969,2,versionA_stim.csv,READVersionB.csv,"Read Version B","Dissertation, read only version B",,,,,,0,Instruct,-,10,"You will now be presented with the first word from each of the previously studied item pairs. Please type the missing word. If you do not know the word, you may guess or press Enter to skip forward to the next pair.",,Instruct3,14309,,,-1,-1,,,,1
w812089FS,k4ls0net7v,Nick_Dissertation_EX1,1,95,2020-07-13T17:19:51-07:00,16.818544864655,2,versionA_stim.csv,READVersionB.csv,"Read Version B","Dissertation, read only version B",LEASE,TOIL,Study2,U,170,102,Test,User,-,,Recall,Recall1,16528,rent,25,14462,15153,0,0,,1
w812089FS,k4ls0net7v,Nick_Dissertation_EX1,1,96,2020-07-13T17:19:57-07:00,6.3787469863892,2,versionA_stim.csv,READVersionB.csv,"Read Version B","Dissertation, read only version B",TANTRUM,TEMPER,Study2,S,154,138,Test,User,-,,Recall,Recall1,5995,temper,100,2285,4059,1,1,,1
w812089FS,k4ls0net7v,Nick_Dissertation_EX1,1,97,2020-07-13T17:20:02-07:00,5.1164820194244,2,versionA_stim.csv,READVersionB.csv,"Read Version B","Dissertation, read only version B",CLUE,GAME,Study2,F,97,143,Test,User,-,,Recall,Recall1,4807,game,100,2456,2903,1,1,,1
w812089FS,k4ls0net7v,Nick_Dissertation_EX1,1,98,2020-07-13T17:20:21-07:00,18.754040002823,2,versionA_stim.csv,READVersionB.csv,"Read Version B","Dissertation, read only version B",MAZE,ELECTION,Study2,U,159,175,Test,User,-,,Recall,Recall1,18384,election,100,15821,17064,1,1,,1
w812089FS,k4ls0net7v,Nick_Dissertation_EX1,1,99,2020-07-13T17:20:26-07:00,5.1832041740417,2,versionA_stim.csv,READVersionB.csv,"Read Version B","Dissertation, read only version B",VEHICLE,CHARM,Study2,U,160,155,Test,User,-,,Recall,Recall1,4920,car,75,3490,4432,0,1,,1
w812089FS,k4ls0net7v,Nick_Dissertation_EX1,1,100,2020-07-13T17:20:30-07:00,3.9563009738922,2,versionA_stim.csv,READVersionB.csv,"Read Version B","Dissertation, read only version B",FEUD,FIGHT,Study2,F,113,126,Test,User,-,,Recall,Recall1,3685,fight,100,2694,3461,1,1,,1
w812089FS,k4ls0net7v,Nick_Dissertation_EX1,1,101,2020-07-13T17:20:39-07:00,8.215528011322,2,versionA_stim.csv,READVersionB.csv,"Read Version B","Dissertation, read only version B",JUSTICE,MAROON,Study2,U,156,137,Test,User,-,,Recall,Recall1,7931,give,0,6973,7820,0,0,,1
w812089FS,k4ls0net7v,Nick_Dissertation_EX1,1,102,2020-07-13T17:20:46-07:00,7.5916638374329,2,versionA_stim.csv,READVersionB.csv,"Read Version B","Dissertation, read only version B",BOTH,OUNCE,Study2,U,172,100,Test,User,-,,Recall,Recall1,7302,hands,20,5664,7046,0,0,,1
w812089FS,k4ls0net7v,Nick_Dissertation_EX1,1,103,2020-07-13T17:20:49-07:00,2.5903341770172,2,versionA_stim.csv,READVersionB.csv,"Read Version B","Dissertation, read only version B",SCALP,HEAD,Study2,F,105,112,Test,User,-,,Recall,Recall1,2340,heal,75,1574,2052,0,1,,1
w812089FS,k4ls0net7v,Nick_Dissertation_EX1,1,104,2020-07-13T17:20:57-07:00,8.7879748344421,2,versionA_stim.csv,READVersionB.csv,"Read Version B","Dissertation, read only version B",RAZOR,SHAVE,Study2,S,136,116,Test,User,-,,Recall,Recall1,8518,shave,100,3536,8351,1,1,,1
w812089FS,k4ls0net7v,Nick_Dissertation_EX1,1,105,2020-07-13T17:21:02-07:00,4.1602501869202,2,versionA_stim.csv,READVersionB.csv,"Read Version B","Dissertation, read only version B",INCENSE,SMELL,Study2,F,110,168,Test,User,-,,Recall,Recall1,3828,burn,0,3086,3605,0,0,,1
w812089FS,k4ls0net7v,Nick_Dissertation_EX1,1,106,2020-07-13T17:21:06-07:00,4.4819419384003,2,versionA_stim.csv,READVersionB.csv,"Read Version B","Dissertation, read only version B",FRUIT,STRAWBERRY,Study2,B,124,165,Test,User,-,,Recall,Recall1,4185,cup,0,3475,3898,0,0,,1
w812089FS,k4ls0net7v,Nick_Dissertation_EX1,1,107,2020-07-13T17:21:10-07:00,3.4890480041504,2,versionA_stim.csv,READVersionB.csv,"Read Version B","Dissertation, read only version B",PHONE,COMMUNICATION,Study2,S,149,133,Test,User,-,,Recall,Recall1,3244,call,23.529411764706,2599,3045,0,0,,1
w812089FS,k4ls0net7v,Nick_Dissertation_EX1,1,108,2020-07-13T17:21:16-07:00,6.6283209323883,2,versionA_stim.csv,READVersionB.csv,"Read Version B","Dissertation, read only version B",LOAN,SIGN,Study2,U,171,119,Test,User,-,,Recall,Recall1,6359,money,22.222222222222,5049,6073,0,0,,1
w812089FS,k4ls0net7v,Nick_Dissertation_EX1,1,109,2020-07-13T17:21:21-07:00,4.8657650947571,2,versionA_stim.csv,READVersionB.csv,"Read Version B","Dissertation, read only version B",TURN,FLIP,Study2,B,116,170,Test,User,-,,Recall,Recall1,4515,here,0,3948,4355,0,0,,1
w812089FS,k4ls0net7v,Nick_Dissertation_EX1,1,110,2020-07-13T17:21:27-07:00,5.9723339080811,2,versionA_stim.csv,READVersionB.csv,"Read Version B","Dissertation, read only version B",DEAD,COFFIN,Study2,B,128,109,Test,User,-,,Recall,Recall1,5643,alive,18.181818181818,4861,5484,0,0,,1
w812089FS,k4ls0net7v,Nick_Dissertation_EX1,1,111,2020-07-13T17:21:30-07:00,2.8592970371246,2,versionA_stim.csv,READVersionB.csv,"Read Version B","Dissertation, read only version B",GLASS,BREAKABLE,Study2,B,127,157,Test,User,-,,Recall,Recall1,2480,door,15.384615384615,1802,2297,0,0,,1
w812089FS,k4ls0net7v,Nick_Dissertation_EX1,1,112,2020-07-13T17:21:32-07:00,2.5047769546509,2,versionA_stim.csv,READVersionB.csv,"Read Version B","Dissertation, read only version B",FUZZY,BANG,Study2,U,168,174,Test,User,-,,Recall,Recall1,2244,peach,22.222222222222,1359,2045,0,0,,1
w812089FS,k4ls0net7v,Nick_Dissertation_EX1,1,113,2020-07-13T17:21:35-07:00,2.280375957489,2,versionA_stim.csv,READVersionB.csv,"Read Version B","Dissertation, read only version B",POP,BALLOON,Study2,B,123,108,Test,User,-,,Recall,Recall1,2037,can,40,1559,1838,0,0,,1
w812089FS,k4ls0net7v,Nick_Dissertation_EX1,1,114,2020-07-13T17:21:38-07:00,3.2903261184692,2,versionA_stim.csv,READVersionB.csv,"Read Version B","Dissertation, read only version B",KEYS,JOKE,Study2,U,165,136,Test,User,-,,Recall,Recall1,3019,car,0,2277,2588,0,0,,1
w812089FS,k4ls0net7v,Nick_Dissertation_EX1,1,115,2020-07-13T17:21:41-07:00,2.9137518405914,2,versionA_stim.csv,READVersionB.csv,"Read Version B","Dissertation, read only version B",CAKE,CLOTHES,Study2,U,166,139,Test,User,-,,Recall,Recall1,2628,pie,20,1982,2452,0,0,,1
w812089FS,k4ls0net7v,Nick_Dissertation_EX1,1,116,2020-07-13T17:21:44-07:00,3.0013270378113,2,versionA_stim.csv,READVersionB.csv,"Read Version B","Dissertation, read only version B",STRETCH,CLOTH,Study2,U,157,160,Test,User,-,,Recall,Recall1,2737,long,44.444444444444,2010,2497,0,0,,1
w812089FS,k4ls0net7v,Nick_Dissertation_EX1,1,117,2020-07-13T17:21:47-07:00,2.9684431552887,2,versionA_stim.csv,READVersionB.csv,"Read Version B","Dissertation, read only version B",LITTER,TRASH,Study2,F,103,125,Test,User,-,,Recall,Recall1,2691,cat,25,1847,2364,0,0,,1
w812089FS,k4ls0net7v,Nick_Dissertation_EX1,1,118,2020-07-13T17:21:49-07:00,2.2803249359131,2,versionA_stim.csv,READVersionB.csv,"Read Version B","Dissertation, read only version B",BAD,VILLAIN,Study2,B,118,128,Test,User,-,,Recall,Recall1,2019,good,0,1213,1636,0,0,,1
w812089FS,k4ls0net7v,Nick_Dissertation_EX1,1,119,2020-07-13T17:21:53-07:00,3.4199759960175,2,versionA_stim.csv,READVersionB.csv,"Read Version B","Dissertation, read only version B",THREAD,THIMBLE,Study2,B,121,121,Test,User,-,,Recall,Recall1,2887,thimble,100,1345,2712,1,1,,1
w812089FS,k4ls0net7v,Nick_Dissertation_EX1,1,120,2020-07-13T17:21:59-07:00,5.9858899116516,2,versionA_stim.csv,READVersionB.csv,"Read Version B","Dissertation, read only version B",ROD,REEL,Study2,S,150,159,Test,User,-,,Recall,Recall1,5720,car,28.571428571429,5074,5433,0,0,,1
w812089FS,k4ls0net7v,Nick_Dissertation_EX1,1,121,2020-07-13T17:22:03-07:00,4.8141231536865,2,versionA_stim.csv,READVersionB.csv,"Read Version B","Dissertation, read only version B",DETECTIVE,MYSTERY,Study2,F,100,166,Test,User,-,,Recall,Recall1,4551,cop,0,3841,4232,0,0,,1
w812089FS,k4ls0net7v,Nick_Dissertation_EX1,1,122,2020-07-13T17:22:07-07:00,3.5079128742218,2,versionA_stim.csv,READVersionB.csv,"Read Version B","Dissertation, read only version B",DRIVER,CAR,Study2,F,106,163,Test,User,-,,Recall,Recall1,3197,good,0,2631,3006,0,0,,1
w812089FS,k4ls0net7v,Nick_Dissertation_EX1,1,123,2020-07-13T17:22:15-07:00,7.8538229465485,2,versionA_stim.csv,READVersionB.csv,"Read Version B","Dissertation, read only version B",NAME,HATE,Study2,U,167,176,Test,User,-,,Recall,Recall1,7600,good,0,6978,7369,0,0,,1
w812089FS,k4ls0net7v,Nick_Dissertation_EX1,1,124,2020-07-13T17:22:18-07:00,3.0104501247406,2,versionA_stim.csv,READVersionB.csv,"Read Version B","Dissertation, read only version B",HONEST,TRUTHFUL,Study2,B,133,130,Test,User,-,,Recall,Recall1,2684,cold,16.666666666667,1918,2453,0,0,,1
w812089FS,k4ls0net7v,Nick_Dissertation_EX1,1,125,2020-07-13T17:22:28-07:00,10.139217853546,2,versionA_stim.csv,READVersionB.csv,"Read Version B","Dissertation, read only version B",STAR,ACTRESS,Study2,B,120,140,Test,User,-,,Recall,Recall1,9782,gaze,36.363636363636,8680,9591,0,0,,1
w812089FS,k4ls0net7v,Nick_Dissertation_EX1,1,126,2020-07-13T17:22:33-07:00,5.2310612201691,2,versionA_stim.csv,READVersionB.csv,"Read Version B","Dissertation, read only version B",MIRROR,CHILDREN,Study2,U,174,127,Test,User,-,,Recall,Recall1,4953,mirror,28.571428571429,955,4626,0,0,,1
w812089FS,k4ls0net7v,Nick_Dissertation_EX1,1,127,2020-07-13T17:22:38-07:00,4.5689828395844,2,versionA_stim.csv,READVersionB.csv,"Read Version B","Dissertation, read only version B",FIGHT,BRAWL,Study2,B,135,171,Test,User,-,,Recall,Recall1,4028,feud,0,1646,3749,0,0,,1
w812089FS,k4ls0net7v,Nick_Dissertation_EX1,1,128,2020-07-13T17:22:42-07:00,4.0133900642395,2,versionA_stim.csv,READVersionB.csv,"Read Version B","Dissertation, read only version B",CRACKLE,ABLE,Study2,U,162,118,Test,User,-,,Recall,Recall1,3741,pop,0,2919,3406,0,0,,1
w812089FS,k4ls0net7v,Nick_Dissertation_EX1,1,129,2020-07-13T17:22:46-07:00,3.9938180446625,2,versionA_stim.csv,READVersionB.csv,"Read Version B","Dissertation, read only version B",WRIST,BRACELET,Study2,S,140,97,Test,User,-,,Recall,Recall1,3723,watch,30.769230769231,2525,3444,0,0,,1
w812089FS,k4ls0net7v,Nick_Dissertation_EX1,1,130,2020-07-13T17:22:49-07:00,3.2650179862976,2,versionA_stim.csv,READVersionB.csv,"Read Version B","Dissertation, read only version B",BIRD,PENGUIN,Study2,B,119,150,Test,User,-,,Recall,Recall1,3016,watch,0,1394,2553,0,0,,1
w812089FS,k4ls0net7v,Nick_Dissertation_EX1,1,131,2020-07-13T17:22:52-07:00,2.664608001709,2,versionA_stim.csv,READVersionB.csv,"Read Version B","Dissertation, read only version B",ALONE,LONELY,Study2,S,145,169,Test,User,-,,Recall,Recall1,2416,give,20,1762,2241,0,0,,1
w812089FS,k4ls0net7v,Nick_Dissertation_EX1,1,132,2020-07-13T17:23:23-07:00,30.993088006973,2,versionA_stim.csv,READVersionB.csv,"Read Version B","Dissertation, read only version B",SUN,TAN,Study2,S,155,104,Test,User,-,,Recall,Recall1,6907,set,33.333333333333,6157,6692,0,0,,1
w812089FS,k4ls0net7v,Nick_Dissertation_EX1,1,133,2020-07-13T17:23:26-07:00,3.0123269557953,2,versionA_stim.csv,READVersionB.csv,"Read Version B","Dissertation, read only version B",CHOP,CUT,Study2,F,107,117,Test,User,-,,Recall,Recall1,2760,knife,0,1706,2624,0,0,,1
w812089FS,k4ls0net7v,Nick_Dissertation_EX1,1,134,2020-07-13T17:23:32-07:00,6.376168012619,2,versionA_stim.csv,READVersionB.csv,"Read Version B","Dissertation, read only version B",FURRY,DOG,Study2,F,102,134,Test,User,-,,Recall,Recall1,6111,cat,0,4041,5928,0,0,,1
w812089FS,k4ls0net7v,Nick_Dissertation_EX1,1,135,2020-07-13T17:23:35-07:00,2.6818389892578,2,versionA_stim.csv,READVersionB.csv,"Read Version B","Dissertation, read only version B",CAT,PANTHER,Study2,B,126,114,Test,User,-,,Recall,Recall1,2435,dog,0,1941,2228,0,0,,1
w812089FS,k4ls0net7v,Nick_Dissertation_EX1,1,136,2020-07-13T17:23:38-07:00,3.4910690784454,2,versionA_stim.csv,READVersionB.csv,"Read Version B","Dissertation, read only version B",SHOELACE,TIE,Study2,F,99,132,Test,User,-,,Recall,Recall1,3248,shoe,28.571428571429,2426,3056,0,0,,1
w812089FS,k4ls0net7v,Nick_Dissertation_EX1,1,137,2020-07-13T17:23:46-07:00,7.5212578773499,2,versionA_stim.csv,READVersionB.csv,"Read Version B","Dissertation, read only version B",RIGHTS,EQUAL,Study2,S,137,135,Test,User,-,,Recall,Recall1,7266,good,0,2107,7010,0,0,,1
w812089FS,k4ls0net7v,Nick_Dissertation_EX1,1,138,2020-07-13T17:23:49-07:00,3.4400069713593,2,versionA_stim.csv,READVersionB.csv,"Read Version B","Dissertation, read only version B",PLANE,AIRCRAFT,Study2,B,129,120,Test,User,-,,Recall,Recall1,3098,airplane,50,1292,2802,0,0,,1
w812089FS,k4ls0net7v,Nick_Dissertation_EX1,1,139,2020-07-13T17:24:17-07:00,28.111618995667,2,versionA_stim.csv,READVersionB.csv,"Read Version B","Dissertation, read only version B",AFFECTION,LOVE,Study2,F,115,115,Test,User,-,,Recall,Recall1,3419,love,100,2581,3251,1,1,,1
w812089FS,k4ls0net7v,Nick_Dissertation_EX1,1,140,2020-07-13T17:24:19-07:00,2.050225019455,2,versionA_stim.csv,READVersionB.csv,"Read Version B","Dissertation, read only version B",FLEA,TICK,Study2,S,151,131,Test,User,-,,Recall,Recall1,1781,tick,100,1142,1558,1,1,,1
w812089FS,k4ls0net7v,Nick_Dissertation_EX1,1,141,2020-07-13T17:24:22-07:00,2.2230019569397,2,versionA_stim.csv,READVersionB.csv,"Read Version B","Dissertation, read only version B",CANDLE,WAX,Study2,S,139,105,Test,User,-,,Recall,Recall1,1886,wax,100,1055,1614,1,1,,1
w812089FS,k4ls0net7v,Nick_Dissertation_EX1,1,142,2020-07-13T17:24:25-07:00,3.4666891098022,2,versionA_stim.csv,READVersionB.csv,"Read Version B","Dissertation, read only version B",ELEMENT,CARBON,Study2,S,141,110,Test,User,-,,Recall,Recall1,3203,carbon,100,1645,2611,1,1,,1
w812089FS,k4ls0net7v,Nick_Dissertation_EX1,1,143,2020-07-13T17:24:27-07:00,2.0421829223633,2,versionA_stim.csv,READVersionB.csv,"Read Version B","Dissertation, read only version B",CHILL,COLD,Study2,F,114,144,Test,User,-,,Recall,Recall1,1788,cold,100,1174,1605,1,1,,1
w812089FS,k4ls0net7v,Nick_Dissertation_EX1,1,144,2020-07-13T17:24:30-07:00,2.8090829849243,2,versionA_stim.csv,READVersionB.csv,"Read Version B","Dissertation, read only version B",LISTEN,FICTION,Study2,U,164,152,Test,User,-,,Recall,Recall1,2549,ear,0,1654,1957,0,0,,1
w812089FS,k4ls0net7v,Nick_Dissertation_EX1,1,145,2020-07-13T17:24:33-07:00,2.8030610084534,2,versionA_stim.csv,READVersionB.csv,"Read Version B","Dissertation, read only version B",DINE,EAT,Study2,F,111,113,Test,User,-,,Recall,Recall1,2558,out,33.333333333333,1935,2358,0,0,,1
w812089FS,k4ls0net7v,Nick_Dissertation_EX1,1,146,2020-07-13T17:24:36-07:00,2.8857371807098,2,versionA_stim.csv,READVersionB.csv,"Read Version B","Dissertation, read only version B",BEST,FAVORITE,Study2,B,125,147,Test,User,-,,Recall,Recall1,2632,friend,57.142857142857,1705,2432,0,0,,1
w812089FS,k4ls0net7v,Nick_Dissertation_EX1,1,147,2020-07-13T17:24:40-07:00,4.6447038650513,2,versionA_stim.csv,READVersionB.csv,"Read Version B","Dissertation, read only version B",DOCUMENT,PAPER,Study2,F,109,153,Test,User,-,,Recall,Recall1,4374,old,0,3832,4191,0,0,,1
w812089FS,k4ls0net7v,Nick_Dissertation_EX1,1,148,2020-07-13T17:24:43-07:00,2.3811440467834,2,versionA_stim.csv,READVersionB.csv,"Read Version B","Dissertation, read only version B",BASEBALL,LEAGUE,Study2,B,131,164,Test,User,-,,Recall,Recall1,2097,game,40,1402,1793,0,0,,1
w812089FS,k4ls0net7v,Nick_Dissertation_EX1,1,149,2020-07-13T17:24:46-07:00,3.7547369003296,2,versionA_stim.csv,READVersionB.csv,"Read Version B","Dissertation, read only version B",EXTENSION,LONG,Study2,F,96,124,Test,User,-,,Recall,Recall1,3473,hair,0,1298,3289,0,0,,1
w812089FS,k4ls0net7v,Nick_Dissertation_EX1,1,150,2020-07-13T17:24:49-07:00,2.2563259601593,2,versionA_stim.csv,READVersionB.csv,"Read Version B","Dissertation, read only version B",SLEEP,NAP,Study2,B,134,123,Test,User,-,,Recall,Recall1,2013,good,0,1295,1726,0,0,,1
w812089FS,k4ls0net7v,Nick_Dissertation_EX1,1,151,2020-07-13T17:24:54-07:00,5.2523610591888,2,versionA_stim.csv,READVersionB.csv,"Read Version B","Dissertation, read only version B",MULE,DONKEY,Study2,F,108,158,Test,User,-,,Recall,Recall1,4926,donkey,100,3600,4663,1,1,,1
w812089FS,k4ls0net7v,Nick_Dissertation_EX1,1,152,2020-07-13T17:24:56-07:00,2.5992810726166,2,versionA_stim.csv,READVersionB.csv,"Read Version B","Dissertation, read only version B",EARTH,GROUND,Study2,S,144,141,Test,User,-,,Recall,Recall1,2324,ground,100,1070,2046,1,1,,1
w812089FS,k4ls0net7v,Nick_Dissertation_EX1,1,153,2020-07-13T17:25:01-07:00,4.6947910785675,2,versionA_stim.csv,READVersionB.csv,"Read Version B","Dissertation, read only version B",GONE,AWAY,Study2,S,142,142,Test,User,-,,Recall,Recall1,4441,away,100,1386,4097,1,1,,1
w812089FS,k4ls0net7v,Nick_Dissertation_EX1,1,154,2020-07-13T17:25:05-07:00,4.3106088638306,2,versionA_stim.csv,READVersionB.csv,"Read Version B","Dissertation, read only version B",LOUD,NOISE,Study2,S,152,167,Test,User,-,,Recall,Recall1,4020,noise,100,3093,3868,1,1,,1
w812089FS,k4ls0net7v,Nick_Dissertation_EX1,1,155,2020-07-13T17:25:08-07:00,2.2601540088654,2,versionA_stim.csv,READVersionB.csv,"Read Version B","Dissertation, read only version B",SHEARS,SCISSORS,Study2,F,112,154,Test,User,-,,Recall,Recall1,1981,cut,18.181818181818,1430,1773,0,0,,1
w812089FS,k4ls0net7v,Nick_Dissertation_EX1,1,156,2020-07-13T17:25:11-07:00,2.7868020534515,2,versionA_stim.csv,READVersionB.csv,"Read Version B","Dissertation, read only version B",SAFETY,SEATBELT,Study2,S,147,103,Test,User,-,,Recall,Recall1,2512,first,30.769230769231,1194,2297,0,0,,1
w812089FS,k4ls0net7v,Nick_Dissertation_EX1,1,157,2020-07-13T17:25:20-07:00,9.9309198856354,2,versionA_stim.csv,READVersionB.csv,"Read Version B","Dissertation, read only version B",Shell,SHAKE,Study2,U,163,173,Test,User,-,,Recall,Recall1,9646,cover,20,6712,9463,0,0,,1
w812089FS,k4ls0net7v,Nick_Dissertation_EX1,1,158,2020-07-13T17:25:23-07:00,2.1337959766388,2,versionA_stim.csv,READVersionB.csv,"Read Version B","Dissertation, read only version B",TRUTH,LIE,Study2,S,148,99,Test,User,-,,Recall,Recall1,1836,lie,100,1023,1381,1,1,,1
w812089FS,k4ls0net7v,Nick_Dissertation_EX1,1,159,2020-07-13T17:25:26-07:00,3.0434830188751,2,versionA_stim.csv,READVersionB.csv,"Read Version B","Dissertation, read only version B",ADJOURN,END,Study2,F,101,146,Test,User,-,,Recall,Recall1,2790,over,28.571428571429,2000,2607,0,0,,1
w812089FS,k4ls0net7v,Nick_Dissertation_EX1,1,160,2020-07-13T17:25:28-07:00,2.0688691139221,2,versionA_stim.csv,READVersionB.csv,"Read Version B","Dissertation, read only version B",CAR,WINDSHIELD,Study2,B,117,151,Test,User,-,,Recall,Recall1,1807,door,14.285714285714,1121,1593,0,0,,1
w812089FS,k4ls0net7v,Nick_Dissertation_EX1,1,161,2020-07-13T17:25:32-07:00,4.1181280612946,2,versionA_stim.csv,READVersionB.csv,"Read Version B","Dissertation, read only version B",MOAT,CLEAR,Study2,U,169,111,Test,User,-,,Recall,Recall1,3395,river,20,2613,3196,0,0,,1
w812089FS,k4ls0net7v,Nick_Dissertation_EX1,1,162,2020-07-13T17:25:38-07:00,5.860515832901,2,versionA_stim.csv,READVersionB.csv,"Read Version B","Dissertation, read only version B",MONEY,BANKER,Study2,B,132,161,Test,User,-,,Recall,Recall1,5494,good,0,2240,5303,0,0,,1
w812089FS,k4ls0net7v,Nick_Dissertation_EX1,1,163,2020-07-13T17:25:40-07:00,2.3643779754639,2,versionA_stim.csv,READVersionB.csv,"Read Version B","Dissertation, read only version B",TEMPERATURE,Morning,Study2,U,173,149,Test,User,-,,Recall,Recall1,2130,hot,20,1596,1932,0,0,,1
w812089FS,k4ls0net7v,Nick_Dissertation_EX1,1,164,2020-07-13T17:25:42-07:00,1.9907732009888,2,versionA_stim.csv,READVersionB.csv,"Read Version B","Dissertation, read only version B",CHERRY,RED,Study2,F,104,145,Test,User,-,,Recall,Recall1,1738,red,100,1060,1554,1,1,,1
w812089FS,k4ls0net7v,Nick_Dissertation_EX1,1,165,2020-07-13T17:25:45-07:00,3.3534970283508,2,versionA_stim.csv,READVersionB.csv,"Read Version B","Dissertation, read only version B",EVEN,REVENGE,Study2,B,122,101,Test,User,-,,Recall,Recall1,3065,close,16.666666666667,2140,2746,0,0,,1
w812089FS,k4ls0net7v,Nick_Dissertation_EX1,1,166,2020-07-13T17:25:47-07:00,1.8486819267273,2,versionA_stim.csv,READVersionB.csv,"Read Version B","Dissertation, read only version B",MASON,JAR,Study2,S,138,162,Test,User,-,,Recall,Recall1,1555,jar,100,981,1340,1,1,,1
w812089FS,k4ls0net7v,Nick_Dissertation_EX1,1,167,2020-07-13T17:25:50-07:00,2.8869979381561,2,versionA_stim.csv,READVersionB.csv,"Read Version B","Dissertation, read only version B",CACTUS,PLANT,Study2,F,98,129,Test,User,-,,Recall,Recall1,2310,plant,100,1335,2071,1,1,,1
w812089FS,k4ls0net7v,Nick_Dissertation_EX1,1,168,2020-07-13T17:25:55-07:00,4.5016911029816,2,versionA_stim.csv,READVersionB.csv,"Read Version B","Dissertation, read only version B",WATER,DRINK,Study2,S,143,107,Test,User,-,,Recall,Recall1,4234,cold,22.222222222222,2940,4012,0,0,,1
w812089FS,k4ls0net7v,Nick_Dissertation_EX1,1,169,2020-07-13T17:26:01-07:00,6.3002908229828,2,versionA_stim.csv,READVersionB.csv,"Read Version B","Dissertation, read only version B",MEAT,OBTAIN,Study2,U,161,122,Test,User,-,,Recall,Recall1,6023,bone,40,4249,5848,0,0,,1
w812089FS,k4ls0net7v,Nick_Dissertation_EX1,1,170,2020-07-13T17:26:05-07:00,3.8850259780884,2,versionA_stim.csv,READVersionB.csv,"Read Version B","Dissertation, read only version B",OWN,HAVE,Study2,S,153,106,Test,User,-,,Recall,Recall1,3359,have,100,2137,3160,1,1,,1
w812089FS,k4ls0net7v,Nick_Dissertation_EX1,1,171,2020-07-13T17:26:09-07:00,4.185298204422,2,versionA_stim.csv,READVersionB.csv,"Read Version B","Dissertation, read only version B",FISH,SARDINE,Study2,B,130,156,Test,User,-,,Recall,Recall1,3921,bowl,0,2611,3626,0,0,,1
w812089FS,k4ls0net7v,Nick_Dissertation_EX1,1,172,2020-07-13T17:26:15-07:00,5.5747468471527,2,versionA_stim.csv,READVersionB.csv,"Read Version B","Dissertation, read only version B",MAIN,SCAR,Study2,U,175,148,Test,User,-,,Recall,Recall1,5302,entrance,16.666666666667,3280,5111,0,0,,1
w812089FS,k4ls0net7v,Nick_Dissertation_EX1,1,173,2020-07-13T17:26:18-07:00,3.098953962326,2,versionA_stim.csv,READVersionB.csv,"Read Version B","Dissertation, read only version B",GIVE,STEAK,Study2,U,158,172,Test,User,-,,Recall,Recall1,2746,away,22.222222222222,1396,2114,0,0,,1
w812089FS,k4ls0net7v,Nick_Dissertation_EX1,1,174,2020-07-13T17:26:20-07:00,1.9379580020905,2,versionA_stim.csv,READVersionB.csv,"Read Version B","Dissertation, read only version B",DRY,WET,Study2,S,146,98,Test,User,-,,Recall,Recall1,1595,wet,100,941,1332,1,1,,1
w812089FS,k4ls0net7v,Nick_Dissertation_EX1,1,175,2020-07-13T17:26:33-07:00,13.022656202316,2,versionA_stim.csv,READVersionB.csv,"Read Version B","Dissertation, read only version B",,,,,,0,Instruct,-,10,"You will now be presented with a new set of word pairs. Please study each pair. Remember that your memory will be tested! When finished, press Enter to move to the next pair.",Initial_Instruct,Instruct4,12720,,,-1,-1,,,,1
w812089FS,k4ls0net7v,Nick_Dissertation_EX1,1,176,2020-07-13T17:26:39-07:00,5.9241709709167,2,versionA_stim.csv,READVersionB.csv,"Read Version B","Dissertation, read only version B",TREES,GREEN,BUFFER1,Buffer,1,2,Study,User,-,,Study/JOL,BUFFER3,5641,,,-1,-1,,,,1
w812089FS,k4ls0net7v,Nick_Dissertation_EX1,1,177,2020-07-13T17:26:41-07:00,2.4623470306396,2,versionA_stim.csv,READVersionB.csv,"Read Version B","Dissertation, read only version B",PEANUT,BUTTER,BUFFER1,Buffer,3,3,Study,User,-,,Study/JOL,BUFFER3,2185,,,-1,-1,,,,1
w812089FS,k4ls0net7v,Nick_Dissertation_EX1,1,178,2020-07-13T17:26:44-07:00,2.9073967933655,2,versionA_stim.csv,READVersionB.csv,"Read Version B","Dissertation, read only version B",BASEBALL,CATCHER,BUFFER1,Buffer,2,4,Study,User,-,,Study/JOL,BUFFER3,2599,,,-1,-1,,,,1
w812089FS,k4ls0net7v,Nick_Dissertation_EX1,1,179,2020-07-13T17:26:49-07:00,5.104159116745,2,versionA_stim.csv,READVersionB.csv,"Read Version B","Dissertation, read only version B",SCARE,HIDE,BUFFER1,Buffer,4,5,Study,User,-,,Study/JOL,BUFFER3,4831,,,-1,-1,,,,1
w812089FS,k4ls0net7v,Nick_Dissertation_EX1,1,180,2020-07-13T17:26:51-07:00,2.4566068649292,2,versionA_stim.csv,READVersionB.csv,"Read Version B","Dissertation, read only version B",SPACE,JAM,BUFFER1,Buffer,5,6,Study,User,-,,Study/JOL,BUFFER3,2202,,,-1,-1,,,,1
w812089FS,k4ls0net7v,Nick_Dissertation_EX1,1,181,2020-07-13T17:26:54-07:00,2.3380601406097,2,versionA_stim.csv,READVersionB.csv,"Read Version B","Dissertation, read only version B",LAW,ATTORNEY,Study1,B,34,69,Study,User,-,,Study/JOL,"Study Phase2",1955,,,-1,-1,,,,1
w812089FS,k4ls0net7v,Nick_Dissertation_EX1,1,182,2020-07-13T17:26:57-07:00,2.7277538776398,2,versionA_stim.csv,READVersionB.csv,"Read Version B","Dissertation, read only version B",PAST,FUTURE,Study1,S,61,25,Study,User,-,,Study/JOL,"Study Phase2",2350,,,-1,-1,,,,1
w812089FS,k4ls0net7v,Nick_Dissertation_EX1,1,183,2020-07-13T17:27:02-07:00,5.4277710914612,2,versionA_stim.csv,READVersionB.csv,"Read Version B","Dissertation, read only version B",SUGAR,RIDDLE,Study1,U,81,40,Study,User,-,,Study/JOL,"Study Phase2",5160,,,-1,-1,,,,1
w812089FS,k4ls0net7v,Nick_Dissertation_EX1,1,184,2020-07-13T17:27:04-07:00,1.7890429496765,2,versionA_stim.csv,READVersionB.csv,"Read Version B","Dissertation, read only version B",GEOLOGY,ROCK,Study1,F,19,71,Study,User,-,,Study/JOL,"Study Phase2",1507,,,-1,-1,,,,1
w812089FS,k4ls0net7v,Nick_Dissertation_EX1,1,185,2020-07-13T17:27:08-07:00,3.9421610832214,2,versionA_stim.csv,READVersionB.csv,"Read Version B","Dissertation, read only version B",BLOW,WIND,Study1,S,55,11,Study,User,-,,Study/JOL,"Study Phase2",3645,,,-1,-1,,,,1
w812089FS,k4ls0net7v,Nick_Dissertation_EX1,1,186,2020-07-13T17:27:10-07:00,2.4467959403992,2,versionA_stim.csv,READVersionB.csv,"Read Version B","Dissertation, read only version B",BABY,CHILD,Study1,S,64,10,Study,User,-,,Study/JOL,"Study Phase2",2193,,,-1,-1,,,,1
w812089FS,k4ls0net7v,Nick_Dissertation_EX1,1,187,2020-07-13T17:27:17-07:00,6.5373649597168,2,versionA_stim.csv,READVersionB.csv,"Read Version B","Dissertation, read only version B",DRINK,SIP,Study1,B,27,43,Study,User,-,,Study/JOL,"Study Phase2",6276,,,-1,-1,,,,1
w812089FS,k4ls0net7v,Nick_Dissertation_EX1,1,188,2020-07-13T17:27:18-07:00,1.5361821651459,2,versionA_stim.csv,READVersionB.csv,"Read Version B","Dissertation, read only version B",SWAN,BIRD,Study1,F,14,49,Study,User,-,,Study/JOL,"Study Phase2",1283,,,-1,-1,,,,1
w812089FS,k4ls0net7v,Nick_Dissertation_EX1,1,189,2020-07-13T17:27:20-07:00,2.0807168483734,2,versionA_stim.csv,READVersionB.csv,"Read Version B","Dissertation, read only version B",VALLEY,ADD,Study1,U,82,22,Study,User,-,,Study/JOL,"Study Phase2",1826,,,-1,-1,,,,1
w812089FS,k4ls0net7v,Nick_Dissertation_EX1,1,190,2020-07-13T17:27:23-07:00,2.8974530696869,2,versionA_stim.csv,READVersionB.csv,"Read Version B","Dissertation, read only version B",EDITOR,NEWS,Study1,F,10,80,Study,User,-,,Study/JOL,"Study Phase2",2541,,,-1,-1,,,,1
w812089FS,k4ls0net7v,Nick_Dissertation_EX1,1,191,2020-07-13T17:27:25-07:00,2.2861230373383,2,versionA_stim.csv,READVersionB.csv,"Read Version B","Dissertation, read only version B",BALL,RACKET,Study1,B,38,72,Study,User,-,,Study/JOL,"Study Phase2",2026,,,-1,-1,,,,1
w812089FS,k4ls0net7v,Nick_Dissertation_EX1,1,192,2020-07-13T17:27:28-07:00,2.081316947937,2,versionA_stim.csv,READVersionB.csv,"Read Version B","Dissertation, read only version B",BEGIN,END,Study1,S,54,27,Study,User,-,,Study/JOL,"Study Phase2",1840,,,-1,-1,,,,1
w812089FS,k4ls0net7v,Nick_Dissertation_EX1,1,193,2020-07-13T17:27:30-07:00,2.2601470947266,2,versionA_stim.csv,READVersionB.csv,"Read Version B","Dissertation, read only version B",GREAT,FANTASTIC,Study1,B,35,48,Study,User,-,,Study/JOL,"Study Phase2",1950,,,-1,-1,,,,1
w812089FS,k4ls0net7v,Nick_Dissertation_EX1,1,194,2020-07-13T17:27:32-07:00,2.4050769805908,2,versionA_stim.csv,READVersionB.csv,"Read Version B","Dissertation, read only version B",DEBATE,SIGHT,Study1,U,73,41,Study,User,-,,Study/JOL,"Study Phase2",2128,,,-1,-1,,,,1
w812089FS,k4ls0net7v,Nick_Dissertation_EX1,1,195,2020-07-13T17:27:34-07:00,1.7655799388885,2,versionA_stim.csv,READVersionB.csv,"Read Version B","Dissertation, read only version B",HONEY,BEE,Study1,S,63,34,Study,User,-,,Study/JOL,"Study Phase2",1495,,,-1,-1,,,,1
w812089FS,k4ls0net7v,Nick_Dissertation_EX1,1,196,2020-07-13T17:27:37-07:00,3.0530319213867,2,versionA_stim.csv,READVersionB.csv,"Read Version B","Dissertation, read only version B",BATHROOM,TOILET,Study1,S,58,47,Study,User,-,,Study/JOL,"Study Phase2",2780,,,-1,-1,,,,1
w812089FS,k4ls0net7v,Nick_Dissertation_EX1,1,197,2020-07-13T17:27:39-07:00,1.6342580318451,2,versionA_stim.csv,READVersionB.csv,"Read Version B","Dissertation, read only version B",HYGIENE,CLEAN,Study1,F,17,79,Study,User,-,,Study/JOL,"Study Phase2",1385,,,-1,-1,,,,1
w812089FS,k4ls0net7v,Nick_Dissertation_EX1,1,198,2020-07-13T17:27:40-07:00,1.5674221515656,2,versionA_stim.csv,READVersionB.csv,"Read Version B","Dissertation, read only version B",POP,SODA,Study1,S,56,31,Study,User,-,,Study/JOL,"Study Phase2",1307,,,-1,-1,,,,1
w812089FS,k4ls0net7v,Nick_Dissertation_EX1,1,199,2020-07-13T17:27:42-07:00,2.1790189743042,2,versionA_stim.csv,READVersionB.csv,"Read Version B","Dissertation, read only version B",DIGESTION,STOMACH,Study1,F,7,59,Study,User,-,,Study/JOL,"Study Phase2",1927,,,-1,-1,,,,1
w812089FS,k4ls0net7v,Nick_Dissertation_EX1,1,200,2020-07-13T17:27:44-07:00,1.6176769733429,2,versionA_stim.csv,READVersionB.csv,"Read Version B","Dissertation, read only version B",DUE,ASSIGNMENT,Study1,S,46,68,Study,User,-,,Study/JOL,"Study Phase2",1353,,,-1,-1,,,,1
w812089FS,k4ls0net7v,Nick_Dissertation_EX1,1,201,2020-07-13T17:27:46-07:00,2.0839560031891,2,versionA_stim.csv,READVersionB.csv,"Read Version B","Dissertation, read only version B",HERD,COW,Study1,F,22,28,Study,User,-,,Study/JOL,"Study Phase2",1832,,,-1,-1,,,,1
w812089FS,k4ls0net7v,Nick_Dissertation_EX1,1,202,2020-07-13T17:27:49-07:00,3.2184779644012,2,versionA_stim.csv,READVersionB.csv,"Read Version B","Dissertation, read only version B",HORNET,STING,Study1,F,11,52,Study,User,-,,Study/JOL,"Study Phase2",2942,,,-1,-1,,,,1
w812089FS,k4ls0net7v,Nick_Dissertation_EX1,1,203,2020-07-13T17:27:51-07:00,1.7040779590607,2,versionA_stim.csv,READVersionB.csv,"Read Version B","Dissertation, read only version B",DELINQUENT,BAD,Study1,F,6,76,Study,User,-,,Study/JOL,"Study Phase2",1471,,,-1,-1,,,,1
w812089FS,k4ls0net7v,Nick_Dissertation_EX1,1,204,2020-07-13T17:27:53-07:00,1.7112290859222,2,versionA_stim.csv,READVersionB.csv,"Read Version B","Dissertation, read only version B",WAY,OUT,Study1,F,16,61,Study,User,-,,Study/JOL,"Study Phase2",1391,,,-1,-1,,,,1
w812089FS,k4ls0net7v,Nick_Dissertation_EX1,1,205,2020-07-13T17:27:56-07:00,2.9173769950867,2,versionA_stim.csv,READVersionB.csv,"Read Version B","Dissertation, read only version B",HOT,CHILI,Study1,B,37,70,Study,User,-,,Study/JOL,"Study Phase2",2630,,,-1,-1,,,,1
w812089FS,k4ls0net7v,Nick_Dissertation_EX1,1,206,2020-07-13T17:27:57-07:00,1.5530099868774,2,versionA_stim.csv,READVersionB.csv,"Read Version B","Dissertation, read only version B",HAPPY,CAR,Study1,U,77,33,Study,User,-,,Study/JOL,"Study Phase2",1277,,,-1,-1,,,,1
w812089FS,k4ls0net7v,Nick_Dissertation_EX1,1,207,2020-07-13T17:27:59-07:00,1.6863219738007,2,versionA_stim.csv,READVersionB.csv,"Read Version B","Dissertation, read only version B",FIRE,BLAZE,Study1,B,45,54,Study,User,-,,Study/JOL,"Study Phase2",1422,,,-1,-1,,,,1
w812089FS,k4ls0net7v,Nick_Dissertation_EX1,1,208,2020-07-13T17:28:02-07:00,3.1203169822693,2,versionA_stim.csv,READVersionB.csv,"Read Version B","Dissertation, read only version B",TRIAL,JURY,Study1,S,50,32,Study,User,-,,Study/JOL,"Study Phase2",2846,,,-1,-1,,,,1
w812089FS,k4ls0net7v,Nick_Dissertation_EX1,1,209,2020-07-13T17:28:04-07:00,1.5243818759918,2,versionA_stim.csv,READVersionB.csv,"Read Version B","Dissertation, read only version B",PARK,HUNGRY,Study1,U,68,64,Study,User,-,,Study/JOL,"Study Phase2",1267,,,-1,-1,,,,1
w812089FS,k4ls0net7v,Nick_Dissertation_EX1,1,210,2020-07-13T17:28:05-07:00,1.4935672283173,2,versionA_stim.csv,READVersionB.csv,"Read Version B","Dissertation, read only version B",HIDE,SICK,Study1,U,84,44,Study,User,-,,Study/JOL,"Study Phase2",1219,,,-1,-1,,,,1
w812089FS,k4ls0net7v,Nick_Dissertation_EX1,1,211,2020-07-13T17:28:11-07:00,5.5608987808228,2,versionA_stim.csv,READVersionB.csv,"Read Version B","Dissertation, read only version B",WAGE,MONEY,Study1,F,8,73,Study,User,-,,Study/JOL,"Study Phase2",5290,,,-1,-1,,,,1
w812089FS,k4ls0net7v,Nick_Dissertation_EX1,1,212,2020-07-13T17:28:15-07:00,4.0009891986847,2,versionA_stim.csv,READVersionB.csv,"Read Version B","Dissertation, read only version B",SHOE,FOOT,Study1,S,60,83,Study,User,-,,Study/JOL,"Study Phase2",3715,,,-1,-1,,,,1
w812089FS,k4ls0net7v,Nick_Dissertation_EX1,1,213,2020-07-13T17:28:19-07:00,4.4850418567657,2,versionA_stim.csv,READVersionB.csv,"Read Version B","Dissertation, read only version B",BRIDGE,WATER,Study1,F,18,16,Study,User,-,,Study/JOL,"Study Phase2",4212,,,-1,-1,,,,1
w812089FS,k4ls0net7v,Nick_Dissertation_EX1,1,214,2020-07-13T17:28:28-07:00,8.4268729686737,2,versionA_stim.csv,READVersionB.csv,"Read Version B","Dissertation, read only version B",ART,LION,Study1,U,79,67,Study,User,-,,Study/JOL,"Study Phase2",8143,,,-1,-1,,,,1
w812089FS,k4ls0net7v,Nick_Dissertation_EX1,1,215,2020-07-13T17:28:32-07:00,4.2963991165161,2,versionA_stim.csv,READVersionB.csv,"Read Version B","Dissertation, read only version B",LETTUCE,SALAD,Study1,S,59,82,Study,User,-,,Study/JOL,"Study Phase2",4017,,,-1,-1,,,,1
w812089FS,k4ls0net7v,Nick_Dissertation_EX1,1,216,2020-07-13T17:28:35-07:00,3.4854459762573,2,versionA_stim.csv,READVersionB.csv,"Read Version B","Dissertation, read only version B",BUG,WASP,Study1,B,32,42,Study,User,-,,Study/JOL,"Study Phase2",3204,,,-1,-1,,,,1
w812089FS,k4ls0net7v,Nick_Dissertation_EX1,1,217,2020-07-13T17:28:37-07:00,2.0449559688568,2,versionA_stim.csv,READVersionB.csv,"Read Version B","Dissertation, read only version B",ROOT,PLANT,Study1,F,13,39,Study,User,-,,Study/JOL,"Study Phase2",1801,,,-1,-1,,,,1
w812089FS,k4ls0net7v,Nick_Dissertation_EX1,1,218,2020-07-13T17:28:39-07:00,1.3056581020355,2,versionA_stim.csv,READVersionB.csv,"Read Version B","Dissertation, read only version B",CIRCLE,ROUND,Study1,S,65,9,Study,User,-,,Study/JOL,"Study Phase2",1007,,,-1,-1,,,,1
w812089FS,k4ls0net7v,Nick_Dissertation_EX1,1,219,2020-07-13T17:28:44-07:00,5.5703048706055,2,versionA_stim.csv,READVersionB.csv,"Read Version B","Dissertation, read only version B",CASH,WOULD,Study1,U,83,15,Study,User,-,,Study/JOL,"Study Phase2",5290,,,-1,-1,,,,1
w812089FS,k4ls0net7v,Nick_Dissertation_EX1,1,220,2020-07-13T17:28:46-07:00,2.0731611251831,2,versionA_stim.csv,READVersionB.csv,"Read Version B","Dissertation, read only version B",CREDIT,CARD,Study1,F,23,74,Study,User,-,,Study/JOL,"Study Phase2",1811,,,-1,-1,,,,1
w812089FS,k4ls0net7v,Nick_Dissertation_EX1,1,221,2020-07-13T17:28:48-07:00,1.4767189025879,2,versionA_stim.csv,READVersionB.csv,"Read Version B","Dissertation, read only version B",KEY,LATCH,Study1,B,36,38,Study,User,-,,Study/JOL,"Study Phase2",1209,,,-1,-1,,,,1
w812089FS,k4ls0net7v,Nick_Dissertation_EX1,1,222,2020-07-13T17:28:50-07:00,2.3626160621643,2,versionA_stim.csv,READVersionB.csv,"Read Version B","Dissertation, read only version B",DARK,CAVE,Study1,B,28,13,Study,User,-,,Study/JOL,"Study Phase2",2072,,,-1,-1,,,,1
w812089FS,k4ls0net7v,Nick_Dissertation_EX1,1,223,2020-07-13T17:28:55-07:00,4.9625639915466,2,versionA_stim.csv,READVersionB.csv,"Read Version B","Dissertation, read only version B",CHISEL,HAMMER,Study1,F,9,53,Study,User,-,,Study/JOL,"Study Phase2",4697,,,-1,-1,,,,1
w812089FS,k4ls0net7v,Nick_Dissertation_EX1,1,224,2020-07-13T17:28:57-07:00,1.6313579082489,2,versionA_stim.csv,READVersionB.csv,"Read Version B","Dissertation, read only version B",BITTER,COLD,Study1,F,12,14,Study,User,-,,Study/JOL,"Study Phase2",1384,,,-1,-1,,,,1
w812089FS,k4ls0net7v,Nick_Dissertation_EX1,1,225,2020-07-13T17:28:58-07:00,1.7329449653625,2,versionA_stim.csv,READVersionB.csv,"Read Version B","Dissertation, read only version B",SENTENCE,WORD,Study1,B,31,7,Study,User,-,,Study/JOL,"Study Phase2",1464,,,-1,-1,,,,1
w812089FS,k4ls0net7v,Nick_Dissertation_EX1,1,226,2020-07-13T17:29:01-07:00,2.4582750797272,2,versionA_stim.csv,READVersionB.csv,"Read Version B","Dissertation, read only version B",DISCUSSION,TALK,Study1,F,21,35,Study,User,-,,Study/JOL,"Study Phase2",2164,,,-1,-1,,,,1
w812089FS,k4ls0net7v,Nick_Dissertation_EX1,1,227,2020-07-13T17:29:04-07:00,3.0674920082092,2,versionA_stim.csv,READVersionB.csv,"Read Version B","Dissertation, read only version B",SMELL,STENCH,Study1,B,42,78,Study,User,-,,Study/JOL,"Study Phase2",2799,,,-1,-1,,,,1
w812089FS,k4ls0net7v,Nick_Dissertation_EX1,1,228,2020-07-13T17:29:06-07:00,2.058758020401,2,versionA_stim.csv,READVersionB.csv,"Read Version B","Dissertation, read only version B",MATH,DIVISION,Study1,B,33,45,Study,User,-,,Study/JOL,"Study Phase2",1773,,,-1,-1,,,,1
w812089FS,k4ls0net7v,Nick_Dissertation_EX1,1,229,2020-07-13T17:29:09-07:00,3.2178909778595,2,versionA_stim.csv,READVersionB.csv,"Read Version B","Dissertation, read only version B",WORK,CHORE,Study1,B,39,81,Study,User,-,,Study/JOL,"Study Phase2",2957,,,-1,-1,,,,1
w812089FS,k4ls0net7v,Nick_Dissertation_EX1,1,230,2020-07-13T17:29:13-07:00,3.3455719947815,2,versionA_stim.csv,READVersionB.csv,"Read Version B","Dissertation, read only version B",SOON,BELT,Study1,U,70,46,Study,User,-,,Study/JOL,"Study Phase2",3066,,,-1,-1,,,,1
w812089FS,k4ls0net7v,Nick_Dissertation_EX1,1,231,2020-07-13T17:29:15-07:00,2.0337979793549,2,versionA_stim.csv,READVersionB.csv,"Read Version B","Dissertation, read only version B",REVOLUTION,WAR,Study1,F,20,37,Study,User,-,,Study/JOL,"Study Phase2",1747,,,-1,-1,,,,1
w812089FS,k4ls0net7v,Nick_Dissertation_EX1,1,232,2020-07-13T17:29:17-07:00,2.2644410133362,2,versionA_stim.csv,READVersionB.csv,"Read Version B","Dissertation, read only version B",PAW,DOG,Study1,F,15,77,Study,User,-,,Study/JOL,"Study Phase2",1972,,,-1,-1,,,,1
w812089FS,k4ls0net7v,Nick_Dissertation_EX1,1,233,2020-07-13T17:29:19-07:00,2.5368640422821,2,versionA_stim.csv,READVersionB.csv,"Read Version B","Dissertation, read only version B",SLEEP,DROWSY,Study1,B,41,66,Study,User,-,,Study/JOL,"Study Phase2",2224,,,-1,-1,,,,1
w812089FS,k4ls0net7v,Nick_Dissertation_EX1,1,234,2020-07-13T17:29:21-07:00,1.9023408889771,2,versionA_stim.csv,READVersionB.csv,"Read Version B","Dissertation, read only version B",ALLOW,TUCK,Study1,U,78,62,Study,User,-,,Study/JOL,"Study Phase2",1664,,,-1,-1,,,,1
w812089FS,k4ls0net7v,Nick_Dissertation_EX1,1,235,2020-07-13T17:29:24-07:00,2.5493550300598,2,versionA_stim.csv,READVersionB.csv,"Read Version B","Dissertation, read only version B",ARCHITECTURE,DESIGN,Study1,S,51,20,Study,User,-,,Study/JOL,"Study Phase2",2141,,,-1,-1,,,,1
w812089FS,k4ls0net7v,Nick_Dissertation_EX1,1,236,2020-07-13T17:29:52-07:00,28.024480104446,2,versionA_stim.csv,READVersionB.csv,"Read Version B","Dissertation, read only version B",FULL,ENOUGH,Study1,B,26,55,Study,User,-,,Study/JOL,"Study Phase2",2957,,,-1,-1,,,,1
w812089FS,k4ls0net7v,Nick_Dissertation_EX1,1,237,2020-07-13T17:29:53-07:00,1.167466878891,2,versionA_stim.csv,READVersionB.csv,"Read Version B","Dissertation, read only version B",WINE,CHEESE,Study1,S,57,58,Study,User,-,,Study/JOL,"Study Phase2",896,,,-1,-1,,,,1
w812089FS,k4ls0net7v,Nick_Dissertation_EX1,1,238,2020-07-13T17:29:55-07:00,1.5205919742584,2,versionA_stim.csv,READVersionB.csv,"Read Version B","Dissertation, read only version B",ARTERY,BRONZE,Study1,U,74,19,Study,User,-,,Study/JOL,"Study Phase2",1272,,,-1,-1,,,,1
w812089FS,k4ls0net7v,Nick_Dissertation_EX1,1,239,2020-07-13T17:29:56-07:00,1.6467781066895,2,versionA_stim.csv,READVersionB.csv,"Read Version B","Dissertation, read only version B",PLANE,PILOT,Study1,B,44,60,Study,User,-,,Study/JOL,"Study Phase2",1391,,,-1,-1,,,,1
w812089FS,k4ls0net7v,Nick_Dissertation_EX1,1,240,2020-07-13T17:29:59-07:00,3.1259028911591,2,versionA_stim.csv,READVersionB.csv,"Read Version B","Dissertation, read only version B",MEANING,DEFINITION,Study1,S,62,50,Study,User,-,,Study/JOL,"Study Phase2",2797,,,-1,-1,,,,1
w812089FS,k4ls0net7v,Nick_Dissertation_EX1,1,241,2020-07-13T17:30:02-07:00,2.5405139923096,2,versionA_stim.csv,READVersionB.csv,"Read Version B","Dissertation, read only version B",NUMBER,AMOUNT,Study1,S,47,56,Study,User,-,,Study/JOL,"Study Phase2",2203,,,-1,-1,,,,1
w812089FS,k4ls0net7v,Nick_Dissertation_EX1,1,242,2020-07-13T17:30:04-07:00,2.108855009079,2,versionA_stim.csv,READVersionB.csv,"Read Version B","Dissertation, read only version B",PUSHER,CLUTTER,Study1,U,66,65,Study,User,-,,Study/JOL,"Study Phase2",1802,,,-1,-1,,,,1
w812089FS,k4ls0net7v,Nick_Dissertation_EX1,1,243,2020-07-13T17:30:10-07:00,5.7469940185547,2,versionA_stim.csv,READVersionB.csv,"Read Version B","Dissertation, read only version B",DISCOVER,FLOOR,Study1,U,71,24,Study,User,-,,Study/JOL,"Study Phase2",5350,,,-1,-1,,,,1
w812089FS,k4ls0net7v,Nick_Dissertation_EX1,1,244,2020-07-13T17:30:12-07:00,2.6127960681915,2,versionA_stim.csv,READVersionB.csv,"Read Version B","Dissertation, read only version B",DEATH,BUSINESS,Study1,U,72,75,Study,User,-,,Study/JOL,"Study Phase2",2341,,,-1,-1,,,,1
w812089FS,k4ls0net7v,Nick_Dissertation_EX1,1,245,2020-07-13T17:30:14-07:00,1.3598110675812,2,versionA_stim.csv,READVersionB.csv,"Read Version B","Dissertation, read only version B",TUNA,FISH,Study1,F,25,84,Study,User,-,,Study/JOL,"Study Phase2",1084,,,-1,-1,,,,1
w812089FS,k4ls0net7v,Nick_Dissertation_EX1,1,246,2020-07-13T17:30:15-07:00,1.5045249462128,2,versionA_stim.csv,READVersionB.csv,"Read Version B","Dissertation, read only version B",HUNGER,FAMINE,Study1,B,40,86,Study,User,-,,Study/JOL,"Study Phase2",1246,,,-1,-1,,,,1
w812089FS,k4ls0net7v,Nick_Dissertation_EX1,1,247,2020-07-13T17:30:17-07:00,1.6374490261078,2,versionA_stim.csv,READVersionB.csv,"Read Version B","Dissertation, read only version B",ORCHID,FLOWER,Study1,F,24,57,Study,User,-,,Study/JOL,"Study Phase2",1383,,,-1,-1,,,,1
w812089FS,k4ls0net7v,Nick_Dissertation_EX1,1,248,2020-07-13T17:30:18-07:00,1.5040428638458,2,versionA_stim.csv,READVersionB.csv,"Read Version B","Dissertation, read only version B",TAKE,SEIZE,Study1,B,29,63,Study,User,-,,Study/JOL,"Study Phase2",1118,,,-1,-1,,,,1
w812089FS,k4ls0net7v,Nick_Dissertation_EX1,1,249,2020-07-13T17:30:20-07:00,1.6164860725403,2,versionA_stim.csv,READVersionB.csv,"Read Version B","Dissertation, read only version B",FIX,HAND,Study1,U,75,26,Study,User,-,,Study/JOL,"Study Phase2",1333,,,-1,-1,,,,1
w812089FS,k4ls0net7v,Nick_Dissertation_EX1,1,250,2020-07-13T17:30:22-07:00,2.4085259437561,2,versionA_stim.csv,READVersionB.csv,"Read Version B","Dissertation, read only version B",GRILL,BAR,Study1,S,52,12,Study,User,-,,Study/JOL,"Study Phase2",2121,,,-1,-1,,,,1
w812089FS,k4ls0net7v,Nick_Dissertation_EX1,1,251,2020-07-13T17:30:24-07:00,1.4959771633148,2,versionA_stim.csv,READVersionB.csv,"Read Version B","Dissertation, read only version B",KIDNEY,LIVER,Study1,S,53,8,Study,User,-,,Study/JOL,"Study Phase2",1235,,,-1,-1,,,,1
w812089FS,k4ls0net7v,Nick_Dissertation_EX1,1,252,2020-07-13T17:30:26-07:00,1.7754418849945,2,versionA_stim.csv,READVersionB.csv,"Read Version B","Dissertation, read only version B",HEIGHT,GROWTH,Study1,B,30,51,Study,User,-,,Study/JOL,"Study Phase2",1502,,,-1,-1,,,,1
w812089FS,k4ls0net7v,Nick_Dissertation_EX1,1,253,2020-07-13T17:30:29-07:00,2.951532125473,2,versionA_stim.csv,READVersionB.csv,"Read Version B","Dissertation, read only version B",DIETARY,SACKING,Study1,U,67,17,Study,User,-,,Study/JOL,"Study Phase2",2689,,,-1,-1,,,,1
w812089FS,k4ls0net7v,Nick_Dissertation_EX1,1,254,2020-07-13T17:30:31-07:00,2.3717420101166,2,versionA_stim.csv,READVersionB.csv,"Read Version B","Dissertation, read only version B",MACHINE,POSITION,Study1,U,76,36,Study,User,-,,Study/JOL,"Study Phase2",2097,,,-1,-1,,,,1
w812089FS,k4ls0net7v,Nick_Dissertation_EX1,1,255,2020-07-13T17:30:32-07:00,1.2723529338837,2,versionA_stim.csv,READVersionB.csv,"Read Version B","Dissertation, read only version B",CLOTHES,ATTIRE,Study1,B,43,85,Study,User,-,,Study/JOL,"Study Phase2",1004,,,-1,-1,,,,1
w812089FS,k4ls0net7v,Nick_Dissertation_EX1,1,256,2020-07-13T17:30:35-07:00,2.6460728645325,2,versionA_stim.csv,READVersionB.csv,"Read Version B","Dissertation, read only version B",KING,VASE,Study1,U,85,21,Study,User,-,,Study/JOL,"Study Phase2",2369,,,-1,-1,,,,1
w812089FS,k4ls0net7v,Nick_Dissertation_EX1,1,257,2020-07-13T17:30:38-07:00,2.8958241939545,2,versionA_stim.csv,READVersionB.csv,"Read Version B","Dissertation, read only version B",STRONG,ACCIDENT,Study1,U,80,29,Study,User,-,,Study/JOL,"Study Phase2",2539,,,-1,-1,,,,1
w812089FS,k4ls0net7v,Nick_Dissertation_EX1,1,258,2020-07-13T17:30:39-07:00,1.6351318359375,2,versionA_stim.csv,READVersionB.csv,"Read Version B","Dissertation, read only version B",LOCATION,SITE,Study1,S,48,18,Study,User,-,,Study/JOL,"Study Phase2",1337,,,-1,-1,,,,1
w812089FS,k4ls0net7v,Nick_Dissertation_EX1,1,259,2020-07-13T17:30:41-07:00,1.7631831169128,2,versionA_stim.csv,READVersionB.csv,"Read Version B","Dissertation, read only version B",LIFT,WOMAN,Study1,U,69,23,Study,User,-,,Study/JOL,"Study Phase2",1498,,,-1,-1,,,,1
w812089FS,k4ls0net7v,Nick_Dissertation_EX1,1,260,2020-07-13T17:30:44-07:00,2.6018948554993,2,versionA_stim.csv,READVersionB.csv,"Read Version B","Dissertation, read only version B",DUMP,WASTE,Study1,S,49,30,Study,User,-,,Study/JOL,"Study Phase2",2249,,,-1,-1,,,,1
w812089FS,k4ls0net7v,Nick_Dissertation_EX1,1,261,2020-07-13T17:31:22-07:00,37.703581094742,2,versionA_stim.csv,READVersionB.csv,"Read Version B","Dissertation, read only version B",SHERRIF,POLICE,BUFFER2,Buffer,87,87,Study,User,-,,Study/JOL,BUFFER4,3141,,,-1,-1,,,,1
w812089FS,k4ls0net7v,Nick_Dissertation_EX1,1,262,2020-07-13T17:31:23-07:00,1.4988861083984,2,versionA_stim.csv,READVersionB.csv,"Read Version B","Dissertation, read only version B",THING,STUFF,BUFFER2,Buffer,90,90,Study,User,-,,Study/JOL,BUFFER4,1240,,,-1,-1,,,,1
w812089FS,k4ls0net7v,Nick_Dissertation_EX1,1,263,2020-07-13T17:31:24-07:00,1.2263460159302,2,versionA_stim.csv,READVersionB.csv,"Read Version B","Dissertation, read only version B",MALT,CHOCOLATE,BUFFER2,Buffer,88,88,Study,User,-,,Study/JOL,BUFFER4,922,,,-1,-1,,,,1
w812089FS,k4ls0net7v,Nick_Dissertation_EX1,1,264,2020-07-13T17:31:25-07:00,1.1251637935638,2,versionA_stim.csv,READVersionB.csv,"Read Version B","Dissertation, read only version B",MOON,SPACE,BUFFER2,Buffer,89,91,Study,User,-,,Study/JOL,BUFFER4,872,,,-1,-1,,,,1
w812089FS,k4ls0net7v,Nick_Dissertation_EX1,1,265,2020-07-13T17:31:27-07:00,1.1244130134583,2,versionA_stim.csv,READVersionB.csv,"Read Version B","Dissertation, read only version B",GEESE,GOOSE,BUFFER2,Buffer,86,89,Study,User,-,,Study/JOL,BUFFER4,862,,,-1,-1,,,,1
w812089FS,k4ls0net7v,Nick_Dissertation_EX1,1,266,2020-07-13T17:31:31-07:00,3.9936790466309,2,versionA_stim.csv,READVersionB.csv,"Read Version B","Dissertation, read only version B",,,,,,0,Instruct,User,-,"You have completed this section. Please press Enter.",Filler_Instruction,Instruct5,3732,,,-1,-1,,,,1
w812089FS,k4ls0net7v,Nick_Dissertation_EX1,1,267,2020-07-13T17:33:31-07:00,120.44607114792,2,versionA_stim.csv,READVersionB.csv,"Read Version B","Dissertation, read only version B",,,,,,0,FreeRecall,120,120,"Please list the 50 US states in reverse alphabetical order (z - a). The task will automatically advance to the next screen after two minutes.",,Filler2,120007,"Wyoming Wisconsin West Virginia Virginia Vermont Utah Texas South Dakota South Carolina Rhode Island Pennslyvania Ohio North Dakota ",0,24357,119444,0,0,,1
w812089FS,k4ls0net7v,Nick_Dissertation_EX1,1,268,2020-07-13T17:33:51-07:00,19.994455814362,2,versionA_stim.csv,READVersionB.csv,"Read Version B","Dissertation, read only version B",,,,,,0,Instruct,-,10,"You will now be presented with the first word from each of the previously studied item pairs. Please type the missing word. If you do not know the word, you may guess or press Enter to skip forward to the next pair.",,Instruct6,19650,,,-1,-1,,,,1
w812089FS,k4ls0net7v,Nick_Dissertation_EX1,1,269,2020-07-13T17:33:55-07:00,4.4269721508026,2,versionA_stim.csv,READVersionB.csv,"Read Version B","Dissertation, read only version B",CASH,WOULD,Study1,U,83,15,Test,User,-,,Recall,Recall2,3722,money,20,2733,3427,0,0,,1
w812089FS,k4ls0net7v,Nick_Dissertation_EX1,1,270,2020-07-13T17:33:58-07:00,2.2929890155792,2,versionA_stim.csv,READVersionB.csv,"Read Version B","Dissertation, read only version B",EDITOR,NEWS,Study1,F,10,80,Test,User,-,,Recall,Recall2,2032,news,100,1096,1817,1,1,,1
w812089FS,k4ls0net7v,Nick_Dissertation_EX1,1,271,2020-07-13T17:34:03-07:00,5.0352849960327,2,versionA_stim.csv,READVersionB.csv,"Read Version B","Dissertation, read only version B",TAKE,SEIZE,Study1,B,29,63,Test,User,-,,Recall,Recall2,4757,out,0,3871,4398,0,0,,1
w812089FS,k4ls0net7v,Nick_Dissertation_EX1,1,272,2020-07-13T17:34:06-07:00,3.2440028190613,2,versionA_stim.csv,READVersionB.csv,"Read Version B","Dissertation, read only version B",WORK,CHORE,Study1,B,39,81,Test,User,-,,Recall,Recall2,2967,hard,44.444444444444,1944,2823,0,0,,1
w812089FS,k4ls0net7v,Nick_Dissertation_EX1,1,273,2020-07-13T17:34:16-07:00,9.7704260349274,2,versionA_stim.csv,READVersionB.csv,"Read Version B","Dissertation, read only version B",FULL,ENOUGH,Study1,B,26,55,Test,User,-,,Recall,Recall2,9490,head,20,8500,9307,0,0,,1
w812089FS,k4ls0net7v,Nick_Dissertation_EX1,1,274,2020-07-13T17:34:18-07:00,2.0472221374512,2,versionA_stim.csv,READVersionB.csv,"Read Version B","Dissertation, read only version B",KIDNEY,LIVER,Study1,S,53,8,Test,User,-,,Recall,Recall2,1775,liver,100,913,1552,1,1,,1
w812089FS,k4ls0net7v,Nick_Dissertation_EX1,1,275,2020-07-13T17:34:20-07:00,2.5926198959351,2,versionA_stim.csv,READVersionB.csv,"Read Version B","Dissertation, read only version B",DUMP,WASTE,Study1,S,49,30,Test,User,-,,Recall,Recall2,2322,truck,20,1260,2044,0,0,,1
w812089FS,k4ls0net7v,Nick_Dissertation_EX1,1,276,2020-07-13T17:34:25-07:00,4.923828125,2,versionA_stim.csv,READVersionB.csv,"Read Version B","Dissertation, read only version B",GRILL,BAR,Study1,S,52,12,Test,User,-,,Recall,Recall2,4655,cheese,0,3032,4495,0,0,,1
w812089FS,k4ls0net7v,Nick_Dissertation_EX1,1,277,2020-07-13T17:34:28-07:00,2.7623038291931,2,versionA_stim.csv,READVersionB.csv,"Read Version B","Dissertation, read only version B",ORCHID,FLOWER,Study1,F,24,57,Test,User,-,,Recall,Recall2,2470,flower,100,1400,2239,1,1,,1
w812089FS,k4ls0net7v,Nick_Dissertation_EX1,1,278,2020-07-13T17:34:31-07:00,2.6376931667328,2,versionA_stim.csv,READVersionB.csv,"Read Version B","Dissertation, read only version B",HEIGHT,GROWTH,Study1,B,30,51,Test,User,-,,Recall,Recall2,2357,growth,100,1143,2110,1,1,,1
w812089FS,k4ls0net7v,Nick_Dissertation_EX1,1,279,2020-07-13T17:34:34-07:00,3.2215669155121,2,versionA_stim.csv,READVersionB.csv,"Read Version B","Dissertation, read only version B",BLOW,WIND,Study1,S,55,11,Test,User,-,,Recall,Recall2,2915,fish,25,2117,2648,0,0,,1
w812089FS,k4ls0net7v,Nick_Dissertation_EX1,1,280,2020-07-13T17:34:36-07:00,2.380068063736,2,versionA_stim.csv,READVersionB.csv,"Read Version B","Dissertation, read only version B",HOT,CHILI,Study1,B,37,70,Test,User,-,,Recall,Recall2,2094,chili,100,1088,1815,1,1,,1
w812089FS,k4ls0net7v,Nick_Dissertation_EX1,1,281,2020-07-13T17:34:42-07:00,5.7846868038177,2,versionA_stim.csv,READVersionB.csv,"Read Version B","Dissertation, read only version B",PAW,DOG,Study1,F,15,77,Test,User,-,,Recall,Recall2,5531,dog,100,4941,5252,1,1,,1
w812089FS,k4ls0net7v,Nick_Dissertation_EX1,1,282,2020-07-13T17:34:49-07:00,6.764885187149,2,versionA_stim.csv,READVersionB.csv,"Read Version B","Dissertation, read only version B",STRONG,ACCIDENT,Study1,U,80,29,Test,User,-,,Recall,Recall2,6328,hand,33.333333333333,5242,6064,0,0,,1
w812089FS,k4ls0net7v,Nick_Dissertation_EX1,1,283,2020-07-13T17:34:52-07:00,3.4085059165955,2,versionA_stim.csv,READVersionB.csv,"Read Version B","Dissertation, read only version B",LETTUCE,SALAD,Study1,S,59,82,Test,User,-,,Recall,Recall2,3174,salad,100,1824,2959,1,1,,1
w812089FS,k4ls0net7v,Nick_Dissertation_EX1,1,284,2020-07-13T17:35:00-07:00,7.7115910053253,2,versionA_stim.csv,READVersionB.csv,"Read Version B","Dissertation, read only version B",SLEEP,DROWSY,Study1,B,41,66,Test,User,-,,Recall,Recall2,7412,,0,-1,-1,0,0,,1
w812089FS,k4ls0net7v,Nick_Dissertation_EX1,1,285,2020-07-13T17:35:06-07:00,5.9361839294434,2,versionA_stim.csv,READVersionB.csv,"Read Version B","Dissertation, read only version B",SENTENCE,WORD,Study1,B,31,7,Test,User,-,,Recall,Recall2,5653,word,100,4247,4950,1,1,,1
w812089FS,k4ls0net7v,Nick_Dissertation_EX1,1,286,2020-07-13T17:35:11-07:00,4.8192911148071,2,versionA_stim.csv,READVersionB.csv,"Read Version B","Dissertation, read only version B",REVOLUTION,WAR,Study1,F,20,37,Test,User,-,,Recall,Recall2,4505,war,100,1675,2057,1,1,,1
w812089FS,k4ls0net7v,Nick_Dissertation_EX1,1,287,2020-07-13T17:35:16-07:00,5.0317928791046,2,versionA_stim.csv,READVersionB.csv,"Read Version B","Dissertation, read only version B",DEATH,BUSINESS,Study1,U,72,75,Test,User,-,,Recall,Recall2,4755,life,33.333333333333,3205,4596,0,0,,1
w812089FS,k4ls0net7v,Nick_Dissertation_EX1,1,288,2020-07-13T17:35:20-07:00,3.8074421882629,2,versionA_stim.csv,READVersionB.csv,"Read Version B","Dissertation, read only version B",SWAN,BIRD,Study1,F,14,49,Test,User,-,,Recall,Recall2,3032,bird,100,2186,2849,1,1,,1
w812089FS,k4ls0net7v,Nick_Dissertation_EX1,1,289,2020-07-13T17:35:23-07:00,3.0308628082275,2,versionA_stim.csv,READVersionB.csv,"Read Version B","Dissertation, read only version B",BITTER,COLD,Study1,F,12,14,Test,User,-,,Recall,Recall2,2750,cold,100,2000,2455,1,1,,1
w812089FS,k4ls0net7v,Nick_Dissertation_EX1,1,290,2020-07-13T17:35:26-07:00,3.1579849720001,2,versionA_stim.csv,READVersionB.csv,"Read Version B","Dissertation, read only version B",CLOTHES,ATTIRE,Study1,B,43,85,Test,User,-,,Recall,Recall2,2809,on,0,2346,2554,0,0,,1
w812089FS,k4ls0net7v,Nick_Dissertation_EX1,1,291,2020-07-13T17:35:52-07:00,26.302018165588,2,versionA_stim.csv,READVersionB.csv,"Read Version B","Dissertation, read only version B",MATH,DIVISION,Study1,B,33,45,Test,User,-,,Recall,Recall2,5161,problem,13.333333333333,3891,4898,0,0,,1
w812089FS,k4ls0net7v,Nick_Dissertation_EX1,1,292,2020-07-13T17:35:55-07:00,2.9901099205017,2,versionA_stim.csv,READVersionB.csv,"Read Version B","Dissertation, read only version B",DARK,CAVE,Study1,B,28,13,Test,User,-,,Recall,Recall2,2746,cave,100,2060,2539,1,1,,1
w812089FS,k4ls0net7v,Nick_Dissertation_EX1,1,293,2020-07-13T17:35:58-07:00,3.3672931194305,2,versionA_stim.csv,READVersionB.csv,"Read Version B","Dissertation, read only version B",CHISEL,HAMMER,Study1,F,9,53,Test,User,-,,Recall,Recall2,3060,art,44.444444444444,2494,2877,0,0,,1
w812089FS,k4ls0net7v,Nick_Dissertation_EX1,1,294,2020-07-13T17:36:03-07:00,4.8866608142853,2,versionA_stim.csv,READVersionB.csv,"Read Version B","Dissertation, read only version B",MACHINE,POSITION,Study1,U,76,36,Test,User,-,,Recall,Recall2,4535,cold,16.666666666667,3377,3832,0,0,,1
w812089FS,k4ls0net7v,Nick_Dissertation_EX1,1,295,2020-07-13T17:36:07-07:00,3.553719997406,2,versionA_stim.csv,READVersionB.csv,"Read Version B","Dissertation, read only version B",HORNET,STING,Study1,F,11,52,Test,User,-,,Recall,Recall2,3275,bee,0,2477,2892,0,0,,1
w812089FS,k4ls0net7v,Nick_Dissertation_EX1,1,296,2020-07-13T17:36:12-07:00,4.9531321525574,2,versionA_stim.csv,READVersionB.csv,"Read Version B","Dissertation, read only version B",CIRCLE,ROUND,Study1,S,65,9,Test,User,-,,Recall,Recall2,4610,around,90.909090909091,3572,4419,0,1,,1
w812089FS,k4ls0net7v,Nick_Dissertation_EX1,1,297,2020-07-13T17:36:15-07:00,3.0192320346832,2,versionA_stim.csv,READVersionB.csv,"Read Version B","Dissertation, read only version B",HYGIENE,CLEAN,Study1,F,17,79,Test,User,-,,Recall,Recall2,2745,clean,100,1851,2466,1,1,,1
w812089FS,k4ls0net7v,Nick_Dissertation_EX1,1,298,2020-07-13T17:36:18-07:00,3.6696588993073,2,versionA_stim.csv,READVersionB.csv,"Read Version B","Dissertation, read only version B",GREAT,FANTASTIC,Study1,B,35,48,Test,User,-,,Recall,Recall2,3320,day,16.666666666667,2625,3049,0,0,,1
w812089FS,k4ls0net7v,Nick_Dissertation_EX1,1,299,2020-07-13T17:36:23-07:00,4.5704970359802,2,versionA_stim.csv,READVersionB.csv,"Read Version B","Dissertation, read only version B",HIDE,SICK,Study1,U,84,44,Test,User,-,,Recall,Recall2,4276,away,0,3126,3861,0,0,,1
w812089FS,k4ls0net7v,Nick_Dissertation_EX1,1,300,2020-07-13T17:36:26-07:00,2.6630430221558,2,versionA_stim.csv,READVersionB.csv,"Read Version B","Dissertation, read only version B",CREDIT,CARD,Study1,F,23,74,Test,User,-,,Recall,Recall2,2387,card,100,1589,2156,1,1,,1
w812089FS,k4ls0net7v,Nick_Dissertation_EX1,1,301,2020-07-13T17:36:31-07:00,5.4798319339752,2,versionA_stim.csv,READVersionB.csv,"Read Version B","Dissertation, read only version B",MEANING,DEFINITION,Study1,S,62,50,Test,User,-,,Recall,Recall2,5178,definition,100,3250,4899,1,1,,1
w812089FS,k4ls0net7v,Nick_Dissertation_EX1,1,302,2020-07-13T17:36:33-07:00,2.027841091156,2,versionA_stim.csv,READVersionB.csv,"Read Version B","Dissertation, read only version B",BRIDGE,WATER,Study1,F,18,16,Test,User,-,,Recall,Recall2,1749,water,100,951,1574,1,1,,1
w812089FS,k4ls0net7v,Nick_Dissertation_EX1,1,303,2020-07-13T17:36:44-07:00,11.281543970108,2,versionA_stim.csv,READVersionB.csv,"Read Version B","Dissertation, read only version B",PUSHER,CLUTTER,Study1,U,66,65,Test,User,-,,Recall,Recall2,10938,point,16.666666666667,9900,10723,0,0,,1
w812089FS,k4ls0net7v,Nick_Dissertation_EX1,1,304,2020-07-13T17:36:48-07:00,3.6914319992065,2,versionA_stim.csv,READVersionB.csv,"Read Version B","Dissertation, read only version B",LAW,ATTORNEY,Study1,B,34,69,Test,User,-,,Recall,Recall2,3410,attorney,100,1452,3114,1,1,,1
w812089FS,k4ls0net7v,Nick_Dissertation_EX1,1,305,2020-07-13T17:36:52-07:00,3.9733159542084,2,versionA_stim.csv,READVersionB.csv,"Read Version B","Dissertation, read only version B",DIETARY,SACKING,Study1,U,67,17,Test,User,-,,Recall,Recall2,3700,food,0,2925,3453,0,0,,1
w812089FS,k4ls0net7v,Nick_Dissertation_EX1,1,306,2020-07-13T17:36:54-07:00,2.1438879966736,2,versionA_stim.csv,READVersionB.csv,"Read Version B","Dissertation, read only version B",TUNA,FISH,Study1,F,25,84,Test,User,-,,Recall,Recall2,1870,fish,100,896,1623,1,1,,1
w812089FS,k4ls0net7v,Nick_Dissertation_EX1,1,307,2020-07-13T17:36:59-07:00,4.4973471164703,2,versionA_stim.csv,READVersionB.csv,"Read Version B","Dissertation, read only version B",LOCATION,SITE,Study1,S,48,18,Test,User,-,,Recall,Recall2,4191,now,0,3497,3752,0,0,,1
w812089FS,k4ls0net7v,Nick_Dissertation_EX1,1,308,2020-07-13T17:37:01-07:00,2.6659648418427,2,versionA_stim.csv,READVersionB.csv,"Read Version B","Dissertation, read only version B",DELINQUENT,BAD,Study1,F,6,76,Test,User,-,,Recall,Recall2,2395,bad,100,1701,2163,1,1,,1
w812089FS,k4ls0net7v,Nick_Dissertation_EX1,1,309,2020-07-13T17:37:04-07:00,2.5990669727325,2,versionA_stim.csv,READVersionB.csv,"Read Version B","Dissertation, read only version B",HERD,COW,Study1,F,22,28,Test,User,-,,Recall,Recall2,2320,cow,100,1794,2073,1,1,,1
w812089FS,k4ls0net7v,Nick_Dissertation_EX1,1,310,2020-07-13T17:37:08-07:00,3.8227431774139,2,versionA_stim.csv,READVersionB.csv,"Read Version B","Dissertation, read only version B",POP,SODA,Study1,S,56,31,Test,User,-,,Recall,Recall2,3546,corn,25,2676,3202,0,0,,1
w812089FS,k4ls0net7v,Nick_Dissertation_EX1,1,311,2020-07-13T17:37:11-07:00,2.7793998718262,2,versionA_stim.csv,READVersionB.csv,"Read Version B","Dissertation, read only version B",TRIAL,JURY,Study1,S,50,32,Test,User,-,,Recall,Recall2,2379,jury,100,1492,2091,1,1,,1
w812089FS,k4ls0net7v,Nick_Dissertation_EX1,1,312,2020-07-13T17:37:14-07:00,3.7739701271057,2,versionA_stim.csv,READVersionB.csv,"Read Version B","Dissertation, read only version B",ARTERY,BRONZE,Study1,U,74,19,Test,User,-,,Recall,Recall2,3503,heart,18.181818181818,2577,3360,0,0,,1
w812089FS,k4ls0net7v,Nick_Dissertation_EX1,1,313,2020-07-13T17:37:17-07:00,2.4506080150604,2,versionA_stim.csv,READVersionB.csv,"Read Version B","Dissertation, read only version B",HUNGER,FAMINE,Study1,B,40,86,Test,User,-,,Recall,Recall2,2163,pain,60,1277,1700,0,0,,1
w812089FS,k4ls0net7v,Nick_Dissertation_EX1,1,314,2020-07-13T17:37:21-07:00,4.0406777858734,2,versionA_stim.csv,READVersionB.csv,"Read Version B","Dissertation, read only version B",BALL,RACKET,Study1,B,38,72,Test,User,-,,Recall,Recall2,3769,park,40,2970,3482,0,0,,1
w812089FS,k4ls0net7v,Nick_Dissertation_EX1,1,315,2020-07-13T17:37:23-07:00,2.5537641048431,2,versionA_stim.csv,READVersionB.csv,"Read Version B","Dissertation, read only version B",SOON,BELT,Study1,U,70,46,Test,User,-,,Recall,Recall2,2143,later,44.444444444444,1361,1935,0,0,,1
w812089FS,k4ls0net7v,Nick_Dissertation_EX1,1,316,2020-07-13T17:37:28-07:00,4.1050961017609,2,versionA_stim.csv,READVersionB.csv,"Read Version B","Dissertation, read only version B",WAY,OUT,Study1,F,16,61,Test,User,-,,Recall,Recall2,3804,up,40,1805,2916,0,0,,1
w812089FS,k4ls0net7v,Nick_Dissertation_EX1,1,317,2020-07-13T17:37:57-07:00,29.53862285614,2,versionA_stim.csv,READVersionB.csv,"Read Version B","Dissertation, read only version B",HAPPY,CAR,Study1,U,77,33,Test,User,-,,Recall,Recall2,6084,face,28.571428571429,5218,5796,0,0,,1
w812089FS,k4ls0net7v,Nick_Dissertation_EX1,1,318,2020-07-13T17:38:00-07:00,3.2469680309296,2,versionA_stim.csv,READVersionB.csv,"Read Version B","Dissertation, read only version B",PLANE,PILOT,Study1,B,44,60,Test,User,-,,Recall,Recall2,2969,airplane,30.769230769231,906,2761,0,0,,1
w812089FS,k4ls0net7v,Nick_Dissertation_EX1,1,319,2020-07-13T17:38:05-07:00,4.2512810230255,2,versionA_stim.csv,READVersionB.csv,"Read Version B","Dissertation, read only version B",FIRE,BLAZE,Study1,B,45,54,Test,User,-,,Recall,Recall2,3961,hot,0,3499,3745,0,0,,1
w812089FS,k4ls0net7v,Nick_Dissertation_EX1,1,320,2020-07-13T17:38:07-07:00,2.5041909217834,2,versionA_stim.csv,READVersionB.csv,"Read Version B","Dissertation, read only version B",BABY,CHILD,Study1,S,64,10,Test,User,-,,Recall,Recall2,2233,food,22.222222222222,1442,2057,0,0,,1
w812089FS,k4ls0net7v,Nick_Dissertation_EX1,1,321,2020-07-13T17:38:10-07:00,2.5817160606384,2,versionA_stim.csv,READVersionB.csv,"Read Version B","Dissertation, read only version B",BATHROOM,TOILET,Study1,S,58,47,Test,User,-,,Recall,Recall2,2296,toilet,100,1193,2033,1,1,,1
w812089FS,k4ls0net7v,Nick_Dissertation_EX1,1,322,2020-07-13T17:38:16-07:00,6.1324739456177,2,versionA_stim.csv,READVersionB.csv,"Read Version B","Dissertation, read only version B",KEY,LATCH,Study1,B,36,38,Test,User,-,,Recall,Recall2,5834,note,22.222222222222,4283,5474,0,0,,1
w812089FS,k4ls0net7v,Nick_Dissertation_EX1,1,323,2020-07-13T17:38:19-07:00,3.3329951763153,2,versionA_stim.csv,READVersionB.csv,"Read Version B","Dissertation, read only version B",DISCUSSION,TALK,Study1,F,21,35,Test,User,-,,Recall,Recall2,3044,talk,100,1934,2500,1,1,,1
w812089FS,k4ls0net7v,Nick_Dissertation_EX1,1,324,2020-07-13T17:38:45-07:00,26.273918867111,2,versionA_stim.csv,READVersionB.csv,"Read Version B","Dissertation, read only version B",WAGE,MONEY,Study1,F,8,73,Test,User,-,,Recall,Recall2,4522,money,100,3020,4156,1,1,,1
w812089FS,k4ls0net7v,Nick_Dissertation_EX1,1,325,2020-07-13T17:38:50-07:00,4.7144529819489,2,versionA_stim.csv,READVersionB.csv,"Read Version B","Dissertation, read only version B",SMELL,STENCH,Study1,B,42,78,Test,User,-,,Recall,Recall2,4182,good,0,3536,3951,0,0,,1
w812089FS,k4ls0net7v,Nick_Dissertation_EX1,1,326,2020-07-13T17:38:57-07:00,6.7281141281128,2,versionA_stim.csv,READVersionB.csv,"Read Version B","Dissertation, read only version B",ALLOW,TUCK,Study1,U,78,62,Test,User,-,,Recall,Recall2,6220,time,25,5687,6069,0,0,,1
w812089FS,k4ls0net7v,Nick_Dissertation_EX1,1,327,2020-07-13T17:39:00-07:00,3.0558338165283,2,versionA_stim.csv,READVersionB.csv,"Read Version B","Dissertation, read only version B",SUGAR,RIDDLE,Study1,U,81,40,Test,User,-,,Recall,Recall2,2777,sweet,18.181818181818,1779,2514,0,0,,1
w812089FS,k4ls0net7v,Nick_Dissertation_EX1,1,328,2020-07-13T17:39:07-07:00,7.2682750225067,2,versionA_stim.csv,READVersionB.csv,"Read Version B","Dissertation, read only version B",FIX,HAND,Study1,U,75,26,Test,User,-,,Recall,Recall2,6945,up,0,2460,2754,0,0,,1
w812089FS,k4ls0net7v,Nick_Dissertation_EX1,1,329,2020-07-13T17:39:11-07:00,3.5326449871063,2,versionA_stim.csv,READVersionB.csv,"Read Version B","Dissertation, read only version B",HONEY,BEE,Study1,S,63,34,Test,User,-,,Recall,Recall2,2867,bee,100,1093,1524,1,1,,1
w812089FS,k4ls0net7v,Nick_Dissertation_EX1,1,330,2020-07-13T17:39:20-07:00,9.3300001621246,2,versionA_stim.csv,READVersionB.csv,"Read Version B","Dissertation, read only version B",KING,VASE,Study1,U,85,21,Test,User,-,,Recall,Recall2,9004,bed,28.571428571429,7558,8797,0,0,,1
w812089FS,k4ls0net7v,Nick_Dissertation_EX1,1,331,2020-07-13T17:39:23-07:00,3.2312920093536,2,versionA_stim.csv,READVersionB.csv,"Read Version B","Dissertation, read only version B",BEGIN,END,Study1,S,54,27,Test,User,-,,Recall,Recall2,2814,new,33.333333333333,2263,2638,0,0,,1
w812089FS,k4ls0net7v,Nick_Dissertation_EX1,1,332,2020-07-13T17:39:26-07:00,2.9791009426117,2,versionA_stim.csv,READVersionB.csv,"Read Version B","Dissertation, read only version B",DIGESTION,STOMACH,Study1,F,7,59,Test,User,-,,Recall,Recall2,2712,stomach,100,1226,2449,1,1,,1
w812089FS,k4ls0net7v,Nick_Dissertation_EX1,1,333,2020-07-13T17:39:28-07:00,1.9793739318848,2,versionA_stim.csv,READVersionB.csv,"Read Version B","Dissertation, read only version B",GEOLOGY,ROCK,Study1,F,19,71,Test,User,-,,Recall,Recall2,1703,rock,100,961,1417,1,1,,1
w812089FS,k4ls0net7v,Nick_Dissertation_EX1,1,334,2020-07-13T17:39:32-07:00,3.5272490978241,2,versionA_stim.csv,READVersionB.csv,"Read Version B","Dissertation, read only version B",BUG,WASP,Study1,B,32,42,Test,User,-,,Recall,Recall2,3269,wasp,100,2008,2782,1,1,,1
w812089FS,k4ls0net7v,Nick_Dissertation_EX1,1,335,2020-07-13T17:39:37-07:00,5.07865691185,2,versionA_stim.csv,READVersionB.csv,"Read Version B","Dissertation, read only version B",SHOE,FOOT,Study1,S,60,83,Test,User,-,,Recall,Recall2,4788,shoelace,16.666666666667,2262,4549,0,0,,1
w812089FS,k4ls0net7v,Nick_Dissertation_EX1,1,336,2020-07-13T17:39:41-07:00,4.159117937088,2,versionA_stim.csv,READVersionB.csv,"Read Version B","Dissertation, read only version B",DEBATE,SIGHT,Study1,U,73,41,Test,User,-,,Recall,Recall2,3877,argue,20,2719,3486,0,0,,1
w812089FS,k4ls0net7v,Nick_Dissertation_EX1,1,337,2020-07-13T17:39:49-07:00,7.4666299819946,2,versionA_stim.csv,READVersionB.csv,"Read Version B","Dissertation, read only version B",DUE,ASSIGNMENT,Study1,S,46,68,Test,User,-,,Recall,Recall2,6924,rent,42.857142857143,6174,6709,0,0,,1
w812089FS,k4ls0net7v,Nick_Dissertation_EX1,1,338,2020-07-13T17:39:51-07:00,2.5544300079346,2,versionA_stim.csv,READVersionB.csv,"Read Version B","Dissertation, read only version B",NUMBER,AMOUNT,Study1,S,47,56,Test,User,-,,Recall,Recall2,2281,one,44.444444444444,1859,2098,0,0,,1
w812089FS,k4ls0net7v,Nick_Dissertation_EX1,1,339,2020-07-13T17:39:56-07:00,4.9595050811768,2,versionA_stim.csv,READVersionB.csv,"Read Version B","Dissertation, read only version B",ARCHITECTURE,DESIGN,Study1,S,51,20,Test,User,-,,Recall,Recall2,4696,design,100,2163,4433,1,1,,1
w812089FS,k4ls0net7v,Nick_Dissertation_EX1,1,340,2020-07-13T17:40:00-07:00,3.6411919593811,2,versionA_stim.csv,READVersionB.csv,"Read Version B","Dissertation, read only version B",PAST,FUTURE,Study1,S,61,25,Test,User,-,,Recall,Recall2,3359,present,30.769230769231,1073,3193,0,0,,1
w812089FS,k4ls0net7v,Nick_Dissertation_EX1,1,341,2020-07-13T17:40:05-07:00,5.6924951076508,2,versionA_stim.csv,READVersionB.csv,"Read Version B","Dissertation, read only version B",PARK,HUNGRY,Study1,U,68,64,Test,User,-,,Recall,Recall2,5016,play,20,4210,4777,0,0,,1
w812089FS,k4ls0net7v,Nick_Dissertation_EX1,1,342,2020-07-13T17:40:09-07:00,4.004714012146,2,versionA_stim.csv,READVersionB.csv,"Read Version B","Dissertation, read only version B",ART,LION,Study1,U,79,67,Test,User,-,,Recall,Recall2,3699,design,40,2077,3437,0,0,,1
w812089FS,k4ls0net7v,Nick_Dissertation_EX1,1,343,2020-07-13T17:40:39-07:00,29.253644943237,2,versionA_stim.csv,READVersionB.csv,"Read Version B","Dissertation, read only version B",ROOT,PLANT,Study1,F,13,39,Test,User,-,,Recall,Recall2,6042,tree,22.222222222222,5156,5731,0,0,,1
w812089FS,k4ls0net7v,Nick_Dissertation_EX1,1,344,2020-07-13T17:40:43-07:00,4.7467300891876,2,versionA_stim.csv,READVersionB.csv,"Read Version B","Dissertation, read only version B",VALLEY,ADD,Study1,U,82,22,Test,User,-,,Recall,Recall2,4477,adds,85.714285714286,3583,4202,0,1,,1
w812089FS,k4ls0net7v,Nick_Dissertation_EX1,1,345,2020-07-13T17:40:50-07:00,6.7034499645233,2,versionA_stim.csv,READVersionB.csv,"Read Version B","Dissertation, read only version B",DISCOVER,FLOOR,Study1,U,71,24,Test,User,-,,Recall,Recall2,6418,card,22.222222222222,5444,6163,0,0,,1
w812089FS,k4ls0net7v,Nick_Dissertation_EX1,1,346,2020-07-13T17:40:53-07:00,2.6464729309082,2,versionA_stim.csv,READVersionB.csv,"Read Version B","Dissertation, read only version B",LIFT,WOMAN,Study1,U,69,23,Test,User,-,,Recall,Recall2,2358,up,0,1894,2063,0,0,,1
w812089FS,k4ls0net7v,Nick_Dissertation_EX1,1,347,2020-07-13T17:40:55-07:00,2.36288189888,2,versionA_stim.csv,READVersionB.csv,"Read Version B","Dissertation, read only version B",WINE,CHEESE,Study1,S,57,58,Test,User,-,,Recall,Recall2,2074,cheese,100,1075,1858,1,1,,1
w812089FS,k4ls0net7v,Nick_Dissertation_EX1,1,348,2020-07-13T17:40:58-07:00,2.6464102268219,2,versionA_stim.csv,READVersionB.csv,"Read Version B","Dissertation, read only version B",DRINK,SIP,Study1,B,27,43,Test,User,-,,Recall,Recall2,2361,cup,33.333333333333,1587,2034,0,0,,1
w812089FS,k4ls0net7v,Nick_Dissertation_EX1,1,349,2020-07-13T17:41:01-07:00,3.2173049449921,2,versionA_stim.csv,READVersionB.csv,"Read Version B","Dissertation, read only version B",,,,,,0,Instruct,User,-,"You have completed this section. Please press Enter.",,Instruct7,2943,,,-1,-1,,,,1
w812089FS,k4ls0net7v,Nick_Dissertation_EX1,1,350,2020-07-13T17:41:09-07:00,8.0788569450378,2,versionA_stim.csv,READVersionB.csv,"Read Version B","Dissertation, read only version B",,,,,,0,Instruct,User,-,"The following screen will ask you a few questions abour your experience today. You must complete these questions to receive credit.",,Instruct8,7776,,,-1,-1,,,,1
