Username,ID,ExperimentName,Session,Trial,Date,TimeDif,"Condition Number","Stimuli File","Order File","Condition Description","Condition Notes",Stimuli*Cue,Stimuli*Answer,Stimuli*Shuffle,"Stimuli*Stimuli Notes",Stimuli*Value,Procedure*Item,"Procedure*Trial Type","Procedure*Max Time","Procedure*Min Time",Procedure*Text,"Procedure*Procedure Notes",Procedure*Shuffle,Response*RT,Response*Response,Response*Accuracy,Response*RTfirst,Response*RTlast,Response*strictAcc,Response*lenientAcc,Response*focus,Response*Focus
5ede7d5c5b5d620e7a1d1ccf,wfmitvxh72,Nick_Dissertation_EX1,1,1,2020-07-08T14:55:19-07:00,12.601777076721,1,versionA_stim.csv,READVersionA.csv,"Read Version A","Dissertation, read only version A",,,,,,0,Instruct,-,10,"Please study each of the following word pairs. Remember that your memory will be tested! When finished, press Enter to move to the next pair.",Initial_Instruct,Instruct1,12076,,,-1,-1,,,,1
5ede7d5c5b5d620e7a1d1ccf,wfmitvxh72,Nick_Dissertation_EX1,1,2,2020-07-08T14:55:22-07:00,2.7996819019318,1,versionA_stim.csv,READVersionA.csv,"Read Version A","Dissertation, read only version A",SCARE,HIDE,BUFFER1,Buffer,4,5,Study,User,-,,Study/JOL,BUFFER,2283,,,-1,-1,,,,1
5ede7d5c5b5d620e7a1d1ccf,wfmitvxh72,Nick_Dissertation_EX1,1,3,2020-07-08T14:55:24-07:00,1.8915960788727,1,versionA_stim.csv,READVersionA.csv,"Read Version A","Dissertation, read only version A",SPACE,JAM,BUFFER1,Buffer,5,4,Study,User,-,,Study/JOL,BUFFER,1395,,,-1,-1,,,,1
5ede7d5c5b5d620e7a1d1ccf,wfmitvxh72,Nick_Dissertation_EX1,1,4,2020-07-08T14:55:25-07:00,1.7479088306427,1,versionA_stim.csv,READVersionA.csv,"Read Version A","Dissertation, read only version A",BASEBALL,CATCHER,BUFFER1,Buffer,2,2,Study,User,-,,Study/JOL,BUFFER,1239,,,-1,-1,,,,1
5ede7d5c5b5d620e7a1d1ccf,wfmitvxh72,Nick_Dissertation_EX1,1,5,2020-07-08T14:55:27-07:00,1.5412571430206,1,versionA_stim.csv,READVersionA.csv,"Read Version A","Dissertation, read only version A",TREES,GREEN,BUFFER1,Buffer,1,3,Study,User,-,,Study/JOL,BUFFER,1055,,,-1,-1,,,,1
5ede7d5c5b5d620e7a1d1ccf,wfmitvxh72,Nick_Dissertation_EX1,1,6,2020-07-08T14:55:30-07:00,2.6441149711609,1,versionA_stim.csv,READVersionA.csv,"Read Version A","Dissertation, read only version A",PEANUT,BUTTER,BUFFER1,Buffer,3,6,Study,User,-,,Study/JOL,BUFFER,2065,,,-1,-1,,,,1
5ede7d5c5b5d620e7a1d1ccf,wfmitvxh72,Nick_Dissertation_EX1,1,7,2020-07-08T14:55:32-07:00,1.9245309829712,1,versionA_stim.csv,READVersionA.csv,"Read Version A","Dissertation, read only version A",WINE,CHEESE,Study1,S,57,45,Study,User,-,,Study/JOL,"Study Phase",1402,,,-1,-1,,,,1
5ede7d5c5b5d620e7a1d1ccf,wfmitvxh72,Nick_Dissertation_EX1,1,8,2020-07-08T14:55:33-07:00,1.4153900146484,1,versionA_stim.csv,READVersionA.csv,"Read Version A","Dissertation, read only version A",MATH,DIVISION,Study1,B,33,73,Study,User,-,,Study/JOL,"Study Phase",935,,,-1,-1,,,,1
5ede7d5c5b5d620e7a1d1ccf,wfmitvxh72,Nick_Dissertation_EX1,1,9,2020-07-08T14:55:35-07:00,1.5744600296021,1,versionA_stim.csv,READVersionA.csv,"Read Version A","Dissertation, read only version A",HYGIENE,CLEAN,Study1,F,17,71,Study,User,-,,Study/JOL,"Study Phase",1083,,,-1,-1,,,,1
5ede7d5c5b5d620e7a1d1ccf,wfmitvxh72,Nick_Dissertation_EX1,1,10,2020-07-08T14:55:37-07:00,2.30446600914,1,versionA_stim.csv,READVersionA.csv,"Read Version A","Dissertation, read only version A",LOCATION,SITE,Study1,S,48,86,Study,User,-,,Study/JOL,"Study Phase",1807,,,-1,-1,,,,1
5ede7d5c5b5d620e7a1d1ccf,wfmitvxh72,Nick_Dissertation_EX1,1,11,2020-07-08T14:55:45-07:00,7.9775900840759,1,versionA_stim.csv,READVersionA.csv,"Read Version A","Dissertation, read only version A",SENTENCE,WORD,Study1,B,31,79,Study,User,-,,Study/JOL,"Study Phase",7469,,,-1,-1,,,,1
5ede7d5c5b5d620e7a1d1ccf,wfmitvxh72,Nick_Dissertation_EX1,1,12,2020-07-08T14:55:51-07:00,6.2782828807831,1,versionA_stim.csv,READVersionA.csv,"Read Version A","Dissertation, read only version A",BALL,RACKET,Study1,B,38,44,Study,User,-,,Study/JOL,"Study Phase",5780,,,-1,-1,,,,1
5ede7d5c5b5d620e7a1d1ccf,wfmitvxh72,Nick_Dissertation_EX1,1,13,2020-07-08T14:55:56-07:00,4.402379989624,1,versionA_stim.csv,READVersionA.csv,"Read Version A","Dissertation, read only version A",SWAN,BIRD,Study1,F,14,29,Study,User,-,,Study/JOL,"Study Phase",3909,,,-1,-1,,,,1
5ede7d5c5b5d620e7a1d1ccf,wfmitvxh72,Nick_Dissertation_EX1,1,14,2020-07-08T14:55:58-07:00,2.301500082016,1,versionA_stim.csv,READVersionA.csv,"Read Version A","Dissertation, read only version A",POP,SODA,Study1,S,56,39,Study,User,-,,Study/JOL,"Study Phase",1793,,,-1,-1,,,,1
5ede7d5c5b5d620e7a1d1ccf,wfmitvxh72,Nick_Dissertation_EX1,1,15,2020-07-08T14:56:00-07:00,2.2181458473206,1,versionA_stim.csv,READVersionA.csv,"Read Version A","Dissertation, read only version A",HUNGER,FAMINE,Study1,B,40,26,Study,User,-,,Study/JOL,"Study Phase",606,,,-1,-1,,,,1
5ede7d5c5b5d620e7a1d1ccf,wfmitvxh72,Nick_Dissertation_EX1,1,16,2020-07-08T14:56:01-07:00,1.2062230110168,1,versionA_stim.csv,READVersionA.csv,"Read Version A","Dissertation, read only version A",ORCHID,FLOWER,Study1,F,24,23,Study,User,-,,Study/JOL,"Study Phase",691,,,-1,-1,,,,1
5ede7d5c5b5d620e7a1d1ccf,wfmitvxh72,Nick_Dissertation_EX1,1,17,2020-07-08T14:56:02-07:00,1.0098280906677,1,versionA_stim.csv,READVersionA.csv,"Read Version A","Dissertation, read only version A",BATHROOM,TOILET,Study1,S,58,82,Study,User,-,,Study/JOL,"Study Phase",528,,,-1,-1,,,,1
5ede7d5c5b5d620e7a1d1ccf,wfmitvxh72,Nick_Dissertation_EX1,1,18,2020-07-08T14:56:04-07:00,1.2686939239502,1,versionA_stim.csv,READVersionA.csv,"Read Version A","Dissertation, read only version A",BRIDGE,WATER,Study1,F,18,41,Study,User,-,,Study/JOL,"Study Phase",760,,,-1,-1,,,,1
5ede7d5c5b5d620e7a1d1ccf,wfmitvxh72,Nick_Dissertation_EX1,1,19,2020-07-08T14:56:05-07:00,1.0041880607605,1,versionA_stim.csv,READVersionA.csv,"Read Version A","Dissertation, read only version A",FULL,ENOUGH,Study1,B,26,43,Study,User,-,,Study/JOL,"Study Phase",492,,,-1,-1,,,,1
5ede7d5c5b5d620e7a1d1ccf,wfmitvxh72,Nick_Dissertation_EX1,1,20,2020-07-08T14:56:06-07:00,1.014771938324,1,versionA_stim.csv,READVersionA.csv,"Read Version A","Dissertation, read only version A",GRILL,BAR,Study1,S,52,70,Study,User,-,,Study/JOL,"Study Phase",462,,,-1,-1,,,,1
5ede7d5c5b5d620e7a1d1ccf,wfmitvxh72,Nick_Dissertation_EX1,1,21,2020-07-08T14:56:07-07:00,0.98313498497009,1,versionA_stim.csv,READVersionA.csv,"Read Version A","Dissertation, read only version A",BABY,CHILD,Study1,S,64,54,Study,User,-,,Study/JOL,"Study Phase",462,,,-1,-1,,,,1
5ede7d5c5b5d620e7a1d1ccf,wfmitvxh72,Nick_Dissertation_EX1,1,22,2020-07-08T14:56:08-07:00,1.0090601444244,1,versionA_stim.csv,READVersionA.csv,"Read Version A","Dissertation, read only version A",CASH,WOULD,Study1,U,83,58,Study,User,-,,Study/JOL,"Study Phase",531,,,-1,-1,,,,1
5ede7d5c5b5d620e7a1d1ccf,wfmitvxh72,Nick_Dissertation_EX1,1,23,2020-07-08T14:56:09-07:00,0.98358798027039,1,versionA_stim.csv,READVersionA.csv,"Read Version A","Dissertation, read only version A",ARTERY,BRONZE,Study1,U,74,14,Study,User,-,,Study/JOL,"Study Phase",491,,,-1,-1,,,,1
5ede7d5c5b5d620e7a1d1ccf,wfmitvxh72,Nick_Dissertation_EX1,1,24,2020-07-08T14:56:10-07:00,1.0864369869232,1,versionA_stim.csv,READVersionA.csv,"Read Version A","Dissertation, read only version A",BUG,WASP,Study1,B,32,9,Study,User,-,,Study/JOL,"Study Phase",603,,,-1,-1,,,,1
5ede7d5c5b5d620e7a1d1ccf,wfmitvxh72,Nick_Dissertation_EX1,1,25,2020-07-08T14:56:11-07:00,1.0031158924103,1,versionA_stim.csv,READVersionA.csv,"Read Version A","Dissertation, read only version A",DISCOVER,FLOOR,Study1,U,71,21,Study,User,-,,Study/JOL,"Study Phase",515,,,-1,-1,,,,1
5ede7d5c5b5d620e7a1d1ccf,wfmitvxh72,Nick_Dissertation_EX1,1,26,2020-07-08T14:56:12-07:00,0.93265104293823,1,versionA_stim.csv,READVersionA.csv,"Read Version A","Dissertation, read only version A",GEOLOGY,ROCK,Study1,F,19,67,Study,User,-,,Study/JOL,"Study Phase",453,,,-1,-1,,,,1
5ede7d5c5b5d620e7a1d1ccf,wfmitvxh72,Nick_Dissertation_EX1,1,27,2020-07-08T14:56:13-07:00,0.97743892669678,1,versionA_stim.csv,READVersionA.csv,"Read Version A","Dissertation, read only version A",ART,LION,Study1,U,79,11,Study,User,-,,Study/JOL,"Study Phase",490,,,-1,-1,,,,1
5ede7d5c5b5d620e7a1d1ccf,wfmitvxh72,Nick_Dissertation_EX1,1,28,2020-07-08T14:56:13-07:00,0.9369900226593,1,versionA_stim.csv,READVersionA.csv,"Read Version A","Dissertation, read only version A",KING,VASE,Study1,U,85,56,Study,User,-,,Study/JOL,"Study Phase",436,,,-1,-1,,,,1
5ede7d5c5b5d620e7a1d1ccf,wfmitvxh72,Nick_Dissertation_EX1,1,29,2020-07-08T14:56:14-07:00,0.90863513946533,1,versionA_stim.csv,READVersionA.csv,"Read Version A","Dissertation, read only version A",CHISEL,HAMMER,Study1,F,9,46,Study,User,-,,Study/JOL,"Study Phase",419,,,-1,-1,,,,1
5ede7d5c5b5d620e7a1d1ccf,wfmitvxh72,Nick_Dissertation_EX1,1,30,2020-07-08T14:56:15-07:00,0.91190099716187,1,versionA_stim.csv,READVersionA.csv,"Read Version A","Dissertation, read only version A",WAY,OUT,Study1,F,16,62,Study,User,-,,Study/JOL,"Study Phase",408,,,-1,-1,,,,1
5ede7d5c5b5d620e7a1d1ccf,wfmitvxh72,Nick_Dissertation_EX1,1,31,2020-07-08T14:56:16-07:00,0.8681309223175,1,versionA_stim.csv,READVersionA.csv,"Read Version A","Dissertation, read only version A",FIRE,BLAZE,Study1,B,45,20,Study,User,-,,Study/JOL,"Study Phase",385,,,-1,-1,,,,1
5ede7d5c5b5d620e7a1d1ccf,wfmitvxh72,Nick_Dissertation_EX1,1,32,2020-07-08T14:56:17-07:00,0.94996690750122,1,versionA_stim.csv,READVersionA.csv,"Read Version A","Dissertation, read only version A",DIGESTION,STOMACH,Study1,F,7,52,Study,User,-,,Study/JOL,"Study Phase",452,,,-1,-1,,,,1
5ede7d5c5b5d620e7a1d1ccf,wfmitvxh72,Nick_Dissertation_EX1,1,33,2020-07-08T14:56:18-07:00,1.1789309978485,1,versionA_stim.csv,READVersionA.csv,"Read Version A","Dissertation, read only version A",SOON,BELT,Study1,U,70,8,Study,User,-,,Study/JOL,"Study Phase",680,,,-1,-1,,,,1
5ede7d5c5b5d620e7a1d1ccf,wfmitvxh72,Nick_Dissertation_EX1,1,34,2020-07-08T14:56:20-07:00,1.5569632053375,1,versionA_stim.csv,READVersionA.csv,"Read Version A","Dissertation, read only version A",LAW,ATTORNEY,Study1,B,34,10,Study,User,-,,Study/JOL,"Study Phase",1059,,,-1,-1,,,,1
5ede7d5c5b5d620e7a1d1ccf,wfmitvxh72,Nick_Dissertation_EX1,1,35,2020-07-08T14:56:22-07:00,1.6675050258636,1,versionA_stim.csv,READVersionA.csv,"Read Version A","Dissertation, read only version A",BITTER,COLD,Study1,F,12,64,Study,User,-,,Study/JOL,"Study Phase",1155,,,-1,-1,,,,1
5ede7d5c5b5d620e7a1d1ccf,wfmitvxh72,Nick_Dissertation_EX1,1,36,2020-07-08T14:56:23-07:00,1.1810069084167,1,versionA_stim.csv,READVersionA.csv,"Read Version A","Dissertation, read only version A",LIFT,WOMAN,Study1,U,69,81,Study,User,-,,Study/JOL,"Study Phase",686,,,-1,-1,,,,1
5ede7d5c5b5d620e7a1d1ccf,wfmitvxh72,Nick_Dissertation_EX1,1,37,2020-07-08T14:56:24-07:00,0.97785401344299,1,versionA_stim.csv,READVersionA.csv,"Read Version A","Dissertation, read only version A",DIETARY,SACKING,Study1,U,67,69,Study,User,-,,Study/JOL,"Study Phase",476,,,-1,-1,,,,1
5ede7d5c5b5d620e7a1d1ccf,wfmitvxh72,Nick_Dissertation_EX1,1,38,2020-07-08T14:56:25-07:00,1.4565539360046,1,versionA_stim.csv,READVersionA.csv,"Read Version A","Dissertation, read only version A",VALLEY,ADD,Study1,U,82,17,Study,User,-,,Study/JOL,"Study Phase",961,,,-1,-1,,,,1
5ede7d5c5b5d620e7a1d1ccf,wfmitvxh72,Nick_Dissertation_EX1,1,39,2020-07-08T14:56:26-07:00,1.2061040401459,1,versionA_stim.csv,READVersionA.csv,"Read Version A","Dissertation, read only version A",DARK,CAVE,Study1,B,28,50,Study,User,-,,Study/JOL,"Study Phase",694,,,-1,-1,,,,1
5ede7d5c5b5d620e7a1d1ccf,wfmitvxh72,Nick_Dissertation_EX1,1,40,2020-07-08T14:56:28-07:00,1.3903288841248,1,versionA_stim.csv,READVersionA.csv,"Read Version A","Dissertation, read only version A",DELINQUENT,BAD,Study1,F,6,75,Study,User,-,,Study/JOL,"Study Phase",864,,,-1,-1,,,,1
5ede7d5c5b5d620e7a1d1ccf,wfmitvxh72,Nick_Dissertation_EX1,1,41,2020-07-08T14:56:29-07:00,1.2423710823059,1,versionA_stim.csv,READVersionA.csv,"Read Version A","Dissertation, read only version A",HOT,CHILI,Study1,B,37,74,Study,User,-,,Study/JOL,"Study Phase",698,,,-1,-1,,,,1
5ede7d5c5b5d620e7a1d1ccf,wfmitvxh72,Nick_Dissertation_EX1,1,42,2020-07-08T14:56:30-07:00,1.0253911018372,1,versionA_stim.csv,READVersionA.csv,"Read Version A","Dissertation, read only version A",HAPPY,CAR,Study1,U,77,40,Study,User,-,,Study/JOL,"Study Phase",530,,,-1,-1,,,,1
5ede7d5c5b5d620e7a1d1ccf,wfmitvxh72,Nick_Dissertation_EX1,1,43,2020-07-08T14:56:31-07:00,1.0891878604889,1,versionA_stim.csv,READVersionA.csv,"Read Version A","Dissertation, read only version A",LETTUCE,SALAD,Study1,S,59,76,Study,User,-,,Study/JOL,"Study Phase",596,,,-1,-1,,,,1
5ede7d5c5b5d620e7a1d1ccf,wfmitvxh72,Nick_Dissertation_EX1,1,44,2020-07-08T14:56:32-07:00,1.3327920436859,1,versionA_stim.csv,READVersionA.csv,"Read Version A","Dissertation, read only version A",DEBATE,SIGHT,Study1,U,73,63,Study,User,-,,Study/JOL,"Study Phase",846,,,-1,-1,,,,1
5ede7d5c5b5d620e7a1d1ccf,wfmitvxh72,Nick_Dissertation_EX1,1,45,2020-07-08T14:56:34-07:00,1.1937670707703,1,versionA_stim.csv,READVersionA.csv,"Read Version A","Dissertation, read only version A",SUGAR,RIDDLE,Study1,U,81,33,Study,User,-,,Study/JOL,"Study Phase",707,,,-1,-1,,,,1
5ede7d5c5b5d620e7a1d1ccf,wfmitvxh72,Nick_Dissertation_EX1,1,46,2020-07-08T14:56:35-07:00,0.98744201660156,1,versionA_stim.csv,READVersionA.csv,"Read Version A","Dissertation, read only version A",PLANE,PILOT,Study1,B,44,38,Study,User,-,,Study/JOL,"Study Phase",508,,,-1,-1,,,,1
5ede7d5c5b5d620e7a1d1ccf,wfmitvxh72,Nick_Dissertation_EX1,1,47,2020-07-08T14:56:36-07:00,1.1984248161316,1,versionA_stim.csv,READVersionA.csv,"Read Version A","Dissertation, read only version A",MEANING,DEFINITION,Study1,S,62,34,Study,User,-,,Study/JOL,"Study Phase",677,,,-1,-1,,,,1
5ede7d5c5b5d620e7a1d1ccf,wfmitvxh72,Nick_Dissertation_EX1,1,48,2020-07-08T14:56:37-07:00,1.1468729972839,1,versionA_stim.csv,READVersionA.csv,"Read Version A","Dissertation, read only version A",BEGIN,END,Study1,S,54,65,Study,User,-,,Study/JOL,"Study Phase",654,,,-1,-1,,,,1
5ede7d5c5b5d620e7a1d1ccf,wfmitvxh72,Nick_Dissertation_EX1,1,49,2020-07-08T14:56:38-07:00,1.1637191772461,1,versionA_stim.csv,READVersionA.csv,"Read Version A","Dissertation, read only version A",BLOW,WIND,Study1,S,55,68,Study,User,-,,Study/JOL,"Study Phase",689,,,-1,-1,,,,1
5ede7d5c5b5d620e7a1d1ccf,wfmitvxh72,Nick_Dissertation_EX1,1,50,2020-07-08T14:56:39-07:00,1.2875959873199,1,versionA_stim.csv,READVersionA.csv,"Read Version A","Dissertation, read only version A",TAKE,SEIZE,Study1,B,29,55,Study,User,-,,Study/JOL,"Study Phase",791,,,-1,-1,,,,1
5ede7d5c5b5d620e7a1d1ccf,wfmitvxh72,Nick_Dissertation_EX1,1,51,2020-07-08T14:56:41-07:00,1.3333079814911,1,versionA_stim.csv,READVersionA.csv,"Read Version A","Dissertation, read only version A",PUSHER,CLUTTER,Study1,U,66,57,Study,User,-,,Study/JOL,"Study Phase",846,,,-1,-1,,,,1
5ede7d5c5b5d620e7a1d1ccf,wfmitvxh72,Nick_Dissertation_EX1,1,52,2020-07-08T14:56:42-07:00,1.263475894928,1,versionA_stim.csv,READVersionA.csv,"Read Version A","Dissertation, read only version A",STRONG,ACCIDENT,Study1,U,80,16,Study,User,-,,Study/JOL,"Study Phase",775,,,-1,-1,,,,1
5ede7d5c5b5d620e7a1d1ccf,wfmitvxh72,Nick_Dissertation_EX1,1,53,2020-07-08T14:56:43-07:00,1.3924021720886,1,versionA_stim.csv,READVersionA.csv,"Read Version A","Dissertation, read only version A",WORK,CHORE,Study1,B,39,72,Study,User,-,,Study/JOL,"Study Phase",871,,,-1,-1,,,,1
5ede7d5c5b5d620e7a1d1ccf,wfmitvxh72,Nick_Dissertation_EX1,1,54,2020-07-08T14:56:45-07:00,1.8396089076996,1,versionA_stim.csv,READVersionA.csv,"Read Version A","Dissertation, read only version A",DISCUSSION,TALK,Study1,F,21,80,Study,User,-,,Study/JOL,"Study Phase",1311,,,-1,-1,,,,1
5ede7d5c5b5d620e7a1d1ccf,wfmitvxh72,Nick_Dissertation_EX1,1,55,2020-07-08T14:56:47-07:00,1.6140520572662,1,versionA_stim.csv,READVersionA.csv,"Read Version A","Dissertation, read only version A",ROOT,PLANT,Study1,F,13,51,Study,User,-,,Study/JOL,"Study Phase",1111,,,-1,-1,,,,1
5ede7d5c5b5d620e7a1d1ccf,wfmitvxh72,Nick_Dissertation_EX1,1,56,2020-07-08T14:56:48-07:00,1.257926940918,1,versionA_stim.csv,READVersionA.csv,"Read Version A","Dissertation, read only version A",PAST,FUTURE,Study1,S,61,49,Study,User,-,,Study/JOL,"Study Phase",728,,,-1,-1,,,,1
5ede7d5c5b5d620e7a1d1ccf,wfmitvxh72,Nick_Dissertation_EX1,1,57,2020-07-08T14:56:49-07:00,1.1773300170898,1,versionA_stim.csv,READVersionA.csv,"Read Version A","Dissertation, read only version A",PARK,HUNGRY,Study1,U,68,84,Study,User,-,,Study/JOL,"Study Phase",685,,,-1,-1,,,,1
5ede7d5c5b5d620e7a1d1ccf,wfmitvxh72,Nick_Dissertation_EX1,1,58,2020-07-08T14:56:50-07:00,0.99492788314819,1,versionA_stim.csv,READVersionA.csv,"Read Version A","Dissertation, read only version A",DUE,ASSIGNMENT,Study1,S,46,19,Study,User,-,,Study/JOL,"Study Phase",475,,,-1,-1,,,,1
5ede7d5c5b5d620e7a1d1ccf,wfmitvxh72,Nick_Dissertation_EX1,1,59,2020-07-08T14:56:51-07:00,1.0131421089172,1,versionA_stim.csv,READVersionA.csv,"Read Version A","Dissertation, read only version A",REVOLUTION,WAR,Study1,F,20,27,Study,User,-,,Study/JOL,"Study Phase",508,,,-1,-1,,,,1
5ede7d5c5b5d620e7a1d1ccf,wfmitvxh72,Nick_Dissertation_EX1,1,60,2020-07-08T14:56:53-07:00,1.3802609443665,1,versionA_stim.csv,READVersionA.csv,"Read Version A","Dissertation, read only version A",CIRCLE,ROUND,Study1,S,65,77,Study,User,-,,Study/JOL,"Study Phase",872,,,-1,-1,,,,1
5ede7d5c5b5d620e7a1d1ccf,wfmitvxh72,Nick_Dissertation_EX1,1,61,2020-07-08T14:56:54-07:00,1.1615059375763,1,versionA_stim.csv,READVersionA.csv,"Read Version A","Dissertation, read only version A",SMELL,STENCH,Study1,B,42,59,Study,User,-,,Study/JOL,"Study Phase",672,,,-1,-1,,,,1
5ede7d5c5b5d620e7a1d1ccf,wfmitvxh72,Nick_Dissertation_EX1,1,62,2020-07-08T14:56:55-07:00,1.282438993454,1,versionA_stim.csv,READVersionA.csv,"Read Version A","Dissertation, read only version A",HIDE,SICK,Study1,U,84,30,Study,User,-,,Study/JOL,"Study Phase",768,,,-1,-1,,,,1
5ede7d5c5b5d620e7a1d1ccf,wfmitvxh72,Nick_Dissertation_EX1,1,63,2020-07-08T14:56:56-07:00,1.2871270179749,1,versionA_stim.csv,READVersionA.csv,"Read Version A","Dissertation, read only version A",DRINK,SIP,Study1,B,27,48,Study,User,-,,Study/JOL,"Study Phase",772,,,-1,-1,,,,1
5ede7d5c5b5d620e7a1d1ccf,wfmitvxh72,Nick_Dissertation_EX1,1,64,2020-07-08T14:56:58-07:00,1.355161190033,1,versionA_stim.csv,READVersionA.csv,"Read Version A","Dissertation, read only version A",MACHINE,POSITION,Study1,U,76,66,Study,User,-,,Study/JOL,"Study Phase",866,,,-1,-1,,,,1
5ede7d5c5b5d620e7a1d1ccf,wfmitvxh72,Nick_Dissertation_EX1,1,65,2020-07-08T14:56:59-07:00,1.4693949222565,1,versionA_stim.csv,READVersionA.csv,"Read Version A","Dissertation, read only version A",ALLOW,TUCK,Study1,U,78,78,Study,User,-,,Study/JOL,"Study Phase",943,,,-1,-1,,,,1
5ede7d5c5b5d620e7a1d1ccf,wfmitvxh72,Nick_Dissertation_EX1,1,66,2020-07-08T14:57:00-07:00,1.1715030670166,1,versionA_stim.csv,READVersionA.csv,"Read Version A","Dissertation, read only version A",ARCHITECTURE,DESIGN,Study1,S,51,25,Study,User,-,,Study/JOL,"Study Phase",669,,,-1,-1,,,,1
5ede7d5c5b5d620e7a1d1ccf,wfmitvxh72,Nick_Dissertation_EX1,1,67,2020-07-08T14:57:02-07:00,1.1930499076843,1,versionA_stim.csv,READVersionA.csv,"Read Version A","Dissertation, read only version A",DUMP,WASTE,Study1,S,49,83,Study,User,-,,Study/JOL,"Study Phase",709,,,-1,-1,,,,1
5ede7d5c5b5d620e7a1d1ccf,wfmitvxh72,Nick_Dissertation_EX1,1,68,2020-07-08T14:57:03-07:00,1.135941028595,1,versionA_stim.csv,READVersionA.csv,"Read Version A","Dissertation, read only version A",HERD,COW,Study1,F,22,37,Study,User,-,,Study/JOL,"Study Phase",638,,,-1,-1,,,,1
5ede7d5c5b5d620e7a1d1ccf,wfmitvxh72,Nick_Dissertation_EX1,1,69,2020-07-08T14:57:04-07:00,1.1068279743195,1,versionA_stim.csv,READVersionA.csv,"Read Version A","Dissertation, read only version A",FIX,HAND,Study1,U,75,61,Study,User,-,,Study/JOL,"Study Phase",626,,,-1,-1,,,,1
5ede7d5c5b5d620e7a1d1ccf,wfmitvxh72,Nick_Dissertation_EX1,1,70,2020-07-08T14:57:05-07:00,1.2870810031891,1,versionA_stim.csv,READVersionA.csv,"Read Version A","Dissertation, read only version A",KIDNEY,LIVER,Study1,S,53,32,Study,User,-,,Study/JOL,"Study Phase",786,,,-1,-1,,,,1
5ede7d5c5b5d620e7a1d1ccf,wfmitvxh72,Nick_Dissertation_EX1,1,71,2020-07-08T14:57:06-07:00,1.1682870388031,1,versionA_stim.csv,READVersionA.csv,"Read Version A","Dissertation, read only version A",EDITOR,NEWS,Study1,F,10,15,Study,User,-,,Study/JOL,"Study Phase",646,,,-1,-1,,,,1
5ede7d5c5b5d620e7a1d1ccf,wfmitvxh72,Nick_Dissertation_EX1,1,72,2020-07-08T14:57:07-07:00,1.0395159721375,1,versionA_stim.csv,READVersionA.csv,"Read Version A","Dissertation, read only version A",KEY,LATCH,Study1,B,36,53,Study,User,-,,Study/JOL,"Study Phase",549,,,-1,-1,,,,1
5ede7d5c5b5d620e7a1d1ccf,wfmitvxh72,Nick_Dissertation_EX1,1,73,2020-07-08T14:57:09-07:00,1.2790410518646,1,versionA_stim.csv,READVersionA.csv,"Read Version A","Dissertation, read only version A",WAGE,MONEY,Study1,F,8,24,Study,User,-,,Study/JOL,"Study Phase",789,,,-1,-1,,,,1
5ede7d5c5b5d620e7a1d1ccf,wfmitvxh72,Nick_Dissertation_EX1,1,74,2020-07-08T14:57:10-07:00,1.1608319282532,1,versionA_stim.csv,READVersionA.csv,"Read Version A","Dissertation, read only version A",GREAT,FANTASTIC,Study1,B,35,22,Study,User,-,,Study/JOL,"Study Phase",677,,,-1,-1,,,,1
5ede7d5c5b5d620e7a1d1ccf,wfmitvxh72,Nick_Dissertation_EX1,1,75,2020-07-08T14:57:12-07:00,2.0426409244537,1,versionA_stim.csv,READVersionA.csv,"Read Version A","Dissertation, read only version A",TRIAL,JURY,Study1,S,50,12,Study,User,-,,Study/JOL,"Study Phase",1540,,,-1,-1,,,,1
5ede7d5c5b5d620e7a1d1ccf,wfmitvxh72,Nick_Dissertation_EX1,1,76,2020-07-08T14:57:13-07:00,1.3689901828766,1,versionA_stim.csv,READVersionA.csv,"Read Version A","Dissertation, read only version A",DEATH,BUSINESS,Study1,U,72,7,Study,User,-,,Study/JOL,"Study Phase",866,,,-1,-1,,,,1
5ede7d5c5b5d620e7a1d1ccf,wfmitvxh72,Nick_Dissertation_EX1,1,77,2020-07-08T14:57:14-07:00,1.1301369667053,1,versionA_stim.csv,READVersionA.csv,"Read Version A","Dissertation, read only version A",HONEY,BEE,Study1,S,63,13,Study,User,-,,Study/JOL,"Study Phase",629,,,-1,-1,,,,1
5ede7d5c5b5d620e7a1d1ccf,wfmitvxh72,Nick_Dissertation_EX1,1,78,2020-07-08T14:57:15-07:00,1.1165239810944,1,versionA_stim.csv,READVersionA.csv,"Read Version A","Dissertation, read only version A",PAW,DOG,Study1,F,15,35,Study,User,-,,Study/JOL,"Study Phase",594,,,-1,-1,,,,1
5ede7d5c5b5d620e7a1d1ccf,wfmitvxh72,Nick_Dissertation_EX1,1,79,2020-07-08T14:57:17-07:00,1.114490032196,1,versionA_stim.csv,READVersionA.csv,"Read Version A","Dissertation, read only version A",TUNA,FISH,Study1,F,25,36,Study,User,-,,Study/JOL,"Study Phase",603,,,-1,-1,,,,1
5ede7d5c5b5d620e7a1d1ccf,wfmitvxh72,Nick_Dissertation_EX1,1,80,2020-07-08T14:57:18-07:00,1.075455904007,1,versionA_stim.csv,READVersionA.csv,"Read Version A","Dissertation, read only version A",SHOE,FOOT,Study1,S,60,42,Study,User,-,,Study/JOL,"Study Phase",576,,,-1,-1,,,,1
5ede7d5c5b5d620e7a1d1ccf,wfmitvxh72,Nick_Dissertation_EX1,1,81,2020-07-08T14:57:19-07:00,1.1144149303436,1,versionA_stim.csv,READVersionA.csv,"Read Version A","Dissertation, read only version A",HORNET,STING,Study1,F,11,28,Study,User,-,,Study/JOL,"Study Phase",622,,,-1,-1,,,,1
5ede7d5c5b5d620e7a1d1ccf,wfmitvxh72,Nick_Dissertation_EX1,1,82,2020-07-08T14:57:20-07:00,1.1435539722443,1,versionA_stim.csv,READVersionA.csv,"Read Version A","Dissertation, read only version A",CREDIT,CARD,Study1,F,23,85,Study,User,-,,Study/JOL,"Study Phase",617,,,-1,-1,,,,1
5ede7d5c5b5d620e7a1d1ccf,wfmitvxh72,Nick_Dissertation_EX1,1,83,2020-07-08T14:57:21-07:00,1.271311044693,1,versionA_stim.csv,READVersionA.csv,"Read Version A","Dissertation, read only version A",CLOTHES,ATTIRE,Study1,B,43,31,Study,User,-,,Study/JOL,"Study Phase",758,,,-1,-1,,,,1
5ede7d5c5b5d620e7a1d1ccf,wfmitvxh72,Nick_Dissertation_EX1,1,84,2020-07-08T14:57:22-07:00,1.0027740001678,1,versionA_stim.csv,READVersionA.csv,"Read Version A","Dissertation, read only version A",NUMBER,AMOUNT,Study1,S,47,18,Study,User,-,,Study/JOL,"Study Phase",504,,,-1,-1,,,,1
5ede7d5c5b5d620e7a1d1ccf,wfmitvxh72,Nick_Dissertation_EX1,1,85,2020-07-08T14:57:23-07:00,1.0615899562836,1,versionA_stim.csv,READVersionA.csv,"Read Version A","Dissertation, read only version A",SLEEP,DROWSY,Study1,B,41,47,Study,User,-,,Study/JOL,"Study Phase",577,,,-1,-1,,,,1
5ede7d5c5b5d620e7a1d1ccf,wfmitvxh72,Nick_Dissertation_EX1,1,86,2020-07-08T14:57:24-07:00,1.2623081207275,1,versionA_stim.csv,READVersionA.csv,"Read Version A","Dissertation, read only version A",HEIGHT,GROWTH,Study1,B,30,60,Study,User,-,,Study/JOL,"Study Phase",756,,,-1,-1,,,,1
5ede7d5c5b5d620e7a1d1ccf,wfmitvxh72,Nick_Dissertation_EX1,1,87,2020-07-08T14:57:26-07:00,1.2354800701141,1,versionA_stim.csv,READVersionA.csv,"Read Version A","Dissertation, read only version A",SHERRIF,POLICE,BUFFER2,Buffer,87,90,Study,User,-,,Study/JOL,BUFFER2,741,,,-1,-1,,,,1
5ede7d5c5b5d620e7a1d1ccf,wfmitvxh72,Nick_Dissertation_EX1,1,88,2020-07-08T14:57:27-07:00,1.2574548721313,1,versionA_stim.csv,READVersionA.csv,"Read Version A","Dissertation, read only version A",MOON,SPACE,BUFFER2,Buffer,89,91,Study,User,-,,Study/JOL,BUFFER2,756,,,-1,-1,,,,1
5ede7d5c5b5d620e7a1d1ccf,wfmitvxh72,Nick_Dissertation_EX1,1,89,2020-07-08T14:57:28-07:00,1.2386720180511,1,versionA_stim.csv,READVersionA.csv,"Read Version A","Dissertation, read only version A",THING,STUFF,BUFFER2,Buffer,90,87,Study,User,-,,Study/JOL,BUFFER2,756,,,-1,-1,,,,1
5ede7d5c5b5d620e7a1d1ccf,wfmitvxh72,Nick_Dissertation_EX1,1,90,2020-07-08T14:57:29-07:00,1.0163950920105,1,versionA_stim.csv,READVersionA.csv,"Read Version A","Dissertation, read only version A",MALT,CHOCOLATE,BUFFER2,Buffer,88,89,Study,User,-,,Study/JOL,BUFFER2,501,,,-1,-1,,,,1
5ede7d5c5b5d620e7a1d1ccf,wfmitvxh72,Nick_Dissertation_EX1,1,91,2020-07-08T14:57:30-07:00,1.2023799419403,1,versionA_stim.csv,READVersionA.csv,"Read Version A","Dissertation, read only version A",GEESE,GOOSE,BUFFER2,Buffer,86,88,Study,User,-,,Study/JOL,BUFFER2,545,,,-1,-1,,,,1
5ede7d5c5b5d620e7a1d1ccf,wfmitvxh72,Nick_Dissertation_EX1,1,92,2020-07-08T14:57:34-07:00,3.8318231105804,1,versionA_stim.csv,READVersionA.csv,"Read Version A","Dissertation, read only version A",,,,,,0,Instruct,User,-,"You have completed this section. Please press Enter.",Filler_Instruction,Instruct2,3307,,,-1,-1,,,,1
5ede7d5c5b5d620e7a1d1ccf,wfmitvxh72,Nick_Dissertation_EX1,1,93,2020-07-08T14:59:35-07:00,120.6884598732,1,versionA_stim.csv,READVersionA.csv,"Read Version A","Dissertation, read only version A",,,,,,0,FreeRecall,120,120,"Please list the 50 US states in alphabetical order. The task will automatically advance to the next screen after two minutes.",,Filler1,120005,"Alabama, Alaska, arizona, arskas, california, colarado, conneticut, delaware, florida, indiana, lowa, kansas, kentucky, louisina, maine, mairyland, massacchucets. Nabraska, ne",0,20173,119845,0,0,,0.923
5ede7d5c5b5d620e7a1d1ccf,wfmitvxh72,Nick_Dissertation_EX1,1,94,2020-07-08T14:59:56-07:00,21.283134937286,1,versionA_stim.csv,READVersionA.csv,"Read Version A","Dissertation, read only version A",,,,,,0,Instruct,-,10,"You will now be presented with the first word from each of the previously studied item pairs. Please type the missing word. If you do not know the word, you may guess or press Enter to skip forward to the next pair.",,Instruct3,20632,,,-1,-1,,,,1
5ede7d5c5b5d620e7a1d1ccf,wfmitvxh72,Nick_Dissertation_EX1,1,95,2020-07-08T15:00:15-07:00,18.942346096039,1,versionA_stim.csv,READVersionA.csv,"Read Version A","Dissertation, read only version A",DEATH,BUSINESS,Study1,U,72,7,Test,User,-,,Recall,Recall1,18388,Life,33.333333333333,7867,17571,0,0,,1
5ede7d5c5b5d620e7a1d1ccf,wfmitvxh72,Nick_Dissertation_EX1,1,96,2020-07-08T15:00:19-07:00,4.2949380874634,1,versionA_stim.csv,READVersionA.csv,"Read Version A","Dissertation, read only version A",ALLOW,TUCK,Study1,U,78,78,Test,User,-,,Recall,Recall1,3778,,0,-1,-1,0,0,,1
5ede7d5c5b5d620e7a1d1ccf,wfmitvxh72,Nick_Dissertation_EX1,1,97,2020-07-08T15:00:23-07:00,3.8715858459473,1,versionA_stim.csv,READVersionA.csv,"Read Version A","Dissertation, read only version A",PAST,FUTURE,Study1,S,61,49,Test,User,-,,Recall,Recall1,3359,future,100,1578,2733,1,1,,1
5ede7d5c5b5d620e7a1d1ccf,wfmitvxh72,Nick_Dissertation_EX1,1,98,2020-07-08T15:00:27-07:00,3.5194180011749,1,versionA_stim.csv,READVersionA.csv,"Read Version A","Dissertation, read only version A",STRONG,ACCIDENT,Study1,U,80,16,Test,User,-,,Recall,Recall1,2992,weak,16.666666666667,1341,1934,0,0,,1
5ede7d5c5b5d620e7a1d1ccf,wfmitvxh72,Nick_Dissertation_EX1,1,99,2020-07-08T15:00:33-07:00,6.4006650447845,1,versionA_stim.csv,READVersionA.csv,"Read Version A","Dissertation, read only version A",SHOE,FOOT,Study1,S,60,42,Test,User,-,,Recall,Recall1,5847,zone,25,4271,4951,0,0,,1
5ede7d5c5b5d620e7a1d1ccf,wfmitvxh72,Nick_Dissertation_EX1,1,100,2020-07-08T15:00:41-07:00,8.0562610626221,1,versionA_stim.csv,READVersionA.csv,"Read Version A","Dissertation, read only version A",PLANE,PILOT,Study1,B,44,38,Test,User,-,,Recall,Recall1,7502,flying,18.181818181818,2226,6664,0,0,,1
5ede7d5c5b5d620e7a1d1ccf,wfmitvxh72,Nick_Dissertation_EX1,1,101,2020-07-08T15:00:47-07:00,5.8495008945465,1,versionA_stim.csv,READVersionA.csv,"Read Version A","Dissertation, read only version A",BABY,CHILD,Study1,S,64,54,Test,User,-,,Recall,Recall1,5315,child,100,3860,4603,1,1,,1
5ede7d5c5b5d620e7a1d1ccf,wfmitvxh72,Nick_Dissertation_EX1,1,102,2020-07-08T15:00:54-07:00,6.4269471168518,1,versionA_stim.csv,READVersionA.csv,"Read Version A","Dissertation, read only version A",BRIDGE,WATER,Study1,F,18,41,Test,User,-,,Recall,Recall1,5916,walk,44.444444444444,4587,5129,0,0,,1
5ede7d5c5b5d620e7a1d1ccf,wfmitvxh72,Nick_Dissertation_EX1,1,103,2020-07-08T15:01:00-07:00,6.7347519397736,1,versionA_stim.csv,READVersionA.csv,"Read Version A","Dissertation, read only version A",DUMP,WASTE,Study1,S,49,83,Test,User,-,,Recall,Recall1,6213,messy,20,4440,5155,0,0,,1
5ede7d5c5b5d620e7a1d1ccf,wfmitvxh72,Nick_Dissertation_EX1,1,104,2020-07-08T15:01:10-07:00,9.6372139453888,1,versionA_stim.csv,READVersionA.csv,"Read Version A","Dissertation, read only version A",KIDNEY,LIVER,Study1,S,53,32,Test,User,-,,Recall,Recall1,9126,body,0,7714,8211,0,0,,1
5ede7d5c5b5d620e7a1d1ccf,wfmitvxh72,Nick_Dissertation_EX1,1,105,2020-07-08T15:01:23-07:00,13.377774000168,1,versionA_stim.csv,READVersionA.csv,"Read Version A","Dissertation, read only version A",HUNGER,FAMINE,Study1,B,40,26,Test,User,-,,Recall,Recall1,12832,full,20,7949,11968,0,0,,1
5ede7d5c5b5d620e7a1d1ccf,wfmitvxh72,Nick_Dissertation_EX1,1,106,2020-07-08T15:01:30-07:00,6.5748610496521,1,versionA_stim.csv,READVersionA.csv,"Read Version A","Dissertation, read only version A",HEIGHT,GROWTH,Study1,B,30,60,Test,User,-,,Recall,Recall1,5925,length,50,2957,4908,0,0,,1
5ede7d5c5b5d620e7a1d1ccf,wfmitvxh72,Nick_Dissertation_EX1,1,107,2020-07-08T15:01:33-07:00,2.8924479484558,1,versionA_stim.csv,READVersionA.csv,"Read Version A","Dissertation, read only version A",WAGE,MONEY,Study1,F,8,24,Test,User,-,,Recall,Recall1,2349,,0,-1,-1,0,0,,1
5ede7d5c5b5d620e7a1d1ccf,wfmitvxh72,Nick_Dissertation_EX1,1,108,2020-07-08T15:01:38-07:00,5.6547329425812,1,versionA_stim.csv,READVersionA.csv,"Read Version A","Dissertation, read only version A",CIRCLE,ROUND,Study1,S,65,77,Test,User,-,,Recall,Recall1,5137,square,18.181818181818,3460,4229,0,0,,1
5ede7d5c5b5d620e7a1d1ccf,wfmitvxh72,Nick_Dissertation_EX1,1,109,2020-07-08T15:01:42-07:00,3.1420860290527,1,versionA_stim.csv,READVersionA.csv,"Read Version A","Dissertation, read only version A",SUGAR,RIDDLE,Study1,U,81,33,Test,User,-,,Recall,Recall1,2624,sweet,18.181818181818,1705,2385,0,0,,1
5ede7d5c5b5d620e7a1d1ccf,wfmitvxh72,Nick_Dissertation_EX1,1,110,2020-07-08T15:01:45-07:00,3.2850890159607,1,versionA_stim.csv,READVersionA.csv,"Read Version A","Dissertation, read only version A",WAY,OUT,Study1,F,16,62,Test,User,-,,Recall,Recall1,2742,up,40,2301,2523,0,0,,1
5ede7d5c5b5d620e7a1d1ccf,wfmitvxh72,Nick_Dissertation_EX1,1,111,2020-07-08T15:01:49-07:00,4.5743081569672,1,versionA_stim.csv,READVersionA.csv,"Read Version A","Dissertation, read only version A",TAKE,SEIZE,Study1,B,29,55,Test,User,-,,Recall,Recall1,4053,give,44.444444444444,3344,3876,0,0,,1
5ede7d5c5b5d620e7a1d1ccf,wfmitvxh72,Nick_Dissertation_EX1,1,112,2020-07-08T15:01:52-07:00,2.7951819896698,1,versionA_stim.csv,READVersionA.csv,"Read Version A","Dissertation, read only version A",DARK,CAVE,Study1,B,28,50,Test,User,-,,Recall,Recall1,2276,light,0,1624,2166,0,0,,1
5ede7d5c5b5d620e7a1d1ccf,wfmitvxh72,Nick_Dissertation_EX1,1,113,2020-07-08T15:01:56-07:00,3.4126899242401,1,versionA_stim.csv,READVersionA.csv,"Read Version A","Dissertation, read only version A",HORNET,STING,Study1,F,11,28,Test,User,-,,Recall,Recall1,2865,wasp,22.222222222222,1783,2657,0,0,,1
5ede7d5c5b5d620e7a1d1ccf,wfmitvxh72,Nick_Dissertation_EX1,1,114,2020-07-08T15:01:58-07:00,2.4639120101929,1,versionA_stim.csv,READVersionA.csv,"Read Version A","Dissertation, read only version A",REVOLUTION,WAR,Study1,F,20,27,Test,User,-,,Recall,Recall1,1932,,0,-1,-1,0,0,,1
5ede7d5c5b5d620e7a1d1ccf,wfmitvxh72,Nick_Dissertation_EX1,1,115,2020-07-08T15:02:04-07:00,5.7184269428253,1,versionA_stim.csv,READVersionA.csv,"Read Version A","Dissertation, read only version A",DISCOVER,FLOOR,Study1,U,71,21,Test,User,-,,Recall,Recall1,5197,,0,2188,2188,0,0,,1
5ede7d5c5b5d620e7a1d1ccf,wfmitvxh72,Nick_Dissertation_EX1,1,116,2020-07-08T15:02:09-07:00,5.1753029823303,1,versionA_stim.csv,READVersionA.csv,"Read Version A","Dissertation, read only version A",BALL,RACKET,Study1,B,38,44,Test,User,-,,Recall,Recall1,4625,plY,0,2311,4393,0,0,,1
5ede7d5c5b5d620e7a1d1ccf,wfmitvxh72,Nick_Dissertation_EX1,1,117,2020-07-08T15:02:12-07:00,2.7457530498505,1,versionA_stim.csv,READVersionA.csv,"Read Version A","Dissertation, read only version A",HIDE,SICK,Study1,U,84,30,Test,User,-,,Recall,Recall1,2095,SEEK,50,1313,1843,0,0,,1
5ede7d5c5b5d620e7a1d1ccf,wfmitvxh72,Nick_Dissertation_EX1,1,118,2020-07-08T15:02:16-07:00,4.3630299568176,1,versionA_stim.csv,READVersionA.csv,"Read Version A","Dissertation, read only version A",KEY,LATCH,Study1,B,36,53,Test,User,-,,Recall,Recall1,3757,unlock,36.363636363636,2716,3555,0,0,,1
5ede7d5c5b5d620e7a1d1ccf,wfmitvxh72,Nick_Dissertation_EX1,1,119,2020-07-08T15:02:25-07:00,8.6735470294952,1,versionA_stim.csv,READVersionA.csv,"Read Version A","Dissertation, read only version A",BEGIN,END,Study1,S,54,65,Test,User,-,,Recall,Recall1,8126,finish,22.222222222222,6891,7646,0,0,,1
5ede7d5c5b5d620e7a1d1ccf,wfmitvxh72,Nick_Dissertation_EX1,1,120,2020-07-08T15:02:27-07:00,2.3121809959412,1,versionA_stim.csv,READVersionA.csv,"Read Version A","Dissertation, read only version A",ARTERY,BRONZE,Study1,U,74,14,Test,User,-,,Recall,Recall1,1741,,0,-1,-1,0,0,,1
5ede7d5c5b5d620e7a1d1ccf,wfmitvxh72,Nick_Dissertation_EX1,1,121,2020-07-08T15:02:42-07:00,14.404885053635,1,versionA_stim.csv,READVersionA.csv,"Read Version A","Dissertation, read only version A",CHISEL,HAMMER,Study1,F,9,46,Test,User,-,,Recall,Recall1,13710,tools,0,12471,13454,0,0,,1
5ede7d5c5b5d620e7a1d1ccf,wfmitvxh72,Nick_Dissertation_EX1,1,122,2020-07-08T15:02:48-07:00,6.5389590263367,1,versionA_stim.csv,READVersionA.csv,"Read Version A","Dissertation, read only version A",ART,LION,Study1,U,79,11,Test,User,-,,Recall,Recall1,5805,painting,33.333333333333,3697,5668,0,0,,1
5ede7d5c5b5d620e7a1d1ccf,wfmitvxh72,Nick_Dissertation_EX1,1,123,2020-07-08T15:02:54-07:00,5.6985368728638,1,versionA_stim.csv,READVersionA.csv,"Read Version A","Dissertation, read only version A",DRINK,SIP,Study1,B,27,48,Test,User,-,,Recall,Recall1,5168,eat,0,4565,4885,0,0,,1
5ede7d5c5b5d620e7a1d1ccf,wfmitvxh72,Nick_Dissertation_EX1,1,124,2020-07-08T15:02:56-07:00,1.9472961425781,1,versionA_stim.csv,READVersionA.csv,"Read Version A","Dissertation, read only version A",DELINQUENT,BAD,Study1,F,6,75,Test,User,-,,Recall,Recall1,1405,,0,-1,-1,0,0,,1
5ede7d5c5b5d620e7a1d1ccf,wfmitvxh72,Nick_Dissertation_EX1,1,125,2020-07-08T15:03:01-07:00,5.3867728710175,1,versionA_stim.csv,READVersionA.csv,"Read Version A","Dissertation, read only version A",LAW,ATTORNEY,Study1,B,34,10,Test,User,-,,Recall,Recall1,4871,legal,15.384615384615,4008,4633,0,0,,1
5ede7d5c5b5d620e7a1d1ccf,wfmitvxh72,Nick_Dissertation_EX1,1,126,2020-07-08T15:03:05-07:00,3.5249409675598,1,versionA_stim.csv,READVersionA.csv,"Read Version A","Dissertation, read only version A",PARK,HUNGRY,Study1,U,68,84,Test,User,-,,Recall,Recall1,3017,,0,-1,-1,0,0,,1
5ede7d5c5b5d620e7a1d1ccf,wfmitvxh72,Nick_Dissertation_EX1,1,127,2020-07-08T15:03:12-07:00,7.074362039566,1,versionA_stim.csv,READVersionA.csv,"Read Version A","Dissertation, read only version A",BLOW,WIND,Study1,S,55,68,Test,User,-,,Recall,Recall1,6534,,0,-1,-1,0,0,,1
5ede7d5c5b5d620e7a1d1ccf,wfmitvxh72,Nick_Dissertation_EX1,1,128,2020-07-08T15:03:15-07:00,3.7708690166473,1,versionA_stim.csv,READVersionA.csv,"Read Version A","Dissertation, read only version A",ROOT,PLANT,Study1,F,13,51,Test,User,-,,Recall,Recall1,3248,flower,18.181818181818,2259,3163,0,0,,1
5ede7d5c5b5d620e7a1d1ccf,wfmitvxh72,Nick_Dissertation_EX1,1,129,2020-07-08T15:03:20-07:00,4.2539091110229,1,versionA_stim.csv,READVersionA.csv,"Read Version A","Dissertation, read only version A",SENTENCE,WORD,Study1,B,31,79,Test,User,-,,Recall,Recall1,3744,word,100,2998,3605,1,1,,1
5ede7d5c5b5d620e7a1d1ccf,wfmitvxh72,Nick_Dissertation_EX1,1,130,2020-07-08T15:03:27-07:00,7.3619430065155,1,versionA_stim.csv,READVersionA.csv,"Read Version A","Dissertation, read only version A",LOCATION,SITE,Study1,S,48,86,Test,User,-,,Recall,Recall1,6819,destination,13.333333333333,4220,6706,0,0,,1
5ede7d5c5b5d620e7a1d1ccf,wfmitvxh72,Nick_Dissertation_EX1,1,131,2020-07-08T15:03:41-07:00,13.64894080162,1,versionA_stim.csv,READVersionA.csv,"Read Version A","Dissertation, read only version A",CLOTHES,ATTIRE,Study1,B,43,31,Test,User,-,,Recall,Recall1,13107,,0,-1,-1,0,0,,0.984
5ede7d5c5b5d620e7a1d1ccf,wfmitvxh72,Nick_Dissertation_EX1,1,132,2020-07-08T15:03:45-07:00,4.3554840087891,1,versionA_stim.csv,READVersionA.csv,"Read Version A","Dissertation, read only version A",WINE,CHEESE,Study1,S,57,45,Test,User,-,,Recall,Recall1,3687,tasting,15.384615384615,1795,3480,0,0,,1
5ede7d5c5b5d620e7a1d1ccf,wfmitvxh72,Nick_Dissertation_EX1,1,133,2020-07-08T15:03:53-07:00,7.9830691814423,1,versionA_stim.csv,READVersionA.csv,"Read Version A","Dissertation, read only version A",TRIAL,JURY,Study1,S,50,12,Test,User,-,,Recall,Recall1,7470,questions,15.384615384615,5738,7304,0,0,,1
5ede7d5c5b5d620e7a1d1ccf,wfmitvxh72,Nick_Dissertation_EX1,1,134,2020-07-08T15:04:04-07:00,11.274451971054,1,versionA_stim.csv,READVersionA.csv,"Read Version A","Dissertation, read only version A",POP,SODA,Study1,S,56,39,Test,User,-,,Recall,Recall1,10744,fizz,0,9973,10605,0,0,,1
5ede7d5c5b5d620e7a1d1ccf,wfmitvxh72,Nick_Dissertation_EX1,1,135,2020-07-08T15:04:10-07:00,5.7638819217682,1,versionA_stim.csv,READVersionA.csv,"Read Version A","Dissertation, read only version A",FIRE,BLAZE,Study1,B,45,20,Test,User,-,,Recall,Recall1,5109,hot,0,2474,4656,0,0,,1
5ede7d5c5b5d620e7a1d1ccf,wfmitvxh72,Nick_Dissertation_EX1,1,136,2020-07-08T15:04:19-07:00,9.2738430500031,1,versionA_stim.csv,READVersionA.csv,"Read Version A","Dissertation, read only version A",TUNA,FISH,Study1,F,25,36,Test,User,-,,Recall,Recall1,8772,fish,100,8158,8517,1,1,,1
5ede7d5c5b5d620e7a1d1ccf,wfmitvxh72,Nick_Dissertation_EX1,1,137,2020-07-08T15:04:21-07:00,1.8344209194183,1,versionA_stim.csv,READVersionA.csv,"Read Version A","Dissertation, read only version A",MACHINE,POSITION,Study1,U,76,66,Test,User,-,,Recall,Recall1,1312,,0,-1,-1,0,0,,1
5ede7d5c5b5d620e7a1d1ccf,wfmitvxh72,Nick_Dissertation_EX1,1,138,2020-07-08T15:04:27-07:00,5.4039990901947,1,versionA_stim.csv,READVersionA.csv,"Read Version A","Dissertation, read only version A",GEOLOGY,ROCK,Study1,F,19,67,Test,User,-,,Recall,Recall1,4870,science,18.181818181818,3410,4746,0,0,,1
5ede7d5c5b5d620e7a1d1ccf,wfmitvxh72,Nick_Dissertation_EX1,1,139,2020-07-08T15:04:36-07:00,9.435567855835,1,versionA_stim.csv,READVersionA.csv,"Read Version A","Dissertation, read only version A",DIGESTION,STOMACH,Study1,F,7,52,Test,User,-,,Recall,Recall1,8892,stomach,100,6150,8660,1,1,,1
5ede7d5c5b5d620e7a1d1ccf,wfmitvxh72,Nick_Dissertation_EX1,1,140,2020-07-08T15:04:42-07:00,5.5071201324463,1,versionA_stim.csv,READVersionA.csv,"Read Version A","Dissertation, read only version A",ARCHITECTURE,DESIGN,Study1,S,51,25,Test,User,-,,Recall,Recall1,4976,"buildi g",28.571428571429,3203,4827,0,0,,1
5ede7d5c5b5d620e7a1d1ccf,wfmitvxh72,Nick_Dissertation_EX1,1,141,2020-07-08T15:04:44-07:00,2.5313889980316,1,versionA_stim.csv,READVersionA.csv,"Read Version A","Dissertation, read only version A",LIFT,WOMAN,Study1,U,69,81,Test,User,-,,Recall,Recall1,2016,,0,-1,-1,0,0,,1
5ede7d5c5b5d620e7a1d1ccf,wfmitvxh72,Nick_Dissertation_EX1,1,142,2020-07-08T15:04:50-07:00,5.6273970603943,1,versionA_stim.csv,READVersionA.csv,"Read Version A","Dissertation, read only version A",GREAT,FANTASTIC,Study1,B,35,22,Test,User,-,,Recall,Recall1,5099,awful,14.285714285714,2639,4860,0,0,,1
5ede7d5c5b5d620e7a1d1ccf,wfmitvxh72,Nick_Dissertation_EX1,1,143,2020-07-08T15:04:53-07:00,2.8940229415894,1,versionA_stim.csv,READVersionA.csv,"Read Version A","Dissertation, read only version A",KING,VASE,Study1,U,85,56,Test,User,-,,Recall,Recall1,2359,queen,22.222222222222,1408,2045,0,0,,1
5ede7d5c5b5d620e7a1d1ccf,wfmitvxh72,Nick_Dissertation_EX1,1,144,2020-07-08T15:05:10-07:00,16.911103963852,1,versionA_stim.csv,READVersionA.csv,"Read Version A","Dissertation, read only version A",SOON,BELT,Study1,U,70,8,Test,User,-,,Recall,Recall1,16367,,0,9706,15397,0,0,,1
5ede7d5c5b5d620e7a1d1ccf,wfmitvxh72,Nick_Dissertation_EX1,1,145,2020-07-08T15:05:14-07:00,4.2745039463043,1,versionA_stim.csv,READVersionA.csv,"Read Version A","Dissertation, read only version A",DUE,ASSIGNMENT,Study1,S,46,19,Test,User,-,,Recall,Recall1,3719,date,28.571428571429,1825,3561,0,0,,1
5ede7d5c5b5d620e7a1d1ccf,wfmitvxh72,Nick_Dissertation_EX1,1,146,2020-07-08T15:05:17-07:00,3.5716061592102,1,versionA_stim.csv,READVersionA.csv,"Read Version A","Dissertation, read only version A",NUMBER,AMOUNT,Study1,S,47,18,Test,User,-,,Recall,Recall1,3032,letter,16.666666666667,2166,2915,0,0,,1
5ede7d5c5b5d620e7a1d1ccf,wfmitvxh72,Nick_Dissertation_EX1,1,147,2020-07-08T15:05:20-07:00,2.9062209129333,1,versionA_stim.csv,READVersionA.csv,"Read Version A","Dissertation, read only version A",EDITOR,NEWS,Study1,F,10,15,Test,User,-,,Recall,Recall1,2395,,0,-1,-1,0,0,,1
5ede7d5c5b5d620e7a1d1ccf,wfmitvxh72,Nick_Dissertation_EX1,1,148,2020-07-08T15:05:23-07:00,2.6918730735779,1,versionA_stim.csv,READVersionA.csv,"Read Version A","Dissertation, read only version A",VALLEY,ADD,Study1,U,82,17,Test,User,-,,Recall,Recall1,2147,,0,-1,-1,0,0,,1
5ede7d5c5b5d620e7a1d1ccf,wfmitvxh72,Nick_Dissertation_EX1,1,149,2020-07-08T15:05:26-07:00,3.2348778247833,1,versionA_stim.csv,READVersionA.csv,"Read Version A","Dissertation, read only version A",HYGIENE,CLEAN,Study1,F,17,71,Test,User,-,,Recall,Recall1,2623,clean,100,1816,2398,1,1,,1
5ede7d5c5b5d620e7a1d1ccf,wfmitvxh72,Nick_Dissertation_EX1,1,150,2020-07-08T15:05:32-07:00,6.2100269794464,1,versionA_stim.csv,READVersionA.csv,"Read Version A","Dissertation, read only version A",GRILL,BAR,Study1,S,52,70,Test,User,-,,Recall,Recall1,5662,oven,0,4876,5419,0,0,,1
5ede7d5c5b5d620e7a1d1ccf,wfmitvxh72,Nick_Dissertation_EX1,1,151,2020-07-08T15:05:38-07:00,5.2466540336609,1,versionA_stim.csv,READVersionA.csv,"Read Version A","Dissertation, read only version A",PUSHER,CLUTTER,Study1,U,66,57,Test,User,-,,Recall,Recall1,4696,pull,18.181818181818,3024,4493,0,0,,1
5ede7d5c5b5d620e7a1d1ccf,wfmitvxh72,Nick_Dissertation_EX1,1,152,2020-07-08T15:05:42-07:00,4.1871709823608,1,versionA_stim.csv,READVersionA.csv,"Read Version A","Dissertation, read only version A",LETTUCE,SALAD,Study1,S,59,76,Test,User,-,,Recall,Recall1,3613,vegetable,28.571428571429,2096,3288,0,0,,1
5ede7d5c5b5d620e7a1d1ccf,wfmitvxh72,Nick_Dissertation_EX1,1,153,2020-07-08T15:05:49-07:00,7.4500570297241,1,versionA_stim.csv,READVersionA.csv,"Read Version A","Dissertation, read only version A",BUG,WASP,Study1,B,32,9,Test,User,-,,Recall,Recall1,6919,spider,40,4494,6794,0,0,,1
5ede7d5c5b5d620e7a1d1ccf,wfmitvxh72,Nick_Dissertation_EX1,1,154,2020-07-08T15:05:58-07:00,9.1855120658875,1,versionA_stim.csv,READVersionA.csv,"Read Version A","Dissertation, read only version A",DIETARY,SACKING,Study1,U,67,69,Test,User,-,,Recall,Recall1,8443,nutrition,12.5,6612,8330,0,0,,1
5ede7d5c5b5d620e7a1d1ccf,wfmitvxh72,Nick_Dissertation_EX1,1,155,2020-07-08T15:06:04-07:00,5.0718541145325,1,versionA_stim.csv,READVersionA.csv,"Read Version A","Dissertation, read only version A",SLEEP,DROWSY,Study1,B,41,47,Test,User,-,,Recall,Recall1,4521,awake,18.181818181818,3404,4299,0,0,,1
5ede7d5c5b5d620e7a1d1ccf,wfmitvxh72,Nick_Dissertation_EX1,1,156,2020-07-08T15:06:13-07:00,9.2218248844147,1,versionA_stim.csv,READVersionA.csv,"Read Version A","Dissertation, read only version A",FULL,ENOUGH,Study1,B,26,43,Test,User,-,,Recall,Recall1,8656,empty,18.181818181818,4100,8587,0,0,,1
5ede7d5c5b5d620e7a1d1ccf,wfmitvxh72,Nick_Dissertation_EX1,1,157,2020-07-08T15:06:31-07:00,17.911593914032,1,versionA_stim.csv,READVersionA.csv,"Read Version A","Dissertation, read only version A",FIX,HAND,Study1,U,75,61,Test,User,-,,Recall,Recall1,16389,broken,20,4049,16163,0,0,,0.938
5ede7d5c5b5d620e7a1d1ccf,wfmitvxh72,Nick_Dissertation_EX1,1,158,2020-07-08T15:06:37-07:00,6.6675071716309,1,versionA_stim.csv,READVersionA.csv,"Read Version A","Dissertation, read only version A",MATH,DIVISION,Study1,B,33,73,Test,User,-,,Recall,Recall1,6113,numbers,13.333333333333,2842,6025,0,0,,1
5ede7d5c5b5d620e7a1d1ccf,wfmitvxh72,Nick_Dissertation_EX1,1,159,2020-07-08T15:06:42-07:00,4.4282510280609,1,versionA_stim.csv,READVersionA.csv,"Read Version A","Dissertation, read only version A",HOT,CHILI,Study1,B,37,74,Test,User,-,,Recall,Recall1,3892,cold,44.444444444444,2803,3561,0,0,,1
5ede7d5c5b5d620e7a1d1ccf,wfmitvxh72,Nick_Dissertation_EX1,1,160,2020-07-08T15:06:44-07:00,2.1740989685059,1,versionA_stim.csv,READVersionA.csv,"Read Version A","Dissertation, read only version A",HAPPY,CAR,Study1,U,77,40,Test,User,-,,Recall,Recall1,1638,sad,33.333333333333,1085,1553,0,0,,1
5ede7d5c5b5d620e7a1d1ccf,wfmitvxh72,Nick_Dissertation_EX1,1,161,2020-07-08T15:06:48-07:00,4.2425818443298,1,versionA_stim.csv,READVersionA.csv,"Read Version A","Dissertation, read only version A",SMELL,STENCH,Study1,B,42,59,Test,User,-,,Recall,Recall1,3740,sound,36.363636363636,2988,3605,0,0,,1
5ede7d5c5b5d620e7a1d1ccf,wfmitvxh72,Nick_Dissertation_EX1,1,162,2020-07-08T15:06:51-07:00,3.2929329872131,1,versionA_stim.csv,READVersionA.csv,"Read Version A","Dissertation, read only version A",BITTER,COLD,Study1,F,12,64,Test,User,-,,Recall,Recall1,2780,sweet,0,1871,2503,0,0,,1
5ede7d5c5b5d620e7a1d1ccf,wfmitvxh72,Nick_Dissertation_EX1,1,163,2020-07-08T15:06:56-07:00,4.0265200138092,1,versionA_stim.csv,READVersionA.csv,"Read Version A","Dissertation, read only version A",DEBATE,SIGHT,Study1,U,73,63,Test,User,-,,Recall,Recall1,3507,,0,-1,-1,0,0,,1
5ede7d5c5b5d620e7a1d1ccf,wfmitvxh72,Nick_Dissertation_EX1,1,164,2020-07-08T15:06:59-07:00,3.1257700920105,1,versionA_stim.csv,READVersionA.csv,"Read Version A","Dissertation, read only version A",HERD,COW,Study1,F,22,37,Test,User,-,,Recall,Recall1,2586,sheep,0,1769,2390,0,0,,1
5ede7d5c5b5d620e7a1d1ccf,wfmitvxh72,Nick_Dissertation_EX1,1,165,2020-07-08T15:07:02-07:00,3.8120238780975,1,versionA_stim.csv,READVersionA.csv,"Read Version A","Dissertation, read only version A",BATHROOM,TOILET,Study1,S,58,82,Test,User,-,,Recall,Recall1,3284,clean,36.363636363636,2476,3075,0,0,,1
5ede7d5c5b5d620e7a1d1ccf,wfmitvxh72,Nick_Dissertation_EX1,1,166,2020-07-08T15:07:10-07:00,7.3118650913239,1,versionA_stim.csv,READVersionA.csv,"Read Version A","Dissertation, read only version A",MEANING,DEFINITION,Study1,S,62,34,Test,User,-,,Recall,Recall1,6753,understanding,34.782608695652,3305,6688,0,0,,1
5ede7d5c5b5d620e7a1d1ccf,wfmitvxh72,Nick_Dissertation_EX1,1,167,2020-07-08T15:07:12-07:00,2.3400709629059,1,versionA_stim.csv,READVersionA.csv,"Read Version A","Dissertation, read only version A",DISCUSSION,TALK,Study1,F,21,80,Test,User,-,,Recall,Recall1,1822,,0,-1,-1,0,0,,1
5ede7d5c5b5d620e7a1d1ccf,wfmitvxh72,Nick_Dissertation_EX1,1,168,2020-07-08T15:07:17-07:00,5.2823450565338,1,versionA_stim.csv,READVersionA.csv,"Read Version A","Dissertation, read only version A",SWAN,BIRD,Study1,F,14,29,Test,User,-,,Recall,Recall1,4755,bird,100,3897,4590,1,1,,1
5ede7d5c5b5d620e7a1d1ccf,wfmitvxh72,Nick_Dissertation_EX1,1,169,2020-07-08T15:07:23-07:00,5.508208990097,1,versionA_stim.csv,READVersionA.csv,"Read Version A","Dissertation, read only version A",CASH,WOULD,Study1,U,83,58,Test,User,-,,Recall,Recall1,4971,card,22.222222222222,4385,4777,0,0,,1
5ede7d5c5b5d620e7a1d1ccf,wfmitvxh72,Nick_Dissertation_EX1,1,170,2020-07-08T15:07:28-07:00,4.8264920711517,1,versionA_stim.csv,READVersionA.csv,"Read Version A","Dissertation, read only version A",CREDIT,CARD,Study1,F,23,85,Test,User,-,,Recall,Recall1,4309,card,100,3741,4095,1,1,,1
5ede7d5c5b5d620e7a1d1ccf,wfmitvxh72,Nick_Dissertation_EX1,1,171,2020-07-08T15:07:31-07:00,2.7809200286865,1,versionA_stim.csv,READVersionA.csv,"Read Version A","Dissertation, read only version A",PAW,DOG,Study1,F,15,35,Test,User,-,,Recall,Recall1,2250,dog,100,1791,2098,1,1,,1
5ede7d5c5b5d620e7a1d1ccf,wfmitvxh72,Nick_Dissertation_EX1,1,172,2020-07-08T15:07:33-07:00,2.0933148860931,1,versionA_stim.csv,READVersionA.csv,"Read Version A","Dissertation, read only version A",ORCHID,FLOWER,Study1,F,24,23,Test,User,-,,Recall,Recall1,1596,,0,-1,-1,0,0,,1
5ede7d5c5b5d620e7a1d1ccf,wfmitvxh72,Nick_Dissertation_EX1,1,173,2020-07-08T15:07:36-07:00,3.0183720588684,1,versionA_stim.csv,READVersionA.csv,"Read Version A","Dissertation, read only version A",HONEY,BEE,Study1,S,63,13,Test,User,-,,Recall,Recall1,2481,sweet,50,1597,2218,0,0,,1
5ede7d5c5b5d620e7a1d1ccf,wfmitvxh72,Nick_Dissertation_EX1,1,174,2020-07-08T15:07:39-07:00,3.1245059967041,1,versionA_stim.csv,READVersionA.csv,"Read Version A","Dissertation, read only version A",WORK,CHORE,Study1,B,39,72,Test,User,-,,Recall,Recall1,2595,hard,44.444444444444,2020,2412,0,0,,1
5ede7d5c5b5d620e7a1d1ccf,wfmitvxh72,Nick_Dissertation_EX1,1,175,2020-07-08T15:07:50-07:00,11.44629907608,1,versionA_stim.csv,READVersionA.csv,"Read Version A","Dissertation, read only version A",,,,,,0,Instruct,-,10,"You will now be presented with a new set of word pairs. Please study each pair. Remember that your memory will be tested! When finished, press Enter to move to the next pair.",Initial_Instruct,Instruct4,10922,,,-1,-1,,,,1
5ede7d5c5b5d620e7a1d1ccf,wfmitvxh72,Nick_Dissertation_EX1,1,176,2020-07-08T15:07:52-07:00,1.4056189060211,1,versionA_stim.csv,READVersionA.csv,"Read Version A","Dissertation, read only version A",CAMP,ADVENTURE,BUFFER3,Buffer,95,94,Study,User,-,,Study/JOL,BUFFER3,723,,,-1,-1,,,,1
5ede7d5c5b5d620e7a1d1ccf,wfmitvxh72,Nick_Dissertation_EX1,1,177,2020-07-08T15:07:52-07:00,0.88300800323486,1,versionA_stim.csv,READVersionA.csv,"Read Version A","Dissertation, read only version A",ICE,FROZEN,BUFFER3,Buffer,94,96,Study,User,-,,Study/JOL,BUFFER3,376,,,-1,-1,,,,1
5ede7d5c5b5d620e7a1d1ccf,wfmitvxh72,Nick_Dissertation_EX1,1,178,2020-07-08T15:07:53-07:00,0.97066688537598,1,versionA_stim.csv,READVersionA.csv,"Read Version A","Dissertation, read only version A",CARROT,POTATO,BUFFER3,Buffer,91,93,Study,User,-,,Study/JOL,BUFFER3,386,,,-1,-1,,,,1
5ede7d5c5b5d620e7a1d1ccf,wfmitvxh72,Nick_Dissertation_EX1,1,179,2020-07-08T15:07:55-07:00,1.0580010414124,1,versionA_stim.csv,READVersionA.csv,"Read Version A","Dissertation, read only version A",SHRIMP,FISH,BUFFER3,Buffer,93,95,Study,User,-,,Study/JOL,BUFFER3,545,,,-1,-1,,,,1
5ede7d5c5b5d620e7a1d1ccf,wfmitvxh72,Nick_Dissertation_EX1,1,180,2020-07-08T15:07:55-07:00,0.88302707672119,1,versionA_stim.csv,READVersionA.csv,"Read Version A","Dissertation, read only version A",NOODLE,STRING,BUFFER3,Buffer,92,92,Study,User,-,,Study/JOL,BUFFER3,379,,,-1,-1,,,,1
5ede7d5c5b5d620e7a1d1ccf,wfmitvxh72,Nick_Dissertation_EX1,1,181,2020-07-08T15:07:57-07:00,1.3968529701233,1,versionA_stim.csv,READVersionA.csv,"Read Version A","Dissertation, read only version A",MAIN,SCAR,Study2,U,175,142,Study,User,-,,Study/JOL,"Study Phase2",885,,,-1,-1,,,,1
5ede7d5c5b5d620e7a1d1ccf,wfmitvxh72,Nick_Dissertation_EX1,1,182,2020-07-08T15:07:58-07:00,1.1453890800476,1,versionA_stim.csv,READVersionA.csv,"Read Version A","Dissertation, read only version A",TEMPERATURE,Morning,Study2,U,173,153,Study,User,-,,Study/JOL,"Study Phase2",646,,,-1,-1,,,,1
5ede7d5c5b5d620e7a1d1ccf,wfmitvxh72,Nick_Dissertation_EX1,1,183,2020-07-08T15:07:59-07:00,1.1492178440094,1,versionA_stim.csv,READVersionA.csv,"Read Version A","Dissertation, read only version A",WRIST,BRACELET,Study2,S,140,128,Study,User,-,,Study/JOL,"Study Phase2",649,,,-1,-1,,,,1
5ede7d5c5b5d620e7a1d1ccf,wfmitvxh72,Nick_Dissertation_EX1,1,184,2020-07-08T15:08:00-07:00,1.1882920265198,1,versionA_stim.csv,READVersionA.csv,"Read Version A","Dissertation, read only version A",STRETCH,CLOTH,Study2,U,157,123,Study,User,-,,Study/JOL,"Study Phase2",701,,,-1,-1,,,,1
5ede7d5c5b5d620e7a1d1ccf,wfmitvxh72,Nick_Dissertation_EX1,1,185,2020-07-08T15:08:01-07:00,0.90725302696228,1,versionA_stim.csv,READVersionA.csv,"Read Version A","Dissertation, read only version A",FUZZY,BANG,Study2,U,168,113,Study,User,-,,Study/JOL,"Study Phase2",399,,,-1,-1,,,,1
5ede7d5c5b5d620e7a1d1ccf,wfmitvxh72,Nick_Dissertation_EX1,1,186,2020-07-08T15:08:02-07:00,0.8240430355072,1,versionA_stim.csv,READVersionA.csv,"Read Version A","Dissertation, read only version A",SLEEP,NAP,Study2,B,134,150,Study,User,-,,Study/JOL,"Study Phase2",308,,,-1,-1,,,,1
5ede7d5c5b5d620e7a1d1ccf,wfmitvxh72,Nick_Dissertation_EX1,1,187,2020-07-08T15:08:03-07:00,0.93694400787354,1,versionA_stim.csv,READVersionA.csv,"Read Version A","Dissertation, read only version A",CAR,WINDSHIELD,Study2,B,117,126,Study,User,-,,Study/JOL,"Study Phase2",360,,,-1,-1,,,,1
5ede7d5c5b5d620e7a1d1ccf,wfmitvxh72,Nick_Dissertation_EX1,1,188,2020-07-08T15:08:04-07:00,0.90239000320435,1,versionA_stim.csv,READVersionA.csv,"Read Version A","Dissertation, read only version A",JUSTICE,MAROON,Study2,U,156,140,Study,User,-,,Study/JOL,"Study Phase2",381,,,-1,-1,,,,1
5ede7d5c5b5d620e7a1d1ccf,wfmitvxh72,Nick_Dissertation_EX1,1,189,2020-07-08T15:08:05-07:00,1.2562849521637,1,versionA_stim.csv,READVersionA.csv,"Read Version A","Dissertation, read only version A",ALONE,LONELY,Study2,S,145,139,Study,User,-,,Study/JOL,"Study Phase2",716,,,-1,-1,,,,1
5ede7d5c5b5d620e7a1d1ccf,wfmitvxh72,Nick_Dissertation_EX1,1,190,2020-07-08T15:08:06-07:00,1.2081401348114,1,versionA_stim.csv,READVersionA.csv,"Read Version A","Dissertation, read only version A",GONE,AWAY,Study2,S,142,164,Study,User,-,,Study/JOL,"Study Phase2",649,,,-1,-1,,,,1
5ede7d5c5b5d620e7a1d1ccf,wfmitvxh72,Nick_Dissertation_EX1,1,191,2020-07-08T15:08:09-07:00,2.3548438549042,1,versionA_stim.csv,READVersionA.csv,"Read Version A","Dissertation, read only version A",DEAD,COFFIN,Study2,B,128,141,Study,User,-,,Study/JOL,"Study Phase2",784,,,-1,-1,,,,1
5ede7d5c5b5d620e7a1d1ccf,wfmitvxh72,Nick_Dissertation_EX1,1,192,2020-07-08T15:08:10-07:00,0.85848903656006,1,versionA_stim.csv,READVersionA.csv,"Read Version A","Dissertation, read only version A",Shell,SHAKE,Study2,U,163,134,Study,User,-,,Study/JOL,"Study Phase2",356,,,-1,-1,,,,1
5ede7d5c5b5d620e7a1d1ccf,wfmitvxh72,Nick_Dissertation_EX1,1,193,2020-07-08T15:08:10-07:00,0.81158804893494,1,versionA_stim.csv,READVersionA.csv,"Read Version A","Dissertation, read only version A",ROD,REEL,Study2,S,150,154,Study,User,-,,Study/JOL,"Study Phase2",305,,,-1,-1,,,,1
5ede7d5c5b5d620e7a1d1ccf,wfmitvxh72,Nick_Dissertation_EX1,1,194,2020-07-08T15:08:11-07:00,0.8164598941803,1,versionA_stim.csv,READVersionA.csv,"Read Version A","Dissertation, read only version A",EXTENSION,LONG,Study2,F,96,124,Study,User,-,,Study/JOL,"Study Phase2",319,,,-1,-1,,,,1
5ede7d5c5b5d620e7a1d1ccf,wfmitvxh72,Nick_Dissertation_EX1,1,195,2020-07-08T15:08:12-07:00,0.92132711410522,1,versionA_stim.csv,READVersionA.csv,"Read Version A","Dissertation, read only version A",MONEY,BANKER,Study2,B,132,100,Study,User,-,,Study/JOL,"Study Phase2",337,,,-1,-1,,,,1
5ede7d5c5b5d620e7a1d1ccf,wfmitvxh72,Nick_Dissertation_EX1,1,196,2020-07-08T15:08:13-07:00,0.84449696540833,1,versionA_stim.csv,READVersionA.csv,"Read Version A","Dissertation, read only version A",FLEA,TICK,Study2,S,151,145,Study,User,-,,Study/JOL,"Study Phase2",274,,,-1,-1,,,,1
5ede7d5c5b5d620e7a1d1ccf,wfmitvxh72,Nick_Dissertation_EX1,1,197,2020-07-08T15:08:14-07:00,0.86095190048218,1,versionA_stim.csv,READVersionA.csv,"Read Version A","Dissertation, read only version A",SCALP,HEAD,Study2,F,105,149,Study,User,-,,Study/JOL,"Study Phase2",329,,,-1,-1,,,,1
5ede7d5c5b5d620e7a1d1ccf,wfmitvxh72,Nick_Dissertation_EX1,1,198,2020-07-08T15:08:15-07:00,0.83660817146301,1,versionA_stim.csv,READVersionA.csv,"Read Version A","Dissertation, read only version A",NAME,HATE,Study2,U,167,173,Study,User,-,,Study/JOL,"Study Phase2",335,,,-1,-1,,,,1
5ede7d5c5b5d620e7a1d1ccf,wfmitvxh72,Nick_Dissertation_EX1,1,199,2020-07-08T15:08:16-07:00,0.98152494430542,1,versionA_stim.csv,READVersionA.csv,"Read Version A","Dissertation, read only version A",KEYS,JOKE,Study2,U,165,169,Study,User,-,,Study/JOL,"Study Phase2",391,,,-1,-1,,,,1
5ede7d5c5b5d620e7a1d1ccf,wfmitvxh72,Nick_Dissertation_EX1,1,200,2020-07-08T15:08:16-07:00,0.80875587463379,1,versionA_stim.csv,READVersionA.csv,"Read Version A","Dissertation, read only version A",FRUIT,STRAWBERRY,Study2,B,124,127,Study,User,-,,Study/JOL,"Study Phase2",297,,,-1,-1,,,,1
5ede7d5c5b5d620e7a1d1ccf,wfmitvxh72,Nick_Dissertation_EX1,1,201,2020-07-08T15:08:17-07:00,0.87900710105896,1,versionA_stim.csv,READVersionA.csv,"Read Version A","Dissertation, read only version A",RAZOR,SHAVE,Study2,S,136,120,Study,User,-,,Study/JOL,"Study Phase2",331,,,-1,-1,,,,1
5ede7d5c5b5d620e7a1d1ccf,wfmitvxh72,Nick_Dissertation_EX1,1,202,2020-07-08T15:08:19-07:00,1.8944849967957,1,versionA_stim.csv,READVersionA.csv,"Read Version A","Dissertation, read only version A",POP,BALLOON,Study2,B,123,138,Study,User,-,,Study/JOL,"Study Phase2",388,,,-1,-1,,,,1
5ede7d5c5b5d620e7a1d1ccf,wfmitvxh72,Nick_Dissertation_EX1,1,203,2020-07-08T15:08:20-07:00,0.94517493247986,1,versionA_stim.csv,READVersionA.csv,"Read Version A","Dissertation, read only version A",ADJOURN,END,Study2,F,101,170,Study,User,-,,Study/JOL,"Study Phase2",406,,,-1,-1,,,,1
5ede7d5c5b5d620e7a1d1ccf,wfmitvxh72,Nick_Dissertation_EX1,1,204,2020-07-08T15:08:21-07:00,0.85907506942749,1,versionA_stim.csv,READVersionA.csv,"Read Version A","Dissertation, read only version A",CRACKLE,ABLE,Study2,U,162,163,Study,User,-,,Study/JOL,"Study Phase2",330,,,-1,-1,,,,1
5ede7d5c5b5d620e7a1d1ccf,wfmitvxh72,Nick_Dissertation_EX1,1,205,2020-07-08T15:08:22-07:00,0.84437203407288,1,versionA_stim.csv,READVersionA.csv,"Read Version A","Dissertation, read only version A",TANTRUM,TEMPER,Study2,S,154,106,Study,User,-,,Study/JOL,"Study Phase2",321,,,-1,-1,,,,1
5ede7d5c5b5d620e7a1d1ccf,wfmitvxh72,Nick_Dissertation_EX1,1,206,2020-07-08T15:08:23-07:00,0.83630800247192,1,versionA_stim.csv,READVersionA.csv,"Read Version A","Dissertation, read only version A",PLANE,AIRCRAFT,Study2,B,129,111,Study,User,-,,Study/JOL,"Study Phase2",330,,,-1,-1,,,,1
5ede7d5c5b5d620e7a1d1ccf,wfmitvxh72,Nick_Dissertation_EX1,1,207,2020-07-08T15:08:24-07:00,0.91931700706482,1,versionA_stim.csv,READVersionA.csv,"Read Version A","Dissertation, read only version A",BASEBALL,LEAGUE,Study2,B,131,125,Study,User,-,,Study/JOL,"Study Phase2",318,,,-1,-1,,,,1
5ede7d5c5b5d620e7a1d1ccf,wfmitvxh72,Nick_Dissertation_EX1,1,208,2020-07-08T15:08:24-07:00,0.76243686676025,1,versionA_stim.csv,READVersionA.csv,"Read Version A","Dissertation, read only version A",VEHICLE,CHARM,Study2,U,160,172,Study,User,-,,Study/JOL,"Study Phase2",264,,,-1,-1,,,,1
5ede7d5c5b5d620e7a1d1ccf,wfmitvxh72,Nick_Dissertation_EX1,1,209,2020-07-08T15:08:25-07:00,0.82211112976074,1,versionA_stim.csv,READVersionA.csv,"Read Version A","Dissertation, read only version A",CHOP,CUT,Study2,F,107,104,Study,User,-,,Study/JOL,"Study Phase2",258,,,-1,-1,,,,1
5ede7d5c5b5d620e7a1d1ccf,wfmitvxh72,Nick_Dissertation_EX1,1,210,2020-07-08T15:08:26-07:00,0.87405586242676,1,versionA_stim.csv,READVersionA.csv,"Read Version A","Dissertation, read only version A",RIGHTS,EQUAL,Study2,S,137,144,Study,User,-,,Study/JOL,"Study Phase2",304,,,-1,-1,,,,1
5ede7d5c5b5d620e7a1d1ccf,wfmitvxh72,Nick_Dissertation_EX1,1,211,2020-07-08T15:08:27-07:00,0.80119204521179,1,versionA_stim.csv,READVersionA.csv,"Read Version A","Dissertation, read only version A",ELEMENT,CARBON,Study2,S,141,171,Study,User,-,,Study/JOL,"Study Phase2",281,,,-1,-1,,,,1
5ede7d5c5b5d620e7a1d1ccf,wfmitvxh72,Nick_Dissertation_EX1,1,212,2020-07-08T15:08:28-07:00,0.76139497756958,1,versionA_stim.csv,READVersionA.csv,"Read Version A","Dissertation, read only version A",MULE,DONKEY,Study2,F,108,161,Study,User,-,,Study/JOL,"Study Phase2",243,,,-1,-1,,,,1
5ede7d5c5b5d620e7a1d1ccf,wfmitvxh72,Nick_Dissertation_EX1,1,213,2020-07-08T15:08:28-07:00,0.80214500427246,1,versionA_stim.csv,READVersionA.csv,"Read Version A","Dissertation, read only version A",DOCUMENT,PAPER,Study2,F,109,148,Study,User,-,,Study/JOL,"Study Phase2",313,,,-1,-1,,,,1
5ede7d5c5b5d620e7a1d1ccf,wfmitvxh72,Nick_Dissertation_EX1,1,214,2020-07-08T15:08:29-07:00,0.80925917625427,1,versionA_stim.csv,READVersionA.csv,"Read Version A","Dissertation, read only version A",MOAT,CLEAR,Study2,U,169,99,Study,User,-,,Study/JOL,"Study Phase2",277,,,-1,-1,,,,1
5ede7d5c5b5d620e7a1d1ccf,wfmitvxh72,Nick_Dissertation_EX1,1,215,2020-07-08T15:08:30-07:00,0.82737183570862,1,versionA_stim.csv,READVersionA.csv,"Read Version A","Dissertation, read only version A",SHOELACE,TIE,Study2,F,99,160,Study,User,-,,Study/JOL,"Study Phase2",309,,,-1,-1,,,,1
5ede7d5c5b5d620e7a1d1ccf,wfmitvxh72,Nick_Dissertation_EX1,1,216,2020-07-08T15:08:31-07:00,1.1193201541901,1,versionA_stim.csv,READVersionA.csv,"Read Version A","Dissertation, read only version A",PHONE,COMMUNICATION,Study2,S,149,137,Study,User,-,,Study/JOL,"Study Phase2",580,,,-1,-1,,,,1
5ede7d5c5b5d620e7a1d1ccf,wfmitvxh72,Nick_Dissertation_EX1,1,217,2020-07-08T15:08:32-07:00,0.76692390441895,1,versionA_stim.csv,READVersionA.csv,"Read Version A","Dissertation, read only version A",STAR,ACTRESS,Study2,B,120,105,Study,User,-,,Study/JOL,"Study Phase2",257,,,-1,-1,,,,1
5ede7d5c5b5d620e7a1d1ccf,wfmitvxh72,Nick_Dissertation_EX1,1,218,2020-07-08T15:08:33-07:00,0.85687708854675,1,versionA_stim.csv,READVersionA.csv,"Read Version A","Dissertation, read only version A",FIGHT,BRAWL,Study2,B,135,174,Study,User,-,,Study/JOL,"Study Phase2",346,,,-1,-1,,,,1
5ede7d5c5b5d620e7a1d1ccf,wfmitvxh72,Nick_Dissertation_EX1,1,219,2020-07-08T15:08:34-07:00,0.87083387374878,1,versionA_stim.csv,READVersionA.csv,"Read Version A","Dissertation, read only version A",SAFETY,SEATBELT,Study2,S,147,117,Study,User,-,,Study/JOL,"Study Phase2",364,,,-1,-1,,,,1
5ede7d5c5b5d620e7a1d1ccf,wfmitvxh72,Nick_Dissertation_EX1,1,220,2020-07-08T15:08:34-07:00,0.83428597450256,1,versionA_stim.csv,READVersionA.csv,"Read Version A","Dissertation, read only version A",LISTEN,FICTION,Study2,U,164,130,Study,User,-,,Study/JOL,"Study Phase2",295,,,-1,-1,,,,1
5ede7d5c5b5d620e7a1d1ccf,wfmitvxh72,Nick_Dissertation_EX1,1,221,2020-07-08T15:08:35-07:00,0.87609004974365,1,versionA_stim.csv,READVersionA.csv,"Read Version A","Dissertation, read only version A",FEUD,FIGHT,Study2,F,113,167,Study,User,-,,Study/JOL,"Study Phase2",364,,,-1,-1,,,,1
5ede7d5c5b5d620e7a1d1ccf,wfmitvxh72,Nick_Dissertation_EX1,1,222,2020-07-08T15:08:36-07:00,0.84631490707397,1,versionA_stim.csv,READVersionA.csv,"Read Version A","Dissertation, read only version A",TURN,FLIP,Study2,B,116,176,Study,User,-,,Study/JOL,"Study Phase2",315,,,-1,-1,,,,1
5ede7d5c5b5d620e7a1d1ccf,wfmitvxh72,Nick_Dissertation_EX1,1,223,2020-07-08T15:08:37-07:00,0.55633616447449,1,versionA_stim.csv,READVersionA.csv,"Read Version A","Dissertation, read only version A",MIRROR,CHILDREN,Study2,U,174,97,Study,User,-,,Study/JOL,"Study Phase2",11,,,-1,-1,,,,1
5ede7d5c5b5d620e7a1d1ccf,wfmitvxh72,Nick_Dissertation_EX1,1,224,2020-07-08T15:08:38-07:00,0.76010084152222,1,versionA_stim.csv,READVersionA.csv,"Read Version A","Dissertation, read only version A",BAD,VILLAIN,Study2,B,118,146,Study,User,-,,Study/JOL,"Study Phase2",243,,,-1,-1,,,,1
5ede7d5c5b5d620e7a1d1ccf,wfmitvxh72,Nick_Dissertation_EX1,1,225,2020-07-08T15:08:38-07:00,0.84091997146606,1,versionA_stim.csv,READVersionA.csv,"Read Version A","Dissertation, read only version A",GLASS,BREAKABLE,Study2,B,127,147,Study,User,-,,Study/JOL,"Study Phase2",336,,,-1,-1,,,,1
5ede7d5c5b5d620e7a1d1ccf,wfmitvxh72,Nick_Dissertation_EX1,1,226,2020-07-08T15:08:40-07:00,1.3109900951385,1,versionA_stim.csv,READVersionA.csv,"Read Version A","Dissertation, read only version A",CANDLE,WAX,Study2,S,139,159,Study,User,-,,Study/JOL,"Study Phase2",769,,,-1,-1,,,,1
5ede7d5c5b5d620e7a1d1ccf,wfmitvxh72,Nick_Dissertation_EX1,1,227,2020-07-08T15:08:42-07:00,1.8892669677734,1,versionA_stim.csv,READVersionA.csv,"Read Version A","Dissertation, read only version A",BIRD,PENGUIN,Study2,B,119,119,Study,User,-,,Study/JOL,"Study Phase2",1389,,,-1,-1,,,,1
5ede7d5c5b5d620e7a1d1ccf,wfmitvxh72,Nick_Dissertation_EX1,1,228,2020-07-08T15:08:43-07:00,1.1684520244598,1,versionA_stim.csv,READVersionA.csv,"Read Version A","Dissertation, read only version A",THREAD,THIMBLE,Study2,B,121,168,Study,User,-,,Study/JOL,"Study Phase2",680,,,-1,-1,,,,1
5ede7d5c5b5d620e7a1d1ccf,wfmitvxh72,Nick_Dissertation_EX1,1,229,2020-07-08T15:08:44-07:00,1.1597490310669,1,versionA_stim.csv,READVersionA.csv,"Read Version A","Dissertation, read only version A",BEST,FAVORITE,Study2,B,125,108,Study,User,-,,Study/JOL,"Study Phase2",649,,,-1,-1,,,,1
5ede7d5c5b5d620e7a1d1ccf,wfmitvxh72,Nick_Dissertation_EX1,1,230,2020-07-08T15:08:45-07:00,1.0698840618134,1,versionA_stim.csv,READVersionA.csv,"Read Version A","Dissertation, read only version A",TRUTH,LIE,Study2,S,148,131,Study,User,-,,Study/JOL,"Study Phase2",561,,,-1,-1,,,,1
5ede7d5c5b5d620e7a1d1ccf,wfmitvxh72,Nick_Dissertation_EX1,1,231,2020-07-08T15:08:47-07:00,2.1801300048828,1,versionA_stim.csv,READVersionA.csv,"Read Version A","Dissertation, read only version A",WATER,DRINK,Study2,S,143,162,Study,User,-,,Study/JOL,"Study Phase2",659,,,-1,-1,,,,1
5ede7d5c5b5d620e7a1d1ccf,wfmitvxh72,Nick_Dissertation_EX1,1,232,2020-07-08T15:08:48-07:00,1.201094865799,1,versionA_stim.csv,READVersionA.csv,"Read Version A","Dissertation, read only version A",CLUE,GAME,Study2,F,97,156,Study,User,-,,Study/JOL,"Study Phase2",588,,,-1,-1,,,,1
5ede7d5c5b5d620e7a1d1ccf,wfmitvxh72,Nick_Dissertation_EX1,1,233,2020-07-08T15:08:50-07:00,1.1884031295776,1,versionA_stim.csv,READVersionA.csv,"Read Version A","Dissertation, read only version A",GIVE,STEAK,Study2,U,158,107,Study,User,-,,Study/JOL,"Study Phase2",677,,,-1,-1,,,,1
5ede7d5c5b5d620e7a1d1ccf,wfmitvxh72,Nick_Dissertation_EX1,1,234,2020-07-08T15:08:51-07:00,1.2163038253784,1,versionA_stim.csv,READVersionA.csv,"Read Version A","Dissertation, read only version A",MAZE,ELECTION,Study2,U,159,114,Study,User,-,,Study/JOL,"Study Phase2",661,,,-1,-1,,,,1
5ede7d5c5b5d620e7a1d1ccf,wfmitvxh72,Nick_Dissertation_EX1,1,235,2020-07-08T15:08:52-07:00,1.1739480495453,1,versionA_stim.csv,READVersionA.csv,"Read Version A","Dissertation, read only version A",MASON,JAR,Study2,S,138,165,Study,User,-,,Study/JOL,"Study Phase2",616,,,-1,-1,,,,1
5ede7d5c5b5d620e7a1d1ccf,wfmitvxh72,Nick_Dissertation_EX1,1,236,2020-07-08T15:08:53-07:00,1.0977621078491,1,versionA_stim.csv,READVersionA.csv,"Read Version A","Dissertation, read only version A",LITTER,TRASH,Study2,F,103,103,Study,User,-,,Study/JOL,"Study Phase2",603,,,-1,-1,,,,1
5ede7d5c5b5d620e7a1d1ccf,wfmitvxh72,Nick_Dissertation_EX1,1,237,2020-07-08T15:08:54-07:00,1.2030799388885,1,versionA_stim.csv,READVersionA.csv,"Read Version A","Dissertation, read only version A",CACTUS,PLANT,Study2,F,98,115,Study,User,-,,Study/JOL,"Study Phase2",631,,,-1,-1,,,,1
5ede7d5c5b5d620e7a1d1ccf,wfmitvxh72,Nick_Dissertation_EX1,1,238,2020-07-08T15:08:55-07:00,1.2494940757751,1,versionA_stim.csv,READVersionA.csv,"Read Version A","Dissertation, read only version A",CHERRY,RED,Study2,F,104,110,Study,User,-,,Study/JOL,"Study Phase2",755,,,-1,-1,,,,1
5ede7d5c5b5d620e7a1d1ccf,wfmitvxh72,Nick_Dissertation_EX1,1,239,2020-07-08T15:08:57-07:00,1.1492838859558,1,versionA_stim.csv,READVersionA.csv,"Read Version A","Dissertation, read only version A",OWN,HAVE,Study2,S,153,129,Study,User,-,,Study/JOL,"Study Phase2",636,,,-1,-1,,,,1
5ede7d5c5b5d620e7a1d1ccf,wfmitvxh72,Nick_Dissertation_EX1,1,240,2020-07-08T15:08:58-07:00,1.681223154068,1,versionA_stim.csv,READVersionA.csv,"Read Version A","Dissertation, read only version A",DETECTIVE,MYSTERY,Study2,F,100,101,Study,User,-,,Study/JOL,"Study Phase2",1185,,,-1,-1,,,,1
5ede7d5c5b5d620e7a1d1ccf,wfmitvxh72,Nick_Dissertation_EX1,1,241,2020-07-08T15:09:00-07:00,1.3133490085602,1,versionA_stim.csv,READVersionA.csv,"Read Version A","Dissertation, read only version A",BOTH,OUNCE,Study2,U,172,152,Study,User,-,,Study/JOL,"Study Phase2",790,,,-1,-1,,,,1
5ede7d5c5b5d620e7a1d1ccf,wfmitvxh72,Nick_Dissertation_EX1,1,242,2020-07-08T15:09:01-07:00,1.2587029933929,1,versionA_stim.csv,READVersionA.csv,"Read Version A","Dissertation, read only version A",CAT,PANTHER,Study2,B,126,136,Study,User,-,,Study/JOL,"Study Phase2",743,,,-1,-1,,,,1
5ede7d5c5b5d620e7a1d1ccf,wfmitvxh72,Nick_Dissertation_EX1,1,243,2020-07-08T15:09:02-07:00,1.1124768257141,1,versionA_stim.csv,READVersionA.csv,"Read Version A","Dissertation, read only version A",LEASE,TOIL,Study2,U,170,143,Study,User,-,,Study/JOL,"Study Phase2",610,,,-1,-1,,,,1
5ede7d5c5b5d620e7a1d1ccf,wfmitvxh72,Nick_Dissertation_EX1,1,244,2020-07-08T15:09:04-07:00,1.747346162796,1,versionA_stim.csv,READVersionA.csv,"Read Version A","Dissertation, read only version A",INCENSE,SMELL,Study2,F,110,166,Study,User,-,,Study/JOL,"Study Phase2",1223,,,-1,-1,,,,1
5ede7d5c5b5d620e7a1d1ccf,wfmitvxh72,Nick_Dissertation_EX1,1,245,2020-07-08T15:09:05-07:00,1.5440897941589,1,versionA_stim.csv,READVersionA.csv,"Read Version A","Dissertation, read only version A",LOUD,NOISE,Study2,S,152,151,Study,User,-,,Study/JOL,"Study Phase2",1007,,,-1,-1,,,,1
5ede7d5c5b5d620e7a1d1ccf,wfmitvxh72,Nick_Dissertation_EX1,1,246,2020-07-08T15:09:07-07:00,1.3941202163696,1,versionA_stim.csv,READVersionA.csv,"Read Version A","Dissertation, read only version A",SHEARS,SCISSORS,Study2,F,112,133,Study,User,-,,Study/JOL,"Study Phase2",883,,,-1,-1,,,,1
5ede7d5c5b5d620e7a1d1ccf,wfmitvxh72,Nick_Dissertation_EX1,1,247,2020-07-08T15:09:08-07:00,1.4209449291229,1,versionA_stim.csv,READVersionA.csv,"Read Version A","Dissertation, read only version A",LOAN,SIGN,Study2,U,171,121,Study,User,-,,Study/JOL,"Study Phase2",876,,,-1,-1,,,,1
5ede7d5c5b5d620e7a1d1ccf,wfmitvxh72,Nick_Dissertation_EX1,1,248,2020-07-08T15:09:09-07:00,0.98899507522583,1,versionA_stim.csv,READVersionA.csv,"Read Version A","Dissertation, read only version A",AFFECTION,LOVE,Study2,F,115,175,Study,User,-,,Study/JOL,"Study Phase2",482,,,-1,-1,,,,1
5ede7d5c5b5d620e7a1d1ccf,wfmitvxh72,Nick_Dissertation_EX1,1,249,2020-07-08T15:09:10-07:00,1.197890996933,1,versionA_stim.csv,READVersionA.csv,"Read Version A","Dissertation, read only version A",DRIVER,CAR,Study2,F,106,102,Study,User,-,,Study/JOL,"Study Phase2",691,,,-1,-1,,,,1
5ede7d5c5b5d620e7a1d1ccf,wfmitvxh72,Nick_Dissertation_EX1,1,250,2020-07-08T15:09:12-07:00,1.3117418289185,1,versionA_stim.csv,READVersionA.csv,"Read Version A","Dissertation, read only version A",SUN,TAN,Study2,S,155,112,Study,User,-,,Study/JOL,"Study Phase2",779,,,-1,-1,,,,1
5ede7d5c5b5d620e7a1d1ccf,wfmitvxh72,Nick_Dissertation_EX1,1,251,2020-07-08T15:09:13-07:00,1.2240691184998,1,versionA_stim.csv,READVersionA.csv,"Read Version A","Dissertation, read only version A",FURRY,DOG,Study2,F,102,155,Study,User,-,,Study/JOL,"Study Phase2",730,,,-1,-1,,,,1
5ede7d5c5b5d620e7a1d1ccf,wfmitvxh72,Nick_Dissertation_EX1,1,252,2020-07-08T15:09:14-07:00,1.3980660438538,1,versionA_stim.csv,READVersionA.csv,"Read Version A","Dissertation, read only version A",EVEN,REVENGE,Study2,B,122,98,Study,User,-,,Study/JOL,"Study Phase2",893,,,-1,-1,,,,1
5ede7d5c5b5d620e7a1d1ccf,wfmitvxh72,Nick_Dissertation_EX1,1,253,2020-07-08T15:09:15-07:00,1.0664188861847,1,versionA_stim.csv,READVersionA.csv,"Read Version A","Dissertation, read only version A",DRY,WET,Study2,S,146,132,Study,User,-,,Study/JOL,"Study Phase2",558,,,-1,-1,,,,1
5ede7d5c5b5d620e7a1d1ccf,wfmitvxh72,Nick_Dissertation_EX1,1,254,2020-07-08T15:09:17-07:00,1.2637360095978,1,versionA_stim.csv,READVersionA.csv,"Read Version A","Dissertation, read only version A",FISH,SARDINE,Study2,B,130,135,Study,User,-,,Study/JOL,"Study Phase2",742,,,-1,-1,,,,1
5ede7d5c5b5d620e7a1d1ccf,wfmitvxh72,Nick_Dissertation_EX1,1,255,2020-07-08T15:09:17-07:00,0.81288909912109,1,versionA_stim.csv,READVersionA.csv,"Read Version A","Dissertation, read only version A",DINE,EAT,Study2,F,111,118,Study,User,-,,Study/JOL,"Study Phase2",306,,,-1,-1,,,,1
5ede7d5c5b5d620e7a1d1ccf,wfmitvxh72,Nick_Dissertation_EX1,1,256,2020-07-08T15:09:18-07:00,0.83310699462891,1,versionA_stim.csv,READVersionA.csv,"Read Version A","Dissertation, read only version A",EARTH,GROUND,Study2,S,144,157,Study,User,-,,Study/JOL,"Study Phase2",334,,,-1,-1,,,,1
5ede7d5c5b5d620e7a1d1ccf,wfmitvxh72,Nick_Dissertation_EX1,1,257,2020-07-08T15:09:19-07:00,0.81174993515015,1,versionA_stim.csv,READVersionA.csv,"Read Version A","Dissertation, read only version A",MEAT,OBTAIN,Study2,U,161,116,Study,User,-,,Study/JOL,"Study Phase2",295,,,-1,-1,,,,1
5ede7d5c5b5d620e7a1d1ccf,wfmitvxh72,Nick_Dissertation_EX1,1,258,2020-07-08T15:09:20-07:00,0.86308908462524,1,versionA_stim.csv,READVersionA.csv,"Read Version A","Dissertation, read only version A",CAKE,CLOTHES,Study2,U,166,158,Study,User,-,,Study/JOL,"Study Phase2",297,,,-1,-1,,,,1
5ede7d5c5b5d620e7a1d1ccf,wfmitvxh72,Nick_Dissertation_EX1,1,259,2020-07-08T15:09:21-07:00,0.95454978942871,1,versionA_stim.csv,READVersionA.csv,"Read Version A","Dissertation, read only version A",CHILL,COLD,Study2,F,114,122,Study,User,-,,Study/JOL,"Study Phase2",441,,,-1,-1,,,,1
5ede7d5c5b5d620e7a1d1ccf,wfmitvxh72,Nick_Dissertation_EX1,1,260,2020-07-08T15:09:22-07:00,0.85935115814209,1,versionA_stim.csv,READVersionA.csv,"Read Version A","Dissertation, read only version A",HONEST,TRUTHFUL,Study2,B,133,109,Study,User,-,,Study/JOL,"Study Phase2",362,,,-1,-1,,,,1
5ede7d5c5b5d620e7a1d1ccf,wfmitvxh72,Nick_Dissertation_EX1,1,261,2020-07-08T15:09:23-07:00,0.9250500202179,1,versionA_stim.csv,READVersionA.csv,"Read Version A","Dissertation, read only version A",MONTH,YEAR,BUFFER4,Buffer,177,179,Study,User,-,,Study/JOL,BUFFER4,437,,,-1,-1,,,,1
5ede7d5c5b5d620e7a1d1ccf,wfmitvxh72,Nick_Dissertation_EX1,1,262,2020-07-08T15:09:26-07:00,3.160434961319,1,versionA_stim.csv,READVersionA.csv,"Read Version A","Dissertation, read only version A",SPRING,MARCH,BUFFER4,Buffer,179,180,Study,User,-,,Study/JOL,BUFFER4,2664,,,-1,-1,,,,1
5ede7d5c5b5d620e7a1d1ccf,wfmitvxh72,Nick_Dissertation_EX1,1,263,2020-07-08T15:09:27-07:00,0.99271988868713,1,versionA_stim.csv,READVersionA.csv,"Read Version A","Dissertation, read only version A",DAYS,WEAKS,BUFFER4,Buffer,176,178,Study,User,-,,Study/JOL,BUFFER4,452,,,-1,-1,,,,1
5ede7d5c5b5d620e7a1d1ccf,wfmitvxh72,Nick_Dissertation_EX1,1,264,2020-07-08T15:09:28-07:00,0.87917113304138,1,versionA_stim.csv,READVersionA.csv,"Read Version A","Dissertation, read only version A",OCTOBER,SPOOKY,BUFFER4,Buffer,180,177,Study,User,-,,Study/JOL,BUFFER4,372,,,-1,-1,,,,1
5ede7d5c5b5d620e7a1d1ccf,wfmitvxh72,Nick_Dissertation_EX1,1,265,2020-07-08T15:09:28-07:00,0.8290069103241,1,versionA_stim.csv,READVersionA.csv,"Read Version A","Dissertation, read only version A",TOOL,SHED,BUFFER4,Buffer,178,181,Study,User,-,,Study/JOL,BUFFER4,325,,,-1,-1,,,,1
5ede7d5c5b5d620e7a1d1ccf,wfmitvxh72,Nick_Dissertation_EX1,1,266,2020-07-08T15:09:39-07:00,10.645686149597,1,versionA_stim.csv,READVersionA.csv,"Read Version A","Dissertation, read only version A",,,,,,0,Instruct,User,-,"You have completed this section. Please press Enter.",Filler_Instruction,Instruct5,10126,,,-1,-1,,,,1
5ede7d5c5b5d620e7a1d1ccf,wfmitvxh72,Nick_Dissertation_EX1,1,267,2020-07-08T15:11:40-07:00,120.67991280556,1,versionA_stim.csv,READVersionA.csv,"Read Version A","Dissertation, read only version A",,,,,,0,FreeRecall,120,120,"Please list the 50 US states in reverse alphabetical order (z - a). The task will automatically advance to the next screen after two minutes.",,Filler2,120065,"virginia, vermont, utah, texas, tennessee, south dakota, rhode island, north dakota, north carolina, new york, new mexico, new jersey, new hampshire, ",0,10541,117208,0,0,,0.905
5ede7d5c5b5d620e7a1d1ccf,wfmitvxh72,Nick_Dissertation_EX1,1,268,2020-07-08T15:11:56-07:00,16.297450065613,1,versionA_stim.csv,READVersionA.csv,"Read Version A","Dissertation, read only version A",,,,,,0,Instruct,-,10,"You will now be presented with the first word from each of the previously studied item pairs. Please type the missing word. If you do not know the word, you may guess or press Enter to skip forward to the next pair.",,Instruct6,15530,,,-1,-1,,,,0.973
5ede7d5c5b5d620e7a1d1ccf,wfmitvxh72,Nick_Dissertation_EX1,1,269,2020-07-08T15:12:00-07:00,3.9976599216461,1,versionA_stim.csv,READVersionA.csv,"Read Version A","Dissertation, read only version A",FUZZY,BANG,Study2,U,168,113,Test,User,-,,Recall,Recall2,3459,dog,28.571428571429,2965,3257,0,0,,1
5ede7d5c5b5d620e7a1d1ccf,wfmitvxh72,Nick_Dissertation_EX1,1,270,2020-07-08T15:12:03-07:00,2.5200500488281,1,versionA_stim.csv,READVersionA.csv,"Read Version A","Dissertation, read only version A",OWN,HAVE,Study2,S,153,129,Test,User,-,,Recall,Recall2,1957,have,100,1471,1842,1,1,,1
5ede7d5c5b5d620e7a1d1ccf,wfmitvxh72,Nick_Dissertation_EX1,1,271,2020-07-08T15:12:10-07:00,6.9708380699158,1,versionA_stim.csv,READVersionA.csv,"Read Version A","Dissertation, read only version A",CAR,WINDSHIELD,Study2,B,117,126,Test,User,-,,Recall,Recall2,6424,drive,40,3088,6180,0,0,,1
5ede7d5c5b5d620e7a1d1ccf,wfmitvxh72,Nick_Dissertation_EX1,1,272,2020-07-08T15:12:17-07:00,7.3617160320282,1,versionA_stim.csv,READVersionA.csv,"Read Version A","Dissertation, read only version A",CHILL,COLD,Study2,F,114,122,Test,User,-,,Recall,Recall2,6835,cold,100,5793,6324,1,1,,1
5ede7d5c5b5d620e7a1d1ccf,wfmitvxh72,Nick_Dissertation_EX1,1,273,2020-07-08T15:12:20-07:00,3.1067750453949,1,versionA_stim.csv,READVersionA.csv,"Read Version A","Dissertation, read only version A",FURRY,DOG,Study2,F,102,155,Test,User,-,,Recall,Recall2,2493,dog,100,1189,2345,1,1,,1
5ede7d5c5b5d620e7a1d1ccf,wfmitvxh72,Nick_Dissertation_EX1,1,274,2020-07-08T15:12:23-07:00,3.2484738826752,1,versionA_stim.csv,READVersionA.csv,"Read Version A","Dissertation, read only version A",EARTH,GROUND,Study2,S,144,157,Test,User,-,,Recall,Recall2,2696,world,36.363636363636,1913,2494,0,0,,1
5ede7d5c5b5d620e7a1d1ccf,wfmitvxh72,Nick_Dissertation_EX1,1,275,2020-07-08T15:12:30-07:00,6.46404504776,1,versionA_stim.csv,READVersionA.csv,"Read Version A","Dissertation, read only version A",TEMPERATURE,Morning,Study2,U,173,153,Test,User,-,,Recall,Recall2,5940,hot,20,5337,5769,0,0,,1
5ede7d5c5b5d620e7a1d1ccf,wfmitvxh72,Nick_Dissertation_EX1,1,276,2020-07-08T15:12:39-07:00,9.370857000351,1,versionA_stim.csv,READVersionA.csv,"Read Version A","Dissertation, read only version A",HONEST,TRUTHFUL,Study2,B,133,109,Test,User,-,,Recall,Recall2,8820,kind,0,7319,7843,0,0,,1
5ede7d5c5b5d620e7a1d1ccf,wfmitvxh72,Nick_Dissertation_EX1,1,277,2020-07-08T15:12:43-07:00,3.8463900089264,1,versionA_stim.csv,READVersionA.csv,"Read Version A","Dissertation, read only version A",FRUIT,STRAWBERRY,Study2,B,124,127,Test,User,-,,Recall,Recall2,3311,vegetable,10.526315789474,1943,3175,0,0,,1
5ede7d5c5b5d620e7a1d1ccf,wfmitvxh72,Nick_Dissertation_EX1,1,278,2020-07-08T15:12:47-07:00,4.0225908756256,1,versionA_stim.csv,READVersionA.csv,"Read Version A","Dissertation, read only version A",BOTH,OUNCE,Study2,U,172,152,Test,User,-,,Recall,Recall2,3493,,0,-1,-1,0,0,,1
5ede7d5c5b5d620e7a1d1ccf,wfmitvxh72,Nick_Dissertation_EX1,1,279,2020-07-08T15:12:50-07:00,2.9405970573425,1,versionA_stim.csv,READVersionA.csv,"Read Version A","Dissertation, read only version A",TANTRUM,TEMPER,Study2,S,154,106,Test,User,-,,Recall,Recall2,2391,angry,18.181818181818,1620,2153,0,0,,1
5ede7d5c5b5d620e7a1d1ccf,wfmitvxh72,Nick_Dissertation_EX1,1,280,2020-07-08T15:12:52-07:00,1.9912099838257,1,versionA_stim.csv,READVersionA.csv,"Read Version A","Dissertation, read only version A",LEASE,TOIL,Study2,U,170,143,Test,User,-,,Recall,Recall2,1435,,0,-1,-1,0,0,,1
5ede7d5c5b5d620e7a1d1ccf,wfmitvxh72,Nick_Dissertation_EX1,1,281,2020-07-08T15:12:55-07:00,3.1986310482025,1,versionA_stim.csv,READVersionA.csv,"Read Version A","Dissertation, read only version A",WATER,DRINK,Study2,S,143,162,Test,User,-,,Recall,Recall2,2660,drink,100,1743,2421,1,1,,1
5ede7d5c5b5d620e7a1d1ccf,wfmitvxh72,Nick_Dissertation_EX1,1,282,2020-07-08T15:13:00-07:00,4.9655311107635,1,versionA_stim.csv,READVersionA.csv,"Read Version A","Dissertation, read only version A",NAME,HATE,Study2,U,167,173,Test,User,-,,Recall,Recall2,4422,meaning,18.181818181818,2373,4322,0,0,,1
5ede7d5c5b5d620e7a1d1ccf,wfmitvxh72,Nick_Dissertation_EX1,1,283,2020-07-08T15:13:06-07:00,5.4997718334198,1,versionA_stim.csv,READVersionA.csv,"Read Version A","Dissertation, read only version A",WRIST,BRACELET,Study2,S,140,128,Test,User,-,,Recall,Recall2,4908,hand,16.666666666667,4341,4739,0,0,,1
5ede7d5c5b5d620e7a1d1ccf,wfmitvxh72,Nick_Dissertation_EX1,1,284,2020-07-08T15:13:07-07:00,1.4972970485687,1,versionA_stim.csv,READVersionA.csv,"Read Version A","Dissertation, read only version A",ROD,REEL,Study2,S,150,154,Test,User,-,,Recall,Recall2,941,,0,-1,-1,0,0,,1
5ede7d5c5b5d620e7a1d1ccf,wfmitvxh72,Nick_Dissertation_EX1,1,285,2020-07-08T15:13:11-07:00,3.9244220256805,1,versionA_stim.csv,READVersionA.csv,"Read Version A","Dissertation, read only version A",SLEEP,NAP,Study2,B,134,150,Test,User,-,,Recall,Recall2,3398,awake,25,2592,3317,0,0,,1
5ede7d5c5b5d620e7a1d1ccf,wfmitvxh72,Nick_Dissertation_EX1,1,286,2020-07-08T15:13:12-07:00,1.4651069641113,1,versionA_stim.csv,READVersionA.csv,"Read Version A","Dissertation, read only version A",FEUD,FIGHT,Study2,F,113,167,Test,User,-,,Recall,Recall2,897,,0,-1,-1,0,0,,1
5ede7d5c5b5d620e7a1d1ccf,wfmitvxh72,Nick_Dissertation_EX1,1,287,2020-07-08T15:13:16-07:00,3.5008881092072,1,versionA_stim.csv,READVersionA.csv,"Read Version A","Dissertation, read only version A",CRACKLE,ABLE,Study2,U,162,163,Test,User,-,,Recall,Recall2,2955,pop,0,1877,2736,0,0,,1
5ede7d5c5b5d620e7a1d1ccf,wfmitvxh72,Nick_Dissertation_EX1,1,288,2020-07-08T15:13:18-07:00,2.3454909324646,1,versionA_stim.csv,READVersionA.csv,"Read Version A","Dissertation, read only version A",MASON,JAR,Study2,S,138,165,Test,User,-,,Recall,Recall2,1768,jar,100,1282,1627,1,1,,1
5ede7d5c5b5d620e7a1d1ccf,wfmitvxh72,Nick_Dissertation_EX1,1,289,2020-07-08T15:13:22-07:00,3.9243528842926,1,versionA_stim.csv,READVersionA.csv,"Read Version A","Dissertation, read only version A",DRIVER,CAR,Study2,F,106,102,Test,User,-,,Recall,Recall2,3412,sweat,25,2375,3158,0,0,,1
5ede7d5c5b5d620e7a1d1ccf,wfmitvxh72,Nick_Dissertation_EX1,1,290,2020-07-08T15:13:30-07:00,7.345477104187,1,versionA_stim.csv,READVersionA.csv,"Read Version A","Dissertation, read only version A",FIGHT,BRAWL,Study2,B,135,174,Test,User,-,,Recall,Recall2,6819,wrestle,33.333333333333,5398,6551,0,0,,1
5ede7d5c5b5d620e7a1d1ccf,wfmitvxh72,Nick_Dissertation_EX1,1,291,2020-07-08T15:13:33-07:00,3.0454878807068,1,versionA_stim.csv,READVersionA.csv,"Read Version A","Dissertation, read only version A",CLUE,GAME,Study2,F,97,156,Test,User,-,,Recall,Recall2,2511,less,25,1536,2080,0,0,,1
5ede7d5c5b5d620e7a1d1ccf,wfmitvxh72,Nick_Dissertation_EX1,1,292,2020-07-08T15:13:37-07:00,4.7091791629791,1,versionA_stim.csv,READVersionA.csv,"Read Version A","Dissertation, read only version A",MEAT,OBTAIN,Study2,U,161,116,Test,User,-,,Recall,Recall2,4186,animal,33.333333333333,2735,3923,0,0,,1
5ede7d5c5b5d620e7a1d1ccf,wfmitvxh72,Nick_Dissertation_EX1,1,293,2020-07-08T15:13:49-07:00,11.846376895905,1,versionA_stim.csv,READVersionA.csv,"Read Version A","Dissertation, read only version A",DETECTIVE,MYSTERY,Study2,F,100,101,Test,User,-,,Recall,Recall2,11293,crime,16.666666666667,9412,11174,0,0,,1
5ede7d5c5b5d620e7a1d1ccf,wfmitvxh72,Nick_Dissertation_EX1,1,294,2020-07-08T15:13:53-07:00,4.2916150093079,1,versionA_stim.csv,READVersionA.csv,"Read Version A","Dissertation, read only version A",LOAN,SIGN,Study2,U,171,121,Test,User,-,,Recall,Recall2,3646,money,22.222222222222,1857,3427,0,0,,1
5ede7d5c5b5d620e7a1d1ccf,wfmitvxh72,Nick_Dissertation_EX1,1,295,2020-07-08T15:13:56-07:00,2.5812981128693,1,versionA_stim.csv,READVersionA.csv,"Read Version A","Dissertation, read only version A",DEAD,COFFIN,Study2,B,128,141,Test,User,-,,Recall,Recall2,1999,alive,18.181818181818,1133,1820,0,0,,1
5ede7d5c5b5d620e7a1d1ccf,wfmitvxh72,Nick_Dissertation_EX1,1,296,2020-07-08T15:13:59-07:00,2.7369368076324,1,versionA_stim.csv,READVersionA.csv,"Read Version A","Dissertation, read only version A",STAR,ACTRESS,Study2,B,120,105,Test,User,-,,Recall,Recall2,2204,bright,15.384615384615,1484,2091,0,0,,1
5ede7d5c5b5d620e7a1d1ccf,wfmitvxh72,Nick_Dissertation_EX1,1,297,2020-07-08T15:14:00-07:00,1.3973970413208,1,versionA_stim.csv,READVersionA.csv,"Read Version A","Dissertation, read only version A",ELEMENT,CARBON,Study2,S,141,171,Test,User,-,,Recall,Recall2,857,,0,-1,-1,0,0,,1
5ede7d5c5b5d620e7a1d1ccf,wfmitvxh72,Nick_Dissertation_EX1,1,298,2020-07-08T15:14:03-07:00,3.1846950054169,1,versionA_stim.csv,READVersionA.csv,"Read Version A","Dissertation, read only version A",THREAD,THIMBLE,Study2,B,121,168,Test,User,-,,Recall,Recall2,2661,needle,30.769230769231,1684,2554,0,0,,1
5ede7d5c5b5d620e7a1d1ccf,wfmitvxh72,Nick_Dissertation_EX1,1,299,2020-07-08T15:14:07-07:00,3.9940931797028,1,versionA_stim.csv,READVersionA.csv,"Read Version A","Dissertation, read only version A",VEHICLE,CHARM,Study2,U,160,172,Test,User,-,,Recall,Recall2,3423,driver,18.181818181818,2379,3297,0,0,,1
5ede7d5c5b5d620e7a1d1ccf,wfmitvxh72,Nick_Dissertation_EX1,1,300,2020-07-08T15:14:10-07:00,2.3303389549255,1,versionA_stim.csv,READVersionA.csv,"Read Version A","Dissertation, read only version A",SCALP,HEAD,Study2,F,105,149,Test,User,-,,Recall,Recall2,1773,head,100,1170,1652,1,1,,1
5ede7d5c5b5d620e7a1d1ccf,wfmitvxh72,Nick_Dissertation_EX1,1,301,2020-07-08T15:14:11-07:00,1.4349849224091,1,versionA_stim.csv,READVersionA.csv,"Read Version A","Dissertation, read only version A",MULE,DONKEY,Study2,F,108,161,Test,User,-,,Recall,Recall2,907,,0,-1,-1,0,0,,1
5ede7d5c5b5d620e7a1d1ccf,wfmitvxh72,Nick_Dissertation_EX1,1,302,2020-07-08T15:14:13-07:00,1.5998809337616,1,versionA_stim.csv,READVersionA.csv,"Read Version A","Dissertation, read only version A",JUSTICE,MAROON,Study2,U,156,140,Test,User,-,,Recall,Recall2,1067,,0,-1,-1,0,0,,1
5ede7d5c5b5d620e7a1d1ccf,wfmitvxh72,Nick_Dissertation_EX1,1,303,2020-07-08T15:14:25-07:00,11.765535116196,1,versionA_stim.csv,READVersionA.csv,"Read Version A","Dissertation, read only version A",PHONE,COMMUNICATION,Study2,S,149,137,Test,User,-,,Recall,Recall2,11221,technology,17.391304347826,8813,10923,0,0,,1
5ede7d5c5b5d620e7a1d1ccf,wfmitvxh72,Nick_Dissertation_EX1,1,304,2020-07-08T15:14:32-07:00,7.9644329547882,1,versionA_stim.csv,READVersionA.csv,"Read Version A","Dissertation, read only version A",TRUTH,LIE,Study2,S,148,131,Test,User,-,,Recall,Recall2,7418,honesty,20,4264,7071,0,0,,1
5ede7d5c5b5d620e7a1d1ccf,wfmitvxh72,Nick_Dissertation_EX1,1,305,2020-07-08T15:14:39-07:00,6.1099309921265,1,versionA_stim.csv,READVersionA.csv,"Read Version A","Dissertation, read only version A",BEST,FAVORITE,Study2,B,125,108,Test,User,-,,Recall,Recall2,5564,,0,-1,-1,0,0,,1
5ede7d5c5b5d620e7a1d1ccf,wfmitvxh72,Nick_Dissertation_EX1,1,306,2020-07-08T15:14:43-07:00,4.4982290267944,1,versionA_stim.csv,READVersionA.csv,"Read Version A","Dissertation, read only version A",DRY,WET,Study2,S,146,132,Test,User,-,,Recall,Recall2,3950,wet,100,2993,3451,1,1,,1
5ede7d5c5b5d620e7a1d1ccf,wfmitvxh72,Nick_Dissertation_EX1,1,307,2020-07-08T15:14:47-07:00,3.7903299331665,1,versionA_stim.csv,READVersionA.csv,"Read Version A","Dissertation, read only version A",SAFETY,SEATBELT,Study2,S,147,117,Test,User,-,,Recall,Recall2,3214,hazard,14.285714285714,1505,2947,0,0,,1
5ede7d5c5b5d620e7a1d1ccf,wfmitvxh72,Nick_Dissertation_EX1,1,308,2020-07-08T15:15:03-07:00,16.506691932678,1,versionA_stim.csv,READVersionA.csv,"Read Version A","Dissertation, read only version A",MONEY,BANKER,Study2,B,132,100,Test,User,-,,Recall,Recall2,15948,,0,6433,9699,0,0,,1
5ede7d5c5b5d620e7a1d1ccf,wfmitvxh72,Nick_Dissertation_EX1,1,309,2020-07-08T15:15:08-07:00,4.6124331951141,1,versionA_stim.csv,READVersionA.csv,"Read Version A","Dissertation, read only version A",LITTER,TRASH,Study2,F,103,103,Test,User,-,,Recall,Recall2,3828,messy,20,2850,3591,0,0,,1
5ede7d5c5b5d620e7a1d1ccf,wfmitvxh72,Nick_Dissertation_EX1,1,310,2020-07-08T15:15:10-07:00,2.3360259532928,1,versionA_stim.csv,READVersionA.csv,"Read Version A","Dissertation, read only version A",CHERRY,RED,Study2,F,104,110,Test,User,-,,Recall,Recall2,1816,red,100,1224,1663,1,1,,1
5ede7d5c5b5d620e7a1d1ccf,wfmitvxh72,Nick_Dissertation_EX1,1,311,2020-07-08T15:15:15-07:00,5.0490419864655,1,versionA_stim.csv,READVersionA.csv,"Read Version A","Dissertation, read only version A",STRETCH,CLOTH,Study2,U,157,123,Test,User,-,,Recall,Recall2,4519,long,44.444444444444,3299,4254,0,0,,1
5ede7d5c5b5d620e7a1d1ccf,wfmitvxh72,Nick_Dissertation_EX1,1,312,2020-07-08T15:15:21-07:00,5.3683779239655,1,versionA_stim.csv,READVersionA.csv,"Read Version A","Dissertation, read only version A",CANDLE,WAX,Study2,S,139,159,Test,User,-,,Recall,Recall2,4850,smell,0,4073,4629,0,0,,1
5ede7d5c5b5d620e7a1d1ccf,wfmitvxh72,Nick_Dissertation_EX1,1,313,2020-07-08T15:15:26-07:00,5.335401058197,1,versionA_stim.csv,READVersionA.csv,"Read Version A","Dissertation, read only version A",FLEA,TICK,Study2,S,151,145,Test,User,-,,Recall,Recall2,4788,bug,0,3932,4416,0,0,,1
5ede7d5c5b5d620e7a1d1ccf,wfmitvxh72,Nick_Dissertation_EX1,1,314,2020-07-08T15:15:29-07:00,2.780021905899,1,versionA_stim.csv,READVersionA.csv,"Read Version A","Dissertation, read only version A",CACTUS,PLANT,Study2,F,98,115,Test,User,-,,Recall,Recall2,2221,plant,100,1390,2077,1,1,,1
5ede7d5c5b5d620e7a1d1ccf,wfmitvxh72,Nick_Dissertation_EX1,1,315,2020-07-08T15:15:32-07:00,2.8703601360321,1,versionA_stim.csv,READVersionA.csv,"Read Version A","Dissertation, read only version A",DINE,EAT,Study2,F,111,118,Test,User,-,,Recall,Recall2,2259,wine,28.571428571429,1651,2109,0,0,,1
5ede7d5c5b5d620e7a1d1ccf,wfmitvxh72,Nick_Dissertation_EX1,1,316,2020-07-08T15:15:36-07:00,4.3442349433899,1,versionA_stim.csv,READVersionA.csv,"Read Version A","Dissertation, read only version A",FISH,SARDINE,Study2,B,130,135,Test,User,-,,Recall,Recall2,3806,se,44.444444444444,3176,3428,0,0,,1
5ede7d5c5b5d620e7a1d1ccf,wfmitvxh72,Nick_Dissertation_EX1,1,317,2020-07-08T15:15:44-07:00,7.81303191185,1,versionA_stim.csv,READVersionA.csv,"Read Version A","Dissertation, read only version A",KEYS,JOKE,Study2,U,165,169,Test,User,-,,Recall,Recall2,7278,HOUSE,44.444444444444,1735,7180,0,0,,1
5ede7d5c5b5d620e7a1d1ccf,wfmitvxh72,Nick_Dissertation_EX1,1,318,2020-07-08T15:15:47-07:00,3.1113262176514,1,versionA_stim.csv,READVersionA.csv,"Read Version A","Dissertation, read only version A",CAT,PANTHER,Study2,B,126,136,Test,User,-,,Recall,Recall2,2561,DOG,0,2045,2365,0,0,,1
5ede7d5c5b5d620e7a1d1ccf,wfmitvxh72,Nick_Dissertation_EX1,1,319,2020-07-08T15:15:50-07:00,3.0512719154358,1,versionA_stim.csv,READVersionA.csv,"Read Version A","Dissertation, read only version A",CHOP,CUT,Study2,F,107,104,Test,User,-,,Recall,Recall2,2508,KNIFE,0,1552,2341,0,0,,1
5ede7d5c5b5d620e7a1d1ccf,wfmitvxh72,Nick_Dissertation_EX1,1,320,2020-07-08T15:15:55-07:00,4.449590921402,1,versionA_stim.csv,READVersionA.csv,"Read Version A","Dissertation, read only version A",TURN,FLIP,Study2,B,116,176,Test,User,-,,Recall,Recall2,3898,OFF,28.571428571429,1893,3698,0,0,,1
5ede7d5c5b5d620e7a1d1ccf,wfmitvxh72,Nick_Dissertation_EX1,1,321,2020-07-08T15:15:58-07:00,3.4248111248016,1,versionA_stim.csv,READVersionA.csv,"Read Version A","Dissertation, read only version A",Shell,SHAKE,Study2,U,163,134,Test,User,-,,Recall,Recall2,2858,BEACH,20,1946,2621,0,0,,1
5ede7d5c5b5d620e7a1d1ccf,wfmitvxh72,Nick_Dissertation_EX1,1,322,2020-07-08T15:16:03-07:00,5.0339908599854,1,versionA_stim.csv,READVersionA.csv,"Read Version A","Dissertation, read only version A",SHOELACE,TIE,Study2,F,99,160,Test,User,-,,Recall,Recall2,4504,tie,100,3717,4095,1,1,,1
5ede7d5c5b5d620e7a1d1ccf,wfmitvxh72,Nick_Dissertation_EX1,1,323,2020-07-08T15:16:07-07:00,4.1527581214905,1,versionA_stim.csv,READVersionA.csv,"Read Version A","Dissertation, read only version A",BIRD,PENGUIN,Study2,B,119,119,Test,User,-,,Recall,Recall2,2533,fly,0,2038,2378,0,0,,1
5ede7d5c5b5d620e7a1d1ccf,wfmitvxh72,Nick_Dissertation_EX1,1,324,2020-07-08T15:16:10-07:00,2.700945854187,1,versionA_stim.csv,READVersionA.csv,"Read Version A","Dissertation, read only version A",BAD,VILLAIN,Study2,B,118,146,Test,User,-,,Recall,Recall2,2072,good,0,1568,1927,0,0,,1
5ede7d5c5b5d620e7a1d1ccf,wfmitvxh72,Nick_Dissertation_EX1,1,325,2020-07-08T15:16:14-07:00,3.9968822002411,1,versionA_stim.csv,READVersionA.csv,"Read Version A","Dissertation, read only version A",EXTENSION,LONG,Study2,F,96,124,Test,User,-,,Recall,Recall2,3341,long,100,2669,3193,1,1,,1
5ede7d5c5b5d620e7a1d1ccf,wfmitvxh72,Nick_Dissertation_EX1,1,326,2020-07-08T15:16:22-07:00,7.7099239826202,1,versionA_stim.csv,READVersionA.csv,"Read Version A","Dissertation, read only version A",CAKE,CLOTHES,Study2,U,166,158,Test,User,-,,Recall,Recall2,7173,biscuits,13.333333333333,5870,7001,0,0,,1
5ede7d5c5b5d620e7a1d1ccf,wfmitvxh72,Nick_Dissertation_EX1,1,327,2020-07-08T15:16:25-07:00,3.7346639633179,1,versionA_stim.csv,READVersionA.csv,"Read Version A","Dissertation, read only version A",GONE,AWAY,Study2,S,142,164,Test,User,-,,Recall,Recall2,3154,give,0,2336,2978,0,0,,1
5ede7d5c5b5d620e7a1d1ccf,wfmitvxh72,Nick_Dissertation_EX1,1,328,2020-07-08T15:16:29-07:00,4.0458300113678,1,versionA_stim.csv,READVersionA.csv,"Read Version A","Dissertation, read only version A",MAZE,ELECTION,Study2,U,159,114,Test,User,-,,Recall,Recall2,3526,lost,33.333333333333,2859,3352,0,0,,1
5ede7d5c5b5d620e7a1d1ccf,wfmitvxh72,Nick_Dissertation_EX1,1,329,2020-07-08T15:16:31-07:00,1.8121609687805,1,versionA_stim.csv,READVersionA.csv,"Read Version A","Dissertation, read only version A",MAIN,SCAR,Study2,U,175,142,Test,User,-,,Recall,Recall2,1266,,0,-1,-1,0,0,,1
5ede7d5c5b5d620e7a1d1ccf,wfmitvxh72,Nick_Dissertation_EX1,1,330,2020-07-08T15:16:32-07:00,1.1626179218292,1,versionA_stim.csv,READVersionA.csv,"Read Version A","Dissertation, read only version A",MOAT,CLEAR,Study2,U,169,99,Test,User,-,,Recall,Recall2,650,,0,-1,-1,0,0,,1
5ede7d5c5b5d620e7a1d1ccf,wfmitvxh72,Nick_Dissertation_EX1,1,331,2020-07-08T15:16:36-07:00,3.8412210941315,1,versionA_stim.csv,READVersionA.csv,"Read Version A","Dissertation, read only version A",MIRROR,CHILDREN,Study2,U,174,97,Test,User,-,,Recall,Recall2,3334,image,30.769230769231,2514,3141,0,0,,1
5ede7d5c5b5d620e7a1d1ccf,wfmitvxh72,Nick_Dissertation_EX1,1,332,2020-07-08T15:16:42-07:00,5.632287979126,1,versionA_stim.csv,READVersionA.csv,"Read Version A","Dissertation, read only version A",ALONE,LONELY,Study2,S,145,139,Test,User,-,,Recall,Recall2,5087,lonely,100,1893,2788,1,1,,1
5ede7d5c5b5d620e7a1d1ccf,wfmitvxh72,Nick_Dissertation_EX1,1,333,2020-07-08T15:16:52-07:00,10.294941902161,1,versionA_stim.csv,READVersionA.csv,"Read Version A","Dissertation, read only version A",RIGHTS,EQUAL,Study2,S,137,144,Test,User,-,,Recall,Recall2,9760,civil,20,8898,9513,0,0,,1
5ede7d5c5b5d620e7a1d1ccf,wfmitvxh72,Nick_Dissertation_EX1,1,334,2020-07-08T15:16:54-07:00,1.7265470027924,1,versionA_stim.csv,READVersionA.csv,"Read Version A","Dissertation, read only version A",INCENSE,SMELL,Study2,F,110,166,Test,User,-,,Recall,Recall2,1024,,0,-1,-1,0,0,,1
5ede7d5c5b5d620e7a1d1ccf,wfmitvxh72,Nick_Dissertation_EX1,1,335,2020-07-08T15:16:57-07:00,2.9376411437988,1,versionA_stim.csv,READVersionA.csv,"Read Version A","Dissertation, read only version A",BASEBALL,LEAGUE,Study2,B,131,125,Test,User,-,,Recall,Recall2,2406,sport,0,1650,2311,0,0,,1
5ede7d5c5b5d620e7a1d1ccf,wfmitvxh72,Nick_Dissertation_EX1,1,336,2020-07-08T15:17:00-07:00,2.99431681633,1,versionA_stim.csv,READVersionA.csv,"Read Version A","Dissertation, read only version A",PLANE,AIRCRAFT,Study2,B,129,111,Test,User,-,,Recall,Recall2,2470,flying,14.285714285714,1426,2334,0,0,,1
5ede7d5c5b5d620e7a1d1ccf,wfmitvxh72,Nick_Dissertation_EX1,1,337,2020-07-08T15:17:03-07:00,2.8345642089844,1,versionA_stim.csv,READVersionA.csv,"Read Version A","Dissertation, read only version A",LOUD,NOISE,Study2,S,152,151,Test,User,-,,Recall,Recall2,2311,silent,36.363636363636,1432,2141,0,0,,1
5ede7d5c5b5d620e7a1d1ccf,wfmitvxh72,Nick_Dissertation_EX1,1,338,2020-07-08T15:17:04-07:00,1.5011718273163,1,versionA_stim.csv,READVersionA.csv,"Read Version A","Dissertation, read only version A",ADJOURN,END,Study2,F,101,170,Test,User,-,,Recall,Recall2,1004,,0,-1,-1,0,0,,1
5ede7d5c5b5d620e7a1d1ccf,wfmitvxh72,Nick_Dissertation_EX1,1,339,2020-07-08T15:17:05-07:00,0.87885713577271,1,versionA_stim.csv,READVersionA.csv,"Read Version A","Dissertation, read only version A",LISTEN,FICTION,Study2,U,164,130,Test,User,-,,Recall,Recall2,345,,0,-1,-1,0,0,,1
5ede7d5c5b5d620e7a1d1ccf,wfmitvxh72,Nick_Dissertation_EX1,1,340,2020-07-08T15:17:07-07:00,2.4943578243256,1,versionA_stim.csv,READVersionA.csv,"Read Version A","Dissertation, read only version A",GIVE,STEAK,Study2,U,158,107,Test,User,-,,Recall,Recall2,1978,gone,22.222222222222,1434,1803,0,0,,1
5ede7d5c5b5d620e7a1d1ccf,wfmitvxh72,Nick_Dissertation_EX1,1,341,2020-07-08T15:17:09-07:00,1.5181350708008,1,versionA_stim.csv,READVersionA.csv,"Read Version A","Dissertation, read only version A",SHEARS,SCISSORS,Study2,F,112,133,Test,User,-,,Recall,Recall2,1007,,0,-1,-1,0,0,,1
5ede7d5c5b5d620e7a1d1ccf,wfmitvxh72,Nick_Dissertation_EX1,1,342,2020-07-08T15:17:12-07:00,3.500993013382,1,versionA_stim.csv,READVersionA.csv,"Read Version A","Dissertation, read only version A",SUN,TAN,Study2,S,155,112,Test,User,-,,Recall,Recall2,2963,moon,28.571428571429,2149,2731,0,0,,1
5ede7d5c5b5d620e7a1d1ccf,wfmitvxh72,Nick_Dissertation_EX1,1,343,2020-07-08T15:17:17-07:00,4.2880039215088,1,versionA_stim.csv,READVersionA.csv,"Read Version A","Dissertation, read only version A",POP,BALLOON,Study2,B,123,138,Test,User,-,,Recall,Recall2,3750,fizzle,15.384615384615,1386,3593,0,0,,1
5ede7d5c5b5d620e7a1d1ccf,wfmitvxh72,Nick_Dissertation_EX1,1,344,2020-07-08T15:17:24-07:00,7.3431601524353,1,versionA_stim.csv,READVersionA.csv,"Read Version A","Dissertation, read only version A",EVEN,REVENGE,Study2,B,122,98,Test,User,-,,Recall,Recall2,5807,odd,0,5178,5668,0,0,,1
5ede7d5c5b5d620e7a1d1ccf,wfmitvxh72,Nick_Dissertation_EX1,1,345,2020-07-08T15:17:31-07:00,6.4536828994751,1,versionA_stim.csv,READVersionA.csv,"Read Version A","Dissertation, read only version A",AFFECTION,LOVE,Study2,F,115,175,Test,User,-,,Recall,Recall2,5851,,0,2635,2635,0,0,,1
5ede7d5c5b5d620e7a1d1ccf,wfmitvxh72,Nick_Dissertation_EX1,1,346,2020-07-08T15:17:34-07:00,3.7336039543152,1,versionA_stim.csv,READVersionA.csv,"Read Version A","Dissertation, read only version A",DOCUMENT,PAPER,Study2,F,109,148,Test,User,-,,Recall,Recall2,3192,paper,100,1983,2826,1,1,,1
5ede7d5c5b5d620e7a1d1ccf,wfmitvxh72,Nick_Dissertation_EX1,1,347,2020-07-08T15:17:50-07:00,16.170264005661,1,versionA_stim.csv,READVersionA.csv,"Read Version A","Dissertation, read only version A",GLASS,BREAKABLE,Study2,B,127,147,Test,User,-,,Recall,Recall2,15627,breakable,100,3140,15433,1,1,,1
