Username,ID,ExperimentName,Session,Trial,Date,TimeDif,"Condition Number","Stimuli File","Order File","Condition Description","Condition Notes",Stimuli*Cue,Stimuli*Answer,Stimuli*Shuffle,"Stimuli*Stimuli Notes",Stimuli*Value,Procedure*Item,"Procedure*Trial Type","Procedure*Max Time","Procedure*Min Time",Procedure*Text,"Procedure*Procedure Notes",Procedure*Shuffle,Response*RT,Response*Response,Response*Accuracy,Response*RTfirst,Response*RTlast,Response*strictAcc,Response*lenientAcc,Response*focus,Response*Focus
5b15acacc85dc40001625c89,agph8k0wj4,Nick_Dissertation_EX1,1,1,2020-07-08T14:53:38-07:00,12.326918125153,3,versionC_stim.csv,READVersionC.csv,"Read Version C","Dissertation, read only version C",,,,,,0,Instruct,-,10,"Please study each of the following word pairs. Remember that your memory will be tested! When finished, press Enter to move to the next pair.",Initial_Instruct,Instruct1,11773,,,-1,-1,,,,1
5b15acacc85dc40001625c89,agph8k0wj4,Nick_Dissertation_EX1,1,2,2020-07-08T14:53:41-07:00,2.6436810493469,3,versionC_stim.csv,READVersionC.csv,"Read Version C","Dissertation, read only version C",HIDE,SCARE,BUFFER1,Buffer,4,5,Study,User,-,,Study/JOL,BUFFER,1916,,,-1,-1,,,,1
5b15acacc85dc40001625c89,agph8k0wj4,Nick_Dissertation_EX1,1,3,2020-07-08T14:53:44-07:00,3.18244099617,3,versionC_stim.csv,READVersionC.csv,"Read Version C","Dissertation, read only version C",CATCHER,BASEBALL,BUFFER1,Buffer,2,4,Study,User,-,,Study/JOL,BUFFER,1549,,,-1,-1,,,,1
5b15acacc85dc40001625c89,agph8k0wj4,Nick_Dissertation_EX1,1,4,2020-07-08T14:53:46-07:00,2.0341689586639,3,versionC_stim.csv,READVersionC.csv,"Read Version C","Dissertation, read only version C",BUTTER,PEANUT,BUFFER1,Buffer,3,2,Study,User,-,,Study/JOL,BUFFER,1422,,,-1,-1,,,,1
5b15acacc85dc40001625c89,agph8k0wj4,Nick_Dissertation_EX1,1,5,2020-07-08T14:53:49-07:00,2.4276139736176,3,versionC_stim.csv,READVersionC.csv,"Read Version C","Dissertation, read only version C",GREEN,TREES,BUFFER1,Buffer,1,6,Study,User,-,,Study/JOL,BUFFER,1371,,,-1,-1,,,,1
5b15acacc85dc40001625c89,agph8k0wj4,Nick_Dissertation_EX1,1,6,2020-07-08T14:53:50-07:00,1.7547409534454,3,versionC_stim.csv,READVersionC.csv,"Read Version C","Dissertation, read only version C",JAM,SPACE,BUFFER1,Buffer,5,3,Study,User,-,,Study/JOL,BUFFER,1172,,,-1,-1,,,,1
5b15acacc85dc40001625c89,agph8k0wj4,Nick_Dissertation_EX1,1,7,2020-07-08T14:53:52-07:00,2.0580298900604,3,versionC_stim.csv,READVersionC.csv,"Read Version C","Dissertation, read only version C",ASSIGNMENT,DUE,Study1,S,46,37,Study,User,-,,Study/JOL,"Study Phase",1465,,,-1,-1,,,,1
5b15acacc85dc40001625c89,agph8k0wj4,Nick_Dissertation_EX1,1,8,2020-07-08T14:53:54-07:00,1.8259119987488,3,versionC_stim.csv,READVersionC.csv,"Read Version C","Dissertation, read only version C",VASE,KING,Study1,U,85,11,Study,User,-,,Study/JOL,"Study Phase",1250,,,-1,-1,,,,1
5b15acacc85dc40001625c89,agph8k0wj4,Nick_Dissertation_EX1,1,9,2020-07-08T14:53:56-07:00,1.8917400836945,3,versionC_stim.csv,READVersionC.csv,"Read Version C","Dissertation, read only version C",COW,HERD,Study1,B,22,81,Study,User,-,,Study/JOL,"Study Phase",1258,,,-1,-1,,,,1
5b15acacc85dc40001625c89,agph8k0wj4,Nick_Dissertation_EX1,1,10,2020-07-08T14:53:59-07:00,2.3968291282654,3,versionC_stim.csv,READVersionC.csv,"Read Version C","Dissertation, read only version C",CLEAN,HYGIENE,Study1,B,17,33,Study,User,-,,Study/JOL,"Study Phase",1327,,,-1,-1,,,,1
5b15acacc85dc40001625c89,agph8k0wj4,Nick_Dissertation_EX1,1,11,2020-07-08T14:54:01-07:00,2.0440368652344,3,versionC_stim.csv,READVersionC.csv,"Read Version C","Dissertation, read only version C",CHILI,HOT,Study1,F,37,43,Study,User,-,,Study/JOL,"Study Phase",1459,,,-1,-1,,,,1
5b15acacc85dc40001625c89,agph8k0wj4,Nick_Dissertation_EX1,1,12,2020-07-08T14:54:02-07:00,1.778468132019,3,versionC_stim.csv,READVersionC.csv,"Read Version C","Dissertation, read only version C",JURY,TRIAL,Study1,S,50,12,Study,User,-,,Study/JOL,"Study Phase",1189,,,-1,-1,,,,1
5b15acacc85dc40001625c89,agph8k0wj4,Nick_Dissertation_EX1,1,13,2020-07-08T14:54:04-07:00,1.8339598178864,3,versionC_stim.csv,READVersionC.csv,"Read Version C","Dissertation, read only version C",CAVE,DARK,Study1,F,28,63,Study,User,-,,Study/JOL,"Study Phase",1187,,,-1,-1,,,,1
5b15acacc85dc40001625c89,agph8k0wj4,Nick_Dissertation_EX1,1,14,2020-07-08T14:54:07-07:00,3.1372380256653,3,versionC_stim.csv,READVersionC.csv,"Read Version C","Dissertation, read only version C",HAND,FIX,Study1,U,75,7,Study,User,-,,Study/JOL,"Study Phase",1398,,,-1,-1,,,,1
5b15acacc85dc40001625c89,agph8k0wj4,Nick_Dissertation_EX1,1,15,2020-07-08T14:54:09-07:00,1.9626979827881,3,versionC_stim.csv,READVersionC.csv,"Read Version C","Dissertation, read only version C",ADD,VALLEY,Study1,U,82,14,Study,User,-,,Study/JOL,"Study Phase",1382,,,-1,-1,,,,1
5b15acacc85dc40001625c89,agph8k0wj4,Nick_Dissertation_EX1,1,16,2020-07-08T14:54:11-07:00,1.8167960643768,3,versionC_stim.csv,READVersionC.csv,"Read Version C","Dissertation, read only version C",LIVER,KIDNEY,Study1,S,53,86,Study,User,-,,Study/JOL,"Study Phase",1182,,,-1,-1,,,,1
5b15acacc85dc40001625c89,agph8k0wj4,Nick_Dissertation_EX1,1,17,2020-07-08T14:54:13-07:00,2.0481889247894,3,versionC_stim.csv,READVersionC.csv,"Read Version C","Dissertation, read only version C",STING,HORNET,Study1,B,11,65,Study,User,-,,Study/JOL,"Study Phase",1454,,,-1,-1,,,,1
5b15acacc85dc40001625c89,agph8k0wj4,Nick_Dissertation_EX1,1,18,2020-07-08T14:54:15-07:00,1.9509031772614,3,versionC_stim.csv,READVersionC.csv,"Read Version C","Dissertation, read only version C",WASTE,DUMP,Study1,S,49,57,Study,User,-,,Study/JOL,"Study Phase",1340,,,-1,-1,,,,1
5b15acacc85dc40001625c89,agph8k0wj4,Nick_Dissertation_EX1,1,19,2020-07-08T14:54:17-07:00,1.7375068664551,3,versionC_stim.csv,READVersionC.csv,"Read Version C","Dissertation, read only version C",RACKET,BALL,Study1,F,38,76,Study,User,-,,Study/JOL,"Study Phase",1055,,,-1,-1,,,,1
5b15acacc85dc40001625c89,agph8k0wj4,Nick_Dissertation_EX1,1,20,2020-07-08T14:54:18-07:00,1.6370811462402,3,versionC_stim.csv,READVersionC.csv,"Read Version C","Dissertation, read only version C",CHORE,WORK,Study1,F,39,46,Study,User,-,,Study/JOL,"Study Phase",1083,,,-1,-1,,,,1
5b15acacc85dc40001625c89,agph8k0wj4,Nick_Dissertation_EX1,1,21,2020-07-08T14:54:20-07:00,1.7373259067535,3,versionC_stim.csv,READVersionC.csv,"Read Version C","Dissertation, read only version C",FLOWER,ORCHID,Study1,B,24,77,Study,User,-,,Study/JOL,"Study Phase",1109,,,-1,-1,,,,1
5b15acacc85dc40001625c89,agph8k0wj4,Nick_Dissertation_EX1,1,22,2020-07-08T14:54:22-07:00,1.6413578987122,3,versionC_stim.csv,READVersionC.csv,"Read Version C","Dissertation, read only version C",WASP,BUG,Study1,F,32,23,Study,User,-,,Study/JOL,"Study Phase",1068,,,-1,-1,,,,1
5b15acacc85dc40001625c89,agph8k0wj4,Nick_Dissertation_EX1,1,23,2020-07-08T14:54:24-07:00,1.7014610767365,3,versionC_stim.csv,READVersionC.csv,"Read Version C","Dissertation, read only version C",POSITION,MACHINE,Study1,U,76,54,Study,User,-,,Study/JOL,"Study Phase",1077,,,-1,-1,,,,1
5b15acacc85dc40001625c89,agph8k0wj4,Nick_Dissertation_EX1,1,24,2020-07-08T14:54:26-07:00,2.5314209461212,3,versionC_stim.csv,READVersionC.csv,"Read Version C","Dissertation, read only version C",STOMACH,DIGESTION,Study1,B,7,32,Study,User,-,,Study/JOL,"Study Phase",1839,,,-1,-1,,,,1
5b15acacc85dc40001625c89,agph8k0wj4,Nick_Dissertation_EX1,1,25,2020-07-08T14:54:28-07:00,1.5756940841675,3,versionC_stim.csv,READVersionC.csv,"Read Version C","Dissertation, read only version C",FOOT,SHOE,Study1,S,60,83,Study,User,-,,Study/JOL,"Study Phase",967,,,-1,-1,,,,1
5b15acacc85dc40001625c89,agph8k0wj4,Nick_Dissertation_EX1,1,26,2020-07-08T14:54:32-07:00,4.6181080341339,3,versionC_stim.csv,READVersionC.csv,"Read Version C","Dissertation, read only version C",TOILET,BATHROOM,Study1,S,58,19,Study,User,-,,Study/JOL,"Study Phase",3817,,,-1,-1,,,,1
5b15acacc85dc40001625c89,agph8k0wj4,Nick_Dissertation_EX1,1,27,2020-07-08T14:54:34-07:00,1.6910419464111,3,versionC_stim.csv,READVersionC.csv,"Read Version C","Dissertation, read only version C",DOG,PAW,Study1,B,15,31,Study,User,-,,Study/JOL,"Study Phase",1052,,,-1,-1,,,,1
5b15acacc85dc40001625c89,agph8k0wj4,Nick_Dissertation_EX1,1,28,2020-07-08T14:54:49-07:00,15.479226112366,3,versionC_stim.csv,READVersionC.csv,"Read Version C","Dissertation, read only version C",FAMINE,HUNGER,Study1,F,40,53,Study,User,-,,Study/JOL,"Study Phase",14780,,,-1,-1,,,,1
5b15acacc85dc40001625c89,agph8k0wj4,Nick_Dissertation_EX1,1,29,2020-07-08T14:54:51-07:00,1.838143825531,3,versionC_stim.csv,READVersionC.csv,"Read Version C","Dissertation, read only version C",TALK,DISCUSSION,Study1,B,21,18,Study,User,-,,Study/JOL,"Study Phase",1263,,,-1,-1,,,,1
5b15acacc85dc40001625c89,agph8k0wj4,Nick_Dissertation_EX1,1,30,2020-07-08T14:54:53-07:00,2.1919331550598,3,versionC_stim.csv,READVersionC.csv,"Read Version C","Dissertation, read only version C",BELT,SOON,Study1,U,70,48,Study,User,-,,Study/JOL,"Study Phase",1561,,,-1,-1,,,,1
5b15acacc85dc40001625c89,agph8k0wj4,Nick_Dissertation_EX1,1,31,2020-07-08T14:54:55-07:00,1.6600270271301,3,versionC_stim.csv,READVersionC.csv,"Read Version C","Dissertation, read only version C",CLUTTER,PUSHER,Study1,U,66,42,Study,User,-,,Study/JOL,"Study Phase",1099,,,-1,-1,,,,1
5b15acacc85dc40001625c89,agph8k0wj4,Nick_Dissertation_EX1,1,32,2020-07-08T14:54:57-07:00,1.7145149707794,3,versionC_stim.csv,READVersionC.csv,"Read Version C","Dissertation, read only version C",DROWSY,SLEEP,Study1,F,41,73,Study,User,-,,Study/JOL,"Study Phase",1018,,,-1,-1,,,,1
5b15acacc85dc40001625c89,agph8k0wj4,Nick_Dissertation_EX1,1,33,2020-07-08T14:54:59-07:00,1.6909468173981,3,versionC_stim.csv,READVersionC.csv,"Read Version C","Dissertation, read only version C",PILOT,PLANE,Study1,F,44,36,Study,User,-,,Study/JOL,"Study Phase",1111,,,-1,-1,,,,1
5b15acacc85dc40001625c89,agph8k0wj4,Nick_Dissertation_EX1,1,34,2020-07-08T14:55:00-07:00,1.5643072128296,3,versionC_stim.csv,READVersionC.csv,"Read Version C","Dissertation, read only version C",COLD,BITTER,Study1,B,12,75,Study,User,-,,Study/JOL,"Study Phase",953,,,-1,-1,,,,1
5b15acacc85dc40001625c89,agph8k0wj4,Nick_Dissertation_EX1,1,35,2020-07-08T14:55:02-07:00,1.5987567901611,3,versionC_stim.csv,READVersionC.csv,"Read Version C","Dissertation, read only version C",CARD,CREDIT,Study1,B,23,79,Study,User,-,,Study/JOL,"Study Phase",1038,,,-1,-1,,,,1
5b15acacc85dc40001625c89,agph8k0wj4,Nick_Dissertation_EX1,1,36,2020-07-08T14:55:03-07:00,1.5643951892853,3,versionC_stim.csv,READVersionC.csv,"Read Version C","Dissertation, read only version C",BAR,GRILL,Study1,S,52,38,Study,User,-,,Study/JOL,"Study Phase",907,,,-1,-1,,,,1
5b15acacc85dc40001625c89,agph8k0wj4,Nick_Dissertation_EX1,1,37,2020-07-08T14:55:05-07:00,1.5802748203278,3,versionC_stim.csv,READVersionC.csv,"Read Version C","Dissertation, read only version C",BLAZE,FIRE,Study1,F,45,59,Study,User,-,,Study/JOL,"Study Phase",939,,,-1,-1,,,,1
5b15acacc85dc40001625c89,agph8k0wj4,Nick_Dissertation_EX1,1,38,2020-07-08T14:55:07-07:00,1.9806890487671,3,versionC_stim.csv,READVersionC.csv,"Read Version C","Dissertation, read only version C",STENCH,SMELL,Study1,F,42,78,Study,User,-,,Study/JOL,"Study Phase",946,,,-1,-1,,,,1
5b15acacc85dc40001625c89,agph8k0wj4,Nick_Dissertation_EX1,1,39,2020-07-08T14:55:09-07:00,2.5965170860291,3,versionC_stim.csv,READVersionC.csv,"Read Version C","Dissertation, read only version C",WORD,SENTENCE,Study1,F,31,68,Study,User,-,,Study/JOL,"Study Phase",964,,,-1,-1,,,,1
5b15acacc85dc40001625c89,agph8k0wj4,Nick_Dissertation_EX1,1,40,2020-07-08T14:55:11-07:00,1.8198318481445,3,versionC_stim.csv,READVersionC.csv,"Read Version C","Dissertation, read only version C",FLOOR,DISCOVER,Study1,U,71,70,Study,User,-,,Study/JOL,"Study Phase",1108,,,-1,-1,,,,1
5b15acacc85dc40001625c89,agph8k0wj4,Nick_Dissertation_EX1,1,41,2020-07-08T14:55:13-07:00,1.7302641868591,3,versionC_stim.csv,READVersionC.csv,"Read Version C","Dissertation, read only version C",MONEY,WAGE,Study1,B,8,74,Study,User,-,,Study/JOL,"Study Phase",1115,,,-1,-1,,,,1
5b15acacc85dc40001625c89,agph8k0wj4,Nick_Dissertation_EX1,1,42,2020-07-08T14:55:15-07:00,1.7734358310699,3,versionC_stim.csv,READVersionC.csv,"Read Version C","Dissertation, read only version C",FUTURE,PAST,Study1,S,61,56,Study,User,-,,Study/JOL,"Study Phase",1135,,,-1,-1,,,,1
5b15acacc85dc40001625c89,agph8k0wj4,Nick_Dissertation_EX1,1,43,2020-07-08T14:55:17-07:00,2.0318591594696,3,versionC_stim.csv,READVersionC.csv,"Read Version C","Dissertation, read only version C",WAR,REVOLUTION,Study1,B,20,51,Study,User,-,,Study/JOL,"Study Phase",1295,,,-1,-1,,,,1
5b15acacc85dc40001625c89,agph8k0wj4,Nick_Dissertation_EX1,1,44,2020-07-08T14:55:18-07:00,1.578861951828,3,versionC_stim.csv,READVersionC.csv,"Read Version C","Dissertation, read only version C",CAR,HAPPY,Study1,U,77,82,Study,User,-,,Study/JOL,"Study Phase",904,,,-1,-1,,,,1
5b15acacc85dc40001625c89,agph8k0wj4,Nick_Dissertation_EX1,1,45,2020-07-08T14:55:20-07:00,1.6649789810181,3,versionC_stim.csv,READVersionC.csv,"Read Version C","Dissertation, read only version C",END,BEGIN,Study1,S,54,58,Study,User,-,,Study/JOL,"Study Phase",1048,,,-1,-1,,,,1
5b15acacc85dc40001625c89,agph8k0wj4,Nick_Dissertation_EX1,1,46,2020-07-08T14:55:22-07:00,1.5911419391632,3,versionC_stim.csv,READVersionC.csv,"Read Version C","Dissertation, read only version C",DIVISION,MATH,Study1,F,33,22,Study,User,-,,Study/JOL,"Study Phase",975,,,-1,-1,,,,1
5b15acacc85dc40001625c89,agph8k0wj4,Nick_Dissertation_EX1,1,47,2020-07-08T14:55:23-07:00,1.5059289932251,3,versionC_stim.csv,READVersionC.csv,"Read Version C","Dissertation, read only version C",BUSINESS,DEATH,Study1,U,72,34,Study,User,-,,Study/JOL,"Study Phase",940,,,-1,-1,,,,1
5b15acacc85dc40001625c89,agph8k0wj4,Nick_Dissertation_EX1,1,48,2020-07-08T14:55:25-07:00,1.6117060184479,3,versionC_stim.csv,READVersionC.csv,"Read Version C","Dissertation, read only version C",DESIGN,ARCHITECTURE,Study1,S,51,29,Study,User,-,,Study/JOL,"Study Phase",954,,,-1,-1,,,,1
5b15acacc85dc40001625c89,agph8k0wj4,Nick_Dissertation_EX1,1,49,2020-07-08T14:55:26-07:00,1.471519947052,3,versionC_stim.csv,READVersionC.csv,"Read Version C","Dissertation, read only version C",ATTIRE,CLOTHES,Study1,F,43,21,Study,User,-,,Study/JOL,"Study Phase",872,,,-1,-1,,,,1
5b15acacc85dc40001625c89,agph8k0wj4,Nick_Dissertation_EX1,1,50,2020-07-08T14:55:28-07:00,1.6954081058502,3,versionC_stim.csv,READVersionC.csv,"Read Version C","Dissertation, read only version C",TUCK,ALLOW,Study1,U,78,24,Study,User,-,,Study/JOL,"Study Phase",1028,,,-1,-1,,,,1
5b15acacc85dc40001625c89,agph8k0wj4,Nick_Dissertation_EX1,1,51,2020-07-08T14:55:29-07:00,1.4899780750275,3,versionC_stim.csv,READVersionC.csv,"Read Version C","Dissertation, read only version C",LION,ART,Study1,U,79,64,Study,User,-,,Study/JOL,"Study Phase",853,,,-1,-1,,,,1
5b15acacc85dc40001625c89,agph8k0wj4,Nick_Dissertation_EX1,1,52,2020-07-08T14:55:31-07:00,1.4932799339294,3,versionC_stim.csv,READVersionC.csv,"Read Version C","Dissertation, read only version C",BEE,HONEY,Study1,S,63,66,Study,User,-,,Study/JOL,"Study Phase",859,,,-1,-1,,,,1
5b15acacc85dc40001625c89,agph8k0wj4,Nick_Dissertation_EX1,1,53,2020-07-08T14:55:32-07:00,1.5460789203644,3,versionC_stim.csv,READVersionC.csv,"Read Version C","Dissertation, read only version C",HUNGRY,PARK,Study1,U,68,8,Study,User,-,,Study/JOL,"Study Phase",973,,,-1,-1,,,,1
5b15acacc85dc40001625c89,agph8k0wj4,Nick_Dissertation_EX1,1,54,2020-07-08T14:55:34-07:00,1.5453500747681,3,versionC_stim.csv,READVersionC.csv,"Read Version C","Dissertation, read only version C",OUT,WAY,Study1,B,16,52,Study,User,-,,Study/JOL,"Study Phase",894,,,-1,-1,,,,1
5b15acacc85dc40001625c89,agph8k0wj4,Nick_Dissertation_EX1,1,55,2020-07-08T14:55:35-07:00,1.399710893631,3,versionC_stim.csv,READVersionC.csv,"Read Version C","Dissertation, read only version C",SODA,POP,Study1,S,56,27,Study,User,-,,Study/JOL,"Study Phase",806,,,-1,-1,,,,1
5b15acacc85dc40001625c89,agph8k0wj4,Nick_Dissertation_EX1,1,56,2020-07-08T14:55:37-07:00,1.61807513237,3,versionC_stim.csv,READVersionC.csv,"Read Version C","Dissertation, read only version C",WATER,BRIDGE,Study1,B,18,30,Study,User,-,,Study/JOL,"Study Phase",990,,,-1,-1,,,,1
5b15acacc85dc40001625c89,agph8k0wj4,Nick_Dissertation_EX1,1,57,2020-07-08T14:55:38-07:00,1.4931869506836,3,versionC_stim.csv,READVersionC.csv,"Read Version C","Dissertation, read only version C",WIND,BLOW,Study1,S,55,13,Study,User,-,,Study/JOL,"Study Phase",922,,,-1,-1,,,,1
5b15acacc85dc40001625c89,agph8k0wj4,Nick_Dissertation_EX1,1,58,2020-07-08T14:55:40-07:00,1.5719540119171,3,versionC_stim.csv,READVersionC.csv,"Read Version C","Dissertation, read only version C",DEFINITION,MEANING,Study1,S,62,39,Study,User,-,,Study/JOL,"Study Phase",929,,,-1,-1,,,,1
5b15acacc85dc40001625c89,agph8k0wj4,Nick_Dissertation_EX1,1,59,2020-07-08T14:55:41-07:00,1.4327991008759,3,versionC_stim.csv,READVersionC.csv,"Read Version C","Dissertation, read only version C",CHILD,BABY,Study1,S,64,15,Study,User,-,,Study/JOL,"Study Phase",851,,,-1,-1,,,,1
5b15acacc85dc40001625c89,agph8k0wj4,Nick_Dissertation_EX1,1,60,2020-07-08T14:55:43-07:00,1.4978218078613,3,versionC_stim.csv,READVersionC.csv,"Read Version C","Dissertation, read only version C",BAD,DELINQUENT,Study1,B,6,84,Study,User,-,,Study/JOL,"Study Phase",875,,,-1,-1,,,,1
5b15acacc85dc40001625c89,agph8k0wj4,Nick_Dissertation_EX1,1,61,2020-07-08T14:55:44-07:00,1.4070219993591,3,versionC_stim.csv,READVersionC.csv,"Read Version C","Dissertation, read only version C",FANTASTIC,GREAT,Study1,F,35,20,Study,User,-,,Study/JOL,"Study Phase",840,,,-1,-1,,,,1
5b15acacc85dc40001625c89,agph8k0wj4,Nick_Dissertation_EX1,1,62,2020-07-08T14:55:46-07:00,1.527104139328,3,versionC_stim.csv,READVersionC.csv,"Read Version C","Dissertation, read only version C",SIP,DRINK,Study1,F,27,60,Study,User,-,,Study/JOL,"Study Phase",928,,,-1,-1,,,,1
5b15acacc85dc40001625c89,agph8k0wj4,Nick_Dissertation_EX1,1,63,2020-07-08T14:55:47-07:00,1.5857839584351,3,versionC_stim.csv,READVersionC.csv,"Read Version C","Dissertation, read only version C",NEWS,EDITOR,Study1,B,10,61,Study,User,-,,Study/JOL,"Study Phase",950,,,-1,-1,,,,1
5b15acacc85dc40001625c89,agph8k0wj4,Nick_Dissertation_EX1,1,64,2020-07-08T14:55:49-07:00,1.5321929454803,3,versionC_stim.csv,READVersionC.csv,"Read Version C","Dissertation, read only version C",CHEESE,WINE,Study1,S,57,10,Study,User,-,,Study/JOL,"Study Phase",919,,,-1,-1,,,,1
5b15acacc85dc40001625c89,agph8k0wj4,Nick_Dissertation_EX1,1,65,2020-07-08T14:55:50-07:00,1.4284160137177,3,versionC_stim.csv,READVersionC.csv,"Read Version C","Dissertation, read only version C",ROUND,CIRCLE,Study1,S,65,49,Study,User,-,,Study/JOL,"Study Phase",865,,,-1,-1,,,,1
5b15acacc85dc40001625c89,agph8k0wj4,Nick_Dissertation_EX1,1,66,2020-07-08T14:55:52-07:00,1.4649751186371,3,versionC_stim.csv,READVersionC.csv,"Read Version C","Dissertation, read only version C",GROWTH,HEIGHT,Study1,F,30,80,Study,User,-,,Study/JOL,"Study Phase",844,,,-1,-1,,,,1
5b15acacc85dc40001625c89,agph8k0wj4,Nick_Dissertation_EX1,1,67,2020-07-08T14:55:53-07:00,1.5027499198914,3,versionC_stim.csv,READVersionC.csv,"Read Version C","Dissertation, read only version C",SALAD,LETTUCE,Study1,S,59,44,Study,User,-,,Study/JOL,"Study Phase",930,,,-1,-1,,,,1
5b15acacc85dc40001625c89,agph8k0wj4,Nick_Dissertation_EX1,1,68,2020-07-08T14:55:55-07:00,1.4497210979462,3,versionC_stim.csv,READVersionC.csv,"Read Version C","Dissertation, read only version C",WOULD,CASH,Study1,U,83,45,Study,User,-,,Study/JOL,"Study Phase",806,,,-1,-1,,,,1
5b15acacc85dc40001625c89,agph8k0wj4,Nick_Dissertation_EX1,1,69,2020-07-08T14:55:56-07:00,1.4592869281769,3,versionC_stim.csv,READVersionC.csv,"Read Version C","Dissertation, read only version C",HAMMER,CHISEL,Study1,B,9,69,Study,User,-,,Study/JOL,"Study Phase",858,,,-1,-1,,,,1
5b15acacc85dc40001625c89,agph8k0wj4,Nick_Dissertation_EX1,1,70,2020-07-08T14:55:58-07:00,2.0579080581665,3,versionC_stim.csv,READVersionC.csv,"Read Version C","Dissertation, read only version C",AMOUNT,NUMBER,Study1,S,47,85,Study,User,-,,Study/JOL,"Study Phase",1067,,,-1,-1,,,,1
5b15acacc85dc40001625c89,agph8k0wj4,Nick_Dissertation_EX1,1,71,2020-07-08T14:56:00-07:00,1.6457688808441,3,versionC_stim.csv,READVersionC.csv,"Read Version C","Dissertation, read only version C",SICK,HIDE,Study1,U,84,41,Study,User,-,,Study/JOL,"Study Phase",1044,,,-1,-1,,,,1
5b15acacc85dc40001625c89,agph8k0wj4,Nick_Dissertation_EX1,1,72,2020-07-08T14:56:02-07:00,1.4898660182953,3,versionC_stim.csv,READVersionC.csv,"Read Version C","Dissertation, read only version C",SIGHT,DEBATE,Study1,U,73,28,Study,User,-,,Study/JOL,"Study Phase",885,,,-1,-1,,,,1
5b15acacc85dc40001625c89,agph8k0wj4,Nick_Dissertation_EX1,1,73,2020-07-08T14:56:03-07:00,1.5033810138702,3,versionC_stim.csv,READVersionC.csv,"Read Version C","Dissertation, read only version C",RIDDLE,SUGAR,Study1,U,81,62,Study,User,-,,Study/JOL,"Study Phase",900,,,-1,-1,,,,1
5b15acacc85dc40001625c89,agph8k0wj4,Nick_Dissertation_EX1,1,74,2020-07-08T14:56:05-07:00,1.4852070808411,3,versionC_stim.csv,READVersionC.csv,"Read Version C","Dissertation, read only version C",SACKING,DIETARY,Study1,U,67,55,Study,User,-,,Study/JOL,"Study Phase",913,,,-1,-1,,,,1
5b15acacc85dc40001625c89,agph8k0wj4,Nick_Dissertation_EX1,1,75,2020-07-08T14:56:06-07:00,1.5109009742737,3,versionC_stim.csv,READVersionC.csv,"Read Version C","Dissertation, read only version C",FISH,TUNA,Study1,B,25,47,Study,User,-,,Study/JOL,"Study Phase",878,,,-1,-1,,,,1
5b15acacc85dc40001625c89,agph8k0wj4,Nick_Dissertation_EX1,1,76,2020-07-08T14:56:08-07:00,1.6163449287415,3,versionC_stim.csv,READVersionC.csv,"Read Version C","Dissertation, read only version C",BRONZE,ARTERY,Study1,U,74,26,Study,User,-,,Study/JOL,"Study Phase",971,,,-1,-1,,,,1
5b15acacc85dc40001625c89,agph8k0wj4,Nick_Dissertation_EX1,1,77,2020-07-08T14:56:09-07:00,1.4679539203644,3,versionC_stim.csv,READVersionC.csv,"Read Version C","Dissertation, read only version C",BIRD,SWAN,Study1,B,14,9,Study,User,-,,Study/JOL,"Study Phase",886,,,-1,-1,,,,1
5b15acacc85dc40001625c89,agph8k0wj4,Nick_Dissertation_EX1,1,78,2020-07-08T14:56:11-07:00,1.5531980991364,3,versionC_stim.csv,READVersionC.csv,"Read Version C","Dissertation, read only version C",ACCIDENT,STRONG,Study1,U,80,25,Study,User,-,,Study/JOL,"Study Phase",915,,,-1,-1,,,,1
5b15acacc85dc40001625c89,agph8k0wj4,Nick_Dissertation_EX1,1,79,2020-07-08T14:56:12-07:00,1.5893728733063,3,versionC_stim.csv,READVersionC.csv,"Read Version C","Dissertation, read only version C",WOMAN,LIFT,Study1,U,69,40,Study,User,-,,Study/JOL,"Study Phase",915,,,-1,-1,,,,1
5b15acacc85dc40001625c89,agph8k0wj4,Nick_Dissertation_EX1,1,80,2020-07-08T14:56:17-07:00,5.0846540927887,3,versionC_stim.csv,READVersionC.csv,"Read Version C","Dissertation, read only version C",ROCK,GEOLOGY,Study1,B,19,16,Study,User,-,,Study/JOL,"Study Phase",4176,,,-1,-1,,,,1
5b15acacc85dc40001625c89,agph8k0wj4,Nick_Dissertation_EX1,1,81,2020-07-08T14:56:21-07:00,3.1782660484314,3,versionC_stim.csv,READVersionC.csv,"Read Version C","Dissertation, read only version C",LATCH,KEY,Study1,F,36,35,Study,User,-,,Study/JOL,"Study Phase",2423,,,-1,-1,,,,1
5b15acacc85dc40001625c89,agph8k0wj4,Nick_Dissertation_EX1,1,82,2020-07-08T14:56:24-07:00,3.2895820140839,3,versionC_stim.csv,READVersionC.csv,"Read Version C","Dissertation, read only version C",ATTORNEY,LAW,Study1,F,34,17,Study,User,-,,Study/JOL,"Study Phase",2612,,,-1,-1,,,,1
5b15acacc85dc40001625c89,agph8k0wj4,Nick_Dissertation_EX1,1,83,2020-07-08T14:56:25-07:00,1.4358899593353,3,versionC_stim.csv,READVersionC.csv,"Read Version C","Dissertation, read only version C",ENOUGH,FULL,Study1,F,26,67,Study,User,-,,Study/JOL,"Study Phase",848,,,-1,-1,,,,1
5b15acacc85dc40001625c89,agph8k0wj4,Nick_Dissertation_EX1,1,84,2020-07-08T14:56:27-07:00,1.456983089447,3,versionC_stim.csv,READVersionC.csv,"Read Version C","Dissertation, read only version C",SITE,LOCATION,Study1,S,48,50,Study,User,-,,Study/JOL,"Study Phase",836,,,-1,-1,,,,1
5b15acacc85dc40001625c89,agph8k0wj4,Nick_Dissertation_EX1,1,85,2020-07-08T14:56:28-07:00,1.4668869972229,3,versionC_stim.csv,READVersionC.csv,"Read Version C","Dissertation, read only version C",PLANT,ROOT,Study1,B,13,72,Study,User,-,,Study/JOL,"Study Phase",897,,,-1,-1,,,,1
5b15acacc85dc40001625c89,agph8k0wj4,Nick_Dissertation_EX1,1,86,2020-07-08T14:56:30-07:00,1.4394319057465,3,versionC_stim.csv,READVersionC.csv,"Read Version C","Dissertation, read only version C",SEIZE,TAKE,Study1,F,29,71,Study,User,-,,Study/JOL,"Study Phase",825,,,-1,-1,,,,1
5b15acacc85dc40001625c89,agph8k0wj4,Nick_Dissertation_EX1,1,87,2020-07-08T14:56:31-07:00,1.4953269958496,3,versionC_stim.csv,READVersionC.csv,"Read Version C","Dissertation, read only version C",CHOCOLATE,MALT,BUFFER2,Buffer,88,89,Study,User,-,,Study/JOL,BUFFER2,931,,,-1,-1,,,,1
5b15acacc85dc40001625c89,agph8k0wj4,Nick_Dissertation_EX1,1,88,2020-07-08T14:56:33-07:00,1.4648659229279,3,versionC_stim.csv,READVersionC.csv,"Read Version C","Dissertation, read only version C",SPACE,MOON,BUFFER2,Buffer,89,88,Study,User,-,,Study/JOL,BUFFER2,842,,,-1,-1,,,,1
5b15acacc85dc40001625c89,agph8k0wj4,Nick_Dissertation_EX1,1,89,2020-07-08T14:56:34-07:00,1.4249169826508,3,versionC_stim.csv,READVersionC.csv,"Read Version C","Dissertation, read only version C",STUFF,THING,BUFFER2,Buffer,90,91,Study,User,-,,Study/JOL,BUFFER2,873,,,-1,-1,,,,1
5b15acacc85dc40001625c89,agph8k0wj4,Nick_Dissertation_EX1,1,90,2020-07-08T14:56:35-07:00,1.4701070785522,3,versionC_stim.csv,READVersionC.csv,"Read Version C","Dissertation, read only version C",POLICE,SHERRIF,BUFFER2,Buffer,87,90,Study,User,-,,Study/JOL,BUFFER2,879,,,-1,-1,,,,1
5b15acacc85dc40001625c89,agph8k0wj4,Nick_Dissertation_EX1,1,91,2020-07-08T14:56:37-07:00,1.58323097229,3,versionC_stim.csv,READVersionC.csv,"Read Version C","Dissertation, read only version C",GOOSE,GEESE,BUFFER2,Buffer,86,87,Study,User,-,,Study/JOL,BUFFER2,933,,,-1,-1,,,,1
5b15acacc85dc40001625c89,agph8k0wj4,Nick_Dissertation_EX1,1,92,2020-07-08T14:56:39-07:00,1.9883780479431,3,versionC_stim.csv,READVersionC.csv,"Read Version C","Dissertation, read only version C",,,,,,0,Instruct,User,-,"You have completed this section. Please press Enter.",Filler_Instruction,Instruct2,1427,,,-1,-1,,,,1
5b15acacc85dc40001625c89,agph8k0wj4,Nick_Dissertation_EX1,1,93,2020-07-08T14:58:40-07:00,120.80455994606,3,versionC_stim.csv,READVersionC.csv,"Read Version C","Dissertation, read only version C",,,,,,0,FreeRecall,120,120,"Please list the 50 US states in alphabetical order. The task will automatically advance to the next screen after two minutes.",,Filler1,120016,"Alabama Arkansas Chicago Colorado Houston Idaho Kansas Kentuncy Miami Measures New York Ontario ",0,-1,-1,0,0,,1
5b15acacc85dc40001625c89,agph8k0wj4,Nick_Dissertation_EX1,1,94,2020-07-08T14:58:53-07:00,12.87918806076,3,versionC_stim.csv,READVersionC.csv,"Read Version C","Dissertation, read only version C",,,,,,0,Instruct,-,10,"You will now be presented with the first word from each of the previously studied item pairs. Please type the missing word. If you do not know the word, you may guess or press Enter to skip forward to the next pair.",,Instruct3,12184,,,-1,-1,,,,1
5b15acacc85dc40001625c89,agph8k0wj4,Nick_Dissertation_EX1,1,95,2020-07-08T14:59:00-07:00,7.3516240119934,3,versionC_stim.csv,READVersionC.csv,"Read Version C","Dissertation, read only version C",FOOT,SHOE,Study1,S,60,83,Test,User,-,,Recall,Recall1,6614,Width,22.222222222222,-1,-1,0,0,,1
5b15acacc85dc40001625c89,agph8k0wj4,Nick_Dissertation_EX1,1,96,2020-07-08T14:59:05-07:00,5.0696868896484,3,versionC_stim.csv,READVersionC.csv,"Read Version C","Dissertation, read only version C",ROUND,CIRCLE,Study1,S,65,49,Test,User,-,,Recall,Recall1,4371,Table,36.363636363636,-1,-1,0,0,,1
5b15acacc85dc40001625c89,agph8k0wj4,Nick_Dissertation_EX1,1,97,2020-07-08T14:59:15-07:00,9.4099750518799,3,versionC_stim.csv,READVersionC.csv,"Read Version C","Dissertation, read only version C",WAR,REVOLUTION,Study1,B,20,51,Test,User,-,,Recall,Recall1,8691,Zone,28.571428571429,-1,-1,0,0,,1
5b15acacc85dc40001625c89,agph8k0wj4,Nick_Dissertation_EX1,1,98,2020-07-08T14:59:23-07:00,8.6092209815979,3,versionC_stim.csv,READVersionC.csv,"Read Version C","Dissertation, read only version C",BUSINESS,DEATH,Study1,U,72,34,Test,User,-,,Recall,Recall1,7796,Leisure,16.666666666667,-1,-1,0,0,,1
5b15acacc85dc40001625c89,agph8k0wj4,Nick_Dissertation_EX1,1,99,2020-07-08T14:59:29-07:00,5.717698097229,3,versionC_stim.csv,READVersionC.csv,"Read Version C","Dissertation, read only version C",COW,HERD,Study1,B,22,81,Test,User,-,,Recall,Recall1,5017,Herd,100,-1,-1,1,1,,1
5b15acacc85dc40001625c89,agph8k0wj4,Nick_Dissertation_EX1,1,100,2020-07-08T14:59:34-07:00,5.2200489044189,3,versionC_stim.csv,READVersionC.csv,"Read Version C","Dissertation, read only version C",CLUTTER,PUSHER,Study1,U,66,42,Test,User,-,,Recall,Recall1,3477,Mess,20,-1,-1,0,0,,1
5b15acacc85dc40001625c89,agph8k0wj4,Nick_Dissertation_EX1,1,101,2020-07-08T14:59:40-07:00,5.4645099639893,3,versionC_stim.csv,READVersionC.csv,"Read Version C","Dissertation, read only version C",WASP,BUG,Study1,F,32,23,Test,User,-,,Recall,Recall1,4627,Hornet,0,-1,-1,0,0,,1
5b15acacc85dc40001625c89,agph8k0wj4,Nick_Dissertation_EX1,1,102,2020-07-08T14:59:54-07:00,14.631775140762,3,versionC_stim.csv,READVersionC.csv,"Read Version C","Dissertation, read only version C",ACCIDENT,STRONG,Study1,U,80,25,Test,User,-,,Recall,Recall1,13875,Mistake,30.769230769231,-1,-1,0,0,,1
5b15acacc85dc40001625c89,agph8k0wj4,Nick_Dissertation_EX1,1,103,2020-07-08T14:59:58-07:00,4.0148859024048,3,versionC_stim.csv,READVersionC.csv,"Read Version C","Dissertation, read only version C",OUT,WAY,Study1,B,16,52,Test,User,-,,Recall,Recall1,3292,In,0,-1,-1,0,0,,1
5b15acacc85dc40001625c89,agph8k0wj4,Nick_Dissertation_EX1,1,104,2020-07-08T15:00:04-07:00,5.7950739860535,3,versionC_stim.csv,READVersionC.csv,"Read Version C","Dissertation, read only version C",FUTURE,PAST,Study1,S,61,56,Test,User,-,,Recall,Recall1,4096,Past,100,-1,-1,1,1,,1
5b15acacc85dc40001625c89,agph8k0wj4,Nick_Dissertation_EX1,1,105,2020-07-08T15:00:11-07:00,6.6866450309753,3,versionC_stim.csv,READVersionC.csv,"Read Version C","Dissertation, read only version C",BEE,HONEY,Study1,S,63,66,Test,User,-,,Recall,Recall1,5814,Sting,20,-1,-1,0,0,,1
5b15acacc85dc40001625c89,agph8k0wj4,Nick_Dissertation_EX1,1,106,2020-07-08T15:00:17-07:00,6.1769540309906,3,versionC_stim.csv,READVersionC.csv,"Read Version C","Dissertation, read only version C",PLANT,ROOT,Study1,B,13,72,Test,User,-,,Recall,Recall1,5007,Flower,20,-1,-1,0,0,,1
5b15acacc85dc40001625c89,agph8k0wj4,Nick_Dissertation_EX1,1,107,2020-07-08T15:00:21-07:00,3.8749771118164,3,versionC_stim.csv,READVersionC.csv,"Read Version C","Dissertation, read only version C",DOG,PAW,Study1,B,15,31,Test,User,-,,Recall,Recall1,3150,Cat,33.333333333333,-1,-1,0,0,,1
5b15acacc85dc40001625c89,agph8k0wj4,Nick_Dissertation_EX1,1,108,2020-07-08T15:00:25-07:00,4.7470209598541,3,versionC_stim.csv,READVersionC.csv,"Read Version C","Dissertation, read only version C",BRONZE,ARTERY,Study1,U,74,26,Test,User,-,,Recall,Recall1,3524,Artery,100,-1,-1,1,1,,1
5b15acacc85dc40001625c89,agph8k0wj4,Nick_Dissertation_EX1,1,109,2020-07-08T15:00:30-07:00,4.5127508640289,3,versionC_stim.csv,READVersionC.csv,"Read Version C","Dissertation, read only version C",END,BEGIN,Study1,S,54,58,Test,User,-,,Recall,Recall1,3788,Start,0,-1,-1,0,0,,1
5b15acacc85dc40001625c89,agph8k0wj4,Nick_Dissertation_EX1,1,110,2020-07-08T15:00:35-07:00,4.9244751930237,3,versionC_stim.csv,READVersionC.csv,"Read Version C","Dissertation, read only version C",NEWS,EDITOR,Study1,B,10,61,Test,User,-,,Recall,Recall1,4239,Media,54.545454545455,-1,-1,0,0,,1
5b15acacc85dc40001625c89,agph8k0wj4,Nick_Dissertation_EX1,1,111,2020-07-08T15:00:42-07:00,6.7913808822632,3,versionC_stim.csv,READVersionC.csv,"Read Version C","Dissertation, read only version C",DIVISION,MATH,Study1,F,33,22,Test,User,-,,Recall,Recall1,6058,Multiple,33.333333333333,-1,-1,0,0,,1
5b15acacc85dc40001625c89,agph8k0wj4,Nick_Dissertation_EX1,1,112,2020-07-08T15:00:47-07:00,4.8002779483795,3,versionC_stim.csv,READVersionC.csv,"Read Version C","Dissertation, read only version C",SALAD,LETTUCE,Study1,S,59,44,Test,User,-,,Recall,Recall1,4093,Dressing,13.333333333333,-1,-1,0,0,,1
5b15acacc85dc40001625c89,agph8k0wj4,Nick_Dissertation_EX1,1,113,2020-07-08T15:00:52-07:00,5.0512130260468,3,versionC_stim.csv,READVersionC.csv,"Read Version C","Dissertation, read only version C",DESIGN,ARCHITECTURE,Study1,S,51,29,Test,User,-,,Recall,Recall1,4360,Style,23.529411764706,-1,-1,0,0,,1
5b15acacc85dc40001625c89,agph8k0wj4,Nick_Dissertation_EX1,1,114,2020-07-08T15:00:57-07:00,5.6920580863953,3,versionC_stim.csv,READVersionC.csv,"Read Version C","Dissertation, read only version C",JURY,TRIAL,Study1,S,50,12,Test,User,-,,Recall,Recall1,4960,Trial,100,-1,-1,1,1,,1
5b15acacc85dc40001625c89,agph8k0wj4,Nick_Dissertation_EX1,1,115,2020-07-08T15:01:03-07:00,5.7836039066315,3,versionC_stim.csv,READVersionC.csv,"Read Version C","Dissertation, read only version C",SITE,LOCATION,Study1,S,48,50,Test,User,-,,Recall,Recall1,4973,Building,25,-1,-1,0,0,,1
5b15acacc85dc40001625c89,agph8k0wj4,Nick_Dissertation_EX1,1,116,2020-07-08T15:01:08-07:00,4.6199269294739,3,versionC_stim.csv,READVersionC.csv,"Read Version C","Dissertation, read only version C",COLD,BITTER,Study1,B,12,75,Test,User,-,,Recall,Recall1,3917,Warm,20,-1,-1,0,0,,1
5b15acacc85dc40001625c89,agph8k0wj4,Nick_Dissertation_EX1,1,117,2020-07-08T15:01:12-07:00,4.5309550762177,3,versionC_stim.csv,READVersionC.csv,"Read Version C","Dissertation, read only version C",FLOWER,ORCHID,Study1,B,24,77,Test,User,-,,Recall,Recall1,3820,Plant,0,-1,-1,0,0,,1
5b15acacc85dc40001625c89,agph8k0wj4,Nick_Dissertation_EX1,1,118,2020-07-08T15:01:17-07:00,4.9739489555359,3,versionC_stim.csv,READVersionC.csv,"Read Version C","Dissertation, read only version C",ADD,VALLEY,Study1,U,82,14,Test,User,-,,Recall,Recall1,4290,Minus,0,-1,-1,0,0,,1
5b15acacc85dc40001625c89,agph8k0wj4,Nick_Dissertation_EX1,1,119,2020-07-08T15:01:21-07:00,4.3340051174164,3,versionC_stim.csv,READVersionC.csv,"Read Version C","Dissertation, read only version C",WASTE,DUMP,Study1,S,49,57,Test,User,-,,Recall,Recall1,3648,Dump,100,-1,-1,1,1,,1
5b15acacc85dc40001625c89,agph8k0wj4,Nick_Dissertation_EX1,1,120,2020-07-08T15:01:28-07:00,6.970360994339,3,versionC_stim.csv,READVersionC.csv,"Read Version C","Dissertation, read only version C",RIDDLE,SUGAR,Study1,U,81,62,Test,User,-,,Recall,Recall1,6160,Joke,0,-1,-1,0,0,,1
5b15acacc85dc40001625c89,agph8k0wj4,Nick_Dissertation_EX1,1,121,2020-07-08T15:01:34-07:00,5.2629089355469,3,versionC_stim.csv,READVersionC.csv,"Read Version C","Dissertation, read only version C",ENOUGH,FULL,Study1,F,26,67,Test,User,-,,Recall,Recall1,4493,Plenty,20,-1,-1,0,0,,1
5b15acacc85dc40001625c89,agph8k0wj4,Nick_Dissertation_EX1,1,122,2020-07-08T15:01:38-07:00,4.4291410446167,3,versionC_stim.csv,READVersionC.csv,"Read Version C","Dissertation, read only version C",FISH,TUNA,Study1,B,25,47,Test,User,-,,Recall,Recall1,3637,Water,22.222222222222,-1,-1,0,0,,1
5b15acacc85dc40001625c89,agph8k0wj4,Nick_Dissertation_EX1,1,123,2020-07-08T15:01:45-07:00,6.8850300312042,3,versionC_stim.csv,READVersionC.csv,"Read Version C","Dissertation, read only version C",FANTASTIC,GREAT,Study1,F,35,20,Test,User,-,,Recall,Recall1,6184,Brilliant,42.857142857143,-1,-1,0,0,,1
5b15acacc85dc40001625c89,agph8k0wj4,Nick_Dissertation_EX1,1,124,2020-07-08T15:01:48-07:00,3.3888449668884,3,versionC_stim.csv,READVersionC.csv,"Read Version C","Dissertation, read only version C",DEFINITION,MEANING,Study1,S,62,39,Test,User,-,,Recall,Recall1,2696,,0,-1,-1,0,0,,1
5b15acacc85dc40001625c89,agph8k0wj4,Nick_Dissertation_EX1,1,125,2020-07-08T15:01:54-07:00,5.4321050643921,3,versionC_stim.csv,READVersionC.csv,"Read Version C","Dissertation, read only version C",STOMACH,DIGESTION,Study1,B,7,32,Test,User,-,,Recall,Recall1,4741,Ache,15.384615384615,-1,-1,0,0,,1
5b15acacc85dc40001625c89,agph8k0wj4,Nick_Dissertation_EX1,1,126,2020-07-08T15:01:56-07:00,1.92529296875,3,versionC_stim.csv,READVersionC.csv,"Read Version C","Dissertation, read only version C",WOULD,CASH,Study1,U,83,45,Test,User,-,,Recall,Recall1,1295,,0,-1,-1,0,0,,1
5b15acacc85dc40001625c89,agph8k0wj4,Nick_Dissertation_EX1,1,127,2020-07-08T15:02:02-07:00,5.7858650684357,3,versionC_stim.csv,READVersionC.csv,"Read Version C","Dissertation, read only version C",POSITION,MACHINE,Study1,U,76,54,Test,User,-,,Recall,Recall1,5099,First,16.666666666667,-1,-1,0,0,,1
5b15acacc85dc40001625c89,agph8k0wj4,Nick_Dissertation_EX1,1,128,2020-07-08T15:02:10-07:00,7.9347739219666,3,versionC_stim.csv,READVersionC.csv,"Read Version C","Dissertation, read only version C",WIND,BLOW,Study1,S,55,13,Test,User,-,,Recall,Recall1,7121,Gale,25,-1,-1,0,0,,1
5b15acacc85dc40001625c89,agph8k0wj4,Nick_Dissertation_EX1,1,129,2020-07-08T15:02:12-07:00,2.8365979194641,3,versionC_stim.csv,READVersionC.csv,"Read Version C","Dissertation, read only version C",SACKING,DIETARY,Study1,U,67,55,Test,User,-,,Recall,Recall1,2073,,0,-1,-1,0,0,,1
5b15acacc85dc40001625c89,agph8k0wj4,Nick_Dissertation_EX1,1,130,2020-07-08T15:02:20-07:00,7.4424669742584,3,versionC_stim.csv,READVersionC.csv,"Read Version C","Dissertation, read only version C",BAR,GRILL,Study1,S,52,38,Test,User,-,,Recall,Recall1,6773,Pub,0,-1,-1,0,0,,1
5b15acacc85dc40001625c89,agph8k0wj4,Nick_Dissertation_EX1,1,131,2020-07-08T15:02:22-07:00,2.4065721035004,3,versionC_stim.csv,READVersionC.csv,"Read Version C","Dissertation, read only version C",CHILD,BABY,Study1,S,64,15,Test,User,-,,Recall,Recall1,1577,,0,-1,-1,0,0,,1
5b15acacc85dc40001625c89,agph8k0wj4,Nick_Dissertation_EX1,1,132,2020-07-08T15:02:27-07:00,4.5177810192108,3,versionC_stim.csv,READVersionC.csv,"Read Version C","Dissertation, read only version C",TUCK,ALLOW,Study1,U,78,24,Test,User,-,,Recall,Recall1,3811,Shop,22.222222222222,-1,-1,0,0,,1
5b15acacc85dc40001625c89,agph8k0wj4,Nick_Dissertation_EX1,1,133,2020-07-08T15:02:29-07:00,2.632560968399,3,versionC_stim.csv,READVersionC.csv,"Read Version C","Dissertation, read only version C",TOILET,BATHROOM,Study1,S,58,19,Test,User,-,,Recall,Recall1,1950,,0,-1,-1,0,0,,1
5b15acacc85dc40001625c89,agph8k0wj4,Nick_Dissertation_EX1,1,134,2020-07-08T15:02:35-07:00,5.2649159431458,3,versionC_stim.csv,READVersionC.csv,"Read Version C","Dissertation, read only version C",ROCK,GEOLOGY,Study1,B,19,16,Test,User,-,,Recall,Recall1,4526,Stone,16.666666666667,-1,-1,0,0,,1
5b15acacc85dc40001625c89,agph8k0wj4,Nick_Dissertation_EX1,1,135,2020-07-08T15:02:39-07:00,4.1031839847565,3,versionC_stim.csv,READVersionC.csv,"Read Version C","Dissertation, read only version C",BLAZE,FIRE,Study1,F,45,59,Test,User,-,,Recall,Recall1,3359,Fire,100,-1,-1,1,1,,1
5b15acacc85dc40001625c89,agph8k0wj4,Nick_Dissertation_EX1,1,136,2020-07-08T15:02:41-07:00,1.9567799568176,3,versionC_stim.csv,READVersionC.csv,"Read Version C","Dissertation, read only version C",WORD,SENTENCE,Study1,F,31,68,Test,User,-,,Recall,Recall1,1343,,0,-1,-1,0,0,,1
5b15acacc85dc40001625c89,agph8k0wj4,Nick_Dissertation_EX1,1,137,2020-07-08T15:02:45-07:00,4.6361360549927,3,versionC_stim.csv,READVersionC.csv,"Read Version C","Dissertation, read only version C",LIVER,KIDNEY,Study1,S,53,86,Test,User,-,,Recall,Recall1,3904,Kidney,100,-1,-1,1,1,,1
5b15acacc85dc40001625c89,agph8k0wj4,Nick_Dissertation_EX1,1,138,2020-07-08T15:02:50-07:00,4.8373329639435,3,versionC_stim.csv,READVersionC.csv,"Read Version C","Dissertation, read only version C",STENCH,SMELL,Study1,F,42,78,Test,User,-,,Recall,Recall1,4062,Stink,20,-1,-1,0,0,,1
5b15acacc85dc40001625c89,agph8k0wj4,Nick_Dissertation_EX1,1,139,2020-07-08T15:02:53-07:00,2.9339389801025,3,versionC_stim.csv,READVersionC.csv,"Read Version C","Dissertation, read only version C",WATER,BRIDGE,Study1,B,18,30,Test,User,-,,Recall,Recall1,1340,,0,-1,-1,0,0,,1
5b15acacc85dc40001625c89,agph8k0wj4,Nick_Dissertation_EX1,1,140,2020-07-08T15:02:59-07:00,5.9841940402985,3,versionC_stim.csv,READVersionC.csv,"Read Version C","Dissertation, read only version C",HAND,FIX,Study1,U,75,7,Test,User,-,,Recall,Recall1,4124,Foot,28.571428571429,-1,-1,0,0,,1
5b15acacc85dc40001625c89,agph8k0wj4,Nick_Dissertation_EX1,1,141,2020-07-08T15:03:01-07:00,2.1254110336304,3,versionC_stim.csv,READVersionC.csv,"Read Version C","Dissertation, read only version C",RACKET,BALL,Study1,F,38,76,Test,User,-,,Recall,Recall1,1427,,0,-1,-1,0,0,,1
5b15acacc85dc40001625c89,agph8k0wj4,Nick_Dissertation_EX1,1,142,2020-07-08T15:03:07-07:00,5.8879849910736,3,versionC_stim.csv,READVersionC.csv,"Read Version C","Dissertation, read only version C",CARD,CREDIT,Study1,B,23,79,Test,User,-,,Recall,Recall1,5211,Playing,15.384615384615,-1,-1,0,0,,1
5b15acacc85dc40001625c89,agph8k0wj4,Nick_Dissertation_EX1,1,143,2020-07-08T15:03:09-07:00,1.9150490760803,3,versionC_stim.csv,READVersionC.csv,"Read Version C","Dissertation, read only version C",TALK,DISCUSSION,Study1,B,21,18,Test,User,-,,Recall,Recall1,1263,,0,-1,-1,0,0,,1
5b15acacc85dc40001625c89,agph8k0wj4,Nick_Dissertation_EX1,1,144,2020-07-08T15:03:18-07:00,8.6140978336334,3,versionC_stim.csv,READVersionC.csv,"Read Version C","Dissertation, read only version C",HUNGRY,PARK,Study1,U,68,8,Test,User,-,,Recall,Recall1,7882,Famished,16.666666666667,-1,-1,0,0,,1
5b15acacc85dc40001625c89,agph8k0wj4,Nick_Dissertation_EX1,1,145,2020-07-08T15:03:22-07:00,4.2371871471405,3,versionC_stim.csv,READVersionC.csv,"Read Version C","Dissertation, read only version C",SICK,HIDE,Study1,U,84,41,Test,User,-,,Recall,Recall1,3488,Ill,28.571428571429,-1,-1,0,0,,1
5b15acacc85dc40001625c89,agph8k0wj4,Nick_Dissertation_EX1,1,146,2020-07-08T15:03:26-07:00,4.521283864975,3,versionC_stim.csv,READVersionC.csv,"Read Version C","Dissertation, read only version C",SODA,POP,Study1,S,56,27,Test,User,-,,Recall,Recall1,3524,Water,0,-1,-1,0,0,,1
5b15acacc85dc40001625c89,agph8k0wj4,Nick_Dissertation_EX1,1,147,2020-07-08T15:03:32-07:00,5.8354551792145,3,versionC_stim.csv,READVersionC.csv,"Read Version C","Dissertation, read only version C",ATTORNEY,LAW,Study1,F,34,17,Test,User,-,,Recall,Recall1,5271,General,20,-1,-1,0,0,,1
5b15acacc85dc40001625c89,agph8k0wj4,Nick_Dissertation_EX1,1,148,2020-07-08T15:03:34-07:00,2.1603579521179,3,versionC_stim.csv,READVersionC.csv,"Read Version C","Dissertation, read only version C",SIGHT,DEBATE,Study1,U,73,28,Test,User,-,,Recall,Recall1,1505,,0,-1,-1,0,0,,1
5b15acacc85dc40001625c89,agph8k0wj4,Nick_Dissertation_EX1,1,149,2020-07-08T15:03:39-07:00,4.6157820224762,3,versionC_stim.csv,READVersionC.csv,"Read Version C","Dissertation, read only version C",PILOT,PLANE,Study1,F,44,36,Test,User,-,,Recall,Recall1,3942,Auto,22.222222222222,-1,-1,0,0,,1
5b15acacc85dc40001625c89,agph8k0wj4,Nick_Dissertation_EX1,1,150,2020-07-08T15:03:43-07:00,3.5347640514374,3,versionC_stim.csv,READVersionC.csv,"Read Version C","Dissertation, read only version C",VASE,KING,Study1,U,85,11,Test,User,-,,Recall,Recall1,2852,,0,-1,-1,0,0,,1
5b15acacc85dc40001625c89,agph8k0wj4,Nick_Dissertation_EX1,1,151,2020-07-08T15:03:48-07:00,5.1585450172424,3,versionC_stim.csv,READVersionC.csv,"Read Version C","Dissertation, read only version C",BAD,DELINQUENT,Study1,B,6,84,Test,User,-,,Recall,Recall1,3453,Good,14.285714285714,-1,-1,0,0,,1
5b15acacc85dc40001625c89,agph8k0wj4,Nick_Dissertation_EX1,1,152,2020-07-08T15:03:50-07:00,2.2263808250427,3,versionC_stim.csv,READVersionC.csv,"Read Version C","Dissertation, read only version C",SIP,DRINK,Study1,F,27,60,Test,User,-,,Recall,Recall1,1552,,0,-1,-1,0,0,,1
5b15acacc85dc40001625c89,agph8k0wj4,Nick_Dissertation_EX1,1,153,2020-07-08T15:03:52-07:00,1.8685491085052,3,versionC_stim.csv,READVersionC.csv,"Read Version C","Dissertation, read only version C",WOMAN,LIFT,Study1,U,69,40,Test,User,-,,Recall,Recall1,1267,,0,-1,-1,0,0,,1
5b15acacc85dc40001625c89,agph8k0wj4,Nick_Dissertation_EX1,1,154,2020-07-08T15:03:57-07:00,5.1532669067383,3,versionC_stim.csv,READVersionC.csv,"Read Version C","Dissertation, read only version C",GROWTH,HEIGHT,Study1,F,30,80,Test,User,-,,Recall,Recall1,4399,Chart,36.363636363636,-1,-1,0,0,,1
5b15acacc85dc40001625c89,agph8k0wj4,Nick_Dissertation_EX1,1,155,2020-07-08T15:03:59-07:00,2.4435250759125,3,versionC_stim.csv,READVersionC.csv,"Read Version C","Dissertation, read only version C",LION,ART,Study1,U,79,64,Test,User,-,,Recall,Recall1,1723,,0,-1,-1,0,0,,1
5b15acacc85dc40001625c89,agph8k0wj4,Nick_Dissertation_EX1,1,156,2020-07-08T15:04:04-07:00,4.4208099842072,3,versionC_stim.csv,READVersionC.csv,"Read Version C","Dissertation, read only version C",CHORE,WORK,Study1,F,39,46,Test,User,-,,Recall,Recall1,3742,House,22.222222222222,-1,-1,0,0,,1
5b15acacc85dc40001625c89,agph8k0wj4,Nick_Dissertation_EX1,1,157,2020-07-08T15:04:08-07:00,3.9670250415802,3,versionC_stim.csv,READVersionC.csv,"Read Version C","Dissertation, read only version C",SEIZE,TAKE,Study1,F,29,71,Test,User,-,,Recall,Recall1,3220,,0,-1,-1,0,0,,1
5b15acacc85dc40001625c89,agph8k0wj4,Nick_Dissertation_EX1,1,158,2020-07-08T15:04:10-07:00,2.0927488803864,3,versionC_stim.csv,READVersionC.csv,"Read Version C","Dissertation, read only version C",CHEESE,WINE,Study1,S,57,10,Test,User,-,,Recall,Recall1,1464,,0,-1,-1,0,0,,1
5b15acacc85dc40001625c89,agph8k0wj4,Nick_Dissertation_EX1,1,159,2020-07-08T15:04:15-07:00,5.1386611461639,3,versionC_stim.csv,READVersionC.csv,"Read Version C","Dissertation, read only version C",FLOOR,DISCOVER,Study1,U,71,70,Test,User,-,,Recall,Recall1,4409,Board,30.769230769231,-1,-1,0,0,,1
5b15acacc85dc40001625c89,agph8k0wj4,Nick_Dissertation_EX1,1,160,2020-07-08T15:04:17-07:00,1.8522298336029,3,versionC_stim.csv,READVersionC.csv,"Read Version C","Dissertation, read only version C",CAVE,DARK,Study1,F,28,63,Test,User,-,,Recall,Recall1,1240,,0,-1,-1,0,0,,1
5b15acacc85dc40001625c89,agph8k0wj4,Nick_Dissertation_EX1,1,161,2020-07-08T15:04:22-07:00,5.5307631492615,3,versionC_stim.csv,READVersionC.csv,"Read Version C","Dissertation, read only version C",CHILI,HOT,Study1,F,37,43,Test,User,-,,Recall,Recall1,4741,Hot,100,-1,-1,1,1,,1
5b15acacc85dc40001625c89,agph8k0wj4,Nick_Dissertation_EX1,1,162,2020-07-08T15:04:24-07:00,1.7384119033813,3,versionC_stim.csv,READVersionC.csv,"Read Version C","Dissertation, read only version C",AMOUNT,NUMBER,Study1,S,47,85,Test,User,-,,Recall,Recall1,1097,,0,-1,-1,0,0,,1
5b15acacc85dc40001625c89,agph8k0wj4,Nick_Dissertation_EX1,1,163,2020-07-08T15:04:27-07:00,2.4037370681763,3,versionC_stim.csv,READVersionC.csv,"Read Version C","Dissertation, read only version C",ATTIRE,CLOTHES,Study1,F,43,21,Test,User,-,,Recall,Recall1,1694,,0,-1,-1,0,0,,1
5b15acacc85dc40001625c89,agph8k0wj4,Nick_Dissertation_EX1,1,164,2020-07-08T15:04:28-07:00,1.9828939437866,3,versionC_stim.csv,READVersionC.csv,"Read Version C","Dissertation, read only version C",CLEAN,HYGIENE,Study1,B,17,33,Test,User,-,,Recall,Recall1,1411,,0,-1,-1,0,0,,1
5b15acacc85dc40001625c89,agph8k0wj4,Nick_Dissertation_EX1,1,165,2020-07-08T15:04:33-07:00,4.3379900455475,3,versionC_stim.csv,READVersionC.csv,"Read Version C","Dissertation, read only version C",LATCH,KEY,Study1,F,36,35,Test,User,-,,Recall,Recall1,3607,Door,0,-1,-1,0,0,,1
5b15acacc85dc40001625c89,agph8k0wj4,Nick_Dissertation_EX1,1,166,2020-07-08T15:04:35-07:00,2.1047139167786,3,versionC_stim.csv,READVersionC.csv,"Read Version C","Dissertation, read only version C",FAMINE,HUNGER,Study1,F,40,53,Test,User,-,,Recall,Recall1,1519,,0,-1,-1,0,0,,1
5b15acacc85dc40001625c89,agph8k0wj4,Nick_Dissertation_EX1,1,167,2020-07-08T15:04:37-07:00,1.8021171092987,3,versionC_stim.csv,READVersionC.csv,"Read Version C","Dissertation, read only version C",ASSIGNMENT,DUE,Study1,S,46,37,Test,User,-,,Recall,Recall1,1195,,0,-1,-1,0,0,,1
5b15acacc85dc40001625c89,agph8k0wj4,Nick_Dissertation_EX1,1,168,2020-07-08T15:04:42-07:00,5.328320980072,3,versionC_stim.csv,READVersionC.csv,"Read Version C","Dissertation, read only version C",HAMMER,CHISEL,Study1,B,9,69,Test,User,-,,Recall,Recall1,4570,Claw,40,-1,-1,0,0,,1
5b15acacc85dc40001625c89,agph8k0wj4,Nick_Dissertation_EX1,1,169,2020-07-08T15:04:44-07:00,1.8997478485107,3,versionC_stim.csv,READVersionC.csv,"Read Version C","Dissertation, read only version C",BIRD,SWAN,Study1,B,14,9,Test,User,-,,Recall,Recall1,1284,,0,-1,-1,0,0,,1
5b15acacc85dc40001625c89,agph8k0wj4,Nick_Dissertation_EX1,1,170,2020-07-08T15:04:52-07:00,7.81947016716,3,versionC_stim.csv,READVersionC.csv,"Read Version C","Dissertation, read only version C",DROWSY,SLEEP,Study1,F,41,73,Test,User,-,,Recall,Recall1,7084,Awake,20,-1,-1,0,0,,1
5b15acacc85dc40001625c89,agph8k0wj4,Nick_Dissertation_EX1,1,171,2020-07-08T15:04:57-07:00,5.1295189857483,3,versionC_stim.csv,READVersionC.csv,"Read Version C","Dissertation, read only version C",STING,HORNET,Study1,B,11,65,Test,User,-,,Recall,Recall1,4446,Hornet,100,-1,-1,1,1,,1
5b15acacc85dc40001625c89,agph8k0wj4,Nick_Dissertation_EX1,1,172,2020-07-08T15:05:01-07:00,4.2412719726562,3,versionC_stim.csv,READVersionC.csv,"Read Version C","Dissertation, read only version C",BELT,SOON,Study1,U,70,48,Test,User,-,,Recall,Recall1,3444,Seat,25,-1,-1,0,0,,1
5b15acacc85dc40001625c89,agph8k0wj4,Nick_Dissertation_EX1,1,173,2020-07-08T15:05:03-07:00,1.9293479919434,3,versionC_stim.csv,READVersionC.csv,"Read Version C","Dissertation, read only version C",CAR,HAPPY,Study1,U,77,82,Test,User,-,,Recall,Recall1,1347,,0,-1,-1,0,0,,1
5b15acacc85dc40001625c89,agph8k0wj4,Nick_Dissertation_EX1,1,174,2020-07-08T15:05:09-07:00,5.4255919456482,3,versionC_stim.csv,READVersionC.csv,"Read Version C","Dissertation, read only version C",MONEY,WAGE,Study1,B,8,74,Test,User,-,,Recall,Recall1,3726,Cash,25,-1,-1,0,0,,1
5b15acacc85dc40001625c89,agph8k0wj4,Nick_Dissertation_EX1,1,175,2020-07-08T15:05:21-07:00,12.069546937943,3,versionC_stim.csv,READVersionC.csv,"Read Version C","Dissertation, read only version C",,,,,,0,Instruct,-,10,"You will now be presented with a new set of word pairs. Please study each pair. Remember that your memory will be tested! When finished, press Enter to move to the next pair.",Initial_Instruct,Instruct4,11205,,,-1,-1,,,,1
5b15acacc85dc40001625c89,agph8k0wj4,Nick_Dissertation_EX1,1,176,2020-07-08T15:05:23-07:00,2.152862071991,3,versionC_stim.csv,READVersionC.csv,"Read Version C","Dissertation, read only version C",FROZEN,ICE,BUFFER3,Buffer,94,92,Study,User,-,,Study/JOL,BUFFER3,1545,,,-1,-1,,,,1
5b15acacc85dc40001625c89,agph8k0wj4,Nick_Dissertation_EX1,1,177,2020-07-08T15:05:25-07:00,1.7730269432068,3,versionC_stim.csv,READVersionC.csv,"Read Version C","Dissertation, read only version C",FISH,SHRIMP,BUFFER3,Buffer,93,94,Study,User,-,,Study/JOL,BUFFER3,1153,,,-1,-1,,,,1
5b15acacc85dc40001625c89,agph8k0wj4,Nick_Dissertation_EX1,1,178,2020-07-08T15:05:26-07:00,1.9257900714874,3,versionC_stim.csv,READVersionC.csv,"Read Version C","Dissertation, read only version C",STRING,NOODLE,BUFFER3,Buffer,92,95,Study,User,-,,Study/JOL,BUFFER3,1056,,,-1,-1,,,,1
5b15acacc85dc40001625c89,agph8k0wj4,Nick_Dissertation_EX1,1,179,2020-07-08T15:05:28-07:00,1.534511089325,3,versionC_stim.csv,READVersionC.csv,"Read Version C","Dissertation, read only version C",POTATO,CARROT,BUFFER3,Buffer,91,96,Study,User,-,,Study/JOL,BUFFER3,953,,,-1,-1,,,,1
5b15acacc85dc40001625c89,agph8k0wj4,Nick_Dissertation_EX1,1,180,2020-07-08T15:05:32-07:00,3.6818339824677,3,versionC_stim.csv,READVersionC.csv,"Read Version C","Dissertation, read only version C",ADVENTURE,CAMP,BUFFER3,Buffer,95,93,Study,User,-,,Study/JOL,BUFFER3,2857,,,-1,-1,,,,1
5b15acacc85dc40001625c89,agph8k0wj4,Nick_Dissertation_EX1,1,181,2020-07-08T15:05:38-07:00,6.3445179462433,3,versionC_stim.csv,READVersionC.csv,"Read Version C","Dissertation, read only version C",JAR,MASON,Study2,S,138,118,Study,User,-,,Study/JOL,"Study Phase2",5667,,,-1,-1,,,,1
5b15acacc85dc40001625c89,agph8k0wj4,Nick_Dissertation_EX1,1,182,2020-07-08T15:05:40-07:00,1.6099979877472,3,versionC_stim.csv,READVersionC.csv,"Read Version C","Dissertation, read only version C",FICTION,LISTEN,Study2,U,164,162,Study,User,-,,Study/JOL,"Study Phase2",970,,,-1,-1,,,,1
5b15acacc85dc40001625c89,agph8k0wj4,Nick_Dissertation_EX1,1,183,2020-07-08T15:05:41-07:00,1.7323250770569,3,versionC_stim.csv,READVersionC.csv,"Read Version C","Dissertation, read only version C",REVENGE,EVEN,Study2,F,122,167,Study,User,-,,Study/JOL,"Study Phase2",1075,,,-1,-1,,,,1
5b15acacc85dc40001625c89,agph8k0wj4,Nick_Dissertation_EX1,1,184,2020-07-08T15:05:43-07:00,1.5505039691925,3,versionC_stim.csv,READVersionC.csv,"Read Version C","Dissertation, read only version C",VILLAIN,BAD,Study2,F,118,153,Study,User,-,,Study/JOL,"Study Phase2",964,,,-1,-1,,,,1
5b15acacc85dc40001625c89,agph8k0wj4,Nick_Dissertation_EX1,1,185,2020-07-08T15:05:44-07:00,1.5784199237823,3,versionC_stim.csv,READVersionC.csv,"Read Version C","Dissertation, read only version C",HEAD,SCALP,Study2,B,105,164,Study,User,-,,Study/JOL,"Study Phase2",945,,,-1,-1,,,,1
5b15acacc85dc40001625c89,agph8k0wj4,Nick_Dissertation_EX1,1,186,2020-07-08T15:05:46-07:00,1.5369310379028,3,versionC_stim.csv,READVersionC.csv,"Read Version C","Dissertation, read only version C",BRACELET,WRIST,Study2,S,140,97,Study,User,-,,Study/JOL,"Study Phase2",960,,,-1,-1,,,,1
5b15acacc85dc40001625c89,agph8k0wj4,Nick_Dissertation_EX1,1,187,2020-07-08T15:05:47-07:00,1.4937500953674,3,versionC_stim.csv,READVersionC.csv,"Read Version C","Dissertation, read only version C",LONG,EXTENSION,Study2,B,96,102,Study,User,-,,Study/JOL,"Study Phase2",857,,,-1,-1,,,,1
5b15acacc85dc40001625c89,agph8k0wj4,Nick_Dissertation_EX1,1,188,2020-07-08T15:05:50-07:00,2.6004929542542,3,versionC_stim.csv,READVersionC.csv,"Read Version C","Dissertation, read only version C",RED,CHERRY,Study2,B,104,149,Study,User,-,,Study/JOL,"Study Phase2",1014,,,-1,-1,,,,1
5b15acacc85dc40001625c89,agph8k0wj4,Nick_Dissertation_EX1,1,189,2020-07-08T15:05:52-07:00,1.9203040599823,3,versionC_stim.csv,READVersionC.csv,"Read Version C","Dissertation, read only version C",NOISE,LOUD,Study2,S,152,126,Study,User,-,,Study/JOL,"Study Phase2",1157,,,-1,-1,,,,1
5b15acacc85dc40001625c89,agph8k0wj4,Nick_Dissertation_EX1,1,190,2020-07-08T15:05:54-07:00,1.7303988933563,3,versionC_stim.csv,READVersionC.csv,"Read Version C","Dissertation, read only version C",BRAWL,FIGHT,Study2,F,135,172,Study,User,-,,Study/JOL,"Study Phase2",1115,,,-1,-1,,,,1
5b15acacc85dc40001625c89,agph8k0wj4,Nick_Dissertation_EX1,1,191,2020-07-08T15:05:55-07:00,1.6651298999786,3,versionC_stim.csv,READVersionC.csv,"Read Version C","Dissertation, read only version C",TAN,SUN,Study2,S,155,154,Study,User,-,,Study/JOL,"Study Phase2",1017,,,-1,-1,,,,1
5b15acacc85dc40001625c89,agph8k0wj4,Nick_Dissertation_EX1,1,192,2020-07-08T15:05:57-07:00,1.5736541748047,3,versionC_stim.csv,READVersionC.csv,"Read Version C","Dissertation, read only version C",PLANT,CACTUS,Study2,B,98,121,Study,User,-,,Study/JOL,"Study Phase2",975,,,-1,-1,,,,1
5b15acacc85dc40001625c89,agph8k0wj4,Nick_Dissertation_EX1,1,193,2020-07-08T15:06:01-07:00,3.5784678459167,3,versionC_stim.csv,READVersionC.csv,"Read Version C","Dissertation, read only version C",PANTHER,CAT,Study2,F,126,138,Study,User,-,,Study/JOL,"Study Phase2",2836,,,-1,-1,,,,1
5b15acacc85dc40001625c89,agph8k0wj4,Nick_Dissertation_EX1,1,194,2020-07-08T15:06:02-07:00,1.4714040756226,3,versionC_stim.csv,READVersionC.csv,"Read Version C","Dissertation, read only version C",WINDSHIELD,CAR,Study2,F,117,113,Study,User,-,,Study/JOL,"Study Phase2",891,,,-1,-1,,,,1
5b15acacc85dc40001625c89,agph8k0wj4,Nick_Dissertation_EX1,1,195,2020-07-08T15:06:04-07:00,1.6713321208954,3,versionC_stim.csv,READVersionC.csv,"Read Version C","Dissertation, read only version C",END,ADJOURN,Study2,B,101,136,Study,User,-,,Study/JOL,"Study Phase2",1028,,,-1,-1,,,,1
5b15acacc85dc40001625c89,agph8k0wj4,Nick_Dissertation_EX1,1,196,2020-07-08T15:06:05-07:00,1.5294559001923,3,versionC_stim.csv,READVersionC.csv,"Read Version C","Dissertation, read only version C",OBTAIN,MEAT,Study2,U,161,120,Study,User,-,,Study/JOL,"Study Phase2",933,,,-1,-1,,,,1
5b15acacc85dc40001625c89,agph8k0wj4,Nick_Dissertation_EX1,1,197,2020-07-08T15:06:07-07:00,1.5671849250793,3,versionC_stim.csv,READVersionC.csv,"Read Version C","Dissertation, read only version C",CAR,DRIVER,Study2,B,106,133,Study,User,-,,Study/JOL,"Study Phase2",908,,,-1,-1,,,,1
5b15acacc85dc40001625c89,agph8k0wj4,Nick_Dissertation_EX1,1,198,2020-07-08T15:06:08-07:00,1.4054090976715,3,versionC_stim.csv,READVersionC.csv,"Read Version C","Dissertation, read only version C",THIMBLE,THREAD,Study2,F,121,119,Study,User,-,,Study/JOL,"Study Phase2",828,,,-1,-1,,,,1
5b15acacc85dc40001625c89,agph8k0wj4,Nick_Dissertation_EX1,1,199,2020-07-08T15:06:10-07:00,1.4525580406189,3,versionC_stim.csv,READVersionC.csv,"Read Version C","Dissertation, read only version C",AWAY,GONE,Study2,S,142,161,Study,User,-,,Study/JOL,"Study Phase2",807,,,-1,-1,,,,1
5b15acacc85dc40001625c89,agph8k0wj4,Nick_Dissertation_EX1,1,200,2020-07-08T15:06:11-07:00,1.4917149543762,3,versionC_stim.csv,READVersionC.csv,"Read Version C","Dissertation, read only version C",LONELY,ALONE,Study2,S,145,132,Study,User,-,,Study/JOL,"Study Phase2",873,,,-1,-1,,,,1
5b15acacc85dc40001625c89,agph8k0wj4,Nick_Dissertation_EX1,1,201,2020-07-08T15:06:13-07:00,1.5323328971863,3,versionC_stim.csv,READVersionC.csv,"Read Version C","Dissertation, read only version C",TRASH,LITTER,Study2,B,103,152,Study,User,-,,Study/JOL,"Study Phase2",894,,,-1,-1,,,,1
5b15acacc85dc40001625c89,agph8k0wj4,Nick_Dissertation_EX1,1,202,2020-07-08T15:06:14-07:00,1.7330479621887,3,versionC_stim.csv,READVersionC.csv,"Read Version C","Dissertation, read only version C",Morning,TEMPERATURE,Study2,U,173,147,Study,User,-,,Study/JOL,"Study Phase2",1052,,,-1,-1,,,,1
5b15acacc85dc40001625c89,agph8k0wj4,Nick_Dissertation_EX1,1,203,2020-07-08T15:06:16-07:00,1.5754990577698,3,versionC_stim.csv,READVersionC.csv,"Read Version C","Dissertation, read only version C",PENGUIN,BIRD,Study2,F,119,141,Study,User,-,,Study/JOL,"Study Phase2",933,,,-1,-1,,,,1
5b15acacc85dc40001625c89,agph8k0wj4,Nick_Dissertation_EX1,1,204,2020-07-08T15:06:18-07:00,1.745176076889,3,versionC_stim.csv,READVersionC.csv,"Read Version C","Dissertation, read only version C",JOKE,KEYS,Study2,U,165,168,Study,User,-,,Study/JOL,"Study Phase2",857,,,-1,-1,,,,1
5b15acacc85dc40001625c89,agph8k0wj4,Nick_Dissertation_EX1,1,205,2020-07-08T15:06:19-07:00,1.6157579421997,3,versionC_stim.csv,READVersionC.csv,"Read Version C","Dissertation, read only version C",BANKER,MONEY,Study2,F,132,165,Study,User,-,,Study/JOL,"Study Phase2",983,,,-1,-1,,,,1
5b15acacc85dc40001625c89,agph8k0wj4,Nick_Dissertation_EX1,1,206,2020-07-08T15:06:21-07:00,1.4574329853058,3,versionC_stim.csv,READVersionC.csv,"Read Version C","Dissertation, read only version C",CUT,CHOP,Study2,B,107,122,Study,User,-,,Study/JOL,"Study Phase2",859,,,-1,-1,,,,1
5b15acacc85dc40001625c89,agph8k0wj4,Nick_Dissertation_EX1,1,207,2020-07-08T15:06:22-07:00,1.5337760448456,3,versionC_stim.csv,READVersionC.csv,"Read Version C","Dissertation, read only version C",DRINK,WATER,Study2,S,143,144,Study,User,-,,Study/JOL,"Study Phase2",890,,,-1,-1,,,,1
5b15acacc85dc40001625c89,agph8k0wj4,Nick_Dissertation_EX1,1,208,2020-07-08T15:06:24-07:00,1.5301721096039,3,versionC_stim.csv,READVersionC.csv,"Read Version C","Dissertation, read only version C",CARBON,ELEMENT,Study2,S,141,109,Study,User,-,,Study/JOL,"Study Phase2",851,,,-1,-1,,,,1
5b15acacc85dc40001625c89,agph8k0wj4,Nick_Dissertation_EX1,1,209,2020-07-08T15:06:25-07:00,1.4984238147736,3,versionC_stim.csv,READVersionC.csv,"Read Version C","Dissertation, read only version C",BANG,FUZZY,Study2,U,168,166,Study,User,-,,Study/JOL,"Study Phase2",866,,,-1,-1,,,,1
5b15acacc85dc40001625c89,agph8k0wj4,Nick_Dissertation_EX1,1,210,2020-07-08T15:06:27-07:00,1.4320600032806,3,versionC_stim.csv,READVersionC.csv,"Read Version C","Dissertation, read only version C",REEL,ROD,Study2,S,150,163,Study,User,-,,Study/JOL,"Study Phase2",840,,,-1,-1,,,,1
5b15acacc85dc40001625c89,agph8k0wj4,Nick_Dissertation_EX1,1,211,2020-07-08T15:06:28-07:00,1.5314700603485,3,versionC_stim.csv,READVersionC.csv,"Read Version C","Dissertation, read only version C",CHARM,VEHICLE,Study2,U,160,99,Study,User,-,,Study/JOL,"Study Phase2",892,,,-1,-1,,,,1
5b15acacc85dc40001625c89,agph8k0wj4,Nick_Dissertation_EX1,1,212,2020-07-08T15:06:31-07:00,2.4789090156555,3,versionC_stim.csv,READVersionC.csv,"Read Version C","Dissertation, read only version C",HAVE,OWN,Study2,S,153,98,Study,User,-,,Study/JOL,"Study Phase2",882,,,-1,-1,,,,1
5b15acacc85dc40001625c89,agph8k0wj4,Nick_Dissertation_EX1,1,213,2020-07-08T15:06:33-07:00,2.03724193573,3,versionC_stim.csv,READVersionC.csv,"Read Version C","Dissertation, read only version C",DONKEY,MULE,Study2,B,108,104,Study,User,-,,Study/JOL,"Study Phase2",1357,,,-1,-1,,,,1
5b15acacc85dc40001625c89,agph8k0wj4,Nick_Dissertation_EX1,1,214,2020-07-08T15:06:35-07:00,1.7918910980225,3,versionC_stim.csv,READVersionC.csv,"Read Version C","Dissertation, read only version C",LEAGUE,BASEBALL,Study2,F,131,157,Study,User,-,,Study/JOL,"Study Phase2",1204,,,-1,-1,,,,1
5b15acacc85dc40001625c89,agph8k0wj4,Nick_Dissertation_EX1,1,215,2020-07-08T15:06:37-07:00,1.8751409053802,3,versionC_stim.csv,READVersionC.csv,"Read Version C","Dissertation, read only version C",HATE,NAME,Study2,U,167,115,Study,User,-,,Study/JOL,"Study Phase2",888,,,-1,-1,,,,1
5b15acacc85dc40001625c89,agph8k0wj4,Nick_Dissertation_EX1,1,216,2020-07-08T15:06:38-07:00,1.4587919712067,3,versionC_stim.csv,READVersionC.csv,"Read Version C","Dissertation, read only version C",LOVE,AFFECTION,Study2,B,115,140,Study,User,-,,Study/JOL,"Study Phase2",866,,,-1,-1,,,,1
5b15acacc85dc40001625c89,agph8k0wj4,Nick_Dissertation_EX1,1,217,2020-07-08T15:06:39-07:00,1.4733860492706,3,versionC_stim.csv,READVersionC.csv,"Read Version C","Dissertation, read only version C",SCISSORS,SHEARS,Study2,B,112,145,Study,User,-,,Study/JOL,"Study Phase2",830,,,-1,-1,,,,1
5b15acacc85dc40001625c89,agph8k0wj4,Nick_Dissertation_EX1,1,218,2020-07-08T15:06:41-07:00,1.6670150756836,3,versionC_stim.csv,READVersionC.csv,"Read Version C","Dissertation, read only version C",STEAK,GIVE,Study2,U,158,158,Study,User,-,,Study/JOL,"Study Phase2",1073,,,-1,-1,,,,1
5b15acacc85dc40001625c89,agph8k0wj4,Nick_Dissertation_EX1,1,219,2020-07-08T15:06:42-07:00,1.3683049678802,3,versionC_stim.csv,READVersionC.csv,"Read Version C","Dissertation, read only version C",FAVORITE,BEST,Study2,F,125,110,Study,User,-,,Study/JOL,"Study Phase2",743,,,-1,-1,,,,1
5b15acacc85dc40001625c89,agph8k0wj4,Nick_Dissertation_EX1,1,220,2020-07-08T15:06:44-07:00,1.404217004776,3,versionC_stim.csv,READVersionC.csv,"Read Version C","Dissertation, read only version C",TRUTHFUL,HONEST,Study2,F,133,135,Study,User,-,,Study/JOL,"Study Phase2",806,,,-1,-1,,,,1
5b15acacc85dc40001625c89,agph8k0wj4,Nick_Dissertation_EX1,1,221,2020-07-08T15:06:45-07:00,1.3937389850616,3,versionC_stim.csv,READVersionC.csv,"Read Version C","Dissertation, read only version C",NAP,SLEEP,Study2,F,134,124,Study,User,-,,Study/JOL,"Study Phase2",763,,,-1,-1,,,,1
5b15acacc85dc40001625c89,agph8k0wj4,Nick_Dissertation_EX1,1,222,2020-07-08T15:06:47-07:00,1.3886320590973,3,versionC_stim.csv,READVersionC.csv,"Read Version C","Dissertation, read only version C",CHILDREN,MIRROR,Study2,U,174,169,Study,User,-,,Study/JOL,"Study Phase2",786,,,-1,-1,,,,1
5b15acacc85dc40001625c89,agph8k0wj4,Nick_Dissertation_EX1,1,223,2020-07-08T15:06:48-07:00,1.5032410621643,3,versionC_stim.csv,READVersionC.csv,"Read Version C","Dissertation, read only version C",DOG,FURRY,Study2,B,102,116,Study,User,-,,Study/JOL,"Study Phase2",869,,,-1,-1,,,,1
5b15acacc85dc40001625c89,agph8k0wj4,Nick_Dissertation_EX1,1,224,2020-07-08T15:06:50-07:00,1.4360799789429,3,versionC_stim.csv,READVersionC.csv,"Read Version C","Dissertation, read only version C",MAROON,JUSTICE,Study2,U,156,134,Study,User,-,,Study/JOL,"Study Phase2",860,,,-1,-1,,,,1
5b15acacc85dc40001625c89,agph8k0wj4,Nick_Dissertation_EX1,1,225,2020-07-08T15:06:51-07:00,1.5459439754486,3,versionC_stim.csv,READVersionC.csv,"Read Version C","Dissertation, read only version C",SEATBELT,SAFETY,Study2,S,147,101,Study,User,-,,Study/JOL,"Study Phase2",891,,,-1,-1,,,,1
5b15acacc85dc40001625c89,agph8k0wj4,Nick_Dissertation_EX1,1,226,2020-07-08T15:06:53-07:00,1.4952058792114,3,versionC_stim.csv,READVersionC.csv,"Read Version C","Dissertation, read only version C",MYSTERY,DETECTIVE,Study2,B,100,127,Study,User,-,,Study/JOL,"Study Phase2",894,,,-1,-1,,,,1
5b15acacc85dc40001625c89,agph8k0wj4,Nick_Dissertation_EX1,1,227,2020-07-08T15:06:54-07:00,1.4882800579071,3,versionC_stim.csv,READVersionC.csv,"Read Version C","Dissertation, read only version C",CLEAR,MOAT,Study2,U,169,111,Study,User,-,,Study/JOL,"Study Phase2",870,,,-1,-1,,,,1
5b15acacc85dc40001625c89,agph8k0wj4,Nick_Dissertation_EX1,1,228,2020-07-08T15:06:56-07:00,1.4256238937378,3,versionC_stim.csv,READVersionC.csv,"Read Version C","Dissertation, read only version C",SMELL,INCENSE,Study2,B,110,151,Study,User,-,,Study/JOL,"Study Phase2",838,,,-1,-1,,,,1
5b15acacc85dc40001625c89,agph8k0wj4,Nick_Dissertation_EX1,1,229,2020-07-08T15:06:57-07:00,1.5252871513367,3,versionC_stim.csv,READVersionC.csv,"Read Version C","Dissertation, read only version C",EQUAL,RIGHTS,Study2,S,137,123,Study,User,-,,Study/JOL,"Study Phase2",894,,,-1,-1,,,,1
5b15acacc85dc40001625c89,agph8k0wj4,Nick_Dissertation_EX1,1,230,2020-07-08T15:06:58-07:00,1.4058768749237,3,versionC_stim.csv,READVersionC.csv,"Read Version C","Dissertation, read only version C",WAX,CANDLE,Study2,S,139,114,Study,User,-,,Study/JOL,"Study Phase2",813,,,-1,-1,,,,1
5b15acacc85dc40001625c89,agph8k0wj4,Nick_Dissertation_EX1,1,231,2020-07-08T15:07:00-07:00,1.4853999614716,3,versionC_stim.csv,READVersionC.csv,"Read Version C","Dissertation, read only version C",GAME,CLUE,Study2,B,97,125,Study,User,-,,Study/JOL,"Study Phase2",841,,,-1,-1,,,,1
5b15acacc85dc40001625c89,agph8k0wj4,Nick_Dissertation_EX1,1,232,2020-07-08T15:07:03-07:00,2.9679951667786,3,versionC_stim.csv,READVersionC.csv,"Read Version C","Dissertation, read only version C",SCAR,MAIN,Study2,U,175,142,Study,User,-,,Study/JOL,"Study Phase2",1194,,,-1,-1,,,,1
5b15acacc85dc40001625c89,agph8k0wj4,Nick_Dissertation_EX1,1,233,2020-07-08T15:07:05-07:00,1.5898039340973,3,versionC_stim.csv,READVersionC.csv,"Read Version C","Dissertation, read only version C",FLIP,TURN,Study2,F,116,128,Study,User,-,,Study/JOL,"Study Phase2",991,,,-1,-1,,,,1
5b15acacc85dc40001625c89,agph8k0wj4,Nick_Dissertation_EX1,1,234,2020-07-08T15:07:06-07:00,1.8558170795441,3,versionC_stim.csv,READVersionC.csv,"Read Version C","Dissertation, read only version C",ACTRESS,STAR,Study2,F,120,156,Study,User,-,,Study/JOL,"Study Phase2",978,,,-1,-1,,,,1
5b15acacc85dc40001625c89,agph8k0wj4,Nick_Dissertation_EX1,1,235,2020-07-08T15:07:08-07:00,1.4836449623108,3,versionC_stim.csv,READVersionC.csv,"Read Version C","Dissertation, read only version C",SHAKE,Shell,Study2,U,163,159,Study,User,-,,Study/JOL,"Study Phase2",860,,,-1,-1,,,,1
5b15acacc85dc40001625c89,agph8k0wj4,Nick_Dissertation_EX1,1,236,2020-07-08T15:07:09-07:00,1.5309698581696,3,versionC_stim.csv,READVersionC.csv,"Read Version C","Dissertation, read only version C",ABLE,CRACKLE,Study2,U,162,112,Study,User,-,,Study/JOL,"Study Phase2",893,,,-1,-1,,,,1
5b15acacc85dc40001625c89,agph8k0wj4,Nick_Dissertation_EX1,1,237,2020-07-08T15:07:11-07:00,1.4915821552277,3,versionC_stim.csv,READVersionC.csv,"Read Version C","Dissertation, read only version C",COFFIN,DEAD,Study2,F,128,139,Study,User,-,,Study/JOL,"Study Phase2",895,,,-1,-1,,,,1
5b15acacc85dc40001625c89,agph8k0wj4,Nick_Dissertation_EX1,1,238,2020-07-08T15:07:12-07:00,1.5458428859711,3,versionC_stim.csv,READVersionC.csv,"Read Version C","Dissertation, read only version C",CLOTH,STRETCH,Study2,U,157,105,Study,User,-,,Study/JOL,"Study Phase2",886,,,-1,-1,,,,1
5b15acacc85dc40001625c89,agph8k0wj4,Nick_Dissertation_EX1,1,239,2020-07-08T15:07:14-07:00,1.4633941650391,3,versionC_stim.csv,READVersionC.csv,"Read Version C","Dissertation, read only version C",BREAKABLE,GLASS,Study2,F,127,117,Study,User,-,,Study/JOL,"Study Phase2",852,,,-1,-1,,,,1
5b15acacc85dc40001625c89,agph8k0wj4,Nick_Dissertation_EX1,1,240,2020-07-08T15:07:15-07:00,1.4285860061646,3,versionC_stim.csv,READVersionC.csv,"Read Version C","Dissertation, read only version C",LIE,TRUTH,Study2,S,148,108,Study,User,-,,Study/JOL,"Study Phase2",784,,,-1,-1,,,,1
5b15acacc85dc40001625c89,agph8k0wj4,Nick_Dissertation_EX1,1,241,2020-07-08T15:07:17-07:00,1.3601639270782,3,versionC_stim.csv,READVersionC.csv,"Read Version C","Dissertation, read only version C",CLOTHES,CAKE,Study2,U,166,160,Study,User,-,,Study/JOL,"Study Phase2",782,,,-1,-1,,,,1
5b15acacc85dc40001625c89,agph8k0wj4,Nick_Dissertation_EX1,1,242,2020-07-08T15:07:18-07:00,1.4821190834045,3,versionC_stim.csv,READVersionC.csv,"Read Version C","Dissertation, read only version C",COMMUNICATION,PHONE,Study2,S,149,143,Study,User,-,,Study/JOL,"Study Phase2",828,,,-1,-1,,,,1
5b15acacc85dc40001625c89,agph8k0wj4,Nick_Dissertation_EX1,1,243,2020-07-08T15:07:20-07:00,1.694433927536,3,versionC_stim.csv,READVersionC.csv,"Read Version C","Dissertation, read only version C",SIGN,LOAN,Study2,U,171,129,Study,User,-,,Study/JOL,"Study Phase2",1096,,,-1,-1,,,,1
5b15acacc85dc40001625c89,agph8k0wj4,Nick_Dissertation_EX1,1,244,2020-07-08T15:07:21-07:00,1.5465178489685,3,versionC_stim.csv,READVersionC.csv,"Read Version C","Dissertation, read only version C",ELECTION,MAZE,Study2,U,159,176,Study,User,-,,Study/JOL,"Study Phase2",781,,,-1,-1,,,,1
5b15acacc85dc40001625c89,agph8k0wj4,Nick_Dissertation_EX1,1,245,2020-07-08T15:07:23-07:00,1.5714521408081,3,versionC_stim.csv,READVersionC.csv,"Read Version C","Dissertation, read only version C",SHAVE,RAZOR,Study2,S,136,174,Study,User,-,,Study/JOL,"Study Phase2",976,,,-1,-1,,,,1
5b15acacc85dc40001625c89,agph8k0wj4,Nick_Dissertation_EX1,1,246,2020-07-08T15:07:25-07:00,1.5072429180145,3,versionC_stim.csv,READVersionC.csv,"Read Version C","Dissertation, read only version C",EAT,DINE,Study2,B,111,175,Study,User,-,,Study/JOL,"Study Phase2",856,,,-1,-1,,,,1
5b15acacc85dc40001625c89,agph8k0wj4,Nick_Dissertation_EX1,1,247,2020-07-08T15:07:26-07:00,1.5020160675049,3,versionC_stim.csv,READVersionC.csv,"Read Version C","Dissertation, read only version C",WET,DRY,Study2,S,146,100,Study,User,-,,Study/JOL,"Study Phase2",917,,,-1,-1,,,,1
5b15acacc85dc40001625c89,agph8k0wj4,Nick_Dissertation_EX1,1,248,2020-07-08T15:07:28-07:00,1.6495499610901,3,versionC_stim.csv,READVersionC.csv,"Read Version C","Dissertation, read only version C",STRAWBERRY,FRUIT,Study2,F,124,148,Study,User,-,,Study/JOL,"Study Phase2",1003,,,-1,-1,,,,1
5b15acacc85dc40001625c89,agph8k0wj4,Nick_Dissertation_EX1,1,249,2020-07-08T15:07:29-07:00,1.5675339698792,3,versionC_stim.csv,READVersionC.csv,"Read Version C","Dissertation, read only version C",TOIL,LEASE,Study2,U,170,146,Study,User,-,,Study/JOL,"Study Phase2",980,,,-1,-1,,,,1
5b15acacc85dc40001625c89,agph8k0wj4,Nick_Dissertation_EX1,1,250,2020-07-08T15:07:31-07:00,1.4827511310577,3,versionC_stim.csv,READVersionC.csv,"Read Version C","Dissertation, read only version C",COLD,CHILL,Study2,B,114,103,Study,User,-,,Study/JOL,"Study Phase2",826,,,-1,-1,,,,1
5b15acacc85dc40001625c89,agph8k0wj4,Nick_Dissertation_EX1,1,251,2020-07-08T15:07:35-07:00,4.1171059608459,3,versionC_stim.csv,READVersionC.csv,"Read Version C","Dissertation, read only version C",OUNCE,BOTH,Study2,U,172,131,Study,User,-,,Study/JOL,"Study Phase2",3384,,,-1,-1,,,,1
5b15acacc85dc40001625c89,agph8k0wj4,Nick_Dissertation_EX1,1,252,2020-07-08T15:07:38-07:00,3.3284840583801,3,versionC_stim.csv,READVersionC.csv,"Read Version C","Dissertation, read only version C",PAPER,DOCUMENT,Study2,B,109,170,Study,User,-,,Study/JOL,"Study Phase2",2654,,,-1,-1,,,,1
5b15acacc85dc40001625c89,agph8k0wj4,Nick_Dissertation_EX1,1,253,2020-07-08T15:07:40-07:00,1.4720628261566,3,versionC_stim.csv,READVersionC.csv,"Read Version C","Dissertation, read only version C",FIGHT,FEUD,Study2,B,113,173,Study,User,-,,Study/JOL,"Study Phase2",870,,,-1,-1,,,,1
5b15acacc85dc40001625c89,agph8k0wj4,Nick_Dissertation_EX1,1,254,2020-07-08T15:07:41-07:00,1.5637769699097,3,versionC_stim.csv,READVersionC.csv,"Read Version C","Dissertation, read only version C",GROUND,EARTH,Study2,S,144,155,Study,User,-,,Study/JOL,"Study Phase2",892,,,-1,-1,,,,1
5b15acacc85dc40001625c89,agph8k0wj4,Nick_Dissertation_EX1,1,255,2020-07-08T15:07:43-07:00,1.4024031162262,3,versionC_stim.csv,READVersionC.csv,"Read Version C","Dissertation, read only version C",TEMPER,TANTRUM,Study2,S,154,137,Study,User,-,,Study/JOL,"Study Phase2",800,,,-1,-1,,,,1
5b15acacc85dc40001625c89,agph8k0wj4,Nick_Dissertation_EX1,1,256,2020-07-08T15:07:45-07:00,1.9845728874207,3,versionC_stim.csv,READVersionC.csv,"Read Version C","Dissertation, read only version C",AIRCRAFT,PLANE,Study2,F,129,130,Study,User,-,,Study/JOL,"Study Phase2",808,,,-1,-1,,,,1
5b15acacc85dc40001625c89,agph8k0wj4,Nick_Dissertation_EX1,1,257,2020-07-08T15:07:46-07:00,1.4733941555023,3,versionC_stim.csv,READVersionC.csv,"Read Version C","Dissertation, read only version C",SARDINE,FISH,Study2,F,130,107,Study,User,-,,Study/JOL,"Study Phase2",882,,,-1,-1,,,,1
5b15acacc85dc40001625c89,agph8k0wj4,Nick_Dissertation_EX1,1,258,2020-07-08T15:07:48-07:00,1.455178976059,3,versionC_stim.csv,READVersionC.csv,"Read Version C","Dissertation, read only version C",BALLOON,POP,Study2,F,123,171,Study,User,-,,Study/JOL,"Study Phase2",828,,,-1,-1,,,,1
5b15acacc85dc40001625c89,agph8k0wj4,Nick_Dissertation_EX1,1,259,2020-07-08T15:07:49-07:00,1.4215168952942,3,versionC_stim.csv,READVersionC.csv,"Read Version C","Dissertation, read only version C",TICK,FLEA,Study2,S,151,106,Study,User,-,,Study/JOL,"Study Phase2",834,,,-1,-1,,,,1
5b15acacc85dc40001625c89,agph8k0wj4,Nick_Dissertation_EX1,1,260,2020-07-08T15:07:50-07:00,1.472913980484,3,versionC_stim.csv,READVersionC.csv,"Read Version C","Dissertation, read only version C",TIE,SHOELACE,Study2,B,99,150,Study,User,-,,Study/JOL,"Study Phase2",843,,,-1,-1,,,,1
5b15acacc85dc40001625c89,agph8k0wj4,Nick_Dissertation_EX1,1,261,2020-07-08T15:07:52-07:00,1.4057660102844,3,versionC_stim.csv,READVersionC.csv,"Read Version C","Dissertation, read only version C",SHED,TOOL,BUFFER4,Buffer,178,177,Study,User,-,,Study/JOL,BUFFER4,824,,,-1,-1,,,,1
5b15acacc85dc40001625c89,agph8k0wj4,Nick_Dissertation_EX1,1,262,2020-07-08T15:07:53-07:00,1.4614820480347,3,versionC_stim.csv,READVersionC.csv,"Read Version C","Dissertation, read only version C",WEAKS,DAYS,BUFFER4,Buffer,176,180,Study,User,-,,Study/JOL,BUFFER4,806,,,-1,-1,,,,1
5b15acacc85dc40001625c89,agph8k0wj4,Nick_Dissertation_EX1,1,263,2020-07-08T15:07:55-07:00,1.3701241016388,3,versionC_stim.csv,READVersionC.csv,"Read Version C","Dissertation, read only version C",MARCH,SPRING,BUFFER4,Buffer,179,181,Study,User,-,,Study/JOL,BUFFER4,763,,,-1,-1,,,,1
5b15acacc85dc40001625c89,agph8k0wj4,Nick_Dissertation_EX1,1,264,2020-07-08T15:07:56-07:00,1.4895589351654,3,versionC_stim.csv,READVersionC.csv,"Read Version C","Dissertation, read only version C",YEAR,MONTH,BUFFER4,Buffer,177,178,Study,User,-,,Study/JOL,BUFFER4,823,,,-1,-1,,,,1
5b15acacc85dc40001625c89,agph8k0wj4,Nick_Dissertation_EX1,1,265,2020-07-08T15:07:58-07:00,1.7333669662476,3,versionC_stim.csv,READVersionC.csv,"Read Version C","Dissertation, read only version C",SPOOKY,OCTOBER,BUFFER4,Buffer,180,179,Study,User,-,,Study/JOL,BUFFER4,1115,,,-1,-1,,,,1
5b15acacc85dc40001625c89,agph8k0wj4,Nick_Dissertation_EX1,1,266,2020-07-08T15:08:00-07:00,1.7404689788818,3,versionC_stim.csv,READVersionC.csv,"Read Version C","Dissertation, read only version C",,,,,,0,Instruct,User,-,"You have completed this section. Please press Enter.",Filler_Instruction,Instruct5,1172,,,-1,-1,,,,1
5b15acacc85dc40001625c89,agph8k0wj4,Nick_Dissertation_EX1,1,267,2020-07-08T15:10:00-07:00,120.76214408875,3,versionC_stim.csv,READVersionC.csv,"Read Version C","Dissertation, read only version C",,,,,,0,FreeRecall,120,120,"Please list the 50 US states in reverse alphabetical order (z - a). The task will automatically advance to the next screen after two minutes.",,Filler2,120010,"Atlanta Arkansas Alpha Boston Chicago Florida Houston Idaho Illinois Jersey Kansas Miami New York Ontario Texas Virginia Wyoming Wasgingto",0,-1,-1,0,0,,1
5b15acacc85dc40001625c89,agph8k0wj4,Nick_Dissertation_EX1,1,268,2020-07-08T15:10:12-07:00,11.808886051178,3,versionC_stim.csv,READVersionC.csv,"Read Version C","Dissertation, read only version C",,,,,,0,Instruct,-,10,"You will now be presented with the first word from each of the previously studied item pairs. Please type the missing word. If you do not know the word, you may guess or press Enter to skip forward to the next pair.",,Instruct6,11080,,,-1,-1,,,,1
5b15acacc85dc40001625c89,agph8k0wj4,Nick_Dissertation_EX1,1,269,2020-07-08T15:10:16-07:00,4.1571438312531,3,versionC_stim.csv,READVersionC.csv,"Read Version C","Dissertation, read only version C",CLEAR,MOAT,Study2,U,169,111,Test,User,-,,Recall,Recall2,3454,,0,-1,-1,0,0,,1
5b15acacc85dc40001625c89,agph8k0wj4,Nick_Dissertation_EX1,1,270,2020-07-08T15:10:22-07:00,5.2864050865173,3,versionC_stim.csv,READVersionC.csv,"Read Version C","Dissertation, read only version C",TRUTHFUL,HONEST,Study2,F,133,135,Test,User,-,,Recall,Recall2,4156,Honest,100,-1,-1,1,1,,1
5b15acacc85dc40001625c89,agph8k0wj4,Nick_Dissertation_EX1,1,271,2020-07-08T15:10:27-07:00,5.4923601150513,3,versionC_stim.csv,READVersionC.csv,"Read Version C","Dissertation, read only version C",SHAVE,RAZOR,Study2,S,136,174,Test,User,-,,Recall,Recall2,4271,Foam,22.222222222222,-1,-1,0,0,,1
5b15acacc85dc40001625c89,agph8k0wj4,Nick_Dissertation_EX1,1,272,2020-07-08T15:10:33-07:00,5.4004378318787,3,versionC_stim.csv,READVersionC.csv,"Read Version C","Dissertation, read only version C",EAT,DINE,Study2,B,111,175,Test,User,-,,Recall,Recall2,4733,Famine,60,-1,-1,0,0,,1
5b15acacc85dc40001625c89,agph8k0wj4,Nick_Dissertation_EX1,1,273,2020-07-08T15:10:37-07:00,4.7194230556488,3,versionC_stim.csv,READVersionC.csv,"Read Version C","Dissertation, read only version C",NAP,SLEEP,Study2,F,134,124,Test,User,-,,Recall,Recall2,3914,Skeeo,60,-1,-1,0,0,,1
5b15acacc85dc40001625c89,agph8k0wj4,Nick_Dissertation_EX1,1,274,2020-07-08T15:10:42-07:00,5.2046129703522,3,versionC_stim.csv,READVersionC.csv,"Read Version C","Dissertation, read only version C",DONKEY,MULE,Study2,B,108,104,Test,User,-,,Recall,Recall2,3482,Mule,100,-1,-1,1,1,,1
5b15acacc85dc40001625c89,agph8k0wj4,Nick_Dissertation_EX1,1,275,2020-07-08T15:10:48-07:00,5.9171099662781,3,versionC_stim.csv,READVersionC.csv,"Read Version C","Dissertation, read only version C",HAVE,OWN,Study2,S,153,98,Test,User,-,,Recall,Recall2,5009,Own,100,-1,-1,1,1,,1
5b15acacc85dc40001625c89,agph8k0wj4,Nick_Dissertation_EX1,1,276,2020-07-08T15:10:53-07:00,5.0582451820374,3,versionC_stim.csv,READVersionC.csv,"Read Version C","Dissertation, read only version C",SCISSORS,SHEARS,Study2,B,112,145,Test,User,-,,Recall,Recall2,4293,Metal,36.363636363636,-1,-1,0,0,,1
5b15acacc85dc40001625c89,agph8k0wj4,Nick_Dissertation_EX1,1,277,2020-07-08T15:10:58-07:00,4.4517347812653,3,versionC_stim.csv,READVersionC.csv,"Read Version C","Dissertation, read only version C",FLIP,TURN,Study2,F,116,128,Test,User,-,,Recall,Recall2,3755,Toss,25,-1,-1,0,0,,1
5b15acacc85dc40001625c89,agph8k0wj4,Nick_Dissertation_EX1,1,278,2020-07-08T15:11:04-07:00,5.8192582130432,3,versionC_stim.csv,READVersionC.csv,"Read Version C","Dissertation, read only version C",FAVORITE,BEST,Study2,F,125,110,Test,User,-,,Recall,Recall2,5125,Best,100,-1,-1,1,1,,1
5b15acacc85dc40001625c89,agph8k0wj4,Nick_Dissertation_EX1,1,279,2020-07-08T15:11:09-07:00,5.4732768535614,3,versionC_stim.csv,READVersionC.csv,"Read Version C","Dissertation, read only version C",CLOTHES,CAKE,Study2,U,166,160,Test,User,-,,Recall,Recall2,4660,Airer,44.444444444444,-1,-1,0,0,,1
5b15acacc85dc40001625c89,agph8k0wj4,Nick_Dissertation_EX1,1,280,2020-07-08T15:11:14-07:00,4.9854810237885,3,versionC_stim.csv,READVersionC.csv,"Read Version C","Dissertation, read only version C",REEL,ROD,Study2,S,150,163,Test,User,-,,Recall,Recall2,4186,Cotton,22.222222222222,-1,-1,0,0,,1
5b15acacc85dc40001625c89,agph8k0wj4,Nick_Dissertation_EX1,1,281,2020-07-08T15:11:19-07:00,4.3991959095001,3,versionC_stim.csv,READVersionC.csv,"Read Version C","Dissertation, read only version C",HATE,NAME,Study2,U,167,115,Test,User,-,,Recall,Recall2,3688,Loathe,40,-1,-1,0,0,,1
5b15acacc85dc40001625c89,agph8k0wj4,Nick_Dissertation_EX1,1,282,2020-07-08T15:11:23-07:00,4.0015361309052,3,versionC_stim.csv,READVersionC.csv,"Read Version C","Dissertation, read only version C",COFFIN,DEAD,Study2,F,128,139,Test,User,-,,Recall,Recall2,3252,Dead,100,-1,-1,1,1,,1
5b15acacc85dc40001625c89,agph8k0wj4,Nick_Dissertation_EX1,1,283,2020-07-08T15:11:27-07:00,4.210282087326,3,versionC_stim.csv,READVersionC.csv,"Read Version C","Dissertation, read only version C",WINDSHIELD,CAR,Study2,F,117,113,Test,User,-,,Recall,Recall2,3405,Car,100,-1,-1,1,1,,1
5b15acacc85dc40001625c89,agph8k0wj4,Nick_Dissertation_EX1,1,284,2020-07-08T15:11:31-07:00,4.1095509529114,3,versionC_stim.csv,READVersionC.csv,"Read Version C","Dissertation, read only version C",LOVE,AFFECTION,Study2,B,115,140,Test,User,-,,Recall,Recall2,3382,Hate,30.769230769231,-1,-1,0,0,,1
5b15acacc85dc40001625c89,agph8k0wj4,Nick_Dissertation_EX1,1,285,2020-07-08T15:11:35-07:00,4.4442758560181,3,versionC_stim.csv,READVersionC.csv,"Read Version C","Dissertation, read only version C",GROUND,EARTH,Study2,S,144,155,Test,User,-,,Recall,Recall2,3691,Sheet,20,-1,-1,0,0,,1
5b15acacc85dc40001625c89,agph8k0wj4,Nick_Dissertation_EX1,1,286,2020-07-08T15:11:39-07:00,3.6742970943451,3,versionC_stim.csv,READVersionC.csv,"Read Version C","Dissertation, read only version C",WET,DRY,Study2,S,146,100,Test,User,-,,Recall,Recall2,2974,Dry,100,-1,-1,1,1,,1
5b15acacc85dc40001625c89,agph8k0wj4,Nick_Dissertation_EX1,1,287,2020-07-08T15:11:43-07:00,4.4840269088745,3,versionC_stim.csv,READVersionC.csv,"Read Version C","Dissertation, read only version C",STRAWBERRY,FRUIT,Study2,F,124,148,Test,User,-,,Recall,Recall2,3722,Fruit,100,-1,-1,1,1,,1
5b15acacc85dc40001625c89,agph8k0wj4,Nick_Dissertation_EX1,1,288,2020-07-08T15:11:48-07:00,4.3321681022644,3,versionC_stim.csv,READVersionC.csv,"Read Version C","Dissertation, read only version C",SARDINE,FISH,Study2,F,130,107,Test,User,-,,Recall,Recall2,3636,Fish,100,-1,-1,1,1,,1
5b15acacc85dc40001625c89,agph8k0wj4,Nick_Dissertation_EX1,1,289,2020-07-08T15:11:52-07:00,4.4316558837891,3,versionC_stim.csv,READVersionC.csv,"Read Version C","Dissertation, read only version C",AIRCRAFT,PLANE,Study2,F,129,130,Test,User,-,,Recall,Recall2,3713,Pilot,40,-1,-1,0,0,,1
5b15acacc85dc40001625c89,agph8k0wj4,Nick_Dissertation_EX1,1,290,2020-07-08T15:11:54-07:00,1.9112651348114,3,versionC_stim.csv,READVersionC.csv,"Read Version C","Dissertation, read only version C",TICK,FLEA,Study2,S,151,106,Test,User,-,,Recall,Recall2,1245,,0,-1,-1,0,0,,1
5b15acacc85dc40001625c89,agph8k0wj4,Nick_Dissertation_EX1,1,291,2020-07-08T15:11:58-07:00,4.3285970687866,3,versionC_stim.csv,READVersionC.csv,"Read Version C","Dissertation, read only version C",PENGUIN,BIRD,Study2,F,119,141,Test,User,-,,Recall,Recall2,3572,Bird,100,-1,-1,1,1,,1
5b15acacc85dc40001625c89,agph8k0wj4,Nick_Dissertation_EX1,1,292,2020-07-08T15:12:03-07:00,4.4494779109955,3,versionC_stim.csv,READVersionC.csv,"Read Version C","Dissertation, read only version C",PAPER,DOCUMENT,Study2,B,109,170,Test,User,-,,Recall,Recall2,3684,Cut,54.545454545455,-1,-1,0,0,,1
5b15acacc85dc40001625c89,agph8k0wj4,Nick_Dissertation_EX1,1,293,2020-07-08T15:12:07-07:00,4.0876500606537,3,versionC_stim.csv,READVersionC.csv,"Read Version C","Dissertation, read only version C",FICTION,LISTEN,Study2,U,164,162,Test,User,-,,Recall,Recall2,3378,Fact,20,-1,-1,0,0,,1
5b15acacc85dc40001625c89,agph8k0wj4,Nick_Dissertation_EX1,1,294,2020-07-08T15:12:09-07:00,2.3442230224609,3,versionC_stim.csv,READVersionC.csv,"Read Version C","Dissertation, read only version C",TAN,SUN,Study2,S,155,154,Test,User,-,,Recall,Recall2,1285,,0,-1,-1,0,0,,1
5b15acacc85dc40001625c89,agph8k0wj4,Nick_Dissertation_EX1,1,295,2020-07-08T15:12:14-07:00,4.2512907981873,3,versionC_stim.csv,READVersionC.csv,"Read Version C","Dissertation, read only version C",TRASH,LITTER,Study2,B,103,152,Test,User,-,,Recall,Recall2,3552,Can,0,-1,-1,0,0,,1
5b15acacc85dc40001625c89,agph8k0wj4,Nick_Dissertation_EX1,1,296,2020-07-08T15:12:16-07:00,2.5930380821228,3,versionC_stim.csv,READVersionC.csv,"Read Version C","Dissertation, read only version C",EQUAL,RIGHTS,Study2,S,137,123,Test,User,-,,Recall,Recall2,1814,,0,-1,-1,0,0,,1
5b15acacc85dc40001625c89,agph8k0wj4,Nick_Dissertation_EX1,1,297,2020-07-08T15:12:22-07:00,5.5631461143494,3,versionC_stim.csv,READVersionC.csv,"Read Version C","Dissertation, read only version C",BALLOON,POP,Study2,F,123,171,Test,User,-,,Recall,Recall2,4861,He,0,-1,-1,0,0,,1
5b15acacc85dc40001625c89,agph8k0wj4,Nick_Dissertation_EX1,1,298,2020-07-08T15:12:25-07:00,2.9957568645477,3,versionC_stim.csv,READVersionC.csv,"Read Version C","Dissertation, read only version C",LIE,TRUTH,Study2,S,148,108,Test,User,-,,Recall,Recall2,2210,,0,-1,-1,0,0,,1
5b15acacc85dc40001625c89,agph8k0wj4,Nick_Dissertation_EX1,1,299,2020-07-08T15:12:45-07:00,20.000791072845,3,versionC_stim.csv,READVersionC.csv,"Read Version C","Dissertation, read only version C",CLOTH,STRETCH,Study2,U,157,105,Test,User,-,,Recall,Recall2,19303,Elastic,42.857142857143,-1,-1,0,0,,1
5b15acacc85dc40001625c89,agph8k0wj4,Nick_Dissertation_EX1,1,300,2020-07-08T15:12:50-07:00,4.8810968399048,3,versionC_stim.csv,READVersionC.csv,"Read Version C","Dissertation, read only version C",GAME,CLUE,Study2,B,97,125,Test,User,-,,Recall,Recall2,4137,Show,0,-1,-1,0,0,,1
5b15acacc85dc40001625c89,agph8k0wj4,Nick_Dissertation_EX1,1,301,2020-07-08T15:12:54-07:00,4.7566590309143,3,versionC_stim.csv,READVersionC.csv,"Read Version C","Dissertation, read only version C",RED,CHERRY,Study2,B,104,149,Test,User,-,,Recall,Recall2,3907,Light,18.181818181818,-1,-1,0,0,,1
5b15acacc85dc40001625c89,agph8k0wj4,Nick_Dissertation_EX1,1,302,2020-07-08T15:12:56-07:00,1.7995510101318,3,versionC_stim.csv,READVersionC.csv,"Read Version C","Dissertation, read only version C",COMMUNICATION,PHONE,Study2,S,149,143,Test,User,-,,Recall,Recall2,1190,,0,-1,-1,0,0,,1
5b15acacc85dc40001625c89,agph8k0wj4,Nick_Dissertation_EX1,1,303,2020-07-08T15:13:01-07:00,4.7987611293793,3,versionC_stim.csv,READVersionC.csv,"Read Version C","Dissertation, read only version C",PANTHER,CAT,Study2,F,126,138,Test,User,-,,Recall,Recall2,4069,Cat,100,-1,-1,1,1,,1
5b15acacc85dc40001625c89,agph8k0wj4,Nick_Dissertation_EX1,1,304,2020-07-08T15:13:04-07:00,3.3338890075684,3,versionC_stim.csv,READVersionC.csv,"Read Version C","Dissertation, read only version C",ABLE,CRACKLE,Study2,U,162,112,Test,User,-,,Recall,Recall2,2358,,0,-1,-1,0,0,,1
5b15acacc85dc40001625c89,agph8k0wj4,Nick_Dissertation_EX1,1,305,2020-07-08T15:13:09-07:00,4.2457230091095,3,versionC_stim.csv,READVersionC.csv,"Read Version C","Dissertation, read only version C",VILLAIN,BAD,Study2,F,118,153,Test,User,-,,Recall,Recall2,3555,Bad,100,-1,-1,1,1,,1
5b15acacc85dc40001625c89,agph8k0wj4,Nick_Dissertation_EX1,1,306,2020-07-08T15:13:11-07:00,2.5906889438629,3,versionC_stim.csv,READVersionC.csv,"Read Version C","Dissertation, read only version C",SCAR,MAIN,Study2,U,175,142,Test,User,-,,Recall,Recall2,1901,,0,-1,-1,0,0,,1
5b15acacc85dc40001625c89,agph8k0wj4,Nick_Dissertation_EX1,1,307,2020-07-08T15:13:15-07:00,3.5920341014862,3,versionC_stim.csv,READVersionC.csv,"Read Version C","Dissertation, read only version C",DOG,FURRY,Study2,B,102,116,Test,User,-,,Recall,Recall2,2918,Cat,0,-1,-1,0,0,,1
5b15acacc85dc40001625c89,agph8k0wj4,Nick_Dissertation_EX1,1,308,2020-07-08T15:13:19-07:00,3.9863848686218,3,versionC_stim.csv,READVersionC.csv,"Read Version C","Dissertation, read only version C",OBTAIN,MEAT,Study2,U,161,120,Test,User,-,,Recall,Recall2,3223,Get,57.142857142857,-1,-1,0,0,,1
5b15acacc85dc40001625c89,agph8k0wj4,Nick_Dissertation_EX1,1,309,2020-07-08T15:13:22-07:00,2.8916001319885,3,versionC_stim.csv,READVersionC.csv,"Read Version C","Dissertation, read only version C",LONG,EXTENSION,Study2,B,96,102,Test,User,-,,Recall,Recall2,2150,,0,-1,-1,0,0,,1
5b15acacc85dc40001625c89,agph8k0wj4,Nick_Dissertation_EX1,1,310,2020-07-08T15:13:24-07:00,1.9104650020599,3,versionC_stim.csv,READVersionC.csv,"Read Version C","Dissertation, read only version C",JAR,MASON,Study2,S,138,118,Test,User,-,,Recall,Recall2,1312,,0,-1,-1,0,0,,1
5b15acacc85dc40001625c89,agph8k0wj4,Nick_Dissertation_EX1,1,311,2020-07-08T15:13:28-07:00,4.4757349491119,3,versionC_stim.csv,READVersionC.csv,"Read Version C","Dissertation, read only version C",BRAWL,FIGHT,Study2,F,135,172,Test,User,-,,Recall,Recall2,3757,Fight,100,-1,-1,1,1,,1
5b15acacc85dc40001625c89,agph8k0wj4,Nick_Dissertation_EX1,1,312,2020-07-08T15:13:35-07:00,6.5430099964142,3,versionC_stim.csv,READVersionC.csv,"Read Version C","Dissertation, read only version C",CUT,CHOP,Study2,B,107,122,Test,User,-,,Recall,Recall2,5775,Scissor,36.363636363636,-1,-1,0,0,,1
5b15acacc85dc40001625c89,agph8k0wj4,Nick_Dissertation_EX1,1,313,2020-07-08T15:13:39-07:00,4.7410788536072,3,versionC_stim.csv,READVersionC.csv,"Read Version C","Dissertation, read only version C",OUNCE,BOTH,Study2,U,172,131,Test,User,-,,Recall,Recall2,4015,Weight,20,-1,-1,0,0,,1
5b15acacc85dc40001625c89,agph8k0wj4,Nick_Dissertation_EX1,1,314,2020-07-08T15:13:44-07:00,4.9538991451263,3,versionC_stim.csv,READVersionC.csv,"Read Version C","Dissertation, read only version C",SMELL,INCENSE,Study2,B,110,151,Test,User,-,,Recall,Recall2,4220,Odour,0,-1,-1,0,0,,1
5b15acacc85dc40001625c89,agph8k0wj4,Nick_Dissertation_EX1,1,315,2020-07-08T15:13:49-07:00,4.5585310459137,3,versionC_stim.csv,READVersionC.csv,"Read Version C","Dissertation, read only version C",FIGHT,FEUD,Study2,B,113,173,Test,User,-,,Recall,Recall2,3854,Brawl,0,-1,-1,0,0,,1
5b15acacc85dc40001625c89,agph8k0wj4,Nick_Dissertation_EX1,1,316,2020-07-08T15:13:51-07:00,1.9092338085175,3,versionC_stim.csv,READVersionC.csv,"Read Version C","Dissertation, read only version C",LONELY,ALONE,Study2,S,145,132,Test,User,-,,Recall,Recall2,1236,,0,-1,-1,0,0,,1
5b15acacc85dc40001625c89,agph8k0wj4,Nick_Dissertation_EX1,1,317,2020-07-08T15:13:54-07:00,3.5706241130829,3,versionC_stim.csv,READVersionC.csv,"Read Version C","Dissertation, read only version C",AWAY,GONE,Study2,S,142,161,Test,User,-,,Recall,Recall2,2883,,0,-1,-1,0,0,,1
5b15acacc85dc40001625c89,agph8k0wj4,Nick_Dissertation_EX1,1,318,2020-07-08T15:13:58-07:00,4.1787340641022,3,versionC_stim.csv,READVersionC.csv,"Read Version C","Dissertation, read only version C",COLD,CHILL,Study2,B,114,103,Test,User,-,,Recall,Recall2,3354,Hot,25,-1,-1,0,0,,1
5b15acacc85dc40001625c89,agph8k0wj4,Nick_Dissertation_EX1,1,319,2020-07-08T15:14:02-07:00,3.1615478992462,3,versionC_stim.csv,READVersionC.csv,"Read Version C","Dissertation, read only version C",MYSTERY,DETECTIVE,Study2,B,100,127,Test,User,-,,Recall,Recall2,2381,,0,-1,-1,0,0,,1
5b15acacc85dc40001625c89,agph8k0wj4,Nick_Dissertation_EX1,1,320,2020-07-08T15:14:11-07:00,8.9639759063721,3,versionC_stim.csv,READVersionC.csv,"Read Version C","Dissertation, read only version C",NOISE,LOUD,Study2,S,152,126,Test,User,-,,Recall,Recall2,7189,Loud,100,-1,-1,1,1,,1
5b15acacc85dc40001625c89,agph8k0wj4,Nick_Dissertation_EX1,1,321,2020-07-08T15:14:15-07:00,4.7414650917053,3,versionC_stim.csv,READVersionC.csv,"Read Version C","Dissertation, read only version C",ACTRESS,STAR,Study2,F,120,156,Test,User,-,,Recall,Recall2,3940,Star,100,-1,-1,1,1,,1
5b15acacc85dc40001625c89,agph8k0wj4,Nick_Dissertation_EX1,1,322,2020-07-08T15:14:19-07:00,3.5534660816193,3,versionC_stim.csv,READVersionC.csv,"Read Version C","Dissertation, read only version C",MAROON,JUSTICE,Study2,U,156,134,Test,User,-,,Recall,Recall2,2771,Red,20,-1,-1,0,0,,1
5b15acacc85dc40001625c89,agph8k0wj4,Nick_Dissertation_EX1,1,323,2020-07-08T15:14:23-07:00,3.8811249732971,3,versionC_stim.csv,READVersionC.csv,"Read Version C","Dissertation, read only version C",SEATBELT,SAFETY,Study2,S,147,101,Test,User,-,,Recall,Recall2,3116,Car,22.222222222222,-1,-1,0,0,,1
5b15acacc85dc40001625c89,agph8k0wj4,Nick_Dissertation_EX1,1,324,2020-07-08T15:14:28-07:00,5.6107149124146,3,versionC_stim.csv,READVersionC.csv,"Read Version C","Dissertation, read only version C",CHARM,VEHICLE,Study2,U,160,99,Test,User,-,,Recall,Recall2,4865,Brscelet,40,-1,-1,0,0,,1
5b15acacc85dc40001625c89,agph8k0wj4,Nick_Dissertation_EX1,1,325,2020-07-08T15:14:36-07:00,7.8293590545654,3,versionC_stim.csv,READVersionC.csv,"Read Version C","Dissertation, read only version C",ELECTION,MAZE,Study2,U,159,176,Test,User,-,,Recall,Recall2,7090,Adjourn,18.181818181818,-1,-1,0,0,,1
5b15acacc85dc40001625c89,agph8k0wj4,Nick_Dissertation_EX1,1,326,2020-07-08T15:14:43-07:00,6.8549048900604,3,versionC_stim.csv,READVersionC.csv,"Read Version C","Dissertation, read only version C",LEAGUE,BASEBALL,Study2,F,131,157,Test,User,-,,Recall,Recall2,6129,Football,50,-1,-1,0,0,,1
5b15acacc85dc40001625c89,agph8k0wj4,Nick_Dissertation_EX1,1,327,2020-07-08T15:14:46-07:00,2.6420021057129,3,versionC_stim.csv,READVersionC.csv,"Read Version C","Dissertation, read only version C",END,ADJOURN,Study2,B,101,136,Test,User,-,,Recall,Recall2,1001,,0,-1,-1,0,0,,1
5b15acacc85dc40001625c89,agph8k0wj4,Nick_Dissertation_EX1,1,328,2020-07-08T15:14:51-07:00,4.8085780143738,3,versionC_stim.csv,READVersionC.csv,"Read Version C","Dissertation, read only version C",PLANT,CACTUS,Study2,B,98,121,Test,User,-,,Recall,Recall2,4004,House,36.363636363636,-1,-1,0,0,,1
5b15acacc85dc40001625c89,agph8k0wj4,Nick_Dissertation_EX1,1,329,2020-07-08T15:14:54-07:00,3.2468168735504,3,versionC_stim.csv,READVersionC.csv,"Read Version C","Dissertation, read only version C",REVENGE,EVEN,Study2,F,122,167,Test,User,-,,Recall,Recall2,1969,,0,-1,-1,0,0,,1
5b15acacc85dc40001625c89,agph8k0wj4,Nick_Dissertation_EX1,1,330,2020-07-08T15:14:58-07:00,3.9262871742249,3,versionC_stim.csv,READVersionC.csv,"Read Version C","Dissertation, read only version C",Morning,TEMPERATURE,Study2,U,173,147,Test,User,-,,Recall,Recall2,3188,Noon,0,-1,-1,0,0,,1
5b15acacc85dc40001625c89,agph8k0wj4,Nick_Dissertation_EX1,1,331,2020-07-08T15:15:03-07:00,5.6105089187622,3,versionC_stim.csv,READVersionC.csv,"Read Version C","Dissertation, read only version C",WAX,CANDLE,Study2,S,139,114,Test,User,-,,Recall,Recall2,4859,Candle,100,-1,-1,1,1,,1
5b15acacc85dc40001625c89,agph8k0wj4,Nick_Dissertation_EX1,1,332,2020-07-08T15:15:07-07:00,3.5618550777435,3,versionC_stim.csv,READVersionC.csv,"Read Version C","Dissertation, read only version C",BREAKABLE,GLASS,Study2,F,127,117,Test,User,-,,Recall,Recall2,2847,,0,-1,-1,0,0,,1
5b15acacc85dc40001625c89,agph8k0wj4,Nick_Dissertation_EX1,1,333,2020-07-08T15:15:12-07:00,4.9068119525909,3,versionC_stim.csv,READVersionC.csv,"Read Version C","Dissertation, read only version C",THIMBLE,THREAD,Study2,F,121,119,Test,User,-,,Recall,Recall2,4176,Sewing,16.666666666667,-1,-1,0,0,,1
5b15acacc85dc40001625c89,agph8k0wj4,Nick_Dissertation_EX1,1,334,2020-07-08T15:15:17-07:00,4.7736768722534,3,versionC_stim.csv,READVersionC.csv,"Read Version C","Dissertation, read only version C",SIGN,LOAN,Study2,U,171,129,Test,User,-,,Recall,Recall2,3929,Plate,44.444444444444,-1,-1,0,0,,1
5b15acacc85dc40001625c89,agph8k0wj4,Nick_Dissertation_EX1,1,335,2020-07-08T15:15:21-07:00,4.2239570617676,3,versionC_stim.csv,READVersionC.csv,"Read Version C","Dissertation, read only version C",SHAKE,Shell,Study2,U,163,159,Test,User,-,,Recall,Recall2,3489,Milk,22.222222222222,-1,-1,0,0,,1
5b15acacc85dc40001625c89,agph8k0wj4,Nick_Dissertation_EX1,1,336,2020-07-08T15:15:26-07:00,5.0117990970612,3,versionC_stim.csv,READVersionC.csv,"Read Version C","Dissertation, read only version C",CAR,DRIVER,Study2,B,106,133,Test,User,-,,Recall,Recall2,3875,Auto,0,-1,-1,0,0,,1
5b15acacc85dc40001625c89,agph8k0wj4,Nick_Dissertation_EX1,1,337,2020-07-08T15:15:31-07:00,5.0263340473175,3,versionC_stim.csv,READVersionC.csv,"Read Version C","Dissertation, read only version C",HEAD,SCALP,Study2,B,105,164,Test,User,-,,Recall,Recall2,4281,,0,-1,-1,0,0,,1
5b15acacc85dc40001625c89,agph8k0wj4,Nick_Dissertation_EX1,1,338,2020-07-08T15:15:36-07:00,4.8810198307037,3,versionC_stim.csv,READVersionC.csv,"Read Version C","Dissertation, read only version C",BANG,FUZZY,Study2,U,168,166,Test,User,-,,Recall,Recall2,3836,Door,0,-1,-1,0,0,,1
5b15acacc85dc40001625c89,agph8k0wj4,Nick_Dissertation_EX1,1,339,2020-07-08T15:15:41-07:00,5.6521689891815,3,versionC_stim.csv,READVersionC.csv,"Read Version C","Dissertation, read only version C",JOKE,KEYS,Study2,U,165,168,Test,User,-,,Recall,Recall2,4411,Riddle,20,-1,-1,0,0,,1
5b15acacc85dc40001625c89,agph8k0wj4,Nick_Dissertation_EX1,1,340,2020-07-08T15:15:46-07:00,4.8015170097351,3,versionC_stim.csv,READVersionC.csv,"Read Version C","Dissertation, read only version C",TEMPER,TANTRUM,Study2,S,154,137,Test,User,-,,Recall,Recall2,4129,Tantrum,100,-1,-1,1,1,,1
5b15acacc85dc40001625c89,agph8k0wj4,Nick_Dissertation_EX1,1,341,2020-07-08T15:15:51-07:00,4.4227960109711,3,versionC_stim.csv,READVersionC.csv,"Read Version C","Dissertation, read only version C",TIE,SHOELACE,Study2,B,99,150,Test,User,-,,Recall,Recall2,3697,Neck,33.333333333333,-1,-1,0,0,,1
5b15acacc85dc40001625c89,agph8k0wj4,Nick_Dissertation_EX1,1,342,2020-07-08T15:15:57-07:00,6.9036960601807,3,versionC_stim.csv,READVersionC.csv,"Read Version C","Dissertation, read only version C",BANKER,MONEY,Study2,F,132,165,Test,User,-,,Recall,Recall2,5732,Money,100,-1,-1,1,1,,1
5b15acacc85dc40001625c89,agph8k0wj4,Nick_Dissertation_EX1,1,343,2020-07-08T15:16:03-07:00,5.8301219940186,3,versionC_stim.csv,READVersionC.csv,"Read Version C","Dissertation, read only version C",STEAK,GIVE,Study2,U,158,158,Test,User,-,,Recall,Recall2,5092,Rump,0,-1,-1,0,0,,1
5b15acacc85dc40001625c89,agph8k0wj4,Nick_Dissertation_EX1,1,344,2020-07-08T15:16:08-07:00,5.076308965683,3,versionC_stim.csv,READVersionC.csv,"Read Version C","Dissertation, read only version C",BRACELET,WRIST,Study2,S,140,97,Test,User,-,,Recall,Recall2,4321,Gold,0,-1,-1,0,0,,1
5b15acacc85dc40001625c89,agph8k0wj4,Nick_Dissertation_EX1,1,345,2020-07-08T15:16:13-07:00,4.1469831466675,3,versionC_stim.csv,READVersionC.csv,"Read Version C","Dissertation, read only version C",DRINK,WATER,Study2,S,143,144,Test,User,-,,Recall,Recall2,3336,Water,100,-1,-1,1,1,,1
5b15acacc85dc40001625c89,agph8k0wj4,Nick_Dissertation_EX1,1,346,2020-07-08T15:16:16-07:00,3.4188599586487,3,versionC_stim.csv,READVersionC.csv,"Read Version C","Dissertation, read only version C",TOIL,LEASE,Study2,U,170,146,Test,User,-,,Recall,Recall2,2728,,0,-1,-1,0,0,,1
5b15acacc85dc40001625c89,agph8k0wj4,Nick_Dissertation_EX1,1,347,2020-07-08T15:16:23-07:00,7.0154588222504,3,versionC_stim.csv,READVersionC.csv,"Read Version C","Dissertation, read only version C",CARBON,ELEMENT,Study2,S,141,109,Test,User,-,,Recall,Recall2,6324,Gas,0,-1,-1,0,0,,1
5b15acacc85dc40001625c89,agph8k0wj4,Nick_Dissertation_EX1,1,348,2020-07-08T15:16:27-07:00,3.8375430107117,3,versionC_stim.csv,READVersionC.csv,"Read Version C","Dissertation, read only version C",CHILDREN,MIRROR,Study2,U,174,169,Test,User,-,,Recall,Recall2,3021,,0,-1,-1,0,0,,1
5b15acacc85dc40001625c89,agph8k0wj4,Nick_Dissertation_EX1,1,349,2020-07-08T15:16:29-07:00,2.0466811656952,3,versionC_stim.csv,READVersionC.csv,"Read Version C","Dissertation, read only version C",,,,,,0,Instruct,User,-,"You have completed this section. Please press Enter.",,Instruct7,1439,,,-1,-1,,,,1
5b15acacc85dc40001625c89,agph8k0wj4,Nick_Dissertation_EX1,1,350,2020-07-08T15:16:32-07:00,2.6768300533295,3,versionC_stim.csv,READVersionC.csv,"Read Version C","Dissertation, read only version C",,,,,,0,Instruct,User,-,"The following screen will ask you a few questions abour your experience today. You must complete these questions to receive credit.",,Instruct8,1998,,,-1,-1,,,,1
