Username,ID,ExperimentName,Session,Trial,Date,TimeDif,"Condition Number","Stimuli File","Order File","Condition Description","Condition Notes",Stimuli*Cue,Stimuli*Answer,Stimuli*Shuffle,"Stimuli*Stimuli Notes",Stimuli*Value,Procedure*Item,"Procedure*Trial Type","Procedure*Max Time","Procedure*Min Time",Procedure*Text,"Procedure*Procedure Notes",Procedure*Shuffle,Response*RT,Response*Response,Response*Accuracy,Response*RTfirst,Response*RTlast,Response*strictAcc,Response*lenientAcc,Response*focus,Response*Focus
5ef9f69a00c39b7bcf432ec6,o8lcyz3eru,Nick_Dissertation_EX1,1,1,2020-07-08T14:40:39-07:00,14.64630484581,2,versionA_stim.csv,READVersionB.csv,"Read Version B","Dissertation, read only version B",,,,,,0,Instruct,-,10,"Please study each of the following word pairs. Remember that your memory will be tested! When finished, press Enter to move to the next pair.",Initial_Instruct,Instruct1,14099,,,-1,-1,,,,1
5ef9f69a00c39b7bcf432ec6,o8lcyz3eru,Nick_Dissertation_EX1,1,2,2020-07-08T14:40:45-07:00,6.2254600524902,2,versionA_stim.csv,READVersionB.csv,"Read Version B","Dissertation, read only version B",CAMP,ADVENTURE,BUFFER3,Buffer,95,95,Study,User,-,,Study/JOL,BUFFER,5590,,,-1,-1,,,,1
5ef9f69a00c39b7bcf432ec6,o8lcyz3eru,Nick_Dissertation_EX1,1,3,2020-07-08T14:40:49-07:00,3.4082601070404,2,versionA_stim.csv,READVersionB.csv,"Read Version B","Dissertation, read only version B",SHRIMP,FISH,BUFFER3,Buffer,93,92,Study,User,-,,Study/JOL,BUFFER,2776,,,-1,-1,,,,1
5ef9f69a00c39b7bcf432ec6,o8lcyz3eru,Nick_Dissertation_EX1,1,4,2020-07-08T14:40:52-07:00,3.2538928985596,2,versionA_stim.csv,READVersionB.csv,"Read Version B","Dissertation, read only version B",CARROT,POTATO,BUFFER3,Buffer,91,93,Study,User,-,,Study/JOL,BUFFER,2622,,,-1,-1,,,,1
5ef9f69a00c39b7bcf432ec6,o8lcyz3eru,Nick_Dissertation_EX1,1,5,2020-07-08T14:40:56-07:00,3.5731511116028,2,versionA_stim.csv,READVersionB.csv,"Read Version B","Dissertation, read only version B",ICE,FROZEN,BUFFER3,Buffer,94,96,Study,User,-,,Study/JOL,BUFFER,2890,,,-1,-1,,,,1
5ef9f69a00c39b7bcf432ec6,o8lcyz3eru,Nick_Dissertation_EX1,1,6,2020-07-08T14:40:59-07:00,3.7413108348846,2,versionA_stim.csv,READVersionB.csv,"Read Version B","Dissertation, read only version B",NOODLE,STRING,BUFFER3,Buffer,92,94,Study,User,-,,Study/JOL,BUFFER,3134,,,-1,-1,,,,1
5ef9f69a00c39b7bcf432ec6,o8lcyz3eru,Nick_Dissertation_EX1,1,7,2020-07-08T14:41:03-07:00,3.6379330158234,2,versionA_stim.csv,READVersionB.csv,"Read Version B","Dissertation, read only version B",CHERRY,RED,Study2,F,104,141,Study,User,-,,Study/JOL,"Study Phase",3000,,,-1,-1,,,,1
5ef9f69a00c39b7bcf432ec6,o8lcyz3eru,Nick_Dissertation_EX1,1,8,2020-07-08T14:41:06-07:00,3.2995991706848,2,versionA_stim.csv,READVersionB.csv,"Read Version B","Dissertation, read only version B",MIRROR,CHILDREN,Study2,U,174,154,Study,User,-,,Study/JOL,"Study Phase",2637,,,-1,-1,,,,1
5ef9f69a00c39b7bcf432ec6,o8lcyz3eru,Nick_Dissertation_EX1,1,9,2020-07-08T14:41:11-07:00,4.152795791626,2,versionA_stim.csv,READVersionB.csv,"Read Version B","Dissertation, read only version B",EXTENSION,LONG,Study2,F,96,111,Study,User,-,,Study/JOL,"Study Phase",3510,,,-1,-1,,,,1
5ef9f69a00c39b7bcf432ec6,o8lcyz3eru,Nick_Dissertation_EX1,1,10,2020-07-08T14:41:14-07:00,3.6479170322418,2,versionA_stim.csv,READVersionB.csv,"Read Version B","Dissertation, read only version B",RAZOR,SHAVE,Study2,S,136,108,Study,User,-,,Study/JOL,"Study Phase",3021,,,-1,-1,,,,1
5ef9f69a00c39b7bcf432ec6,o8lcyz3eru,Nick_Dissertation_EX1,1,11,2020-07-08T14:41:18-07:00,4.1879870891571,2,versionA_stim.csv,READVersionB.csv,"Read Version B","Dissertation, read only version B",GONE,AWAY,Study2,S,142,149,Study,User,-,,Study/JOL,"Study Phase",3405,,,-1,-1,,,,1
5ef9f69a00c39b7bcf432ec6,o8lcyz3eru,Nick_Dissertation_EX1,1,12,2020-07-08T14:41:24-07:00,5.5487179756165,2,versionA_stim.csv,READVersionB.csv,"Read Version B","Dissertation, read only version B",SLEEP,NAP,Study2,B,134,142,Study,User,-,,Study/JOL,"Study Phase",3096,,,-1,-1,,,,1
5ef9f69a00c39b7bcf432ec6,o8lcyz3eru,Nick_Dissertation_EX1,1,13,2020-07-08T14:41:28-07:00,4.2864620685577,2,versionA_stim.csv,READVersionB.csv,"Read Version B","Dissertation, read only version B",DINE,EAT,Study2,F,111,119,Study,User,-,,Study/JOL,"Study Phase",3603,,,-1,-1,,,,1
5ef9f69a00c39b7bcf432ec6,o8lcyz3eru,Nick_Dissertation_EX1,1,14,2020-07-08T14:41:35-07:00,6.4586520195007,2,versionA_stim.csv,READVersionB.csv,"Read Version B","Dissertation, read only version B",FURRY,DOG,Study2,F,102,101,Study,User,-,,Study/JOL,"Study Phase",5693,,,-1,-1,,,,1
5ef9f69a00c39b7bcf432ec6,o8lcyz3eru,Nick_Dissertation_EX1,1,15,2020-07-08T14:41:39-07:00,4.6688048839569,2,versionA_stim.csv,READVersionB.csv,"Read Version B","Dissertation, read only version B",NAME,HATE,Study2,U,167,127,Study,User,-,,Study/JOL,"Study Phase",4005,,,-1,-1,,,,1
5ef9f69a00c39b7bcf432ec6,o8lcyz3eru,Nick_Dissertation_EX1,1,16,2020-07-08T14:41:43-07:00,3.8052809238434,2,versionA_stim.csv,READVersionB.csv,"Read Version B","Dissertation, read only version B",AFFECTION,LOVE,Study2,F,115,131,Study,User,-,,Study/JOL,"Study Phase",3175,,,-1,-1,,,,1
5ef9f69a00c39b7bcf432ec6,o8lcyz3eru,Nick_Dissertation_EX1,1,17,2020-07-08T14:41:49-07:00,5.6092309951782,2,versionA_stim.csv,READVersionB.csv,"Read Version B","Dissertation, read only version B",TURN,FLIP,Study2,B,116,102,Study,User,-,,Study/JOL,"Study Phase",4776,,,-1,-1,,,,1
5ef9f69a00c39b7bcf432ec6,o8lcyz3eru,Nick_Dissertation_EX1,1,18,2020-07-08T14:41:52-07:00,3.5791170597076,2,versionA_stim.csv,READVersionB.csv,"Read Version B","Dissertation, read only version B",ALONE,LONELY,Study2,S,145,162,Study,User,-,,Study/JOL,"Study Phase",2925,,,-1,-1,,,,1
5ef9f69a00c39b7bcf432ec6,o8lcyz3eru,Nick_Dissertation_EX1,1,19,2020-07-08T14:41:56-07:00,3.7244720458984,2,versionA_stim.csv,READVersionB.csv,"Read Version B","Dissertation, read only version B",MAIN,SCAR,Study2,U,175,165,Study,User,-,,Study/JOL,"Study Phase",3037,,,-1,-1,,,,1
5ef9f69a00c39b7bcf432ec6,o8lcyz3eru,Nick_Dissertation_EX1,1,20,2020-07-08T14:42:01-07:00,4.8184790611267,2,versionA_stim.csv,READVersionB.csv,"Read Version B","Dissertation, read only version B",TEMPERATURE,Morning,Study2,U,173,125,Study,User,-,,Study/JOL,"Study Phase",4139,,,-1,-1,,,,1
5ef9f69a00c39b7bcf432ec6,o8lcyz3eru,Nick_Dissertation_EX1,1,21,2020-07-08T14:42:06-07:00,4.7944250106812,2,versionA_stim.csv,READVersionB.csv,"Read Version B","Dissertation, read only version B",MAZE,ELECTION,Study2,U,159,151,Study,User,-,,Study/JOL,"Study Phase",4150,,,-1,-1,,,,1
5ef9f69a00c39b7bcf432ec6,o8lcyz3eru,Nick_Dissertation_EX1,1,22,2020-07-08T14:42:09-07:00,3.8512699604034,2,versionA_stim.csv,READVersionB.csv,"Read Version B","Dissertation, read only version B",SCALP,HEAD,Study2,F,105,97,Study,User,-,,Study/JOL,"Study Phase",3220,,,-1,-1,,,,1
5ef9f69a00c39b7bcf432ec6,o8lcyz3eru,Nick_Dissertation_EX1,1,23,2020-07-08T14:42:13-07:00,3.1503319740295,2,versionA_stim.csv,READVersionB.csv,"Read Version B","Dissertation, read only version B",BIRD,PENGUIN,Study2,B,119,121,Study,User,-,,Study/JOL,"Study Phase",2502,,,-1,-1,,,,1
5ef9f69a00c39b7bcf432ec6,o8lcyz3eru,Nick_Dissertation_EX1,1,24,2020-07-08T14:42:16-07:00,3.1365211009979,2,versionA_stim.csv,READVersionB.csv,"Read Version B","Dissertation, read only version B",CAT,PANTHER,Study2,B,126,153,Study,User,-,,Study/JOL,"Study Phase",2469,,,-1,-1,,,,1
5ef9f69a00c39b7bcf432ec6,o8lcyz3eru,Nick_Dissertation_EX1,1,25,2020-07-08T14:42:19-07:00,3.1624448299408,2,versionA_stim.csv,READVersionB.csv,"Read Version B","Dissertation, read only version B",ELEMENT,CARBON,Study2,S,141,175,Study,User,-,,Study/JOL,"Study Phase",2522,,,-1,-1,,,,1
5ef9f69a00c39b7bcf432ec6,o8lcyz3eru,Nick_Dissertation_EX1,1,26,2020-07-08T14:42:22-07:00,3.1430420875549,2,versionA_stim.csv,READVersionB.csv,"Read Version B","Dissertation, read only version B",OWN,HAVE,Study2,S,153,122,Study,User,-,,Study/JOL,"Study Phase",2490,,,-1,-1,,,,1
5ef9f69a00c39b7bcf432ec6,o8lcyz3eru,Nick_Dissertation_EX1,1,27,2020-07-08T14:42:25-07:00,3.0003190040588,2,versionA_stim.csv,READVersionB.csv,"Read Version B","Dissertation, read only version B",PHONE,COMMUNICATION,Study2,S,149,103,Study,User,-,,Study/JOL,"Study Phase",2355,,,-1,-1,,,,1
5ef9f69a00c39b7bcf432ec6,o8lcyz3eru,Nick_Dissertation_EX1,1,28,2020-07-08T14:42:29-07:00,4.0123040676117,2,versionA_stim.csv,READVersionB.csv,"Read Version B","Dissertation, read only version B",DRIVER,CAR,Study2,F,106,107,Study,User,-,,Study/JOL,"Study Phase",3354,,,-1,-1,,,,1
5ef9f69a00c39b7bcf432ec6,o8lcyz3eru,Nick_Dissertation_EX1,1,29,2020-07-08T14:42:33-07:00,3.7610869407654,2,versionA_stim.csv,READVersionB.csv,"Read Version B","Dissertation, read only version B",CACTUS,PLANT,Study2,F,98,135,Study,User,-,,Study/JOL,"Study Phase",3120,,,-1,-1,,,,1
5ef9f69a00c39b7bcf432ec6,o8lcyz3eru,Nick_Dissertation_EX1,1,30,2020-07-08T14:42:36-07:00,3.5725700855255,2,versionA_stim.csv,READVersionB.csv,"Read Version B","Dissertation, read only version B",ADJOURN,END,Study2,F,101,160,Study,User,-,,Study/JOL,"Study Phase",2875,,,-1,-1,,,,1
5ef9f69a00c39b7bcf432ec6,o8lcyz3eru,Nick_Dissertation_EX1,1,31,2020-07-08T14:42:41-07:00,4.4234118461609,2,versionA_stim.csv,READVersionB.csv,"Read Version B","Dissertation, read only version B",STAR,ACTRESS,Study2,B,120,138,Study,User,-,,Study/JOL,"Study Phase",3784,,,-1,-1,,,,1
5ef9f69a00c39b7bcf432ec6,o8lcyz3eru,Nick_Dissertation_EX1,1,32,2020-07-08T14:42:44-07:00,3.4069459438324,2,versionA_stim.csv,READVersionB.csv,"Read Version B","Dissertation, read only version B",GLASS,BREAKABLE,Study2,B,127,145,Study,User,-,,Study/JOL,"Study Phase",2732,,,-1,-1,,,,1
5ef9f69a00c39b7bcf432ec6,o8lcyz3eru,Nick_Dissertation_EX1,1,33,2020-07-08T14:42:48-07:00,4.2099850177765,2,versionA_stim.csv,READVersionB.csv,"Read Version B","Dissertation, read only version B",SAFETY,SEATBELT,Study2,S,147,147,Study,User,-,,Study/JOL,"Study Phase",3496,,,-1,-1,,,,1
5ef9f69a00c39b7bcf432ec6,o8lcyz3eru,Nick_Dissertation_EX1,1,34,2020-07-08T14:42:52-07:00,3.6913301944733,2,versionA_stim.csv,READVersionB.csv,"Read Version B","Dissertation, read only version B",PLANE,AIRCRAFT,Study2,B,129,104,Study,User,-,,Study/JOL,"Study Phase",2997,,,-1,-1,,,,1
5ef9f69a00c39b7bcf432ec6,o8lcyz3eru,Nick_Dissertation_EX1,1,35,2020-07-08T14:42:55-07:00,3.25137591362,2,versionA_stim.csv,READVersionB.csv,"Read Version B","Dissertation, read only version B",CHILL,COLD,Study2,F,114,155,Study,User,-,,Study/JOL,"Study Phase",2550,,,-1,-1,,,,1
5ef9f69a00c39b7bcf432ec6,o8lcyz3eru,Nick_Dissertation_EX1,1,36,2020-07-08T14:42:58-07:00,2.9015710353851,2,versionA_stim.csv,READVersionB.csv,"Read Version B","Dissertation, read only version B",BEST,FAVORITE,Study2,B,125,99,Study,User,-,,Study/JOL,"Study Phase",2241,,,-1,-1,,,,1
5ef9f69a00c39b7bcf432ec6,o8lcyz3eru,Nick_Dissertation_EX1,1,37,2020-07-08T14:43:03-07:00,4.8158628940582,2,versionA_stim.csv,READVersionB.csv,"Read Version B","Dissertation, read only version B",JUSTICE,MAROON,Study2,U,156,150,Study,User,-,,Study/JOL,"Study Phase",3785,,,-1,-1,,,,1
5ef9f69a00c39b7bcf432ec6,o8lcyz3eru,Nick_Dissertation_EX1,1,38,2020-07-08T14:43:07-07:00,4.0134091377258,2,versionA_stim.csv,READVersionB.csv,"Read Version B","Dissertation, read only version B",STRETCH,CLOTH,Study2,U,157,137,Study,User,-,,Study/JOL,"Study Phase",3366,,,-1,-1,,,,1
5ef9f69a00c39b7bcf432ec6,o8lcyz3eru,Nick_Dissertation_EX1,1,39,2020-07-08T14:43:14-07:00,6.9070599079132,2,versionA_stim.csv,READVersionB.csv,"Read Version B","Dissertation, read only version B",KEYS,JOKE,Study2,U,165,136,Study,User,-,,Study/JOL,"Study Phase",5064,,,-1,-1,,,,1
5ef9f69a00c39b7bcf432ec6,o8lcyz3eru,Nick_Dissertation_EX1,1,40,2020-07-08T14:43:18-07:00,4.1007149219513,2,versionA_stim.csv,READVersionB.csv,"Read Version B","Dissertation, read only version B",WRIST,BRACELET,Study2,S,140,112,Study,User,-,,Study/JOL,"Study Phase",3370,,,-1,-1,,,,1
5ef9f69a00c39b7bcf432ec6,o8lcyz3eru,Nick_Dissertation_EX1,1,41,2020-07-08T14:43:22-07:00,4.0624191761017,2,versionA_stim.csv,READVersionB.csv,"Read Version B","Dissertation, read only version B",Shell,SHAKE,Study2,U,163,130,Study,User,-,,Study/JOL,"Study Phase",3326,,,-1,-1,,,,1
5ef9f69a00c39b7bcf432ec6,o8lcyz3eru,Nick_Dissertation_EX1,1,42,2020-07-08T14:43:30-07:00,8.1107749938965,2,versionA_stim.csv,READVersionB.csv,"Read Version B","Dissertation, read only version B",LEASE,TOIL,Study2,U,170,156,Study,User,-,,Study/JOL,"Study Phase",5911,,,-1,-1,,,,1
5ef9f69a00c39b7bcf432ec6,o8lcyz3eru,Nick_Dissertation_EX1,1,43,2020-07-08T14:43:38-07:00,7.8381559848785,2,versionA_stim.csv,READVersionB.csv,"Read Version B","Dissertation, read only version B",LITTER,TRASH,Study2,F,103,129,Study,User,-,,Study/JOL,"Study Phase",6946,,,-1,-1,,,,1
5ef9f69a00c39b7bcf432ec6,o8lcyz3eru,Nick_Dissertation_EX1,1,44,2020-07-08T14:43:43-07:00,4.5285849571228,2,versionA_stim.csv,READVersionB.csv,"Read Version B","Dissertation, read only version B",LOUD,NOISE,Study2,S,152,176,Study,User,-,,Study/JOL,"Study Phase",2801,,,-1,-1,,,,1
5ef9f69a00c39b7bcf432ec6,o8lcyz3eru,Nick_Dissertation_EX1,1,45,2020-07-08T14:43:47-07:00,3.9923958778381,2,versionA_stim.csv,READVersionB.csv,"Read Version B","Dissertation, read only version B",FUZZY,BANG,Study2,U,168,100,Study,User,-,,Study/JOL,"Study Phase",3204,,,-1,-1,,,,1
5ef9f69a00c39b7bcf432ec6,o8lcyz3eru,Nick_Dissertation_EX1,1,46,2020-07-08T14:43:50-07:00,3.4174630641937,2,versionA_stim.csv,READVersionB.csv,"Read Version B","Dissertation, read only version B",CHOP,CUT,Study2,F,107,168,Study,User,-,,Study/JOL,"Study Phase",2767,,,-1,-1,,,,1
5ef9f69a00c39b7bcf432ec6,o8lcyz3eru,Nick_Dissertation_EX1,1,47,2020-07-08T14:43:57-07:00,7.3215589523315,2,versionA_stim.csv,READVersionB.csv,"Read Version B","Dissertation, read only version B",WATER,DRINK,Study2,S,143,113,Study,User,-,,Study/JOL,"Study Phase",5070,,,-1,-1,,,,1
5ef9f69a00c39b7bcf432ec6,o8lcyz3eru,Nick_Dissertation_EX1,1,48,2020-07-08T14:44:02-07:00,4.9180181026459,2,versionA_stim.csv,READVersionB.csv,"Read Version B","Dissertation, read only version B",CANDLE,WAX,Study2,S,139,128,Study,User,-,,Study/JOL,"Study Phase",3987,,,-1,-1,,,,1
5ef9f69a00c39b7bcf432ec6,o8lcyz3eru,Nick_Dissertation_EX1,1,49,2020-07-08T14:44:09-07:00,6.2990479469299,2,versionA_stim.csv,READVersionB.csv,"Read Version B","Dissertation, read only version B",RIGHTS,EQUAL,Study2,S,137,164,Study,User,-,,Study/JOL,"Study Phase",3333,,,-1,-1,,,,1
5ef9f69a00c39b7bcf432ec6,o8lcyz3eru,Nick_Dissertation_EX1,1,50,2020-07-08T14:44:16-07:00,7.4974539279938,2,versionA_stim.csv,READVersionB.csv,"Read Version B","Dissertation, read only version B",EARTH,GROUND,Study2,S,144,148,Study,User,-,,Study/JOL,"Study Phase",6839,,,-1,-1,,,,1
5ef9f69a00c39b7bcf432ec6,o8lcyz3eru,Nick_Dissertation_EX1,1,51,2020-07-08T14:44:28-07:00,11.371694087982,2,versionA_stim.csv,READVersionB.csv,"Read Version B","Dissertation, read only version B",MOAT,CLEAR,Study2,U,169,159,Study,User,-,,Study/JOL,"Study Phase",9677,,,-1,-1,,,,1
5ef9f69a00c39b7bcf432ec6,o8lcyz3eru,Nick_Dissertation_EX1,1,52,2020-07-08T14:44:40-07:00,12.538340091705,2,versionA_stim.csv,READVersionB.csv,"Read Version B","Dissertation, read only version B",DRY,WET,Study2,S,146,172,Study,User,-,,Study/JOL,"Study Phase",11244,,,-1,-1,,,,1
5ef9f69a00c39b7bcf432ec6,o8lcyz3eru,Nick_Dissertation_EX1,1,53,2020-07-08T14:44:46-07:00,5.554881811142,2,versionA_stim.csv,READVersionB.csv,"Read Version B","Dissertation, read only version B",CRACKLE,ABLE,Study2,U,162,114,Study,User,-,,Study/JOL,"Study Phase",4030,,,-1,-1,,,,1
5ef9f69a00c39b7bcf432ec6,o8lcyz3eru,Nick_Dissertation_EX1,1,54,2020-07-08T14:44:51-07:00,4.9843721389771,2,versionA_stim.csv,READVersionB.csv,"Read Version B","Dissertation, read only version B",THREAD,THIMBLE,Study2,B,121,144,Study,User,-,,Study/JOL,"Study Phase",4289,,,-1,-1,,,,1
5ef9f69a00c39b7bcf432ec6,o8lcyz3eru,Nick_Dissertation_EX1,1,55,2020-07-08T14:45:09-07:00,18.21502494812,2,versionA_stim.csv,READVersionB.csv,"Read Version B","Dissertation, read only version B",LISTEN,FICTION,Study2,U,164,134,Study,User,-,,Study/JOL,"Study Phase",17356,,,-1,-1,,,,1
5ef9f69a00c39b7bcf432ec6,o8lcyz3eru,Nick_Dissertation_EX1,1,56,2020-07-08T14:45:23-07:00,14.267190933228,2,versionA_stim.csv,READVersionB.csv,"Read Version B","Dissertation, read only version B",TRUTH,LIE,Study2,S,148,106,Study,User,-,,Study/JOL,"Study Phase",13512,,,-1,-1,,,,1
5ef9f69a00c39b7bcf432ec6,o8lcyz3eru,Nick_Dissertation_EX1,1,57,2020-07-08T14:45:26-07:00,2.8331890106201,2,versionA_stim.csv,READVersionB.csv,"Read Version B","Dissertation, read only version B",FLEA,TICK,Study2,S,151,139,Study,User,-,,Study/JOL,"Study Phase",2211,,,-1,-1,,,,1
5ef9f69a00c39b7bcf432ec6,o8lcyz3eru,Nick_Dissertation_EX1,1,58,2020-07-08T14:45:30-07:00,3.6310739517212,2,versionA_stim.csv,READVersionB.csv,"Read Version B","Dissertation, read only version B",TANTRUM,TEMPER,Study2,S,154,124,Study,User,-,,Study/JOL,"Study Phase",2983,,,-1,-1,,,,1
5ef9f69a00c39b7bcf432ec6,o8lcyz3eru,Nick_Dissertation_EX1,1,59,2020-07-08T14:45:33-07:00,3.2100131511688,2,versionA_stim.csv,READVersionB.csv,"Read Version B","Dissertation, read only version B",BASEBALL,LEAGUE,Study2,B,131,140,Study,User,-,,Study/JOL,"Study Phase",2546,,,-1,-1,,,,1
5ef9f69a00c39b7bcf432ec6,o8lcyz3eru,Nick_Dissertation_EX1,1,60,2020-07-08T14:45:49-07:00,16.038650035858,2,versionA_stim.csv,READVersionB.csv,"Read Version B","Dissertation, read only version B",CAKE,CLOTHES,Study2,U,166,117,Study,User,-,,Study/JOL,"Study Phase",15265,,,-1,-1,,,,1
5ef9f69a00c39b7bcf432ec6,o8lcyz3eru,Nick_Dissertation_EX1,1,61,2020-07-08T14:45:58-07:00,8.7855060100555,2,versionA_stim.csv,READVersionB.csv,"Read Version B","Dissertation, read only version B",MULE,DONKEY,Study2,F,108,146,Study,User,-,,Study/JOL,"Study Phase",8150,,,-1,-1,,,,1
5ef9f69a00c39b7bcf432ec6,o8lcyz3eru,Nick_Dissertation_EX1,1,62,2020-07-08T14:46:01-07:00,3.6963329315186,2,versionA_stim.csv,READVersionB.csv,"Read Version B","Dissertation, read only version B",GIVE,STEAK,Study2,U,158,118,Study,User,-,,Study/JOL,"Study Phase",3065,,,-1,-1,,,,1
5ef9f69a00c39b7bcf432ec6,o8lcyz3eru,Nick_Dissertation_EX1,1,63,2020-07-08T14:46:04-07:00,3.2248539924622,2,versionA_stim.csv,READVersionB.csv,"Read Version B","Dissertation, read only version B",DOCUMENT,PAPER,Study2,F,109,98,Study,User,-,,Study/JOL,"Study Phase",2573,,,-1,-1,,,,1
5ef9f69a00c39b7bcf432ec6,o8lcyz3eru,Nick_Dissertation_EX1,1,64,2020-07-08T14:46:08-07:00,3.9787940979004,2,versionA_stim.csv,READVersionB.csv,"Read Version B","Dissertation, read only version B",CAR,WINDSHIELD,Study2,B,117,143,Study,User,-,,Study/JOL,"Study Phase",3316,,,-1,-1,,,,1
5ef9f69a00c39b7bcf432ec6,o8lcyz3eru,Nick_Dissertation_EX1,1,65,2020-07-08T14:46:13-07:00,4.8576347827911,2,versionA_stim.csv,READVersionB.csv,"Read Version B","Dissertation, read only version B",VEHICLE,CHARM,Study2,U,160,133,Study,User,-,,Study/JOL,"Study Phase",4226,,,-1,-1,,,,1
5ef9f69a00c39b7bcf432ec6,o8lcyz3eru,Nick_Dissertation_EX1,1,66,2020-07-08T14:46:17-07:00,3.5928301811218,2,versionA_stim.csv,READVersionB.csv,"Read Version B","Dissertation, read only version B",FIGHT,BRAWL,Study2,B,135,158,Study,User,-,,Study/JOL,"Study Phase",2878,,,-1,-1,,,,1
5ef9f69a00c39b7bcf432ec6,o8lcyz3eru,Nick_Dissertation_EX1,1,67,2020-07-08T14:46:20-07:00,3.5528109073639,2,versionA_stim.csv,READVersionB.csv,"Read Version B","Dissertation, read only version B",MASON,JAR,Study2,S,138,123,Study,User,-,,Study/JOL,"Study Phase",2920,,,-1,-1,,,,1
5ef9f69a00c39b7bcf432ec6,o8lcyz3eru,Nick_Dissertation_EX1,1,68,2020-07-08T14:46:24-07:00,3.1817889213562,2,versionA_stim.csv,READVersionB.csv,"Read Version B","Dissertation, read only version B",SHEARS,SCISSORS,Study2,F,112,174,Study,User,-,,Study/JOL,"Study Phase",2569,,,-1,-1,,,,1
5ef9f69a00c39b7bcf432ec6,o8lcyz3eru,Nick_Dissertation_EX1,1,69,2020-07-08T14:46:27-07:00,3.3737051486969,2,versionA_stim.csv,READVersionB.csv,"Read Version B","Dissertation, read only version B",FEUD,FIGHT,Study2,F,113,161,Study,User,-,,Study/JOL,"Study Phase",2740,,,-1,-1,,,,1
5ef9f69a00c39b7bcf432ec6,o8lcyz3eru,Nick_Dissertation_EX1,1,70,2020-07-08T14:46:31-07:00,4.0282578468323,2,versionA_stim.csv,READVersionB.csv,"Read Version B","Dissertation, read only version B",SHOELACE,TIE,Study2,F,99,163,Study,User,-,,Study/JOL,"Study Phase",3403,,,-1,-1,,,,1
5ef9f69a00c39b7bcf432ec6,o8lcyz3eru,Nick_Dissertation_EX1,1,71,2020-07-08T14:46:36-07:00,4.895574092865,2,versionA_stim.csv,READVersionB.csv,"Read Version B","Dissertation, read only version B",DETECTIVE,MYSTERY,Study2,F,100,132,Study,User,-,,Study/JOL,"Study Phase",4259,,,-1,-1,,,,1
5ef9f69a00c39b7bcf432ec6,o8lcyz3eru,Nick_Dissertation_EX1,1,72,2020-07-08T14:46:41-07:00,5.4080510139465,2,versionA_stim.csv,READVersionB.csv,"Read Version B","Dissertation, read only version B",BAD,VILLAIN,Study2,B,118,126,Study,User,-,,Study/JOL,"Study Phase",4748,,,-1,-1,,,,1
5ef9f69a00c39b7bcf432ec6,o8lcyz3eru,Nick_Dissertation_EX1,1,73,2020-07-08T14:46:45-07:00,3.8804581165314,2,versionA_stim.csv,READVersionB.csv,"Read Version B","Dissertation, read only version B",EVEN,REVENGE,Study2,B,122,171,Study,User,-,,Study/JOL,"Study Phase",3237,,,-1,-1,,,,1
5ef9f69a00c39b7bcf432ec6,o8lcyz3eru,Nick_Dissertation_EX1,1,74,2020-07-08T14:46:48-07:00,2.9500689506531,2,versionA_stim.csv,READVersionB.csv,"Read Version B","Dissertation, read only version B",FISH,SARDINE,Study2,B,130,166,Study,User,-,,Study/JOL,"Study Phase",2316,,,-1,-1,,,,1
5ef9f69a00c39b7bcf432ec6,o8lcyz3eru,Nick_Dissertation_EX1,1,75,2020-07-08T14:46:52-07:00,3.4611020088196,2,versionA_stim.csv,READVersionB.csv,"Read Version B","Dissertation, read only version B",POP,BALLOON,Study2,B,123,105,Study,User,-,,Study/JOL,"Study Phase",2751,,,-1,-1,,,,1
5ef9f69a00c39b7bcf432ec6,o8lcyz3eru,Nick_Dissertation_EX1,1,76,2020-07-08T14:46:54-07:00,2.4561939239502,2,versionA_stim.csv,READVersionB.csv,"Read Version B","Dissertation, read only version B",SUN,TAN,Study2,S,155,120,Study,User,-,,Study/JOL,"Study Phase",1819,,,-1,-1,,,,1
5ef9f69a00c39b7bcf432ec6,o8lcyz3eru,Nick_Dissertation_EX1,1,77,2020-07-08T14:46:58-07:00,3.6912689208984,2,versionA_stim.csv,READVersionB.csv,"Read Version B","Dissertation, read only version B",MONEY,BANKER,Study2,B,132,170,Study,User,-,,Study/JOL,"Study Phase",1988,,,-1,-1,,,,1
5ef9f69a00c39b7bcf432ec6,o8lcyz3eru,Nick_Dissertation_EX1,1,78,2020-07-08T14:47:02-07:00,3.8908820152283,2,versionA_stim.csv,READVersionB.csv,"Read Version B","Dissertation, read only version B",BOTH,OUNCE,Study2,U,172,152,Study,User,-,,Study/JOL,"Study Phase",3231,,,-1,-1,,,,1
5ef9f69a00c39b7bcf432ec6,o8lcyz3eru,Nick_Dissertation_EX1,1,79,2020-07-08T14:47:05-07:00,3.2198541164398,2,versionA_stim.csv,READVersionB.csv,"Read Version B","Dissertation, read only version B",HONEST,TRUTHFUL,Study2,B,133,167,Study,User,-,,Study/JOL,"Study Phase",2586,,,-1,-1,,,,1
5ef9f69a00c39b7bcf432ec6,o8lcyz3eru,Nick_Dissertation_EX1,1,80,2020-07-08T14:47:08-07:00,3.2533428668976,2,versionA_stim.csv,READVersionB.csv,"Read Version B","Dissertation, read only version B",FRUIT,STRAWBERRY,Study2,B,124,169,Study,User,-,,Study/JOL,"Study Phase",2626,,,-1,-1,,,,1
5ef9f69a00c39b7bcf432ec6,o8lcyz3eru,Nick_Dissertation_EX1,1,81,2020-07-08T14:47:13-07:00,4.7439770698547,2,versionA_stim.csv,READVersionB.csv,"Read Version B","Dissertation, read only version B",CLUE,GAME,Study2,F,97,115,Study,User,-,,Study/JOL,"Study Phase",4090,,,-1,-1,,,,1
5ef9f69a00c39b7bcf432ec6,o8lcyz3eru,Nick_Dissertation_EX1,1,82,2020-07-08T14:47:16-07:00,3.3932421207428,2,versionA_stim.csv,READVersionB.csv,"Read Version B","Dissertation, read only version B",INCENSE,SMELL,Study2,F,110,173,Study,User,-,,Study/JOL,"Study Phase",2772,,,-1,-1,,,,1
5ef9f69a00c39b7bcf432ec6,o8lcyz3eru,Nick_Dissertation_EX1,1,83,2020-07-08T14:47:26-07:00,9.7679309844971,2,versionA_stim.csv,READVersionB.csv,"Read Version B","Dissertation, read only version B",DEAD,COFFIN,Study2,B,128,157,Study,User,-,,Study/JOL,"Study Phase",9114,,,-1,-1,,,,1
5ef9f69a00c39b7bcf432ec6,o8lcyz3eru,Nick_Dissertation_EX1,1,84,2020-07-08T14:47:33-07:00,7.1389889717102,2,versionA_stim.csv,READVersionB.csv,"Read Version B","Dissertation, read only version B",ROD,REEL,Study2,S,150,110,Study,User,-,,Study/JOL,"Study Phase",6515,,,-1,-1,,,,1
5ef9f69a00c39b7bcf432ec6,o8lcyz3eru,Nick_Dissertation_EX1,1,85,2020-07-08T14:47:41-07:00,8.0516760349274,2,versionA_stim.csv,READVersionB.csv,"Read Version B","Dissertation, read only version B",LOAN,SIGN,Study2,U,171,109,Study,User,-,,Study/JOL,"Study Phase",7382,,,-1,-1,,,,1
5ef9f69a00c39b7bcf432ec6,o8lcyz3eru,Nick_Dissertation_EX1,1,86,2020-07-08T14:47:45-07:00,3.5515539646149,2,versionA_stim.csv,READVersionB.csv,"Read Version B","Dissertation, read only version B",MEAT,OBTAIN,Study2,U,161,116,Study,User,-,,Study/JOL,"Study Phase",2921,,,-1,-1,,,,1
5ef9f69a00c39b7bcf432ec6,o8lcyz3eru,Nick_Dissertation_EX1,1,87,2020-07-08T14:47:49-07:00,4.3167009353638,2,versionA_stim.csv,READVersionB.csv,"Read Version B","Dissertation, read only version B",SPRING,MARCH,BUFFER4,Buffer,179,181,Study,User,-,,Study/JOL,BUFFER2,3609,,,-1,-1,,,,1
5ef9f69a00c39b7bcf432ec6,o8lcyz3eru,Nick_Dissertation_EX1,1,88,2020-07-08T14:47:53-07:00,3.7893829345703,2,versionA_stim.csv,READVersionB.csv,"Read Version B","Dissertation, read only version B",TOOL,SHED,BUFFER4,Buffer,178,178,Study,User,-,,Study/JOL,BUFFER2,3131,,,-1,-1,,,,1
5ef9f69a00c39b7bcf432ec6,o8lcyz3eru,Nick_Dissertation_EX1,1,89,2020-07-08T14:47:58-07:00,4.835410118103,2,versionA_stim.csv,READVersionB.csv,"Read Version B","Dissertation, read only version B",OCTOBER,SPOOKY,BUFFER4,Buffer,180,180,Study,User,-,,Study/JOL,BUFFER2,4171,,,-1,-1,,,,1
5ef9f69a00c39b7bcf432ec6,o8lcyz3eru,Nick_Dissertation_EX1,1,90,2020-07-08T14:48:03-07:00,5.2978579998016,2,versionA_stim.csv,READVersionB.csv,"Read Version B","Dissertation, read only version B",DAYS,WEAKS,BUFFER4,Buffer,176,179,Study,User,-,,Study/JOL,BUFFER2,4664,,,-1,-1,,,,1
5ef9f69a00c39b7bcf432ec6,o8lcyz3eru,Nick_Dissertation_EX1,1,91,2020-07-08T14:48:06-07:00,3.2979340553284,2,versionA_stim.csv,READVersionB.csv,"Read Version B","Dissertation, read only version B",MONTH,YEAR,BUFFER4,Buffer,177,177,Study,User,-,,Study/JOL,BUFFER2,2657,,,-1,-1,,,,1
5ef9f69a00c39b7bcf432ec6,o8lcyz3eru,Nick_Dissertation_EX1,1,92,2020-07-08T14:48:17-07:00,10.644165992737,2,versionA_stim.csv,READVersionB.csv,"Read Version B","Dissertation, read only version B",,,,,,0,Instruct,User,-,"You have completed this section. Please press Enter.",Filler_Instruction,Instruct2,9515,,,-1,-1,,,,1
5ef9f69a00c39b7bcf432ec6,o8lcyz3eru,Nick_Dissertation_EX1,1,93,2020-07-08T14:50:18-07:00,120.87382388115,2,versionA_stim.csv,READVersionB.csv,"Read Version B","Dissertation, read only version B",,,,,,0,FreeRecall,120,120,"Please list the 50 US states in alphabetical order. The task will automatically advance to the next screen after two minutes.",,Filler1,120015,"Alabama Alaska Arizona Arkansas California Colorado Connecticut Delaware Florida Georgia ",0,35211,119090,0,0,,1
5ef9f69a00c39b7bcf432ec6,o8lcyz3eru,Nick_Dissertation_EX1,1,94,2020-07-08T14:50:32-07:00,14.259742021561,2,versionA_stim.csv,READVersionB.csv,"Read Version B","Dissertation, read only version B",,,,,,0,Instruct,-,10,"You will now be presented with the first word from each of the previously studied item pairs. Please type the missing word. If you do not know the word, you may guess or press Enter to skip forward to the next pair.",,Instruct3,13445,,,-1,-1,,,,1
5ef9f69a00c39b7bcf432ec6,o8lcyz3eru,Nick_Dissertation_EX1,1,95,2020-07-08T14:50:46-07:00,13.527740001678,2,versionA_stim.csv,READVersionB.csv,"Read Version B","Dissertation, read only version B",CAR,WINDSHIELD,Study2,B,117,143,Test,User,-,,Recall,Recall1,12745," Transport ",21.052631578947,5049,10485,0,0,,1
5ef9f69a00c39b7bcf432ec6,o8lcyz3eru,Nick_Dissertation_EX1,1,96,2020-07-08T14:51:35-07:00,49.545586109161,2,versionA_stim.csv,READVersionB.csv,"Read Version B","Dissertation, read only version B",TURN,FLIP,Study2,B,116,102,Test,User,-,,Recall,Recall1,48777," Stay",0,46629,47364,0,0,,1
5ef9f69a00c39b7bcf432ec6,o8lcyz3eru,Nick_Dissertation_EX1,1,97,2020-07-08T14:51:43-07:00,8.263573884964,2,versionA_stim.csv,READVersionB.csv,"Read Version B","Dissertation, read only version B",FISH,SARDINE,Study2,B,130,166,Test,User,-,,Recall,Recall1,7430,Sardine,100,4787,6004,1,1,,1
5ef9f69a00c39b7bcf432ec6,o8lcyz3eru,Nick_Dissertation_EX1,1,98,2020-07-08T14:51:54-07:00,10.549050092697,2,versionA_stim.csv,READVersionB.csv,"Read Version B","Dissertation, read only version B",DINE,EAT,Study2,F,111,119,Test,User,-,,Recall,Recall1,9869,"Together ",18.181818181818,2784,6488,0,0,,1
5ef9f69a00c39b7bcf432ec6,o8lcyz3eru,Nick_Dissertation_EX1,1,99,2020-07-08T14:52:00-07:00,6.3291909694672,2,versionA_stim.csv,READVersionB.csv,"Read Version B","Dissertation, read only version B",LISTEN,FICTION,Study2,U,164,134,Test,User,-,,Recall,Recall1,5672,Hear,0,4041,4506,0,0,,1
5ef9f69a00c39b7bcf432ec6,o8lcyz3eru,Nick_Dissertation_EX1,1,100,2020-07-08T14:52:09-07:00,8.2329089641571,2,versionA_stim.csv,READVersionB.csv,"Read Version B","Dissertation, read only version B",MAZE,ELECTION,Study2,U,159,151,Test,User,-,,Recall,Recall1,7593,Cross,30.769230769231,5592,6527,0,0,,1
5ef9f69a00c39b7bcf432ec6,o8lcyz3eru,Nick_Dissertation_EX1,1,101,2020-07-08T14:52:19-07:00,10.617609977722,2,versionA_stim.csv,READVersionB.csv,"Read Version B","Dissertation, read only version B",STAR,ACTRESS,Study2,B,120,138,Test,User,-,,Recall,Recall1,9965,Sky,20,8370,8823,0,0,,1
5ef9f69a00c39b7bcf432ec6,o8lcyz3eru,Nick_Dissertation_EX1,1,102,2020-07-08T14:52:26-07:00,7.2807810306549,2,versionA_stim.csv,READVersionB.csv,"Read Version B","Dissertation, read only version B",PHONE,COMMUNICATION,Study2,S,149,103,Test,User,-,,Recall,Recall1,6536,"Communication ",100,3688,4408,1,1,,1
5ef9f69a00c39b7bcf432ec6,o8lcyz3eru,Nick_Dissertation_EX1,1,103,2020-07-08T14:52:49-07:00,22.192844867706,2,versionA_stim.csv,READVersionB.csv,"Read Version B","Dissertation, read only version B",DETECTIVE,MYSTERY,Study2,F,100,132,Test,User,-,,Recall,Recall1,21364,Find,0,19418,20269,0,0,,1
5ef9f69a00c39b7bcf432ec6,o8lcyz3eru,Nick_Dissertation_EX1,1,104,2020-07-08T14:52:58-07:00,9.3966181278229,2,versionA_stim.csv,READVersionB.csv,"Read Version B","Dissertation, read only version B",SHOELACE,TIE,Study2,F,99,163,Test,User,-,,Recall,Recall1,8742,Tie,100,6993,7491,1,1,,1
5ef9f69a00c39b7bcf432ec6,o8lcyz3eru,Nick_Dissertation_EX1,1,105,2020-07-08T14:53:04-07:00,5.6898040771484,2,versionA_stim.csv,READVersionB.csv,"Read Version B","Dissertation, read only version B",BIRD,PENGUIN,Study2,B,119,121,Test,User,-,,Recall,Recall1,4887,Fly,0,3041,3656,0,0,,1
5ef9f69a00c39b7bcf432ec6,o8lcyz3eru,Nick_Dissertation_EX1,1,106,2020-07-08T14:53:11-07:00,7.5865218639374,2,versionA_stim.csv,READVersionB.csv,"Read Version B","Dissertation, read only version B",MIRROR,CHILDREN,Study2,U,174,154,Test,User,-,,Recall,Recall1,6931," Child",76.923076923077,4052,5619,0,1,,1
5ef9f69a00c39b7bcf432ec6,o8lcyz3eru,Nick_Dissertation_EX1,1,107,2020-07-08T14:53:22-07:00,10.754611968994,2,versionA_stim.csv,READVersionB.csv,"Read Version B","Dissertation, read only version B",PLANE,AIRCRAFT,Study2,B,129,104,Test,User,-,,Recall,Recall1,10096,Transport,35.294117647059,4298,8650,0,0,,1
5ef9f69a00c39b7bcf432ec6,o8lcyz3eru,Nick_Dissertation_EX1,1,108,2020-07-08T14:53:29-07:00,7.3637220859528,2,versionA_stim.csv,READVersionB.csv,"Read Version B","Dissertation, read only version B",WRIST,BRACELET,Study2,S,140,112,Test,User,-,,Recall,Recall1,6679," Joint",15.384615384615,3199,4285,0,0,,1
5ef9f69a00c39b7bcf432ec6,o8lcyz3eru,Nick_Dissertation_EX1,1,109,2020-07-08T14:53:34-07:00,4.48863697052,2,versionA_stim.csv,READVersionB.csv,"Read Version B","Dissertation, read only version B",EVEN,REVENGE,Study2,B,122,171,Test,User,-,,Recall,Recall1,3837,Odd,0,2041,2543,0,0,,1
5ef9f69a00c39b7bcf432ec6,o8lcyz3eru,Nick_Dissertation_EX1,1,110,2020-07-08T14:53:39-07:00,4.7083539962769,2,versionA_stim.csv,READVersionB.csv,"Read Version B","Dissertation, read only version B",OWN,HAVE,Study2,S,153,122,Test,User,-,,Recall,Recall1,4056,Share,66.666666666667,2278,2948,0,0,,1
5ef9f69a00c39b7bcf432ec6,o8lcyz3eru,Nick_Dissertation_EX1,1,111,2020-07-08T14:53:45-07:00,6.6389729976654,2,versionA_stim.csv,READVersionB.csv,"Read Version B","Dissertation, read only version B",SCALP,HEAD,Study2,F,105,97,Test,User,-,,Recall,Recall1,4620,Head,100,2777,3261,1,1,,1
5ef9f69a00c39b7bcf432ec6,o8lcyz3eru,Nick_Dissertation_EX1,1,112,2020-07-08T14:53:51-07:00,5.2402999401093,2,versionA_stim.csv,READVersionB.csv,"Read Version B","Dissertation, read only version B",BAD,VILLAIN,Study2,B,118,126,Test,User,-,,Recall,Recall1,4584,Good,0,2907,3405,0,0,,1
5ef9f69a00c39b7bcf432ec6,o8lcyz3eru,Nick_Dissertation_EX1,1,113,2020-07-08T14:53:56-07:00,5.4246020317078,2,versionA_stim.csv,READVersionB.csv,"Read Version B","Dissertation, read only version B",FEUD,FIGHT,Study2,F,113,161,Test,User,-,,Recall,Recall1,4795,Fire,44.444444444444,2902,3689,0,0,,1
5ef9f69a00c39b7bcf432ec6,o8lcyz3eru,Nick_Dissertation_EX1,1,114,2020-07-08T14:54:02-07:00,6.0244009494781,2,versionA_stim.csv,READVersionB.csv,"Read Version B","Dissertation, read only version B",DRIVER,CAR,Study2,F,106,107,Test,User,-,,Recall,Recall1,5379,Car,100,4209,4445,1,1,,1
5ef9f69a00c39b7bcf432ec6,o8lcyz3eru,Nick_Dissertation_EX1,1,115,2020-07-08T14:54:16-07:00,14.033893108368,2,versionA_stim.csv,READVersionB.csv,"Read Version B","Dissertation, read only version B",TRUTH,LIE,Study2,S,148,106,Test,User,-,,Recall,Recall1,13250,Honest,22.222222222222,2520,12158,0,0,,1
5ef9f69a00c39b7bcf432ec6,o8lcyz3eru,Nick_Dissertation_EX1,1,116,2020-07-08T14:54:23-07:00,6.7193350791931,2,versionA_stim.csv,READVersionB.csv,"Read Version B","Dissertation, read only version B",FURRY,DOG,Study2,F,102,101,Test,User,-,,Recall,Recall1,6020,Fire,0,3853,4904,0,0,,1
5ef9f69a00c39b7bcf432ec6,o8lcyz3eru,Nick_Dissertation_EX1,1,117,2020-07-08T14:54:29-07:00,5.958251953125,2,versionA_stim.csv,READVersionB.csv,"Read Version B","Dissertation, read only version B",EXTENSION,LONG,Study2,F,96,111,Test,User,-,,Recall,Recall1,5301,Cord,25,3556,4272,0,0,,1
5ef9f69a00c39b7bcf432ec6,o8lcyz3eru,Nick_Dissertation_EX1,1,118,2020-07-08T14:54:36-07:00,6.9216959476471,2,versionA_stim.csv,READVersionB.csv,"Read Version B","Dissertation, read only version B",AFFECTION,LOVE,Study2,F,115,131,Test,User,-,,Recall,Recall1,6237,Care,25,4039,4575,0,0,,1
5ef9f69a00c39b7bcf432ec6,o8lcyz3eru,Nick_Dissertation_EX1,1,119,2020-07-08T14:54:48-07:00,12.016143083572,2,versionA_stim.csv,READVersionB.csv,"Read Version B","Dissertation, read only version B",LEASE,TOIL,Study2,U,170,156,Test,User,-,,Recall,Recall1,11286,House,22.222222222222,9521,10324,0,0,,1
5ef9f69a00c39b7bcf432ec6,o8lcyz3eru,Nick_Dissertation_EX1,1,120,2020-07-08T14:55:13-07:00,24.988502025604,2,versionA_stim.csv,READVersionB.csv,"Read Version B","Dissertation, read only version B",BASEBALL,LEAGUE,Study2,B,131,140,Test,User,-,,Recall,Recall1,24165,Games,36.363636363636,22421,23136,0,0,,1
5ef9f69a00c39b7bcf432ec6,o8lcyz3eru,Nick_Dissertation_EX1,1,121,2020-07-08T14:55:20-07:00,7.5049769878387,2,versionA_stim.csv,READVersionB.csv,"Read Version B","Dissertation, read only version B",CLUE,GAME,Study2,F,97,115,Test,User,-,,Recall,Recall1,6812,Game,100,5247,5699,1,1,,1
5ef9f69a00c39b7bcf432ec6,o8lcyz3eru,Nick_Dissertation_EX1,1,122,2020-07-08T14:55:32-07:00,11.690424919128,2,versionA_stim.csv,READVersionB.csv,"Read Version B","Dissertation, read only version B",CAKE,CLOTHES,Study2,U,166,117,Test,User,-,,Recall,Recall1,11017," Doll",18.181818181818,8239,9438,0,0,,1
5ef9f69a00c39b7bcf432ec6,o8lcyz3eru,Nick_Dissertation_EX1,1,123,2020-07-08T14:57:05-07:00,92.9535779953,2,versionA_stim.csv,READVersionB.csv,"Read Version B","Dissertation, read only version B",SHEARS,SCISSORS,Study2,F,112,174,Test,User,-,,Recall,Recall1,92158,Money,15.384615384615,90412,91064,0,0,,1
5ef9f69a00c39b7bcf432ec6,o8lcyz3eru,Nick_Dissertation_EX1,1,124,2020-07-08T14:57:32-07:00,27.344299077988,2,versionA_stim.csv,READVersionB.csv,"Read Version B","Dissertation, read only version B",FRUIT,STRAWBERRY,Study2,B,124,169,Test,User,-,,Recall,Recall1,26595,Veg,15.384615384615,24979,25417,0,0,,1
5ef9f69a00c39b7bcf432ec6,o8lcyz3eru,Nick_Dissertation_EX1,1,125,2020-07-08T14:58:34-07:00,61.917387962341,2,versionA_stim.csv,READVersionB.csv,"Read Version B","Dissertation, read only version B",STRETCH,CLOTH,Study2,U,157,137,Test,User,-,,Recall,Recall1,60106,Length,54.545454545455,50643,58965,0,0,,1
5ef9f69a00c39b7bcf432ec6,o8lcyz3eru,Nick_Dissertation_EX1,1,126,2020-07-08T14:59:00-07:00,25.469051837921,2,versionA_stim.csv,READVersionB.csv,"Read Version B","Dissertation, read only version B",MAIN,SCAR,Study2,U,175,165,Test,User,-,,Recall,Recall1,24707,"Character ",46.153846153846,21706,22656,0,0,,1
5ef9f69a00c39b7bcf432ec6,o8lcyz3eru,Nick_Dissertation_EX1,1,127,2020-07-08T14:59:05-07:00,5.8515641689301,2,versionA_stim.csv,READVersionB.csv,"Read Version B","Dissertation, read only version B",MOAT,CLEAR,Study2,U,169,159,Test,User,-,,Recall,Recall1,5186,Castle,54.545454545455,3025,4091,0,0,,1
5ef9f69a00c39b7bcf432ec6,o8lcyz3eru,Nick_Dissertation_EX1,1,128,2020-07-08T14:59:13-07:00,7.2353549003601,2,versionA_stim.csv,READVersionB.csv,"Read Version B","Dissertation, read only version B",CANDLE,WAX,Study2,S,139,128,Test,User,-,,Recall,Recall1,6568,Wax,100,2421,3022,1,1,,1
5ef9f69a00c39b7bcf432ec6,o8lcyz3eru,Nick_Dissertation_EX1,1,129,2020-07-08T14:59:22-07:00,9.5921349525452,2,versionA_stim.csv,READVersionB.csv,"Read Version B","Dissertation, read only version B",WATER,DRINK,Study2,S,143,113,Test,User,-,,Recall,Recall1,8929," Wet",0,6998,7970,0,0,,1
5ef9f69a00c39b7bcf432ec6,o8lcyz3eru,Nick_Dissertation_EX1,1,130,2020-07-08T14:59:47-07:00,24.778447151184,2,versionA_stim.csv,READVersionB.csv,"Read Version B","Dissertation, read only version B",MULE,DONKEY,Study2,F,108,146,Test,User,-,,Recall,Recall1,24002,"Stubborn ",28.571428571429,19988,21909,0,0,,1
5ef9f69a00c39b7bcf432ec6,o8lcyz3eru,Nick_Dissertation_EX1,1,131,2020-07-08T14:59:52-07:00,5.2915959358215,2,versionA_stim.csv,READVersionB.csv,"Read Version B","Dissertation, read only version B",ROD,REEL,Study2,S,150,110,Test,User,-,,Recall,Recall1,4621,Fishing,0,2176,3427,0,0,,1
5ef9f69a00c39b7bcf432ec6,o8lcyz3eru,Nick_Dissertation_EX1,1,132,2020-07-08T15:00:15-07:00,22.747452974319,2,versionA_stim.csv,READVersionB.csv,"Read Version B","Dissertation, read only version B",BEST,FAVORITE,Study2,B,125,99,Test,User,-,,Recall,Recall1,21959,"Favorite ",100,19444,19880,1,1,,1
5ef9f69a00c39b7bcf432ec6,o8lcyz3eru,Nick_Dissertation_EX1,1,133,2020-07-08T15:00:20-07:00,4.6694791316986,2,versionA_stim.csv,READVersionB.csv,"Read Version B","Dissertation, read only version B",MONEY,BANKER,Study2,B,132,170,Test,User,-,,Recall,Recall1,3999,Cash,20,2341,2971,0,0,,1
5ef9f69a00c39b7bcf432ec6,o8lcyz3eru,Nick_Dissertation_EX1,1,134,2020-07-08T15:00:26-07:00,6.0341918468475,2,versionA_stim.csv,READVersionB.csv,"Read Version B","Dissertation, read only version B",MEAT,OBTAIN,Study2,U,161,116,Test,User,-,,Recall,Recall1,5297,Animal,33.333333333333,3320,4201,0,0,,1
5ef9f69a00c39b7bcf432ec6,o8lcyz3eru,Nick_Dissertation_EX1,1,135,2020-07-08T15:00:31-07:00,5.2608699798584,2,versionA_stim.csv,READVersionB.csv,"Read Version B","Dissertation, read only version B",CRACKLE,ABLE,Study2,U,162,114,Test,User,-,,Recall,Recall1,4626,Pop,0,2259,3561,0,0,,1
5ef9f69a00c39b7bcf432ec6,o8lcyz3eru,Nick_Dissertation_EX1,1,136,2020-07-08T15:00:39-07:00,8.3690831661224,2,versionA_stim.csv,READVersionB.csv,"Read Version B","Dissertation, read only version B",CHOP,CUT,Study2,F,107,168,Test,User,-,,Recall,Recall1,7735,Cut,100,6123,6607,1,1,,1
5ef9f69a00c39b7bcf432ec6,o8lcyz3eru,Nick_Dissertation_EX1,1,137,2020-07-08T15:00:51-07:00,11.437029838562,2,versionA_stim.csv,READVersionB.csv,"Read Version B","Dissertation, read only version B",TANTRUM,TEMPER,Study2,S,154,124,Test,User,-,,Recall,Recall1,10762,Anger,36.363636363636,6399,7382,0,0,,1
5ef9f69a00c39b7bcf432ec6,o8lcyz3eru,Nick_Dissertation_EX1,1,138,2020-07-08T15:01:01-07:00,10.016922950745,2,versionA_stim.csv,READVersionB.csv,"Read Version B","Dissertation, read only version B",Shell,SHAKE,Study2,U,163,130,Test,User,-,,Recall,Recall1,9370,Sea,50,7708,8109,0,0,,1
5ef9f69a00c39b7bcf432ec6,o8lcyz3eru,Nick_Dissertation_EX1,1,139,2020-07-08T15:01:09-07:00,7.9010970592499,2,versionA_stim.csv,READVersionB.csv,"Read Version B","Dissertation, read only version B",GLASS,BREAKABLE,Study2,B,127,145,Test,User,-,,Recall,Recall1,7264,Sand,15.384615384615,5483,6183,0,0,,1
5ef9f69a00c39b7bcf432ec6,o8lcyz3eru,Nick_Dissertation_EX1,1,140,2020-07-08T15:01:16-07:00,7.6910870075226,2,versionA_stim.csv,READVersionB.csv,"Read Version B","Dissertation, read only version B",RIGHTS,EQUAL,Study2,S,137,164,Test,User,-,,Recall,Recall1,7066,Equal,100,2701,5002,1,1,,1
5ef9f69a00c39b7bcf432ec6,o8lcyz3eru,Nick_Dissertation_EX1,1,141,2020-07-08T15:01:46-07:00,29.749040126801,2,versionA_stim.csv,READVersionB.csv,"Read Version B","Dissertation, read only version B",FUZZY,BANG,Study2,U,168,100,Test,User,-,,Recall,Recall1,28950,Bear,50,23471,27534,0,0,,1
5ef9f69a00c39b7bcf432ec6,o8lcyz3eru,Nick_Dissertation_EX1,1,142,2020-07-08T15:01:51-07:00,4.9535689353943,2,versionA_stim.csv,READVersionB.csv,"Read Version B","Dissertation, read only version B",SUN,TAN,Study2,S,155,120,Test,User,-,,Recall,Recall1,4286,Set,33.333333333333,2720,3088,0,0,,1
5ef9f69a00c39b7bcf432ec6,o8lcyz3eru,Nick_Dissertation_EX1,1,143,2020-07-08T15:02:09-07:00,18.403012037277,2,versionA_stim.csv,READVersionB.csv,"Read Version B","Dissertation, read only version B",FIGHT,BRAWL,Study2,B,135,158,Test,User,-,,Recall,Recall1,17602,Plane,20,14891,16424,0,0,,1
5ef9f69a00c39b7bcf432ec6,o8lcyz3eru,Nick_Dissertation_EX1,1,144,2020-07-08T15:02:44-07:00,34.974750041962,2,versionA_stim.csv,READVersionB.csv,"Read Version B","Dissertation, read only version B",ALONE,LONELY,Study2,S,145,162,Test,User,-,,Recall,Recall1,34166,Hide,20,30256,32371,0,0,,1
5ef9f69a00c39b7bcf432ec6,o8lcyz3eru,Nick_Dissertation_EX1,1,145,2020-07-08T15:02:50-07:00,5.3284409046173,2,versionA_stim.csv,READVersionB.csv,"Read Version B","Dissertation, read only version B",SLEEP,NAP,Study2,B,134,142,Test,User,-,,Recall,Recall1,4666,Bed,0,3334,3704,0,0,,1
5ef9f69a00c39b7bcf432ec6,o8lcyz3eru,Nick_Dissertation_EX1,1,146,2020-07-08T15:02:55-07:00,5.0757648944855,2,versionA_stim.csv,READVersionB.csv,"Read Version B","Dissertation, read only version B",INCENSE,SMELL,Study2,F,110,173,Test,User,-,,Recall,Recall1,4431,Smell,100,2767,3369,1,1,,1
5ef9f69a00c39b7bcf432ec6,o8lcyz3eru,Nick_Dissertation_EX1,1,147,2020-07-08T15:03:02-07:00,6.9936680793762,2,versionA_stim.csv,READVersionB.csv,"Read Version B","Dissertation, read only version B",BOTH,OUNCE,Study2,U,172,152,Test,User,-,,Recall,Recall1,6344,One,75,4846,5265,0,1,,1
5ef9f69a00c39b7bcf432ec6,o8lcyz3eru,Nick_Dissertation_EX1,1,148,2020-07-08T15:03:13-07:00,10.75665807724,2,versionA_stim.csv,READVersionB.csv,"Read Version B","Dissertation, read only version B",POP,BALLOON,Study2,B,123,105,Test,User,-,,Recall,Recall1,10105,Loud,36.363636363636,8276,8990,0,0,,1
5ef9f69a00c39b7bcf432ec6,o8lcyz3eru,Nick_Dissertation_EX1,1,149,2020-07-08T15:03:16-07:00,3.8650059700012,2,versionA_stim.csv,READVersionB.csv,"Read Version B","Dissertation, read only version B",LOUD,NOISE,Study2,S,152,176,Test,User,-,,Recall,Recall1,3205,Pop,25,1854,2173,0,0,,1
5ef9f69a00c39b7bcf432ec6,o8lcyz3eru,Nick_Dissertation_EX1,1,150,2020-07-08T15:03:29-07:00,12.76556801796,2,versionA_stim.csv,READVersionB.csv,"Read Version B","Dissertation, read only version B",ADJOURN,END,Study2,F,101,160,Test,User,-,,Recall,Recall1,12089,Finnish,20,9743,10895,0,0,,1
5ef9f69a00c39b7bcf432ec6,o8lcyz3eru,Nick_Dissertation_EX1,1,151,2020-07-08T15:03:40-07:00,10.278506040573,2,versionA_stim.csv,READVersionB.csv,"Read Version B","Dissertation, read only version B",NAME,HATE,Study2,U,167,127,Test,User,-,,Recall,Recall1,9606,Yours,0,7394,8277,0,0,,1
5ef9f69a00c39b7bcf432ec6,o8lcyz3eru,Nick_Dissertation_EX1,1,152,2020-07-08T15:03:46-07:00,6.9032738208771,2,versionA_stim.csv,READVersionB.csv,"Read Version B","Dissertation, read only version B",CAT,PANTHER,Study2,B,126,153,Test,User,-,,Recall,Recall1,6225,Dog,0,4160,5224,0,0,,1
5ef9f69a00c39b7bcf432ec6,o8lcyz3eru,Nick_Dissertation_EX1,1,153,2020-07-08T15:03:51-07:00,4.7373812198639,2,versionA_stim.csv,READVersionB.csv,"Read Version B","Dissertation, read only version B",RAZOR,SHAVE,Study2,S,136,108,Test,User,-,,Recall,Recall1,3987,Blade,40,1936,2991,0,0,,1
5ef9f69a00c39b7bcf432ec6,o8lcyz3eru,Nick_Dissertation_EX1,1,154,2020-07-08T15:03:56-07:00,4.3767039775848,2,versionA_stim.csv,READVersionB.csv,"Read Version B","Dissertation, read only version B",LITTER,TRASH,Study2,F,103,129,Test,User,-,,Recall,Recall1,3659,Trash,100,1827,2577,1,1,,1
5ef9f69a00c39b7bcf432ec6,o8lcyz3eru,Nick_Dissertation_EX1,1,155,2020-07-08T15:03:59-07:00,3.9223449230194,2,versionA_stim.csv,READVersionB.csv,"Read Version B","Dissertation, read only version B",GIVE,STEAK,Study2,U,158,118,Test,User,-,,Recall,Recall1,3266,Take,66.666666666667,1802,2270,0,0,,1
5ef9f69a00c39b7bcf432ec6,o8lcyz3eru,Nick_Dissertation_EX1,1,156,2020-07-08T15:04:04-07:00,4.2438359260559,2,versionA_stim.csv,READVersionB.csv,"Read Version B","Dissertation, read only version B",CACTUS,PLANT,Study2,F,98,135,Test,User,-,,Recall,Recall1,3602,Plant,100,1839,2560,1,1,,1
5ef9f69a00c39b7bcf432ec6,o8lcyz3eru,Nick_Dissertation_EX1,1,157,2020-07-08T15:04:11-07:00,6.9371690750122,2,versionA_stim.csv,READVersionB.csv,"Read Version B","Dissertation, read only version B",CHILL,COLD,Study2,F,114,155,Test,User,-,,Recall,Recall1,6141,Cold,100,4362,5061,1,1,,1
5ef9f69a00c39b7bcf432ec6,o8lcyz3eru,Nick_Dissertation_EX1,1,158,2020-07-08T15:04:15-07:00,4.6812999248505,2,versionA_stim.csv,READVersionB.csv,"Read Version B","Dissertation, read only version B",KEYS,JOKE,Study2,U,165,136,Test,User,-,,Recall,Recall1,4012,House,44.444444444444,2445,3182,0,0,,1
5ef9f69a00c39b7bcf432ec6,o8lcyz3eru,Nick_Dissertation_EX1,1,159,2020-07-08T15:04:22-07:00,6.4751720428467,2,versionA_stim.csv,READVersionB.csv,"Read Version B","Dissertation, read only version B",VEHICLE,CHARM,Study2,U,160,133,Test,User,-,,Recall,Recall1,5753,"Transport ",14.285714285714,3239,4105,0,0,,1
5ef9f69a00c39b7bcf432ec6,o8lcyz3eru,Nick_Dissertation_EX1,1,160,2020-07-08T15:04:34-07:00,12.325789928436,2,versionA_stim.csv,READVersionB.csv,"Read Version B","Dissertation, read only version B",MASON,JAR,Study2,S,138,123,Test,User,-,,Recall,Recall1,11622,Rock,28.571428571429,9124,10341,0,0,,1
5ef9f69a00c39b7bcf432ec6,o8lcyz3eru,Nick_Dissertation_EX1,1,161,2020-07-08T15:04:39-07:00,4.388482093811,2,versionA_stim.csv,READVersionB.csv,"Read Version B","Dissertation, read only version B",DRY,WET,Study2,S,146,172,Test,User,-,,Recall,Recall1,3621,Hot,33.333333333333,2293,2691,0,0,,1
5ef9f69a00c39b7bcf432ec6,o8lcyz3eru,Nick_Dissertation_EX1,1,162,2020-07-08T15:04:44-07:00,5.3110189437866,2,versionA_stim.csv,READVersionB.csv,"Read Version B","Dissertation, read only version B",HONEST,TRUTHFUL,Study2,B,133,167,Test,User,-,,Recall,Recall1,4645,Truth,76.923076923077,2549,3665,0,1,,1
5ef9f69a00c39b7bcf432ec6,o8lcyz3eru,Nick_Dissertation_EX1,1,163,2020-07-08T15:04:51-07:00,7.2846291065216,2,versionA_stim.csv,READVersionB.csv,"Read Version B","Dissertation, read only version B",CHERRY,RED,Study2,F,104,141,Test,User,-,,Recall,Recall1,5389,Red,100,2343,4376,1,1,,1
5ef9f69a00c39b7bcf432ec6,o8lcyz3eru,Nick_Dissertation_EX1,1,164,2020-07-08T15:04:59-07:00,7.5602250099182,2,versionA_stim.csv,READVersionB.csv,"Read Version B","Dissertation, read only version B",JUSTICE,MAROON,Study2,U,156,150,Test,User,-,,Recall,Recall1,6883,Equal,18.181818181818,4422,5857,0,0,,1
5ef9f69a00c39b7bcf432ec6,o8lcyz3eru,Nick_Dissertation_EX1,1,165,2020-07-08T15:05:05-07:00,6.322331905365,2,versionA_stim.csv,READVersionB.csv,"Read Version B","Dissertation, read only version B",DEAD,COFFIN,Study2,B,128,157,Test,User,-,,Recall,Recall1,5653,Gone,40,3920,4588,0,0,,1
5ef9f69a00c39b7bcf432ec6,o8lcyz3eru,Nick_Dissertation_EX1,1,166,2020-07-08T15:05:13-07:00,7.7081611156464,2,versionA_stim.csv,READVersionB.csv,"Read Version B","Dissertation, read only version B",ELEMENT,CARBON,Study2,S,141,175,Test,User,-,,Recall,Recall1,7034,Chemical,28.571428571429,4435,5884,0,0,,1
5ef9f69a00c39b7bcf432ec6,o8lcyz3eru,Nick_Dissertation_EX1,1,167,2020-07-08T15:05:19-07:00,6.0116968154907,2,versionA_stim.csv,READVersionB.csv,"Read Version B","Dissertation, read only version B",SAFETY,SEATBELT,Study2,S,147,147,Test,User,-,,Recall,Recall1,5336,Exit,33.333333333333,3540,4408,0,0,,1
5ef9f69a00c39b7bcf432ec6,o8lcyz3eru,Nick_Dissertation_EX1,1,168,2020-07-08T15:05:25-07:00,5.8338050842285,2,versionA_stim.csv,READVersionB.csv,"Read Version B","Dissertation, read only version B",LOAN,SIGN,Study2,U,171,109,Test,User,-,,Recall,Recall1,5154,Money,22.222222222222,3124,4191,0,0,,1
5ef9f69a00c39b7bcf432ec6,o8lcyz3eru,Nick_Dissertation_EX1,1,169,2020-07-08T15:05:36-07:00,11.264601945877,2,versionA_stim.csv,READVersionB.csv,"Read Version B","Dissertation, read only version B",EARTH,GROUND,Study2,S,144,148,Test,User,-,,Recall,Recall1,9627,Planet,16.666666666667,7195,8544,0,0,,1
5ef9f69a00c39b7bcf432ec6,o8lcyz3eru,Nick_Dissertation_EX1,1,170,2020-07-08T15:05:42-07:00,6.645015001297,2,versionA_stim.csv,READVersionB.csv,"Read Version B","Dissertation, read only version B",TEMPERATURE,Morning,Study2,U,173,125,Test,User,-,,Recall,Recall1,4865,Hot,20,2702,3268,0,0,,1
5ef9f69a00c39b7bcf432ec6,o8lcyz3eru,Nick_Dissertation_EX1,1,171,2020-07-08T15:05:48-07:00,5.2323491573334,2,versionA_stim.csv,READVersionB.csv,"Read Version B","Dissertation, read only version B",GONE,AWAY,Study2,S,142,149,Test,User,-,,Recall,Recall1,4544,Alone,22.222222222222,2412,3414,0,0,,1
5ef9f69a00c39b7bcf432ec6,o8lcyz3eru,Nick_Dissertation_EX1,1,172,2020-07-08T15:05:53-07:00,4.8402709960938,2,versionA_stim.csv,READVersionB.csv,"Read Version B","Dissertation, read only version B",FLEA,TICK,Study2,S,151,139,Test,User,-,,Recall,Recall1,4208,Run,0,2496,3129,0,0,,1
5ef9f69a00c39b7bcf432ec6,o8lcyz3eru,Nick_Dissertation_EX1,1,173,2020-07-08T15:05:57-07:00,4.8928740024567,2,versionA_stim.csv,READVersionB.csv,"Read Version B","Dissertation, read only version B",THREAD,THIMBLE,Study2,B,121,144,Test,User,-,,Recall,Recall1,4263,String,30.769230769231,1900,3168,0,0,,1
5ef9f69a00c39b7bcf432ec6,o8lcyz3eru,Nick_Dissertation_EX1,1,174,2020-07-08T15:06:03-07:00,5.5042808055878,2,versionA_stim.csv,READVersionB.csv,"Read Version B","Dissertation, read only version B",DOCUMENT,PAPER,Study2,F,109,98,Test,User,-,,Recall,Recall1,4806,Real,22.222222222222,3280,3780,0,0,,1
5ef9f69a00c39b7bcf432ec6,o8lcyz3eru,Nick_Dissertation_EX1,1,175,2020-07-08T15:06:22-07:00,19.44336605072,2,versionA_stim.csv,READVersionB.csv,"Read Version B","Dissertation, read only version B",,,,,,0,Instruct,-,10,"You will now be presented with a new set of word pairs. Please study each pair. Remember that your memory will be tested! When finished, press Enter to move to the next pair.",Initial_Instruct,Instruct4,18772,,,-1,-1,,,,1
5ef9f69a00c39b7bcf432ec6,o8lcyz3eru,Nick_Dissertation_EX1,1,176,2020-07-08T15:06:34-07:00,11.147221088409,2,versionA_stim.csv,READVersionB.csv,"Read Version B","Dissertation, read only version B",SCARE,HIDE,BUFFER1,Buffer,4,2,Study,User,-,,Study/JOL,BUFFER3,10467,,,-1,-1,,,,1
5ef9f69a00c39b7bcf432ec6,o8lcyz3eru,Nick_Dissertation_EX1,1,177,2020-07-08T15:06:51-07:00,17.597310066223,2,versionA_stim.csv,READVersionB.csv,"Read Version B","Dissertation, read only version B",BASEBALL,CATCHER,BUFFER1,Buffer,2,5,Study,User,-,,Study/JOL,BUFFER3,16788,,,-1,-1,,,,1
5ef9f69a00c39b7bcf432ec6,o8lcyz3eru,Nick_Dissertation_EX1,1,178,2020-07-08T15:06:57-07:00,6.2642948627472,2,versionA_stim.csv,READVersionB.csv,"Read Version B","Dissertation, read only version B",TREES,GREEN,BUFFER1,Buffer,1,3,Study,User,-,,Study/JOL,BUFFER3,5599,,,-1,-1,,,,1
5ef9f69a00c39b7bcf432ec6,o8lcyz3eru,Nick_Dissertation_EX1,1,179,2020-07-08T15:07:02-07:00,4.7022731304169,2,versionA_stim.csv,READVersionB.csv,"Read Version B","Dissertation, read only version B",PEANUT,BUTTER,BUFFER1,Buffer,3,4,Study,User,-,,Study/JOL,BUFFER3,4002,,,-1,-1,,,,1
5ef9f69a00c39b7bcf432ec6,o8lcyz3eru,Nick_Dissertation_EX1,1,180,2020-07-08T15:07:09-07:00,7.1769349575043,2,versionA_stim.csv,READVersionB.csv,"Read Version B","Dissertation, read only version B",SPACE,JAM,BUFFER1,Buffer,5,6,Study,User,-,,Study/JOL,BUFFER3,6495,,,-1,-1,,,,1
5ef9f69a00c39b7bcf432ec6,o8lcyz3eru,Nick_Dissertation_EX1,1,181,2020-07-08T15:07:16-07:00,6.7230079174042,2,versionA_stim.csv,READVersionB.csv,"Read Version B","Dissertation, read only version B",PARK,HUNGRY,Study1,U,68,23,Study,User,-,,Study/JOL,"Study Phase2",5873,,,-1,-1,,,,1
5ef9f69a00c39b7bcf432ec6,o8lcyz3eru,Nick_Dissertation_EX1,1,182,2020-07-08T15:07:28-07:00,12.441406011581,2,versionA_stim.csv,READVersionB.csv,"Read Version B","Dissertation, read only version B",DIETARY,SACKING,Study1,U,67,28,Study,User,-,,Study/JOL,"Study Phase2",11754,,,-1,-1,,,,1
5ef9f69a00c39b7bcf432ec6,o8lcyz3eru,Nick_Dissertation_EX1,1,183,2020-07-08T15:07:41-07:00,12.228547096252,2,versionA_stim.csv,READVersionB.csv,"Read Version B","Dissertation, read only version B",ARCHITECTURE,DESIGN,Study1,S,51,75,Study,User,-,,Study/JOL,"Study Phase2",11542,,,-1,-1,,,,1
5ef9f69a00c39b7bcf432ec6,o8lcyz3eru,Nick_Dissertation_EX1,1,184,2020-07-08T15:07:47-07:00,6.1589879989624,2,versionA_stim.csv,READVersionB.csv,"Read Version B","Dissertation, read only version B",KEY,LATCH,Study1,B,36,54,Study,User,-,,Study/JOL,"Study Phase2",5490,,,-1,-1,,,,1
5ef9f69a00c39b7bcf432ec6,o8lcyz3eru,Nick_Dissertation_EX1,1,185,2020-07-08T15:07:56-07:00,9.2740299701691,2,versionA_stim.csv,READVersionB.csv,"Read Version B","Dissertation, read only version B",TRIAL,JURY,Study1,S,50,66,Study,User,-,,Study/JOL,"Study Phase2",8637,,,-1,-1,,,,1
5ef9f69a00c39b7bcf432ec6,o8lcyz3eru,Nick_Dissertation_EX1,1,186,2020-07-08T15:08:11-07:00,14.673197031021,2,versionA_stim.csv,READVersionB.csv,"Read Version B","Dissertation, read only version B",GEOLOGY,ROCK,Study1,F,19,81,Study,User,-,,Study/JOL,"Study Phase2",13911,,,-1,-1,,,,1
5ef9f69a00c39b7bcf432ec6,o8lcyz3eru,Nick_Dissertation_EX1,1,187,2020-07-08T15:08:18-07:00,7.379683971405,2,versionA_stim.csv,READVersionB.csv,"Read Version B","Dissertation, read only version B",VALLEY,ADD,Study1,U,82,27,Study,User,-,,Study/JOL,"Study Phase2",6724,,,-1,-1,,,,1
5ef9f69a00c39b7bcf432ec6,o8lcyz3eru,Nick_Dissertation_EX1,1,188,2020-07-08T15:08:29-07:00,10.568130970001,2,versionA_stim.csv,READVersionB.csv,"Read Version B","Dissertation, read only version B",HYGIENE,CLEAN,Study1,F,17,14,Study,User,-,,Study/JOL,"Study Phase2",9911,,,-1,-1,,,,1
5ef9f69a00c39b7bcf432ec6,o8lcyz3eru,Nick_Dissertation_EX1,1,189,2020-07-08T15:08:36-07:00,7.3982620239258,2,versionA_stim.csv,READVersionB.csv,"Read Version B","Dissertation, read only version B",DARK,CAVE,Study1,B,28,80,Study,User,-,,Study/JOL,"Study Phase2",6748,,,-1,-1,,,,1
5ef9f69a00c39b7bcf432ec6,o8lcyz3eru,Nick_Dissertation_EX1,1,190,2020-07-08T15:08:43-07:00,6.8742580413818,2,versionA_stim.csv,READVersionB.csv,"Read Version B","Dissertation, read only version B",HEIGHT,GROWTH,Study1,B,30,65,Study,User,-,,Study/JOL,"Study Phase2",5246,,,-1,-1,,,,1
5ef9f69a00c39b7bcf432ec6,o8lcyz3eru,Nick_Dissertation_EX1,1,191,2020-07-08T15:08:50-07:00,7.2248618602753,2,versionA_stim.csv,READVersionB.csv,"Read Version B","Dissertation, read only version B",MATH,DIVISION,Study1,B,33,84,Study,User,-,,Study/JOL,"Study Phase2",6620,,,-1,-1,,,,1
5ef9f69a00c39b7bcf432ec6,o8lcyz3eru,Nick_Dissertation_EX1,1,192,2020-07-08T15:09:01-07:00,11.23382806778,2,versionA_stim.csv,READVersionB.csv,"Read Version B","Dissertation, read only version B",SWAN,BIRD,Study1,F,14,37,Study,User,-,,Study/JOL,"Study Phase2",10613,,,-1,-1,,,,1
5ef9f69a00c39b7bcf432ec6,o8lcyz3eru,Nick_Dissertation_EX1,1,193,2020-07-08T15:09:21-07:00,19.318357944489,2,versionA_stim.csv,READVersionB.csv,"Read Version B","Dissertation, read only version B",DELINQUENT,BAD,Study1,F,6,21,Study,User,-,,Study/JOL,"Study Phase2",18654,,,-1,-1,,,,1
5ef9f69a00c39b7bcf432ec6,o8lcyz3eru,Nick_Dissertation_EX1,1,194,2020-07-08T15:09:25-07:00,4.204311132431,2,versionA_stim.csv,READVersionB.csv,"Read Version B","Dissertation, read only version B",ART,LION,Study1,U,79,9,Study,User,-,,Study/JOL,"Study Phase2",3546,,,-1,-1,,,,1
5ef9f69a00c39b7bcf432ec6,o8lcyz3eru,Nick_Dissertation_EX1,1,195,2020-07-08T15:09:37-07:00,12.171295881271,2,versionA_stim.csv,READVersionB.csv,"Read Version B","Dissertation, read only version B",POP,SODA,Study1,S,56,7,Study,User,-,,Study/JOL,"Study Phase2",10102,,,-1,-1,,,,1
5ef9f69a00c39b7bcf432ec6,o8lcyz3eru,Nick_Dissertation_EX1,1,196,2020-07-08T15:09:51-07:00,13.973051071167,2,versionA_stim.csv,READVersionB.csv,"Read Version B","Dissertation, read only version B",BRIDGE,WATER,Study1,F,18,69,Study,User,-,,Study/JOL,"Study Phase2",12754,,,-1,-1,,,,1
5ef9f69a00c39b7bcf432ec6,o8lcyz3eru,Nick_Dissertation_EX1,1,197,2020-07-08T15:10:05-07:00,14.138433933258,2,versionA_stim.csv,READVersionB.csv,"Read Version B","Dissertation, read only version B",DIGESTION,STOMACH,Study1,F,7,49,Study,User,-,,Study/JOL,"Study Phase2",13354,,,-1,-1,,,,1
5ef9f69a00c39b7bcf432ec6,o8lcyz3eru,Nick_Dissertation_EX1,1,198,2020-07-08T15:10:23-07:00,17.332389116287,2,versionA_stim.csv,READVersionB.csv,"Read Version B","Dissertation, read only version B",HERD,COW,Study1,F,22,11,Study,User,-,,Study/JOL,"Study Phase2",16549,,,-1,-1,,,,1
5ef9f69a00c39b7bcf432ec6,o8lcyz3eru,Nick_Dissertation_EX1,1,199,2020-07-08T15:10:29-07:00,6.0792698860168,2,versionA_stim.csv,READVersionB.csv,"Read Version B","Dissertation, read only version B",BLOW,WIND,Study1,S,55,60,Study,User,-,,Study/JOL,"Study Phase2",5430,,,-1,-1,,,,1
5ef9f69a00c39b7bcf432ec6,o8lcyz3eru,Nick_Dissertation_EX1,1,200,2020-07-08T15:10:37-07:00,8.3300490379333,2,versionA_stim.csv,READVersionB.csv,"Read Version B","Dissertation, read only version B",PUSHER,CLUTTER,Study1,U,66,85,Study,User,-,,Study/JOL,"Study Phase2",7683,,,-1,-1,,,,1
5ef9f69a00c39b7bcf432ec6,o8lcyz3eru,Nick_Dissertation_EX1,1,201,2020-07-08T15:10:42-07:00,4.7763888835907,2,versionA_stim.csv,READVersionB.csv,"Read Version B","Dissertation, read only version B",PLANE,PILOT,Study1,B,44,13,Study,User,-,,Study/JOL,"Study Phase2",4139,,,-1,-1,,,,1
5ef9f69a00c39b7bcf432ec6,o8lcyz3eru,Nick_Dissertation_EX1,1,202,2020-07-08T15:11:03-07:00,21.744621992111,2,versionA_stim.csv,READVersionB.csv,"Read Version B","Dissertation, read only version B",WINE,CHEESE,Study1,S,57,53,Study,User,-,,Study/JOL,"Study Phase2",20626,,,-1,-1,,,,1
5ef9f69a00c39b7bcf432ec6,o8lcyz3eru,Nick_Dissertation_EX1,1,203,2020-07-08T15:11:14-07:00,10.567949056625,2,versionA_stim.csv,READVersionB.csv,"Read Version B","Dissertation, read only version B",BABY,CHILD,Study1,S,64,68,Study,User,-,,Study/JOL,"Study Phase2",9903,,,-1,-1,,,,1
5ef9f69a00c39b7bcf432ec6,o8lcyz3eru,Nick_Dissertation_EX1,1,204,2020-07-08T15:11:19-07:00,4.6856160163879,2,versionA_stim.csv,READVersionB.csv,"Read Version B","Dissertation, read only version B",DUMP,WASTE,Study1,S,49,26,Study,User,-,,Study/JOL,"Study Phase2",4050,,,-1,-1,,,,1
5ef9f69a00c39b7bcf432ec6,o8lcyz3eru,Nick_Dissertation_EX1,1,205,2020-07-08T15:11:28-07:00,9.5702130794525,2,versionA_stim.csv,READVersionB.csv,"Read Version B","Dissertation, read only version B",CLOTHES,ATTIRE,Study1,B,43,50,Study,User,-,,Study/JOL,"Study Phase2",8938,,,-1,-1,,,,1
5ef9f69a00c39b7bcf432ec6,o8lcyz3eru,Nick_Dissertation_EX1,1,206,2020-07-08T15:11:32-07:00,3.8408179283142,2,versionA_stim.csv,READVersionB.csv,"Read Version B","Dissertation, read only version B",SHOE,FOOT,Study1,S,60,20,Study,User,-,,Study/JOL,"Study Phase2",3060,,,-1,-1,,,,1
5ef9f69a00c39b7bcf432ec6,o8lcyz3eru,Nick_Dissertation_EX1,1,207,2020-07-08T15:11:51-07:00,18.726258039474,2,versionA_stim.csv,READVersionB.csv,"Read Version B","Dissertation, read only version B",EDITOR,NEWS,Study1,F,10,62,Study,User,-,,Study/JOL,"Study Phase2",18059,,,-1,-1,,,,1
5ef9f69a00c39b7bcf432ec6,o8lcyz3eru,Nick_Dissertation_EX1,1,208,2020-07-08T15:12:01-07:00,10.393770933151,2,versionA_stim.csv,READVersionB.csv,"Read Version B","Dissertation, read only version B",HIDE,SICK,Study1,U,84,56,Study,User,-,,Study/JOL,"Study Phase2",9724,,,-1,-1,,,,1
5ef9f69a00c39b7bcf432ec6,o8lcyz3eru,Nick_Dissertation_EX1,1,209,2020-07-08T15:12:07-07:00,5.987035036087,2,versionA_stim.csv,READVersionB.csv,"Read Version B","Dissertation, read only version B",KIDNEY,LIVER,Study1,S,53,19,Study,User,-,,Study/JOL,"Study Phase2",5323,,,-1,-1,,,,1
5ef9f69a00c39b7bcf432ec6,o8lcyz3eru,Nick_Dissertation_EX1,1,210,2020-07-08T15:12:11-07:00,3.2589540481567,2,versionA_stim.csv,READVersionB.csv,"Read Version B","Dissertation, read only version B",WAY,OUT,Study1,F,16,47,Study,User,-,,Study/JOL,"Study Phase2",2607,,,-1,-1,,,,1
5ef9f69a00c39b7bcf432ec6,o8lcyz3eru,Nick_Dissertation_EX1,1,211,2020-07-08T15:12:18-07:00,7.3740739822388,2,versionA_stim.csv,READVersionB.csv,"Read Version B","Dissertation, read only version B",HAPPY,CAR,Study1,U,77,25,Study,User,-,,Study/JOL,"Study Phase2",6693,,,-1,-1,,,,1
5ef9f69a00c39b7bcf432ec6,o8lcyz3eru,Nick_Dissertation_EX1,1,212,2020-07-08T15:12:26-07:00,8.3370358943939,2,versionA_stim.csv,READVersionB.csv,"Read Version B","Dissertation, read only version B",LAW,ATTORNEY,Study1,B,34,35,Study,User,-,,Study/JOL,"Study Phase2",7694,,,-1,-1,,,,1
5ef9f69a00c39b7bcf432ec6,o8lcyz3eru,Nick_Dissertation_EX1,1,213,2020-07-08T15:12:33-07:00,7.0816700458527,2,versionA_stim.csv,READVersionB.csv,"Read Version B","Dissertation, read only version B",ROOT,PLANT,Study1,F,13,72,Study,User,-,,Study/JOL,"Study Phase2",6354,,,-1,-1,,,,1
5ef9f69a00c39b7bcf432ec6,o8lcyz3eru,Nick_Dissertation_EX1,1,214,2020-07-08T15:12:41-07:00,7.9903509616852,2,versionA_stim.csv,READVersionB.csv,"Read Version B","Dissertation, read only version B",STRONG,ACCIDENT,Study1,U,80,22,Study,User,-,,Study/JOL,"Study Phase2",6273,,,-1,-1,,,,1
5ef9f69a00c39b7bcf432ec6,o8lcyz3eru,Nick_Dissertation_EX1,1,215,2020-07-08T15:12:49-07:00,7.6305611133575,2,versionA_stim.csv,READVersionB.csv,"Read Version B","Dissertation, read only version B",ORCHID,FLOWER,Study1,F,24,63,Study,User,-,,Study/JOL,"Study Phase2",6945,,,-1,-1,,,,1
5ef9f69a00c39b7bcf432ec6,o8lcyz3eru,Nick_Dissertation_EX1,1,216,2020-07-08T15:13:02-07:00,12.590216875076,2,versionA_stim.csv,READVersionB.csv,"Read Version B","Dissertation, read only version B",LETTUCE,SALAD,Study1,S,59,82,Study,User,-,,Study/JOL,"Study Phase2",11900,,,-1,-1,,,,1
5ef9f69a00c39b7bcf432ec6,o8lcyz3eru,Nick_Dissertation_EX1,1,217,2020-07-08T15:13:12-07:00,10.766023159027,2,versionA_stim.csv,READVersionB.csv,"Read Version B","Dissertation, read only version B",DEBATE,SIGHT,Study1,U,73,17,Study,User,-,,Study/JOL,"Study Phase2",10096,,,-1,-1,,,,1
5ef9f69a00c39b7bcf432ec6,o8lcyz3eru,Nick_Dissertation_EX1,1,218,2020-07-08T15:13:32-07:00,19.349908828735,2,versionA_stim.csv,READVersionB.csv,"Read Version B","Dissertation, read only version B",SUGAR,RIDDLE,Study1,U,81,51,Study,User,-,,Study/JOL,"Study Phase2",18507,,,-1,-1,,,,1
5ef9f69a00c39b7bcf432ec6,o8lcyz3eru,Nick_Dissertation_EX1,1,219,2020-07-08T15:13:48-07:00,16.089751005173,2,versionA_stim.csv,READVersionB.csv,"Read Version B","Dissertation, read only version B",TAKE,SEIZE,Study1,B,29,46,Study,User,-,,Study/JOL,"Study Phase2",15471,,,-1,-1,,,,1
5ef9f69a00c39b7bcf432ec6,o8lcyz3eru,Nick_Dissertation_EX1,1,220,2020-07-08T15:13:52-07:00,4.3107399940491,2,versionA_stim.csv,READVersionB.csv,"Read Version B","Dissertation, read only version B",HOT,CHILI,Study1,B,37,58,Study,User,-,,Study/JOL,"Study Phase2",3627,,,-1,-1,,,,1
5ef9f69a00c39b7bcf432ec6,o8lcyz3eru,Nick_Dissertation_EX1,1,221,2020-07-08T15:14:08-07:00,16.320088148117,2,versionA_stim.csv,READVersionB.csv,"Read Version B","Dissertation, read only version B",MACHINE,POSITION,Study1,U,76,15,Study,User,-,,Study/JOL,"Study Phase2",15495,,,-1,-1,,,,1
5ef9f69a00c39b7bcf432ec6,o8lcyz3eru,Nick_Dissertation_EX1,1,222,2020-07-08T15:14:17-07:00,8.3241539001465,2,versionA_stim.csv,READVersionB.csv,"Read Version B","Dissertation, read only version B",SMELL,STENCH,Study1,B,42,8,Study,User,-,,Study/JOL,"Study Phase2",7624,,,-1,-1,,,,1
5ef9f69a00c39b7bcf432ec6,o8lcyz3eru,Nick_Dissertation_EX1,1,223,2020-07-08T15:14:29-07:00,12.530042171478,2,versionA_stim.csv,READVersionB.csv,"Read Version B","Dissertation, read only version B",HUNGER,FAMINE,Study1,B,40,44,Study,User,-,,Study/JOL,"Study Phase2",11855,,,-1,-1,,,,1
5ef9f69a00c39b7bcf432ec6,o8lcyz3eru,Nick_Dissertation_EX1,1,224,2020-07-08T15:14:54-07:00,24.496100902557,2,versionA_stim.csv,READVersionB.csv,"Read Version B","Dissertation, read only version B",CHISEL,HAMMER,Study1,F,9,59,Study,User,-,,Study/JOL,"Study Phase2",23830,,,-1,-1,,,,1
5ef9f69a00c39b7bcf432ec6,o8lcyz3eru,Nick_Dissertation_EX1,1,225,2020-07-08T15:15:06-07:00,12.087121963501,2,versionA_stim.csv,READVersionB.csv,"Read Version B","Dissertation, read only version B",MEANING,DEFINITION,Study1,S,62,34,Study,User,-,,Study/JOL,"Study Phase2",11436,,,-1,-1,,,,1
5ef9f69a00c39b7bcf432ec6,o8lcyz3eru,Nick_Dissertation_EX1,1,226,2020-07-08T15:15:24-07:00,17.77480006218,2,versionA_stim.csv,READVersionB.csv,"Read Version B","Dissertation, read only version B",DEATH,BUSINESS,Study1,U,72,43,Study,User,-,,Study/JOL,"Study Phase2",16957,,,-1,-1,,,,1
5ef9f69a00c39b7bcf432ec6,o8lcyz3eru,Nick_Dissertation_EX1,1,227,2020-07-08T15:16:17-07:00,53.08275604248,2,versionA_stim.csv,READVersionB.csv,"Read Version B","Dissertation, read only version B",GREAT,FANTASTIC,Study1,B,35,78,Study,User,-,,Study/JOL,"Study Phase2",52274,,,-1,-1,,,,1
5ef9f69a00c39b7bcf432ec6,o8lcyz3eru,Nick_Dissertation_EX1,1,228,2020-07-08T15:16:20-07:00,2.8582038879395,2,versionA_stim.csv,READVersionB.csv,"Read Version B","Dissertation, read only version B",HONEY,BEE,Study1,S,63,39,Study,User,-,,Study/JOL,"Study Phase2",2212,,,-1,-1,,,,1
5ef9f69a00c39b7bcf432ec6,o8lcyz3eru,Nick_Dissertation_EX1,1,229,2020-07-08T15:16:28-07:00,8.7135329246521,2,versionA_stim.csv,READVersionB.csv,"Read Version B","Dissertation, read only version B",TUNA,FISH,Study1,F,25,61,Study,User,-,,Study/JOL,"Study Phase2",8015,,,-1,-1,,,,1
5ef9f69a00c39b7bcf432ec6,o8lcyz3eru,Nick_Dissertation_EX1,1,230,2020-07-08T15:16:35-07:00,6.3446860313416,2,versionA_stim.csv,READVersionB.csv,"Read Version B","Dissertation, read only version B",PAST,FUTURE,Study1,S,61,29,Study,User,-,,Study/JOL,"Study Phase2",5692,,,-1,-1,,,,1
5ef9f69a00c39b7bcf432ec6,o8lcyz3eru,Nick_Dissertation_EX1,1,231,2020-07-08T15:16:41-07:00,6.0802431106567,2,versionA_stim.csv,READVersionB.csv,"Read Version B","Dissertation, read only version B",SOON,BELT,Study1,U,70,30,Study,User,-,,Study/JOL,"Study Phase2",5399,,,-1,-1,,,,1
5ef9f69a00c39b7bcf432ec6,o8lcyz3eru,Nick_Dissertation_EX1,1,232,2020-07-08T15:16:47-07:00,6.3776400089264,2,versionA_stim.csv,READVersionB.csv,"Read Version B","Dissertation, read only version B",SLEEP,DROWSY,Study1,B,41,33,Study,User,-,,Study/JOL,"Study Phase2",5629,,,-1,-1,,,,1
5ef9f69a00c39b7bcf432ec6,o8lcyz3eru,Nick_Dissertation_EX1,1,233,2020-07-08T15:16:57-07:00,9.9024040699005,2,versionA_stim.csv,READVersionB.csv,"Read Version B","Dissertation, read only version B",DISCUSSION,TALK,Study1,F,21,67,Study,User,-,,Study/JOL,"Study Phase2",9234,,,-1,-1,,,,1
5ef9f69a00c39b7bcf432ec6,o8lcyz3eru,Nick_Dissertation_EX1,1,234,2020-07-08T15:17:10-07:00,12.564496994019,2,versionA_stim.csv,READVersionB.csv,"Read Version B","Dissertation, read only version B",DUE,ASSIGNMENT,Study1,S,46,55,Study,User,-,,Study/JOL,"Study Phase2",11900,,,-1,-1,,,,1
5ef9f69a00c39b7bcf432ec6,o8lcyz3eru,Nick_Dissertation_EX1,1,235,2020-07-08T15:17:22-07:00,12.128010988235,2,versionA_stim.csv,READVersionB.csv,"Read Version B","Dissertation, read only version B",SENTENCE,WORD,Study1,B,31,70,Study,User,-,,Study/JOL,"Study Phase2",10449,,,-1,-1,,,,1
5ef9f69a00c39b7bcf432ec6,o8lcyz3eru,Nick_Dissertation_EX1,1,236,2020-07-08T15:17:28-07:00,6.6507349014282,2,versionA_stim.csv,READVersionB.csv,"Read Version B","Dissertation, read only version B",KING,VASE,Study1,U,85,45,Study,User,-,,Study/JOL,"Study Phase2",5985,,,-1,-1,,,,1
5ef9f69a00c39b7bcf432ec6,o8lcyz3eru,Nick_Dissertation_EX1,1,237,2020-07-08T15:17:32-07:00,3.2881259918213,2,versionA_stim.csv,READVersionB.csv,"Read Version B","Dissertation, read only version B",BATHROOM,TOILET,Study1,S,58,10,Study,User,-,,Study/JOL,"Study Phase2",2634,,,-1,-1,,,,1
5ef9f69a00c39b7bcf432ec6,o8lcyz3eru,Nick_Dissertation_EX1,1,238,2020-07-08T15:17:37-07:00,5.007364988327,2,versionA_stim.csv,READVersionB.csv,"Read Version B","Dissertation, read only version B",BITTER,COLD,Study1,F,12,74,Study,User,-,,Study/JOL,"Study Phase2",4273,,,-1,-1,,,,1
5ef9f69a00c39b7bcf432ec6,o8lcyz3eru,Nick_Dissertation_EX1,1,239,2020-07-08T15:17:44-07:00,7.0246291160583,2,versionA_stim.csv,READVersionB.csv,"Read Version B","Dissertation, read only version B",NUMBER,AMOUNT,Study1,S,47,71,Study,User,-,,Study/JOL,"Study Phase2",6153,,,-1,-1,,,,1
5ef9f69a00c39b7bcf432ec6,o8lcyz3eru,Nick_Dissertation_EX1,1,240,2020-07-08T15:17:47-07:00,3.2312309741974,2,versionA_stim.csv,READVersionB.csv,"Read Version B","Dissertation, read only version B",CREDIT,CARD,Study1,F,23,86,Study,User,-,,Study/JOL,"Study Phase2",2575,,,-1,-1,,,,1
5ef9f69a00c39b7bcf432ec6,o8lcyz3eru,Nick_Dissertation_EX1,1,241,2020-07-08T15:17:55-07:00,8.2867848873138,2,versionA_stim.csv,READVersionB.csv,"Read Version B","Dissertation, read only version B",DISCOVER,FLOOR,Study1,U,71,38,Study,User,-,,Study/JOL,"Study Phase2",7576,,,-1,-1,,,,1
5ef9f69a00c39b7bcf432ec6,o8lcyz3eru,Nick_Dissertation_EX1,1,242,2020-07-08T15:18:01-07:00,5.6481809616089,2,versionA_stim.csv,READVersionB.csv,"Read Version B","Dissertation, read only version B",ALLOW,TUCK,Study1,U,78,16,Study,User,-,,Study/JOL,"Study Phase2",4957,,,-1,-1,,,,1
5ef9f69a00c39b7bcf432ec6,o8lcyz3eru,Nick_Dissertation_EX1,1,243,2020-07-08T15:18:06-07:00,5.6610059738159,2,versionA_stim.csv,READVersionB.csv,"Read Version B","Dissertation, read only version B",CIRCLE,ROUND,Study1,S,65,57,Study,User,-,,Study/JOL,"Study Phase2",4996,,,-1,-1,,,,1
5ef9f69a00c39b7bcf432ec6,o8lcyz3eru,Nick_Dissertation_EX1,1,244,2020-07-08T15:18:18-07:00,11.092204093933,2,versionA_stim.csv,READVersionB.csv,"Read Version B","Dissertation, read only version B",ARTERY,BRONZE,Study1,U,74,76,Study,User,-,,Study/JOL,"Study Phase2",10433,,,-1,-1,,,,1
5ef9f69a00c39b7bcf432ec6,o8lcyz3eru,Nick_Dissertation_EX1,1,245,2020-07-08T15:18:31-07:00,13.401312112808,2,versionA_stim.csv,READVersionB.csv,"Read Version B","Dissertation, read only version B",BALL,RACKET,Study1,B,38,18,Study,User,-,,Study/JOL,"Study Phase2",12505,,,-1,-1,,,,1
5ef9f69a00c39b7bcf432ec6,o8lcyz3eru,Nick_Dissertation_EX1,1,246,2020-07-08T15:18:38-07:00,7.2594609260559,2,versionA_stim.csv,READVersionB.csv,"Read Version B","Dissertation, read only version B",FIX,HAND,Study1,U,75,83,Study,User,-,,Study/JOL,"Study Phase2",6567,,,-1,-1,,,,1
5ef9f69a00c39b7bcf432ec6,o8lcyz3eru,Nick_Dissertation_EX1,1,247,2020-07-08T15:18:52-07:00,14.266017913818,2,versionA_stim.csv,READVersionB.csv,"Read Version B","Dissertation, read only version B",CASH,WOULD,Study1,U,83,31,Study,User,-,,Study/JOL,"Study Phase2",13503,,,-1,-1,,,,1
5ef9f69a00c39b7bcf432ec6,o8lcyz3eru,Nick_Dissertation_EX1,1,248,2020-07-08T15:18:57-07:00,4.4478530883789,2,versionA_stim.csv,READVersionB.csv,"Read Version B","Dissertation, read only version B",FULL,ENOUGH,Study1,B,26,48,Study,User,-,,Study/JOL,"Study Phase2",3823,,,-1,-1,,,,1
5ef9f69a00c39b7bcf432ec6,o8lcyz3eru,Nick_Dissertation_EX1,1,249,2020-07-08T15:19:05-07:00,8.4166569709778,2,versionA_stim.csv,READVersionB.csv,"Read Version B","Dissertation, read only version B",LOCATION,SITE,Study1,S,48,41,Study,User,-,,Study/JOL,"Study Phase2",7757,,,-1,-1,,,,1
5ef9f69a00c39b7bcf432ec6,o8lcyz3eru,Nick_Dissertation_EX1,1,250,2020-07-08T15:19:09-07:00,3.9614300727844,2,versionA_stim.csv,READVersionB.csv,"Read Version B","Dissertation, read only version B",WORK,CHORE,Study1,B,39,52,Study,User,-,,Study/JOL,"Study Phase2",3296,,,-1,-1,,,,1
5ef9f69a00c39b7bcf432ec6,o8lcyz3eru,Nick_Dissertation_EX1,1,251,2020-07-08T15:19:26-07:00,16.965656995773,2,versionA_stim.csv,READVersionB.csv,"Read Version B","Dissertation, read only version B",BUG,WASP,Study1,B,32,64,Study,User,-,,Study/JOL,"Study Phase2",16157,,,-1,-1,,,,1
5ef9f69a00c39b7bcf432ec6,o8lcyz3eru,Nick_Dissertation_EX1,1,252,2020-07-08T15:19:31-07:00,5.0735578536987,2,versionA_stim.csv,READVersionB.csv,"Read Version B","Dissertation, read only version B",REVOLUTION,WAR,Study1,F,20,42,Study,User,-,,Study/JOL,"Study Phase2",4398,,,-1,-1,,,,1
5ef9f69a00c39b7bcf432ec6,o8lcyz3eru,Nick_Dissertation_EX1,1,253,2020-07-08T15:19:39-07:00,7.2695701122284,2,versionA_stim.csv,READVersionB.csv,"Read Version B","Dissertation, read only version B",WAGE,MONEY,Study1,F,8,36,Study,User,-,,Study/JOL,"Study Phase2",6604,,,-1,-1,,,,1
5ef9f69a00c39b7bcf432ec6,o8lcyz3eru,Nick_Dissertation_EX1,1,254,2020-07-08T15:19:44-07:00,5.0506789684296,2,versionA_stim.csv,READVersionB.csv,"Read Version B","Dissertation, read only version B",DRINK,SIP,Study1,B,27,12,Study,User,-,,Study/JOL,"Study Phase2",4387,,,-1,-1,,,,1
5ef9f69a00c39b7bcf432ec6,o8lcyz3eru,Nick_Dissertation_EX1,1,255,2020-07-08T15:19:53-07:00,9.628014087677,2,versionA_stim.csv,READVersionB.csv,"Read Version B","Dissertation, read only version B",PAW,DOG,Study1,F,15,79,Study,User,-,,Study/JOL,"Study Phase2",7947,,,-1,-1,,,,1
5ef9f69a00c39b7bcf432ec6,o8lcyz3eru,Nick_Dissertation_EX1,1,256,2020-07-08T15:19:58-07:00,4.9165458679199,2,versionA_stim.csv,READVersionB.csv,"Read Version B","Dissertation, read only version B",FIRE,BLAZE,Study1,B,45,77,Study,User,-,,Study/JOL,"Study Phase2",4249,,,-1,-1,,,,1
5ef9f69a00c39b7bcf432ec6,o8lcyz3eru,Nick_Dissertation_EX1,1,257,2020-07-08T15:20:04-07:00,5.6259191036224,2,versionA_stim.csv,READVersionB.csv,"Read Version B","Dissertation, read only version B",LIFT,WOMAN,Study1,U,69,73,Study,User,-,,Study/JOL,"Study Phase2",4902,,,-1,-1,,,,1
5ef9f69a00c39b7bcf432ec6,o8lcyz3eru,Nick_Dissertation_EX1,1,258,2020-07-08T15:20:10-07:00,6.0832419395447,2,versionA_stim.csv,READVersionB.csv,"Read Version B","Dissertation, read only version B",GRILL,BAR,Study1,S,52,32,Study,User,-,,Study/JOL,"Study Phase2",5324,,,-1,-1,,,,1
5ef9f69a00c39b7bcf432ec6,o8lcyz3eru,Nick_Dissertation_EX1,1,259,2020-07-08T15:20:20-07:00,9.7180869579315,2,versionA_stim.csv,READVersionB.csv,"Read Version B","Dissertation, read only version B",HORNET,STING,Study1,F,11,24,Study,User,-,,Study/JOL,"Study Phase2",9065,,,-1,-1,,,,1
5ef9f69a00c39b7bcf432ec6,o8lcyz3eru,Nick_Dissertation_EX1,1,260,2020-07-08T15:20:24-07:00,4.1400809288025,2,versionA_stim.csv,READVersionB.csv,"Read Version B","Dissertation, read only version B",BEGIN,END,Study1,S,54,40,Study,User,-,,Study/JOL,"Study Phase2",3468,,,-1,-1,,,,1
5ef9f69a00c39b7bcf432ec6,o8lcyz3eru,Nick_Dissertation_EX1,1,261,2020-07-08T15:20:46-07:00,22.544649124146,2,versionA_stim.csv,READVersionB.csv,"Read Version B","Dissertation, read only version B",MALT,CHOCOLATE,BUFFER2,Buffer,88,88,Study,User,-,,Study/JOL,BUFFER4,21832,,,-1,-1,,,,1
5ef9f69a00c39b7bcf432ec6,o8lcyz3eru,Nick_Dissertation_EX1,1,262,2020-07-08T15:21:01-07:00,14.795747041702,2,versionA_stim.csv,READVersionB.csv,"Read Version B","Dissertation, read only version B",SHERRIF,POLICE,BUFFER2,Buffer,87,87,Study,User,-,,Study/JOL,BUFFER4,14101,,,-1,-1,,,,1
5ef9f69a00c39b7bcf432ec6,o8lcyz3eru,Nick_Dissertation_EX1,1,263,2020-07-08T15:21:23-07:00,21.4507188797,2,versionA_stim.csv,READVersionB.csv,"Read Version B","Dissertation, read only version B",THING,STUFF,BUFFER2,Buffer,90,89,Study,User,-,,Study/JOL,BUFFER4,20654,,,-1,-1,,,,1
5ef9f69a00c39b7bcf432ec6,o8lcyz3eru,Nick_Dissertation_EX1,1,264,2020-07-08T15:21:30-07:00,7.6723849773407,2,versionA_stim.csv,READVersionB.csv,"Read Version B","Dissertation, read only version B",MOON,SPACE,BUFFER2,Buffer,89,90,Study,User,-,,Study/JOL,BUFFER4,6980,,,-1,-1,,,,1
5ef9f69a00c39b7bcf432ec6,o8lcyz3eru,Nick_Dissertation_EX1,1,265,2020-07-08T15:21:37-07:00,6.542484998703,2,versionA_stim.csv,READVersionB.csv,"Read Version B","Dissertation, read only version B",GEESE,GOOSE,BUFFER2,Buffer,86,91,Study,User,-,,Study/JOL,BUFFER4,5867,,,-1,-1,,,,1
5ef9f69a00c39b7bcf432ec6,o8lcyz3eru,Nick_Dissertation_EX1,1,266,2020-07-08T15:21:43-07:00,6.1239731311798,2,versionA_stim.csv,READVersionB.csv,"Read Version B","Dissertation, read only version B",,,,,,0,Instruct,User,-,"You have completed this section. Please press Enter.",Filler_Instruction,Instruct5,5459,,,-1,-1,,,,1
5ef9f69a00c39b7bcf432ec6,o8lcyz3eru,Nick_Dissertation_EX1,1,267,2020-07-08T15:23:44-07:00,120.94792294502,2,versionA_stim.csv,READVersionB.csv,"Read Version B","Dissertation, read only version B",,,,,,0,FreeRecall,120,120,"Please list the 50 US states in reverse alphabetical order (z - a). The task will automatically advance to the next screen after two minutes.",,Filler2,120018,"Wyoming West Virginia Virginia Washington Utah Texas Decota Pennsylvania",0,25362,103603,0,0,,1
5ef9f69a00c39b7bcf432ec6,o8lcyz3eru,Nick_Dissertation_EX1,1,268,2020-07-08T15:24:06-07:00,22.151571989059,2,versionA_stim.csv,READVersionB.csv,"Read Version B","Dissertation, read only version B",,,,,,0,Instruct,-,10,"You will now be presented with the first word from each of the previously studied item pairs. Please type the missing word. If you do not know the word, you may guess or press Enter to skip forward to the next pair.",,Instruct6,21464,,,-1,-1,,,,1
5ef9f69a00c39b7bcf432ec6,o8lcyz3eru,Nick_Dissertation_EX1,1,269,2020-07-08T15:24:28-07:00,21.885962963104,2,versionA_stim.csv,READVersionB.csv,"Read Version B","Dissertation, read only version B",SMELL,STENCH,Study1,B,42,8,Test,User,-,,Recall,Recall2,21218,Stench,100,10370,15409,1,1,,1
5ef9f69a00c39b7bcf432ec6,o8lcyz3eru,Nick_Dissertation_EX1,1,270,2020-07-08T15:25:00-07:00,32.538499116898,2,versionA_stim.csv,READVersionB.csv,"Read Version B","Dissertation, read only version B",HIDE,SICK,Study1,U,84,56,Test,User,-,,Recall,Recall2,31642,Seek,50,28543,30427,0,0,,1
5ef9f69a00c39b7bcf432ec6,o8lcyz3eru,Nick_Dissertation_EX1,1,271,2020-07-08T15:25:19-07:00,18.978760004044,2,versionA_stim.csv,READVersionB.csv,"Read Version B","Dissertation, read only version B",ART,LION,Study1,U,79,9,Test,User,-,,Recall,Recall2,18180," Draw",0,10015,16132,0,0,,1
5ef9f69a00c39b7bcf432ec6,o8lcyz3eru,Nick_Dissertation_EX1,1,272,2020-07-08T15:25:25-07:00,5.3410589694977,2,versionA_stim.csv,READVersionB.csv,"Read Version B","Dissertation, read only version B",WINE,CHEESE,Study1,S,57,53,Test,User,-,,Recall,Recall2,4420,Cheese,100,2203,3291,1,1,,1
5ef9f69a00c39b7bcf432ec6,o8lcyz3eru,Nick_Dissertation_EX1,1,273,2020-07-08T15:25:50-07:00,25.300940990448,2,versionA_stim.csv,READVersionB.csv,"Read Version B","Dissertation, read only version B",ALLOW,TUCK,Study1,U,78,16,Test,User,-,,Recall,Recall2,24502,"Touch ",66.666666666667,17321,20271,0,0,,1
5ef9f69a00c39b7bcf432ec6,o8lcyz3eru,Nick_Dissertation_EX1,1,274,2020-07-08T15:26:08-07:00,18.167998075485,2,versionA_stim.csv,READVersionB.csv,"Read Version B","Dissertation, read only version B",HYGIENE,CLEAN,Study1,F,17,14,Test,User,-,,Recall,Recall2,17371,Clean,100,14605,16126,1,1,,1
5ef9f69a00c39b7bcf432ec6,o8lcyz3eru,Nick_Dissertation_EX1,1,275,2020-07-08T15:26:15-07:00,6.6786057949066,2,versionA_stim.csv,READVersionB.csv,"Read Version B","Dissertation, read only version B",BEGIN,END,Study1,S,54,40,Test,User,-,,Recall,Recall2,5949,End,100,2252,3187,1,1,,1
5ef9f69a00c39b7bcf432ec6,o8lcyz3eru,Nick_Dissertation_EX1,1,276,2020-07-08T15:26:28-07:00,13.471101045609,2,versionA_stim.csv,READVersionB.csv,"Read Version B","Dissertation, read only version B",KING,VASE,Study1,U,85,45,Test,User,-,,Recall,Recall2,12840,Queen,22.222222222222,10378,11879,0,0,,1
5ef9f69a00c39b7bcf432ec6,o8lcyz3eru,Nick_Dissertation_EX1,1,277,2020-07-08T15:26:33-07:00,4.5584201812744,2,versionA_stim.csv,READVersionB.csv,"Read Version B","Dissertation, read only version B",REVOLUTION,WAR,Study1,F,20,42,Test,User,-,,Recall,Recall2,3908,War,100,2393,2909,1,1,,1
5ef9f69a00c39b7bcf432ec6,o8lcyz3eru,Nick_Dissertation_EX1,1,278,2020-07-08T15:26:49-07:00,15.663426876068,2,versionA_stim.csv,READVersionB.csv,"Read Version B","Dissertation, read only version B",CHISEL,HAMMER,Study1,F,9,59,Test,User,-,,Recall,Recall2,14994,Hammer,100,7482,9047,1,1,,1
5ef9f69a00c39b7bcf432ec6,o8lcyz3eru,Nick_Dissertation_EX1,1,279,2020-07-08T15:26:54-07:00,5.5289950370789,2,versionA_stim.csv,READVersionB.csv,"Read Version B","Dissertation, read only version B",PAW,DOG,Study1,F,15,79,Test,User,-,,Recall,Recall2,4873,Dog,100,2524,3475,1,1,,1
5ef9f69a00c39b7bcf432ec6,o8lcyz3eru,Nick_Dissertation_EX1,1,280,2020-07-08T15:27:20-07:00,26.348768949509,2,versionA_stim.csv,READVersionB.csv,"Read Version B","Dissertation, read only version B",FIRE,BLAZE,Study1,B,45,77,Test,User,-,,Recall,Recall2,25509,Blaze,100,22890,24194,1,1,,1
5ef9f69a00c39b7bcf432ec6,o8lcyz3eru,Nick_Dissertation_EX1,1,281,2020-07-08T15:27:32-07:00,12.059445142746,2,versionA_stim.csv,READVersionB.csv,"Read Version B","Dissertation, read only version B",LOCATION,SITE,Study1,S,48,41,Test,User,-,,Recall,Recall2,11384," Site",100,5806,10376,1,1,,1
5ef9f69a00c39b7bcf432ec6,o8lcyz3eru,Nick_Dissertation_EX1,1,282,2020-07-08T15:27:50-07:00,17.775753974915,2,versionA_stim.csv,READVersionB.csv,"Read Version B","Dissertation, read only version B",BLOW,WIND,Study1,S,55,60,Test,User,-,,Recall,Recall2,17103,Wind,100,15105,16073,1,1,,1
5ef9f69a00c39b7bcf432ec6,o8lcyz3eru,Nick_Dissertation_EX1,1,283,2020-07-08T15:28:01-07:00,10.873755931854,2,versionA_stim.csv,READVersionB.csv,"Read Version B","Dissertation, read only version B",DARK,CAVE,Study1,B,28,80,Test,User,-,,Recall,Recall2,10183,"Shadow ",20,4818,5803,0,0,,1
5ef9f69a00c39b7bcf432ec6,o8lcyz3eru,Nick_Dissertation_EX1,1,284,2020-07-08T15:28:39-07:00,38.293571949005,2,versionA_stim.csv,READVersionB.csv,"Read Version B","Dissertation, read only version B",LIFT,WOMAN,Study1,U,69,73,Test,User,-,,Recall,Recall2,37451,Higher,0,34834,36270,0,0,,1
5ef9f69a00c39b7bcf432ec6,o8lcyz3eru,Nick_Dissertation_EX1,1,285,2020-07-08T15:28:57-07:00,17.215430021286,2,versionA_stim.csv,READVersionB.csv,"Read Version B","Dissertation, read only version B",KEY,LATCH,Study1,B,36,54,Test,User,-,,Recall,Recall2,16386,Chain,40,14209,15276,0,0,,1
5ef9f69a00c39b7bcf432ec6,o8lcyz3eru,Nick_Dissertation_EX1,1,286,2020-07-08T15:29:11-07:00,14.378099918365,2,versionA_stim.csv,READVersionB.csv,"Read Version B","Dissertation, read only version B",HAPPY,CAR,Study1,U,77,25,Test,User,-,,Recall,Recall2,13557,Car,100,11995,12512,1,1,,1
5ef9f69a00c39b7bcf432ec6,o8lcyz3eru,Nick_Dissertation_EX1,1,287,2020-07-08T15:29:21-07:00,10.231549024582,2,versionA_stim.csv,READVersionB.csv,"Read Version B","Dissertation, read only version B",STRONG,ACCIDENT,Study1,U,80,22,Test,User,-,,Recall,Recall2,9562,"Accident ",100,5482,7332,1,1,,1
5ef9f69a00c39b7bcf432ec6,o8lcyz3eru,Nick_Dissertation_EX1,1,288,2020-07-08T15:29:29-07:00,7.6816680431366,2,versionA_stim.csv,READVersionB.csv,"Read Version B","Dissertation, read only version B",ARTERY,BRONZE,Study1,U,74,76,Test,User,-,,Recall,Recall2,6996,"Kidney ",33.333333333333,2866,5018,0,0,,1
5ef9f69a00c39b7bcf432ec6,o8lcyz3eru,Nick_Dissertation_EX1,1,289,2020-07-08T15:29:52-07:00,23.327287912369,2,versionA_stim.csv,READVersionB.csv,"Read Version B","Dissertation, read only version B",SLEEP,DROWSY,Study1,B,41,33,Test,User,-,,Recall,Recall2,22506,Tired,18.181818181818,20528,21494,0,0,,1
5ef9f69a00c39b7bcf432ec6,o8lcyz3eru,Nick_Dissertation_EX1,1,290,2020-07-08T15:30:13-07:00,20.840870141983,2,versionA_stim.csv,READVersionB.csv,"Read Version B","Dissertation, read only version B",SOON,BELT,Study1,U,70,30,Test,User,-,,Recall,Recall2,20068,"Hurry ",0,16906,17588,0,0,,1
5ef9f69a00c39b7bcf432ec6,o8lcyz3eru,Nick_Dissertation_EX1,1,291,2020-07-08T15:30:22-07:00,8.6877238750458,2,versionA_stim.csv,READVersionB.csv,"Read Version B","Dissertation, read only version B",HUNGER,FAMINE,Study1,B,40,44,Test,User,-,,Recall,Recall2,8028,"Famine ",100,5033,6033,1,1,,1
5ef9f69a00c39b7bcf432ec6,o8lcyz3eru,Nick_Dissertation_EX1,1,292,2020-07-08T15:30:44-07:00,22.603965997696,2,versionA_stim.csv,READVersionB.csv,"Read Version B","Dissertation, read only version B",DIGESTION,STOMACH,Study1,F,7,49,Test,User,-,,Recall,Recall2,21806,"Stomach ",100,18308,19510,1,1,,1
5ef9f69a00c39b7bcf432ec6,o8lcyz3eru,Nick_Dissertation_EX1,1,293,2020-07-08T15:30:55-07:00,10.510818004608,2,versionA_stim.csv,READVersionB.csv,"Read Version B","Dissertation, read only version B",WORK,CHORE,Study1,B,39,52,Test,User,-,,Recall,Recall2,8839,Out,25,6840,7512,0,0,,1
5ef9f69a00c39b7bcf432ec6,o8lcyz3eru,Nick_Dissertation_EX1,1,294,2020-07-08T15:31:15-07:00,19.769243001938,2,versionA_stim.csv,READVersionB.csv,"Read Version B","Dissertation, read only version B",GREAT,FANTASTIC,Study1,B,35,78,Test,User,-,,Recall,Recall2,18894,"Fabulous ",35.294117647059,15879,16547,0,0,,1
5ef9f69a00c39b7bcf432ec6,o8lcyz3eru,Nick_Dissertation_EX1,1,295,2020-07-08T15:31:37-07:00,22.283393144608,2,versionA_stim.csv,READVersionB.csv,"Read Version B","Dissertation, read only version B",HERD,COW,Study1,F,22,11,Test,User,-,,Recall,Recall2,21489,Cow,100,8572,9289,1,1,,1
5ef9f69a00c39b7bcf432ec6,o8lcyz3eru,Nick_Dissertation_EX1,1,296,2020-07-08T15:31:43-07:00,6.0946929454803,2,versionA_stim.csv,READVersionB.csv,"Read Version B","Dissertation, read only version B",BABY,CHILD,Study1,S,64,68,Test,User,-,,Recall,Recall2,5401,Child,100,3406,4442,1,1,,1
5ef9f69a00c39b7bcf432ec6,o8lcyz3eru,Nick_Dissertation_EX1,1,297,2020-07-08T15:31:55-07:00,12.341648101807,2,versionA_stim.csv,READVersionB.csv,"Read Version B","Dissertation, read only version B",FIX,HAND,Study1,U,75,83,Test,User,-,,Recall,Recall2,11673,Screw,0,8092,10677,0,0,,1
5ef9f69a00c39b7bcf432ec6,o8lcyz3eru,Nick_Dissertation_EX1,1,298,2020-07-08T15:32:23-07:00,27.700478792191,2,versionA_stim.csv,READVersionB.csv,"Read Version B","Dissertation, read only version B",KIDNEY,LIVER,Study1,S,53,19,Test,User,-,,Recall,Recall2,26670,Flesh,40,24324,25572,0,0,,1
5ef9f69a00c39b7bcf432ec6,o8lcyz3eru,Nick_Dissertation_EX1,1,299,2020-07-08T15:32:43-07:00,19.470929145813,2,versionA_stim.csv,READVersionB.csv,"Read Version B","Dissertation, read only version B",SUGAR,RIDDLE,Study1,U,81,51,Test,User,-,,Recall,Recall2,18660,Tea,22.222222222222,6398,17731,0,0,,1
5ef9f69a00c39b7bcf432ec6,o8lcyz3eru,Nick_Dissertation_EX1,1,300,2020-07-08T15:33:00-07:00,17.470062017441,2,versionA_stim.csv,READVersionB.csv,"Read Version B","Dissertation, read only version B",PUSHER,CLUTTER,Study1,U,66,85,Test,User,-,,Recall,Recall2,15062,Angry,16.666666666667,12234,13801,0,0,,1
5ef9f69a00c39b7bcf432ec6,o8lcyz3eru,Nick_Dissertation_EX1,1,301,2020-07-08T15:33:13-07:00,13.15723490715,2,versionA_stim.csv,READVersionB.csv,"Read Version B","Dissertation, read only version B",FULL,ENOUGH,Study1,B,26,48,Test,User,-,,Recall,Recall2,12462,Enough,100,9417,10784,1,1,,1
5ef9f69a00c39b7bcf432ec6,o8lcyz3eru,Nick_Dissertation_EX1,1,302,2020-07-08T15:33:24-07:00,10.944520950317,2,versionA_stim.csv,READVersionB.csv,"Read Version B","Dissertation, read only version B",DISCUSSION,TALK,Study1,F,21,67,Test,User,-,,Recall,Recall2,10263,Talk,100,6483,9218,1,1,,1
5ef9f69a00c39b7bcf432ec6,o8lcyz3eru,Nick_Dissertation_EX1,1,303,2020-07-08T15:33:38-07:00,13.672238111496,2,versionA_stim.csv,READVersionB.csv,"Read Version B","Dissertation, read only version B",ROOT,PLANT,Study1,F,13,72,Test,User,-,,Recall,Recall2,12851,Plant,100,10037,11587,1,1,,1
5ef9f69a00c39b7bcf432ec6,o8lcyz3eru,Nick_Dissertation_EX1,1,304,2020-07-08T15:33:52-07:00,14.364480018616,2,versionA_stim.csv,READVersionB.csv,"Read Version B","Dissertation, read only version B",NUMBER,AMOUNT,Study1,S,47,71,Test,User,-,,Recall,Recall2,13588,"Account ",76.923076923077,10560,11679,0,1,,1
5ef9f69a00c39b7bcf432ec6,o8lcyz3eru,Nick_Dissertation_EX1,1,305,2020-07-08T15:34:00-07:00,7.8230090141296,2,versionA_stim.csv,READVersionB.csv,"Read Version B","Dissertation, read only version B",POP,SODA,Study1,S,56,7,Test,User,-,,Recall,Recall2,7107,Tart,25,5289,6024,0,0,,1
5ef9f69a00c39b7bcf432ec6,o8lcyz3eru,Nick_Dissertation_EX1,1,306,2020-07-08T15:34:13-07:00,13.116915941238,2,versionA_stim.csv,READVersionB.csv,"Read Version B","Dissertation, read only version B",PAST,FUTURE,Study1,S,61,29,Test,User,-,,Recall,Recall2,12283,Finnish,15.384615384615,9569,11176,0,0,,1
5ef9f69a00c39b7bcf432ec6,o8lcyz3eru,Nick_Dissertation_EX1,1,307,2020-07-08T15:34:19-07:00,5.5908908843994,2,versionA_stim.csv,READVersionB.csv,"Read Version B","Dissertation, read only version B",SWAN,BIRD,Study1,F,14,37,Test,User,-,,Recall,Recall2,4927,Bird,100,3114,3919,1,1,,1
5ef9f69a00c39b7bcf432ec6,o8lcyz3eru,Nick_Dissertation_EX1,1,308,2020-07-08T15:34:26-07:00,7.2837030887604,2,versionA_stim.csv,READVersionB.csv,"Read Version B","Dissertation, read only version B",WAY,OUT,Study1,F,16,47,Test,User,-,,Recall,Recall2,6031,Out,100,3649,4303,1,1,,1
5ef9f69a00c39b7bcf432ec6,o8lcyz3eru,Nick_Dissertation_EX1,1,309,2020-07-08T15:34:40-07:00,14.183332920074,2,versionA_stim.csv,READVersionB.csv,"Read Version B","Dissertation, read only version B",DEATH,BUSINESS,Study1,U,72,43,Test,User,-,,Recall,Recall2,13396,Final,30.769230769231,11217,12317,0,0,,1
5ef9f69a00c39b7bcf432ec6,o8lcyz3eru,Nick_Dissertation_EX1,1,310,2020-07-08T15:34:46-07:00,5.6906521320343,2,versionA_stim.csv,READVersionB.csv,"Read Version B","Dissertation, read only version B",CREDIT,CARD,Study1,F,23,86,Test,User,-,,Recall,Recall2,5045,Card,100,2482,3484,1,1,,1
5ef9f69a00c39b7bcf432ec6,o8lcyz3eru,Nick_Dissertation_EX1,1,311,2020-07-08T15:34:50-07:00,4.4601509571075,2,versionA_stim.csv,READVersionB.csv,"Read Version B","Dissertation, read only version B",BRIDGE,WATER,Study1,F,18,69,Test,User,-,,Recall,Recall2,3791,Water,100,2075,2841,1,1,,1
5ef9f69a00c39b7bcf432ec6,o8lcyz3eru,Nick_Dissertation_EX1,1,312,2020-07-08T15:35:03-07:00,12.709799051285,2,versionA_stim.csv,READVersionB.csv,"Read Version B","Dissertation, read only version B",ARCHITECTURE,DESIGN,Study1,S,51,75,Test,User,-,,Recall,Recall2,11881,"Design ",100,8803,9889,1,1,,1
5ef9f69a00c39b7bcf432ec6,o8lcyz3eru,Nick_Dissertation_EX1,1,313,2020-07-08T15:35:11-07:00,8.3711869716644,2,versionA_stim.csv,READVersionB.csv,"Read Version B","Dissertation, read only version B",SHOE,FOOT,Study1,S,60,20,Test,User,-,,Recall,Recall2,7716,Lace,0,3715,5034,0,0,,1
5ef9f69a00c39b7bcf432ec6,o8lcyz3eru,Nick_Dissertation_EX1,1,314,2020-07-08T15:35:22-07:00,10.127871990204,2,versionA_stim.csv,READVersionB.csv,"Read Version B","Dissertation, read only version B",TAKE,SEIZE,Study1,B,29,46,Test,User,-,,Recall,Recall2,9512,Grab,0,7615,8466,0,0,,1
5ef9f69a00c39b7bcf432ec6,o8lcyz3eru,Nick_Dissertation_EX1,1,315,2020-07-08T15:35:34-07:00,12.401248931885,2,versionA_stim.csv,READVersionB.csv,"Read Version B","Dissertation, read only version B",DIETARY,SACKING,Study1,U,67,28,Test,User,-,,Recall,Recall2,11769,"Requirements ",21.052631578947,4820,9592,0,0,,1
5ef9f69a00c39b7bcf432ec6,o8lcyz3eru,Nick_Dissertation_EX1,1,316,2020-07-08T15:35:44-07:00,10.171971082687,2,versionA_stim.csv,READVersionB.csv,"Read Version B","Dissertation, read only version B",CASH,WOULD,Study1,U,83,31,Test,User,-,,Recall,Recall2,9526,"Money ",20,6912,7781,0,0,,1
5ef9f69a00c39b7bcf432ec6,o8lcyz3eru,Nick_Dissertation_EX1,1,317,2020-07-08T15:35:48-07:00,4.0993599891663,2,versionA_stim.csv,READVersionB.csv,"Read Version B","Dissertation, read only version B",HONEY,BEE,Study1,S,63,39,Test,User,-,,Recall,Recall2,3462,Bee,100,1982,2416,1,1,,1
5ef9f69a00c39b7bcf432ec6,o8lcyz3eru,Nick_Dissertation_EX1,1,318,2020-07-08T15:36:05-07:00,16.534478902817,2,versionA_stim.csv,READVersionB.csv,"Read Version B","Dissertation, read only version B",WAGE,MONEY,Study1,F,8,36,Test,User,-,,Recall,Recall2,15896,"Money ",100,13183,14051,1,1,,1
5ef9f69a00c39b7bcf432ec6,o8lcyz3eru,Nick_Dissertation_EX1,1,319,2020-07-08T15:36:13-07:00,8.5101821422577,2,versionA_stim.csv,READVersionB.csv,"Read Version B","Dissertation, read only version B",LAW,ATTORNEY,Study1,B,34,35,Test,User,-,,Recall,Recall2,7887,Order,46.153846153846,5360,6311,0,0,,1
5ef9f69a00c39b7bcf432ec6,o8lcyz3eru,Nick_Dissertation_EX1,1,320,2020-07-08T15:36:29-07:00,16.163950920105,2,versionA_stim.csv,READVersionB.csv,"Read Version B","Dissertation, read only version B",CIRCLE,ROUND,Study1,S,65,57,Test,User,-,,Recall,Recall2,15379,Square,18.181818181818,10031,12468,0,0,,1
5ef9f69a00c39b7bcf432ec6,o8lcyz3eru,Nick_Dissertation_EX1,1,321,2020-07-08T15:36:43-07:00,14.053094148636,2,versionA_stim.csv,READVersionB.csv,"Read Version B","Dissertation, read only version B",BALL,RACKET,Study1,B,38,18,Test,User,-,,Recall,Recall2,13259,Racket,100,10309,11680,1,1,,1
5ef9f69a00c39b7bcf432ec6,o8lcyz3eru,Nick_Dissertation_EX1,1,322,2020-07-08T15:36:50-07:00,6.0909178256989,2,versionA_stim.csv,READVersionB.csv,"Read Version B","Dissertation, read only version B",DISCOVER,FLOOR,Study1,U,71,38,Test,User,-,,Recall,Recall2,5407,Find,22.222222222222,3277,4145,0,0,,1
5ef9f69a00c39b7bcf432ec6,o8lcyz3eru,Nick_Dissertation_EX1,1,323,2020-07-08T15:37:22-07:00,32.103410959244,2,versionA_stim.csv,READVersionB.csv,"Read Version B","Dissertation, read only version B",BATHROOM,TOILET,Study1,S,58,10,Test,User,-,,Recall,Recall2,31336,Toilet,100,2518,3853,1,1,,1
5ef9f69a00c39b7bcf432ec6,o8lcyz3eru,Nick_Dissertation_EX1,1,324,2020-07-08T15:37:35-07:00,12.856103181839,2,versionA_stim.csv,READVersionB.csv,"Read Version B","Dissertation, read only version B",HORNET,STING,Study1,F,11,24,Test,User,-,,Recall,Recall2,12095,Wasp,22.222222222222,6583,11151,0,0,,1
5ef9f69a00c39b7bcf432ec6,o8lcyz3eru,Nick_Dissertation_EX1,1,325,2020-07-08T15:37:51-07:00,16.578236818314,2,versionA_stim.csv,READVersionB.csv,"Read Version B","Dissertation, read only version B",HOT,CHILI,Study1,B,37,58,Test,User,-,,Recall,Recall2,15785,Chilli,90.909090909091,2441,13976,0,1,,1
5ef9f69a00c39b7bcf432ec6,o8lcyz3eru,Nick_Dissertation_EX1,1,326,2020-07-08T15:38:01-07:00,9.4266910552979,2,versionA_stim.csv,READVersionB.csv,"Read Version B","Dissertation, read only version B",CLOTHES,ATTIRE,Study1,B,43,50,Test,User,-,,Recall,Recall2,8766,Material,42.857142857143,5671,7638,0,0,,1
5ef9f69a00c39b7bcf432ec6,o8lcyz3eru,Nick_Dissertation_EX1,1,327,2020-07-08T15:38:11-07:00,10.707101106644,2,versionA_stim.csv,READVersionB.csv,"Read Version B","Dissertation, read only version B",PARK,HUNGRY,Study1,U,68,23,Test,User,-,,Recall,Recall2,10050,Car,22.222222222222,3754,4237,0,0,,1
5ef9f69a00c39b7bcf432ec6,o8lcyz3eru,Nick_Dissertation_EX1,1,328,2020-07-08T15:38:20-07:00,8.5701599121094,2,versionA_stim.csv,READVersionB.csv,"Read Version B","Dissertation, read only version B",BUG,WASP,Study1,B,32,64,Test,User,-,,Recall,Recall2,7932,Wasp,100,2419,3288,1,1,,1
5ef9f69a00c39b7bcf432ec6,o8lcyz3eru,Nick_Dissertation_EX1,1,329,2020-07-08T15:38:25-07:00,5.1514360904694,2,versionA_stim.csv,READVersionB.csv,"Read Version B","Dissertation, read only version B",TUNA,FISH,Study1,F,25,61,Test,User,-,,Recall,Recall2,4477,Fish,100,2397,3429,1,1,,1
5ef9f69a00c39b7bcf432ec6,o8lcyz3eru,Nick_Dissertation_EX1,1,330,2020-07-08T15:38:44-07:00,18.573987007141,2,versionA_stim.csv,READVersionB.csv,"Read Version B","Dissertation, read only version B",SENTENCE,WORD,Study1,B,31,70,Test,User,-,,Recall,Recall2,17859,Literature,14.285714285714,7129,10629,0,0,,1
5ef9f69a00c39b7bcf432ec6,o8lcyz3eru,Nick_Dissertation_EX1,1,331,2020-07-08T15:39:02-07:00,18.328956842422,2,versionA_stim.csv,READVersionB.csv,"Read Version B","Dissertation, read only version B",MATH,DIVISION,Study1,B,33,84,Test,User,-,,Recall,Recall2,17528,Numbers,13.333333333333,2873,4309,0,0,,1
5ef9f69a00c39b7bcf432ec6,o8lcyz3eru,Nick_Dissertation_EX1,1,332,2020-07-08T15:39:08-07:00,5.9956130981445,2,versionA_stim.csv,READVersionB.csv,"Read Version B","Dissertation, read only version B",GEOLOGY,ROCK,Study1,F,19,81,Test,User,-,,Recall,Recall2,5344,Rock,100,3310,4365,1,1,,1
5ef9f69a00c39b7bcf432ec6,o8lcyz3eru,Nick_Dissertation_EX1,1,333,2020-07-08T15:39:22-07:00,14.0140209198,2,versionA_stim.csv,READVersionB.csv,"Read Version B","Dissertation, read only version B",PLANE,PILOT,Study1,B,44,13,Test,User,-,,Recall,Recall2,13243,Pilot,100,3776,7363,1,1,,1
5ef9f69a00c39b7bcf432ec6,o8lcyz3eru,Nick_Dissertation_EX1,1,334,2020-07-08T15:39:39-07:00,16.741770029068,2,versionA_stim.csv,READVersionB.csv,"Read Version B","Dissertation, read only version B",HEIGHT,GROWTH,Study1,B,30,65,Test,User,-,,Recall,Recall2,15926,Width,54.545454545455,8171,14247,0,0,,1
5ef9f69a00c39b7bcf432ec6,o8lcyz3eru,Nick_Dissertation_EX1,1,335,2020-07-08T15:39:55-07:00,16.025067090988,2,versionA_stim.csv,READVersionB.csv,"Read Version B","Dissertation, read only version B",MEANING,DEFINITION,Study1,S,62,34,Test,User,-,,Recall,Recall2,15254,"Definition ",100,3373,13227,1,1,,1
5ef9f69a00c39b7bcf432ec6,o8lcyz3eru,Nick_Dissertation_EX1,1,336,2020-07-08T15:40:12-07:00,17.850688934326,2,versionA_stim.csv,READVersionB.csv,"Read Version B","Dissertation, read only version B",DRINK,SIP,Study1,B,27,12,Test,User,-,,Recall,Recall2,17031,"Hydration ",16.666666666667,13371,14588,0,0,,1
5ef9f69a00c39b7bcf432ec6,o8lcyz3eru,Nick_Dissertation_EX1,1,337,2020-07-08T15:40:24-07:00,11.261038064957,2,versionA_stim.csv,READVersionB.csv,"Read Version B","Dissertation, read only version B",DUE,ASSIGNMENT,Study1,S,46,55,Test,User,-,,Recall,Recall2,10583,Birth,26.666666666667,4421,9341,0,0,,1
5ef9f69a00c39b7bcf432ec6,o8lcyz3eru,Nick_Dissertation_EX1,1,338,2020-07-08T15:40:32-07:00,8.0065689086914,2,versionA_stim.csv,READVersionB.csv,"Read Version B","Dissertation, read only version B",GRILL,BAR,Study1,S,52,32,Test,User,-,,Recall,Recall2,7326,Bar,100,5215,5830,1,1,,1
5ef9f69a00c39b7bcf432ec6,o8lcyz3eru,Nick_Dissertation_EX1,1,339,2020-07-08T15:40:40-07:00,8.7197690010071,2,versionA_stim.csv,READVersionB.csv,"Read Version B","Dissertation, read only version B",ORCHID,FLOWER,Study1,F,24,63,Test,User,-,,Recall,Recall2,8004,Flower,100,2809,5642,1,1,,1
5ef9f69a00c39b7bcf432ec6,o8lcyz3eru,Nick_Dissertation_EX1,1,340,2020-07-08T15:40:49-07:00,8.0789089202881,2,versionA_stim.csv,READVersionB.csv,"Read Version B","Dissertation, read only version B",DEBATE,SIGHT,Study1,U,73,17,Test,User,-,,Recall,Recall2,7391,Team,22.222222222222,5427,6245,0,0,,1
5ef9f69a00c39b7bcf432ec6,o8lcyz3eru,Nick_Dissertation_EX1,1,341,2020-07-08T15:40:59-07:00,10.699347019196,2,versionA_stim.csv,READVersionB.csv,"Read Version B","Dissertation, read only version B",MACHINE,POSITION,Study1,U,76,15,Test,User,-,,Recall,Recall2,9989,Vending,13.333333333333,6945,8629,0,0,,1
5ef9f69a00c39b7bcf432ec6,o8lcyz3eru,Nick_Dissertation_EX1,1,342,2020-07-08T15:41:10-07:00,10.8208091259,2,versionA_stim.csv,READVersionB.csv,"Read Version B","Dissertation, read only version B",DUMP,WASTE,Study1,S,49,26,Test,User,-,,Recall,Recall2,10125,Waste,100,7479,9096,1,1,,1
5ef9f69a00c39b7bcf432ec6,o8lcyz3eru,Nick_Dissertation_EX1,1,343,2020-07-08T15:41:17-07:00,6.9718918800354,2,versionA_stim.csv,READVersionB.csv,"Read Version B","Dissertation, read only version B",VALLEY,ADD,Study1,U,82,27,Test,User,-,,Recall,Recall2,6297,Hills,0,3869,4887,0,0,,1
5ef9f69a00c39b7bcf432ec6,o8lcyz3eru,Nick_Dissertation_EX1,1,344,2020-07-08T15:41:24-07:00,6.9112951755524,2,versionA_stim.csv,READVersionB.csv,"Read Version B","Dissertation, read only version B",TRIAL,JURY,Study1,S,50,66,Test,User,-,,Recall,Recall2,6241,"Jury ",100,3410,4342,1,1,,1
5ef9f69a00c39b7bcf432ec6,o8lcyz3eru,Nick_Dissertation_EX1,1,345,2020-07-08T15:41:32-07:00,7.7294218540192,2,versionA_stim.csv,READVersionB.csv,"Read Version B","Dissertation, read only version B",DELINQUENT,BAD,Study1,F,6,21,Test,User,-,,Recall,Recall2,6951,Bad,100,2471,6091,1,1,,1
