Username,ID,ExperimentName,Session,Trial,Date,TimeDif,"Condition Number","Stimuli File","Order File","Condition Description","Condition Notes",Stimuli*Cue,Stimuli*Answer,Stimuli*Shuffle,"Stimuli*Stimuli Notes",Stimuli*Value,Procedure*Item,"Procedure*Trial Type","Procedure*Max Time","Procedure*Min Time",Procedure*Text,"Procedure*Procedure Notes",Procedure*Shuffle,Response*RT,Response*Response,Response*Accuracy,Response*RTfirst,Response*RTlast,Response*strictAcc,Response*lenientAcc,Response*focus,Response*Focus
5d35989e71b4880017d5cc81,qvs8jvjjqt,Nick_Dissertation_EX1,1,1,2020-07-08T14:50:19-07:00,11.937602996826,4,versionC_stim.csv,READVersionD.csv,"Read Version D","Dissertation, read only version D",,,,,,0,Instruct,-,10,"Please study each of the following word pairs. Remember that your memory will be tested! When finished, press Enter to move to the next pair.",Initial_Instruct,Instruct1,11662,,,-1,-1,,,,1
5d35989e71b4880017d5cc81,qvs8jvjjqt,Nick_Dissertation_EX1,1,2,2020-07-08T14:50:23-07:00,3.7387709617615,4,versionC_stim.csv,READVersionD.csv,"Read Version D","Dissertation, read only version D",STRING,NOODLE,BUFFER3,Buffer,92,93,Study,User,-,,Study/JOL,BUFFER,3296,,,-1,-1,,,,1
5d35989e71b4880017d5cc81,qvs8jvjjqt,Nick_Dissertation_EX1,1,3,2020-07-08T14:50:26-07:00,3.0727889537811,4,versionC_stim.csv,READVersionD.csv,"Read Version D","Dissertation, read only version D",ADVENTURE,CAMP,BUFFER3,Buffer,95,92,Study,User,-,,Study/JOL,BUFFER,2651,,,-1,-1,,,,1
5d35989e71b4880017d5cc81,qvs8jvjjqt,Nick_Dissertation_EX1,1,4,2020-07-08T14:50:28-07:00,2.4245409965515,4,versionC_stim.csv,READVersionD.csv,"Read Version D","Dissertation, read only version D",FROZEN,ICE,BUFFER3,Buffer,94,95,Study,User,-,,Study/JOL,BUFFER,1972,,,-1,-1,,,,1
5d35989e71b4880017d5cc81,qvs8jvjjqt,Nick_Dissertation_EX1,1,5,2020-07-08T14:50:36-07:00,7.7282419204712,4,versionC_stim.csv,READVersionD.csv,"Read Version D","Dissertation, read only version D",POTATO,CARROT,BUFFER3,Buffer,91,96,Study,User,-,,Study/JOL,BUFFER,7270,,,-1,-1,,,,1
5d35989e71b4880017d5cc81,qvs8jvjjqt,Nick_Dissertation_EX1,1,6,2020-07-08T14:50:40-07:00,4.034698009491,4,versionC_stim.csv,READVersionD.csv,"Read Version D","Dissertation, read only version D",FISH,SHRIMP,BUFFER3,Buffer,93,94,Study,User,-,,Study/JOL,BUFFER,3606,,,-1,-1,,,,1
5d35989e71b4880017d5cc81,qvs8jvjjqt,Nick_Dissertation_EX1,1,7,2020-07-08T14:50:44-07:00,3.8139820098877,4,versionC_stim.csv,READVersionD.csv,"Read Version D","Dissertation, read only version D",OBTAIN,MEAT,Study2,U,161,103,Study,User,-,,Study/JOL,"Study Phase",3378,,,-1,-1,,,,1
5d35989e71b4880017d5cc81,qvs8jvjjqt,Nick_Dissertation_EX1,1,8,2020-07-08T14:50:46-07:00,2.0217981338501,4,versionC_stim.csv,READVersionD.csv,"Read Version D","Dissertation, read only version D",HAVE,OWN,Study2,S,153,130,Study,User,-,,Study/JOL,"Study Phase",1599,,,-1,-1,,,,1
5d35989e71b4880017d5cc81,qvs8jvjjqt,Nick_Dissertation_EX1,1,9,2020-07-08T14:50:49-07:00,3.5993988513947,4,versionC_stim.csv,READVersionD.csv,"Read Version D","Dissertation, read only version D",GAME,CLUE,Study2,B,97,120,Study,User,-,,Study/JOL,"Study Phase",2172,,,-1,-1,,,,1
5d35989e71b4880017d5cc81,qvs8jvjjqt,Nick_Dissertation_EX1,1,10,2020-07-08T14:50:52-07:00,2.382187128067,4,versionC_stim.csv,READVersionD.csv,"Read Version D","Dissertation, read only version D",CUT,CHOP,Study2,B,107,145,Study,User,-,,Study/JOL,"Study Phase",1771,,,-1,-1,,,,1
5d35989e71b4880017d5cc81,qvs8jvjjqt,Nick_Dissertation_EX1,1,11,2020-07-08T14:50:54-07:00,2.4398469924927,4,versionC_stim.csv,READVersionD.csv,"Read Version D","Dissertation, read only version D",PAPER,DOCUMENT,Study2,B,109,169,Study,User,-,,Study/JOL,"Study Phase",1932,,,-1,-1,,,,1
5d35989e71b4880017d5cc81,qvs8jvjjqt,Nick_Dissertation_EX1,1,12,2020-07-08T14:50:56-07:00,1.6402640342712,4,versionC_stim.csv,READVersionD.csv,"Read Version D","Dissertation, read only version D",JAR,MASON,Study2,S,138,124,Study,User,-,,Study/JOL,"Study Phase",1190,,,-1,-1,,,,1
5d35989e71b4880017d5cc81,qvs8jvjjqt,Nick_Dissertation_EX1,1,13,2020-07-08T14:50:57-07:00,1.4788539409637,4,versionC_stim.csv,READVersionD.csv,"Read Version D","Dissertation, read only version D",SHAKE,Shell,Study2,U,163,132,Study,User,-,,Study/JOL,"Study Phase",1035,,,-1,-1,,,,1
5d35989e71b4880017d5cc81,qvs8jvjjqt,Nick_Dissertation_EX1,1,14,2020-07-08T14:50:59-07:00,2.3085451126099,4,versionC_stim.csv,READVersionD.csv,"Read Version D","Dissertation, read only version D",CLOTH,STRETCH,Study2,U,157,161,Study,User,-,,Study/JOL,"Study Phase",1778,,,-1,-1,,,,1
5d35989e71b4880017d5cc81,qvs8jvjjqt,Nick_Dissertation_EX1,1,15,2020-07-08T14:51:01-07:00,1.9539959430695,4,versionC_stim.csv,READVersionD.csv,"Read Version D","Dissertation, read only version D",BANKER,MONEY,Study2,F,132,129,Study,User,-,,Study/JOL,"Study Phase",1515,,,-1,-1,,,,1
5d35989e71b4880017d5cc81,qvs8jvjjqt,Nick_Dissertation_EX1,1,16,2020-07-08T14:51:03-07:00,1.8734629154205,4,versionC_stim.csv,READVersionD.csv,"Read Version D","Dissertation, read only version D",GROUND,EARTH,Study2,S,144,146,Study,User,-,,Study/JOL,"Study Phase",1436,,,-1,-1,,,,1
5d35989e71b4880017d5cc81,qvs8jvjjqt,Nick_Dissertation_EX1,1,17,2020-07-08T14:51:05-07:00,1.7976620197296,4,versionC_stim.csv,READVersionD.csv,"Read Version D","Dissertation, read only version D",SARDINE,FISH,Study2,F,130,110,Study,User,-,,Study/JOL,"Study Phase",1294,,,-1,-1,,,,1
5d35989e71b4880017d5cc81,qvs8jvjjqt,Nick_Dissertation_EX1,1,18,2020-07-08T14:51:07-07:00,1.78755402565,4,versionC_stim.csv,READVersionD.csv,"Read Version D","Dissertation, read only version D",CHILDREN,MIRROR,Study2,U,174,162,Study,User,-,,Study/JOL,"Study Phase",1362,,,-1,-1,,,,1
5d35989e71b4880017d5cc81,qvs8jvjjqt,Nick_Dissertation_EX1,1,19,2020-07-08T14:51:08-07:00,1.5693759918213,4,versionC_stim.csv,READVersionD.csv,"Read Version D","Dissertation, read only version D",DOG,FURRY,Study2,B,102,119,Study,User,-,,Study/JOL,"Study Phase",1112,,,-1,-1,,,,1
5d35989e71b4880017d5cc81,qvs8jvjjqt,Nick_Dissertation_EX1,1,20,2020-07-08T14:51:10-07:00,1.463723897934,4,versionC_stim.csv,READVersionD.csv,"Read Version D","Dissertation, read only version D",HATE,NAME,Study2,U,167,165,Study,User,-,,Study/JOL,"Study Phase",1039,,,-1,-1,,,,1
5d35989e71b4880017d5cc81,qvs8jvjjqt,Nick_Dissertation_EX1,1,21,2020-07-08T14:51:11-07:00,1.5261201858521,4,versionC_stim.csv,READVersionD.csv,"Read Version D","Dissertation, read only version D",SCAR,MAIN,Study2,U,175,166,Study,User,-,,Study/JOL,"Study Phase",1005,,,-1,-1,,,,1
5d35989e71b4880017d5cc81,qvs8jvjjqt,Nick_Dissertation_EX1,1,22,2020-07-08T14:51:13-07:00,1.5185179710388,4,versionC_stim.csv,READVersionD.csv,"Read Version D","Dissertation, read only version D",AWAY,GONE,Study2,S,142,153,Study,User,-,,Study/JOL,"Study Phase",1106,,,-1,-1,,,,1
5d35989e71b4880017d5cc81,qvs8jvjjqt,Nick_Dissertation_EX1,1,23,2020-07-08T14:51:14-07:00,1.3370628356934,4,versionC_stim.csv,READVersionD.csv,"Read Version D","Dissertation, read only version D",RED,CHERRY,Study2,B,104,174,Study,User,-,,Study/JOL,"Study Phase",849,,,-1,-1,,,,1
5d35989e71b4880017d5cc81,qvs8jvjjqt,Nick_Dissertation_EX1,1,24,2020-07-08T14:51:16-07:00,1.6620171070099,4,versionC_stim.csv,READVersionD.csv,"Read Version D","Dissertation, read only version D",MAROON,JUSTICE,Study2,U,156,125,Study,User,-,,Study/JOL,"Study Phase",1178,,,-1,-1,,,,1
5d35989e71b4880017d5cc81,qvs8jvjjqt,Nick_Dissertation_EX1,1,25,2020-07-08T14:51:17-07:00,1.3239779472351,4,versionC_stim.csv,READVersionD.csv,"Read Version D","Dissertation, read only version D",CLEAR,MOAT,Study2,U,169,128,Study,User,-,,Study/JOL,"Study Phase",889,,,-1,-1,,,,1
5d35989e71b4880017d5cc81,qvs8jvjjqt,Nick_Dissertation_EX1,1,26,2020-07-08T14:51:19-07:00,1.4169890880585,4,versionC_stim.csv,READVersionD.csv,"Read Version D","Dissertation, read only version D",FIGHT,FEUD,Study2,B,113,133,Study,User,-,,Study/JOL,"Study Phase",930,,,-1,-1,,,,1
5d35989e71b4880017d5cc81,qvs8jvjjqt,Nick_Dissertation_EX1,1,27,2020-07-08T14:51:22-07:00,3.1990940570831,4,versionC_stim.csv,READVersionD.csv,"Read Version D","Dissertation, read only version D",FAVORITE,BEST,Study2,F,125,104,Study,User,-,,Study/JOL,"Study Phase",2710,,,-1,-1,,,,1
5d35989e71b4880017d5cc81,qvs8jvjjqt,Nick_Dissertation_EX1,1,28,2020-07-08T14:51:24-07:00,1.6478388309479,4,versionC_stim.csv,READVersionD.csv,"Read Version D","Dissertation, read only version D",CHARM,VEHICLE,Study2,U,160,102,Study,User,-,,Study/JOL,"Study Phase",1221,,,-1,-1,,,,1
5d35989e71b4880017d5cc81,qvs8jvjjqt,Nick_Dissertation_EX1,1,29,2020-07-08T14:51:25-07:00,1.5616240501404,4,versionC_stim.csv,READVersionD.csv,"Read Version D","Dissertation, read only version D",WET,DRY,Study2,S,146,176,Study,User,-,,Study/JOL,"Study Phase",1120,,,-1,-1,,,,1
5d35989e71b4880017d5cc81,qvs8jvjjqt,Nick_Dissertation_EX1,1,30,2020-07-08T14:51:27-07:00,1.8245809078217,4,versionC_stim.csv,READVersionD.csv,"Read Version D","Dissertation, read only version D",REVENGE,EVEN,Study2,F,122,163,Study,User,-,,Study/JOL,"Study Phase",1255,,,-1,-1,,,,1
5d35989e71b4880017d5cc81,qvs8jvjjqt,Nick_Dissertation_EX1,1,31,2020-07-08T14:51:29-07:00,1.7842681407928,4,versionC_stim.csv,READVersionD.csv,"Read Version D","Dissertation, read only version D",VILLAIN,BAD,Study2,F,118,111,Study,User,-,,Study/JOL,"Study Phase",1330,,,-1,-1,,,,1
5d35989e71b4880017d5cc81,qvs8jvjjqt,Nick_Dissertation_EX1,1,32,2020-07-08T14:51:30-07:00,1.6031670570374,4,versionC_stim.csv,READVersionD.csv,"Read Version D","Dissertation, read only version D",BRAWL,FIGHT,Study2,F,135,126,Study,User,-,,Study/JOL,"Study Phase",1177,,,-1,-1,,,,1
5d35989e71b4880017d5cc81,qvs8jvjjqt,Nick_Dissertation_EX1,1,33,2020-07-08T14:51:32-07:00,1.6062028408051,4,versionC_stim.csv,READVersionD.csv,"Read Version D","Dissertation, read only version D",DONKEY,MULE,Study2,B,108,159,Study,User,-,,Study/JOL,"Study Phase",1159,,,-1,-1,,,,1
5d35989e71b4880017d5cc81,qvs8jvjjqt,Nick_Dissertation_EX1,1,34,2020-07-08T14:51:34-07:00,1.9389410018921,4,versionC_stim.csv,READVersionD.csv,"Read Version D","Dissertation, read only version D",TEMPER,TANTRUM,Study2,S,154,135,Study,User,-,,Study/JOL,"Study Phase",1478,,,-1,-1,,,,1
5d35989e71b4880017d5cc81,qvs8jvjjqt,Nick_Dissertation_EX1,1,35,2020-07-08T14:51:36-07:00,1.9089319705963,4,versionC_stim.csv,READVersionD.csv,"Read Version D","Dissertation, read only version D",COFFIN,DEAD,Study2,F,128,121,Study,User,-,,Study/JOL,"Study Phase",1416,,,-1,-1,,,,1
5d35989e71b4880017d5cc81,qvs8jvjjqt,Nick_Dissertation_EX1,1,36,2020-07-08T14:51:38-07:00,1.8918981552124,4,versionC_stim.csv,READVersionD.csv,"Read Version D","Dissertation, read only version D",TRASH,LITTER,Study2,B,103,157,Study,User,-,,Study/JOL,"Study Phase",1461,,,-1,-1,,,,1
5d35989e71b4880017d5cc81,qvs8jvjjqt,Nick_Dissertation_EX1,1,37,2020-07-08T14:51:40-07:00,2.0386679172516,4,versionC_stim.csv,READVersionD.csv,"Read Version D","Dissertation, read only version D",Morning,TEMPERATURE,Study2,U,173,147,Study,User,-,,Study/JOL,"Study Phase",1578,,,-1,-1,,,,1
5d35989e71b4880017d5cc81,qvs8jvjjqt,Nick_Dissertation_EX1,1,38,2020-07-08T14:51:42-07:00,1.8276059627533,4,versionC_stim.csv,READVersionD.csv,"Read Version D","Dissertation, read only version D",SMELL,INCENSE,Study2,B,110,156,Study,User,-,,Study/JOL,"Study Phase",1417,,,-1,-1,,,,1
5d35989e71b4880017d5cc81,qvs8jvjjqt,Nick_Dissertation_EX1,1,39,2020-07-08T14:51:43-07:00,1.6011250019073,4,versionC_stim.csv,READVersionD.csv,"Read Version D","Dissertation, read only version D",TAN,SUN,Study2,S,155,172,Study,User,-,,Study/JOL,"Study Phase",1175,,,-1,-1,,,,1
5d35989e71b4880017d5cc81,qvs8jvjjqt,Nick_Dissertation_EX1,1,40,2020-07-08T14:51:45-07:00,1.4118120670319,4,versionC_stim.csv,READVersionD.csv,"Read Version D","Dissertation, read only version D",REEL,ROD,Study2,S,150,97,Study,User,-,,Study/JOL,"Study Phase",978,,,-1,-1,,,,1
5d35989e71b4880017d5cc81,qvs8jvjjqt,Nick_Dissertation_EX1,1,41,2020-07-08T14:51:46-07:00,1.4618029594421,4,versionC_stim.csv,READVersionD.csv,"Read Version D","Dissertation, read only version D",SEATBELT,SAFETY,Study2,S,147,160,Study,User,-,,Study/JOL,"Study Phase",924,,,-1,-1,,,,1
5d35989e71b4880017d5cc81,qvs8jvjjqt,Nick_Dissertation_EX1,1,42,2020-07-08T14:51:48-07:00,2.0873670578003,4,versionC_stim.csv,READVersionD.csv,"Read Version D","Dissertation, read only version D",SIGN,LOAN,Study2,U,171,117,Study,User,-,,Study/JOL,"Study Phase",1183,,,-1,-1,,,,1
5d35989e71b4880017d5cc81,qvs8jvjjqt,Nick_Dissertation_EX1,1,43,2020-07-08T14:51:49-07:00,1.2774119377136,4,versionC_stim.csv,READVersionD.csv,"Read Version D","Dissertation, read only version D",WAX,CANDLE,Study2,S,139,168,Study,User,-,,Study/JOL,"Study Phase",874,,,-1,-1,,,,1
5d35989e71b4880017d5cc81,qvs8jvjjqt,Nick_Dissertation_EX1,1,44,2020-07-08T14:51:51-07:00,1.5432319641113,4,versionC_stim.csv,READVersionD.csv,"Read Version D","Dissertation, read only version D",BRACELET,WRIST,Study2,S,140,136,Study,User,-,,Study/JOL,"Study Phase",1056,,,-1,-1,,,,1
5d35989e71b4880017d5cc81,qvs8jvjjqt,Nick_Dissertation_EX1,1,45,2020-07-08T14:51:52-07:00,1.461109161377,4,versionC_stim.csv,READVersionD.csv,"Read Version D","Dissertation, read only version D",COMMUNICATION,PHONE,Study2,S,149,109,Study,User,-,,Study/JOL,"Study Phase",1036,,,-1,-1,,,,1
5d35989e71b4880017d5cc81,qvs8jvjjqt,Nick_Dissertation_EX1,1,46,2020-07-08T14:51:54-07:00,1.3735558986664,4,versionC_stim.csv,READVersionD.csv,"Read Version D","Dissertation, read only version D",BALLOON,POP,Study2,F,123,99,Study,User,-,,Study/JOL,"Study Phase",827,,,-1,-1,,,,1
5d35989e71b4880017d5cc81,qvs8jvjjqt,Nick_Dissertation_EX1,1,47,2020-07-08T14:51:55-07:00,1.2021799087524,4,versionC_stim.csv,READVersionD.csv,"Read Version D","Dissertation, read only version D",ABLE,CRACKLE,Study2,U,162,164,Study,User,-,,Study/JOL,"Study Phase",768,,,-1,-1,,,,1
5d35989e71b4880017d5cc81,qvs8jvjjqt,Nick_Dissertation_EX1,1,48,2020-07-08T14:51:56-07:00,1.4945111274719,4,versionC_stim.csv,READVersionD.csv,"Read Version D","Dissertation, read only version D",TICK,FLEA,Study2,S,151,152,Study,User,-,,Study/JOL,"Study Phase",841,,,-1,-1,,,,1
5d35989e71b4880017d5cc81,qvs8jvjjqt,Nick_Dissertation_EX1,1,49,2020-07-08T14:51:58-07:00,1.2021350860596,4,versionC_stim.csv,READVersionD.csv,"Read Version D","Dissertation, read only version D",ACTRESS,STAR,Study2,F,120,107,Study,User,-,,Study/JOL,"Study Phase",728,,,-1,-1,,,,1
5d35989e71b4880017d5cc81,qvs8jvjjqt,Nick_Dissertation_EX1,1,50,2020-07-08T14:51:59-07:00,1.3878128528595,4,versionC_stim.csv,READVersionD.csv,"Read Version D","Dissertation, read only version D",AIRCRAFT,PLANE,Study2,F,129,115,Study,User,-,,Study/JOL,"Study Phase",859,,,-1,-1,,,,1
5d35989e71b4880017d5cc81,qvs8jvjjqt,Nick_Dissertation_EX1,1,51,2020-07-08T14:52:00-07:00,1.327024936676,4,versionC_stim.csv,READVersionD.csv,"Read Version D","Dissertation, read only version D",PLANT,CACTUS,Study2,B,98,122,Study,User,-,,Study/JOL,"Study Phase",915,,,-1,-1,,,,1
5d35989e71b4880017d5cc81,qvs8jvjjqt,Nick_Dissertation_EX1,1,52,2020-07-08T14:52:02-07:00,1.8431541919708,4,versionC_stim.csv,READVersionD.csv,"Read Version D","Dissertation, read only version D",EQUAL,RIGHTS,Study2,S,137,137,Study,User,-,,Study/JOL,"Study Phase",1346,,,-1,-1,,,,1
5d35989e71b4880017d5cc81,qvs8jvjjqt,Nick_Dissertation_EX1,1,53,2020-07-08T14:52:04-07:00,1.364275932312,4,versionC_stim.csv,READVersionD.csv,"Read Version D","Dissertation, read only version D",HEAD,SCALP,Study2,B,105,134,Study,User,-,,Study/JOL,"Study Phase",936,,,-1,-1,,,,1
5d35989e71b4880017d5cc81,qvs8jvjjqt,Nick_Dissertation_EX1,1,54,2020-07-08T14:52:06-07:00,2.6985840797424,4,versionC_stim.csv,READVersionD.csv,"Read Version D","Dissertation, read only version D",COLD,CHILL,Study2,B,114,98,Study,User,-,,Study/JOL,"Study Phase",1119,,,-1,-1,,,,1
5d35989e71b4880017d5cc81,qvs8jvjjqt,Nick_Dissertation_EX1,1,55,2020-07-08T14:52:09-07:00,2.4680848121643,4,versionC_stim.csv,READVersionD.csv,"Read Version D","Dissertation, read only version D",LONG,EXTENSION,Study2,B,96,167,Study,User,-,,Study/JOL,"Study Phase",2044,,,-1,-1,,,,1
5d35989e71b4880017d5cc81,qvs8jvjjqt,Nick_Dissertation_EX1,1,56,2020-07-08T14:52:10-07:00,1.4110550880432,4,versionC_stim.csv,READVersionD.csv,"Read Version D","Dissertation, read only version D",LIE,TRUTH,Study2,S,148,140,Study,User,-,,Study/JOL,"Study Phase",982,,,-1,-1,,,,1
5d35989e71b4880017d5cc81,qvs8jvjjqt,Nick_Dissertation_EX1,1,57,2020-07-08T14:52:12-07:00,1.4709670543671,4,versionC_stim.csv,READVersionD.csv,"Read Version D","Dissertation, read only version D",MYSTERY,DETECTIVE,Study2,B,100,143,Study,User,-,,Study/JOL,"Study Phase",931,,,-1,-1,,,,1
5d35989e71b4880017d5cc81,qvs8jvjjqt,Nick_Dissertation_EX1,1,58,2020-07-08T14:52:13-07:00,1.3519659042358,4,versionC_stim.csv,READVersionD.csv,"Read Version D","Dissertation, read only version D",SHAVE,RAZOR,Study2,S,136,151,Study,User,-,,Study/JOL,"Study Phase",936,,,-1,-1,,,,1
5d35989e71b4880017d5cc81,qvs8jvjjqt,Nick_Dissertation_EX1,1,59,2020-07-08T14:52:14-07:00,1.2787430286407,4,versionC_stim.csv,READVersionD.csv,"Read Version D","Dissertation, read only version D",NAP,SLEEP,Study2,F,134,154,Study,User,-,,Study/JOL,"Study Phase",780,,,-1,-1,,,,1
5d35989e71b4880017d5cc81,qvs8jvjjqt,Nick_Dissertation_EX1,1,60,2020-07-08T14:52:16-07:00,1.2548069953918,4,versionC_stim.csv,READVersionD.csv,"Read Version D","Dissertation, read only version D",WINDSHIELD,CAR,Study2,F,117,100,Study,User,-,,Study/JOL,"Study Phase",834,,,-1,-1,,,,1
5d35989e71b4880017d5cc81,qvs8jvjjqt,Nick_Dissertation_EX1,1,61,2020-07-08T14:52:18-07:00,2.1213400363922,4,versionC_stim.csv,READVersionD.csv,"Read Version D","Dissertation, read only version D",CLOTHES,CAKE,Study2,U,166,149,Study,User,-,,Study/JOL,"Study Phase",1657,,,-1,-1,,,,1
5d35989e71b4880017d5cc81,qvs8jvjjqt,Nick_Dissertation_EX1,1,62,2020-07-08T14:52:19-07:00,1.5675930976868,4,versionC_stim.csv,READVersionD.csv,"Read Version D","Dissertation, read only version D",TIE,SHOELACE,Study2,B,99,105,Study,User,-,,Study/JOL,"Study Phase",1098,,,-1,-1,,,,1
5d35989e71b4880017d5cc81,qvs8jvjjqt,Nick_Dissertation_EX1,1,63,2020-07-08T14:52:22-07:00,3.0286319255829,4,versionC_stim.csv,READVersionD.csv,"Read Version D","Dissertation, read only version D",SCISSORS,SHEARS,Study2,B,112,114,Study,User,-,,Study/JOL,"Study Phase",2582,,,-1,-1,,,,1
5d35989e71b4880017d5cc81,qvs8jvjjqt,Nick_Dissertation_EX1,1,64,2020-07-08T14:52:24-07:00,1.5911300182343,4,versionC_stim.csv,READVersionD.csv,"Read Version D","Dissertation, read only version D",PENGUIN,BIRD,Study2,F,119,173,Study,User,-,,Study/JOL,"Study Phase",1181,,,-1,-1,,,,1
5d35989e71b4880017d5cc81,qvs8jvjjqt,Nick_Dissertation_EX1,1,65,2020-07-08T14:52:25-07:00,1.5076019763947,4,versionC_stim.csv,READVersionD.csv,"Read Version D","Dissertation, read only version D",DRINK,WATER,Study2,S,143,118,Study,User,-,,Study/JOL,"Study Phase",1067,,,-1,-1,,,,1
5d35989e71b4880017d5cc81,qvs8jvjjqt,Nick_Dissertation_EX1,1,66,2020-07-08T14:52:27-07:00,1.4101989269257,4,versionC_stim.csv,READVersionD.csv,"Read Version D","Dissertation, read only version D",JOKE,KEYS,Study2,U,165,171,Study,User,-,,Study/JOL,"Study Phase",950,,,-1,-1,,,,1
5d35989e71b4880017d5cc81,qvs8jvjjqt,Nick_Dissertation_EX1,1,67,2020-07-08T14:52:28-07:00,1.732006072998,4,versionC_stim.csv,READVersionD.csv,"Read Version D","Dissertation, read only version D",CAR,DRIVER,Study2,B,106,150,Study,User,-,,Study/JOL,"Study Phase",1293,,,-1,-1,,,,1
5d35989e71b4880017d5cc81,qvs8jvjjqt,Nick_Dissertation_EX1,1,68,2020-07-08T14:52:30-07:00,1.8328418731689,4,versionC_stim.csv,READVersionD.csv,"Read Version D","Dissertation, read only version D",ELECTION,MAZE,Study2,U,159,101,Study,User,-,,Study/JOL,"Study Phase",1389,,,-1,-1,,,,1
5d35989e71b4880017d5cc81,qvs8jvjjqt,Nick_Dissertation_EX1,1,69,2020-07-08T14:52:32-07:00,1.9963791370392,4,versionC_stim.csv,READVersionD.csv,"Read Version D","Dissertation, read only version D",LEAGUE,BASEBALL,Study2,F,131,116,Study,User,-,,Study/JOL,"Study Phase",1559,,,-1,-1,,,,1
5d35989e71b4880017d5cc81,qvs8jvjjqt,Nick_Dissertation_EX1,1,70,2020-07-08T14:52:35-07:00,3.1636509895325,4,versionC_stim.csv,READVersionD.csv,"Read Version D","Dissertation, read only version D",LOVE,AFFECTION,Study2,B,115,141,Study,User,-,,Study/JOL,"Study Phase",1744,,,-1,-1,,,,1
5d35989e71b4880017d5cc81,qvs8jvjjqt,Nick_Dissertation_EX1,1,71,2020-07-08T14:52:37-07:00,1.8626499176025,4,versionC_stim.csv,READVersionD.csv,"Read Version D","Dissertation, read only version D",LONELY,ALONE,Study2,S,145,108,Study,User,-,,Study/JOL,"Study Phase",1215,,,-1,-1,,,,1
5d35989e71b4880017d5cc81,qvs8jvjjqt,Nick_Dissertation_EX1,1,72,2020-07-08T14:52:40-07:00,2.4150381088257,4,versionC_stim.csv,READVersionD.csv,"Read Version D","Dissertation, read only version D",FLIP,TURN,Study2,F,116,139,Study,User,-,,Study/JOL,"Study Phase",1893,,,-1,-1,,,,1
5d35989e71b4880017d5cc81,qvs8jvjjqt,Nick_Dissertation_EX1,1,73,2020-07-08T14:52:42-07:00,2.0767560005188,4,versionC_stim.csv,READVersionD.csv,"Read Version D","Dissertation, read only version D",OUNCE,BOTH,Study2,U,172,113,Study,User,-,,Study/JOL,"Study Phase",1539,,,-1,-1,,,,1
5d35989e71b4880017d5cc81,qvs8jvjjqt,Nick_Dissertation_EX1,1,74,2020-07-08T14:52:43-07:00,1.6377730369568,4,versionC_stim.csv,READVersionD.csv,"Read Version D","Dissertation, read only version D",BREAKABLE,GLASS,Study2,F,127,148,Study,User,-,,Study/JOL,"Study Phase",1213,,,-1,-1,,,,1
5d35989e71b4880017d5cc81,qvs8jvjjqt,Nick_Dissertation_EX1,1,75,2020-07-08T14:52:46-07:00,2.4288778305054,4,versionC_stim.csv,READVersionD.csv,"Read Version D","Dissertation, read only version D",STEAK,GIVE,Study2,U,158,112,Study,User,-,,Study/JOL,"Study Phase",1938,,,-1,-1,,,,1
5d35989e71b4880017d5cc81,qvs8jvjjqt,Nick_Dissertation_EX1,1,76,2020-07-08T14:52:49-07:00,3.2747559547424,4,versionC_stim.csv,READVersionD.csv,"Read Version D","Dissertation, read only version D",TRUTHFUL,HONEST,Study2,F,133,175,Study,User,-,,Study/JOL,"Study Phase",2839,,,-1,-1,,,,1
5d35989e71b4880017d5cc81,qvs8jvjjqt,Nick_Dissertation_EX1,1,77,2020-07-08T14:52:51-07:00,1.3777430057526,4,versionC_stim.csv,READVersionD.csv,"Read Version D","Dissertation, read only version D",BANG,FUZZY,Study2,U,168,155,Study,User,-,,Study/JOL,"Study Phase",945,,,-1,-1,,,,1
5d35989e71b4880017d5cc81,qvs8jvjjqt,Nick_Dissertation_EX1,1,78,2020-07-08T14:52:52-07:00,1.5605430603027,4,versionC_stim.csv,READVersionD.csv,"Read Version D","Dissertation, read only version D",EAT,DINE,Study2,B,111,127,Study,User,-,,Study/JOL,"Study Phase",1085,,,-1,-1,,,,1
5d35989e71b4880017d5cc81,qvs8jvjjqt,Nick_Dissertation_EX1,1,79,2020-07-08T14:52:54-07:00,1.9656250476837,4,versionC_stim.csv,READVersionD.csv,"Read Version D","Dissertation, read only version D",THIMBLE,THREAD,Study2,F,121,142,Study,User,-,,Study/JOL,"Study Phase",1533,,,-1,-1,,,,1
5d35989e71b4880017d5cc81,qvs8jvjjqt,Nick_Dissertation_EX1,1,80,2020-07-08T14:52:56-07:00,2.0902080535889,4,versionC_stim.csv,READVersionD.csv,"Read Version D","Dissertation, read only version D",TOIL,LEASE,Study2,U,170,123,Study,User,-,,Study/JOL,"Study Phase",1648,,,-1,-1,,,,1
5d35989e71b4880017d5cc81,qvs8jvjjqt,Nick_Dissertation_EX1,1,81,2020-07-08T14:52:58-07:00,1.8421368598938,4,versionC_stim.csv,READVersionD.csv,"Read Version D","Dissertation, read only version D",PANTHER,CAT,Study2,F,126,144,Study,User,-,,Study/JOL,"Study Phase",1420,,,-1,-1,,,,1
5d35989e71b4880017d5cc81,qvs8jvjjqt,Nick_Dissertation_EX1,1,82,2020-07-08T14:53:00-07:00,1.7157030105591,4,versionC_stim.csv,READVersionD.csv,"Read Version D","Dissertation, read only version D",CARBON,ELEMENT,Study2,S,141,138,Study,User,-,,Study/JOL,"Study Phase",1295,,,-1,-1,,,,1
5d35989e71b4880017d5cc81,qvs8jvjjqt,Nick_Dissertation_EX1,1,83,2020-07-08T14:53:02-07:00,1.8392720222473,4,versionC_stim.csv,READVersionD.csv,"Read Version D","Dissertation, read only version D",STRAWBERRY,FRUIT,Study2,F,124,131,Study,User,-,,Study/JOL,"Study Phase",1413,,,-1,-1,,,,1
5d35989e71b4880017d5cc81,qvs8jvjjqt,Nick_Dissertation_EX1,1,84,2020-07-08T14:53:04-07:00,2.1018340587616,4,versionC_stim.csv,READVersionD.csv,"Read Version D","Dissertation, read only version D",FICTION,LISTEN,Study2,U,164,170,Study,User,-,,Study/JOL,"Study Phase",1528,,,-1,-1,,,,1
5d35989e71b4880017d5cc81,qvs8jvjjqt,Nick_Dissertation_EX1,1,85,2020-07-08T14:53:06-07:00,1.8471019268036,4,versionC_stim.csv,READVersionD.csv,"Read Version D","Dissertation, read only version D",NOISE,LOUD,Study2,S,152,106,Study,User,-,,Study/JOL,"Study Phase",1405,,,-1,-1,,,,1
5d35989e71b4880017d5cc81,qvs8jvjjqt,Nick_Dissertation_EX1,1,86,2020-07-08T14:53:08-07:00,2.1953861713409,4,versionC_stim.csv,READVersionD.csv,"Read Version D","Dissertation, read only version D",END,ADJOURN,Study2,B,101,158,Study,User,-,,Study/JOL,"Study Phase",1767,,,-1,-1,,,,1
5d35989e71b4880017d5cc81,qvs8jvjjqt,Nick_Dissertation_EX1,1,87,2020-07-08T14:53:10-07:00,1.846204996109,4,versionC_stim.csv,READVersionD.csv,"Read Version D","Dissertation, read only version D",YEAR,MONTH,BUFFER4,Buffer,177,179,Study,User,-,,Study/JOL,BUFFER2,1378,,,-1,-1,,,,1
5d35989e71b4880017d5cc81,qvs8jvjjqt,Nick_Dissertation_EX1,1,88,2020-07-08T14:53:11-07:00,1.8943829536438,4,versionC_stim.csv,READVersionD.csv,"Read Version D","Dissertation, read only version D",SPOOKY,OCTOBER,BUFFER4,Buffer,180,178,Study,User,-,,Study/JOL,BUFFER2,1451,,,-1,-1,,,,1
5d35989e71b4880017d5cc81,qvs8jvjjqt,Nick_Dissertation_EX1,1,89,2020-07-08T14:53:14-07:00,2.6479208469391,4,versionC_stim.csv,READVersionD.csv,"Read Version D","Dissertation, read only version D",SHED,TOOL,BUFFER4,Buffer,178,181,Study,User,-,,Study/JOL,BUFFER2,2242,,,-1,-1,,,,1
5d35989e71b4880017d5cc81,qvs8jvjjqt,Nick_Dissertation_EX1,1,90,2020-07-08T14:53:16-07:00,1.6661031246185,4,versionC_stim.csv,READVersionD.csv,"Read Version D","Dissertation, read only version D",MARCH,SPRING,BUFFER4,Buffer,179,180,Study,User,-,,Study/JOL,BUFFER2,1214,,,-1,-1,,,,1
5d35989e71b4880017d5cc81,qvs8jvjjqt,Nick_Dissertation_EX1,1,91,2020-07-08T14:53:17-07:00,1.5187849998474,4,versionC_stim.csv,READVersionD.csv,"Read Version D","Dissertation, read only version D",WEAKS,DAYS,BUFFER4,Buffer,176,177,Study,User,-,,Study/JOL,BUFFER2,1078,,,-1,-1,,,,1
5d35989e71b4880017d5cc81,qvs8jvjjqt,Nick_Dissertation_EX1,1,92,2020-07-08T14:53:21-07:00,3.328950881958,4,versionC_stim.csv,READVersionD.csv,"Read Version D","Dissertation, read only version D",,,,,,0,Instruct,User,-,"You have completed this section. Please press Enter.",Filler_Instruction,Instruct2,1918,,,-1,-1,,,,1
5d35989e71b4880017d5cc81,qvs8jvjjqt,Nick_Dissertation_EX1,1,93,2020-07-08T14:55:21-07:00,120.64412403107,4,versionC_stim.csv,READVersionD.csv,"Read Version D","Dissertation, read only version D",,,,,,0,FreeRecall,120,120,"Please list the 50 US states in alphabetical order. The task will automatically advance to the next screen after two minutes.",,Filler1,120006,"Alabama California Colorado Conneticut Delaware Georgia Hawaii Idaho",0,-1,-1,0,0,,1
5d35989e71b4880017d5cc81,qvs8jvjjqt,Nick_Dissertation_EX1,1,94,2020-07-08T14:55:34-07:00,12.627240180969,4,versionC_stim.csv,READVersionD.csv,"Read Version D","Dissertation, read only version D",,,,,,0,Instruct,-,10,"You will now be presented with the first word from each of the previously studied item pairs. Please type the missing word. If you do not know the word, you may guess or press Enter to skip forward to the next pair.",,Instruct3,12068,,,-1,-1,,,,1
5d35989e71b4880017d5cc81,qvs8jvjjqt,Nick_Dissertation_EX1,1,95,2020-07-08T14:55:41-07:00,6.6510009765625,4,versionC_stim.csv,READVersionD.csv,"Read Version D","Dissertation, read only version D",ELECTION,MAZE,Study2,U,159,101,Test,User,-,,Recall,Recall1,6199,VOTE,25,-1,-1,0,0,,1
5d35989e71b4880017d5cc81,qvs8jvjjqt,Nick_Dissertation_EX1,1,96,2020-07-08T14:55:48-07:00,6.9649519920349,4,versionC_stim.csv,READVersionD.csv,"Read Version D","Dissertation, read only version D",DOG,FURRY,Study2,B,102,119,Test,User,-,,Recall,Recall1,6515,FURRY,100,-1,-1,1,1,,1
5d35989e71b4880017d5cc81,qvs8jvjjqt,Nick_Dissertation_EX1,1,97,2020-07-08T14:56:06-07:00,18.461615800858,4,versionC_stim.csv,READVersionD.csv,"Read Version D","Dissertation, read only version D",TIE,SHOELACE,Study2,B,99,105,Test,User,-,,Recall,Recall1,17858,FASTEN,28.571428571429,-1,-1,0,0,,1
5d35989e71b4880017d5cc81,qvs8jvjjqt,Nick_Dissertation_EX1,1,98,2020-07-08T14:56:14-07:00,7.759024143219,4,versionC_stim.csv,READVersionD.csv,"Read Version D","Dissertation, read only version D",WINDSHIELD,CAR,Study2,F,117,100,Test,User,-,,Recall,Recall1,7207,WIPER,25,-1,-1,0,0,,1
5d35989e71b4880017d5cc81,qvs8jvjjqt,Nick_Dissertation_EX1,1,99,2020-07-08T14:56:22-07:00,7.942615032196,4,versionC_stim.csv,READVersionD.csv,"Read Version D","Dissertation, read only version D",DRINK,WATER,Study2,S,143,118,Test,User,-,,Recall,Recall1,7417,BEVERAGE,30.769230769231,-1,-1,0,0,,1
5d35989e71b4880017d5cc81,qvs8jvjjqt,Nick_Dissertation_EX1,1,100,2020-07-08T14:56:28-07:00,6.5901010036469,4,versionC_stim.csv,READVersionD.csv,"Read Version D","Dissertation, read only version D",SHAKE,Shell,Study2,U,163,132,Test,User,-,,Recall,Recall1,6120,STIR,22.222222222222,-1,-1,0,0,,1
5d35989e71b4880017d5cc81,qvs8jvjjqt,Nick_Dissertation_EX1,1,101,2020-07-08T14:56:33-07:00,4.6162989139557,4,versionC_stim.csv,READVersionD.csv,"Read Version D","Dissertation, read only version D",SIGN,LOAN,Study2,U,171,117,Test,User,-,,Recall,Recall1,3830,POST,25,-1,-1,0,0,,1
5d35989e71b4880017d5cc81,qvs8jvjjqt,Nick_Dissertation_EX1,1,102,2020-07-08T14:56:39-07:00,6.3995780944824,4,versionC_stim.csv,READVersionD.csv,"Read Version D","Dissertation, read only version D",PANTHER,CAT,Study2,F,126,144,Test,User,-,,Recall,Recall1,5820,JAGUAR,22.222222222222,-1,-1,0,0,,1
5d35989e71b4880017d5cc81,qvs8jvjjqt,Nick_Dissertation_EX1,1,103,2020-07-08T14:56:53-07:00,13.42985200882,4,versionC_stim.csv,READVersionD.csv,"Read Version D","Dissertation, read only version D",BREAKABLE,GLASS,Study2,F,127,148,Test,User,-,,Recall,Recall1,6545,SMASH,40,-1,-1,0,0,,1
5d35989e71b4880017d5cc81,qvs8jvjjqt,Nick_Dissertation_EX1,1,104,2020-07-08T14:56:58-07:00,5.4612789154053,4,versionC_stim.csv,READVersionD.csv,"Read Version D","Dissertation, read only version D",RED,CHERRY,Study2,B,104,174,Test,User,-,,Recall,Recall1,5047,BLUE,20,-1,-1,0,0,,1
5d35989e71b4880017d5cc81,qvs8jvjjqt,Nick_Dissertation_EX1,1,105,2020-07-08T14:57:07-07:00,8.8740079402924,4,versionC_stim.csv,READVersionD.csv,"Read Version D","Dissertation, read only version D",CHILDREN,MIRROR,Study2,U,174,162,Test,User,-,,Recall,Recall1,8396,TOYS,20,-1,-1,0,0,,1
5d35989e71b4880017d5cc81,qvs8jvjjqt,Nick_Dissertation_EX1,1,106,2020-07-08T14:57:27-07:00,19.682955026627,4,versionC_stim.csv,READVersionD.csv,"Read Version D","Dissertation, read only version D",FICTION,LISTEN,Study2,U,164,170,Test,User,-,,Recall,Recall1,19250,NOVEL,18.181818181818,-1,-1,0,0,,1
5d35989e71b4880017d5cc81,qvs8jvjjqt,Nick_Dissertation_EX1,1,107,2020-07-08T14:57:32-07:00,5.0244491100311,4,versionC_stim.csv,READVersionD.csv,"Read Version D","Dissertation, read only version D",EAT,DINE,Study2,B,111,127,Test,User,-,,Recall,Recall1,4595,CONSUME,36.363636363636,-1,-1,0,0,,1
5d35989e71b4880017d5cc81,qvs8jvjjqt,Nick_Dissertation_EX1,1,108,2020-07-08T14:57:37-07:00,5.181144952774,4,versionC_stim.csv,READVersionD.csv,"Read Version D","Dissertation, read only version D",TEMPER,TANTRUM,Study2,S,154,135,Test,User,-,,Recall,Recall1,4756,TANTRUM,100,-1,-1,1,1,,1
5d35989e71b4880017d5cc81,qvs8jvjjqt,Nick_Dissertation_EX1,1,109,2020-07-08T14:57:45-07:00,8.2083640098572,4,versionC_stim.csv,READVersionD.csv,"Read Version D","Dissertation, read only version D",BANG,FUZZY,Study2,U,168,155,Test,User,-,,Recall,Recall1,7726,LOUD,22.222222222222,-1,-1,0,0,,1
5d35989e71b4880017d5cc81,qvs8jvjjqt,Nick_Dissertation_EX1,1,110,2020-07-08T14:57:50-07:00,4.9389259815216,4,versionC_stim.csv,READVersionD.csv,"Read Version D","Dissertation, read only version D",GAME,CLUE,Study2,B,97,120,Test,User,-,,Recall,Recall1,4446,RULES,44.444444444444,-1,-1,0,0,,1
5d35989e71b4880017d5cc81,qvs8jvjjqt,Nick_Dissertation_EX1,1,111,2020-07-08T14:57:57-07:00,7.1927680969238,4,versionC_stim.csv,READVersionD.csv,"Read Version D","Dissertation, read only version D",EQUAL,RIGHTS,Study2,S,137,137,Test,User,-,,Recall,Recall1,4547,RIGHTS,100,-1,-1,1,1,,1
5d35989e71b4880017d5cc81,qvs8jvjjqt,Nick_Dissertation_EX1,1,112,2020-07-08T14:58:22-07:00,24.641987800598,4,versionC_stim.csv,READVersionD.csv,"Read Version D","Dissertation, read only version D",CLEAR,MOAT,Study2,U,169,128,Test,User,-,,Recall,Recall1,24158,SEETHROUGH,14.285714285714,-1,-1,0,0,,1
5d35989e71b4880017d5cc81,qvs8jvjjqt,Nick_Dissertation_EX1,1,113,2020-07-08T14:58:28-07:00,5.6100060939789,4,versionC_stim.csv,READVersionD.csv,"Read Version D","Dissertation, read only version D",BRACELET,WRIST,Study2,S,140,136,Test,User,-,,Recall,Recall1,5030,ANKLE,0,-1,-1,0,0,,1
5d35989e71b4880017d5cc81,qvs8jvjjqt,Nick_Dissertation_EX1,1,114,2020-07-08T14:58:35-07:00,6.9978830814362,4,versionC_stim.csv,READVersionD.csv,"Read Version D","Dissertation, read only version D",TRUTHFUL,HONEST,Study2,F,133,175,Test,User,-,,Recall,Recall1,6523,HONEST,100,-1,-1,1,1,,1
5d35989e71b4880017d5cc81,qvs8jvjjqt,Nick_Dissertation_EX1,1,115,2020-07-08T14:58:41-07:00,6.5676019191742,4,versionC_stim.csv,READVersionD.csv,"Read Version D","Dissertation, read only version D",PLANT,CACTUS,Study2,B,98,122,Test,User,-,,Recall,Recall1,6135,POT,22.222222222222,-1,-1,0,0,,1
5d35989e71b4880017d5cc81,qvs8jvjjqt,Nick_Dissertation_EX1,1,116,2020-07-08T14:58:49-07:00,8.2373139858246,4,versionC_stim.csv,READVersionD.csv,"Read Version D","Dissertation, read only version D",CLOTH,STRETCH,Study2,U,157,161,Test,User,-,,Recall,Recall1,7745,FABRIC,30.769230769231,-1,-1,0,0,,1
5d35989e71b4880017d5cc81,qvs8jvjjqt,Nick_Dissertation_EX1,1,117,2020-07-08T14:58:54-07:00,4.6298069953918,4,versionC_stim.csv,READVersionD.csv,"Read Version D","Dissertation, read only version D",DONKEY,MULE,Study2,B,108,159,Test,User,-,,Recall,Recall1,4113,MULE,100,-1,-1,1,1,,1
5d35989e71b4880017d5cc81,qvs8jvjjqt,Nick_Dissertation_EX1,1,118,2020-07-08T14:59:03-07:00,9.1436009407043,4,versionC_stim.csv,READVersionD.csv,"Read Version D","Dissertation, read only version D",REVENGE,EVEN,Study2,F,122,163,Test,User,-,,Recall,Recall1,8616,ANGER,22.222222222222,-1,-1,0,0,,1
5d35989e71b4880017d5cc81,qvs8jvjjqt,Nick_Dissertation_EX1,1,119,2020-07-08T14:59:09-07:00,6.3011901378632,4,versionC_stim.csv,READVersionD.csv,"Read Version D","Dissertation, read only version D",CAR,DRIVER,Study2,B,106,150,Test,User,-,,Recall,Recall1,5853,VEHICLE,30.769230769231,-1,-1,0,0,,1
5d35989e71b4880017d5cc81,qvs8jvjjqt,Nick_Dissertation_EX1,1,120,2020-07-08T14:59:16-07:00,6.7024018764496,4,versionC_stim.csv,READVersionD.csv,"Read Version D","Dissertation, read only version D",CLOTHES,CAKE,Study2,U,166,149,Test,User,-,,Recall,Recall1,6252,PIN,0,-1,-1,0,0,,1
5d35989e71b4880017d5cc81,qvs8jvjjqt,Nick_Dissertation_EX1,1,121,2020-07-08T14:59:21-07:00,4.9452459812164,4,versionC_stim.csv,READVersionD.csv,"Read Version D","Dissertation, read only version D",HAVE,OWN,Study2,S,153,130,Test,User,-,,Recall,Recall1,4408,OWN,100,-1,-1,1,1,,1
5d35989e71b4880017d5cc81,qvs8jvjjqt,Nick_Dissertation_EX1,1,122,2020-07-08T14:59:32-07:00,10.481161117554,4,versionC_stim.csv,READVersionD.csv,"Read Version D","Dissertation, read only version D",TICK,FLEA,Study2,S,151,152,Test,User,-,,Recall,Recall1,9970,FLEA,100,-1,-1,1,1,,1
5d35989e71b4880017d5cc81,qvs8jvjjqt,Nick_Dissertation_EX1,1,123,2020-07-08T14:59:38-07:00,6.0139338970184,4,versionC_stim.csv,READVersionD.csv,"Read Version D","Dissertation, read only version D",LEAGUE,BASEBALL,Study2,F,131,116,Test,User,-,,Recall,Recall1,5507,BASEBALL,100,-1,-1,1,1,,1
5d35989e71b4880017d5cc81,qvs8jvjjqt,Nick_Dissertation_EX1,1,124,2020-07-08T14:59:43-07:00,5.3728339672089,4,versionC_stim.csv,READVersionD.csv,"Read Version D","Dissertation, read only version D",ABLE,CRACKLE,Study2,U,162,164,Test,User,-,,Recall,Recall1,4705,CAN,40,-1,-1,0,0,,1
5d35989e71b4880017d5cc81,qvs8jvjjqt,Nick_Dissertation_EX1,1,125,2020-07-08T14:59:49-07:00,6.1388521194458,4,versionC_stim.csv,READVersionD.csv,"Read Version D","Dissertation, read only version D",JOKE,KEYS,Study2,U,165,171,Test,User,-,,Recall,Recall1,5658,CLOWN,0,-1,-1,0,0,,1
5d35989e71b4880017d5cc81,qvs8jvjjqt,Nick_Dissertation_EX1,1,126,2020-07-08T14:59:59-07:00,9.5361859798431,4,versionC_stim.csv,READVersionD.csv,"Read Version D","Dissertation, read only version D",LONG,EXTENSION,Study2,B,96,167,Test,User,-,,Recall,Recall1,9092,TALL,15.384615384615,-1,-1,0,0,,1
5d35989e71b4880017d5cc81,qvs8jvjjqt,Nick_Dissertation_EX1,1,127,2020-07-08T15:00:03-07:00,4.6610820293427,4,versionC_stim.csv,READVersionD.csv,"Read Version D","Dissertation, read only version D",REEL,ROD,Study2,S,150,97,Test,User,-,,Recall,Recall1,4216,FISH,0,-1,-1,0,0,,1
5d35989e71b4880017d5cc81,qvs8jvjjqt,Nick_Dissertation_EX1,1,128,2020-07-08T15:00:19-07:00,15.908491849899,4,versionC_stim.csv,READVersionD.csv,"Read Version D","Dissertation, read only version D",CARBON,ELEMENT,Study2,S,141,138,Test,User,-,,Recall,Recall1,15460,ELEMENT,100,-1,-1,1,1,,1
5d35989e71b4880017d5cc81,qvs8jvjjqt,Nick_Dissertation_EX1,1,129,2020-07-08T15:00:24-07:00,4.4821000099182,4,versionC_stim.csv,READVersionD.csv,"Read Version D","Dissertation, read only version D",SEATBELT,SAFETY,Study2,S,147,160,Test,User,-,,Recall,Recall1,3970,FASTEN,33.333333333333,-1,-1,0,0,,1
5d35989e71b4880017d5cc81,qvs8jvjjqt,Nick_Dissertation_EX1,1,130,2020-07-08T15:00:29-07:00,5.3467381000519,4,versionC_stim.csv,READVersionD.csv,"Read Version D","Dissertation, read only version D",PAPER,DOCUMENT,Study2,B,109,169,Test,User,-,,Recall,Recall1,4908,SCISSORS,12.5,-1,-1,0,0,,1
5d35989e71b4880017d5cc81,qvs8jvjjqt,Nick_Dissertation_EX1,1,131,2020-07-08T15:00:33-07:00,4.2961540222168,4,versionC_stim.csv,READVersionD.csv,"Read Version D","Dissertation, read only version D",SARDINE,FISH,Study2,F,130,110,Test,User,-,,Recall,Recall1,3803,CAN,0,-1,-1,0,0,,1
5d35989e71b4880017d5cc81,qvs8jvjjqt,Nick_Dissertation_EX1,1,132,2020-07-08T15:00:39-07:00,5.8003659248352,4,versionC_stim.csv,READVersionD.csv,"Read Version D","Dissertation, read only version D",OUNCE,BOTH,Study2,U,172,113,Test,User,-,,Recall,Recall1,4243,GRAM,0,-1,-1,0,0,,1
5d35989e71b4880017d5cc81,qvs8jvjjqt,Nick_Dissertation_EX1,1,133,2020-07-08T15:00:47-07:00,8.1678409576416,4,versionC_stim.csv,READVersionD.csv,"Read Version D","Dissertation, read only version D",TRASH,LITTER,Study2,B,103,157,Test,User,-,,Recall,Recall1,7732,GARBAGE,15.384615384615,-1,-1,0,0,,1
5d35989e71b4880017d5cc81,qvs8jvjjqt,Nick_Dissertation_EX1,1,134,2020-07-08T15:00:52-07:00,4.6630711555481,4,versionC_stim.csv,READVersionD.csv,"Read Version D","Dissertation, read only version D",ACTRESS,STAR,Study2,F,120,107,Test,User,-,,Recall,Recall1,4212,STAR,100,-1,-1,1,1,,1
5d35989e71b4880017d5cc81,qvs8jvjjqt,Nick_Dissertation_EX1,1,135,2020-07-08T15:00:57-07:00,4.8305380344391,4,versionC_stim.csv,READVersionD.csv,"Read Version D","Dissertation, read only version D",SHAVE,RAZOR,Study2,S,136,151,Test,User,-,,Recall,Recall1,4394,RAZOR,100,-1,-1,1,1,,1
5d35989e71b4880017d5cc81,qvs8jvjjqt,Nick_Dissertation_EX1,1,136,2020-07-08T15:01:09-07:00,12.423285961151,4,versionC_stim.csv,READVersionD.csv,"Read Version D","Dissertation, read only version D",JAR,MASON,Study2,S,138,124,Test,User,-,,Recall,Recall1,11918,CONTAINER,28.571428571429,-1,-1,0,0,,1
5d35989e71b4880017d5cc81,qvs8jvjjqt,Nick_Dissertation_EX1,1,137,2020-07-08T15:01:16-07:00,6.3924150466919,4,versionC_stim.csv,READVersionD.csv,"Read Version D","Dissertation, read only version D",CUT,CHOP,Study2,B,107,145,Test,User,-,,Recall,Recall1,5920,SCISSORS,33.333333333333,-1,-1,0,0,,1
5d35989e71b4880017d5cc81,qvs8jvjjqt,Nick_Dissertation_EX1,1,138,2020-07-08T15:01:23-07:00,7.5108850002289,4,versionC_stim.csv,READVersionD.csv,"Read Version D","Dissertation, read only version D",STRAWBERRY,FRUIT,Study2,F,124,131,Test,User,-,,Recall,Recall1,6971,BL,0,-1,-1,0,0,,1
5d35989e71b4880017d5cc81,qvs8jvjjqt,Nick_Dissertation_EX1,1,139,2020-07-08T15:01:33-07:00,9.7377219200134,4,versionC_stim.csv,READVersionD.csv,"Read Version D","Dissertation, read only version D",SCAR,MAIN,Study2,U,175,166,Test,User,-,,Recall,Recall1,9256,HEAL,25,-1,-1,0,0,,1
5d35989e71b4880017d5cc81,qvs8jvjjqt,Nick_Dissertation_EX1,1,140,2020-07-08T15:01:39-07:00,5.961030960083,4,versionC_stim.csv,READVersionD.csv,"Read Version D","Dissertation, read only version D",FLIP,TURN,Study2,F,116,139,Test,User,-,,Recall,Recall1,5538,COIN,25,-1,-1,0,0,,1
5d35989e71b4880017d5cc81,qvs8jvjjqt,Nick_Dissertation_EX1,1,141,2020-07-08T15:01:44-07:00,4.7811861038208,4,versionC_stim.csv,READVersionD.csv,"Read Version D","Dissertation, read only version D",BRAWL,FIGHT,Study2,F,135,126,Test,User,-,,Recall,Recall1,4266,FIGHT,100,-1,-1,1,1,,1
5d35989e71b4880017d5cc81,qvs8jvjjqt,Nick_Dissertation_EX1,1,142,2020-07-08T15:01:50-07:00,6.6710479259491,4,versionC_stim.csv,READVersionD.csv,"Read Version D","Dissertation, read only version D",OBTAIN,MEAT,Study2,U,161,103,Test,User,-,,Recall,Recall1,6222,HAVE,25,-1,-1,0,0,,1
5d35989e71b4880017d5cc81,qvs8jvjjqt,Nick_Dissertation_EX1,1,143,2020-07-08T15:01:55-07:00,4.9662179946899,4,versionC_stim.csv,READVersionD.csv,"Read Version D","Dissertation, read only version D",NAP,SLEEP,Study2,F,134,154,Test,User,-,,Recall,Recall1,4518,SLEEP,100,-1,-1,1,1,,1
5d35989e71b4880017d5cc81,qvs8jvjjqt,Nick_Dissertation_EX1,1,144,2020-07-08T15:02:02-07:00,6.8249468803406,4,versionC_stim.csv,READVersionD.csv,"Read Version D","Dissertation, read only version D",BANKER,MONEY,Study2,F,132,129,Test,User,-,,Recall,Recall1,6374,BAKER,20,-1,-1,0,0,,1
5d35989e71b4880017d5cc81,qvs8jvjjqt,Nick_Dissertation_EX1,1,145,2020-07-08T15:02:11-07:00,9.0213260650635,4,versionC_stim.csv,READVersionD.csv,"Read Version D","Dissertation, read only version D",SMELL,INCENSE,Study2,B,110,156,Test,User,-,,Recall,Recall1,8585,STINK,33.333333333333,-1,-1,0,0,,1
5d35989e71b4880017d5cc81,qvs8jvjjqt,Nick_Dissertation_EX1,1,146,2020-07-08T15:02:18-07:00,6.8554120063782,4,versionC_stim.csv,READVersionD.csv,"Read Version D","Dissertation, read only version D",FIGHT,FEUD,Study2,B,113,133,Test,User,-,,Recall,Recall1,6375,ARGUE,22.222222222222,-1,-1,0,0,,1
5d35989e71b4880017d5cc81,qvs8jvjjqt,Nick_Dissertation_EX1,1,147,2020-07-08T15:02:23-07:00,5.3029310703278,4,versionC_stim.csv,READVersionD.csv,"Read Version D","Dissertation, read only version D",LIE,TRUTH,Study2,S,148,140,Test,User,-,,Recall,Recall1,4855,TRUTH,100,-1,-1,1,1,,1
5d35989e71b4880017d5cc81,qvs8jvjjqt,Nick_Dissertation_EX1,1,148,2020-07-08T15:02:30-07:00,6.850487947464,4,versionC_stim.csv,READVersionD.csv,"Read Version D","Dissertation, read only version D",BALLOON,POP,Study2,F,123,99,Test,User,-,,Recall,Recall1,6367,ROCK,28.571428571429,-1,-1,0,0,,1
5d35989e71b4880017d5cc81,qvs8jvjjqt,Nick_Dissertation_EX1,1,149,2020-07-08T15:02:40-07:00,9.9343280792236,4,versionC_stim.csv,READVersionD.csv,"Read Version D","Dissertation, read only version D",THIMBLE,THREAD,Study2,F,121,142,Test,User,-,,Recall,Recall1,9449,THUMB,36.363636363636,-1,-1,0,0,,1
5d35989e71b4880017d5cc81,qvs8jvjjqt,Nick_Dissertation_EX1,1,150,2020-07-08T15:02:52-07:00,12.106081008911,4,versionC_stim.csv,READVersionD.csv,"Read Version D","Dissertation, read only version D",MYSTERY,DETECTIVE,Study2,B,100,143,Test,User,-,,Recall,Recall1,11627,"PUZZLE ",13.333333333333,-1,-1,0,0,,1
5d35989e71b4880017d5cc81,qvs8jvjjqt,Nick_Dissertation_EX1,1,151,2020-07-08T15:02:56-07:00,4.3128428459167,4,versionC_stim.csv,READVersionD.csv,"Read Version D","Dissertation, read only version D",AWAY,GONE,Study2,S,142,153,Test,User,-,,Recall,Recall1,3869,HOME,50,-1,-1,0,0,,1
5d35989e71b4880017d5cc81,qvs8jvjjqt,Nick_Dissertation_EX1,1,152,2020-07-08T15:03:01-07:00,4.4880881309509,4,versionC_stim.csv,READVersionD.csv,"Read Version D","Dissertation, read only version D",COLD,CHILL,Study2,B,114,98,Test,User,-,,Recall,Recall1,4030,ICE,25,-1,-1,0,0,,1
5d35989e71b4880017d5cc81,qvs8jvjjqt,Nick_Dissertation_EX1,1,153,2020-07-08T15:03:09-07:00,7.6246700286865,4,versionC_stim.csv,READVersionD.csv,"Read Version D","Dissertation, read only version D",Morning,TEMPERATURE,Study2,U,173,147,Test,User,-,,Recall,Recall1,7196,AFTERNOON,30,-1,-1,0,0,,1
5d35989e71b4880017d5cc81,qvs8jvjjqt,Nick_Dissertation_EX1,1,154,2020-07-08T15:03:14-07:00,5.2128229141235,4,versionC_stim.csv,READVersionD.csv,"Read Version D","Dissertation, read only version D",LONELY,ALONE,Study2,S,145,108,Test,User,-,,Recall,Recall1,4732,ALONE,100,-1,-1,1,1,,1
5d35989e71b4880017d5cc81,qvs8jvjjqt,Nick_Dissertation_EX1,1,155,2020-07-08T15:03:18-07:00,4.2194359302521,4,versionC_stim.csv,READVersionD.csv,"Read Version D","Dissertation, read only version D",VILLAIN,BAD,Study2,F,118,111,Test,User,-,,Recall,Recall1,3742,HERO,0,-1,-1,0,0,,1
5d35989e71b4880017d5cc81,qvs8jvjjqt,Nick_Dissertation_EX1,1,156,2020-07-08T15:03:30-07:00,12.490103006363,4,versionC_stim.csv,READVersionD.csv,"Read Version D","Dissertation, read only version D",HEAD,SCALP,Study2,B,105,134,Test,User,-,,Recall,Recall1,10898,TOES,22.222222222222,-1,-1,0,0,,1
5d35989e71b4880017d5cc81,qvs8jvjjqt,Nick_Dissertation_EX1,1,157,2020-07-08T15:03:37-07:00,6.3763871192932,4,versionC_stim.csv,READVersionD.csv,"Read Version D","Dissertation, read only version D",END,ADJOURN,Study2,B,101,158,Test,User,-,,Recall,Recall1,5714,START,33.333333333333,-1,-1,0,0,,1
5d35989e71b4880017d5cc81,qvs8jvjjqt,Nick_Dissertation_EX1,1,158,2020-07-08T15:03:41-07:00,4.1335229873657,4,versionC_stim.csv,READVersionD.csv,"Read Version D","Dissertation, read only version D",SCISSORS,SHEARS,Study2,B,112,114,Test,User,-,,Recall,Recall1,3675,PAPER,36.363636363636,-1,-1,0,0,,1
5d35989e71b4880017d5cc81,qvs8jvjjqt,Nick_Dissertation_EX1,1,159,2020-07-08T15:03:49-07:00,8.2924809455872,4,versionC_stim.csv,READVersionD.csv,"Read Version D","Dissertation, read only version D",MAROON,JUSTICE,Study2,U,156,125,Test,User,-,,Recall,Recall1,6815,CYAN,18.181818181818,-1,-1,0,0,,1
5d35989e71b4880017d5cc81,qvs8jvjjqt,Nick_Dissertation_EX1,1,160,2020-07-08T15:03:54-07:00,4.9657731056213,4,versionC_stim.csv,READVersionD.csv,"Read Version D","Dissertation, read only version D",CHARM,VEHICLE,Study2,U,160,102,Test,User,-,,Recall,Recall1,4414,BRACELET,40,-1,-1,0,0,,1
5d35989e71b4880017d5cc81,qvs8jvjjqt,Nick_Dissertation_EX1,1,161,2020-07-08T15:04:00-07:00,5.635890007019,4,versionC_stim.csv,READVersionD.csv,"Read Version D","Dissertation, read only version D",WET,DRY,Study2,S,146,176,Test,User,-,,Recall,Recall1,5207,DRY,100,-1,-1,1,1,,1
5d35989e71b4880017d5cc81,qvs8jvjjqt,Nick_Dissertation_EX1,1,162,2020-07-08T15:04:06-07:00,6.5078690052032,4,versionC_stim.csv,READVersionD.csv,"Read Version D","Dissertation, read only version D",FAVORITE,BEST,Study2,F,125,104,Test,User,-,,Recall,Recall1,5017,BEST,100,-1,-1,1,1,,1
5d35989e71b4880017d5cc81,qvs8jvjjqt,Nick_Dissertation_EX1,1,163,2020-07-08T15:04:13-07:00,7.0888028144836,4,versionC_stim.csv,READVersionD.csv,"Read Version D","Dissertation, read only version D",TOIL,LEASE,Study2,U,170,123,Test,User,-,,Recall,Recall1,6509,WORK,0,-1,-1,0,0,,1
5d35989e71b4880017d5cc81,qvs8jvjjqt,Nick_Dissertation_EX1,1,164,2020-07-08T15:04:20-07:00,6.8670170307159,4,versionC_stim.csv,READVersionD.csv,"Read Version D","Dissertation, read only version D",GROUND,EARTH,Study2,S,144,146,Test,User,-,,Recall,Recall1,6406,HOG,25,-1,-1,0,0,,1
5d35989e71b4880017d5cc81,qvs8jvjjqt,Nick_Dissertation_EX1,1,165,2020-07-08T15:04:26-07:00,5.2069220542908,4,versionC_stim.csv,READVersionD.csv,"Read Version D","Dissertation, read only version D",STEAK,GIVE,Study2,U,158,112,Test,User,-,,Recall,Recall1,4772,LEASE,22.222222222222,-1,-1,0,0,,1
5d35989e71b4880017d5cc81,qvs8jvjjqt,Nick_Dissertation_EX1,1,166,2020-07-08T15:04:32-07:00,6.2612719535828,4,versionC_stim.csv,READVersionD.csv,"Read Version D","Dissertation, read only version D",AIRCRAFT,PLANE,Study2,F,129,115,Test,User,-,,Recall,Recall1,5804,CARRIER,33.333333333333,-1,-1,0,0,,1
5d35989e71b4880017d5cc81,qvs8jvjjqt,Nick_Dissertation_EX1,1,167,2020-07-08T15:04:41-07:00,9.4189851284027,4,versionC_stim.csv,READVersionD.csv,"Read Version D","Dissertation, read only version D",PENGUIN,BIRD,Study2,F,119,173,Test,User,-,,Recall,Recall1,8920,POLE,0,-1,-1,0,0,,1
5d35989e71b4880017d5cc81,qvs8jvjjqt,Nick_Dissertation_EX1,1,168,2020-07-08T15:04:46-07:00,5.2379379272461,4,versionC_stim.csv,READVersionD.csv,"Read Version D","Dissertation, read only version D",NOISE,LOUD,Study2,S,152,106,Test,User,-,,Recall,Recall1,4734,HEAR,0,-1,-1,0,0,,1
5d35989e71b4880017d5cc81,qvs8jvjjqt,Nick_Dissertation_EX1,1,169,2020-07-08T15:04:53-07:00,6.9854969978333,4,versionC_stim.csv,READVersionD.csv,"Read Version D","Dissertation, read only version D",COMMUNICATION,PHONE,Study2,S,149,109,Test,User,-,,Recall,Recall1,6534,LISTEN,18.181818181818,-1,-1,0,0,,1
5d35989e71b4880017d5cc81,qvs8jvjjqt,Nick_Dissertation_EX1,1,170,2020-07-08T15:05:03-07:00,9.5812940597534,4,versionC_stim.csv,READVersionD.csv,"Read Version D","Dissertation, read only version D",LOVE,AFFECTION,Study2,B,115,141,Test,User,-,,Recall,Recall1,9142,HEART,28.571428571429,-1,-1,0,0,,1
5d35989e71b4880017d5cc81,qvs8jvjjqt,Nick_Dissertation_EX1,1,171,2020-07-08T15:05:11-07:00,8.1062819957733,4,versionC_stim.csv,READVersionD.csv,"Read Version D","Dissertation, read only version D",HATE,NAME,Study2,U,167,165,Test,User,-,,Recall,Recall1,7673,RESENTMENT,42.857142857143,-1,-1,0,0,,1
5d35989e71b4880017d5cc81,qvs8jvjjqt,Nick_Dissertation_EX1,1,172,2020-07-08T15:05:20-07:00,9.3417348861694,4,versionC_stim.csv,READVersionD.csv,"Read Version D","Dissertation, read only version D",TAN,SUN,Study2,S,155,172,Test,User,-,,Recall,Recall1,8868,SUN,100,-1,-1,1,1,,1
5d35989e71b4880017d5cc81,qvs8jvjjqt,Nick_Dissertation_EX1,1,173,2020-07-08T15:05:25-07:00,5.0216679573059,4,versionC_stim.csv,READVersionD.csv,"Read Version D","Dissertation, read only version D",WAX,CANDLE,Study2,S,139,168,Test,User,-,,Recall,Recall1,4594,HAIR,20,-1,-1,0,0,,1
5d35989e71b4880017d5cc81,qvs8jvjjqt,Nick_Dissertation_EX1,1,174,2020-07-08T15:05:30-07:00,4.0678470134735,4,versionC_stim.csv,READVersionD.csv,"Read Version D","Dissertation, read only version D",COFFIN,DEAD,Study2,F,128,121,Test,User,-,,Recall,Recall1,3615,DEAD,100,-1,-1,1,1,,1
5d35989e71b4880017d5cc81,qvs8jvjjqt,Nick_Dissertation_EX1,1,175,2020-07-08T15:05:41-07:00,11.535588979721,4,versionC_stim.csv,READVersionD.csv,"Read Version D","Dissertation, read only version D",,,,,,0,Instruct,-,10,"You will now be presented with a new set of word pairs. Please study each pair. Remember that your memory will be tested! When finished, press Enter to move to the next pair.",Initial_Instruct,Instruct4,11075,,,-1,-1,,,,0.857
5d35989e71b4880017d5cc81,qvs8jvjjqt,Nick_Dissertation_EX1,1,176,2020-07-08T15:05:44-07:00,3.1831831932068,4,versionC_stim.csv,READVersionD.csv,"Read Version D","Dissertation, read only version D",GREEN,TREES,BUFFER1,Buffer,1,3,Study,User,-,,Study/JOL,BUFFER3,1611,,,-1,-1,,,,1
5d35989e71b4880017d5cc81,qvs8jvjjqt,Nick_Dissertation_EX1,1,177,2020-07-08T15:05:46-07:00,1.7473728656769,4,versionC_stim.csv,READVersionD.csv,"Read Version D","Dissertation, read only version D",CATCHER,BASEBALL,BUFFER1,Buffer,2,2,Study,User,-,,Study/JOL,BUFFER3,1307,,,-1,-1,,,,1
5d35989e71b4880017d5cc81,qvs8jvjjqt,Nick_Dissertation_EX1,1,178,2020-07-08T15:05:48-07:00,2.4159760475159,4,versionC_stim.csv,READVersionD.csv,"Read Version D","Dissertation, read only version D",HIDE,SCARE,BUFFER1,Buffer,4,5,Study,User,-,,Study/JOL,BUFFER3,966,,,-1,-1,,,,1
5d35989e71b4880017d5cc81,qvs8jvjjqt,Nick_Dissertation_EX1,1,179,2020-07-08T15:05:50-07:00,1.6660830974579,4,versionC_stim.csv,READVersionD.csv,"Read Version D","Dissertation, read only version D",BUTTER,PEANUT,BUFFER1,Buffer,3,6,Study,User,-,,Study/JOL,BUFFER3,1039,,,-1,-1,,,,1
5d35989e71b4880017d5cc81,qvs8jvjjqt,Nick_Dissertation_EX1,1,180,2020-07-08T15:05:52-07:00,2.3198738098145,4,versionC_stim.csv,READVersionD.csv,"Read Version D","Dissertation, read only version D",JAM,SPACE,BUFFER1,Buffer,5,4,Study,User,-,,Study/JOL,BUFFER3,1797,,,-1,-1,,,,1
5d35989e71b4880017d5cc81,qvs8jvjjqt,Nick_Dissertation_EX1,1,181,2020-07-08T15:05:54-07:00,1.3230690956116,4,versionC_stim.csv,READVersionD.csv,"Read Version D","Dissertation, read only version D",BAR,GRILL,Study1,S,52,63,Study,User,-,,Study/JOL,"Study Phase2",883,,,-1,-1,,,,1
5d35989e71b4880017d5cc81,qvs8jvjjqt,Nick_Dissertation_EX1,1,182,2020-07-08T15:05:56-07:00,2.1555058956146,4,versionC_stim.csv,READVersionD.csv,"Read Version D","Dissertation, read only version D",FISH,TUNA,Study1,B,25,37,Study,User,-,,Study/JOL,"Study Phase2",1609,,,-1,-1,,,,1
5d35989e71b4880017d5cc81,qvs8jvjjqt,Nick_Dissertation_EX1,1,183,2020-07-08T15:05:57-07:00,1.4725580215454,4,versionC_stim.csv,READVersionD.csv,"Read Version D","Dissertation, read only version D",PLANT,ROOT,Study1,B,13,39,Study,User,-,,Study/JOL,"Study Phase2",1046,,,-1,-1,,,,1
5d35989e71b4880017d5cc81,qvs8jvjjqt,Nick_Dissertation_EX1,1,184,2020-07-08T15:05:59-07:00,1.5424690246582,4,versionC_stim.csv,READVersionD.csv,"Read Version D","Dissertation, read only version D",BEE,HONEY,Study1,S,63,50,Study,User,-,,Study/JOL,"Study Phase2",1058,,,-1,-1,,,,1
5d35989e71b4880017d5cc81,qvs8jvjjqt,Nick_Dissertation_EX1,1,185,2020-07-08T15:06:00-07:00,1.3434391021729,4,versionC_stim.csv,READVersionD.csv,"Read Version D","Dissertation, read only version D",LIVER,KIDNEY,Study1,S,53,13,Study,User,-,,Study/JOL,"Study Phase2",912,,,-1,-1,,,,1
5d35989e71b4880017d5cc81,qvs8jvjjqt,Nick_Dissertation_EX1,1,186,2020-07-08T15:06:02-07:00,1.5320708751678,4,versionC_stim.csv,READVersionD.csv,"Read Version D","Dissertation, read only version D",AMOUNT,NUMBER,Study1,S,47,76,Study,User,-,,Study/JOL,"Study Phase2",1016,,,-1,-1,,,,1
5d35989e71b4880017d5cc81,qvs8jvjjqt,Nick_Dissertation_EX1,1,187,2020-07-08T15:06:03-07:00,1.5483920574188,4,versionC_stim.csv,READVersionD.csv,"Read Version D","Dissertation, read only version D",BRONZE,ARTERY,Study1,U,74,22,Study,User,-,,Study/JOL,"Study Phase2",1119,,,-1,-1,,,,1
5d35989e71b4880017d5cc81,qvs8jvjjqt,Nick_Dissertation_EX1,1,188,2020-07-08T15:06:05-07:00,1.4050481319427,4,versionC_stim.csv,READVersionD.csv,"Read Version D","Dissertation, read only version D",STENCH,SMELL,Study1,F,42,65,Study,User,-,,Study/JOL,"Study Phase2",958,,,-1,-1,,,,1
5d35989e71b4880017d5cc81,qvs8jvjjqt,Nick_Dissertation_EX1,1,189,2020-07-08T15:06:06-07:00,1.4077928066254,4,versionC_stim.csv,READVersionD.csv,"Read Version D","Dissertation, read only version D",BUSINESS,DEATH,Study1,U,72,29,Study,User,-,,Study/JOL,"Study Phase2",929,,,-1,-1,,,,1
5d35989e71b4880017d5cc81,qvs8jvjjqt,Nick_Dissertation_EX1,1,190,2020-07-08T15:06:07-07:00,1.1683521270752,4,versionC_stim.csv,READVersionD.csv,"Read Version D","Dissertation, read only version D",SIP,DRINK,Study1,F,27,70,Study,User,-,,Study/JOL,"Study Phase2",714,,,-1,-1,,,,1
5d35989e71b4880017d5cc81,qvs8jvjjqt,Nick_Dissertation_EX1,1,191,2020-07-08T15:06:08-07:00,1.1200320720673,4,versionC_stim.csv,READVersionD.csv,"Read Version D","Dissertation, read only version D",DROWSY,SLEEP,Study1,F,41,20,Study,User,-,,Study/JOL,"Study Phase2",640,,,-1,-1,,,,1
5d35989e71b4880017d5cc81,qvs8jvjjqt,Nick_Dissertation_EX1,1,192,2020-07-08T15:06:10-07:00,1.1010768413544,4,versionC_stim.csv,READVersionD.csv,"Read Version D","Dissertation, read only version D",GROWTH,HEIGHT,Study1,F,30,85,Study,User,-,,Study/JOL,"Study Phase2",652,,,-1,-1,,,,1
5d35989e71b4880017d5cc81,qvs8jvjjqt,Nick_Dissertation_EX1,1,193,2020-07-08T15:06:11-07:00,1.1974840164185,4,versionC_stim.csv,READVersionD.csv,"Read Version D","Dissertation, read only version D",BAD,DELINQUENT,Study1,B,6,79,Study,User,-,,Study/JOL,"Study Phase2",725,,,-1,-1,,,,1
5d35989e71b4880017d5cc81,qvs8jvjjqt,Nick_Dissertation_EX1,1,194,2020-07-08T15:06:12-07:00,1.2173249721527,4,versionC_stim.csv,READVersionD.csv,"Read Version D","Dissertation, read only version D",JURY,TRIAL,Study1,S,50,48,Study,User,-,,Study/JOL,"Study Phase2",775,,,-1,-1,,,,1
5d35989e71b4880017d5cc81,qvs8jvjjqt,Nick_Dissertation_EX1,1,195,2020-07-08T15:06:13-07:00,1.2476260662079,4,versionC_stim.csv,READVersionD.csv,"Read Version D","Dissertation, read only version D",RACKET,BALL,Study1,F,38,42,Study,User,-,,Study/JOL,"Study Phase2",775,,,-1,-1,,,,1
5d35989e71b4880017d5cc81,qvs8jvjjqt,Nick_Dissertation_EX1,1,196,2020-07-08T15:06:14-07:00,1.2378749847412,4,versionC_stim.csv,READVersionD.csv,"Read Version D","Dissertation, read only version D",FOOT,SHOE,Study1,S,60,61,Study,User,-,,Study/JOL,"Study Phase2",802,,,-1,-1,,,,1
5d35989e71b4880017d5cc81,qvs8jvjjqt,Nick_Dissertation_EX1,1,197,2020-07-08T15:06:16-07:00,1.1334240436554,4,versionC_stim.csv,READVersionD.csv,"Read Version D","Dissertation, read only version D",SACKING,DIETARY,Study1,U,67,62,Study,User,-,,Study/JOL,"Study Phase2",666,,,-1,-1,,,,1
5d35989e71b4880017d5cc81,qvs8jvjjqt,Nick_Dissertation_EX1,1,198,2020-07-08T15:06:17-07:00,1.3081660270691,4,versionC_stim.csv,READVersionD.csv,"Read Version D","Dissertation, read only version D",DOG,PAW,Study1,B,15,69,Study,User,-,,Study/JOL,"Study Phase2",845,,,-1,-1,,,,1
5d35989e71b4880017d5cc81,qvs8jvjjqt,Nick_Dissertation_EX1,1,199,2020-07-08T15:06:18-07:00,1.1225409507751,4,versionC_stim.csv,READVersionD.csv,"Read Version D","Dissertation, read only version D",CHILI,HOT,Study1,F,37,18,Study,User,-,,Study/JOL,"Study Phase2",681,,,-1,-1,,,,1
5d35989e71b4880017d5cc81,qvs8jvjjqt,Nick_Dissertation_EX1,1,200,2020-07-08T15:06:19-07:00,1.1450169086456,4,versionC_stim.csv,READVersionD.csv,"Read Version D","Dissertation, read only version D",SIGHT,DEBATE,Study1,U,73,73,Study,User,-,,Study/JOL,"Study Phase2",708,,,-1,-1,,,,1
5d35989e71b4880017d5cc81,qvs8jvjjqt,Nick_Dissertation_EX1,1,201,2020-07-08T15:06:20-07:00,1.1715970039368,4,versionC_stim.csv,READVersionD.csv,"Read Version D","Dissertation, read only version D",LION,ART,Study1,U,79,23,Study,User,-,,Study/JOL,"Study Phase2",696,,,-1,-1,,,,1
5d35989e71b4880017d5cc81,qvs8jvjjqt,Nick_Dissertation_EX1,1,202,2020-07-08T15:06:21-07:00,1.0565791130066,4,versionC_stim.csv,READVersionD.csv,"Read Version D","Dissertation, read only version D",CARD,CREDIT,Study1,B,23,67,Study,User,-,,Study/JOL,"Study Phase2",632,,,-1,-1,,,,1
5d35989e71b4880017d5cc81,qvs8jvjjqt,Nick_Dissertation_EX1,1,203,2020-07-08T15:06:23-07:00,1.1787178516388,4,versionC_stim.csv,READVersionD.csv,"Read Version D","Dissertation, read only version D",DIVISION,MATH,Study1,F,33,26,Study,User,-,,Study/JOL,"Study Phase2",700,,,-1,-1,,,,1
5d35989e71b4880017d5cc81,qvs8jvjjqt,Nick_Dissertation_EX1,1,204,2020-07-08T15:06:24-07:00,1.1841540336609,4,versionC_stim.csv,READVersionD.csv,"Read Version D","Dissertation, read only version D",CAR,HAPPY,Study1,U,77,57,Study,User,-,,Study/JOL,"Study Phase2",739,,,-1,-1,,,,1
5d35989e71b4880017d5cc81,qvs8jvjjqt,Nick_Dissertation_EX1,1,205,2020-07-08T15:06:25-07:00,1.1919920444489,4,versionC_stim.csv,READVersionD.csv,"Read Version D","Dissertation, read only version D",FAMINE,HUNGER,Study1,F,40,27,Study,User,-,,Study/JOL,"Study Phase2",690,,,-1,-1,,,,1
5d35989e71b4880017d5cc81,qvs8jvjjqt,Nick_Dissertation_EX1,1,206,2020-07-08T15:06:26-07:00,1.1001501083374,4,versionC_stim.csv,READVersionD.csv,"Read Version D","Dissertation, read only version D",HAND,FIX,Study1,U,75,10,Study,User,-,,Study/JOL,"Study Phase2",671,,,-1,-1,,,,1
5d35989e71b4880017d5cc81,qvs8jvjjqt,Nick_Dissertation_EX1,1,207,2020-07-08T15:06:27-07:00,1.1342318058014,4,versionC_stim.csv,READVersionD.csv,"Read Version D","Dissertation, read only version D",OUT,WAY,Study1,B,16,59,Study,User,-,,Study/JOL,"Study Phase2",682,,,-1,-1,,,,1
5d35989e71b4880017d5cc81,qvs8jvjjqt,Nick_Dissertation_EX1,1,208,2020-07-08T15:06:28-07:00,1.1237652301788,4,versionC_stim.csv,READVersionD.csv,"Read Version D","Dissertation, read only version D",SEIZE,TAKE,Study1,F,29,31,Study,User,-,,Study/JOL,"Study Phase2",700,,,-1,-1,,,,1
5d35989e71b4880017d5cc81,qvs8jvjjqt,Nick_Dissertation_EX1,1,209,2020-07-08T15:06:29-07:00,1.1137609481812,4,versionC_stim.csv,READVersionD.csv,"Read Version D","Dissertation, read only version D",CAVE,DARK,Study1,F,28,35,Study,User,-,,Study/JOL,"Study Phase2",623,,,-1,-1,,,,1
5d35989e71b4880017d5cc81,qvs8jvjjqt,Nick_Dissertation_EX1,1,210,2020-07-08T15:06:30-07:00,1.0702359676361,4,versionC_stim.csv,READVersionD.csv,"Read Version D","Dissertation, read only version D",CHORE,WORK,Study1,F,39,56,Study,User,-,,Study/JOL,"Study Phase2",627,,,-1,-1,,,,1
5d35989e71b4880017d5cc81,qvs8jvjjqt,Nick_Dissertation_EX1,1,211,2020-07-08T15:06:32-07:00,1.094899892807,4,versionC_stim.csv,READVersionD.csv,"Read Version D","Dissertation, read only version D",DEFINITION,MEANING,Study1,S,62,58,Study,User,-,,Study/JOL,"Study Phase2",637,,,-1,-1,,,,1
5d35989e71b4880017d5cc81,qvs8jvjjqt,Nick_Dissertation_EX1,1,212,2020-07-08T15:06:33-07:00,1.0381550788879,4,versionC_stim.csv,READVersionD.csv,"Read Version D","Dissertation, read only version D",STOMACH,DIGESTION,Study1,B,7,21,Study,User,-,,Study/JOL,"Study Phase2",588,,,-1,-1,,,,1
5d35989e71b4880017d5cc81,qvs8jvjjqt,Nick_Dissertation_EX1,1,213,2020-07-08T15:06:34-07:00,1.0138568878174,4,versionC_stim.csv,READVersionD.csv,"Read Version D","Dissertation, read only version D",ENOUGH,FULL,Study1,F,26,11,Study,User,-,,Study/JOL,"Study Phase2",558,,,-1,-1,,,,1
5d35989e71b4880017d5cc81,qvs8jvjjqt,Nick_Dissertation_EX1,1,214,2020-07-08T15:06:35-07:00,1.0701310634613,4,versionC_stim.csv,READVersionD.csv,"Read Version D","Dissertation, read only version D",HUNGRY,PARK,Study1,U,68,16,Study,User,-,,Study/JOL,"Study Phase2",635,,,-1,-1,,,,1
5d35989e71b4880017d5cc81,qvs8jvjjqt,Nick_Dissertation_EX1,1,215,2020-07-08T15:06:36-07:00,1.1244580745697,4,versionC_stim.csv,READVersionD.csv,"Read Version D","Dissertation, read only version D",CHEESE,WINE,Study1,S,57,55,Study,User,-,,Study/JOL,"Study Phase2",654,,,-1,-1,,,,1
5d35989e71b4880017d5cc81,qvs8jvjjqt,Nick_Dissertation_EX1,1,216,2020-07-08T15:06:37-07:00,1.1046628952026,4,versionC_stim.csv,READVersionD.csv,"Read Version D","Dissertation, read only version D",FLOWER,ORCHID,Study1,B,24,30,Study,User,-,,Study/JOL,"Study Phase2",655,,,-1,-1,,,,1
5d35989e71b4880017d5cc81,qvs8jvjjqt,Nick_Dissertation_EX1,1,217,2020-07-08T15:06:38-07:00,1.0196270942688,4,versionC_stim.csv,READVersionD.csv,"Read Version D","Dissertation, read only version D",FANTASTIC,GREAT,Study1,F,35,32,Study,User,-,,Study/JOL,"Study Phase2",563,,,-1,-1,,,,1
5d35989e71b4880017d5cc81,qvs8jvjjqt,Nick_Dissertation_EX1,1,218,2020-07-08T15:06:39-07:00,1.1186079978943,4,versionC_stim.csv,READVersionD.csv,"Read Version D","Dissertation, read only version D",LATCH,KEY,Study1,F,36,80,Study,User,-,,Study/JOL,"Study Phase2",636,,,-1,-1,,,,1
5d35989e71b4880017d5cc81,qvs8jvjjqt,Nick_Dissertation_EX1,1,219,2020-07-08T15:06:40-07:00,1.1133790016174,4,versionC_stim.csv,READVersionD.csv,"Read Version D","Dissertation, read only version D",WORD,SENTENCE,Study1,F,31,44,Study,User,-,,Study/JOL,"Study Phase2",660,,,-1,-1,,,,1
5d35989e71b4880017d5cc81,qvs8jvjjqt,Nick_Dissertation_EX1,1,220,2020-07-08T15:06:41-07:00,1.0715219974518,4,versionC_stim.csv,READVersionD.csv,"Read Version D","Dissertation, read only version D",SICK,HIDE,Study1,U,84,9,Study,User,-,,Study/JOL,"Study Phase2",616,,,-1,-1,,,,1
5d35989e71b4880017d5cc81,qvs8jvjjqt,Nick_Dissertation_EX1,1,221,2020-07-08T15:06:42-07:00,1.048702955246,4,versionC_stim.csv,READVersionD.csv,"Read Version D","Dissertation, read only version D",SITE,LOCATION,Study1,S,48,47,Study,User,-,,Study/JOL,"Study Phase2",573,,,-1,-1,,,,1
5d35989e71b4880017d5cc81,qvs8jvjjqt,Nick_Dissertation_EX1,1,222,2020-07-08T15:06:43-07:00,1.0493519306183,4,versionC_stim.csv,READVersionD.csv,"Read Version D","Dissertation, read only version D",COW,HERD,Study1,B,22,8,Study,User,-,,Study/JOL,"Study Phase2",617,,,-1,-1,,,,1
5d35989e71b4880017d5cc81,qvs8jvjjqt,Nick_Dissertation_EX1,1,223,2020-07-08T15:06:44-07:00,1.075501203537,4,versionC_stim.csv,READVersionD.csv,"Read Version D","Dissertation, read only version D",DESIGN,ARCHITECTURE,Study1,S,51,33,Study,User,-,,Study/JOL,"Study Phase2",606,,,-1,-1,,,,1
5d35989e71b4880017d5cc81,qvs8jvjjqt,Nick_Dissertation_EX1,1,224,2020-07-08T15:06:45-07:00,1.0598328113556,4,versionC_stim.csv,READVersionD.csv,"Read Version D","Dissertation, read only version D",NEWS,EDITOR,Study1,B,10,86,Study,User,-,,Study/JOL,"Study Phase2",646,,,-1,-1,,,,1
5d35989e71b4880017d5cc81,qvs8jvjjqt,Nick_Dissertation_EX1,1,225,2020-07-08T15:06:46-07:00,1.01962018013,4,versionC_stim.csv,READVersionD.csv,"Read Version D","Dissertation, read only version D",CLEAN,HYGIENE,Study1,B,17,74,Study,User,-,,Study/JOL,"Study Phase2",557,,,-1,-1,,,,1
5d35989e71b4880017d5cc81,qvs8jvjjqt,Nick_Dissertation_EX1,1,226,2020-07-08T15:06:48-07:00,1.1803879737854,4,versionC_stim.csv,READVersionD.csv,"Read Version D","Dissertation, read only version D",VASE,KING,Study1,U,85,54,Study,User,-,,Study/JOL,"Study Phase2",750,,,-1,-1,,,,1
5d35989e71b4880017d5cc81,qvs8jvjjqt,Nick_Dissertation_EX1,1,227,2020-07-08T15:06:49-07:00,1.1050310134888,4,versionC_stim.csv,READVersionD.csv,"Read Version D","Dissertation, read only version D",POSITION,MACHINE,Study1,U,76,15,Study,User,-,,Study/JOL,"Study Phase2",635,,,-1,-1,,,,1
5d35989e71b4880017d5cc81,qvs8jvjjqt,Nick_Dissertation_EX1,1,228,2020-07-08T15:06:50-07:00,1.0771780014038,4,versionC_stim.csv,READVersionD.csv,"Read Version D","Dissertation, read only version D",ROCK,GEOLOGY,Study1,B,19,66,Study,User,-,,Study/JOL,"Study Phase2",633,,,-1,-1,,,,1
5d35989e71b4880017d5cc81,qvs8jvjjqt,Nick_Dissertation_EX1,1,229,2020-07-08T15:06:51-07:00,1.0630009174347,4,versionC_stim.csv,READVersionD.csv,"Read Version D","Dissertation, read only version D",ADD,VALLEY,Study1,U,82,68,Study,User,-,,Study/JOL,"Study Phase2",585,,,-1,-1,,,,1
5d35989e71b4880017d5cc81,qvs8jvjjqt,Nick_Dissertation_EX1,1,230,2020-07-08T15:06:52-07:00,1.07017993927,4,versionC_stim.csv,READVersionD.csv,"Read Version D","Dissertation, read only version D",HAMMER,CHISEL,Study1,B,9,28,Study,User,-,,Study/JOL,"Study Phase2",627,,,-1,-1,,,,1
5d35989e71b4880017d5cc81,qvs8jvjjqt,Nick_Dissertation_EX1,1,231,2020-07-08T15:06:53-07:00,1.0693981647491,4,versionC_stim.csv,READVersionD.csv,"Read Version D","Dissertation, read only version D",WASTE,DUMP,Study1,S,49,36,Study,User,-,,Study/JOL,"Study Phase2",593,,,-1,-1,,,,1
5d35989e71b4880017d5cc81,qvs8jvjjqt,Nick_Dissertation_EX1,1,232,2020-07-08T15:06:54-07:00,1.0530388355255,4,versionC_stim.csv,READVersionD.csv,"Read Version D","Dissertation, read only version D",STING,HORNET,Study1,B,11,51,Study,User,-,,Study/JOL,"Study Phase2",606,,,-1,-1,,,,1
5d35989e71b4880017d5cc81,qvs8jvjjqt,Nick_Dissertation_EX1,1,233,2020-07-08T15:06:55-07:00,1.1277141571045,4,versionC_stim.csv,READVersionD.csv,"Read Version D","Dissertation, read only version D",BLAZE,FIRE,Study1,F,45,83,Study,User,-,,Study/JOL,"Study Phase2",702,,,-1,-1,,,,1
5d35989e71b4880017d5cc81,qvs8jvjjqt,Nick_Dissertation_EX1,1,234,2020-07-08T15:06:56-07:00,1.0695669651031,4,versionC_stim.csv,READVersionD.csv,"Read Version D","Dissertation, read only version D",TUCK,ALLOW,Study1,U,78,46,Study,User,-,,Study/JOL,"Study Phase2",606,,,-1,-1,,,,1
5d35989e71b4880017d5cc81,qvs8jvjjqt,Nick_Dissertation_EX1,1,235,2020-07-08T15:06:57-07:00,1.0683109760284,4,versionC_stim.csv,READVersionD.csv,"Read Version D","Dissertation, read only version D",FUTURE,PAST,Study1,S,61,19,Study,User,-,,Study/JOL,"Study Phase2",578,,,-1,-1,,,,1
5d35989e71b4880017d5cc81,qvs8jvjjqt,Nick_Dissertation_EX1,1,236,2020-07-08T15:06:58-07:00,1.0907609462738,4,versionC_stim.csv,READVersionD.csv,"Read Version D","Dissertation, read only version D",WIND,BLOW,Study1,S,55,60,Study,User,-,,Study/JOL,"Study Phase2",641,,,-1,-1,,,,1
5d35989e71b4880017d5cc81,qvs8jvjjqt,Nick_Dissertation_EX1,1,237,2020-07-08T15:07:00-07:00,1.1034700870514,4,versionC_stim.csv,READVersionD.csv,"Read Version D","Dissertation, read only version D",WASP,BUG,Study1,F,32,14,Study,User,-,,Study/JOL,"Study Phase2",617,,,-1,-1,,,,1
5d35989e71b4880017d5cc81,qvs8jvjjqt,Nick_Dissertation_EX1,1,238,2020-07-08T15:07:01-07:00,1.048770904541,4,versionC_stim.csv,READVersionD.csv,"Read Version D","Dissertation, read only version D",WAR,REVOLUTION,Study1,B,20,84,Study,User,-,,Study/JOL,"Study Phase2",597,,,-1,-1,,,,1
5d35989e71b4880017d5cc81,qvs8jvjjqt,Nick_Dissertation_EX1,1,239,2020-07-08T15:07:02-07:00,1.1256139278412,4,versionC_stim.csv,READVersionD.csv,"Read Version D","Dissertation, read only version D",RIDDLE,SUGAR,Study1,U,81,7,Study,User,-,,Study/JOL,"Study Phase2",643,,,-1,-1,,,,1
5d35989e71b4880017d5cc81,qvs8jvjjqt,Nick_Dissertation_EX1,1,240,2020-07-08T15:07:03-07:00,1.0835750102997,4,versionC_stim.csv,READVersionD.csv,"Read Version D","Dissertation, read only version D",ATTIRE,CLOTHES,Study1,F,43,81,Study,User,-,,Study/JOL,"Study Phase2",608,,,-1,-1,,,,1
5d35989e71b4880017d5cc81,qvs8jvjjqt,Nick_Dissertation_EX1,1,241,2020-07-08T15:07:04-07:00,1.1062881946564,4,versionC_stim.csv,READVersionD.csv,"Read Version D","Dissertation, read only version D",WOULD,CASH,Study1,U,83,41,Study,User,-,,Study/JOL,"Study Phase2",619,,,-1,-1,,,,1
5d35989e71b4880017d5cc81,qvs8jvjjqt,Nick_Dissertation_EX1,1,242,2020-07-08T15:07:05-07:00,1.0450508594513,4,versionC_stim.csv,READVersionD.csv,"Read Version D","Dissertation, read only version D",COLD,BITTER,Study1,B,12,43,Study,User,-,,Study/JOL,"Study Phase2",545,,,-1,-1,,,,1
5d35989e71b4880017d5cc81,qvs8jvjjqt,Nick_Dissertation_EX1,1,243,2020-07-08T15:07:06-07:00,1.0370390415192,4,versionC_stim.csv,READVersionD.csv,"Read Version D","Dissertation, read only version D",WOMAN,LIFT,Study1,U,69,52,Study,User,-,,Study/JOL,"Study Phase2",526,,,-1,-1,,,,1
5d35989e71b4880017d5cc81,qvs8jvjjqt,Nick_Dissertation_EX1,1,244,2020-07-08T15:07:07-07:00,1.0884130001068,4,versionC_stim.csv,READVersionD.csv,"Read Version D","Dissertation, read only version D",TOILET,BATHROOM,Study1,S,58,75,Study,User,-,,Study/JOL,"Study Phase2",612,,,-1,-1,,,,1
5d35989e71b4880017d5cc81,qvs8jvjjqt,Nick_Dissertation_EX1,1,245,2020-07-08T15:07:10-07:00,2.7727339267731,4,versionC_stim.csv,READVersionD.csv,"Read Version D","Dissertation, read only version D",ATTORNEY,LAW,Study1,F,34,45,Study,User,-,,Study/JOL,"Study Phase2",1227,,,-1,-1,,,,1
5d35989e71b4880017d5cc81,qvs8jvjjqt,Nick_Dissertation_EX1,1,246,2020-07-08T15:07:11-07:00,1.2066011428833,4,versionC_stim.csv,READVersionD.csv,"Read Version D","Dissertation, read only version D",PILOT,PLANE,Study1,F,44,24,Study,User,-,,Study/JOL,"Study Phase2",781,,,-1,-1,,,,1
5d35989e71b4880017d5cc81,qvs8jvjjqt,Nick_Dissertation_EX1,1,247,2020-07-08T15:07:12-07:00,1.3943409919739,4,versionC_stim.csv,READVersionD.csv,"Read Version D","Dissertation, read only version D",SODA,POP,Study1,S,56,53,Study,User,-,,Study/JOL,"Study Phase2",817,,,-1,-1,,,,1
5d35989e71b4880017d5cc81,qvs8jvjjqt,Nick_Dissertation_EX1,1,248,2020-07-08T15:07:14-07:00,1.2455289363861,4,versionC_stim.csv,READVersionD.csv,"Read Version D","Dissertation, read only version D",ACCIDENT,STRONG,Study1,U,80,49,Study,User,-,,Study/JOL,"Study Phase2",731,,,-1,-1,,,,1
5d35989e71b4880017d5cc81,qvs8jvjjqt,Nick_Dissertation_EX1,1,249,2020-07-08T15:07:15-07:00,1.2683029174805,4,versionC_stim.csv,READVersionD.csv,"Read Version D","Dissertation, read only version D",BIRD,SWAN,Study1,B,14,77,Study,User,-,,Study/JOL,"Study Phase2",706,,,-1,-1,,,,1
5d35989e71b4880017d5cc81,qvs8jvjjqt,Nick_Dissertation_EX1,1,250,2020-07-08T15:07:16-07:00,1.1320421695709,4,versionC_stim.csv,READVersionD.csv,"Read Version D","Dissertation, read only version D",SALAD,LETTUCE,Study1,S,59,71,Study,User,-,,Study/JOL,"Study Phase2",718,,,-1,-1,,,,1
5d35989e71b4880017d5cc81,qvs8jvjjqt,Nick_Dissertation_EX1,1,251,2020-07-08T15:07:17-07:00,1.2425508499146,4,versionC_stim.csv,READVersionD.csv,"Read Version D","Dissertation, read only version D",CLUTTER,PUSHER,Study1,U,66,38,Study,User,-,,Study/JOL,"Study Phase2",723,,,-1,-1,,,,1
5d35989e71b4880017d5cc81,qvs8jvjjqt,Nick_Dissertation_EX1,1,252,2020-07-08T15:07:19-07:00,1.1905760765076,4,versionC_stim.csv,READVersionD.csv,"Read Version D","Dissertation, read only version D",CHILD,BABY,Study1,S,64,34,Study,User,-,,Study/JOL,"Study Phase2",758,,,-1,-1,,,,1
5d35989e71b4880017d5cc81,qvs8jvjjqt,Nick_Dissertation_EX1,1,253,2020-07-08T15:07:21-07:00,1.9834520816803,4,versionC_stim.csv,READVersionD.csv,"Read Version D","Dissertation, read only version D",WATER,BRIDGE,Study1,B,18,12,Study,User,-,,Study/JOL,"Study Phase2",847,,,-1,-1,,,,1
5d35989e71b4880017d5cc81,qvs8jvjjqt,Nick_Dissertation_EX1,1,254,2020-07-08T15:07:22-07:00,1.2044489383698,4,versionC_stim.csv,READVersionD.csv,"Read Version D","Dissertation, read only version D",END,BEGIN,Study1,S,54,72,Study,User,-,,Study/JOL,"Study Phase2",759,,,-1,-1,,,,1
5d35989e71b4880017d5cc81,qvs8jvjjqt,Nick_Dissertation_EX1,1,255,2020-07-08T15:07:23-07:00,1.2822029590607,4,versionC_stim.csv,READVersionD.csv,"Read Version D","Dissertation, read only version D",BELT,SOON,Study1,U,70,40,Study,User,-,,Study/JOL,"Study Phase2",842,,,-1,-1,,,,1
5d35989e71b4880017d5cc81,qvs8jvjjqt,Nick_Dissertation_EX1,1,256,2020-07-08T15:07:24-07:00,1.2566161155701,4,versionC_stim.csv,READVersionD.csv,"Read Version D","Dissertation, read only version D",FLOOR,DISCOVER,Study1,U,71,25,Study,User,-,,Study/JOL,"Study Phase2",774,,,-1,-1,,,,1
5d35989e71b4880017d5cc81,qvs8jvjjqt,Nick_Dissertation_EX1,1,257,2020-07-08T15:07:26-07:00,1.5343677997589,4,versionC_stim.csv,READVersionD.csv,"Read Version D","Dissertation, read only version D",MONEY,WAGE,Study1,B,8,82,Study,User,-,,Study/JOL,"Study Phase2",1061,,,-1,-1,,,,1
5d35989e71b4880017d5cc81,qvs8jvjjqt,Nick_Dissertation_EX1,1,258,2020-07-08T15:07:27-07:00,1.1628789901733,4,versionC_stim.csv,READVersionD.csv,"Read Version D","Dissertation, read only version D",TALK,DISCUSSION,Study1,B,21,64,Study,User,-,,Study/JOL,"Study Phase2",733,,,-1,-1,,,,1
5d35989e71b4880017d5cc81,qvs8jvjjqt,Nick_Dissertation_EX1,1,259,2020-07-08T15:07:28-07:00,1.2121651172638,4,versionC_stim.csv,READVersionD.csv,"Read Version D","Dissertation, read only version D",ROUND,CIRCLE,Study1,S,65,17,Study,User,-,,Study/JOL,"Study Phase2",670,,,-1,-1,,,,1
5d35989e71b4880017d5cc81,qvs8jvjjqt,Nick_Dissertation_EX1,1,260,2020-07-08T15:07:29-07:00,1.0798499584198,4,versionC_stim.csv,READVersionD.csv,"Read Version D","Dissertation, read only version D",ASSIGNMENT,DUE,Study1,S,46,78,Study,User,-,,Study/JOL,"Study Phase2",651,,,-1,-1,,,,1
5d35989e71b4880017d5cc81,qvs8jvjjqt,Nick_Dissertation_EX1,1,261,2020-07-08T15:07:30-07:00,0.99506306648254,4,versionC_stim.csv,READVersionD.csv,"Read Version D","Dissertation, read only version D",CHOCOLATE,MALT,BUFFER2,Buffer,88,91,Study,User,-,,Study/JOL,BUFFER4,539,,,-1,-1,,,,1
5d35989e71b4880017d5cc81,qvs8jvjjqt,Nick_Dissertation_EX1,1,262,2020-07-08T15:07:31-07:00,1.0329790115356,4,versionC_stim.csv,READVersionD.csv,"Read Version D","Dissertation, read only version D",SPACE,MOON,BUFFER2,Buffer,89,90,Study,User,-,,Study/JOL,BUFFER4,608,,,-1,-1,,,,1
5d35989e71b4880017d5cc81,qvs8jvjjqt,Nick_Dissertation_EX1,1,263,2020-07-08T15:07:32-07:00,1.0308849811554,4,versionC_stim.csv,READVersionD.csv,"Read Version D","Dissertation, read only version D",STUFF,THING,BUFFER2,Buffer,90,88,Study,User,-,,Study/JOL,BUFFER4,593,,,-1,-1,,,,1
5d35989e71b4880017d5cc81,qvs8jvjjqt,Nick_Dissertation_EX1,1,264,2020-07-08T15:07:33-07:00,1.0413410663605,4,versionC_stim.csv,READVersionD.csv,"Read Version D","Dissertation, read only version D",GOOSE,GEESE,BUFFER2,Buffer,86,89,Study,User,-,,Study/JOL,BUFFER4,624,,,-1,-1,,,,1
5d35989e71b4880017d5cc81,qvs8jvjjqt,Nick_Dissertation_EX1,1,265,2020-07-08T15:07:34-07:00,1.1035759449005,4,versionC_stim.csv,READVersionD.csv,"Read Version D","Dissertation, read only version D",POLICE,SHERRIF,BUFFER2,Buffer,87,87,Study,User,-,,Study/JOL,BUFFER4,601,,,-1,-1,,,,1
5d35989e71b4880017d5cc81,qvs8jvjjqt,Nick_Dissertation_EX1,1,266,2020-07-08T15:07:36-07:00,1.7690389156342,4,versionC_stim.csv,READVersionD.csv,"Read Version D","Dissertation, read only version D",,,,,,0,Instruct,User,-,"You have completed this section. Please press Enter.",Filler_Instruction,Instruct5,1355,,,-1,-1,,,,1
5d35989e71b4880017d5cc81,qvs8jvjjqt,Nick_Dissertation_EX1,1,267,2020-07-08T15:09:37-07:00,120.60445308685,4,versionC_stim.csv,READVersionD.csv,"Read Version D","Dissertation, read only version D",,,,,,0,FreeRecall,120,120,"Please list the 50 US states in reverse alphabetical order (z - a). The task will automatically advance to the next screen after two minutes.",,Filler2,120003,"Wyoming Wisconsin WestVirginia Washington Virginia Vermont Utah Texas ",0,-1,-1,0,0,,1
5d35989e71b4880017d5cc81,qvs8jvjjqt,Nick_Dissertation_EX1,1,268,2020-07-08T15:09:57-07:00,20.030212879181,4,versionC_stim.csv,READVersionD.csv,"Read Version D","Dissertation, read only version D",,,,,,0,Instruct,-,10,"You will now be presented with the first word from each of the previously studied item pairs. Please type the missing word. If you do not know the word, you may guess or press Enter to skip forward to the next pair.",,Instruct6,19511,,,-1,-1,,,,1
5d35989e71b4880017d5cc81,qvs8jvjjqt,Nick_Dissertation_EX1,1,269,2020-07-08T15:10:03-07:00,5.9459321498871,4,versionC_stim.csv,READVersionD.csv,"Read Version D","Dissertation, read only version D",WOMAN,LIFT,Study1,U,69,52,Test,User,-,,Recall,Recall2,5496,MAN,0,-1,-1,0,0,,1
5d35989e71b4880017d5cc81,qvs8jvjjqt,Nick_Dissertation_EX1,1,270,2020-07-08T15:10:09-07:00,5.9443688392639,4,versionC_stim.csv,READVersionD.csv,"Read Version D","Dissertation, read only version D",SALAD,LETTUCE,Study1,S,59,71,Test,User,-,,Recall,Recall2,5480,LEAVES,46.153846153846,-1,-1,0,0,,1
5d35989e71b4880017d5cc81,qvs8jvjjqt,Nick_Dissertation_EX1,1,271,2020-07-08T15:10:15-07:00,6.2685971260071,4,versionC_stim.csv,READVersionD.csv,"Read Version D","Dissertation, read only version D",SITE,LOCATION,Study1,S,48,47,Test,User,-,,Recall,Recall2,5750,CAMP,33.333333333333,-1,-1,0,0,,1
5d35989e71b4880017d5cc81,qvs8jvjjqt,Nick_Dissertation_EX1,1,272,2020-07-08T15:10:20-07:00,4.5029940605164,4,versionC_stim.csv,READVersionD.csv,"Read Version D","Dissertation, read only version D",CHILD,BABY,Study1,S,64,34,Test,User,-,,Recall,Recall2,4017,ADULT,22.222222222222,-1,-1,0,0,,1
5d35989e71b4880017d5cc81,qvs8jvjjqt,Nick_Dissertation_EX1,1,273,2020-07-08T15:10:27-07:00,7.3400168418884,4,versionC_stim.csv,READVersionD.csv,"Read Version D","Dissertation, read only version D",LIVER,KIDNEY,Study1,S,53,13,Test,User,-,,Recall,Recall2,5756,KIDNEY,100,-1,-1,1,1,,1
5d35989e71b4880017d5cc81,qvs8jvjjqt,Nick_Dissertation_EX1,1,274,2020-07-08T15:10:31-07:00,3.9993050098419,4,versionC_stim.csv,READVersionD.csv,"Read Version D","Dissertation, read only version D",WOULD,CASH,Study1,U,83,41,Test,User,-,,Recall,Recall2,3481,COULD,22.222222222222,-1,-1,0,0,,1
5d35989e71b4880017d5cc81,qvs8jvjjqt,Nick_Dissertation_EX1,1,275,2020-07-08T15:10:35-07:00,4.3411090373993,4,versionC_stim.csv,READVersionD.csv,"Read Version D","Dissertation, read only version D",TOILET,BATHROOM,Study1,S,58,75,Test,User,-,,Recall,Recall2,3860,SEAT,33.333333333333,-1,-1,0,0,,1
5d35989e71b4880017d5cc81,qvs8jvjjqt,Nick_Dissertation_EX1,1,276,2020-07-08T15:10:41-07:00,6.0074410438538,4,versionC_stim.csv,READVersionD.csv,"Read Version D","Dissertation, read only version D",ROCK,GEOLOGY,Study1,B,19,66,Test,User,-,,Recall,Recall2,4541,PAPER,16.666666666667,-1,-1,0,0,,1
5d35989e71b4880017d5cc81,qvs8jvjjqt,Nick_Dissertation_EX1,1,277,2020-07-08T15:10:46-07:00,4.677384853363,4,versionC_stim.csv,READVersionD.csv,"Read Version D","Dissertation, read only version D",PILOT,PLANE,Study1,F,44,24,Test,User,-,,Recall,Recall2,4137,PLANE,100,-1,-1,1,1,,1
5d35989e71b4880017d5cc81,qvs8jvjjqt,Nick_Dissertation_EX1,1,278,2020-07-08T15:10:51-07:00,4.6998209953308,4,versionC_stim.csv,READVersionD.csv,"Read Version D","Dissertation, read only version D",HAMMER,CHISEL,Study1,B,9,28,Test,User,-,,Recall,Recall2,3068,NAIL,40,-1,-1,0,0,,1
5d35989e71b4880017d5cc81,qvs8jvjjqt,Nick_Dissertation_EX1,1,279,2020-07-08T15:10:55-07:00,3.9695601463318,4,versionC_stim.csv,READVersionD.csv,"Read Version D","Dissertation, read only version D",TALK,DISCUSSION,Study1,B,21,64,Test,User,-,,Recall,Recall2,3510,CHAT,14.285714285714,-1,-1,0,0,,1
5d35989e71b4880017d5cc81,qvs8jvjjqt,Nick_Dissertation_EX1,1,280,2020-07-08T15:11:00-07:00,5.1250219345093,4,versionC_stim.csv,READVersionD.csv,"Read Version D","Dissertation, read only version D",CARD,CREDIT,Study1,B,23,67,Test,User,-,,Recall,Recall2,4639,MAGIC,18.181818181818,-1,-1,0,0,,1
5d35989e71b4880017d5cc81,qvs8jvjjqt,Nick_Dissertation_EX1,1,281,2020-07-08T15:11:04-07:00,4.7876760959625,4,versionC_stim.csv,READVersionD.csv,"Read Version D","Dissertation, read only version D",WATER,BRIDGE,Study1,B,18,12,Test,User,-,,Recall,Recall2,4335,ICE,44.444444444444,-1,-1,0,0,,1
5d35989e71b4880017d5cc81,qvs8jvjjqt,Nick_Dissertation_EX1,1,282,2020-07-08T15:11:10-07:00,5.7148740291595,4,versionC_stim.csv,READVersionD.csv,"Read Version D","Dissertation, read only version D",STENCH,SMELL,Study1,F,42,65,Test,User,-,,Recall,Recall2,5277,SMELL,100,-1,-1,1,1,,1
5d35989e71b4880017d5cc81,qvs8jvjjqt,Nick_Dissertation_EX1,1,283,2020-07-08T15:11:13-07:00,3.1342489719391,4,versionC_stim.csv,READVersionD.csv,"Read Version D","Dissertation, read only version D",SICK,HIDE,Study1,U,84,9,Test,User,-,,Recall,Recall2,2701,ILL,28.571428571429,-1,-1,0,0,,1
5d35989e71b4880017d5cc81,qvs8jvjjqt,Nick_Dissertation_EX1,1,284,2020-07-08T15:11:17-07:00,3.5156118869781,4,versionC_stim.csv,READVersionD.csv,"Read Version D","Dissertation, read only version D",COW,HERD,Study1,B,22,8,Test,User,-,,Recall,Recall2,3040,MILK,0,-1,-1,0,0,,1
5d35989e71b4880017d5cc81,qvs8jvjjqt,Nick_Dissertation_EX1,1,285,2020-07-08T15:11:25-07:00,8.5592179298401,4,versionC_stim.csv,READVersionD.csv,"Read Version D","Dissertation, read only version D",WIND,BLOW,Study1,S,55,60,Test,User,-,,Recall,Recall2,8134,GALE,25,-1,-1,0,0,,1
5d35989e71b4880017d5cc81,qvs8jvjjqt,Nick_Dissertation_EX1,1,286,2020-07-08T15:11:31-07:00,5.6106841564178,4,versionC_stim.csv,READVersionD.csv,"Read Version D","Dissertation, read only version D",POSITION,MACHINE,Study1,U,76,15,Test,User,-,,Recall,Recall2,5166,PLACE,50,-1,-1,0,0,,1
5d35989e71b4880017d5cc81,qvs8jvjjqt,Nick_Dissertation_EX1,1,287,2020-07-08T15:11:54-07:00,22.690975904465,4,versionC_stim.csv,READVersionD.csv,"Read Version D","Dissertation, read only version D",DESIGN,ARCHITECTURE,Study1,S,51,33,Test,User,-,,Recall,Recall2,3666,ART,40,-1,-1,0,0,,1
5d35989e71b4880017d5cc81,qvs8jvjjqt,Nick_Dissertation_EX1,1,288,2020-07-08T15:12:06-07:00,12.682642936707,4,versionC_stim.csv,READVersionD.csv,"Read Version D","Dissertation, read only version D",ADD,VALLEY,Study1,U,82,68,Test,User,-,,Recall,Recall2,12130,SUBTRACT,14.285714285714,-1,-1,0,0,,1
5d35989e71b4880017d5cc81,qvs8jvjjqt,Nick_Dissertation_EX1,1,289,2020-07-08T15:12:15-07:00,8.7963590621948,4,versionC_stim.csv,READVersionD.csv,"Read Version D","Dissertation, read only version D",FANTASTIC,GREAT,Study1,F,35,32,Test,User,-,,Recall,Recall2,8340,GREAT,100,-1,-1,1,1,,1
5d35989e71b4880017d5cc81,qvs8jvjjqt,Nick_Dissertation_EX1,1,290,2020-07-08T15:12:20-07:00,5.0102989673615,4,versionC_stim.csv,READVersionD.csv,"Read Version D","Dissertation, read only version D",ACCIDENT,STRONG,Study1,U,80,49,Test,User,-,,Recall,Recall2,4545,FALL,0,-1,-1,0,0,,1
5d35989e71b4880017d5cc81,qvs8jvjjqt,Nick_Dissertation_EX1,1,291,2020-07-08T15:12:27-07:00,7.2799651622772,4,versionC_stim.csv,READVersionD.csv,"Read Version D","Dissertation, read only version D",BAR,GRILL,Study1,S,52,63,Test,User,-,,Recall,Recall2,6835,DRINK,40,-1,-1,0,0,,1
5d35989e71b4880017d5cc81,qvs8jvjjqt,Nick_Dissertation_EX1,1,292,2020-07-08T15:12:32-07:00,4.178897857666,4,versionC_stim.csv,READVersionD.csv,"Read Version D","Dissertation, read only version D",JURY,TRIAL,Study1,S,50,48,Test,User,-,,Recall,Recall2,3709,JUDGE,0,-1,-1,0,0,,1
5d35989e71b4880017d5cc81,qvs8jvjjqt,Nick_Dissertation_EX1,1,293,2020-07-08T15:12:40-07:00,8.2669620513916,4,versionC_stim.csv,READVersionD.csv,"Read Version D","Dissertation, read only version D",WORD,SENTENCE,Study1,F,31,44,Test,User,-,,Recall,Recall2,7797,WRITE,30.769230769231,-1,-1,0,0,,1
5d35989e71b4880017d5cc81,qvs8jvjjqt,Nick_Dissertation_EX1,1,294,2020-07-08T15:12:46-07:00,6.0454061031342,4,versionC_stim.csv,READVersionD.csv,"Read Version D","Dissertation, read only version D",HAND,FIX,Study1,U,75,10,Test,User,-,,Recall,Recall2,5575,RIGHT,25,-1,-1,0,0,,1
5d35989e71b4880017d5cc81,qvs8jvjjqt,Nick_Dissertation_EX1,1,295,2020-07-08T15:12:52-07:00,6.1012449264526,4,versionC_stim.csv,READVersionD.csv,"Read Version D","Dissertation, read only version D",BRONZE,ARTERY,Study1,U,74,22,Test,User,-,,Recall,Recall2,5656,STATUE,33.333333333333,-1,-1,0,0,,1
5d35989e71b4880017d5cc81,qvs8jvjjqt,Nick_Dissertation_EX1,1,296,2020-07-08T15:12:56-07:00,4.2918519973755,4,versionC_stim.csv,READVersionD.csv,"Read Version D","Dissertation, read only version D",WASP,BUG,Study1,F,32,14,Test,User,-,,Recall,Recall2,3805,STING,25,-1,-1,0,0,,1
5d35989e71b4880017d5cc81,qvs8jvjjqt,Nick_Dissertation_EX1,1,297,2020-07-08T15:13:01-07:00,4.6004810333252,4,versionC_stim.csv,READVersionD.csv,"Read Version D","Dissertation, read only version D",DEFINITION,MEANING,Study1,S,62,58,Test,User,-,,Recall,Recall2,4145,WORD,0,-1,-1,0,0,,1
5d35989e71b4880017d5cc81,qvs8jvjjqt,Nick_Dissertation_EX1,1,298,2020-07-08T15:14:00-07:00,58.805405855179,4,versionC_stim.csv,READVersionD.csv,"Read Version D","Dissertation, read only version D",BAD,DELINQUENT,Study1,B,6,79,Test,User,-,,Recall,Recall2,58278,DEGENERATE,50,-1,-1,0,0,,0.849
5d35989e71b4880017d5cc81,qvs8jvjjqt,Nick_Dissertation_EX1,1,299,2020-07-08T15:14:04-07:00,4.2531921863556,4,versionC_stim.csv,READVersionD.csv,"Read Version D","Dissertation, read only version D",GROWTH,HEIGHT,Study1,F,30,85,Test,User,-,,Recall,Recall2,3711,TALL,20,-1,-1,0,0,,1
5d35989e71b4880017d5cc81,qvs8jvjjqt,Nick_Dissertation_EX1,1,300,2020-07-08T15:14:09-07:00,4.6097509860992,4,versionC_stim.csv,READVersionD.csv,"Read Version D","Dissertation, read only version D",FLOWER,ORCHID,Study1,B,24,30,Test,User,-,,Recall,Recall2,4090,PLANT,0,-1,-1,0,0,,1
5d35989e71b4880017d5cc81,qvs8jvjjqt,Nick_Dissertation_EX1,1,301,2020-07-08T15:14:13-07:00,4.7363648414612,4,versionC_stim.csv,READVersionD.csv,"Read Version D","Dissertation, read only version D",RIDDLE,SUGAR,Study1,U,81,7,Test,User,-,,Recall,Recall2,4297,CLUE,22.222222222222,-1,-1,0,0,,1
5d35989e71b4880017d5cc81,qvs8jvjjqt,Nick_Dissertation_EX1,1,302,2020-07-08T15:14:17-07:00,3.959911108017,4,versionC_stim.csv,READVersionD.csv,"Read Version D","Dissertation, read only version D",ATTORNEY,LAW,Study1,F,34,45,Test,User,-,,Recall,Recall2,3509,LAW,100,-1,-1,1,1,,1
5d35989e71b4880017d5cc81,qvs8jvjjqt,Nick_Dissertation_EX1,1,303,2020-07-08T15:14:21-07:00,4.1646919250488,4,versionC_stim.csv,READVersionD.csv,"Read Version D","Dissertation, read only version D",BELT,SOON,Study1,U,70,40,Test,User,-,,Recall,Recall2,3697,SEAT,25,-1,-1,0,0,,1
5d35989e71b4880017d5cc81,qvs8jvjjqt,Nick_Dissertation_EX1,1,304,2020-07-08T15:14:26-07:00,4.4905259609222,4,versionC_stim.csv,READVersionD.csv,"Read Version D","Dissertation, read only version D",LATCH,KEY,Study1,F,36,80,Test,User,-,,Recall,Recall2,3961,KEY,100,-1,-1,1,1,,1
5d35989e71b4880017d5cc81,qvs8jvjjqt,Nick_Dissertation_EX1,1,305,2020-07-08T15:14:30-07:00,3.5597321987152,4,versionC_stim.csv,READVersionD.csv,"Read Version D","Dissertation, read only version D",FLOOR,DISCOVER,Study1,U,71,25,Test,User,-,,Recall,Recall2,3121,TILE,33.333333333333,-1,-1,0,0,,1
5d35989e71b4880017d5cc81,qvs8jvjjqt,Nick_Dissertation_EX1,1,306,2020-07-08T15:14:39-07:00,9.7618319988251,4,versionC_stim.csv,READVersionD.csv,"Read Version D","Dissertation, read only version D",CHILI,HOT,Study1,F,37,18,Test,User,-,,Recall,Recall2,9295,HOT,100,-1,-1,1,1,,1
5d35989e71b4880017d5cc81,qvs8jvjjqt,Nick_Dissertation_EX1,1,307,2020-07-08T15:14:43-07:00,3.6760718822479,4,versionC_stim.csv,READVersionD.csv,"Read Version D","Dissertation, read only version D",WASTE,DUMP,Study1,S,49,36,Test,User,-,,Recall,Recall2,3172,BIN,0,-1,-1,0,0,,1
5d35989e71b4880017d5cc81,qvs8jvjjqt,Nick_Dissertation_EX1,1,308,2020-07-08T15:14:48-07:00,4.8690810203552,4,versionC_stim.csv,READVersionD.csv,"Read Version D","Dissertation, read only version D",FAMINE,HUNGER,Study1,F,40,27,Test,User,-,,Recall,Recall2,4424,HUNGER,100,-1,-1,1,1,,1
5d35989e71b4880017d5cc81,qvs8jvjjqt,Nick_Dissertation_EX1,1,309,2020-07-08T15:14:52-07:00,3.7188730239868,4,versionC_stim.csv,READVersionD.csv,"Read Version D","Dissertation, read only version D",ASSIGNMENT,DUE,Study1,S,46,78,Test,User,-,,Recall,Recall2,3282,TASK,0,-1,-1,0,0,,1
5d35989e71b4880017d5cc81,qvs8jvjjqt,Nick_Dissertation_EX1,1,310,2020-07-08T15:14:55-07:00,3.6465950012207,4,versionC_stim.csv,READVersionD.csv,"Read Version D","Dissertation, read only version D",MONEY,WAGE,Study1,B,8,82,Test,User,-,,Recall,Recall2,3187,EARN,25,-1,-1,0,0,,1
5d35989e71b4880017d5cc81,qvs8jvjjqt,Nick_Dissertation_EX1,1,311,2020-07-08T15:14:59-07:00,4.0999648571014,4,versionC_stim.csv,READVersionD.csv,"Read Version D","Dissertation, read only version D",END,BEGIN,Study1,S,54,72,Test,User,-,,Recall,Recall2,3645,FINISH,36.363636363636,-1,-1,0,0,,1
5d35989e71b4880017d5cc81,qvs8jvjjqt,Nick_Dissertation_EX1,1,312,2020-07-08T15:15:04-07:00,4.8090720176697,4,versionC_stim.csv,READVersionD.csv,"Read Version D","Dissertation, read only version D",DOG,PAW,Study1,B,15,69,Test,User,-,,Recall,Recall2,3177,CAT,33.333333333333,-1,-1,0,0,,1
5d35989e71b4880017d5cc81,qvs8jvjjqt,Nick_Dissertation_EX1,1,313,2020-07-08T15:15:08-07:00,4.0635650157928,4,versionC_stim.csv,READVersionD.csv,"Read Version D","Dissertation, read only version D",LION,ART,Study1,U,79,23,Test,User,-,,Recall,Recall2,3479,TAMER,25,-1,-1,0,0,,1
5d35989e71b4880017d5cc81,qvs8jvjjqt,Nick_Dissertation_EX1,1,314,2020-07-08T15:15:13-07:00,4.8329470157623,4,versionC_stim.csv,READVersionD.csv,"Read Version D","Dissertation, read only version D",BLAZE,FIRE,Study1,F,45,83,Test,User,-,,Recall,Recall2,3245,FIRE,100,-1,-1,1,1,,1
5d35989e71b4880017d5cc81,qvs8jvjjqt,Nick_Dissertation_EX1,1,315,2020-07-08T15:15:17-07:00,4.0579400062561,4,versionC_stim.csv,READVersionD.csv,"Read Version D","Dissertation, read only version D",BIRD,SWAN,Study1,B,14,77,Test,User,-,,Recall,Recall2,3602,BEAK,25,-1,-1,0,0,,1
5d35989e71b4880017d5cc81,qvs8jvjjqt,Nick_Dissertation_EX1,1,316,2020-07-08T15:15:22-07:00,5.3636281490326,4,versionC_stim.csv,READVersionD.csv,"Read Version D","Dissertation, read only version D",SACKING,DIETARY,Study1,U,67,62,Test,User,-,,Recall,Recall2,4885,FIRED,33.333333333333,-1,-1,0,0,,1
5d35989e71b4880017d5cc81,qvs8jvjjqt,Nick_Dissertation_EX1,1,317,2020-07-08T15:15:26-07:00,3.9018378257751,4,versionC_stim.csv,READVersionD.csv,"Read Version D","Dissertation, read only version D",DROWSY,SLEEP,Study1,F,41,20,Test,User,-,,Recall,Recall2,3417,SLEEP,100,-1,-1,1,1,,1
5d35989e71b4880017d5cc81,qvs8jvjjqt,Nick_Dissertation_EX1,1,318,2020-07-08T15:15:30-07:00,3.7302510738373,4,versionC_stim.csv,READVersionD.csv,"Read Version D","Dissertation, read only version D",FOOT,SHOE,Study1,S,60,61,Test,User,-,,Recall,Recall2,3265,SHOE,100,-1,-1,1,1,,1
5d35989e71b4880017d5cc81,qvs8jvjjqt,Nick_Dissertation_EX1,1,319,2020-07-08T15:15:34-07:00,3.4741969108582,4,versionC_stim.csv,READVersionD.csv,"Read Version D","Dissertation, read only version D",CHORE,WORK,Study1,F,39,56,Test,User,-,,Recall,Recall2,3031,TASK,25,-1,-1,0,0,,1
5d35989e71b4880017d5cc81,qvs8jvjjqt,Nick_Dissertation_EX1,1,320,2020-07-08T15:15:38-07:00,4.9596211910248,4,versionC_stim.csv,READVersionD.csv,"Read Version D","Dissertation, read only version D",SIP,DRINK,Study1,F,27,70,Test,User,-,,Recall,Recall2,4519,DRINK,100,-1,-1,1,1,,1
5d35989e71b4880017d5cc81,qvs8jvjjqt,Nick_Dissertation_EX1,1,321,2020-07-08T15:15:43-07:00,4.7627918720245,4,versionC_stim.csv,READVersionD.csv,"Read Version D","Dissertation, read only version D",HUNGRY,PARK,Study1,U,68,16,Test,User,-,,Recall,Recall2,4326,EAT,28.571428571429,-1,-1,0,0,,1
5d35989e71b4880017d5cc81,qvs8jvjjqt,Nick_Dissertation_EX1,1,322,2020-07-08T15:15:50-07:00,7.0436151027679,4,versionC_stim.csv,READVersionD.csv,"Read Version D","Dissertation, read only version D",BUSINESS,DEATH,Study1,U,72,29,Test,User,-,,Recall,Recall2,6583,PLEASURE,30.769230769231,-1,-1,0,0,,1
5d35989e71b4880017d5cc81,qvs8jvjjqt,Nick_Dissertation_EX1,1,323,2020-07-08T15:15:54-07:00,3.7054858207703,4,versionC_stim.csv,READVersionD.csv,"Read Version D","Dissertation, read only version D",OUT,WAY,Study1,B,16,59,Test,User,-,,Recall,Recall2,3230,IN,0,-1,-1,0,0,,1
5d35989e71b4880017d5cc81,qvs8jvjjqt,Nick_Dissertation_EX1,1,324,2020-07-08T15:15:59-07:00,4.702171087265,4,versionC_stim.csv,READVersionD.csv,"Read Version D","Dissertation, read only version D",WAR,REVOLUTION,Study1,B,20,84,Test,User,-,,Recall,Recall2,4185,PEACE,13.333333333333,-1,-1,0,0,,1
5d35989e71b4880017d5cc81,qvs8jvjjqt,Nick_Dissertation_EX1,1,325,2020-07-08T15:16:04-07:00,5.3468680381775,4,versionC_stim.csv,READVersionD.csv,"Read Version D","Dissertation, read only version D",AMOUNT,NUMBER,Study1,S,47,76,Test,User,-,,Recall,Recall2,4727,NUMBER,100,-1,-1,1,1,,1
5d35989e71b4880017d5cc81,qvs8jvjjqt,Nick_Dissertation_EX1,1,326,2020-07-08T15:16:08-07:00,3.5081269741058,4,versionC_stim.csv,READVersionD.csv,"Read Version D","Dissertation, read only version D",ENOUGH,FULL,Study1,F,26,11,Test,User,-,,Recall,Recall2,3023,ALL,57.142857142857,-1,-1,0,0,,1
5d35989e71b4880017d5cc81,qvs8jvjjqt,Nick_Dissertation_EX1,1,327,2020-07-08T15:16:55-07:00,47.407143115997,4,versionC_stim.csv,READVersionD.csv,"Read Version D","Dissertation, read only version D",COLD,BITTER,Study1,B,12,43,Test,User,-,,Recall,Recall2,6144,FROZEN,16.666666666667,-1,-1,0,0,,1
5d35989e71b4880017d5cc81,qvs8jvjjqt,Nick_Dissertation_EX1,1,328,2020-07-08T15:17:04-07:00,9.2770259380341,4,versionC_stim.csv,READVersionD.csv,"Read Version D","Dissertation, read only version D",CAR,HAPPY,Study1,U,77,57,Test,User,-,,Recall,Recall2,8802,DRIVE,0,-1,-1,0,0,,1
5d35989e71b4880017d5cc81,qvs8jvjjqt,Nick_Dissertation_EX1,1,329,2020-07-08T15:17:09-07:00,4.5491719245911,4,versionC_stim.csv,READVersionD.csv,"Read Version D","Dissertation, read only version D",CAVE,DARK,Study1,F,28,35,Test,User,-,,Recall,Recall2,4100,WORM,25,-1,-1,0,0,,1
5d35989e71b4880017d5cc81,qvs8jvjjqt,Nick_Dissertation_EX1,1,330,2020-07-08T15:17:13-07:00,4.3942189216614,4,versionC_stim.csv,READVersionD.csv,"Read Version D","Dissertation, read only version D",VASE,KING,Study1,U,85,54,Test,User,-,,Recall,Recall2,3886,GLASS,22.222222222222,-1,-1,0,0,,1
5d35989e71b4880017d5cc81,qvs8jvjjqt,Nick_Dissertation_EX1,1,331,2020-07-08T15:17:18-07:00,5.1923081874847,4,versionC_stim.csv,READVersionD.csv,"Read Version D","Dissertation, read only version D",NEWS,EDITOR,Study1,B,10,86,Test,User,-,,Recall,Recall2,4714,INFORM,50,-1,-1,0,0,,1
5d35989e71b4880017d5cc81,qvs8jvjjqt,Nick_Dissertation_EX1,1,332,2020-07-08T15:17:25-07:00,6.6137058734894,4,versionC_stim.csv,READVersionD.csv,"Read Version D","Dissertation, read only version D",RACKET,BALL,Study1,F,38,42,Test,User,-,,Recall,Recall2,5185,NOISE,0,-1,-1,0,0,,1
5d35989e71b4880017d5cc81,qvs8jvjjqt,Nick_Dissertation_EX1,1,333,2020-07-08T15:17:31-07:00,6.4303071498871,4,versionC_stim.csv,READVersionD.csv,"Read Version D","Dissertation, read only version D",SEIZE,TAKE,Study1,F,29,31,Test,User,-,,Recall,Recall2,5835,TAKE,100,-1,-1,1,1,,1
5d35989e71b4880017d5cc81,qvs8jvjjqt,Nick_Dissertation_EX1,1,334,2020-07-08T15:17:41-07:00,9.2113659381866,4,versionC_stim.csv,READVersionD.csv,"Read Version D","Dissertation, read only version D",BEE,HONEY,Study1,S,63,50,Test,User,-,,Recall,Recall2,7603,HONEY,100,-1,-1,1,1,,1
5d35989e71b4880017d5cc81,qvs8jvjjqt,Nick_Dissertation_EX1,1,335,2020-07-08T15:17:44-07:00,3.5823369026184,4,versionC_stim.csv,READVersionD.csv,"Read Version D","Dissertation, read only version D",SODA,POP,Study1,S,56,53,Test,User,-,,Recall,Recall2,3062,POP,100,-1,-1,1,1,,1
5d35989e71b4880017d5cc81,qvs8jvjjqt,Nick_Dissertation_EX1,1,336,2020-07-08T15:17:49-07:00,4.4464900493622,4,versionC_stim.csv,READVersionD.csv,"Read Version D","Dissertation, read only version D",SIGHT,DEBATE,Study1,U,73,73,Test,User,-,,Recall,Recall2,3998,SEE,44.444444444444,-1,-1,0,0,,1
5d35989e71b4880017d5cc81,qvs8jvjjqt,Nick_Dissertation_EX1,1,337,2020-07-08T15:17:52-07:00,3.6669681072235,4,versionC_stim.csv,READVersionD.csv,"Read Version D","Dissertation, read only version D",TUCK,ALLOW,Study1,U,78,46,Test,User,-,,Recall,Recall2,3217,ROLL,44.444444444444,-1,-1,0,0,,1
5d35989e71b4880017d5cc81,qvs8jvjjqt,Nick_Dissertation_EX1,1,338,2020-07-08T15:17:56-07:00,4.1143298149109,4,versionC_stim.csv,READVersionD.csv,"Read Version D","Dissertation, read only version D",CLUTTER,PUSHER,Study1,U,66,38,Test,User,-,,Recall,Recall2,3624,MESS,20,-1,-1,0,0,,1
5d35989e71b4880017d5cc81,qvs8jvjjqt,Nick_Dissertation_EX1,1,339,2020-07-08T15:18:02-07:00,5.081041097641,4,versionC_stim.csv,READVersionD.csv,"Read Version D","Dissertation, read only version D",STOMACH,DIGESTION,Study1,B,7,21,Test,User,-,,Recall,Recall2,4600,INTESTINE,66.666666666667,-1,-1,0,0,,1
5d35989e71b4880017d5cc81,qvs8jvjjqt,Nick_Dissertation_EX1,1,340,2020-07-08T15:18:05-07:00,3.9409680366516,4,versionC_stim.csv,READVersionD.csv,"Read Version D","Dissertation, read only version D",FISH,TUNA,Study1,B,25,37,Test,User,-,,Recall,Recall2,3515,WATER,22.222222222222,-1,-1,0,0,,1
5d35989e71b4880017d5cc81,qvs8jvjjqt,Nick_Dissertation_EX1,1,341,2020-07-08T15:18:09-07:00,3.4956040382385,4,versionC_stim.csv,READVersionD.csv,"Read Version D","Dissertation, read only version D",CLEAN,HYGIENE,Study1,B,17,74,Test,User,-,,Recall,Recall2,3044,TIDY,18.181818181818,-1,-1,0,0,,1
5d35989e71b4880017d5cc81,qvs8jvjjqt,Nick_Dissertation_EX1,1,342,2020-07-08T15:18:13-07:00,4.268611907959,4,versionC_stim.csv,READVersionD.csv,"Read Version D","Dissertation, read only version D",STING,HORNET,Study1,B,11,51,Test,User,-,,Recall,Recall2,3827,BEE,22.222222222222,-1,-1,0,0,,1
5d35989e71b4880017d5cc81,qvs8jvjjqt,Nick_Dissertation_EX1,1,343,2020-07-08T15:18:17-07:00,4.0191650390625,4,versionC_stim.csv,READVersionD.csv,"Read Version D","Dissertation, read only version D",ATTIRE,CLOTHES,Study1,F,43,81,Test,User,-,,Recall,Recall2,3517,DRESS,33.333333333333,-1,-1,0,0,,1
5d35989e71b4880017d5cc81,qvs8jvjjqt,Nick_Dissertation_EX1,1,344,2020-07-08T15:18:22-07:00,4.4091908931732,4,versionC_stim.csv,READVersionD.csv,"Read Version D","Dissertation, read only version D",FUTURE,PAST,Study1,S,61,19,Test,User,-,,Recall,Recall2,3965,AMBITION,33.333333333333,-1,-1,0,0,,1
5d35989e71b4880017d5cc81,qvs8jvjjqt,Nick_Dissertation_EX1,1,345,2020-07-08T15:18:25-07:00,3.5288009643555,4,versionC_stim.csv,READVersionD.csv,"Read Version D","Dissertation, read only version D",PLANT,ROOT,Study1,B,13,39,Test,User,-,,Recall,Recall2,3026,GROW,50,-1,-1,0,0,,1
5d35989e71b4880017d5cc81,qvs8jvjjqt,Nick_Dissertation_EX1,1,346,2020-07-08T15:18:30-07:00,4.5621960163116,4,versionC_stim.csv,READVersionD.csv,"Read Version D","Dissertation, read only version D",ROUND,CIRCLE,Study1,S,65,17,Test,User,-,,Recall,Recall2,4113,CIRCLE,100,-1,-1,1,1,,1
5d35989e71b4880017d5cc81,qvs8jvjjqt,Nick_Dissertation_EX1,1,347,2020-07-08T15:18:38-07:00,7.8777341842651,4,versionC_stim.csv,READVersionD.csv,"Read Version D","Dissertation, read only version D",DIVISION,MATH,Study1,F,33,26,Test,User,-,,Recall,Recall2,7360,MATH,100,-1,-1,1,1,,1
5d35989e71b4880017d5cc81,qvs8jvjjqt,Nick_Dissertation_EX1,1,348,2020-07-08T15:18:42-07:00,4.1901710033417,4,versionC_stim.csv,READVersionD.csv,"Read Version D","Dissertation, read only version D",CHEESE,WINE,Study1,S,57,55,Test,User,-,,Recall,Recall2,3710,GRATE,22.222222222222,-1,-1,0,0,,1
