Username,ID,ExperimentName,Session,Trial,Date,TimeDif,"Condition Number","Stimuli File","Order File","Condition Description","Condition Notes",Stimuli*Cue,Stimuli*Answer,Stimuli*Shuffle,"Stimuli*Stimuli Notes",Stimuli*Value,Procedure*Item,"Procedure*Trial Type","Procedure*Max Time","Procedure*Min Time",Procedure*Text,"Procedure*Procedure Notes",Procedure*Shuffle,Response*RT,Response*Response,Response*Accuracy,Response*RTfirst,Response*RTlast,Response*strictAcc,Response*lenientAcc,Response*focus,Response*Focus
5b9a4067fe0ef200013fe1ed,0mgcu4iv0v,Nick_Dissertation_EX1,1,1,2020-07-08T14:44:45-07:00,14.501441001892,3,versionC_stim.csv,READVersionC.csv,"Read Version C","Dissertation, read only version C",,,,,,0,Instruct,-,10,"Please study each of the following word pairs. Remember that your memory will be tested! When finished, press Enter to move to the next pair.",Initial_Instruct,Instruct1,14054,,,-1,-1,,,,1
5b9a4067fe0ef200013fe1ed,0mgcu4iv0v,Nick_Dissertation_EX1,1,2,2020-07-08T14:44:48-07:00,3.4489591121674,3,versionC_stim.csv,READVersionC.csv,"Read Version C","Dissertation, read only version C",BUTTER,PEANUT,BUFFER1,Buffer,3,4,Study,User,-,,Study/JOL,BUFFER,2846,,,-1,-1,,,,1
5b9a4067fe0ef200013fe1ed,0mgcu4iv0v,Nick_Dissertation_EX1,1,3,2020-07-08T14:44:51-07:00,2.8071439266205,3,versionC_stim.csv,READVersionC.csv,"Read Version C","Dissertation, read only version C",GREEN,TREES,BUFFER1,Buffer,1,5,Study,User,-,,Study/JOL,BUFFER,2212,,,-1,-1,,,,1
5b9a4067fe0ef200013fe1ed,0mgcu4iv0v,Nick_Dissertation_EX1,1,4,2020-07-08T14:44:56-07:00,4.96812915802,3,versionC_stim.csv,READVersionC.csv,"Read Version C","Dissertation, read only version C",JAM,SPACE,BUFFER1,Buffer,5,6,Study,User,-,,Study/JOL,BUFFER,4364,,,-1,-1,,,,1
5b9a4067fe0ef200013fe1ed,0mgcu4iv0v,Nick_Dissertation_EX1,1,5,2020-07-08T14:45:02-07:00,5.8490738868713,3,versionC_stim.csv,READVersionC.csv,"Read Version C","Dissertation, read only version C",HIDE,SCARE,BUFFER1,Buffer,4,2,Study,User,-,,Study/JOL,BUFFER,5120,,,-1,-1,,,,1
5b9a4067fe0ef200013fe1ed,0mgcu4iv0v,Nick_Dissertation_EX1,1,6,2020-07-08T14:45:05-07:00,3.3877680301666,3,versionC_stim.csv,READVersionC.csv,"Read Version C","Dissertation, read only version C",CATCHER,BASEBALL,BUFFER1,Buffer,2,3,Study,User,-,,Study/JOL,BUFFER,2515,,,-1,-1,,,,1
5b9a4067fe0ef200013fe1ed,0mgcu4iv0v,Nick_Dissertation_EX1,1,7,2020-07-08T14:45:07-07:00,2.098601102829,3,versionC_stim.csv,READVersionC.csv,"Read Version C","Dissertation, read only version C",BAR,GRILL,Study1,S,52,47,Study,User,-,,Study/JOL,"Study Phase",1440,,,-1,-1,,,,1
5b9a4067fe0ef200013fe1ed,0mgcu4iv0v,Nick_Dissertation_EX1,1,8,2020-07-08T14:45:12-07:00,4.9853708744049,3,versionC_stim.csv,READVersionC.csv,"Read Version C","Dissertation, read only version C",SIGHT,DEBATE,Study1,U,73,64,Study,User,-,,Study/JOL,"Study Phase",4381,,,-1,-1,,,,1
5b9a4067fe0ef200013fe1ed,0mgcu4iv0v,Nick_Dissertation_EX1,1,9,2020-07-08T14:45:17-07:00,4.6832630634308,3,versionC_stim.csv,READVersionC.csv,"Read Version C","Dissertation, read only version C",VASE,KING,Study1,U,85,25,Study,User,-,,Study/JOL,"Study Phase",3822,,,-1,-1,,,,1
5b9a4067fe0ef200013fe1ed,0mgcu4iv0v,Nick_Dissertation_EX1,1,10,2020-07-08T14:45:19-07:00,2.218190908432,3,versionC_stim.csv,READVersionC.csv,"Read Version C","Dissertation, read only version C",ATTIRE,CLOTHES,Study1,F,43,58,Study,User,-,,Study/JOL,"Study Phase",1680,,,-1,-1,,,,1
5b9a4067fe0ef200013fe1ed,0mgcu4iv0v,Nick_Dissertation_EX1,1,11,2020-07-08T14:45:21-07:00,2.1787660121918,3,versionC_stim.csv,READVersionC.csv,"Read Version C","Dissertation, read only version C",ATTORNEY,LAW,Study1,F,34,77,Study,User,-,,Study/JOL,"Study Phase",1540,,,-1,-1,,,,1
5b9a4067fe0ef200013fe1ed,0mgcu4iv0v,Nick_Dissertation_EX1,1,12,2020-07-08T14:45:24-07:00,2.2345039844513,3,versionC_stim.csv,READVersionC.csv,"Read Version C","Dissertation, read only version C",FAMINE,HUNGER,Study1,F,40,24,Study,User,-,,Study/JOL,"Study Phase",1617,,,-1,-1,,,,1
5b9a4067fe0ef200013fe1ed,0mgcu4iv0v,Nick_Dissertation_EX1,1,13,2020-07-08T14:45:26-07:00,1.8156650066376,3,versionC_stim.csv,READVersionC.csv,"Read Version C","Dissertation, read only version C",GROWTH,HEIGHT,Study1,F,30,32,Study,User,-,,Study/JOL,"Study Phase",1281,,,-1,-1,,,,1
5b9a4067fe0ef200013fe1ed,0mgcu4iv0v,Nick_Dissertation_EX1,1,14,2020-07-08T14:45:28-07:00,2.599426984787,3,versionC_stim.csv,READVersionC.csv,"Read Version C","Dissertation, read only version C",ACCIDENT,STRONG,Study1,U,80,70,Study,User,-,,Study/JOL,"Study Phase",2049,,,-1,-1,,,,1
5b9a4067fe0ef200013fe1ed,0mgcu4iv0v,Nick_Dissertation_EX1,1,15,2020-07-08T14:45:30-07:00,2.0144629478455,3,versionC_stim.csv,READVersionC.csv,"Read Version C","Dissertation, read only version C",PILOT,PLANE,Study1,F,44,42,Study,User,-,,Study/JOL,"Study Phase",1416,,,-1,-1,,,,1
5b9a4067fe0ef200013fe1ed,0mgcu4iv0v,Nick_Dissertation_EX1,1,16,2020-07-08T14:45:32-07:00,1.7525501251221,3,versionC_stim.csv,READVersionC.csv,"Read Version C","Dissertation, read only version C",WIND,BLOW,Study1,S,55,18,Study,User,-,,Study/JOL,"Study Phase",1161,,,-1,-1,,,,1
5b9a4067fe0ef200013fe1ed,0mgcu4iv0v,Nick_Dissertation_EX1,1,17,2020-07-08T14:45:34-07:00,1.8974928855896,3,versionC_stim.csv,READVersionC.csv,"Read Version C","Dissertation, read only version C",SALAD,LETTUCE,Study1,S,59,45,Study,User,-,,Study/JOL,"Study Phase",1358,,,-1,-1,,,,1
5b9a4067fe0ef200013fe1ed,0mgcu4iv0v,Nick_Dissertation_EX1,1,18,2020-07-08T14:45:36-07:00,2.1201231479645,3,versionC_stim.csv,READVersionC.csv,"Read Version C","Dissertation, read only version C",LION,ART,Study1,U,79,50,Study,User,-,,Study/JOL,"Study Phase",1511,,,-1,-1,,,,1
5b9a4067fe0ef200013fe1ed,0mgcu4iv0v,Nick_Dissertation_EX1,1,19,2020-07-08T14:45:38-07:00,1.9391160011292,3,versionC_stim.csv,READVersionC.csv,"Read Version C","Dissertation, read only version C",DIVISION,MATH,Study1,F,33,40,Study,User,-,,Study/JOL,"Study Phase",1361,,,-1,-1,,,,1
5b9a4067fe0ef200013fe1ed,0mgcu4iv0v,Nick_Dissertation_EX1,1,20,2020-07-08T14:45:40-07:00,1.8724000453949,3,versionC_stim.csv,READVersionC.csv,"Read Version C","Dissertation, read only version C",ASSIGNMENT,DUE,Study1,S,46,12,Study,User,-,,Study/JOL,"Study Phase",1272,,,-1,-1,,,,1
5b9a4067fe0ef200013fe1ed,0mgcu4iv0v,Nick_Dissertation_EX1,1,21,2020-07-08T14:45:42-07:00,2.4059329032898,3,versionC_stim.csv,READVersionC.csv,"Read Version C","Dissertation, read only version C",ROUND,CIRCLE,Study1,S,65,17,Study,User,-,,Study/JOL,"Study Phase",1834,,,-1,-1,,,,1
5b9a4067fe0ef200013fe1ed,0mgcu4iv0v,Nick_Dissertation_EX1,1,22,2020-07-08T14:45:44-07:00,2.081286907196,3,versionC_stim.csv,READVersionC.csv,"Read Version C","Dissertation, read only version C",COLD,BITTER,Study1,B,12,36,Study,User,-,,Study/JOL,"Study Phase",1474,,,-1,-1,,,,1
5b9a4067fe0ef200013fe1ed,0mgcu4iv0v,Nick_Dissertation_EX1,1,23,2020-07-08T14:45:47-07:00,2.4656419754028,3,versionC_stim.csv,READVersionC.csv,"Read Version C","Dissertation, read only version C",WAR,REVOLUTION,Study1,B,20,76,Study,User,-,,Study/JOL,"Study Phase",1691,,,-1,-1,,,,1
5b9a4067fe0ef200013fe1ed,0mgcu4iv0v,Nick_Dissertation_EX1,1,24,2020-07-08T14:45:50-07:00,3.6170651912689,3,versionC_stim.csv,READVersionC.csv,"Read Version C","Dissertation, read only version C",ROCK,GEOLOGY,Study1,B,19,44,Study,User,-,,Study/JOL,"Study Phase",1896,,,-1,-1,,,,1
5b9a4067fe0ef200013fe1ed,0mgcu4iv0v,Nick_Dissertation_EX1,1,25,2020-07-08T14:45:54-07:00,3.8801889419556,3,versionC_stim.csv,READVersionC.csv,"Read Version C","Dissertation, read only version C",WOULD,CASH,Study1,U,83,53,Study,User,-,,Study/JOL,"Study Phase",3301,,,-1,-1,,,,1
5b9a4067fe0ef200013fe1ed,0mgcu4iv0v,Nick_Dissertation_EX1,1,26,2020-07-08T14:45:56-07:00,1.9620590209961,3,versionC_stim.csv,READVersionC.csv,"Read Version C","Dissertation, read only version C",HAMMER,CHISEL,Study1,B,9,85,Study,User,-,,Study/JOL,"Study Phase",1226,,,-1,-1,,,,1
5b9a4067fe0ef200013fe1ed,0mgcu4iv0v,Nick_Dissertation_EX1,1,27,2020-07-08T14:45:58-07:00,1.8630149364471,3,versionC_stim.csv,READVersionC.csv,"Read Version C","Dissertation, read only version C",DEFINITION,MEANING,Study1,S,62,68,Study,User,-,,Study/JOL,"Study Phase",1183,,,-1,-1,,,,1
5b9a4067fe0ef200013fe1ed,0mgcu4iv0v,Nick_Dissertation_EX1,1,28,2020-07-08T14:46:00-07:00,1.9705119132996,3,versionC_stim.csv,READVersionC.csv,"Read Version C","Dissertation, read only version C",BEE,HONEY,Study1,S,63,16,Study,User,-,,Study/JOL,"Study Phase",1412,,,-1,-1,,,,1
5b9a4067fe0ef200013fe1ed,0mgcu4iv0v,Nick_Dissertation_EX1,1,29,2020-07-08T14:46:03-07:00,3.3775670528412,3,versionC_stim.csv,READVersionC.csv,"Read Version C","Dissertation, read only version C",CHEESE,WINE,Study1,S,57,81,Study,User,-,,Study/JOL,"Study Phase",1443,,,-1,-1,,,,1
5b9a4067fe0ef200013fe1ed,0mgcu4iv0v,Nick_Dissertation_EX1,1,30,2020-07-08T14:46:05-07:00,1.5468599796295,3,versionC_stim.csv,READVersionC.csv,"Read Version C","Dissertation, read only version C",STING,HORNET,Study1,B,11,74,Study,User,-,,Study/JOL,"Study Phase",1003,,,-1,-1,,,,1
5b9a4067fe0ef200013fe1ed,0mgcu4iv0v,Nick_Dissertation_EX1,1,31,2020-07-08T14:46:07-07:00,2.0352721214294,3,versionC_stim.csv,READVersionC.csv,"Read Version C","Dissertation, read only version C",LATCH,KEY,Study1,F,36,62,Study,User,-,,Study/JOL,"Study Phase",1437,,,-1,-1,,,,1
5b9a4067fe0ef200013fe1ed,0mgcu4iv0v,Nick_Dissertation_EX1,1,32,2020-07-08T14:46:09-07:00,2.412318944931,3,versionC_stim.csv,READVersionC.csv,"Read Version C","Dissertation, read only version C",JURY,TRIAL,Study1,S,50,82,Study,User,-,,Study/JOL,"Study Phase",1807,,,-1,-1,,,,1
5b9a4067fe0ef200013fe1ed,0mgcu4iv0v,Nick_Dissertation_EX1,1,33,2020-07-08T14:46:11-07:00,2.0942249298096,3,versionC_stim.csv,READVersionC.csv,"Read Version C","Dissertation, read only version C",ENOUGH,FULL,Study1,F,26,66,Study,User,-,,Study/JOL,"Study Phase",1529,,,-1,-1,,,,1
5b9a4067fe0ef200013fe1ed,0mgcu4iv0v,Nick_Dissertation_EX1,1,34,2020-07-08T14:46:14-07:00,2.61510014534,3,versionC_stim.csv,READVersionC.csv,"Read Version C","Dissertation, read only version C",WORD,SENTENCE,Study1,F,31,78,Study,User,-,,Study/JOL,"Study Phase",1756,,,-1,-1,,,,1
5b9a4067fe0ef200013fe1ed,0mgcu4iv0v,Nick_Dissertation_EX1,1,35,2020-07-08T14:46:16-07:00,1.6512658596039,3,versionC_stim.csv,READVersionC.csv,"Read Version C","Dissertation, read only version C",SITE,LOCATION,Study1,S,48,41,Study,User,-,,Study/JOL,"Study Phase",1036,,,-1,-1,,,,1
5b9a4067fe0ef200013fe1ed,0mgcu4iv0v,Nick_Dissertation_EX1,1,36,2020-07-08T14:46:17-07:00,1.6347260475159,3,versionC_stim.csv,READVersionC.csv,"Read Version C","Dissertation, read only version C",BUSINESS,DEATH,Study1,U,72,75,Study,User,-,,Study/JOL,"Study Phase",1114,,,-1,-1,,,,1
5b9a4067fe0ef200013fe1ed,0mgcu4iv0v,Nick_Dissertation_EX1,1,37,2020-07-08T14:46:21-07:00,3.318843126297,3,versionC_stim.csv,READVersionC.csv,"Read Version C","Dissertation, read only version C",HUNGRY,PARK,Study1,U,68,59,Study,User,-,,Study/JOL,"Study Phase",2702,,,-1,-1,,,,1
5b9a4067fe0ef200013fe1ed,0mgcu4iv0v,Nick_Dissertation_EX1,1,38,2020-07-08T14:46:22-07:00,1.7235169410706,3,versionC_stim.csv,READVersionC.csv,"Read Version C","Dissertation, read only version C",BRONZE,ARTERY,Study1,U,74,29,Study,User,-,,Study/JOL,"Study Phase",1161,,,-1,-1,,,,1
5b9a4067fe0ef200013fe1ed,0mgcu4iv0v,Nick_Dissertation_EX1,1,39,2020-07-08T14:46:24-07:00,1.8128139972687,3,versionC_stim.csv,READVersionC.csv,"Read Version C","Dissertation, read only version C",TALK,DISCUSSION,Study1,B,21,79,Study,User,-,,Study/JOL,"Study Phase",1238,,,-1,-1,,,,1
5b9a4067fe0ef200013fe1ed,0mgcu4iv0v,Nick_Dissertation_EX1,1,40,2020-07-08T14:46:26-07:00,1.7008378505707,3,versionC_stim.csv,READVersionC.csv,"Read Version C","Dissertation, read only version C",OUT,WAY,Study1,B,16,13,Study,User,-,,Study/JOL,"Study Phase",1091,,,-1,-1,,,,1
5b9a4067fe0ef200013fe1ed,0mgcu4iv0v,Nick_Dissertation_EX1,1,41,2020-07-08T14:46:28-07:00,1.7416961193085,3,versionC_stim.csv,READVersionC.csv,"Read Version C","Dissertation, read only version C",CLEAN,HYGIENE,Study1,B,17,72,Study,User,-,,Study/JOL,"Study Phase",969,,,-1,-1,,,,1
5b9a4067fe0ef200013fe1ed,0mgcu4iv0v,Nick_Dissertation_EX1,1,42,2020-07-08T14:46:29-07:00,1.6559820175171,3,versionC_stim.csv,READVersionC.csv,"Read Version C","Dissertation, read only version C",WASP,BUG,Study1,F,32,11,Study,User,-,,Study/JOL,"Study Phase",1090,,,-1,-1,,,,1
5b9a4067fe0ef200013fe1ed,0mgcu4iv0v,Nick_Dissertation_EX1,1,43,2020-07-08T14:46:31-07:00,1.7588999271393,3,versionC_stim.csv,READVersionC.csv,"Read Version C","Dissertation, read only version C",BELT,SOON,Study1,U,70,33,Study,User,-,,Study/JOL,"Study Phase",1133,,,-1,-1,,,,1
5b9a4067fe0ef200013fe1ed,0mgcu4iv0v,Nick_Dissertation_EX1,1,44,2020-07-08T14:46:33-07:00,1.6798429489136,3,versionC_stim.csv,READVersionC.csv,"Read Version C","Dissertation, read only version C",COW,HERD,Study1,B,22,84,Study,User,-,,Study/JOL,"Study Phase",943,,,-1,-1,,,,1
5b9a4067fe0ef200013fe1ed,0mgcu4iv0v,Nick_Dissertation_EX1,1,45,2020-07-08T14:46:35-07:00,1.8389310836792,3,versionC_stim.csv,READVersionC.csv,"Read Version C","Dissertation, read only version C",HAND,FIX,Study1,U,75,34,Study,User,-,,Study/JOL,"Study Phase",1245,,,-1,-1,,,,1
5b9a4067fe0ef200013fe1ed,0mgcu4iv0v,Nick_Dissertation_EX1,1,46,2020-07-08T14:46:36-07:00,1.4993541240692,3,versionC_stim.csv,READVersionC.csv,"Read Version C","Dissertation, read only version C",CAVE,DARK,Study1,F,28,37,Study,User,-,,Study/JOL,"Study Phase",954,,,-1,-1,,,,1
5b9a4067fe0ef200013fe1ed,0mgcu4iv0v,Nick_Dissertation_EX1,1,47,2020-07-08T14:46:39-07:00,2.7270119190216,3,versionC_stim.csv,READVersionC.csv,"Read Version C","Dissertation, read only version C",SODA,POP,Study1,S,56,23,Study,User,-,,Study/JOL,"Study Phase",2131,,,-1,-1,,,,1
5b9a4067fe0ef200013fe1ed,0mgcu4iv0v,Nick_Dissertation_EX1,1,48,2020-07-08T14:46:40-07:00,1.3245508670807,3,versionC_stim.csv,READVersionC.csv,"Read Version C","Dissertation, read only version C",NEWS,EDITOR,Study1,B,10,54,Study,User,-,,Study/JOL,"Study Phase",790,,,-1,-1,,,,1
5b9a4067fe0ef200013fe1ed,0mgcu4iv0v,Nick_Dissertation_EX1,1,49,2020-07-08T14:46:42-07:00,1.6363210678101,3,versionC_stim.csv,READVersionC.csv,"Read Version C","Dissertation, read only version C",MONEY,WAGE,Study1,B,8,57,Study,User,-,,Study/JOL,"Study Phase",1056,,,-1,-1,,,,1
5b9a4067fe0ef200013fe1ed,0mgcu4iv0v,Nick_Dissertation_EX1,1,50,2020-07-08T14:46:43-07:00,1.6899740695953,3,versionC_stim.csv,READVersionC.csv,"Read Version C","Dissertation, read only version C",STOMACH,DIGESTION,Study1,B,7,80,Study,User,-,,Study/JOL,"Study Phase",1135,,,-1,-1,,,,1
5b9a4067fe0ef200013fe1ed,0mgcu4iv0v,Nick_Dissertation_EX1,1,51,2020-07-08T14:46:45-07:00,1.4475429058075,3,versionC_stim.csv,READVersionC.csv,"Read Version C","Dissertation, read only version C",TUCK,ALLOW,Study1,U,78,19,Study,User,-,,Study/JOL,"Study Phase",894,,,-1,-1,,,,1
5b9a4067fe0ef200013fe1ed,0mgcu4iv0v,Nick_Dissertation_EX1,1,52,2020-07-08T14:46:47-07:00,2.4555900096893,3,versionC_stim.csv,READVersionC.csv,"Read Version C","Dissertation, read only version C",SACKING,DIETARY,Study1,U,67,21,Study,User,-,,Study/JOL,"Study Phase",903,,,-1,-1,,,,1
5b9a4067fe0ef200013fe1ed,0mgcu4iv0v,Nick_Dissertation_EX1,1,53,2020-07-08T14:46:49-07:00,2.1271131038666,3,versionC_stim.csv,READVersionC.csv,"Read Version C","Dissertation, read only version C",CHORE,WORK,Study1,F,39,46,Study,User,-,,Study/JOL,"Study Phase",1223,,,-1,-1,,,,1
5b9a4067fe0ef200013fe1ed,0mgcu4iv0v,Nick_Dissertation_EX1,1,54,2020-07-08T14:46:51-07:00,1.6030130386353,3,versionC_stim.csv,READVersionC.csv,"Read Version C","Dissertation, read only version C",WATER,BRIDGE,Study1,B,18,10,Study,User,-,,Study/JOL,"Study Phase",1041,,,-1,-1,,,,1
5b9a4067fe0ef200013fe1ed,0mgcu4iv0v,Nick_Dissertation_EX1,1,55,2020-07-08T14:46:53-07:00,1.6365818977356,3,versionC_stim.csv,READVersionC.csv,"Read Version C","Dissertation, read only version C",TOILET,BATHROOM,Study1,S,58,7,Study,User,-,,Study/JOL,"Study Phase",884,,,-1,-1,,,,1
5b9a4067fe0ef200013fe1ed,0mgcu4iv0v,Nick_Dissertation_EX1,1,56,2020-07-08T14:46:54-07:00,1.7625551223755,3,versionC_stim.csv,READVersionC.csv,"Read Version C","Dissertation, read only version C",BLAZE,FIRE,Study1,F,45,43,Study,User,-,,Study/JOL,"Study Phase",1138,,,-1,-1,,,,1
5b9a4067fe0ef200013fe1ed,0mgcu4iv0v,Nick_Dissertation_EX1,1,57,2020-07-08T14:46:56-07:00,1.8546178340912,3,versionC_stim.csv,READVersionC.csv,"Read Version C","Dissertation, read only version C",SEIZE,TAKE,Study1,F,29,9,Study,User,-,,Study/JOL,"Study Phase",931,,,-1,-1,,,,1
5b9a4067fe0ef200013fe1ed,0mgcu4iv0v,Nick_Dissertation_EX1,1,58,2020-07-08T14:46:58-07:00,1.3999061584473,3,versionC_stim.csv,READVersionC.csv,"Read Version C","Dissertation, read only version C",CARD,CREDIT,Study1,B,23,83,Study,User,-,,Study/JOL,"Study Phase",823,,,-1,-1,,,,1
5b9a4067fe0ef200013fe1ed,0mgcu4iv0v,Nick_Dissertation_EX1,1,59,2020-07-08T14:46:59-07:00,1.6105589866638,3,versionC_stim.csv,READVersionC.csv,"Read Version C","Dissertation, read only version C",FANTASTIC,GREAT,Study1,F,35,39,Study,User,-,,Study/JOL,"Study Phase",1034,,,-1,-1,,,,1
5b9a4067fe0ef200013fe1ed,0mgcu4iv0v,Nick_Dissertation_EX1,1,60,2020-07-08T14:47:01-07:00,1.4343039989471,3,versionC_stim.csv,READVersionC.csv,"Read Version C","Dissertation, read only version C",RIDDLE,SUGAR,Study1,U,81,30,Study,User,-,,Study/JOL,"Study Phase",858,,,-1,-1,,,,1
5b9a4067fe0ef200013fe1ed,0mgcu4iv0v,Nick_Dissertation_EX1,1,61,2020-07-08T14:47:02-07:00,1.472669839859,3,versionC_stim.csv,READVersionC.csv,"Read Version C","Dissertation, read only version C",END,BEGIN,Study1,S,54,65,Study,User,-,,Study/JOL,"Study Phase",904,,,-1,-1,,,,1
5b9a4067fe0ef200013fe1ed,0mgcu4iv0v,Nick_Dissertation_EX1,1,62,2020-07-08T14:47:04-07:00,1.7441229820251,3,versionC_stim.csv,READVersionC.csv,"Read Version C","Dissertation, read only version C",SIP,DRINK,Study1,F,27,27,Study,User,-,,Study/JOL,"Study Phase",1173,,,-1,-1,,,,1
5b9a4067fe0ef200013fe1ed,0mgcu4iv0v,Nick_Dissertation_EX1,1,63,2020-07-08T14:47:06-07:00,1.7271411418915,3,versionC_stim.csv,READVersionC.csv,"Read Version C","Dissertation, read only version C",LIVER,KIDNEY,Study1,S,53,15,Study,User,-,,Study/JOL,"Study Phase",1170,,,-1,-1,,,,1
5b9a4067fe0ef200013fe1ed,0mgcu4iv0v,Nick_Dissertation_EX1,1,64,2020-07-08T14:47:09-07:00,3.4618759155273,3,versionC_stim.csv,READVersionC.csv,"Read Version C","Dissertation, read only version C",FUTURE,PAST,Study1,S,61,51,Study,User,-,,Study/JOL,"Study Phase",2902,,,-1,-1,,,,1
5b9a4067fe0ef200013fe1ed,0mgcu4iv0v,Nick_Dissertation_EX1,1,65,2020-07-08T14:47:11-07:00,1.3685660362244,3,versionC_stim.csv,READVersionC.csv,"Read Version C","Dissertation, read only version C",AMOUNT,NUMBER,Study1,S,47,28,Study,User,-,,Study/JOL,"Study Phase",807,,,-1,-1,,,,1
5b9a4067fe0ef200013fe1ed,0mgcu4iv0v,Nick_Dissertation_EX1,1,66,2020-07-08T14:47:12-07:00,1.3798000812531,3,versionC_stim.csv,READVersionC.csv,"Read Version C","Dissertation, read only version C",FLOWER,ORCHID,Study1,B,24,52,Study,User,-,,Study/JOL,"Study Phase",786,,,-1,-1,,,,1
5b9a4067fe0ef200013fe1ed,0mgcu4iv0v,Nick_Dissertation_EX1,1,67,2020-07-08T14:47:15-07:00,2.6164269447327,3,versionC_stim.csv,READVersionC.csv,"Read Version C","Dissertation, read only version C",WOMAN,LIFT,Study1,U,69,48,Study,User,-,,Study/JOL,"Study Phase",2074,,,-1,-1,,,,1
5b9a4067fe0ef200013fe1ed,0mgcu4iv0v,Nick_Dissertation_EX1,1,68,2020-07-08T14:47:16-07:00,1.4222269058228,3,versionC_stim.csv,READVersionC.csv,"Read Version C","Dissertation, read only version C",DROWSY,SLEEP,Study1,F,41,63,Study,User,-,,Study/JOL,"Study Phase",884,,,-1,-1,,,,1
5b9a4067fe0ef200013fe1ed,0mgcu4iv0v,Nick_Dissertation_EX1,1,69,2020-07-08T14:47:17-07:00,1.4349870681763,3,versionC_stim.csv,READVersionC.csv,"Read Version C","Dissertation, read only version C",CAR,HAPPY,Study1,U,77,26,Study,User,-,,Study/JOL,"Study Phase",850,,,-1,-1,,,,1
5b9a4067fe0ef200013fe1ed,0mgcu4iv0v,Nick_Dissertation_EX1,1,70,2020-07-08T14:47:20-07:00,2.1697800159454,3,versionC_stim.csv,READVersionC.csv,"Read Version C","Dissertation, read only version C",POSITION,MACHINE,Study1,U,76,69,Study,User,-,,Study/JOL,"Study Phase",1609,,,-1,-1,,,,1
5b9a4067fe0ef200013fe1ed,0mgcu4iv0v,Nick_Dissertation_EX1,1,71,2020-07-08T14:47:21-07:00,1.5610380172729,3,versionC_stim.csv,READVersionC.csv,"Read Version C","Dissertation, read only version C",CHILI,HOT,Study1,F,37,38,Study,User,-,,Study/JOL,"Study Phase",990,,,-1,-1,,,,1
5b9a4067fe0ef200013fe1ed,0mgcu4iv0v,Nick_Dissertation_EX1,1,72,2020-07-08T14:47:23-07:00,2.2041239738464,3,versionC_stim.csv,READVersionC.csv,"Read Version C","Dissertation, read only version C",FLOOR,DISCOVER,Study1,U,71,20,Study,User,-,,Study/JOL,"Study Phase",1647,,,-1,-1,,,,1
5b9a4067fe0ef200013fe1ed,0mgcu4iv0v,Nick_Dissertation_EX1,1,73,2020-07-08T14:47:25-07:00,1.4233570098877,3,versionC_stim.csv,READVersionC.csv,"Read Version C","Dissertation, read only version C",DOG,PAW,Study1,B,15,35,Study,User,-,,Study/JOL,"Study Phase",842,,,-1,-1,,,,1
5b9a4067fe0ef200013fe1ed,0mgcu4iv0v,Nick_Dissertation_EX1,1,74,2020-07-08T14:47:28-07:00,2.9728779792786,3,versionC_stim.csv,READVersionC.csv,"Read Version C","Dissertation, read only version C",CHILD,BABY,Study1,S,64,71,Study,User,-,,Study/JOL,"Study Phase",2397,,,-1,-1,,,,1
5b9a4067fe0ef200013fe1ed,0mgcu4iv0v,Nick_Dissertation_EX1,1,75,2020-07-08T14:47:29-07:00,1.4135859012604,3,versionC_stim.csv,READVersionC.csv,"Read Version C","Dissertation, read only version C",SICK,HIDE,Study1,U,84,60,Study,User,-,,Study/JOL,"Study Phase",833,,,-1,-1,,,,1
5b9a4067fe0ef200013fe1ed,0mgcu4iv0v,Nick_Dissertation_EX1,1,76,2020-07-08T14:47:31-07:00,1.4223730564117,3,versionC_stim.csv,READVersionC.csv,"Read Version C","Dissertation, read only version C",STENCH,SMELL,Study1,F,42,86,Study,User,-,,Study/JOL,"Study Phase",882,,,-1,-1,,,,1
5b9a4067fe0ef200013fe1ed,0mgcu4iv0v,Nick_Dissertation_EX1,1,77,2020-07-08T14:47:32-07:00,1.5482120513916,3,versionC_stim.csv,READVersionC.csv,"Read Version C","Dissertation, read only version C",PLANT,ROOT,Study1,B,13,56,Study,User,-,,Study/JOL,"Study Phase",958,,,-1,-1,,,,1
5b9a4067fe0ef200013fe1ed,0mgcu4iv0v,Nick_Dissertation_EX1,1,78,2020-07-08T14:47:34-07:00,1.7393789291382,3,versionC_stim.csv,READVersionC.csv,"Read Version C","Dissertation, read only version C",BAD,DELINQUENT,Study1,B,6,73,Study,User,-,,Study/JOL,"Study Phase",1187,,,-1,-1,,,,1
5b9a4067fe0ef200013fe1ed,0mgcu4iv0v,Nick_Dissertation_EX1,1,79,2020-07-08T14:47:35-07:00,1.45228099823,3,versionC_stim.csv,READVersionC.csv,"Read Version C","Dissertation, read only version C",FISH,TUNA,Study1,B,25,67,Study,User,-,,Study/JOL,"Study Phase",868,,,-1,-1,,,,1
5b9a4067fe0ef200013fe1ed,0mgcu4iv0v,Nick_Dissertation_EX1,1,80,2020-07-08T14:47:38-07:00,2.7175600528717,3,versionC_stim.csv,READVersionC.csv,"Read Version C","Dissertation, read only version C",RACKET,BALL,Study1,F,38,61,Study,User,-,,Study/JOL,"Study Phase",1118,,,-1,-1,,,,1
5b9a4067fe0ef200013fe1ed,0mgcu4iv0v,Nick_Dissertation_EX1,1,81,2020-07-08T14:47:41-07:00,2.5043439865112,3,versionC_stim.csv,READVersionC.csv,"Read Version C","Dissertation, read only version C",BIRD,SWAN,Study1,B,14,55,Study,User,-,,Study/JOL,"Study Phase",1883,,,-1,-1,,,,1
5b9a4067fe0ef200013fe1ed,0mgcu4iv0v,Nick_Dissertation_EX1,1,82,2020-07-08T14:47:42-07:00,1.4411270618439,3,versionC_stim.csv,READVersionC.csv,"Read Version C","Dissertation, read only version C",CLUTTER,PUSHER,Study1,U,66,22,Study,User,-,,Study/JOL,"Study Phase",871,,,-1,-1,,,,1
5b9a4067fe0ef200013fe1ed,0mgcu4iv0v,Nick_Dissertation_EX1,1,83,2020-07-08T14:47:43-07:00,1.4616379737854,3,versionC_stim.csv,READVersionC.csv,"Read Version C","Dissertation, read only version C",WASTE,DUMP,Study1,S,49,31,Study,User,-,,Study/JOL,"Study Phase",851,,,-1,-1,,,,1
5b9a4067fe0ef200013fe1ed,0mgcu4iv0v,Nick_Dissertation_EX1,1,84,2020-07-08T14:47:45-07:00,1.4833998680115,3,versionC_stim.csv,READVersionC.csv,"Read Version C","Dissertation, read only version C",FOOT,SHOE,Study1,S,60,14,Study,User,-,,Study/JOL,"Study Phase",867,,,-1,-1,,,,1
5b9a4067fe0ef200013fe1ed,0mgcu4iv0v,Nick_Dissertation_EX1,1,85,2020-07-08T14:47:46-07:00,1.3747131824493,3,versionC_stim.csv,READVersionC.csv,"Read Version C","Dissertation, read only version C",ADD,VALLEY,Study1,U,82,8,Study,User,-,,Study/JOL,"Study Phase",781,,,-1,-1,,,,1
5b9a4067fe0ef200013fe1ed,0mgcu4iv0v,Nick_Dissertation_EX1,1,86,2020-07-08T14:47:48-07:00,1.488970041275,3,versionC_stim.csv,READVersionC.csv,"Read Version C","Dissertation, read only version C",DESIGN,ARCHITECTURE,Study1,S,51,49,Study,User,-,,Study/JOL,"Study Phase",705,,,-1,-1,,,,1
5b9a4067fe0ef200013fe1ed,0mgcu4iv0v,Nick_Dissertation_EX1,1,87,2020-07-08T14:47:49-07:00,1.3536198139191,3,versionC_stim.csv,READVersionC.csv,"Read Version C","Dissertation, read only version C",SPACE,MOON,BUFFER2,Buffer,89,90,Study,User,-,,Study/JOL,BUFFER2,822,,,-1,-1,,,,1
5b9a4067fe0ef200013fe1ed,0mgcu4iv0v,Nick_Dissertation_EX1,1,88,2020-07-08T14:47:51-07:00,1.3993921279907,3,versionC_stim.csv,READVersionC.csv,"Read Version C","Dissertation, read only version C",STUFF,THING,BUFFER2,Buffer,90,88,Study,User,-,,Study/JOL,BUFFER2,767,,,-1,-1,,,,1
5b9a4067fe0ef200013fe1ed,0mgcu4iv0v,Nick_Dissertation_EX1,1,89,2020-07-08T14:47:52-07:00,1.3339350223541,3,versionC_stim.csv,READVersionC.csv,"Read Version C","Dissertation, read only version C",POLICE,SHERRIF,BUFFER2,Buffer,87,91,Study,User,-,,Study/JOL,BUFFER2,769,,,-1,-1,,,,1
5b9a4067fe0ef200013fe1ed,0mgcu4iv0v,Nick_Dissertation_EX1,1,90,2020-07-08T14:47:53-07:00,1.5485708713531,3,versionC_stim.csv,READVersionC.csv,"Read Version C","Dissertation, read only version C",GOOSE,GEESE,BUFFER2,Buffer,86,89,Study,User,-,,Study/JOL,BUFFER2,715,,,-1,-1,,,,1
5b9a4067fe0ef200013fe1ed,0mgcu4iv0v,Nick_Dissertation_EX1,1,91,2020-07-08T14:47:55-07:00,1.3508031368256,3,versionC_stim.csv,READVersionC.csv,"Read Version C","Dissertation, read only version C",CHOCOLATE,MALT,BUFFER2,Buffer,88,87,Study,User,-,,Study/JOL,BUFFER2,778,,,-1,-1,,,,1
5b9a4067fe0ef200013fe1ed,0mgcu4iv0v,Nick_Dissertation_EX1,1,92,2020-07-08T14:47:58-07:00,3.2791388034821,3,versionC_stim.csv,READVersionC.csv,"Read Version C","Dissertation, read only version C",,,,,,0,Instruct,User,-,"You have completed this section. Please press Enter.",Filler_Instruction,Instruct2,2747,,,-1,-1,,,,1
5b9a4067fe0ef200013fe1ed,0mgcu4iv0v,Nick_Dissertation_EX1,1,93,2020-07-08T14:49:59-07:00,121.23955106735,3,versionC_stim.csv,READVersionC.csv,"Read Version C","Dissertation, read only version C",,,,,,0,FreeRecall,120,120,"Please list the 50 US states in alphabetical order. The task will automatically advance to the next screen after two minutes.",,Filler1,120573,"Alabama Alaska California Colorado Conneticut",0,-1,-1,0,0,,0.577
5b9a4067fe0ef200013fe1ed,0mgcu4iv0v,Nick_Dissertation_EX1,1,94,2020-07-08T14:50:12-07:00,12.661391973495,3,versionC_stim.csv,READVersionC.csv,"Read Version C","Dissertation, read only version C",,,,,,0,Instruct,-,10,"You will now be presented with the first word from each of the previously studied item pairs. Please type the missing word. If you do not know the word, you may guess or press Enter to skip forward to the next pair.",,Instruct3,12082,,,-1,-1,,,,0.967
5b9a4067fe0ef200013fe1ed,0mgcu4iv0v,Nick_Dissertation_EX1,1,95,2020-07-08T14:50:17-07:00,5.2850780487061,3,versionC_stim.csv,READVersionC.csv,"Read Version C","Dissertation, read only version C",ROUND,CIRCLE,Study1,S,65,17,Test,User,-,,Recall,Recall1,4458,Circle,100,-1,-1,1,1,,1
5b9a4067fe0ef200013fe1ed,0mgcu4iv0v,Nick_Dissertation_EX1,1,96,2020-07-08T14:50:23-07:00,5.4006609916687,3,versionC_stim.csv,READVersionC.csv,"Read Version C","Dissertation, read only version C",LIVER,KIDNEY,Study1,S,53,15,Test,User,-,,Recall,Recall1,4343,Kidney,100,-1,-1,1,1,,1
5b9a4067fe0ef200013fe1ed,0mgcu4iv0v,Nick_Dissertation_EX1,1,97,2020-07-08T14:50:26-07:00,3.6479511260986,3,versionC_stim.csv,READVersionC.csv,"Read Version C","Dissertation, read only version C",BLAZE,FIRE,Study1,F,45,43,Test,User,-,,Recall,Recall1,3111,Fire,100,-1,-1,1,1,,1
5b9a4067fe0ef200013fe1ed,0mgcu4iv0v,Nick_Dissertation_EX1,1,98,2020-07-08T14:50:33-07:00,6.5272138118744,3,versionC_stim.csv,READVersionC.csv,"Read Version C","Dissertation, read only version C",CLUTTER,PUSHER,Study1,U,66,22,Test,User,-,,Recall,Recall1,6058,,0,-1,-1,0,0,,1
5b9a4067fe0ef200013fe1ed,0mgcu4iv0v,Nick_Dissertation_EX1,1,99,2020-07-08T14:50:37-07:00,4.1117370128632,3,versionC_stim.csv,READVersionC.csv,"Read Version C","Dissertation, read only version C",STENCH,SMELL,Study1,F,42,86,Test,User,-,,Recall,Recall1,3589,Smell,100,-1,-1,1,1,,1
5b9a4067fe0ef200013fe1ed,0mgcu4iv0v,Nick_Dissertation_EX1,1,100,2020-07-08T14:50:41-07:00,4.0264730453491,3,versionC_stim.csv,READVersionC.csv,"Read Version C","Dissertation, read only version C",WATER,BRIDGE,Study1,B,18,10,Test,User,-,,Recall,Recall1,3592,Tap,0,-1,-1,0,0,,1
5b9a4067fe0ef200013fe1ed,0mgcu4iv0v,Nick_Dissertation_EX1,1,101,2020-07-08T14:50:46-07:00,5.3683040142059,3,versionC_stim.csv,READVersionC.csv,"Read Version C","Dissertation, read only version C",ROCK,GEOLOGY,Study1,B,19,44,Test,User,-,,Recall,Recall1,4534,Bottom,30.769230769231,-1,-1,0,0,,1
5b9a4067fe0ef200013fe1ed,0mgcu4iv0v,Nick_Dissertation_EX1,1,102,2020-07-08T14:50:52-07:00,5.6974649429321,3,versionC_stim.csv,READVersionC.csv,"Read Version C","Dissertation, read only version C",CARD,CREDIT,Study1,B,23,83,Test,User,-,,Recall,Recall1,4366,Credit,100,-1,-1,1,1,,1
5b9a4067fe0ef200013fe1ed,0mgcu4iv0v,Nick_Dissertation_EX1,1,103,2020-07-08T14:50:56-07:00,4.1201210021973,3,versionC_stim.csv,READVersionC.csv,"Read Version C","Dissertation, read only version C",FAMINE,HUNGER,Study1,F,40,24,Test,User,-,,Recall,Recall1,3044,,0,-1,-1,0,0,,1
5b9a4067fe0ef200013fe1ed,0mgcu4iv0v,Nick_Dissertation_EX1,1,104,2020-07-08T14:51:01-07:00,4.6210911273956,3,versionC_stim.csv,READVersionC.csv,"Read Version C","Dissertation, read only version C",LATCH,KEY,Study1,F,36,62,Test,User,-,,Recall,Recall1,3417,Key,100,-1,-1,1,1,,1
5b9a4067fe0ef200013fe1ed,0mgcu4iv0v,Nick_Dissertation_EX1,1,105,2020-07-08T14:51:06-07:00,4.8955810070038,3,versionC_stim.csv,READVersionC.csv,"Read Version C","Dissertation, read only version C",HUNGRY,PARK,Study1,U,68,59,Test,User,-,,Recall,Recall1,4450,Thirsty,18.181818181818,-1,-1,0,0,,1
5b9a4067fe0ef200013fe1ed,0mgcu4iv0v,Nick_Dissertation_EX1,1,106,2020-07-08T14:51:15-07:00,9.6957800388336,3,versionC_stim.csv,READVersionC.csv,"Read Version C","Dissertation, read only version C",DESIGN,ARCHITECTURE,Study1,S,51,49,Test,User,-,,Recall,Recall1,6989,,0,-1,-1,0,0,,1
5b9a4067fe0ef200013fe1ed,0mgcu4iv0v,Nick_Dissertation_EX1,1,107,2020-07-08T14:51:50-07:00,34.861783981323,3,versionC_stim.csv,READVersionC.csv,"Read Version C","Dissertation, read only version C",WOULD,CASH,Study1,U,83,53,Test,User,-,,Recall,Recall1,33685,,0,-1,-1,0,0,,0.701
5b9a4067fe0ef200013fe1ed,0mgcu4iv0v,Nick_Dissertation_EX1,1,108,2020-07-08T14:51:56-07:00,6.1810548305511,3,versionC_stim.csv,READVersionC.csv,"Read Version C","Dissertation, read only version C",BAR,GRILL,Study1,S,52,47,Test,User,-,,Recall,Recall1,4842,Stool,20,-1,-1,0,0,,1
5b9a4067fe0ef200013fe1ed,0mgcu4iv0v,Nick_Dissertation_EX1,1,109,2020-07-08T14:52:01-07:00,5.0734460353851,3,versionC_stim.csv,READVersionC.csv,"Read Version C","Dissertation, read only version C",DEFINITION,MEANING,Study1,S,62,68,Test,User,-,,Recall,Recall1,4496,Word,0,-1,-1,0,0,,1
5b9a4067fe0ef200013fe1ed,0mgcu4iv0v,Nick_Dissertation_EX1,1,110,2020-07-08T14:52:05-07:00,3.7411179542542,3,versionC_stim.csv,READVersionC.csv,"Read Version C","Dissertation, read only version C",NEWS,EDITOR,Study1,B,10,54,Test,User,-,,Recall,Recall1,2511,,0,-1,-1,0,0,,1
5b9a4067fe0ef200013fe1ed,0mgcu4iv0v,Nick_Dissertation_EX1,1,111,2020-07-08T14:52:10-07:00,4.7454760074615,3,versionC_stim.csv,READVersionC.csv,"Read Version C","Dissertation, read only version C",BIRD,SWAN,Study1,B,14,55,Test,User,-,,Recall,Recall1,3263,Swan,100,-1,-1,1,1,,1
5b9a4067fe0ef200013fe1ed,0mgcu4iv0v,Nick_Dissertation_EX1,1,112,2020-07-08T14:52:14-07:00,4.0481441020966,3,versionC_stim.csv,READVersionC.csv,"Read Version C","Dissertation, read only version C",PLANT,ROOT,Study1,B,13,56,Test,User,-,,Recall,Recall1,3368,Root,100,-1,-1,1,1,,1
5b9a4067fe0ef200013fe1ed,0mgcu4iv0v,Nick_Dissertation_EX1,1,113,2020-07-08T14:52:25-07:00,10.939107894897,3,versionC_stim.csv,READVersionC.csv,"Read Version C","Dissertation, read only version C",WASP,BUG,Study1,F,32,11,Test,User,-,,Recall,Recall1,10413,Stingg,22.222222222222,-1,-1,0,0,,1
5b9a4067fe0ef200013fe1ed,0mgcu4iv0v,Nick_Dissertation_EX1,1,114,2020-07-08T14:52:29-07:00,4.4578750133514,3,versionC_stim.csv,READVersionC.csv,"Read Version C","Dissertation, read only version C",STOMACH,DIGESTION,Study1,B,7,80,Test,User,-,,Recall,Recall1,3956,Full,0,-1,-1,0,0,,1
5b9a4067fe0ef200013fe1ed,0mgcu4iv0v,Nick_Dissertation_EX1,1,115,2020-07-08T14:52:33-07:00,3.9143061637878,3,versionC_stim.csv,READVersionC.csv,"Read Version C","Dissertation, read only version C",BELT,SOON,Study1,U,70,33,Test,User,-,,Recall,Recall1,3289,,0,-1,-1,0,0,,1
5b9a4067fe0ef200013fe1ed,0mgcu4iv0v,Nick_Dissertation_EX1,1,116,2020-07-08T14:52:41-07:00,7.4037938117981,3,versionC_stim.csv,READVersionC.csv,"Read Version C","Dissertation, read only version C",SIP,DRINK,Study1,F,27,27,Test,User,-,,Recall,Recall1,4807,Drink,100,-1,-1,1,1,,1
5b9a4067fe0ef200013fe1ed,0mgcu4iv0v,Nick_Dissertation_EX1,1,117,2020-07-08T14:52:45-07:00,4.0530540943146,3,versionC_stim.csv,READVersionC.csv,"Read Version C","Dissertation, read only version C",RACKET,BALL,Study1,F,38,61,Test,User,-,,Recall,Recall1,3532,Ball,100,-1,-1,1,1,,1
5b9a4067fe0ef200013fe1ed,0mgcu4iv0v,Nick_Dissertation_EX1,1,118,2020-07-08T14:52:51-07:00,6.0068800449371,3,versionC_stim.csv,READVersionC.csv,"Read Version C","Dissertation, read only version C",TALK,DISCUSSION,Study1,B,21,79,Test,User,-,,Recall,Recall1,5529,Gossip,37.5,-1,-1,0,0,,1
5b9a4067fe0ef200013fe1ed,0mgcu4iv0v,Nick_Dissertation_EX1,1,119,2020-07-08T14:53:00-07:00,9.251916885376,3,versionC_stim.csv,READVersionC.csv,"Read Version C","Dissertation, read only version C",FOOT,SHOE,Study1,S,60,14,Test,User,-,,Recall,Recall1,8563,Toe,57.142857142857,-1,-1,0,0,,1
5b9a4067fe0ef200013fe1ed,0mgcu4iv0v,Nick_Dissertation_EX1,1,120,2020-07-08T14:53:04-07:00,4.2612400054932,3,versionC_stim.csv,READVersionC.csv,"Read Version C","Dissertation, read only version C",COLD,BITTER,Study1,B,12,36,Test,User,-,,Recall,Recall1,3659,Warm,20,-1,-1,0,0,,1
5b9a4067fe0ef200013fe1ed,0mgcu4iv0v,Nick_Dissertation_EX1,1,121,2020-07-08T14:53:08-07:00,3.6044590473175,3,versionC_stim.csv,READVersionC.csv,"Read Version C","Dissertation, read only version C",HAMMER,CHISEL,Study1,B,9,85,Test,User,-,,Recall,Recall1,3091,Nail,40,-1,-1,0,0,,1
5b9a4067fe0ef200013fe1ed,0mgcu4iv0v,Nick_Dissertation_EX1,1,122,2020-07-08T14:53:33-07:00,25.219737052917,3,versionC_stim.csv,READVersionC.csv,"Read Version C","Dissertation, read only version C",LION,ART,Study1,U,79,50,Test,User,-,,Recall,Recall1,24748,Kingg,0,-1,-1,0,0,,0.593
5b9a4067fe0ef200013fe1ed,0mgcu4iv0v,Nick_Dissertation_EX1,1,123,2020-07-08T14:53:39-07:00,5.5033090114594,3,versionC_stim.csv,READVersionC.csv,"Read Version C","Dissertation, read only version C",BEE,HONEY,Study1,S,63,16,Test,User,-,,Recall,Recall1,4266,Honey,100,-1,-1,1,1,,1
5b9a4067fe0ef200013fe1ed,0mgcu4iv0v,Nick_Dissertation_EX1,1,124,2020-07-08T14:53:43-07:00,4.3452749252319,3,versionC_stim.csv,READVersionC.csv,"Read Version C","Dissertation, read only version C",OUT,WAY,Study1,B,16,13,Test,User,-,,Recall,Recall1,3220,In,0,-1,-1,0,0,,1
5b9a4067fe0ef200013fe1ed,0mgcu4iv0v,Nick_Dissertation_EX1,1,125,2020-07-08T14:53:46-07:00,3.0710871219635,3,versionC_stim.csv,READVersionC.csv,"Read Version C","Dissertation, read only version C",BUSINESS,DEATH,Study1,U,72,75,Test,User,-,,Recall,Recall1,2616,,0,-1,-1,0,0,,1
5b9a4067fe0ef200013fe1ed,0mgcu4iv0v,Nick_Dissertation_EX1,1,126,2020-07-08T14:53:50-07:00,4.3859839439392,3,versionC_stim.csv,READVersionC.csv,"Read Version C","Dissertation, read only version C",PILOT,PLANE,Study1,F,44,42,Test,User,-,,Recall,Recall1,3900,Fly,25,-1,-1,0,0,,1
5b9a4067fe0ef200013fe1ed,0mgcu4iv0v,Nick_Dissertation_EX1,1,127,2020-07-08T14:53:58-07:00,7.9157040119171,3,versionC_stim.csv,READVersionC.csv,"Read Version C","Dissertation, read only version C",BRONZE,ARTERY,Study1,U,74,29,Test,User,-,,Recall,Recall1,4967,Gold,0,-1,-1,0,0,,1
5b9a4067fe0ef200013fe1ed,0mgcu4iv0v,Nick_Dissertation_EX1,1,128,2020-07-08T14:54:13-07:00,15.142292022705,3,versionC_stim.csv,READVersionC.csv,"Read Version C","Dissertation, read only version C",CAVE,DARK,Study1,F,28,37,Test,User,-,,Recall,Recall1,14294,,0,-1,-1,0,0,,0.588
5b9a4067fe0ef200013fe1ed,0mgcu4iv0v,Nick_Dissertation_EX1,1,129,2020-07-08T14:54:18-07:00,4.6603019237518,3,versionC_stim.csv,READVersionC.csv,"Read Version C","Dissertation, read only version C",FLOOR,DISCOVER,Study1,U,71,20,Test,User,-,,Recall,Recall1,4159,Wall,0,-1,-1,0,0,,1
5b9a4067fe0ef200013fe1ed,0mgcu4iv0v,Nick_Dissertation_EX1,1,130,2020-07-08T14:54:21-07:00,3.3527679443359,3,versionC_stim.csv,READVersionC.csv,"Read Version C","Dissertation, read only version C",WASTE,DUMP,Study1,S,49,31,Test,User,-,,Recall,Recall1,2525,,0,-1,-1,0,0,,1
5b9a4067fe0ef200013fe1ed,0mgcu4iv0v,Nick_Dissertation_EX1,1,131,2020-07-08T14:54:28-07:00,6.4365420341492,3,versionC_stim.csv,READVersionC.csv,"Read Version C","Dissertation, read only version C",FISH,TUNA,Study1,B,25,67,Test,User,-,,Recall,Recall1,4069,Tuna,100,-1,-1,1,1,,1
5b9a4067fe0ef200013fe1ed,0mgcu4iv0v,Nick_Dissertation_EX1,1,132,2020-07-08T14:54:32-07:00,4.3366670608521,3,versionC_stim.csv,READVersionC.csv,"Read Version C","Dissertation, read only version C",CAR,HAPPY,Study1,U,77,26,Test,User,-,,Recall,Recall1,3823,Fast,22.222222222222,-1,-1,0,0,,1
5b9a4067fe0ef200013fe1ed,0mgcu4iv0v,Nick_Dissertation_EX1,1,133,2020-07-08T14:54:40-07:00,8.0293469429016,3,versionC_stim.csv,READVersionC.csv,"Read Version C","Dissertation, read only version C",CHEESE,WINE,Study1,S,57,81,Test,User,-,,Recall,Recall1,7095,Wine,100,-1,-1,1,1,,1
5b9a4067fe0ef200013fe1ed,0mgcu4iv0v,Nick_Dissertation_EX1,1,134,2020-07-08T14:54:46-07:00,5.7144989967346,3,versionC_stim.csv,READVersionC.csv,"Read Version C","Dissertation, read only version C",SICK,HIDE,Study1,U,84,60,Test,User,-,,Recall,Recall1,4581,,0,-1,-1,0,0,,1
5b9a4067fe0ef200013fe1ed,0mgcu4iv0v,Nick_Dissertation_EX1,1,135,2020-07-08T14:54:50-07:00,3.7449719905853,3,versionC_stim.csv,READVersionC.csv,"Read Version C","Dissertation, read only version C",SEIZE,TAKE,Study1,F,29,9,Test,User,-,,Recall,Recall1,3137,,0,-1,-1,0,0,,1
5b9a4067fe0ef200013fe1ed,0mgcu4iv0v,Nick_Dissertation_EX1,1,136,2020-07-08T14:55:05-07:00,15.38768696785,3,versionC_stim.csv,READVersionC.csv,"Read Version C","Dissertation, read only version C",FUTURE,PAST,Study1,S,61,51,Test,User,-,,Recall,Recall1,14434,Past,100,-1,-1,1,1,,0.732
5b9a4067fe0ef200013fe1ed,0mgcu4iv0v,Nick_Dissertation_EX1,1,137,2020-07-08T14:55:11-07:00,6.3361001014709,3,versionC_stim.csv,READVersionC.csv,"Read Version C","Dissertation, read only version C",JURY,TRIAL,Study1,S,50,82,Test,User,-,,Recall,Recall1,5563,Judge,0,-1,-1,0,0,,1
5b9a4067fe0ef200013fe1ed,0mgcu4iv0v,Nick_Dissertation_EX1,1,138,2020-07-08T14:55:18-07:00,6.8261160850525,3,versionC_stim.csv,READVersionC.csv,"Read Version C","Dissertation, read only version C",FANTASTIC,GREAT,Study1,F,35,39,Test,User,-,,Recall,Recall1,6027,Brilliant,42.857142857143,-1,-1,0,0,,1
5b9a4067fe0ef200013fe1ed,0mgcu4iv0v,Nick_Dissertation_EX1,1,139,2020-07-08T14:55:29-07:00,11.190658807755,3,versionC_stim.csv,READVersionC.csv,"Read Version C","Dissertation, read only version C",WOMAN,LIFT,Study1,U,69,48,Test,User,-,,Recall,Recall1,10374,Lift,100,-1,-1,1,1,,0.788
5b9a4067fe0ef200013fe1ed,0mgcu4iv0v,Nick_Dissertation_EX1,1,140,2020-07-08T14:55:34-07:00,4.5488710403442,3,versionC_stim.csv,READVersionC.csv,"Read Version C","Dissertation, read only version C",DOG,PAW,Study1,B,15,35,Test,User,-,,Recall,Recall1,4017,Cat,33.333333333333,-1,-1,0,0,,1
5b9a4067fe0ef200013fe1ed,0mgcu4iv0v,Nick_Dissertation_EX1,1,141,2020-07-08T14:55:36-07:00,2.4026341438293,3,versionC_stim.csv,READVersionC.csv,"Read Version C","Dissertation, read only version C",POSITION,MACHINE,Study1,U,76,69,Test,User,-,,Recall,Recall1,1899,,0,-1,-1,0,0,,1
5b9a4067fe0ef200013fe1ed,0mgcu4iv0v,Nick_Dissertation_EX1,1,142,2020-07-08T14:55:41-07:00,4.8252718448639,3,versionC_stim.csv,READVersionC.csv,"Read Version C","Dissertation, read only version C",WIND,BLOW,Study1,S,55,18,Test,User,-,,Recall,Recall1,4285,Blow,100,-1,-1,1,1,,1
5b9a4067fe0ef200013fe1ed,0mgcu4iv0v,Nick_Dissertation_EX1,1,143,2020-07-08T14:55:50-07:00,8.8589270114899,3,versionC_stim.csv,READVersionC.csv,"Read Version C","Dissertation, read only version C",SALAD,LETTUCE,Study1,S,59,45,Test,User,-,,Recall,Recall1,7877,Lettuce,100,-1,-1,1,1,,1
5b9a4067fe0ef200013fe1ed,0mgcu4iv0v,Nick_Dissertation_EX1,1,144,2020-07-08T14:55:57-07:00,6.5055720806122,3,versionC_stim.csv,READVersionC.csv,"Read Version C","Dissertation, read only version C",BAD,DELINQUENT,Study1,B,6,73,Test,User,-,,Recall,Recall1,5934,"Delinquent ",100,-1,-1,1,1,,1
5b9a4067fe0ef200013fe1ed,0mgcu4iv0v,Nick_Dissertation_EX1,1,145,2020-07-08T14:55:59-07:00,2.5295288562775,3,versionC_stim.csv,READVersionC.csv,"Read Version C","Dissertation, read only version C",GROWTH,HEIGHT,Study1,F,30,32,Test,User,-,,Recall,Recall1,2029,,0,-1,-1,0,0,,1
5b9a4067fe0ef200013fe1ed,0mgcu4iv0v,Nick_Dissertation_EX1,1,146,2020-07-08T14:56:01-07:00,2.2922940254211,3,versionC_stim.csv,READVersionC.csv,"Read Version C","Dissertation, read only version C",CHORE,WORK,Study1,F,39,46,Test,User,-,,Recall,Recall1,1708,,0,-1,-1,0,0,,1
5b9a4067fe0ef200013fe1ed,0mgcu4iv0v,Nick_Dissertation_EX1,1,147,2020-07-08T14:56:03-07:00,1.7657120227814,3,versionC_stim.csv,READVersionC.csv,"Read Version C","Dissertation, read only version C",ENOUGH,FULL,Study1,F,26,66,Test,User,-,,Recall,Recall1,1321,,0,-1,-1,0,0,,1
5b9a4067fe0ef200013fe1ed,0mgcu4iv0v,Nick_Dissertation_EX1,1,148,2020-07-08T14:56:05-07:00,2.1798350811005,3,versionC_stim.csv,READVersionC.csv,"Read Version C","Dissertation, read only version C",COW,HERD,Study1,B,22,84,Test,User,-,,Recall,Recall1,1740,,0,-1,-1,0,0,,1
5b9a4067fe0ef200013fe1ed,0mgcu4iv0v,Nick_Dissertation_EX1,1,149,2020-07-08T14:56:07-07:00,1.5300660133362,3,versionC_stim.csv,READVersionC.csv,"Read Version C","Dissertation, read only version C",TUCK,ALLOW,Study1,U,78,19,Test,User,-,,Recall,Recall1,1058,,0,-1,-1,0,0,,1
5b9a4067fe0ef200013fe1ed,0mgcu4iv0v,Nick_Dissertation_EX1,1,150,2020-07-08T14:56:09-07:00,2.1290838718414,3,versionC_stim.csv,READVersionC.csv,"Read Version C","Dissertation, read only version C",HAND,FIX,Study1,U,75,34,Test,User,-,,Recall,Recall1,1644,,0,-1,-1,0,0,,1
5b9a4067fe0ef200013fe1ed,0mgcu4iv0v,Nick_Dissertation_EX1,1,151,2020-07-08T14:56:11-07:00,1.7619981765747,3,versionC_stim.csv,READVersionC.csv,"Read Version C","Dissertation, read only version C",MONEY,WAGE,Study1,B,8,57,Test,User,-,,Recall,Recall1,1337,,0,-1,-1,0,0,,1
5b9a4067fe0ef200013fe1ed,0mgcu4iv0v,Nick_Dissertation_EX1,1,152,2020-07-08T14:56:15-07:00,4.1456789970398,3,versionC_stim.csv,READVersionC.csv,"Read Version C","Dissertation, read only version C",FLOWER,ORCHID,Study1,B,24,52,Test,User,-,,Recall,Recall1,3705,Root,20,-1,-1,0,0,,1
5b9a4067fe0ef200013fe1ed,0mgcu4iv0v,Nick_Dissertation_EX1,1,153,2020-07-08T14:56:26-07:00,10.999975919724,3,versionC_stim.csv,READVersionC.csv,"Read Version C","Dissertation, read only version C",TOILET,BATHROOM,Study1,S,58,7,Test,User,-,,Recall,Recall1,10516,,0,-1,-1,0,0,,0.556
5b9a4067fe0ef200013fe1ed,0mgcu4iv0v,Nick_Dissertation_EX1,1,154,2020-07-08T14:56:30-07:00,4.1602489948273,3,versionC_stim.csv,READVersionC.csv,"Read Version C","Dissertation, read only version C",ATTORNEY,LAW,Study1,F,34,77,Test,User,-,,Recall,Recall1,3664,Law,100,-1,-1,1,1,,1
5b9a4067fe0ef200013fe1ed,0mgcu4iv0v,Nick_Dissertation_EX1,1,155,2020-07-08T14:56:37-07:00,6.5969839096069,3,versionC_stim.csv,READVersionC.csv,"Read Version C","Dissertation, read only version C",STING,HORNET,Study1,B,11,74,Test,User,-,,Recall,Recall1,6118,Bee,22.222222222222,-1,-1,0,0,,1
5b9a4067fe0ef200013fe1ed,0mgcu4iv0v,Nick_Dissertation_EX1,1,156,2020-07-08T14:56:39-07:00,1.9013500213623,3,versionC_stim.csv,READVersionC.csv,"Read Version C","Dissertation, read only version C",DROWSY,SLEEP,Study1,F,41,63,Test,User,-,,Recall,Recall1,1338,,0,-1,-1,0,0,,1
5b9a4067fe0ef200013fe1ed,0mgcu4iv0v,Nick_Dissertation_EX1,1,157,2020-07-08T14:56:40-07:00,1.7401251792908,3,versionC_stim.csv,READVersionC.csv,"Read Version C","Dissertation, read only version C",WORD,SENTENCE,Study1,F,31,78,Test,User,-,,Recall,Recall1,1169,,0,-1,-1,0,0,,1
5b9a4067fe0ef200013fe1ed,0mgcu4iv0v,Nick_Dissertation_EX1,1,158,2020-07-08T14:56:42-07:00,1.7983598709106,3,versionC_stim.csv,READVersionC.csv,"Read Version C","Dissertation, read only version C",ACCIDENT,STRONG,Study1,U,80,70,Test,User,-,,Recall,Recall1,1237,,0,-1,-1,0,0,,1
5b9a4067fe0ef200013fe1ed,0mgcu4iv0v,Nick_Dissertation_EX1,1,159,2020-07-08T14:56:47-07:00,4.7705359458923,3,versionC_stim.csv,READVersionC.csv,"Read Version C","Dissertation, read only version C",CHILD,BABY,Study1,S,64,71,Test,User,-,,Recall,Recall1,4297,Baby,100,-1,-1,1,1,,1
5b9a4067fe0ef200013fe1ed,0mgcu4iv0v,Nick_Dissertation_EX1,1,160,2020-07-08T14:56:59-07:00,11.673696994781,3,versionC_stim.csv,READVersionC.csv,"Read Version C","Dissertation, read only version C",SIGHT,DEBATE,Study1,U,73,64,Test,User,-,,Recall,Recall1,11182,"Debate ",100,-1,-1,1,1,,0.816
5b9a4067fe0ef200013fe1ed,0mgcu4iv0v,Nick_Dissertation_EX1,1,161,2020-07-08T14:57:01-07:00,2.4619741439819,3,versionC_stim.csv,READVersionC.csv,"Read Version C","Dissertation, read only version C",SACKING,DIETARY,Study1,U,67,21,Test,User,-,,Recall,Recall1,1973,,0,-1,-1,0,0,,1
5b9a4067fe0ef200013fe1ed,0mgcu4iv0v,Nick_Dissertation_EX1,1,162,2020-07-08T14:57:06-07:00,4.6197879314423,3,versionC_stim.csv,READVersionC.csv,"Read Version C","Dissertation, read only version C",WAR,REVOLUTION,Study1,B,20,76,Test,User,-,,Recall,Recall1,4078,,0,-1,-1,0,0,,1
5b9a4067fe0ef200013fe1ed,0mgcu4iv0v,Nick_Dissertation_EX1,1,163,2020-07-08T14:57:11-07:00,5.2942390441895,3,versionC_stim.csv,READVersionC.csv,"Read Version C","Dissertation, read only version C",CHILI,HOT,Study1,F,37,38,Test,User,-,,Recall,Recall1,4822,Pepper,0,-1,-1,0,0,,1
5b9a4067fe0ef200013fe1ed,0mgcu4iv0v,Nick_Dissertation_EX1,1,164,2020-07-08T14:57:15-07:00,4.5004858970642,3,versionC_stim.csv,READVersionC.csv,"Read Version C","Dissertation, read only version C",DIVISION,MATH,Study1,F,33,40,Test,User,-,,Recall,Recall1,3021,,0,-1,-1,0,0,,1
5b9a4067fe0ef200013fe1ed,0mgcu4iv0v,Nick_Dissertation_EX1,1,165,2020-07-08T14:57:40-07:00,24.890480995178,3,versionC_stim.csv,READVersionC.csv,"Read Version C","Dissertation, read only version C",SITE,LOCATION,Study1,S,48,41,Test,User,-,,Recall,Recall1,24221,,0,-1,-1,0,0,,0.394
5b9a4067fe0ef200013fe1ed,0mgcu4iv0v,Nick_Dissertation_EX1,1,166,2020-07-08T14:57:42-07:00,1.9719750881195,3,versionC_stim.csv,READVersionC.csv,"Read Version C","Dissertation, read only version C",RIDDLE,SUGAR,Study1,U,81,30,Test,User,-,,Recall,Recall1,1423,,0,-1,-1,0,0,,1
5b9a4067fe0ef200013fe1ed,0mgcu4iv0v,Nick_Dissertation_EX1,1,167,2020-07-08T14:57:44-07:00,1.9269890785217,3,versionC_stim.csv,READVersionC.csv,"Read Version C","Dissertation, read only version C",ASSIGNMENT,DUE,Study1,S,46,12,Test,User,-,,Recall,Recall1,1365,,0,-1,-1,0,0,,1
5b9a4067fe0ef200013fe1ed,0mgcu4iv0v,Nick_Dissertation_EX1,1,168,2020-07-08T14:57:46-07:00,1.4670708179474,3,versionC_stim.csv,READVersionC.csv,"Read Version C","Dissertation, read only version C",AMOUNT,NUMBER,Study1,S,47,28,Test,User,-,,Recall,Recall1,942,,0,-1,-1,0,0,,1
5b9a4067fe0ef200013fe1ed,0mgcu4iv0v,Nick_Dissertation_EX1,1,169,2020-07-08T14:57:57-07:00,11.324715137482,3,versionC_stim.csv,READVersionC.csv,"Read Version C","Dissertation, read only version C",VASE,KING,Study1,U,85,25,Test,User,-,,Recall,Recall1,10800,King,100,-1,-1,1,1,,0.757
5b9a4067fe0ef200013fe1ed,0mgcu4iv0v,Nick_Dissertation_EX1,1,170,2020-07-08T14:58:03-07:00,5.7306799888611,3,versionC_stim.csv,READVersionC.csv,"Read Version C","Dissertation, read only version C",ATTIRE,CLOTHES,Study1,F,43,58,Test,User,-,,Recall,Recall1,5200,Clothes,100,-1,-1,1,1,,1
5b9a4067fe0ef200013fe1ed,0mgcu4iv0v,Nick_Dissertation_EX1,1,171,2020-07-08T14:58:07-07:00,4.3072140216827,3,versionC_stim.csv,READVersionC.csv,"Read Version C","Dissertation, read only version C",CLEAN,HYGIENE,Study1,B,17,72,Test,User,-,,Recall,Recall1,3844,Dirty,16.666666666667,-1,-1,0,0,,1
5b9a4067fe0ef200013fe1ed,0mgcu4iv0v,Nick_Dissertation_EX1,1,172,2020-07-08T14:58:11-07:00,3.8876569271088,3,versionC_stim.csv,READVersionC.csv,"Read Version C","Dissertation, read only version C",SODA,POP,Study1,S,56,23,Test,User,-,,Recall,Recall1,3267,Pop,100,-1,-1,1,1,,1
5b9a4067fe0ef200013fe1ed,0mgcu4iv0v,Nick_Dissertation_EX1,1,173,2020-07-08T14:58:18-07:00,7.2569499015808,3,versionC_stim.csv,READVersionC.csv,"Read Version C","Dissertation, read only version C",END,BEGIN,Study1,S,54,65,Test,User,-,,Recall,Recall1,6747,"Beginning ",71.428571428571,-1,-1,0,0,,1
5b9a4067fe0ef200013fe1ed,0mgcu4iv0v,Nick_Dissertation_EX1,1,174,2020-07-08T14:58:27-07:00,8.8890089988708,3,versionC_stim.csv,READVersionC.csv,"Read Version C","Dissertation, read only version C",ADD,VALLEY,Study1,U,82,8,Test,User,-,,Recall,Recall1,8358,"Subtract ",14.285714285714,-1,-1,0,0,,1
5b9a4067fe0ef200013fe1ed,0mgcu4iv0v,Nick_Dissertation_EX1,1,175,2020-07-08T14:58:39-07:00,11.651338100433,3,versionC_stim.csv,READVersionC.csv,"Read Version C","Dissertation, read only version C",,,,,,0,Instruct,-,10,"You will now be presented with a new set of word pairs. Please study each pair. Remember that your memory will be tested! When finished, press Enter to move to the next pair.",Initial_Instruct,Instruct4,11145,,,-1,-1,,,,1
5b9a4067fe0ef200013fe1ed,0mgcu4iv0v,Nick_Dissertation_EX1,1,176,2020-07-08T14:58:41-07:00,2.285835981369,3,versionC_stim.csv,READVersionC.csv,"Read Version C","Dissertation, read only version C",FROZEN,ICE,BUFFER3,Buffer,94,94,Study,User,-,,Study/JOL,BUFFER3,1771,,,-1,-1,,,,1
5b9a4067fe0ef200013fe1ed,0mgcu4iv0v,Nick_Dissertation_EX1,1,177,2020-07-08T14:58:45-07:00,4.3994710445404,3,versionC_stim.csv,READVersionC.csv,"Read Version C","Dissertation, read only version C",STRING,NOODLE,BUFFER3,Buffer,92,95,Study,User,-,,Study/JOL,BUFFER3,3884,,,-1,-1,,,,1
5b9a4067fe0ef200013fe1ed,0mgcu4iv0v,Nick_Dissertation_EX1,1,178,2020-07-08T14:58:48-07:00,2.439838886261,3,versionC_stim.csv,READVersionC.csv,"Read Version C","Dissertation, read only version C",FISH,SHRIMP,BUFFER3,Buffer,93,96,Study,User,-,,Study/JOL,BUFFER3,1912,,,-1,-1,,,,1
5b9a4067fe0ef200013fe1ed,0mgcu4iv0v,Nick_Dissertation_EX1,1,179,2020-07-08T14:58:50-07:00,2.2822542190552,3,versionC_stim.csv,READVersionC.csv,"Read Version C","Dissertation, read only version C",ADVENTURE,CAMP,BUFFER3,Buffer,95,93,Study,User,-,,Study/JOL,BUFFER3,1771,,,-1,-1,,,,1
5b9a4067fe0ef200013fe1ed,0mgcu4iv0v,Nick_Dissertation_EX1,1,180,2020-07-08T14:58:53-07:00,2.3761179447174,3,versionC_stim.csv,READVersionC.csv,"Read Version C","Dissertation, read only version C",POTATO,CARROT,BUFFER3,Buffer,91,92,Study,User,-,,Study/JOL,BUFFER3,1837,,,-1,-1,,,,1
5b9a4067fe0ef200013fe1ed,0mgcu4iv0v,Nick_Dissertation_EX1,1,181,2020-07-08T14:58:55-07:00,2.3323879241943,3,versionC_stim.csv,READVersionC.csv,"Read Version C","Dissertation, read only version C",PENGUIN,BIRD,Study2,F,119,115,Study,User,-,,Study/JOL,"Study Phase2",1714,,,-1,-1,,,,1
5b9a4067fe0ef200013fe1ed,0mgcu4iv0v,Nick_Dissertation_EX1,1,182,2020-07-08T14:58:57-07:00,2.4455749988556,3,versionC_stim.csv,READVersionC.csv,"Read Version C","Dissertation, read only version C",REEL,ROD,Study2,S,150,132,Study,User,-,,Study/JOL,"Study Phase2",1879,,,-1,-1,,,,1
5b9a4067fe0ef200013fe1ed,0mgcu4iv0v,Nick_Dissertation_EX1,1,183,2020-07-08T14:59:00-07:00,2.5013890266418,3,versionC_stim.csv,READVersionC.csv,"Read Version C","Dissertation, read only version C",DRINK,WATER,Study2,S,143,110,Study,User,-,,Study/JOL,"Study Phase2",2021,,,-1,-1,,,,1
5b9a4067fe0ef200013fe1ed,0mgcu4iv0v,Nick_Dissertation_EX1,1,184,2020-07-08T14:59:02-07:00,2.5664620399475,3,versionC_stim.csv,READVersionC.csv,"Read Version C","Dissertation, read only version C",BRAWL,FIGHT,Study2,F,135,147,Study,User,-,,Study/JOL,"Study Phase2",2076,,,-1,-1,,,,1
5b9a4067fe0ef200013fe1ed,0mgcu4iv0v,Nick_Dissertation_EX1,1,185,2020-07-08T14:59:11-07:00,8.1487028598785,3,versionC_stim.csv,READVersionC.csv,"Read Version C","Dissertation, read only version C",ELECTION,MAZE,Study2,U,159,169,Study,User,-,,Study/JOL,"Study Phase2",7380,,,-1,-1,,,,1
5b9a4067fe0ef200013fe1ed,0mgcu4iv0v,Nick_Dissertation_EX1,1,186,2020-07-08T14:59:14-07:00,3.1108260154724,3,versionC_stim.csv,READVersionC.csv,"Read Version C","Dissertation, read only version C",PAPER,DOCUMENT,Study2,B,109,104,Study,User,-,,Study/JOL,"Study Phase2",1842,,,-1,-1,,,,1
5b9a4067fe0ef200013fe1ed,0mgcu4iv0v,Nick_Dissertation_EX1,1,187,2020-07-08T14:59:17-07:00,2.9999380111694,3,versionC_stim.csv,READVersionC.csv,"Read Version C","Dissertation, read only version C",CHILDREN,MIRROR,Study2,U,174,112,Study,User,-,,Study/JOL,"Study Phase2",2563,,,-1,-1,,,,1
5b9a4067fe0ef200013fe1ed,0mgcu4iv0v,Nick_Dissertation_EX1,1,188,2020-07-08T14:59:19-07:00,2.4739620685577,3,versionC_stim.csv,READVersionC.csv,"Read Version C","Dissertation, read only version C",PLANT,CACTUS,Study2,B,98,102,Study,User,-,,Study/JOL,"Study Phase2",1739,,,-1,-1,,,,1
5b9a4067fe0ef200013fe1ed,0mgcu4iv0v,Nick_Dissertation_EX1,1,189,2020-07-08T14:59:22-07:00,3.1510689258575,3,versionC_stim.csv,READVersionC.csv,"Read Version C","Dissertation, read only version C",SHAVE,RAZOR,Study2,S,136,121,Study,User,-,,Study/JOL,"Study Phase2",1688,,,-1,-1,,,,1
5b9a4067fe0ef200013fe1ed,0mgcu4iv0v,Nick_Dissertation_EX1,1,190,2020-07-08T14:59:24-07:00,1.6841230392456,3,versionC_stim.csv,READVersionC.csv,"Read Version C","Dissertation, read only version C",BALLOON,POP,Study2,F,123,163,Study,User,-,,Study/JOL,"Study Phase2",1210,,,-1,-1,,,,1
5b9a4067fe0ef200013fe1ed,0mgcu4iv0v,Nick_Dissertation_EX1,1,191,2020-07-08T14:59:27-07:00,3.5268161296844,3,versionC_stim.csv,READVersionC.csv,"Read Version C","Dissertation, read only version C",SIGN,LOAN,Study2,U,171,170,Study,User,-,,Study/JOL,"Study Phase2",3048,,,-1,-1,,,,1
5b9a4067fe0ef200013fe1ed,0mgcu4iv0v,Nick_Dissertation_EX1,1,192,2020-07-08T14:59:29-07:00,1.8917479515076,3,versionC_stim.csv,READVersionC.csv,"Read Version C","Dissertation, read only version C",MAROON,JUSTICE,Study2,U,156,107,Study,User,-,,Study/JOL,"Study Phase2",1420,,,-1,-1,,,,1
5b9a4067fe0ef200013fe1ed,0mgcu4iv0v,Nick_Dissertation_EX1,1,193,2020-07-08T14:59:32-07:00,2.6538529396057,3,versionC_stim.csv,READVersionC.csv,"Read Version C","Dissertation, read only version C",GROUND,EARTH,Study2,S,144,117,Study,User,-,,Study/JOL,"Study Phase2",2054,,,-1,-1,,,,1
5b9a4067fe0ef200013fe1ed,0mgcu4iv0v,Nick_Dissertation_EX1,1,194,2020-07-08T14:59:35-07:00,3.2363801002502,3,versionC_stim.csv,READVersionC.csv,"Read Version C","Dissertation, read only version C",THIMBLE,THREAD,Study2,F,121,142,Study,User,-,,Study/JOL,"Study Phase2",2277,,,-1,-1,,,,1
5b9a4067fe0ef200013fe1ed,0mgcu4iv0v,Nick_Dissertation_EX1,1,195,2020-07-08T14:59:38-07:00,2.3440918922424,3,versionC_stim.csv,READVersionC.csv,"Read Version C","Dissertation, read only version C",ACTRESS,STAR,Study2,F,120,105,Study,User,-,,Study/JOL,"Study Phase2",1888,,,-1,-1,,,,1
5b9a4067fe0ef200013fe1ed,0mgcu4iv0v,Nick_Dissertation_EX1,1,196,2020-07-08T14:59:41-07:00,3.3213510513306,3,versionC_stim.csv,READVersionC.csv,"Read Version C","Dissertation, read only version C",SHAKE,Shell,Study2,U,163,155,Study,User,-,,Study/JOL,"Study Phase2",2857,,,-1,-1,,,,1
5b9a4067fe0ef200013fe1ed,0mgcu4iv0v,Nick_Dissertation_EX1,1,197,2020-07-08T14:59:44-07:00,3.0882499217987,3,versionC_stim.csv,READVersionC.csv,"Read Version C","Dissertation, read only version C",HAVE,OWN,Study2,S,153,97,Study,User,-,,Study/JOL,"Study Phase2",2306,,,-1,-1,,,,1
5b9a4067fe0ef200013fe1ed,0mgcu4iv0v,Nick_Dissertation_EX1,1,198,2020-07-08T14:59:46-07:00,2.2608060836792,3,versionC_stim.csv,READVersionC.csv,"Read Version C","Dissertation, read only version C",TICK,FLEA,Study2,S,151,172,Study,User,-,,Study/JOL,"Study Phase2",1144,,,-1,-1,,,,1
5b9a4067fe0ef200013fe1ed,0mgcu4iv0v,Nick_Dissertation_EX1,1,199,2020-07-08T14:59:48-07:00,1.4517168998718,3,versionC_stim.csv,READVersionC.csv,"Read Version C","Dissertation, read only version C",OUNCE,BOTH,Study2,U,172,128,Study,User,-,,Study/JOL,"Study Phase2",1002,,,-1,-1,,,,1
5b9a4067fe0ef200013fe1ed,0mgcu4iv0v,Nick_Dissertation_EX1,1,200,2020-07-08T14:59:50-07:00,2.3729469776154,3,versionC_stim.csv,READVersionC.csv,"Read Version C","Dissertation, read only version C",AIRCRAFT,PLANE,Study2,F,129,143,Study,User,-,,Study/JOL,"Study Phase2",1951,,,-1,-1,,,,1
5b9a4067fe0ef200013fe1ed,0mgcu4iv0v,Nick_Dissertation_EX1,1,201,2020-07-08T14:59:53-07:00,2.8915910720825,3,versionC_stim.csv,READVersionC.csv,"Read Version C","Dissertation, read only version C",RED,CHERRY,Study2,B,104,165,Study,User,-,,Study/JOL,"Study Phase2",2234,,,-1,-1,,,,1
5b9a4067fe0ef200013fe1ed,0mgcu4iv0v,Nick_Dissertation_EX1,1,202,2020-07-08T14:59:57-07:00,4.0242590904236,3,versionC_stim.csv,READVersionC.csv,"Read Version C","Dissertation, read only version C",HATE,NAME,Study2,U,167,173,Study,User,-,,Study/JOL,"Study Phase2",2493,,,-1,-1,,,,1
5b9a4067fe0ef200013fe1ed,0mgcu4iv0v,Nick_Dissertation_EX1,1,203,2020-07-08T14:59:59-07:00,1.9979798793793,3,versionC_stim.csv,READVersionC.csv,"Read Version C","Dissertation, read only version C",BRACELET,WRIST,Study2,S,140,162,Study,User,-,,Study/JOL,"Study Phase2",1536,,,-1,-1,,,,1
5b9a4067fe0ef200013fe1ed,0mgcu4iv0v,Nick_Dissertation_EX1,1,204,2020-07-08T15:00:02-07:00,3.1661169528961,3,versionC_stim.csv,READVersionC.csv,"Read Version C","Dissertation, read only version C",TRASH,LITTER,Study2,B,103,161,Study,User,-,,Study/JOL,"Study Phase2",2650,,,-1,-1,,,,1
5b9a4067fe0ef200013fe1ed,0mgcu4iv0v,Nick_Dissertation_EX1,1,205,2020-07-08T15:00:06-07:00,4.0214521884918,3,versionC_stim.csv,READVersionC.csv,"Read Version C","Dissertation, read only version C",SCISSORS,SHEARS,Study2,B,112,127,Study,User,-,,Study/JOL,"Study Phase2",3192,,,-1,-1,,,,1
5b9a4067fe0ef200013fe1ed,0mgcu4iv0v,Nick_Dissertation_EX1,1,206,2020-07-08T15:00:09-07:00,2.7671790122986,3,versionC_stim.csv,READVersionC.csv,"Read Version C","Dissertation, read only version C",SEATBELT,SAFETY,Study2,S,147,99,Study,User,-,,Study/JOL,"Study Phase2",2316,,,-1,-1,,,,1
5b9a4067fe0ef200013fe1ed,0mgcu4iv0v,Nick_Dissertation_EX1,1,207,2020-07-08T15:00:14-07:00,5.0498218536377,3,versionC_stim.csv,READVersionC.csv,"Read Version C","Dissertation, read only version C",CLEAR,MOAT,Study2,U,169,154,Study,User,-,,Study/JOL,"Study Phase2",4300,,,-1,-1,,,,1
5b9a4067fe0ef200013fe1ed,0mgcu4iv0v,Nick_Dissertation_EX1,1,208,2020-07-08T15:00:17-07:00,3.17143201828,3,versionC_stim.csv,READVersionC.csv,"Read Version C","Dissertation, read only version C",EAT,DINE,Study2,B,111,126,Study,User,-,,Study/JOL,"Study Phase2",2407,,,-1,-1,,,,1
5b9a4067fe0ef200013fe1ed,0mgcu4iv0v,Nick_Dissertation_EX1,1,209,2020-07-08T15:00:20-07:00,2.8279829025269,3,versionC_stim.csv,READVersionC.csv,"Read Version C","Dissertation, read only version C",SCAR,MAIN,Study2,U,175,153,Study,User,-,,Study/JOL,"Study Phase2",2404,,,-1,-1,,,,1
5b9a4067fe0ef200013fe1ed,0mgcu4iv0v,Nick_Dissertation_EX1,1,210,2020-07-08T15:00:22-07:00,1.8837151527405,3,versionC_stim.csv,READVersionC.csv,"Read Version C","Dissertation, read only version C",BANG,FUZZY,Study2,U,168,111,Study,User,-,,Study/JOL,"Study Phase2",1434,,,-1,-1,,,,1
5b9a4067fe0ef200013fe1ed,0mgcu4iv0v,Nick_Dissertation_EX1,1,211,2020-07-08T15:00:24-07:00,1.7662689685822,3,versionC_stim.csv,READVersionC.csv,"Read Version C","Dissertation, read only version C",STRAWBERRY,FRUIT,Study2,F,124,135,Study,User,-,,Study/JOL,"Study Phase2",1286,,,-1,-1,,,,1
5b9a4067fe0ef200013fe1ed,0mgcu4iv0v,Nick_Dissertation_EX1,1,212,2020-07-08T15:00:25-07:00,1.2918260097504,3,versionC_stim.csv,READVersionC.csv,"Read Version C","Dissertation, read only version C",JOKE,KEYS,Study2,U,165,167,Study,User,-,,Study/JOL,"Study Phase2",853,,,-1,-1,,,,1
5b9a4067fe0ef200013fe1ed,0mgcu4iv0v,Nick_Dissertation_EX1,1,213,2020-07-08T15:00:28-07:00,2.6068708896637,3,versionC_stim.csv,READVersionC.csv,"Read Version C","Dissertation, read only version C",CARBON,ELEMENT,Study2,S,141,140,Study,User,-,,Study/JOL,"Study Phase2",2169,,,-1,-1,,,,1
5b9a4067fe0ef200013fe1ed,0mgcu4iv0v,Nick_Dissertation_EX1,1,214,2020-07-08T15:00:30-07:00,2.4236981868744,3,versionC_stim.csv,READVersionC.csv,"Read Version C","Dissertation, read only version C",SARDINE,FISH,Study2,F,130,129,Study,User,-,,Study/JOL,"Study Phase2",1790,,,-1,-1,,,,1
5b9a4067fe0ef200013fe1ed,0mgcu4iv0v,Nick_Dissertation_EX1,1,215,2020-07-08T15:00:32-07:00,2.315064907074,3,versionC_stim.csv,READVersionC.csv,"Read Version C","Dissertation, read only version C",CUT,CHOP,Study2,B,107,109,Study,User,-,,Study/JOL,"Study Phase2",1344,,,-1,-1,,,,1
5b9a4067fe0ef200013fe1ed,0mgcu4iv0v,Nick_Dissertation_EX1,1,216,2020-07-08T15:00:34-07:00,1.8814299106598,3,versionC_stim.csv,READVersionC.csv,"Read Version C","Dissertation, read only version C",OBTAIN,MEAT,Study2,U,161,171,Study,User,-,,Study/JOL,"Study Phase2",1446,,,-1,-1,,,,1
5b9a4067fe0ef200013fe1ed,0mgcu4iv0v,Nick_Dissertation_EX1,1,217,2020-07-08T15:00:37-07:00,2.4604389667511,3,versionC_stim.csv,READVersionC.csv,"Read Version C","Dissertation, read only version C",BANKER,MONEY,Study2,F,132,103,Study,User,-,,Study/JOL,"Study Phase2",2031,,,-1,-1,,,,1
5b9a4067fe0ef200013fe1ed,0mgcu4iv0v,Nick_Dissertation_EX1,1,218,2020-07-08T15:00:39-07:00,2.0412731170654,3,versionC_stim.csv,READVersionC.csv,"Read Version C","Dissertation, read only version C",TIE,SHOELACE,Study2,B,99,116,Study,User,-,,Study/JOL,"Study Phase2",1611,,,-1,-1,,,,1
5b9a4067fe0ef200013fe1ed,0mgcu4iv0v,Nick_Dissertation_EX1,1,219,2020-07-08T15:00:40-07:00,1.7168900966644,3,versionC_stim.csv,READVersionC.csv,"Read Version C","Dissertation, read only version C",STEAK,GIVE,Study2,U,158,152,Study,User,-,,Study/JOL,"Study Phase2",1168,,,-1,-1,,,,1
5b9a4067fe0ef200013fe1ed,0mgcu4iv0v,Nick_Dissertation_EX1,1,220,2020-07-08T15:00:44-07:00,4.0375759601593,3,versionC_stim.csv,READVersionC.csv,"Read Version C","Dissertation, read only version C",TEMPER,TANTRUM,Study2,S,154,131,Study,User,-,,Study/JOL,"Study Phase2",3082,,,-1,-1,,,,1
5b9a4067fe0ef200013fe1ed,0mgcu4iv0v,Nick_Dissertation_EX1,1,221,2020-07-08T15:00:46-07:00,1.8595378398895,3,versionC_stim.csv,READVersionC.csv,"Read Version C","Dissertation, read only version C",AWAY,GONE,Study2,S,142,133,Study,User,-,,Study/JOL,"Study Phase2",1456,,,-1,-1,,,,1
5b9a4067fe0ef200013fe1ed,0mgcu4iv0v,Nick_Dissertation_EX1,1,222,2020-07-08T15:00:48-07:00,2.1701390743256,3,versionC_stim.csv,READVersionC.csv,"Read Version C","Dissertation, read only version C",COFFIN,DEAD,Study2,F,128,123,Study,User,-,,Study/JOL,"Study Phase2",1728,,,-1,-1,,,,1
5b9a4067fe0ef200013fe1ed,0mgcu4iv0v,Nick_Dissertation_EX1,1,223,2020-07-08T15:00:52-07:00,3.5385420322418,3,versionC_stim.csv,READVersionC.csv,"Read Version C","Dissertation, read only version C",VILLAIN,BAD,Study2,F,118,176,Study,User,-,,Study/JOL,"Study Phase2",2678,,,-1,-1,,,,1
5b9a4067fe0ef200013fe1ed,0mgcu4iv0v,Nick_Dissertation_EX1,1,224,2020-07-08T15:00:56-07:00,3.5565319061279,3,versionC_stim.csv,READVersionC.csv,"Read Version C","Dissertation, read only version C",MYSTERY,DETECTIVE,Study2,B,100,149,Study,User,-,,Study/JOL,"Study Phase2",2819,,,-1,-1,,,,1
5b9a4067fe0ef200013fe1ed,0mgcu4iv0v,Nick_Dissertation_EX1,1,225,2020-07-08T15:00:58-07:00,2.9064121246338,3,versionC_stim.csv,READVersionC.csv,"Read Version C","Dissertation, read only version C",NAP,SLEEP,Study2,F,134,101,Study,User,-,,Study/JOL,"Study Phase2",2428,,,-1,-1,,,,1
5b9a4067fe0ef200013fe1ed,0mgcu4iv0v,Nick_Dissertation_EX1,1,226,2020-07-08T15:01:02-07:00,3.3446960449219,3,versionC_stim.csv,READVersionC.csv,"Read Version C","Dissertation, read only version C",GAME,CLUE,Study2,B,97,138,Study,User,-,,Study/JOL,"Study Phase2",2728,,,-1,-1,,,,1
5b9a4067fe0ef200013fe1ed,0mgcu4iv0v,Nick_Dissertation_EX1,1,227,2020-07-08T15:01:15-07:00,13.335038900375,3,versionC_stim.csv,READVersionC.csv,"Read Version C","Dissertation, read only version C",CLOTH,STRETCH,Study2,U,157,106,Study,User,-,,Study/JOL,"Study Phase2",3256,,,-1,-1,,,,1
5b9a4067fe0ef200013fe1ed,0mgcu4iv0v,Nick_Dissertation_EX1,1,228,2020-07-08T15:01:18-07:00,2.6898670196533,3,versionC_stim.csv,READVersionC.csv,"Read Version C","Dissertation, read only version C",TRUTHFUL,HONEST,Study2,F,133,125,Study,User,-,,Study/JOL,"Study Phase2",1854,,,-1,-1,,,,1
5b9a4067fe0ef200013fe1ed,0mgcu4iv0v,Nick_Dissertation_EX1,1,229,2020-07-08T15:01:19-07:00,1.6002819538116,3,versionC_stim.csv,READVersionC.csv,"Read Version C","Dissertation, read only version C",Morning,TEMPERATURE,Study2,U,173,119,Study,User,-,,Study/JOL,"Study Phase2",1138,,,-1,-1,,,,1
5b9a4067fe0ef200013fe1ed,0mgcu4iv0v,Nick_Dissertation_EX1,1,230,2020-07-08T15:01:23-07:00,3.9464819431305,3,versionC_stim.csv,READVersionC.csv,"Read Version C","Dissertation, read only version C",JAR,MASON,Study2,S,138,164,Study,User,-,,Study/JOL,"Study Phase2",3480,,,-1,-1,,,,1
5b9a4067fe0ef200013fe1ed,0mgcu4iv0v,Nick_Dissertation_EX1,1,231,2020-07-08T15:01:26-07:00,2.7306702136993,3,versionC_stim.csv,READVersionC.csv,"Read Version C","Dissertation, read only version C",FIGHT,FEUD,Study2,B,113,148,Study,User,-,,Study/JOL,"Study Phase2",2326,,,-1,-1,,,,1
5b9a4067fe0ef200013fe1ed,0mgcu4iv0v,Nick_Dissertation_EX1,1,232,2020-07-08T15:01:28-07:00,2.3115088939667,3,versionC_stim.csv,READVersionC.csv,"Read Version C","Dissertation, read only version C",COLD,CHILL,Study2,B,114,113,Study,User,-,,Study/JOL,"Study Phase2",1765,,,-1,-1,,,,1
5b9a4067fe0ef200013fe1ed,0mgcu4iv0v,Nick_Dissertation_EX1,1,233,2020-07-08T15:01:30-07:00,1.8997778892517,3,versionC_stim.csv,READVersionC.csv,"Read Version C","Dissertation, read only version C",HEAD,SCALP,Study2,B,105,174,Study,User,-,,Study/JOL,"Study Phase2",1406,,,-1,-1,,,,1
5b9a4067fe0ef200013fe1ed,0mgcu4iv0v,Nick_Dissertation_EX1,1,234,2020-07-08T15:01:34-07:00,3.1765170097351,3,versionC_stim.csv,READVersionC.csv,"Read Version C","Dissertation, read only version C",SMELL,INCENSE,Study2,B,110,160,Study,User,-,,Study/JOL,"Study Phase2",2719,,,-1,-1,,,,1
5b9a4067fe0ef200013fe1ed,0mgcu4iv0v,Nick_Dissertation_EX1,1,235,2020-07-08T15:01:38-07:00,4.4801452159882,3,versionC_stim.csv,READVersionC.csv,"Read Version C","Dissertation, read only version C",END,ADJOURN,Study2,B,101,150,Study,User,-,,Study/JOL,"Study Phase2",2614,,,-1,-1,,,,1
5b9a4067fe0ef200013fe1ed,0mgcu4iv0v,Nick_Dissertation_EX1,1,236,2020-07-08T15:01:40-07:00,2.0880508422852,3,versionC_stim.csv,READVersionC.csv,"Read Version C","Dissertation, read only version C",TAN,SUN,Study2,S,155,156,Study,User,-,,Study/JOL,"Study Phase2",1620,,,-1,-1,,,,1
5b9a4067fe0ef200013fe1ed,0mgcu4iv0v,Nick_Dissertation_EX1,1,237,2020-07-08T15:01:43-07:00,3.0655040740967,3,versionC_stim.csv,READVersionC.csv,"Read Version C","Dissertation, read only version C",LEAGUE,BASEBALL,Study2,F,131,159,Study,User,-,,Study/JOL,"Study Phase2",2606,,,-1,-1,,,,1
5b9a4067fe0ef200013fe1ed,0mgcu4iv0v,Nick_Dissertation_EX1,1,238,2020-07-08T15:01:46-07:00,3.22003698349,3,versionC_stim.csv,READVersionC.csv,"Read Version C","Dissertation, read only version C",CLOTHES,CAKE,Study2,U,166,168,Study,User,-,,Study/JOL,"Study Phase2",2761,,,-1,-1,,,,1
5b9a4067fe0ef200013fe1ed,0mgcu4iv0v,Nick_Dissertation_EX1,1,239,2020-07-08T15:01:48-07:00,2.0041470527649,3,versionC_stim.csv,READVersionC.csv,"Read Version C","Dissertation, read only version C",BREAKABLE,GLASS,Study2,F,127,158,Study,User,-,,Study/JOL,"Study Phase2",1562,,,-1,-1,,,,1
5b9a4067fe0ef200013fe1ed,0mgcu4iv0v,Nick_Dissertation_EX1,1,240,2020-07-08T15:01:50-07:00,1.8967299461365,3,versionC_stim.csv,READVersionC.csv,"Read Version C","Dissertation, read only version C",NOISE,LOUD,Study2,S,152,137,Study,User,-,,Study/JOL,"Study Phase2",1251,,,-1,-1,,,,1
5b9a4067fe0ef200013fe1ed,0mgcu4iv0v,Nick_Dissertation_EX1,1,241,2020-07-08T15:01:53-07:00,2.7259480953217,3,versionC_stim.csv,READVersionC.csv,"Read Version C","Dissertation, read only version C",PANTHER,CAT,Study2,F,126,145,Study,User,-,,Study/JOL,"Study Phase2",1762,,,-1,-1,,,,1
5b9a4067fe0ef200013fe1ed,0mgcu4iv0v,Nick_Dissertation_EX1,1,242,2020-07-08T15:01:55-07:00,1.8392379283905,3,versionC_stim.csv,READVersionC.csv,"Read Version C","Dissertation, read only version C",WAX,CANDLE,Study2,S,139,114,Study,User,-,,Study/JOL,"Study Phase2",1406,,,-1,-1,,,,1
5b9a4067fe0ef200013fe1ed,0mgcu4iv0v,Nick_Dissertation_EX1,1,243,2020-07-08T15:01:57-07:00,1.9196970462799,3,versionC_stim.csv,READVersionC.csv,"Read Version C","Dissertation, read only version C",DOG,FURRY,Study2,B,102,98,Study,User,-,,Study/JOL,"Study Phase2",1482,,,-1,-1,,,,1
5b9a4067fe0ef200013fe1ed,0mgcu4iv0v,Nick_Dissertation_EX1,1,244,2020-07-08T15:02:00-07:00,2.8118839263916,3,versionC_stim.csv,READVersionC.csv,"Read Version C","Dissertation, read only version C",EQUAL,RIGHTS,Study2,S,137,100,Study,User,-,,Study/JOL,"Study Phase2",1393,,,-1,-1,,,,1
5b9a4067fe0ef200013fe1ed,0mgcu4iv0v,Nick_Dissertation_EX1,1,245,2020-07-08T15:02:03-07:00,3.0602560043335,3,versionC_stim.csv,READVersionC.csv,"Read Version C","Dissertation, read only version C",FAVORITE,BEST,Study2,F,125,146,Study,User,-,,Study/JOL,"Study Phase2",1496,,,-1,-1,,,,1
5b9a4067fe0ef200013fe1ed,0mgcu4iv0v,Nick_Dissertation_EX1,1,246,2020-07-08T15:02:07-07:00,4.5976359844208,3,versionC_stim.csv,READVersionC.csv,"Read Version C","Dissertation, read only version C",COMMUNICATION,PHONE,Study2,S,149,151,Study,User,-,,Study/JOL,"Study Phase2",3806,,,-1,-1,,,,1
5b9a4067fe0ef200013fe1ed,0mgcu4iv0v,Nick_Dissertation_EX1,1,247,2020-07-08T15:02:11-07:00,3.5512299537659,3,versionC_stim.csv,READVersionC.csv,"Read Version C","Dissertation, read only version C",FLIP,TURN,Study2,F,116,144,Study,User,-,,Study/JOL,"Study Phase2",2472,,,-1,-1,,,,1
5b9a4067fe0ef200013fe1ed,0mgcu4iv0v,Nick_Dissertation_EX1,1,248,2020-07-08T15:02:14-07:00,2.8256180286407,3,versionC_stim.csv,READVersionC.csv,"Read Version C","Dissertation, read only version C",LONELY,ALONE,Study2,S,145,166,Study,User,-,,Study/JOL,"Study Phase2",2344,,,-1,-1,,,,1
5b9a4067fe0ef200013fe1ed,0mgcu4iv0v,Nick_Dissertation_EX1,1,249,2020-07-08T15:02:18-07:00,4.8474309444427,3,versionC_stim.csv,READVersionC.csv,"Read Version C","Dissertation, read only version C",CHARM,VEHICLE,Study2,U,160,141,Study,User,-,,Study/JOL,"Study Phase2",4104,,,-1,-1,,,,1
5b9a4067fe0ef200013fe1ed,0mgcu4iv0v,Nick_Dissertation_EX1,1,250,2020-07-08T15:02:22-07:00,3.3415021896362,3,versionC_stim.csv,READVersionC.csv,"Read Version C","Dissertation, read only version C",LIE,TRUTH,Study2,S,148,175,Study,User,-,,Study/JOL,"Study Phase2",2626,,,-1,-1,,,,1
5b9a4067fe0ef200013fe1ed,0mgcu4iv0v,Nick_Dissertation_EX1,1,251,2020-07-08T15:02:25-07:00,2.8559989929199,3,versionC_stim.csv,READVersionC.csv,"Read Version C","Dissertation, read only version C",DONKEY,MULE,Study2,B,108,139,Study,User,-,,Study/JOL,"Study Phase2",2410,,,-1,-1,,,,1
5b9a4067fe0ef200013fe1ed,0mgcu4iv0v,Nick_Dissertation_EX1,1,252,2020-07-08T15:02:27-07:00,2.6334209442139,3,versionC_stim.csv,READVersionC.csv,"Read Version C","Dissertation, read only version C",ABLE,CRACKLE,Study2,U,162,122,Study,User,-,,Study/JOL,"Study Phase2",2051,,,-1,-1,,,,1
5b9a4067fe0ef200013fe1ed,0mgcu4iv0v,Nick_Dissertation_EX1,1,253,2020-07-08T15:02:31-07:00,3.5032739639282,3,versionC_stim.csv,READVersionC.csv,"Read Version C","Dissertation, read only version C",REVENGE,EVEN,Study2,F,122,134,Study,User,-,,Study/JOL,"Study Phase2",2309,,,-1,-1,,,,1
5b9a4067fe0ef200013fe1ed,0mgcu4iv0v,Nick_Dissertation_EX1,1,254,2020-07-08T15:02:33-07:00,2.5496020317078,3,versionC_stim.csv,READVersionC.csv,"Read Version C","Dissertation, read only version C",TOIL,LEASE,Study2,U,170,124,Study,User,-,,Study/JOL,"Study Phase2",2049,,,-1,-1,,,,1
5b9a4067fe0ef200013fe1ed,0mgcu4iv0v,Nick_Dissertation_EX1,1,255,2020-07-08T15:02:35-07:00,1.8272969722748,3,versionC_stim.csv,READVersionC.csv,"Read Version C","Dissertation, read only version C",WET,DRY,Study2,S,146,120,Study,User,-,,Study/JOL,"Study Phase2",1312,,,-1,-1,,,,1
5b9a4067fe0ef200013fe1ed,0mgcu4iv0v,Nick_Dissertation_EX1,1,256,2020-07-08T15:02:38-07:00,3.0109779834747,3,versionC_stim.csv,READVersionC.csv,"Read Version C","Dissertation, read only version C",CAR,DRIVER,Study2,B,106,136,Study,User,-,,Study/JOL,"Study Phase2",2474,,,-1,-1,,,,1
5b9a4067fe0ef200013fe1ed,0mgcu4iv0v,Nick_Dissertation_EX1,1,257,2020-07-08T15:02:41-07:00,3.1801779270172,3,versionC_stim.csv,READVersionC.csv,"Read Version C","Dissertation, read only version C",LONG,EXTENSION,Study2,B,96,130,Study,User,-,,Study/JOL,"Study Phase2",2421,,,-1,-1,,,,1
5b9a4067fe0ef200013fe1ed,0mgcu4iv0v,Nick_Dissertation_EX1,1,258,2020-07-08T15:02:43-07:00,2.000027179718,3,versionC_stim.csv,READVersionC.csv,"Read Version C","Dissertation, read only version C",FICTION,LISTEN,Study2,U,164,157,Study,User,-,,Study/JOL,"Study Phase2",1578,,,-1,-1,,,,1
5b9a4067fe0ef200013fe1ed,0mgcu4iv0v,Nick_Dissertation_EX1,1,259,2020-07-08T15:02:46-07:00,2.4394710063934,3,versionC_stim.csv,READVersionC.csv,"Read Version C","Dissertation, read only version C",WINDSHIELD,CAR,Study2,F,117,118,Study,User,-,,Study/JOL,"Study Phase2",1916,,,-1,-1,,,,1
5b9a4067fe0ef200013fe1ed,0mgcu4iv0v,Nick_Dissertation_EX1,1,260,2020-07-08T15:02:49-07:00,2.7732498645782,3,versionC_stim.csv,READVersionC.csv,"Read Version C","Dissertation, read only version C",LOVE,AFFECTION,Study2,B,115,108,Study,User,-,,Study/JOL,"Study Phase2",2131,,,-1,-1,,,,1
5b9a4067fe0ef200013fe1ed,0mgcu4iv0v,Nick_Dissertation_EX1,1,261,2020-07-08T15:02:50-07:00,1.315493106842,3,versionC_stim.csv,READVersionC.csv,"Read Version C","Dissertation, read only version C",YEAR,MONTH,BUFFER4,Buffer,177,181,Study,User,-,,Study/JOL,BUFFER4,853,,,-1,-1,,,,1
5b9a4067fe0ef200013fe1ed,0mgcu4iv0v,Nick_Dissertation_EX1,1,262,2020-07-08T15:02:52-07:00,2.2886018753052,3,versionC_stim.csv,READVersionC.csv,"Read Version C","Dissertation, read only version C",MARCH,SPRING,BUFFER4,Buffer,179,180,Study,User,-,,Study/JOL,BUFFER4,1821,,,-1,-1,,,,1
5b9a4067fe0ef200013fe1ed,0mgcu4iv0v,Nick_Dissertation_EX1,1,263,2020-07-08T15:02:54-07:00,1.3814499378204,3,versionC_stim.csv,READVersionC.csv,"Read Version C","Dissertation, read only version C",WEAKS,DAYS,BUFFER4,Buffer,176,178,Study,User,-,,Study/JOL,BUFFER4,821,,,-1,-1,,,,1
5b9a4067fe0ef200013fe1ed,0mgcu4iv0v,Nick_Dissertation_EX1,1,264,2020-07-08T15:02:57-07:00,3.4127910137177,3,versionC_stim.csv,READVersionC.csv,"Read Version C","Dissertation, read only version C",SHED,TOOL,BUFFER4,Buffer,178,177,Study,User,-,,Study/JOL,BUFFER4,2766,,,-1,-1,,,,1
5b9a4067fe0ef200013fe1ed,0mgcu4iv0v,Nick_Dissertation_EX1,1,265,2020-07-08T15:03:01-07:00,4.0454180240631,3,versionC_stim.csv,READVersionC.csv,"Read Version C","Dissertation, read only version C",SPOOKY,OCTOBER,BUFFER4,Buffer,180,179,Study,User,-,,Study/JOL,BUFFER4,2398,,,-1,-1,,,,1
5b9a4067fe0ef200013fe1ed,0mgcu4iv0v,Nick_Dissertation_EX1,1,266,2020-07-08T15:03:04-07:00,3.1178870201111,3,versionC_stim.csv,READVersionC.csv,"Read Version C","Dissertation, read only version C",,,,,,0,Instruct,User,-,"You have completed this section. Please press Enter.",Filler_Instruction,Instruct5,2611,,,-1,-1,,,,1
5b9a4067fe0ef200013fe1ed,0mgcu4iv0v,Nick_Dissertation_EX1,1,267,2020-07-08T15:05:05-07:00,120.57064509392,3,versionC_stim.csv,READVersionC.csv,"Read Version C","Dissertation, read only version C",,,,,,0,FreeRecall,120,120,"Please list the 50 US states in reverse alphabetical order (z - a). The task will automatically advance to the next screen after two minutes.",,Filler2,120020,"Alabama Arizona California Colorado Conneticut Dalas Florida Georgia Idaho Indiana Kansas ",0,-1,-1,0,0,,0.723
5b9a4067fe0ef200013fe1ed,0mgcu4iv0v,Nick_Dissertation_EX1,1,268,2020-07-08T15:05:18-07:00,13.672724962234,3,versionC_stim.csv,READVersionC.csv,"Read Version C","Dissertation, read only version C",,,,,,0,Instruct,-,10,"You will now be presented with the first word from each of the previously studied item pairs. Please type the missing word. If you do not know the word, you may guess or press Enter to skip forward to the next pair.",,Instruct6,13093,,,-1,-1,,,,1
5b9a4067fe0ef200013fe1ed,0mgcu4iv0v,Nick_Dissertation_EX1,1,269,2020-07-08T15:05:23-07:00,4.5123550891876,3,versionC_stim.csv,READVersionC.csv,"Read Version C","Dissertation, read only version C",AIRCRAFT,PLANE,Study2,F,129,143,Test,User,-,,Recall,Recall2,3962,Plane,100,-1,-1,1,1,,1
5b9a4067fe0ef200013fe1ed,0mgcu4iv0v,Nick_Dissertation_EX1,1,270,2020-07-08T15:05:52-07:00,29.47681593895,3,versionC_stim.csv,READVersionC.csv,"Read Version C","Dissertation, read only version C",SCAR,MAIN,Study2,U,175,153,Test,User,-,,Recall,Recall2,28988,Main,100,-1,-1,1,1,,0.611
5b9a4067fe0ef200013fe1ed,0mgcu4iv0v,Nick_Dissertation_EX1,1,271,2020-07-08T15:05:59-07:00,6.8119258880615,3,versionC_stim.csv,READVersionC.csv,"Read Version C","Dissertation, read only version C",CLEAR,MOAT,Study2,U,169,154,Test,User,-,,Recall,Recall2,4113,,0,-1,-1,0,0,,1
5b9a4067fe0ef200013fe1ed,0mgcu4iv0v,Nick_Dissertation_EX1,1,272,2020-07-08T15:06:07-07:00,7.996719121933,3,versionC_stim.csv,READVersionC.csv,"Read Version C","Dissertation, read only version C",FIGHT,FEUD,Study2,B,113,148,Test,User,-,,Recall,Recall2,7506,Feudd,88.888888888889,-1,-1,0,1,,1
5b9a4067fe0ef200013fe1ed,0mgcu4iv0v,Nick_Dissertation_EX1,1,273,2020-07-08T15:06:13-07:00,5.488049030304,3,versionC_stim.csv,READVersionC.csv,"Read Version C","Dissertation, read only version C",CLOTH,STRETCH,Study2,U,157,106,Test,User,-,,Recall,Recall2,5004,Cotton,15.384615384615,-1,-1,0,0,,1
5b9a4067fe0ef200013fe1ed,0mgcu4iv0v,Nick_Dissertation_EX1,1,274,2020-07-08T15:06:17-07:00,3.9833629131317,3,versionC_stim.csv,READVersionC.csv,"Read Version C","Dissertation, read only version C",LONELY,ALONE,Study2,S,145,166,Test,User,-,,Recall,Recall2,3389,Alone,100,-1,-1,1,1,,1
5b9a4067fe0ef200013fe1ed,0mgcu4iv0v,Nick_Dissertation_EX1,1,275,2020-07-08T15:06:21-07:00,4.8553791046143,3,versionC_stim.csv,READVersionC.csv,"Read Version C","Dissertation, read only version C",CUT,CHOP,Study2,B,107,109,Test,User,-,,Recall,Recall2,3725,Scar,25,-1,-1,0,0,,1
5b9a4067fe0ef200013fe1ed,0mgcu4iv0v,Nick_Dissertation_EX1,1,276,2020-07-08T15:06:42-07:00,20.023497819901,3,versionC_stim.csv,READVersionC.csv,"Read Version C","Dissertation, read only version C",ELECTION,MAZE,Study2,U,159,169,Test,User,-,,Recall,Recall2,19532,Maze,100,-1,-1,1,1,,0.62
5b9a4067fe0ef200013fe1ed,0mgcu4iv0v,Nick_Dissertation_EX1,1,277,2020-07-08T15:06:47-07:00,5.4998600482941,3,versionC_stim.csv,READVersionC.csv,"Read Version C","Dissertation, read only version C",FICTION,LISTEN,Study2,U,164,157,Test,User,-,,Recall,Recall2,4988,Book,0,-1,-1,0,0,,1
5b9a4067fe0ef200013fe1ed,0mgcu4iv0v,Nick_Dissertation_EX1,1,278,2020-07-08T15:06:52-07:00,5.1548790931702,3,versionC_stim.csv,READVersionC.csv,"Read Version C","Dissertation, read only version C",DOG,FURRY,Study2,B,102,98,Test,User,-,,Recall,Recall2,4472,Bone,0,-1,-1,0,0,,1
5b9a4067fe0ef200013fe1ed,0mgcu4iv0v,Nick_Dissertation_EX1,1,279,2020-07-08T15:06:57-07:00,4.7192230224609,3,versionC_stim.csv,READVersionC.csv,"Read Version C","Dissertation, read only version C",SHAKE,Shell,Study2,U,163,155,Test,User,-,,Recall,Recall2,3836,,0,-1,-1,0,0,,1
5b9a4067fe0ef200013fe1ed,0mgcu4iv0v,Nick_Dissertation_EX1,1,280,2020-07-08T15:07:06-07:00,9.3886308670044,3,versionC_stim.csv,READVersionC.csv,"Read Version C","Dissertation, read only version C",JOKE,KEYS,Study2,U,165,167,Test,User,-,,Recall,Recall2,8846,,0,-1,-1,0,0,,1
5b9a4067fe0ef200013fe1ed,0mgcu4iv0v,Nick_Dissertation_EX1,1,281,2020-07-08T15:07:13-07:00,6.3440430164337,3,versionC_stim.csv,READVersionC.csv,"Read Version C","Dissertation, read only version C",SARDINE,FISH,Study2,F,130,129,Test,User,-,,Recall,Recall2,5857,Fish,100,-1,-1,1,1,,1
5b9a4067fe0ef200013fe1ed,0mgcu4iv0v,Nick_Dissertation_EX1,1,282,2020-07-08T15:07:15-07:00,2.642795085907,3,versionC_stim.csv,READVersionC.csv,"Read Version C","Dissertation, read only version C",FAVORITE,BEST,Study2,F,125,146,Test,User,-,,Recall,Recall2,2187,,0,-1,-1,0,0,,1
5b9a4067fe0ef200013fe1ed,0mgcu4iv0v,Nick_Dissertation_EX1,1,283,2020-07-08T15:07:19-07:00,3.8825030326843,3,versionC_stim.csv,READVersionC.csv,"Read Version C","Dissertation, read only version C",STEAK,GIVE,Study2,U,158,152,Test,User,-,,Recall,Recall2,3401,Pie,57.142857142857,-1,-1,0,0,,1
5b9a4067fe0ef200013fe1ed,0mgcu4iv0v,Nick_Dissertation_EX1,1,284,2020-07-08T15:07:21-07:00,2.3265788555145,3,versionC_stim.csv,READVersionC.csv,"Read Version C","Dissertation, read only version C",GAME,CLUE,Study2,B,97,138,Test,User,-,,Recall,Recall2,1751,,0,-1,-1,0,0,,1
5b9a4067fe0ef200013fe1ed,0mgcu4iv0v,Nick_Dissertation_EX1,1,285,2020-07-08T15:07:27-07:00,5.5413041114807,3,versionC_stim.csv,READVersionC.csv,"Read Version C","Dissertation, read only version C",BREAKABLE,GLASS,Study2,F,127,158,Test,User,-,,Recall,Recall2,4828,Glass,100,-1,-1,1,1,,1
5b9a4067fe0ef200013fe1ed,0mgcu4iv0v,Nick_Dissertation_EX1,1,286,2020-07-08T15:07:31-07:00,4.2637319564819,3,versionC_stim.csv,READVersionC.csv,"Read Version C","Dissertation, read only version C",SCISSORS,SHEARS,Study2,B,112,127,Test,User,-,,Recall,Recall2,3772,Shears,100,-1,-1,1,1,,1
5b9a4067fe0ef200013fe1ed,0mgcu4iv0v,Nick_Dissertation_EX1,1,287,2020-07-08T15:07:58-07:00,27.104775905609,3,versionC_stim.csv,READVersionC.csv,"Read Version C","Dissertation, read only version C",EQUAL,RIGHTS,Study2,S,137,100,Test,User,-,,Recall,Recall2,26632,,0,-1,-1,0,0,,1
5b9a4067fe0ef200013fe1ed,0mgcu4iv0v,Nick_Dissertation_EX1,1,288,2020-07-08T15:08:00-07:00,1.9220130443573,3,versionC_stim.csv,READVersionC.csv,"Read Version C","Dissertation, read only version C",OUNCE,BOTH,Study2,U,172,128,Test,User,-,,Recall,Recall2,1460,,0,-1,-1,0,0,,1
5b9a4067fe0ef200013fe1ed,0mgcu4iv0v,Nick_Dissertation_EX1,1,289,2020-07-08T15:08:05-07:00,5.0136251449585,3,versionC_stim.csv,READVersionC.csv,"Read Version C","Dissertation, read only version C",SMELL,INCENSE,Study2,B,110,160,Test,User,-,,Recall,Recall2,4505,,0,-1,-1,0,0,,1
5b9a4067fe0ef200013fe1ed,0mgcu4iv0v,Nick_Dissertation_EX1,1,290,2020-07-08T15:08:09-07:00,4.0608909130096,3,versionC_stim.csv,READVersionC.csv,"Read Version C","Dissertation, read only version C",TICK,FLEA,Study2,S,151,172,Test,User,-,,Recall,Recall2,3573,Flea,100,-1,-1,1,1,,1
5b9a4067fe0ef200013fe1ed,0mgcu4iv0v,Nick_Dissertation_EX1,1,291,2020-07-08T15:08:13-07:00,3.8169240951538,3,versionC_stim.csv,READVersionC.csv,"Read Version C","Dissertation, read only version C",WINDSHIELD,CAR,Study2,F,117,118,Test,User,-,,Recall,Recall2,3298,Car,100,-1,-1,1,1,,1
5b9a4067fe0ef200013fe1ed,0mgcu4iv0v,Nick_Dissertation_EX1,1,292,2020-07-08T15:08:15-07:00,1.8770668506622,3,versionC_stim.csv,READVersionC.csv,"Read Version C","Dissertation, read only version C",OBTAIN,MEAT,Study2,U,161,171,Test,User,-,,Recall,Recall2,1340,,0,-1,-1,0,0,,1
5b9a4067fe0ef200013fe1ed,0mgcu4iv0v,Nick_Dissertation_EX1,1,293,2020-07-08T15:09:07-07:00,51.957390069962,3,versionC_stim.csv,READVersionC.csv,"Read Version C","Dissertation, read only version C",DONKEY,MULE,Study2,B,108,139,Test,User,-,,Recall,Recall2,51461,Mule,100,-1,-1,1,1,,0.623
5b9a4067fe0ef200013fe1ed,0mgcu4iv0v,Nick_Dissertation_EX1,1,294,2020-07-08T15:09:12-07:00,4.4858820438385,3,versionC_stim.csv,READVersionC.csv,"Read Version C","Dissertation, read only version C",PENGUIN,BIRD,Study2,F,119,115,Test,User,-,,Recall,Recall2,3961,Bird,100,-1,-1,1,1,,1
5b9a4067fe0ef200013fe1ed,0mgcu4iv0v,Nick_Dissertation_EX1,1,295,2020-07-08T15:09:16-07:00,4.3114848136902,3,versionC_stim.csv,READVersionC.csv,"Read Version C","Dissertation, read only version C",JAR,MASON,Study2,S,138,164,Test,User,-,,Recall,Recall2,3833,Mason,100,-1,-1,1,1,,1
5b9a4067fe0ef200013fe1ed,0mgcu4iv0v,Nick_Dissertation_EX1,1,296,2020-07-08T15:09:28-07:00,12.037646055222,3,versionC_stim.csv,READVersionC.csv,"Read Version C","Dissertation, read only version C",HATE,NAME,Study2,U,167,173,Test,User,-,,Recall,Recall2,11456,Name,100,-1,-1,1,1,,0.789
5b9a4067fe0ef200013fe1ed,0mgcu4iv0v,Nick_Dissertation_EX1,1,297,2020-07-08T15:09:33-07:00,5.5223641395569,3,versionC_stim.csv,READVersionC.csv,"Read Version C","Dissertation, read only version C",CHILDREN,MIRROR,Study2,U,174,112,Test,User,-,,Recall,Recall2,5033,"Mirror ",100,-1,-1,1,1,,1
5b9a4067fe0ef200013fe1ed,0mgcu4iv0v,Nick_Dissertation_EX1,1,298,2020-07-08T15:09:37-07:00,4.0848829746246,3,versionC_stim.csv,READVersionC.csv,"Read Version C","Dissertation, read only version C",STRAWBERRY,FRUIT,Study2,F,124,135,Test,User,-,,Recall,Recall2,3596,Fruit,100,-1,-1,1,1,,1
5b9a4067fe0ef200013fe1ed,0mgcu4iv0v,Nick_Dissertation_EX1,1,299,2020-07-08T15:09:42-07:00,4.8671538829803,3,versionC_stim.csv,READVersionC.csv,"Read Version C","Dissertation, read only version C",FLIP,TURN,Study2,F,116,144,Test,User,-,,Recall,Recall2,4367,Flop,0,-1,-1,0,0,,1
5b9a4067fe0ef200013fe1ed,0mgcu4iv0v,Nick_Dissertation_EX1,1,300,2020-07-08T15:09:49-07:00,6.9455020427704,3,versionC_stim.csv,READVersionC.csv,"Read Version C","Dissertation, read only version C",Morning,TEMPERATURE,Study2,U,173,119,Test,User,-,,Recall,Recall2,6387,"Temperature ",100,-1,-1,1,1,,1
5b9a4067fe0ef200013fe1ed,0mgcu4iv0v,Nick_Dissertation_EX1,1,301,2020-07-08T15:09:54-07:00,4.7744889259338,3,versionC_stim.csv,READVersionC.csv,"Read Version C","Dissertation, read only version C",SEATBELT,SAFETY,Study2,S,147,99,Test,User,-,,Recall,Recall2,4155,Safety,100,-1,-1,1,1,,1
5b9a4067fe0ef200013fe1ed,0mgcu4iv0v,Nick_Dissertation_EX1,1,302,2020-07-08T15:09:58-07:00,3.7044441699982,3,versionC_stim.csv,READVersionC.csv,"Read Version C","Dissertation, read only version C",CAR,DRIVER,Study2,B,106,136,Test,User,-,,Recall,Recall2,3171,,0,-1,-1,0,0,,1
5b9a4067fe0ef200013fe1ed,0mgcu4iv0v,Nick_Dissertation_EX1,1,303,2020-07-08T15:10:04-07:00,6.5109179019928,3,versionC_stim.csv,READVersionC.csv,"Read Version C","Dissertation, read only version C",TIE,SHOELACE,Study2,B,99,116,Test,User,-,,Recall,Recall2,4826,,0,-1,-1,0,0,,1
5b9a4067fe0ef200013fe1ed,0mgcu4iv0v,Nick_Dissertation_EX1,1,304,2020-07-08T15:10:14-07:00,9.5199830532074,3,versionC_stim.csv,READVersionC.csv,"Read Version C","Dissertation, read only version C",END,ADJOURN,Study2,B,101,150,Test,User,-,,Recall,Recall2,9003,"Adjourn ",100,-1,-1,1,1,,1
5b9a4067fe0ef200013fe1ed,0mgcu4iv0v,Nick_Dissertation_EX1,1,305,2020-07-08T15:10:17-07:00,3.6340689659119,3,versionC_stim.csv,READVersionC.csv,"Read Version C","Dissertation, read only version C",COFFIN,DEAD,Study2,F,128,123,Test,User,-,,Recall,Recall2,3121,Dead,100,-1,-1,1,1,,1
5b9a4067fe0ef200013fe1ed,0mgcu4iv0v,Nick_Dissertation_EX1,1,306,2020-07-08T15:10:23-07:00,5.7403490543365,3,versionC_stim.csv,READVersionC.csv,"Read Version C","Dissertation, read only version C",PAPER,DOCUMENT,Study2,B,109,104,Test,User,-,,Recall,Recall2,5235,Document,100,-1,-1,1,1,,1
5b9a4067fe0ef200013fe1ed,0mgcu4iv0v,Nick_Dissertation_EX1,1,307,2020-07-08T15:10:33-07:00,9.9480009078979,3,versionC_stim.csv,READVersionC.csv,"Read Version C","Dissertation, read only version C",COLD,CHILL,Study2,B,114,113,Test,User,-,,Recall,Recall2,9404,Hot,25,-1,-1,0,0,,1
5b9a4067fe0ef200013fe1ed,0mgcu4iv0v,Nick_Dissertation_EX1,1,308,2020-07-08T15:10:37-07:00,3.8782420158386,3,versionC_stim.csv,READVersionC.csv,"Read Version C","Dissertation, read only version C",DRINK,WATER,Study2,S,143,110,Test,User,-,,Recall,Recall2,3367,Water,100,-1,-1,1,1,,1
5b9a4067fe0ef200013fe1ed,0mgcu4iv0v,Nick_Dissertation_EX1,1,309,2020-07-08T15:10:40-07:00,3.2375240325928,3,versionC_stim.csv,READVersionC.csv,"Read Version C","Dissertation, read only version C",HAVE,OWN,Study2,S,153,97,Test,User,-,,Recall,Recall2,2614,,0,-1,-1,0,0,,1
5b9a4067fe0ef200013fe1ed,0mgcu4iv0v,Nick_Dissertation_EX1,1,310,2020-07-08T15:10:43-07:00,2.81871509552,3,versionC_stim.csv,READVersionC.csv,"Read Version C","Dissertation, read only version C",PLANT,CACTUS,Study2,B,98,102,Test,User,-,,Recall,Recall2,1592,,0,-1,-1,0,0,,1
5b9a4067fe0ef200013fe1ed,0mgcu4iv0v,Nick_Dissertation_EX1,1,311,2020-07-08T15:10:47-07:00,4.1390919685364,3,versionC_stim.csv,READVersionC.csv,"Read Version C","Dissertation, read only version C",LONG,EXTENSION,Study2,B,96,130,Test,User,-,,Recall,Recall2,2560,,0,-1,-1,0,0,,1
5b9a4067fe0ef200013fe1ed,0mgcu4iv0v,Nick_Dissertation_EX1,1,312,2020-07-08T15:10:51-07:00,3.5398569107056,3,versionC_stim.csv,READVersionC.csv,"Read Version C","Dissertation, read only version C",BALLOON,POP,Study2,F,123,163,Test,User,-,,Recall,Recall2,3040,Pop,100,-1,-1,1,1,,1
5b9a4067fe0ef200013fe1ed,0mgcu4iv0v,Nick_Dissertation_EX1,1,313,2020-07-08T15:10:55-07:00,4.4160389900208,3,versionC_stim.csv,READVersionC.csv,"Read Version C","Dissertation, read only version C",SHAVE,RAZOR,Study2,S,136,121,Test,User,-,,Recall,Recall2,3904,Razor,100,-1,-1,1,1,,1
5b9a4067fe0ef200013fe1ed,0mgcu4iv0v,Nick_Dissertation_EX1,1,314,2020-07-08T15:10:58-07:00,2.9358100891113,3,versionC_stim.csv,READVersionC.csv,"Read Version C","Dissertation, read only version C",LIE,TRUTH,Study2,S,148,175,Test,User,-,,Recall,Recall2,2457,,0,-1,-1,0,0,,1
5b9a4067fe0ef200013fe1ed,0mgcu4iv0v,Nick_Dissertation_EX1,1,315,2020-07-08T15:11:02-07:00,3.704488992691,3,versionC_stim.csv,READVersionC.csv,"Read Version C","Dissertation, read only version C",BANKER,MONEY,Study2,F,132,103,Test,User,-,,Recall,Recall2,3183,,0,-1,-1,0,0,,1
5b9a4067fe0ef200013fe1ed,0mgcu4iv0v,Nick_Dissertation_EX1,1,316,2020-07-08T15:11:08-07:00,6.1052298545837,3,versionC_stim.csv,READVersionC.csv,"Read Version C","Dissertation, read only version C",LEAGUE,BASEBALL,Study2,F,131,159,Test,User,-,,Recall,Recall2,5139,Baseball,100,-1,-1,1,1,,1
5b9a4067fe0ef200013fe1ed,0mgcu4iv0v,Nick_Dissertation_EX1,1,317,2020-07-08T15:11:22-07:00,13.644958019257,3,versionC_stim.csv,READVersionC.csv,"Read Version C","Dissertation, read only version C",THIMBLE,THREAD,Study2,F,121,142,Test,User,-,,Recall,Recall2,13108,"Needle ",33.333333333333,-1,-1,0,0,,1
5b9a4067fe0ef200013fe1ed,0mgcu4iv0v,Nick_Dissertation_EX1,1,318,2020-07-08T15:11:29-07:00,7.1515440940857,3,versionC_stim.csv,READVersionC.csv,"Read Version C","Dissertation, read only version C",TRUTHFUL,HONEST,Study2,F,133,125,Test,User,-,,Recall,Recall2,6171,"Honest ",100,-1,-1,1,1,,1
5b9a4067fe0ef200013fe1ed,0mgcu4iv0v,Nick_Dissertation_EX1,1,319,2020-07-08T15:11:32-07:00,2.9647719860077,3,versionC_stim.csv,READVersionC.csv,"Read Version C","Dissertation, read only version C",REVENGE,EVEN,Study2,F,122,134,Test,User,-,,Recall,Recall2,2187,,0,-1,-1,0,0,,1
5b9a4067fe0ef200013fe1ed,0mgcu4iv0v,Nick_Dissertation_EX1,1,320,2020-07-08T15:11:34-07:00,2.6958889961243,3,versionC_stim.csv,READVersionC.csv,"Read Version C","Dissertation, read only version C",WAX,CANDLE,Study2,S,139,114,Test,User,-,,Recall,Recall2,1560,,0,-1,-1,0,0,,1
5b9a4067fe0ef200013fe1ed,0mgcu4iv0v,Nick_Dissertation_EX1,1,321,2020-07-08T15:11:40-07:00,5.4724209308624,3,versionC_stim.csv,READVersionC.csv,"Read Version C","Dissertation, read only version C",NAP,SLEEP,Study2,F,134,101,Test,User,-,,Recall,Recall2,4902,"Sleep ",100,-1,-1,1,1,,1
5b9a4067fe0ef200013fe1ed,0mgcu4iv0v,Nick_Dissertation_EX1,1,322,2020-07-08T15:11:46-07:00,5.6926851272583,3,versionC_stim.csv,READVersionC.csv,"Read Version C","Dissertation, read only version C",CLOTHES,CAKE,Study2,U,166,168,Test,User,-,,Recall,Recall2,5200,Cake,100,-1,-1,1,1,,1
5b9a4067fe0ef200013fe1ed,0mgcu4iv0v,Nick_Dissertation_EX1,1,323,2020-07-08T15:11:49-07:00,3.3054649829865,3,versionC_stim.csv,READVersionC.csv,"Read Version C","Dissertation, read only version C",RED,CHERRY,Study2,B,104,165,Test,User,-,,Recall,Recall2,2755,,0,-1,-1,0,0,,1
5b9a4067fe0ef200013fe1ed,0mgcu4iv0v,Nick_Dissertation_EX1,1,324,2020-07-08T15:11:51-07:00,1.8383259773254,3,versionC_stim.csv,READVersionC.csv,"Read Version C","Dissertation, read only version C",AWAY,GONE,Study2,S,142,133,Test,User,-,,Recall,Recall2,1313,,0,-1,-1,0,0,,1
5b9a4067fe0ef200013fe1ed,0mgcu4iv0v,Nick_Dissertation_EX1,1,325,2020-07-08T15:12:39-07:00,48.061037063599,3,versionC_stim.csv,READVersionC.csv,"Read Version C","Dissertation, read only version C",MAROON,JUSTICE,Study2,U,156,107,Test,User,-,,Recall,Recall2,47531,,0,-1,-1,0,0,,0.311
5b9a4067fe0ef200013fe1ed,0mgcu4iv0v,Nick_Dissertation_EX1,1,326,2020-07-08T15:12:47-07:00,8.3539769649506,3,versionC_stim.csv,READVersionC.csv,"Read Version C","Dissertation, read only version C",BRACELET,WRIST,Study2,S,140,162,Test,User,-,,Recall,Recall2,7791,Wrist,100,-1,-1,1,1,,1
5b9a4067fe0ef200013fe1ed,0mgcu4iv0v,Nick_Dissertation_EX1,1,327,2020-07-08T15:12:53-07:00,5.6965668201447,3,versionC_stim.csv,READVersionC.csv,"Read Version C","Dissertation, read only version C",TEMPER,TANTRUM,Study2,S,154,131,Test,User,-,,Recall,Recall2,5175,Tantrum,100,-1,-1,1,1,,1
5b9a4067fe0ef200013fe1ed,0mgcu4iv0v,Nick_Dissertation_EX1,1,328,2020-07-08T15:12:57-07:00,4.7043812274933,3,versionC_stim.csv,READVersionC.csv,"Read Version C","Dissertation, read only version C",BRAWL,FIGHT,Study2,F,135,147,Test,User,-,,Recall,Recall2,4116,Fight,100,-1,-1,1,1,,1
5b9a4067fe0ef200013fe1ed,0mgcu4iv0v,Nick_Dissertation_EX1,1,329,2020-07-08T15:13:00-07:00,2.9017288684845,3,versionC_stim.csv,READVersionC.csv,"Read Version C","Dissertation, read only version C",EAT,DINE,Study2,B,111,126,Test,User,-,,Recall,Recall2,2400,,0,-1,-1,0,0,,1
5b9a4067fe0ef200013fe1ed,0mgcu4iv0v,Nick_Dissertation_EX1,1,330,2020-07-08T15:13:05-07:00,4.3369281291962,3,versionC_stim.csv,READVersionC.csv,"Read Version C","Dissertation, read only version C",COMMUNICATION,PHONE,Study2,S,149,151,Test,User,-,,Recall,Recall2,3758,Phone,100,-1,-1,1,1,,1
5b9a4067fe0ef200013fe1ed,0mgcu4iv0v,Nick_Dissertation_EX1,1,331,2020-07-08T15:13:11-07:00,6.429084777832,3,versionC_stim.csv,READVersionC.csv,"Read Version C","Dissertation, read only version C",ACTRESS,STAR,Study2,F,120,105,Test,User,-,,Recall,Recall2,3990,Star,100,-1,-1,1,1,,1
5b9a4067fe0ef200013fe1ed,0mgcu4iv0v,Nick_Dissertation_EX1,1,332,2020-07-08T15:13:19-07:00,8.3316390514374,3,versionC_stim.csv,READVersionC.csv,"Read Version C","Dissertation, read only version C",VILLAIN,BAD,Study2,F,118,176,Test,User,-,,Recall,Recall2,7799,Baddie,66.666666666667,-1,-1,0,0,,1
5b9a4067fe0ef200013fe1ed,0mgcu4iv0v,Nick_Dissertation_EX1,1,333,2020-07-08T15:13:22-07:00,2.9467680454254,3,versionC_stim.csv,READVersionC.csv,"Read Version C","Dissertation, read only version C",HEAD,SCALP,Study2,B,105,174,Test,User,-,,Recall,Recall2,2404,,0,-1,-1,0,0,,1
5b9a4067fe0ef200013fe1ed,0mgcu4iv0v,Nick_Dissertation_EX1,1,334,2020-07-08T15:13:25-07:00,2.7136270999908,3,versionC_stim.csv,READVersionC.csv,"Read Version C","Dissertation, read only version C",WET,DRY,Study2,S,146,120,Test,User,-,,Recall,Recall2,2078,,0,-1,-1,0,0,,1
5b9a4067fe0ef200013fe1ed,0mgcu4iv0v,Nick_Dissertation_EX1,1,335,2020-07-08T15:13:28-07:00,3.2537670135498,3,versionC_stim.csv,READVersionC.csv,"Read Version C","Dissertation, read only version C",TAN,SUN,Study2,S,155,156,Test,User,-,,Recall,Recall2,2034,,0,-1,-1,0,0,,1
5b9a4067fe0ef200013fe1ed,0mgcu4iv0v,Nick_Dissertation_EX1,1,336,2020-07-08T15:13:31-07:00,2.4507808685303,3,versionC_stim.csv,READVersionC.csv,"Read Version C","Dissertation, read only version C",ABLE,CRACKLE,Study2,U,162,122,Test,User,-,,Recall,Recall2,2001,,0,-1,-1,0,0,,1
5b9a4067fe0ef200013fe1ed,0mgcu4iv0v,Nick_Dissertation_EX1,1,337,2020-07-08T15:13:37-07:00,6.0331249237061,3,versionC_stim.csv,READVersionC.csv,"Read Version C","Dissertation, read only version C",BANG,FUZZY,Study2,U,168,111,Test,User,-,,Recall,Recall2,5560,Big,0,-1,-1,0,0,,1
5b9a4067fe0ef200013fe1ed,0mgcu4iv0v,Nick_Dissertation_EX1,1,338,2020-07-08T15:13:39-07:00,2.5182030200958,3,versionC_stim.csv,READVersionC.csv,"Read Version C","Dissertation, read only version C",GROUND,EARTH,Study2,S,144,117,Test,User,-,,Recall,Recall2,2074,,0,-1,-1,0,0,,1
5b9a4067fe0ef200013fe1ed,0mgcu4iv0v,Nick_Dissertation_EX1,1,339,2020-07-08T15:13:44-07:00,4.4009890556335,3,versionC_stim.csv,READVersionC.csv,"Read Version C","Dissertation, read only version C",NOISE,LOUD,Study2,S,152,137,Test,User,-,,Recall,Recall2,3876,"Loud ",100,-1,-1,1,1,,1
5b9a4067fe0ef200013fe1ed,0mgcu4iv0v,Nick_Dissertation_EX1,1,340,2020-07-08T15:13:51-07:00,7.5772759914398,3,versionC_stim.csv,READVersionC.csv,"Read Version C","Dissertation, read only version C",LOVE,AFFECTION,Study2,B,115,108,Test,User,-,,Recall,Recall2,6901,"Affection ",100,-1,-1,1,1,,1
5b9a4067fe0ef200013fe1ed,0mgcu4iv0v,Nick_Dissertation_EX1,1,341,2020-07-08T15:14:09-07:00,17.794851064682,3,versionC_stim.csv,READVersionC.csv,"Read Version C","Dissertation, read only version C",CARBON,ELEMENT,Study2,S,141,140,Test,User,-,,Recall,Recall2,17261,Element,100,-1,-1,1,1,,0.769
5b9a4067fe0ef200013fe1ed,0mgcu4iv0v,Nick_Dissertation_EX1,1,342,2020-07-08T15:14:28-07:00,18.756721973419,3,versionC_stim.csv,READVersionC.csv,"Read Version C","Dissertation, read only version C",SIGN,LOAN,Study2,U,171,170,Test,User,-,,Recall,Recall2,18273,Loan,100,-1,-1,1,1,,0.644
5b9a4067fe0ef200013fe1ed,0mgcu4iv0v,Nick_Dissertation_EX1,1,343,2020-07-08T15:14:31-07:00,2.994754076004,3,versionC_stim.csv,READVersionC.csv,"Read Version C","Dissertation, read only version C",MYSTERY,DETECTIVE,Study2,B,100,149,Test,User,-,,Recall,Recall2,2160,,0,-1,-1,0,0,,1
5b9a4067fe0ef200013fe1ed,0mgcu4iv0v,Nick_Dissertation_EX1,1,344,2020-07-08T15:14:33-07:00,1.9810149669647,3,versionC_stim.csv,READVersionC.csv,"Read Version C","Dissertation, read only version C",TOIL,LEASE,Study2,U,170,124,Test,User,-,,Recall,Recall2,1370,,0,-1,-1,0,0,,1
5b9a4067fe0ef200013fe1ed,0mgcu4iv0v,Nick_Dissertation_EX1,1,345,2020-07-08T15:14:37-07:00,4.4835638999939,3,versionC_stim.csv,READVersionC.csv,"Read Version C","Dissertation, read only version C",TRASH,LITTER,Study2,B,103,161,Test,User,-,,Recall,Recall2,3765,Litter,100,-1,-1,1,1,,1
5b9a4067fe0ef200013fe1ed,0mgcu4iv0v,Nick_Dissertation_EX1,1,346,2020-07-08T15:14:59-07:00,21.823302030563,3,versionC_stim.csv,READVersionC.csv,"Read Version C","Dissertation, read only version C",CHARM,VEHICLE,Study2,U,160,141,Test,User,-,,Recall,Recall2,20899,"Vehicle ",100,-1,-1,1,1,,0.592
5b9a4067fe0ef200013fe1ed,0mgcu4iv0v,Nick_Dissertation_EX1,1,347,2020-07-08T15:15:05-07:00,5.5440320968628,3,versionC_stim.csv,READVersionC.csv,"Read Version C","Dissertation, read only version C",REEL,ROD,Study2,S,150,132,Test,User,-,,Recall,Recall2,3821,Rod,100,-1,-1,1,1,,1
5b9a4067fe0ef200013fe1ed,0mgcu4iv0v,Nick_Dissertation_EX1,1,348,2020-07-08T15:15:09-07:00,4.2751798629761,3,versionC_stim.csv,READVersionC.csv,"Read Version C","Dissertation, read only version C",PANTHER,CAT,Study2,F,126,145,Test,User,-,,Recall,Recall2,3596,Cat,100,-1,-1,1,1,,1
5b9a4067fe0ef200013fe1ed,0mgcu4iv0v,Nick_Dissertation_EX1,1,349,2020-07-08T15:15:12-07:00,3.011904001236,3,versionC_stim.csv,READVersionC.csv,"Read Version C","Dissertation, read only version C",,,,,,0,Instruct,User,-,"You have completed this section. Please press Enter.",,Instruct7,2443,,,-1,-1,,,,1
5b9a4067fe0ef200013fe1ed,0mgcu4iv0v,Nick_Dissertation_EX1,1,350,2020-07-08T15:15:17-07:00,4.5894060134888,3,versionC_stim.csv,READVersionC.csv,"Read Version C","Dissertation, read only version C",,,,,,0,Instruct,User,-,"The following screen will ask you a few questions abour your experience today. You must complete these questions to receive credit.",,Instruct8,2747,,,-1,-1,,,,1
