Username,ID,ExperimentName,Session,Trial,Date,TimeDif,"Condition Number","Stimuli File","Order File","Condition Description","Condition Notes",Stimuli*Cue,Stimuli*Answer,Stimuli*Shuffle,"Stimuli*Stimuli Notes",Stimuli*Value,Procedure*Item,"Procedure*Trial Type","Procedure*Max Time","Procedure*Min Time",Procedure*Text,"Procedure*Procedure Notes",Procedure*Shuffle,Response*RT,Response*Response,Response*Accuracy,Response*RTfirst,Response*RTlast,Response*strictAcc,Response*lenientAcc,Response*focus,Response*Focus
5e75f60ae9644415b9b3669a,ffgwjlayu0,Nick_Dissertation_EX1,1,1,2020-07-08T14:46:32-07:00,11.993009090424,1,versionA_stim.csv,READVersionA.csv,"Read Version A","Dissertation, read only version A",,,,,,0,Instruct,-,10,"Please study each of the following word pairs. Remember that your memory will be tested! When finished, press Enter to move to the next pair.",Initial_Instruct,Instruct1,11594,,,-1,-1,,,,1
5e75f60ae9644415b9b3669a,ffgwjlayu0,Nick_Dissertation_EX1,1,2,2020-07-08T14:46:35-07:00,2.5633239746094,1,versionA_stim.csv,READVersionA.csv,"Read Version A","Dissertation, read only version A",PEANUT,BUTTER,BUFFER1,Buffer,3,5,Study,User,-,,Study/JOL,BUFFER,1712,,,-1,-1,,,,1
5e75f60ae9644415b9b3669a,ffgwjlayu0,Nick_Dissertation_EX1,1,3,2020-07-08T14:46:38-07:00,3.5310010910034,1,versionA_stim.csv,READVersionA.csv,"Read Version A","Dissertation, read only version A",TREES,GREEN,BUFFER1,Buffer,1,3,Study,User,-,,Study/JOL,BUFFER,2948,,,-1,-1,,,,1
5e75f60ae9644415b9b3669a,ffgwjlayu0,Nick_Dissertation_EX1,1,4,2020-07-08T14:46:40-07:00,1.7934000492096,1,versionA_stim.csv,READVersionA.csv,"Read Version A","Dissertation, read only version A",SPACE,JAM,BUFFER1,Buffer,5,4,Study,User,-,,Study/JOL,BUFFER,1079,,,-1,-1,,,,1
5e75f60ae9644415b9b3669a,ffgwjlayu0,Nick_Dissertation_EX1,1,5,2020-07-08T14:46:43-07:00,3.0214698314667,1,versionA_stim.csv,READVersionA.csv,"Read Version A","Dissertation, read only version A",BASEBALL,CATCHER,BUFFER1,Buffer,2,6,Study,User,-,,Study/JOL,BUFFER,2457,,,-1,-1,,,,1
5e75f60ae9644415b9b3669a,ffgwjlayu0,Nick_Dissertation_EX1,1,6,2020-07-08T14:46:50-07:00,6.6748089790344,1,versionA_stim.csv,READVersionA.csv,"Read Version A","Dissertation, read only version A",SCARE,HIDE,BUFFER1,Buffer,4,2,Study,User,-,,Study/JOL,BUFFER,6115,,,-1,-1,,,,1
5e75f60ae9644415b9b3669a,ffgwjlayu0,Nick_Dissertation_EX1,1,7,2020-07-08T14:46:51-07:00,1.162486076355,1,versionA_stim.csv,READVersionA.csv,"Read Version A","Dissertation, read only version A",KIDNEY,LIVER,Study1,S,53,10,Study,User,-,,Study/JOL,"Study Phase",601,,,-1,-1,,,,1
5e75f60ae9644415b9b3669a,ffgwjlayu0,Nick_Dissertation_EX1,1,8,2020-07-08T14:46:52-07:00,1.4386100769043,1,versionA_stim.csv,READVersionA.csv,"Read Version A","Dissertation, read only version A",CLOTHES,ATTIRE,Study1,B,43,80,Study,User,-,,Study/JOL,"Study Phase",712,,,-1,-1,,,,1
5e75f60ae9644415b9b3669a,ffgwjlayu0,Nick_Dissertation_EX1,1,9,2020-07-08T14:46:53-07:00,1.1805019378662,1,versionA_stim.csv,READVersionA.csv,"Read Version A","Dissertation, read only version A",SMELL,STENCH,Study1,B,42,47,Study,User,-,,Study/JOL,"Study Phase",559,,,-1,-1,,,,1
5e75f60ae9644415b9b3669a,ffgwjlayu0,Nick_Dissertation_EX1,1,10,2020-07-08T14:46:55-07:00,1.3145499229431,1,versionA_stim.csv,READVersionA.csv,"Read Version A","Dissertation, read only version A",WAGE,MONEY,Study1,F,8,53,Study,User,-,,Study/JOL,"Study Phase",643,,,-1,-1,,,,1
5e75f60ae9644415b9b3669a,ffgwjlayu0,Nick_Dissertation_EX1,1,11,2020-07-08T14:46:56-07:00,1.6545720100403,1,versionA_stim.csv,READVersionA.csv,"Read Version A","Dissertation, read only version A",WAY,OUT,Study1,F,16,61,Study,User,-,,Study/JOL,"Study Phase",1113,,,-1,-1,,,,1
5e75f60ae9644415b9b3669a,ffgwjlayu0,Nick_Dissertation_EX1,1,12,2020-07-08T14:46:58-07:00,1.3607621192932,1,versionA_stim.csv,READVersionA.csv,"Read Version A","Dissertation, read only version A",GRILL,BAR,Study1,S,52,51,Study,User,-,,Study/JOL,"Study Phase",818,,,-1,-1,,,,1
5e75f60ae9644415b9b3669a,ffgwjlayu0,Nick_Dissertation_EX1,1,13,2020-07-08T14:47:01-07:00,2.8926479816437,1,versionA_stim.csv,READVersionA.csv,"Read Version A","Dissertation, read only version A",HONEY,BEE,Study1,S,63,11,Study,User,-,,Study/JOL,"Study Phase",2124,,,-1,-1,,,,1
5e75f60ae9644415b9b3669a,ffgwjlayu0,Nick_Dissertation_EX1,1,14,2020-07-08T14:47:02-07:00,1.1800649166107,1,versionA_stim.csv,READVersionA.csv,"Read Version A","Dissertation, read only version A",STRONG,ACCIDENT,Study1,U,80,81,Study,User,-,,Study/JOL,"Study Phase",636,,,-1,-1,,,,1
5e75f60ae9644415b9b3669a,ffgwjlayu0,Nick_Dissertation_EX1,1,15,2020-07-08T14:47:03-07:00,1.0273489952087,1,versionA_stim.csv,READVersionA.csv,"Read Version A","Dissertation, read only version A",WINE,CHEESE,Study1,S,57,24,Study,User,-,,Study/JOL,"Study Phase",522,,,-1,-1,,,,1
5e75f60ae9644415b9b3669a,ffgwjlayu0,Nick_Dissertation_EX1,1,16,2020-07-08T14:47:05-07:00,1.7349660396576,1,versionA_stim.csv,READVersionA.csv,"Read Version A","Dissertation, read only version A",BRIDGE,WATER,Study1,F,18,69,Study,User,-,,Study/JOL,"Study Phase",1147,,,-1,-1,,,,1
5e75f60ae9644415b9b3669a,ffgwjlayu0,Nick_Dissertation_EX1,1,17,2020-07-08T14:47:06-07:00,1.3807029724121,1,versionA_stim.csv,READVersionA.csv,"Read Version A","Dissertation, read only version A",SLEEP,DROWSY,Study1,B,41,28,Study,User,-,,Study/JOL,"Study Phase",796,,,-1,-1,,,,1
5e75f60ae9644415b9b3669a,ffgwjlayu0,Nick_Dissertation_EX1,1,18,2020-07-08T14:47:08-07:00,1.5816140174866,1,versionA_stim.csv,READVersionA.csv,"Read Version A","Dissertation, read only version A",ARCHITECTURE,DESIGN,Study1,S,51,40,Study,User,-,,Study/JOL,"Study Phase",1003,,,-1,-1,,,,1
5e75f60ae9644415b9b3669a,ffgwjlayu0,Nick_Dissertation_EX1,1,19,2020-07-08T14:47:09-07:00,1.1187570095062,1,versionA_stim.csv,READVersionA.csv,"Read Version A","Dissertation, read only version A",CASH,WOULD,Study1,U,83,65,Study,User,-,,Study/JOL,"Study Phase",550,,,-1,-1,,,,1
5e75f60ae9644415b9b3669a,ffgwjlayu0,Nick_Dissertation_EX1,1,20,2020-07-08T14:47:15-07:00,6.4692780971527,1,versionA_stim.csv,READVersionA.csv,"Read Version A","Dissertation, read only version A",POP,SODA,Study1,S,56,45,Study,User,-,,Study/JOL,"Study Phase",5919,,,-1,-1,,,,1
5e75f60ae9644415b9b3669a,ffgwjlayu0,Nick_Dissertation_EX1,1,21,2020-07-08T14:47:20-07:00,4.4800708293915,1,versionA_stim.csv,READVersionA.csv,"Read Version A","Dissertation, read only version A",SWAN,BIRD,Study1,F,14,32,Study,User,-,,Study/JOL,"Study Phase",3888,,,-1,-1,,,,1
5e75f60ae9644415b9b3669a,ffgwjlayu0,Nick_Dissertation_EX1,1,22,2020-07-08T14:47:21-07:00,1.3570241928101,1,versionA_stim.csv,READVersionA.csv,"Read Version A","Dissertation, read only version A",ART,LION,Study1,U,79,60,Study,User,-,,Study/JOL,"Study Phase",653,,,-1,-1,,,,1
5e75f60ae9644415b9b3669a,ffgwjlayu0,Nick_Dissertation_EX1,1,23,2020-07-08T14:47:23-07:00,1.8513259887695,1,versionA_stim.csv,READVersionA.csv,"Read Version A","Dissertation, read only version A",BITTER,COLD,Study1,F,12,64,Study,User,-,,Study/JOL,"Study Phase",1276,,,-1,-1,,,,1
5e75f60ae9644415b9b3669a,ffgwjlayu0,Nick_Dissertation_EX1,1,24,2020-07-08T14:47:24-07:00,1.2782039642334,1,versionA_stim.csv,READVersionA.csv,"Read Version A","Dissertation, read only version A",SUGAR,RIDDLE,Study1,U,81,12,Study,User,-,,Study/JOL,"Study Phase",726,,,-1,-1,,,,1
5e75f60ae9644415b9b3669a,ffgwjlayu0,Nick_Dissertation_EX1,1,25,2020-07-08T14:47:25-07:00,1.3035449981689,1,versionA_stim.csv,READVersionA.csv,"Read Version A","Dissertation, read only version A",HYGIENE,CLEAN,Study1,F,17,15,Study,User,-,,Study/JOL,"Study Phase",696,,,-1,-1,,,,1
5e75f60ae9644415b9b3669a,ffgwjlayu0,Nick_Dissertation_EX1,1,26,2020-07-08T14:47:27-07:00,1.0714328289032,1,versionA_stim.csv,READVersionA.csv,"Read Version A","Dissertation, read only version A",SHOE,FOOT,Study1,S,60,13,Study,User,-,,Study/JOL,"Study Phase",534,,,-1,-1,,,,1
5e75f60ae9644415b9b3669a,ffgwjlayu0,Nick_Dissertation_EX1,1,27,2020-07-08T14:47:28-07:00,1.0696392059326,1,versionA_stim.csv,READVersionA.csv,"Read Version A","Dissertation, read only version A",HOT,CHILI,Study1,B,37,48,Study,User,-,,Study/JOL,"Study Phase",480,,,-1,-1,,,,1
5e75f60ae9644415b9b3669a,ffgwjlayu0,Nick_Dissertation_EX1,1,28,2020-07-08T14:47:29-07:00,1.0359668731689,1,versionA_stim.csv,READVersionA.csv,"Read Version A","Dissertation, read only version A",ORCHID,FLOWER,Study1,F,24,22,Study,User,-,,Study/JOL,"Study Phase",519,,,-1,-1,,,,1
5e75f60ae9644415b9b3669a,ffgwjlayu0,Nick_Dissertation_EX1,1,29,2020-07-08T14:47:30-07:00,1.8097081184387,1,versionA_stim.csv,READVersionA.csv,"Read Version A","Dissertation, read only version A",TAKE,SEIZE,Study1,B,29,8,Study,User,-,,Study/JOL,"Study Phase",1266,,,-1,-1,,,,1
5e75f60ae9644415b9b3669a,ffgwjlayu0,Nick_Dissertation_EX1,1,30,2020-07-08T14:47:32-07:00,1.6667718887329,1,versionA_stim.csv,READVersionA.csv,"Read Version A","Dissertation, read only version A",BATHROOM,TOILET,Study1,S,58,35,Study,User,-,,Study/JOL,"Study Phase",964,,,-1,-1,,,,1
5e75f60ae9644415b9b3669a,ffgwjlayu0,Nick_Dissertation_EX1,1,31,2020-07-08T14:47:34-07:00,1.471969127655,1,versionA_stim.csv,READVersionA.csv,"Read Version A","Dissertation, read only version A",DIGESTION,STOMACH,Study1,F,7,43,Study,User,-,,Study/JOL,"Study Phase",703,,,-1,-1,,,,1
5e75f60ae9644415b9b3669a,ffgwjlayu0,Nick_Dissertation_EX1,1,32,2020-07-08T14:47:36-07:00,2.4864249229431,1,versionA_stim.csv,READVersionA.csv,"Read Version A","Dissertation, read only version A",LETTUCE,SALAD,Study1,S,59,67,Study,User,-,,Study/JOL,"Study Phase",906,,,-1,-1,,,,1
5e75f60ae9644415b9b3669a,ffgwjlayu0,Nick_Dissertation_EX1,1,33,2020-07-08T14:47:37-07:00,1.3451218605042,1,versionA_stim.csv,READVersionA.csv,"Read Version A","Dissertation, read only version A",PLANE,PILOT,Study1,B,44,59,Study,User,-,,Study/JOL,"Study Phase",635,,,-1,-1,,,,1
5e75f60ae9644415b9b3669a,ffgwjlayu0,Nick_Dissertation_EX1,1,34,2020-07-08T14:47:39-07:00,1.3406941890717,1,versionA_stim.csv,READVersionA.csv,"Read Version A","Dissertation, read only version A",FULL,ENOUGH,Study1,B,26,71,Study,User,-,,Study/JOL,"Study Phase",754,,,-1,-1,,,,1
5e75f60ae9644415b9b3669a,ffgwjlayu0,Nick_Dissertation_EX1,1,35,2020-07-08T14:47:40-07:00,1.310614824295,1,versionA_stim.csv,READVersionA.csv,"Read Version A","Dissertation, read only version A",ROOT,PLANT,Study1,F,13,75,Study,User,-,,Study/JOL,"Study Phase",697,,,-1,-1,,,,1
5e75f60ae9644415b9b3669a,ffgwjlayu0,Nick_Dissertation_EX1,1,36,2020-07-08T14:47:41-07:00,1.1862552165985,1,versionA_stim.csv,READVersionA.csv,"Read Version A","Dissertation, read only version A",HUNGER,FAMINE,Study1,B,40,18,Study,User,-,,Study/JOL,"Study Phase",676,,,-1,-1,,,,1
5e75f60ae9644415b9b3669a,ffgwjlayu0,Nick_Dissertation_EX1,1,37,2020-07-08T14:47:42-07:00,1.1179728507996,1,versionA_stim.csv,READVersionA.csv,"Read Version A","Dissertation, read only version A",BUG,WASP,Study1,B,32,34,Study,User,-,,Study/JOL,"Study Phase",559,,,-1,-1,,,,1
5e75f60ae9644415b9b3669a,ffgwjlayu0,Nick_Dissertation_EX1,1,38,2020-07-08T14:47:44-07:00,1.2223370075226,1,versionA_stim.csv,READVersionA.csv,"Read Version A","Dissertation, read only version A",DEATH,BUSINESS,Study1,U,72,74,Study,User,-,,Study/JOL,"Study Phase",568,,,-1,-1,,,,1
5e75f60ae9644415b9b3669a,ffgwjlayu0,Nick_Dissertation_EX1,1,39,2020-07-08T14:47:45-07:00,1.0285539627075,1,versionA_stim.csv,READVersionA.csv,"Read Version A","Dissertation, read only version A",FIX,HAND,Study1,U,75,25,Study,User,-,,Study/JOL,"Study Phase",466,,,-1,-1,,,,1
5e75f60ae9644415b9b3669a,ffgwjlayu0,Nick_Dissertation_EX1,1,40,2020-07-08T14:47:46-07:00,1.316859960556,1,versionA_stim.csv,READVersionA.csv,"Read Version A","Dissertation, read only version A",DRINK,SIP,Study1,B,27,77,Study,User,-,,Study/JOL,"Study Phase",556,,,-1,-1,,,,1
5e75f60ae9644415b9b3669a,ffgwjlayu0,Nick_Dissertation_EX1,1,41,2020-07-08T14:47:47-07:00,1.2347431182861,1,versionA_stim.csv,READVersionA.csv,"Read Version A","Dissertation, read only version A",DISCOVER,FLOOR,Study1,U,71,37,Study,User,-,,Study/JOL,"Study Phase",581,,,-1,-1,,,,1
5e75f60ae9644415b9b3669a,ffgwjlayu0,Nick_Dissertation_EX1,1,42,2020-07-08T14:47:49-07:00,1.5157680511475,1,versionA_stim.csv,READVersionA.csv,"Read Version A","Dissertation, read only version A",TRIAL,JURY,Study1,S,50,86,Study,User,-,,Study/JOL,"Study Phase",649,,,-1,-1,,,,1
5e75f60ae9644415b9b3669a,ffgwjlayu0,Nick_Dissertation_EX1,1,43,2020-07-08T14:47:50-07:00,1.5303590297699,1,versionA_stim.csv,READVersionA.csv,"Read Version A","Dissertation, read only version A",DISCUSSION,TALK,Study1,F,21,27,Study,User,-,,Study/JOL,"Study Phase",585,,,-1,-1,,,,1
5e75f60ae9644415b9b3669a,ffgwjlayu0,Nick_Dissertation_EX1,1,44,2020-07-08T14:47:51-07:00,1.224555015564,1,versionA_stim.csv,READVersionA.csv,"Read Version A","Dissertation, read only version A",DARK,CAVE,Study1,B,28,38,Study,User,-,,Study/JOL,"Study Phase",585,,,-1,-1,,,,1
5e75f60ae9644415b9b3669a,ffgwjlayu0,Nick_Dissertation_EX1,1,45,2020-07-08T14:47:53-07:00,1.3803639411926,1,versionA_stim.csv,READVersionA.csv,"Read Version A","Dissertation, read only version A",ALLOW,TUCK,Study1,U,78,31,Study,User,-,,Study/JOL,"Study Phase",576,,,-1,-1,,,,1
5e75f60ae9644415b9b3669a,ffgwjlayu0,Nick_Dissertation_EX1,1,46,2020-07-08T14:47:55-07:00,2.0639598369598,1,versionA_stim.csv,READVersionA.csv,"Read Version A","Dissertation, read only version A",DEBATE,SIGHT,Study1,U,73,21,Study,User,-,,Study/JOL,"Study Phase",1505,,,-1,-1,,,,1
5e75f60ae9644415b9b3669a,ffgwjlayu0,Nick_Dissertation_EX1,1,47,2020-07-08T14:47:56-07:00,1.2945411205292,1,versionA_stim.csv,READVersionA.csv,"Read Version A","Dissertation, read only version A",DUMP,WASTE,Study1,S,49,70,Study,User,-,,Study/JOL,"Study Phase",690,,,-1,-1,,,,1
5e75f60ae9644415b9b3669a,ffgwjlayu0,Nick_Dissertation_EX1,1,48,2020-07-08T14:47:57-07:00,1.2940859794617,1,versionA_stim.csv,READVersionA.csv,"Read Version A","Dissertation, read only version A",KEY,LATCH,Study1,B,36,66,Study,User,-,,Study/JOL,"Study Phase",755,,,-1,-1,,,,1
5e75f60ae9644415b9b3669a,ffgwjlayu0,Nick_Dissertation_EX1,1,49,2020-07-08T14:48:00-07:00,2.2358210086823,1,versionA_stim.csv,READVersionA.csv,"Read Version A","Dissertation, read only version A",FIRE,BLAZE,Study1,B,45,26,Study,User,-,,Study/JOL,"Study Phase",508,,,-1,-1,,,,1
5e75f60ae9644415b9b3669a,ffgwjlayu0,Nick_Dissertation_EX1,1,50,2020-07-08T14:48:01-07:00,1.3010210990906,1,versionA_stim.csv,READVersionA.csv,"Read Version A","Dissertation, read only version A",CHISEL,HAMMER,Study1,F,9,46,Study,User,-,,Study/JOL,"Study Phase",545,,,-1,-1,,,,1
5e75f60ae9644415b9b3669a,ffgwjlayu0,Nick_Dissertation_EX1,1,51,2020-07-08T14:48:03-07:00,2.4312858581543,1,versionA_stim.csv,READVersionA.csv,"Read Version A","Dissertation, read only version A",EDITOR,NEWS,Study1,F,10,7,Study,User,-,,Study/JOL,"Study Phase",1828,,,-1,-1,,,,1
5e75f60ae9644415b9b3669a,ffgwjlayu0,Nick_Dissertation_EX1,1,52,2020-07-08T14:48:05-07:00,1.1415450572968,1,versionA_stim.csv,READVersionA.csv,"Read Version A","Dissertation, read only version A",GEOLOGY,ROCK,Study1,F,19,85,Study,User,-,,Study/JOL,"Study Phase",548,,,-1,-1,,,,1
5e75f60ae9644415b9b3669a,ffgwjlayu0,Nick_Dissertation_EX1,1,53,2020-07-08T14:48:06-07:00,1.4901840686798,1,versionA_stim.csv,READVersionA.csv,"Read Version A","Dissertation, read only version A",MACHINE,POSITION,Study1,U,76,17,Study,User,-,,Study/JOL,"Study Phase",690,,,-1,-1,,,,1
5e75f60ae9644415b9b3669a,ffgwjlayu0,Nick_Dissertation_EX1,1,54,2020-07-08T14:48:07-07:00,1.1207928657532,1,versionA_stim.csv,READVersionA.csv,"Read Version A","Dissertation, read only version A",HERD,COW,Study1,F,22,55,Study,User,-,,Study/JOL,"Study Phase",567,,,-1,-1,,,,1
5e75f60ae9644415b9b3669a,ffgwjlayu0,Nick_Dissertation_EX1,1,55,2020-07-08T14:48:08-07:00,1.0256969928741,1,versionA_stim.csv,READVersionA.csv,"Read Version A","Dissertation, read only version A",HAPPY,CAR,Study1,U,77,83,Study,User,-,,Study/JOL,"Study Phase",478,,,-1,-1,,,,1
5e75f60ae9644415b9b3669a,ffgwjlayu0,Nick_Dissertation_EX1,1,56,2020-07-08T14:48:09-07:00,1.130068063736,1,versionA_stim.csv,READVersionA.csv,"Read Version A","Dissertation, read only version A",ARTERY,BRONZE,Study1,U,74,84,Study,User,-,,Study/JOL,"Study Phase",491,,,-1,-1,,,,1
5e75f60ae9644415b9b3669a,ffgwjlayu0,Nick_Dissertation_EX1,1,57,2020-07-08T14:48:10-07:00,1.0572168827057,1,versionA_stim.csv,READVersionA.csv,"Read Version A","Dissertation, read only version A",BEGIN,END,Study1,S,54,20,Study,User,-,,Study/JOL,"Study Phase",539,,,-1,-1,,,,1
5e75f60ae9644415b9b3669a,ffgwjlayu0,Nick_Dissertation_EX1,1,58,2020-07-08T14:48:11-07:00,1.0461921691895,1,versionA_stim.csv,READVersionA.csv,"Read Version A","Dissertation, read only version A",DIETARY,SACKING,Study1,U,67,73,Study,User,-,,Study/JOL,"Study Phase",436,,,-1,-1,,,,1
5e75f60ae9644415b9b3669a,ffgwjlayu0,Nick_Dissertation_EX1,1,59,2020-07-08T14:48:12-07:00,1.0325808525085,1,versionA_stim.csv,READVersionA.csv,"Read Version A","Dissertation, read only version A",BABY,CHILD,Study1,S,64,63,Study,User,-,,Study/JOL,"Study Phase",462,,,-1,-1,,,,1
5e75f60ae9644415b9b3669a,ffgwjlayu0,Nick_Dissertation_EX1,1,60,2020-07-08T14:48:13-07:00,0.9560821056366,1,versionA_stim.csv,READVersionA.csv,"Read Version A","Dissertation, read only version A",TUNA,FISH,Study1,F,25,36,Study,User,-,,Study/JOL,"Study Phase",454,,,-1,-1,,,,1
5e75f60ae9644415b9b3669a,ffgwjlayu0,Nick_Dissertation_EX1,1,61,2020-07-08T14:48:14-07:00,1.0313029289246,1,versionA_stim.csv,READVersionA.csv,"Read Version A","Dissertation, read only version A",HEIGHT,GROWTH,Study1,B,30,62,Study,User,-,,Study/JOL,"Study Phase",521,,,-1,-1,,,,1
5e75f60ae9644415b9b3669a,ffgwjlayu0,Nick_Dissertation_EX1,1,62,2020-07-08T14:48:16-07:00,1.1706709861755,1,versionA_stim.csv,READVersionA.csv,"Read Version A","Dissertation, read only version A",PARK,HUNGRY,Study1,U,68,52,Study,User,-,,Study/JOL,"Study Phase",653,,,-1,-1,,,,1
5e75f60ae9644415b9b3669a,ffgwjlayu0,Nick_Dissertation_EX1,1,63,2020-07-08T14:48:17-07:00,1.2160050868988,1,versionA_stim.csv,READVersionA.csv,"Read Version A","Dissertation, read only version A",HIDE,SICK,Study1,U,84,54,Study,User,-,,Study/JOL,"Study Phase",597,,,-1,-1,,,,1
5e75f60ae9644415b9b3669a,ffgwjlayu0,Nick_Dissertation_EX1,1,64,2020-07-08T14:48:18-07:00,1.2695369720459,1,versionA_stim.csv,READVersionA.csv,"Read Version A","Dissertation, read only version A",CIRCLE,ROUND,Study1,S,65,82,Study,User,-,,Study/JOL,"Study Phase",591,,,-1,-1,,,,1
5e75f60ae9644415b9b3669a,ffgwjlayu0,Nick_Dissertation_EX1,1,65,2020-07-08T14:48:20-07:00,1.3852319717407,1,versionA_stim.csv,READVersionA.csv,"Read Version A","Dissertation, read only version A",PAST,FUTURE,Study1,S,61,14,Study,User,-,,Study/JOL,"Study Phase",835,,,-1,-1,,,,1
5e75f60ae9644415b9b3669a,ffgwjlayu0,Nick_Dissertation_EX1,1,66,2020-07-08T14:48:21-07:00,1.2536270618439,1,versionA_stim.csv,READVersionA.csv,"Read Version A","Dissertation, read only version A",LAW,ATTORNEY,Study1,B,34,76,Study,User,-,,Study/JOL,"Study Phase",603,,,-1,-1,,,,1
5e75f60ae9644415b9b3669a,ffgwjlayu0,Nick_Dissertation_EX1,1,67,2020-07-08T14:48:22-07:00,1.1509110927582,1,versionA_stim.csv,READVersionA.csv,"Read Version A","Dissertation, read only version A",MATH,DIVISION,Study1,B,33,68,Study,User,-,,Study/JOL,"Study Phase",654,,,-1,-1,,,,1
5e75f60ae9644415b9b3669a,ffgwjlayu0,Nick_Dissertation_EX1,1,68,2020-07-08T14:48:23-07:00,1.2417478561401,1,versionA_stim.csv,READVersionA.csv,"Read Version A","Dissertation, read only version A",PAW,DOG,Study1,F,15,56,Study,User,-,,Study/JOL,"Study Phase",668,,,-1,-1,,,,1
5e75f60ae9644415b9b3669a,ffgwjlayu0,Nick_Dissertation_EX1,1,69,2020-07-08T14:48:25-07:00,1.3685970306396,1,versionA_stim.csv,READVersionA.csv,"Read Version A","Dissertation, read only version A",SENTENCE,WORD,Study1,B,31,39,Study,User,-,,Study/JOL,"Study Phase",748,,,-1,-1,,,,1
5e75f60ae9644415b9b3669a,ffgwjlayu0,Nick_Dissertation_EX1,1,70,2020-07-08T14:48:26-07:00,1.101676940918,1,versionA_stim.csv,READVersionA.csv,"Read Version A","Dissertation, read only version A",GREAT,FANTASTIC,Study1,B,35,16,Study,User,-,,Study/JOL,"Study Phase",563,,,-1,-1,,,,1
5e75f60ae9644415b9b3669a,ffgwjlayu0,Nick_Dissertation_EX1,1,71,2020-07-08T14:48:27-07:00,1.3319129943848,1,versionA_stim.csv,READVersionA.csv,"Read Version A","Dissertation, read only version A",CREDIT,CARD,Study1,F,23,41,Study,User,-,,Study/JOL,"Study Phase",650,,,-1,-1,,,,1
5e75f60ae9644415b9b3669a,ffgwjlayu0,Nick_Dissertation_EX1,1,72,2020-07-08T14:48:29-07:00,2.0383040904999,1,versionA_stim.csv,READVersionA.csv,"Read Version A","Dissertation, read only version A",LOCATION,SITE,Study1,S,48,9,Study,User,-,,Study/JOL,"Study Phase",511,,,-1,-1,,,,1
5e75f60ae9644415b9b3669a,ffgwjlayu0,Nick_Dissertation_EX1,1,73,2020-07-08T14:48:32-07:00,2.511204957962,1,versionA_stim.csv,READVersionA.csv,"Read Version A","Dissertation, read only version A",DUE,ASSIGNMENT,Study1,S,46,58,Study,User,-,,Study/JOL,"Study Phase",867,,,-1,-1,,,,1
5e75f60ae9644415b9b3669a,ffgwjlayu0,Nick_Dissertation_EX1,1,74,2020-07-08T14:48:33-07:00,1.2583289146423,1,versionA_stim.csv,READVersionA.csv,"Read Version A","Dissertation, read only version A",REVOLUTION,WAR,Study1,F,20,19,Study,User,-,,Study/JOL,"Study Phase",613,,,-1,-1,,,,1
5e75f60ae9644415b9b3669a,ffgwjlayu0,Nick_Dissertation_EX1,1,75,2020-07-08T14:48:34-07:00,1.1331779956818,1,versionA_stim.csv,READVersionA.csv,"Read Version A","Dissertation, read only version A",WORK,CHORE,Study1,B,39,49,Study,User,-,,Study/JOL,"Study Phase",618,,,-1,-1,,,,1
5e75f60ae9644415b9b3669a,ffgwjlayu0,Nick_Dissertation_EX1,1,76,2020-07-08T14:48:37-07:00,2.7545750141144,1,versionA_stim.csv,READVersionA.csv,"Read Version A","Dissertation, read only version A",MEANING,DEFINITION,Study1,S,62,23,Study,User,-,,Study/JOL,"Study Phase",2277,,,-1,-1,,,,1
5e75f60ae9644415b9b3669a,ffgwjlayu0,Nick_Dissertation_EX1,1,77,2020-07-08T14:48:39-07:00,1.9493081569672,1,versionA_stim.csv,READVersionA.csv,"Read Version A","Dissertation, read only version A",BALL,RACKET,Study1,B,38,72,Study,User,-,,Study/JOL,"Study Phase",1403,,,-1,-1,,,,1
5e75f60ae9644415b9b3669a,ffgwjlayu0,Nick_Dissertation_EX1,1,78,2020-07-08T14:48:40-07:00,1.0544810295105,1,versionA_stim.csv,READVersionA.csv,"Read Version A","Dissertation, read only version A",NUMBER,AMOUNT,Study1,S,47,30,Study,User,-,,Study/JOL,"Study Phase",469,,,-1,-1,,,,1
5e75f60ae9644415b9b3669a,ffgwjlayu0,Nick_Dissertation_EX1,1,79,2020-07-08T14:48:41-07:00,0.82708287239075,1,versionA_stim.csv,READVersionA.csv,"Read Version A","Dissertation, read only version A",SOON,BELT,Study1,U,70,33,Study,User,-,,Study/JOL,"Study Phase",213,,,-1,-1,,,,1
5e75f60ae9644415b9b3669a,ffgwjlayu0,Nick_Dissertation_EX1,1,80,2020-07-08T14:48:42-07:00,1.7577519416809,1,versionA_stim.csv,READVersionA.csv,"Read Version A","Dissertation, read only version A",PUSHER,CLUTTER,Study1,U,66,78,Study,User,-,,Study/JOL,"Study Phase",1235,,,-1,-1,,,,1
5e75f60ae9644415b9b3669a,ffgwjlayu0,Nick_Dissertation_EX1,1,81,2020-07-08T14:48:43-07:00,0.9382631778717,1,versionA_stim.csv,READVersionA.csv,"Read Version A","Dissertation, read only version A",HORNET,STING,Study1,F,11,57,Study,User,-,,Study/JOL,"Study Phase",411,,,-1,-1,,,,1
5e75f60ae9644415b9b3669a,ffgwjlayu0,Nick_Dissertation_EX1,1,82,2020-07-08T14:48:44-07:00,0.88946390151978,1,versionA_stim.csv,READVersionA.csv,"Read Version A","Dissertation, read only version A",LIFT,WOMAN,Study1,U,69,42,Study,User,-,,Study/JOL,"Study Phase",388,,,-1,-1,,,,1
5e75f60ae9644415b9b3669a,ffgwjlayu0,Nick_Dissertation_EX1,1,83,2020-07-08T14:48:45-07:00,1.1046109199524,1,versionA_stim.csv,READVersionA.csv,"Read Version A","Dissertation, read only version A",BLOW,WIND,Study1,S,55,79,Study,User,-,,Study/JOL,"Study Phase",437,,,-1,-1,,,,1
5e75f60ae9644415b9b3669a,ffgwjlayu0,Nick_Dissertation_EX1,1,84,2020-07-08T14:48:46-07:00,1.1187632083893,1,versionA_stim.csv,READVersionA.csv,"Read Version A","Dissertation, read only version A",DELINQUENT,BAD,Study1,F,6,44,Study,User,-,,Study/JOL,"Study Phase",565,,,-1,-1,,,,1
5e75f60ae9644415b9b3669a,ffgwjlayu0,Nick_Dissertation_EX1,1,85,2020-07-08T14:48:47-07:00,1.0405058860779,1,versionA_stim.csv,READVersionA.csv,"Read Version A","Dissertation, read only version A",VALLEY,ADD,Study1,U,82,29,Study,User,-,,Study/JOL,"Study Phase",410,,,-1,-1,,,,1
5e75f60ae9644415b9b3669a,ffgwjlayu0,Nick_Dissertation_EX1,1,86,2020-07-08T14:48:48-07:00,1.0030150413513,1,versionA_stim.csv,READVersionA.csv,"Read Version A","Dissertation, read only version A",KING,VASE,Study1,U,85,50,Study,User,-,,Study/JOL,"Study Phase",498,,,-1,-1,,,,1
5e75f60ae9644415b9b3669a,ffgwjlayu0,Nick_Dissertation_EX1,1,87,2020-07-08T14:48:49-07:00,1.0379209518433,1,versionA_stim.csv,READVersionA.csv,"Read Version A","Dissertation, read only version A",THING,STUFF,BUFFER2,Buffer,90,89,Study,User,-,,Study/JOL,BUFFER2,406,,,-1,-1,,,,1
5e75f60ae9644415b9b3669a,ffgwjlayu0,Nick_Dissertation_EX1,1,88,2020-07-08T14:48:50-07:00,0.92605304718018,1,versionA_stim.csv,READVersionA.csv,"Read Version A","Dissertation, read only version A",MOON,SPACE,BUFFER2,Buffer,89,88,Study,User,-,,Study/JOL,BUFFER2,313,,,-1,-1,,,,1
5e75f60ae9644415b9b3669a,ffgwjlayu0,Nick_Dissertation_EX1,1,89,2020-07-08T14:48:51-07:00,0.86971497535706,1,versionA_stim.csv,READVersionA.csv,"Read Version A","Dissertation, read only version A",SHERRIF,POLICE,BUFFER2,Buffer,87,90,Study,User,-,,Study/JOL,BUFFER2,343,,,-1,-1,,,,1
5e75f60ae9644415b9b3669a,ffgwjlayu0,Nick_Dissertation_EX1,1,90,2020-07-08T14:48:52-07:00,0.94617605209351,1,versionA_stim.csv,READVersionA.csv,"Read Version A","Dissertation, read only version A",GEESE,GOOSE,BUFFER2,Buffer,86,87,Study,User,-,,Study/JOL,BUFFER2,271,,,-1,-1,,,,1
5e75f60ae9644415b9b3669a,ffgwjlayu0,Nick_Dissertation_EX1,1,91,2020-07-08T14:48:53-07:00,0.93161082267761,1,versionA_stim.csv,READVersionA.csv,"Read Version A","Dissertation, read only version A",MALT,CHOCOLATE,BUFFER2,Buffer,88,91,Study,User,-,,Study/JOL,BUFFER2,297,,,-1,-1,,,,1
5e75f60ae9644415b9b3669a,ffgwjlayu0,Nick_Dissertation_EX1,1,92,2020-07-08T14:48:56-07:00,2.4988431930542,1,versionA_stim.csv,READVersionA.csv,"Read Version A","Dissertation, read only version A",,,,,,0,Instruct,User,-,"You have completed this section. Please press Enter.",Filler_Instruction,Instruct2,1930,,,-1,-1,,,,1
5e75f60ae9644415b9b3669a,ffgwjlayu0,Nick_Dissertation_EX1,1,93,2020-07-08T14:50:56-07:00,120.67009782791,1,versionA_stim.csv,READVersionA.csv,"Read Version A","Dissertation, read only version A",,,,,,0,FreeRecall,120,120,"Please list the 50 US states in alphabetical order. The task will automatically advance to the next screen after two minutes.",,Filler1,120008,"Alabama Arkansaw California Kansas Minnesota Nebraska Ohio Washington Wihoming ",0,10324,114543,0,0,,0.984
5e75f60ae9644415b9b3669a,ffgwjlayu0,Nick_Dissertation_EX1,1,94,2020-07-08T14:51:08-07:00,12.072371006012,1,versionA_stim.csv,READVersionA.csv,"Read Version A","Dissertation, read only version A",,,,,,0,Instruct,-,10,"You will now be presented with the first word from each of the previously studied item pairs. Please type the missing word. If you do not know the word, you may guess or press Enter to skip forward to the next pair.",,Instruct3,11255,,,-1,-1,,,,1
5e75f60ae9644415b9b3669a,ffgwjlayu0,Nick_Dissertation_EX1,1,95,2020-07-08T14:51:14-07:00,6.1715831756592,1,versionA_stim.csv,READVersionA.csv,"Read Version A","Dissertation, read only version A",KING,VASE,Study1,U,85,50,Test,User,-,,Recall,Recall1,5618,Crown,0,3879,4541,0,0,,1
5e75f60ae9644415b9b3669a,ffgwjlayu0,Nick_Dissertation_EX1,1,96,2020-07-08T14:51:19-07:00,4.3041808605194,1,versionA_stim.csv,READVersionA.csv,"Read Version A","Dissertation, read only version A",HUNGER,FAMINE,Study1,B,40,18,Test,User,-,,Recall,Recall1,3746,"Famine ",100,1665,3387,1,1,,1
5e75f60ae9644415b9b3669a,ffgwjlayu0,Nick_Dissertation_EX1,1,97,2020-07-08T14:51:22-07:00,3.6501290798187,1,versionA_stim.csv,READVersionA.csv,"Read Version A","Dissertation, read only version A",ROOT,PLANT,Study1,F,13,75,Test,User,-,,Recall,Recall1,3125,Tre,25,1588,2904,0,0,,1
5e75f60ae9644415b9b3669a,ffgwjlayu0,Nick_Dissertation_EX1,1,98,2020-07-08T14:51:30-07:00,7.8896360397339,1,versionA_stim.csv,READVersionA.csv,"Read Version A","Dissertation, read only version A",DUMP,WASTE,Study1,S,49,70,Test,User,-,,Recall,Recall1,7187,Rubbish,16.666666666667,3800,6930,0,0,,1
5e75f60ae9644415b9b3669a,ffgwjlayu0,Nick_Dissertation_EX1,1,99,2020-07-08T14:51:33-07:00,2.6196069717407,1,versionA_stim.csv,READVersionA.csv,"Read Version A","Dissertation, read only version A",SENTENCE,WORD,Study1,B,31,39,Test,User,-,,Recall,Recall1,2058,Word,100,1382,1941,1,1,,1
5e75f60ae9644415b9b3669a,ffgwjlayu0,Nick_Dissertation_EX1,1,100,2020-07-08T14:51:37-07:00,4.4404098987579,1,versionA_stim.csv,READVersionA.csv,"Read Version A","Dissertation, read only version A",DEATH,BUSINESS,Study1,U,72,74,Test,User,-,,Recall,Recall1,3883,Business,100,1861,3450,1,1,,1
5e75f60ae9644415b9b3669a,ffgwjlayu0,Nick_Dissertation_EX1,1,101,2020-07-08T14:51:40-07:00,2.5759429931641,1,versionA_stim.csv,READVersionA.csv,"Read Version A","Dissertation, read only version A",HONEY,BEE,Study1,S,63,11,Test,User,-,,Recall,Recall1,2000,Bee,100,1149,1722,1,1,,1
5e75f60ae9644415b9b3669a,ffgwjlayu0,Nick_Dissertation_EX1,1,102,2020-07-08T14:51:42-07:00,2.4972829818726,1,versionA_stim.csv,READVersionA.csv,"Read Version A","Dissertation, read only version A",BITTER,COLD,Study1,F,12,64,Test,User,-,,Recall,Recall1,1975,Sweert,0,1078,1888,0,0,,1
5e75f60ae9644415b9b3669a,ffgwjlayu0,Nick_Dissertation_EX1,1,103,2020-07-08T14:51:48-07:00,5.9631161689758,1,versionA_stim.csv,READVersionA.csv,"Read Version A","Dissertation, read only version A",SMELL,STENCH,Study1,B,42,47,Test,User,-,,Recall,Recall1,5330,nose,20,2438,4621,0,0,,1
5e75f60ae9644415b9b3669a,ffgwjlayu0,Nick_Dissertation_EX1,1,104,2020-07-08T14:51:53-07:00,4.4269769191742,1,versionA_stim.csv,READVersionA.csv,"Read Version A","Dissertation, read only version A",WORK,CHORE,Study1,B,39,49,Test,User,-,,Recall,Recall1,3887,hard,44.444444444444,3298,3745,0,0,,1
5e75f60ae9644415b9b3669a,ffgwjlayu0,Nick_Dissertation_EX1,1,105,2020-07-08T14:51:56-07:00,2.8652679920197,1,versionA_stim.csv,READVersionA.csv,"Read Version A","Dissertation, read only version A",ORCHID,FLOWER,Study1,F,24,22,Test,User,-,,Recall,Recall1,2372,flower,100,1435,2056,1,1,,1
5e75f60ae9644415b9b3669a,ffgwjlayu0,Nick_Dissertation_EX1,1,106,2020-07-08T14:51:58-07:00,2.6025130748749,1,versionA_stim.csv,READVersionA.csv,"Read Version A","Dissertation, read only version A",KIDNEY,LIVER,Study1,S,53,10,Test,User,-,,Recall,Recall1,2056,liver,100,1209,1747,1,1,,1
5e75f60ae9644415b9b3669a,ffgwjlayu0,Nick_Dissertation_EX1,1,107,2020-07-08T14:52:01-07:00,2.3706269264221,1,versionA_stim.csv,READVersionA.csv,"Read Version A","Dissertation, read only version A",CREDIT,CARD,Study1,F,23,41,Test,User,-,,Recall,Recall1,1753,card,100,1082,1548,1,1,,1
5e75f60ae9644415b9b3669a,ffgwjlayu0,Nick_Dissertation_EX1,1,108,2020-07-08T14:52:03-07:00,2.5047960281372,1,versionA_stim.csv,READVersionA.csv,"Read Version A","Dissertation, read only version A",TUNA,FISH,Study1,F,25,36,Test,User,-,,Recall,Recall1,1863,fish,100,1244,1621,1,1,,1
5e75f60ae9644415b9b3669a,ffgwjlayu0,Nick_Dissertation_EX1,1,109,2020-07-08T14:52:06-07:00,2.9987089633942,1,versionA_stim.csv,READVersionA.csv,"Read Version A","Dissertation, read only version A",DELINQUENT,BAD,Study1,F,6,44,Test,User,-,,Recall,Recall1,2456,,0,-1,-1,0,0,,1
5e75f60ae9644415b9b3669a,ffgwjlayu0,Nick_Dissertation_EX1,1,110,2020-07-08T14:52:12-07:00,5.3442440032959,1,versionA_stim.csv,READVersionA.csv,"Read Version A","Dissertation, read only version A",FIX,HAND,Study1,U,75,25,Test,User,-,,Recall,Recall1,4793,broken,20,3538,4195,0,0,,1
5e75f60ae9644415b9b3669a,ffgwjlayu0,Nick_Dissertation_EX1,1,111,2020-07-08T14:52:17-07:00,5.6717419624329,1,versionA_stim.csv,READVersionA.csv,"Read Version A","Dissertation, read only version A",CIRCLE,ROUND,Study1,S,65,82,Test,User,-,,Recall,Recall1,5076,sphere,18.181818181818,4250,4883,0,0,,1
5e75f60ae9644415b9b3669a,ffgwjlayu0,Nick_Dissertation_EX1,1,112,2020-07-08T14:52:20-07:00,2.6316900253296,1,versionA_stim.csv,READVersionA.csv,"Read Version A","Dissertation, read only version A",HORNET,STING,Study1,F,11,57,Test,User,-,,Recall,Recall1,2025,sting,100,1266,1869,1,1,,1
5e75f60ae9644415b9b3669a,ffgwjlayu0,Nick_Dissertation_EX1,1,113,2020-07-08T14:52:25-07:00,5.136754989624,1,versionA_stim.csv,READVersionA.csv,"Read Version A","Dissertation, read only version A",CLOTHES,ATTIRE,Study1,B,43,80,Test,User,-,,Recall,Recall1,4461,dress,36.363636363636,3724,4361,0,0,,1
5e75f60ae9644415b9b3669a,ffgwjlayu0,Nick_Dissertation_EX1,1,114,2020-07-08T14:52:28-07:00,2.616553068161,1,versionA_stim.csv,READVersionA.csv,"Read Version A","Dissertation, read only version A",BABY,CHILD,Study1,S,64,63,Test,User,-,,Recall,Recall1,2091,cries,40,1326,1865,0,0,,1
5e75f60ae9644415b9b3669a,ffgwjlayu0,Nick_Dissertation_EX1,1,115,2020-07-08T14:52:32-07:00,4.3083388805389,1,versionA_stim.csv,READVersionA.csv,"Read Version A","Dissertation, read only version A",PUSHER,CLUTTER,Study1,U,66,78,Test,User,-,,Recall,Recall1,3763,fall,18.181818181818,2202,3500,0,0,,1
5e75f60ae9644415b9b3669a,ffgwjlayu0,Nick_Dissertation_EX1,1,116,2020-07-08T14:52:35-07:00,2.930732011795,1,versionA_stim.csv,READVersionA.csv,"Read Version A","Dissertation, read only version A",TAKE,SEIZE,Study1,B,29,8,Test,User,-,,Recall,Recall1,2444,give,44.444444444444,1717,2157,0,0,,1
5e75f60ae9644415b9b3669a,ffgwjlayu0,Nick_Dissertation_EX1,1,117,2020-07-08T14:52:38-07:00,3.3917541503906,1,versionA_stim.csv,READVersionA.csv,"Read Version A","Dissertation, read only version A",VALLEY,ADD,Study1,U,82,29,Test,User,-,,Recall,Recall1,2740,hill,0,1962,2473,0,0,,1
5e75f60ae9644415b9b3669a,ffgwjlayu0,Nick_Dissertation_EX1,1,118,2020-07-08T14:52:41-07:00,2.4813008308411,1,versionA_stim.csv,READVersionA.csv,"Read Version A","Dissertation, read only version A",DISCOVER,FLOOR,Study1,U,71,37,Test,User,-,,Recall,Recall1,1974,find,22.222222222222,1272,1759,0,0,,1
5e75f60ae9644415b9b3669a,ffgwjlayu0,Nick_Dissertation_EX1,1,119,2020-07-08T14:52:46-07:00,5.7732090950012,1,versionA_stim.csv,READVersionA.csv,"Read Version A","Dissertation, read only version A",WINE,CHEESE,Study1,S,57,24,Test,User,-,,Recall,Recall1,5025,beer,40,2979,4842,0,0,,1
5e75f60ae9644415b9b3669a,ffgwjlayu0,Nick_Dissertation_EX1,1,120,2020-07-08T14:52:50-07:00,3.7878279685974,1,versionA_stim.csv,READVersionA.csv,"Read Version A","Dissertation, read only version A",MATH,DIVISION,Study1,B,33,68,Test,User,-,,Recall,Recall1,3144,divide,57.142857142857,2230,3003,0,0,,1
5e75f60ae9644415b9b3669a,ffgwjlayu0,Nick_Dissertation_EX1,1,121,2020-07-08T14:52:55-07:00,4.7305159568787,1,versionA_stim.csv,READVersionA.csv,"Read Version A","Dissertation, read only version A",MACHINE,POSITION,Study1,U,76,17,Test,User,-,,Recall,Recall1,4157,manual,14.285714285714,3156,3789,0,0,,1
5e75f60ae9644415b9b3669a,ffgwjlayu0,Nick_Dissertation_EX1,1,122,2020-07-08T14:52:57-07:00,2.3493161201477,1,versionA_stim.csv,READVersionA.csv,"Read Version A","Dissertation, read only version A",WAY,OUT,Study1,F,16,61,Test,User,-,,Recall,Recall1,1728,up,40,1023,1450,0,0,,1
5e75f60ae9644415b9b3669a,ffgwjlayu0,Nick_Dissertation_EX1,1,123,2020-07-08T14:53:00-07:00,2.3303320407867,1,versionA_stim.csv,READVersionA.csv,"Read Version A","Dissertation, read only version A",PAW,DOG,Study1,F,15,56,Test,User,-,,Recall,Recall1,1696,dog,100,1164,1555,1,1,,1
5e75f60ae9644415b9b3669a,ffgwjlayu0,Nick_Dissertation_EX1,1,124,2020-07-08T14:53:09-07:00,9.7235159873962,1,versionA_stim.csv,READVersionA.csv,"Read Version A","Dissertation, read only version A",GEOLOGY,ROCK,Study1,F,19,85,Test,User,-,,Recall,Recall1,9128,history,18.181818181818,7812,8886,0,0,,1
5e75f60ae9644415b9b3669a,ffgwjlayu0,Nick_Dissertation_EX1,1,125,2020-07-08T14:53:14-07:00,4.2687819004059,1,versionA_stim.csv,READVersionA.csv,"Read Version A","Dissertation, read only version A",LETTUCE,SALAD,Study1,S,59,67,Test,User,-,,Recall,Recall1,3647,salad,100,2462,3389,1,1,,1
5e75f60ae9644415b9b3669a,ffgwjlayu0,Nick_Dissertation_EX1,1,126,2020-07-08T14:53:18-07:00,4.3322620391846,1,versionA_stim.csv,READVersionA.csv,"Read Version A","Dissertation, read only version A",HERD,COW,Study1,F,22,55,Test,User,-,,Recall,Recall1,3774,sheep,0,2688,3553,0,0,,1
5e75f60ae9644415b9b3669a,ffgwjlayu0,Nick_Dissertation_EX1,1,127,2020-07-08T14:53:21-07:00,2.5517370700836,1,versionA_stim.csv,READVersionA.csv,"Read Version A","Dissertation, read only version A",BLOW,WIND,Study1,S,55,79,Test,User,-,,Recall,Recall1,1976,wind,100,1159,1727,1,1,,1
5e75f60ae9644415b9b3669a,ffgwjlayu0,Nick_Dissertation_EX1,1,128,2020-07-08T14:53:23-07:00,2.9180688858032,1,versionA_stim.csv,READVersionA.csv,"Read Version A","Dissertation, read only version A",ARTERY,BRONZE,Study1,U,74,84,Test,User,-,,Recall,Recall1,2340,vein,20,1652,2042,0,0,,1
5e75f60ae9644415b9b3669a,ffgwjlayu0,Nick_Dissertation_EX1,1,129,2020-07-08T14:53:27-07:00,3.7114689350128,1,versionA_stim.csv,READVersionA.csv,"Read Version A","Dissertation, read only version A",LOCATION,SITE,Study1,S,48,9,Test,User,-,,Recall,Recall1,2116,site,100,1627,1987,1,1,,1
5e75f60ae9644415b9b3669a,ffgwjlayu0,Nick_Dissertation_EX1,1,130,2020-07-08T14:53:30-07:00,3.1070630550385,1,versionA_stim.csv,READVersionA.csv,"Read Version A","Dissertation, read only version A",DIETARY,SACKING,Study1,U,67,73,Test,User,-,,Recall,Recall1,2556,,0,-1,-1,0,0,,1
5e75f60ae9644415b9b3669a,ffgwjlayu0,Nick_Dissertation_EX1,1,131,2020-07-08T14:53:36-07:00,5.6325719356537,1,versionA_stim.csv,READVersionA.csv,"Read Version A","Dissertation, read only version A",BRIDGE,WATER,Study1,F,18,69,Test,User,-,,Recall,Recall1,4915,crossing,15.384615384615,2643,4727,0,0,,1
5e75f60ae9644415b9b3669a,ffgwjlayu0,Nick_Dissertation_EX1,1,132,2020-07-08T14:53:39-07:00,3.4277050495148,1,versionA_stim.csv,READVersionA.csv,"Read Version A","Dissertation, read only version A",ARCHITECTURE,DESIGN,Study1,S,51,40,Test,User,-,,Recall,Recall1,2815,building,28.571428571429,1684,2678,0,0,,1
5e75f60ae9644415b9b3669a,ffgwjlayu0,Nick_Dissertation_EX1,1,133,2020-07-08T14:53:44-07:00,4.5842809677124,1,versionA_stim.csv,READVersionA.csv,"Read Version A","Dissertation, read only version A",BUG,WASP,Study1,B,32,34,Test,User,-,,Recall,Recall1,3903,sting,22.222222222222,2944,3663,0,0,,1
5e75f60ae9644415b9b3669a,ffgwjlayu0,Nick_Dissertation_EX1,1,134,2020-07-08T14:53:47-07:00,3.5432081222534,1,versionA_stim.csv,READVersionA.csv,"Read Version A","Dissertation, read only version A",CHISEL,HAMMER,Study1,F,9,46,Test,User,-,,Recall,Recall1,2700,hammer,100,2012,2583,1,1,,1
5e75f60ae9644415b9b3669a,ffgwjlayu0,Nick_Dissertation_EX1,1,135,2020-07-08T14:53:51-07:00,3.8409218788147,1,versionA_stim.csv,READVersionA.csv,"Read Version A","Dissertation, read only version A",NUMBER,AMOUNT,Study1,S,47,30,Test,User,-,,Recall,Recall1,3304,letter,16.666666666667,2517,3241,0,0,,1
5e75f60ae9644415b9b3669a,ffgwjlayu0,Nick_Dissertation_EX1,1,136,2020-07-08T14:53:57-07:00,5.2914459705353,1,versionA_stim.csv,READVersionA.csv,"Read Version A","Dissertation, read only version A",FULL,ENOUGH,Study1,B,26,71,Test,User,-,,Recall,Recall1,4700,empty,18.181818181818,3441,4403,0,0,,1
5e75f60ae9644415b9b3669a,ffgwjlayu0,Nick_Dissertation_EX1,1,137,2020-07-08T14:54:00-07:00,3.3337261676788,1,versionA_stim.csv,READVersionA.csv,"Read Version A","Dissertation, read only version A",GRILL,BAR,Study1,S,52,51,Test,User,-,,Recall,Recall1,2714,cheese,0,1867,2565,0,0,,1
5e75f60ae9644415b9b3669a,ffgwjlayu0,Nick_Dissertation_EX1,1,138,2020-07-08T14:54:05-07:00,4.8912649154663,1,versionA_stim.csv,READVersionA.csv,"Read Version A","Dissertation, read only version A",LAW,ATTORNEY,Study1,B,34,76,Test,User,-,,Recall,Recall1,3231,order,46.153846153846,2525,3105,0,0,,1
5e75f60ae9644415b9b3669a,ffgwjlayu0,Nick_Dissertation_EX1,1,139,2020-07-08T14:54:11-07:00,5.8373599052429,1,versionA_stim.csv,READVersionA.csv,"Read Version A","Dissertation, read only version A",POP,SODA,Study1,S,56,45,Test,User,-,,Recall,Recall1,4103,fizz,0,1795,3658,0,0,,1
5e75f60ae9644415b9b3669a,ffgwjlayu0,Nick_Dissertation_EX1,1,140,2020-07-08T14:54:13-07:00,2.5419321060181,1,versionA_stim.csv,READVersionA.csv,"Read Version A","Dissertation, read only version A",DUE,ASSIGNMENT,Study1,S,46,58,Test,User,-,,Recall,Recall1,2033,date,28.571428571429,1516,1908,0,0,,1
5e75f60ae9644415b9b3669a,ffgwjlayu0,Nick_Dissertation_EX1,1,141,2020-07-08T14:54:18-07:00,4.9575181007385,1,versionA_stim.csv,READVersionA.csv,"Read Version A","Dissertation, read only version A",EDITOR,NEWS,Study1,F,10,7,Test,User,-,,Recall,Recall1,4317,writor,20,1710,4072,0,0,,1
5e75f60ae9644415b9b3669a,ffgwjlayu0,Nick_Dissertation_EX1,1,142,2020-07-08T14:54:24-07:00,5.8559598922729,1,versionA_stim.csv,READVersionA.csv,"Read Version A","Dissertation, read only version A",HOT,CHILI,Study1,B,37,48,Test,User,-,,Recall,Recall1,5270,cold,44.444444444444,4566,4976,0,0,,1
5e75f60ae9644415b9b3669a,ffgwjlayu0,Nick_Dissertation_EX1,1,143,2020-07-08T14:54:28-07:00,3.5805220603943,1,versionA_stim.csv,READVersionA.csv,"Read Version A","Dissertation, read only version A",MEANING,DEFINITION,Study1,S,62,23,Test,User,-,,Recall,Recall1,2973,,0,-1,-1,0,0,,1
5e75f60ae9644415b9b3669a,ffgwjlayu0,Nick_Dissertation_EX1,1,144,2020-07-08T14:54:30-07:00,2.7170159816742,1,versionA_stim.csv,READVersionA.csv,"Read Version A","Dissertation, read only version A",HIDE,SICK,Study1,U,84,54,Test,User,-,,Recall,Recall1,2183,seek,50,1477,1882,0,0,,1
5e75f60ae9644415b9b3669a,ffgwjlayu0,Nick_Dissertation_EX1,1,145,2020-07-08T14:54:34-07:00,3.5347719192505,1,versionA_stim.csv,READVersionA.csv,"Read Version A","Dissertation, read only version A",LIFT,WOMAN,Study1,U,69,42,Test,User,-,,Recall,Recall1,2939,women,80,2181,2664,0,1,,1
5e75f60ae9644415b9b3669a,ffgwjlayu0,Nick_Dissertation_EX1,1,146,2020-07-08T14:54:40-07:00,5.7840340137482,1,versionA_stim.csv,READVersionA.csv,"Read Version A","Dissertation, read only version A",BALL,RACKET,Study1,B,38,72,Test,User,-,,Recall,Recall1,5168,park,40,3291,4663,0,0,,1
5e75f60ae9644415b9b3669a,ffgwjlayu0,Nick_Dissertation_EX1,1,147,2020-07-08T14:54:42-07:00,2.3622031211853,1,versionA_stim.csv,READVersionA.csv,"Read Version A","Dissertation, read only version A",FIRE,BLAZE,Study1,B,45,26,Test,User,-,,Recall,Recall1,1802,ice,25,1474,1694,0,0,,1
5e75f60ae9644415b9b3669a,ffgwjlayu0,Nick_Dissertation_EX1,1,148,2020-07-08T14:54:44-07:00,2.4880080223083,1,versionA_stim.csv,READVersionA.csv,"Read Version A","Dissertation, read only version A",SOON,BELT,Study1,U,70,33,Test,User,-,,Recall,Recall1,1717,later,44.444444444444,1142,1626,0,0,,1
5e75f60ae9644415b9b3669a,ffgwjlayu0,Nick_Dissertation_EX1,1,149,2020-07-08T14:54:47-07:00,2.7765188217163,1,versionA_stim.csv,READVersionA.csv,"Read Version A","Dissertation, read only version A",PAST,FUTURE,Study1,S,61,14,Test,User,-,,Recall,Recall1,1995,present,30.769230769231,1074,1815,0,0,,1
5e75f60ae9644415b9b3669a,ffgwjlayu0,Nick_Dissertation_EX1,1,150,2020-07-08T14:54:50-07:00,2.6816370487213,1,versionA_stim.csv,READVersionA.csv,"Read Version A","Dissertation, read only version A",ALLOW,TUCK,Study1,U,78,31,Test,User,-,,Recall,Recall1,2159,deny,0,1461,1860,0,0,,1
5e75f60ae9644415b9b3669a,ffgwjlayu0,Nick_Dissertation_EX1,1,151,2020-07-08T14:54:54-07:00,4.0447280406952,1,versionA_stim.csv,READVersionA.csv,"Read Version A","Dissertation, read only version A",DIGESTION,STOMACH,Study1,F,7,43,Test,User,-,,Recall,Recall1,3527,stomach,100,2124,3279,1,1,,1
5e75f60ae9644415b9b3669a,ffgwjlayu0,Nick_Dissertation_EX1,1,152,2020-07-08T14:54:59-07:00,4.8894309997559,1,versionA_stim.csv,READVersionA.csv,"Read Version A","Dissertation, read only version A",CASH,WOULD,Study1,U,83,65,Test,User,-,,Recall,Recall1,4320,card,22.222222222222,2117,3854,0,0,,1
5e75f60ae9644415b9b3669a,ffgwjlayu0,Nick_Dissertation_EX1,1,153,2020-07-08T14:55:04-07:00,5.4441030025482,1,versionA_stim.csv,READVersionA.csv,"Read Version A","Dissertation, read only version A",PLANE,PILOT,Study1,B,44,59,Test,User,-,,Recall,Recall1,3868,pilot,100,1533,3519,1,1,,1
5e75f60ae9644415b9b3669a,ffgwjlayu0,Nick_Dissertation_EX1,1,154,2020-07-08T14:55:10-07:00,5.3975689411163,1,versionA_stim.csv,READVersionA.csv,"Read Version A","Dissertation, read only version A",SLEEP,DROWSY,Study1,B,41,28,Test,User,-,,Recall,Recall1,4640,awake,18.181818181818,3084,4449,0,0,,1
5e75f60ae9644415b9b3669a,ffgwjlayu0,Nick_Dissertation_EX1,1,155,2020-07-08T14:55:12-07:00,2.2972180843353,1,versionA_stim.csv,READVersionA.csv,"Read Version A","Dissertation, read only version A",PARK,HUNGRY,Study1,U,68,52,Test,User,-,,Recall,Recall1,1568,car,22.222222222222,1206,1458,0,0,,1
5e75f60ae9644415b9b3669a,ffgwjlayu0,Nick_Dissertation_EX1,1,156,2020-07-08T14:55:18-07:00,6.070102930069,1,versionA_stim.csv,READVersionA.csv,"Read Version A","Dissertation, read only version A",BEGIN,END,Study1,S,54,20,Test,User,-,,Recall,Recall1,5499,alive,25,1328,3178,0,0,,1
5e75f60ae9644415b9b3669a,ffgwjlayu0,Nick_Dissertation_EX1,1,157,2020-07-08T14:55:24-07:00,5.6911759376526,1,versionA_stim.csv,READVersionA.csv,"Read Version A","Dissertation, read only version A",BATHROOM,TOILET,Study1,S,58,35,Test,User,-,,Recall,Recall1,5045,toliet,83.333333333333,1748,3953,0,1,,1
5e75f60ae9644415b9b3669a,ffgwjlayu0,Nick_Dissertation_EX1,1,158,2020-07-08T14:55:28-07:00,4.4852051734924,1,versionA_stim.csv,READVersionA.csv,"Read Version A","Dissertation, read only version A",TRIAL,JURY,Study1,S,50,86,Test,User,-,,Recall,Recall1,3895,"jury ",100,1854,3631,1,1,,1
5e75f60ae9644415b9b3669a,ffgwjlayu0,Nick_Dissertation_EX1,1,159,2020-07-08T14:55:33-07:00,4.7794029712677,1,versionA_stim.csv,READVersionA.csv,"Read Version A","Dissertation, read only version A",SWAN,BIRD,Study1,F,14,32,Test,User,-,,Recall,Recall1,4130,lake,0,2388,3484,0,0,,1
5e75f60ae9644415b9b3669a,ffgwjlayu0,Nick_Dissertation_EX1,1,160,2020-07-08T14:55:37-07:00,3.7749488353729,1,versionA_stim.csv,READVersionA.csv,"Read Version A","Dissertation, read only version A",REVOLUTION,WAR,Study1,F,20,19,Test,User,-,,Recall,Recall1,3073,ideas,25,1702,2483,0,0,,1
5e75f60ae9644415b9b3669a,ffgwjlayu0,Nick_Dissertation_EX1,1,161,2020-07-08T14:55:42-07:00,5.1289391517639,1,versionA_stim.csv,READVersionA.csv,"Read Version A","Dissertation, read only version A",KEY,LATCH,Study1,B,36,66,Test,User,-,,Recall,Recall1,4463,card,22.222222222222,2029,4052,0,0,,1
5e75f60ae9644415b9b3669a,ffgwjlayu0,Nick_Dissertation_EX1,1,162,2020-07-08T14:55:47-07:00,5.0290069580078,1,versionA_stim.csv,READVersionA.csv,"Read Version A","Dissertation, read only version A",ART,LION,Study1,U,79,60,Test,User,-,,Recall,Recall1,4465,crafts,0,2365,3893,0,0,,1
5e75f60ae9644415b9b3669a,ffgwjlayu0,Nick_Dissertation_EX1,1,163,2020-07-08T14:55:51-07:00,4.3651049137115,1,versionA_stim.csv,READVersionA.csv,"Read Version A","Dissertation, read only version A",DISCUSSION,TALK,Study1,F,21,27,Test,User,-,,Recall,Recall1,3808,topic,22.222222222222,1813,3153,0,0,,1
5e75f60ae9644415b9b3669a,ffgwjlayu0,Nick_Dissertation_EX1,1,164,2020-07-08T14:55:54-07:00,2.8420341014862,1,versionA_stim.csv,READVersionA.csv,"Read Version A","Dissertation, read only version A",HAPPY,CAR,Study1,U,77,83,Test,User,-,,Recall,Recall1,2241,sad,33.333333333333,1492,1850,0,0,,1
5e75f60ae9644415b9b3669a,ffgwjlayu0,Nick_Dissertation_EX1,1,165,2020-07-08T14:56:00-07:00,5.7897338867188,1,versionA_stim.csv,READVersionA.csv,"Read Version A","Dissertation, read only version A",SHOE,FOOT,Study1,S,60,13,Test,User,-,,Recall,Recall1,5154,foot,100,1418,4832,1,1,,1
5e75f60ae9644415b9b3669a,ffgwjlayu0,Nick_Dissertation_EX1,1,166,2020-07-08T14:56:04-07:00,4.3439140319824,1,versionA_stim.csv,READVersionA.csv,"Read Version A","Dissertation, read only version A",DARK,CAVE,Study1,B,28,38,Test,User,-,,Recall,Recall1,3736,light,0,2649,3418,0,0,,1
5e75f60ae9644415b9b3669a,ffgwjlayu0,Nick_Dissertation_EX1,1,167,2020-07-08T14:56:13-07:00,8.5885369777679,1,versionA_stim.csv,READVersionA.csv,"Read Version A","Dissertation, read only version A",HEIGHT,GROWTH,Study1,B,30,62,Test,User,-,,Recall,Recall1,7900,weight,33.333333333333,3067,7284,0,0,,1
5e75f60ae9644415b9b3669a,ffgwjlayu0,Nick_Dissertation_EX1,1,168,2020-07-08T14:56:19-07:00,6.1162919998169,1,versionA_stim.csv,READVersionA.csv,"Read Version A","Dissertation, read only version A",WAGE,MONEY,Study1,F,8,53,Test,User,-,,Recall,Recall1,5440,money,100,3538,4958,1,1,,1
5e75f60ae9644415b9b3669a,ffgwjlayu0,Nick_Dissertation_EX1,1,169,2020-07-08T14:56:24-07:00,4.5854070186615,1,versionA_stim.csv,READVersionA.csv,"Read Version A","Dissertation, read only version A",GREAT,FANTASTIC,Study1,B,35,16,Test,User,-,,Recall,Recall1,4033,,0,-1,-1,0,0,,1
5e75f60ae9644415b9b3669a,ffgwjlayu0,Nick_Dissertation_EX1,1,170,2020-07-08T14:56:29-07:00,4.929948091507,1,versionA_stim.csv,READVersionA.csv,"Read Version A","Dissertation, read only version A",STRONG,ACCIDENT,Study1,U,80,81,Test,User,-,,Recall,Recall1,4283,power,15.384615384615,2552,3653,0,0,,1
5e75f60ae9644415b9b3669a,ffgwjlayu0,Nick_Dissertation_EX1,1,171,2020-07-08T14:56:39-07:00,10.598609924316,1,versionA_stim.csv,READVersionA.csv,"Read Version A","Dissertation, read only version A",DRINK,SIP,Study1,B,27,77,Test,User,-,,Recall,Recall1,9754,water,0,8024,9143,0,0,,1
5e75f60ae9644415b9b3669a,ffgwjlayu0,Nick_Dissertation_EX1,1,172,2020-07-08T14:56:44-07:00,4.9762721061707,1,versionA_stim.csv,READVersionA.csv,"Read Version A","Dissertation, read only version A",SUGAR,RIDDLE,Study1,U,81,12,Test,User,-,,Recall,Recall1,4149,sweet,18.181818181818,2923,3632,0,0,,1
5e75f60ae9644415b9b3669a,ffgwjlayu0,Nick_Dissertation_EX1,1,173,2020-07-08T14:56:48-07:00,3.959666967392,1,versionA_stim.csv,READVersionA.csv,"Read Version A","Dissertation, read only version A",DEBATE,SIGHT,Study1,U,73,21,Test,User,-,,Recall,Recall1,3292,argue,20,1644,2791,0,0,,1
5e75f60ae9644415b9b3669a,ffgwjlayu0,Nick_Dissertation_EX1,1,174,2020-07-08T14:56:52-07:00,4.0818479061127,1,versionA_stim.csv,READVersionA.csv,"Read Version A","Dissertation, read only version A",HYGIENE,CLEAN,Study1,F,17,15,Test,User,-,,Recall,Recall1,3458,clean,100,1671,3157,1,1,,1
5e75f60ae9644415b9b3669a,ffgwjlayu0,Nick_Dissertation_EX1,1,175,2020-07-08T14:57:07-07:00,15.339266061783,1,versionA_stim.csv,READVersionA.csv,"Read Version A","Dissertation, read only version A",,,,,,0,Instruct,-,10,"You will now be presented with a new set of word pairs. Please study each pair. Remember that your memory will be tested! When finished, press Enter to move to the next pair.",Initial_Instruct,Instruct4,14577,,,-1,-1,,,,1
5e75f60ae9644415b9b3669a,ffgwjlayu0,Nick_Dissertation_EX1,1,176,2020-07-08T14:57:09-07:00,1.6492800712585,1,versionA_stim.csv,READVersionA.csv,"Read Version A","Dissertation, read only version A",SHRIMP,FISH,BUFFER3,Buffer,93,95,Study,User,-,,Study/JOL,BUFFER3,871,,,-1,-1,,,,1
5e75f60ae9644415b9b3669a,ffgwjlayu0,Nick_Dissertation_EX1,1,177,2020-07-08T14:57:10-07:00,1.2213749885559,1,versionA_stim.csv,READVersionA.csv,"Read Version A","Dissertation, read only version A",ICE,FROZEN,BUFFER3,Buffer,94,92,Study,User,-,,Study/JOL,BUFFER3,636,,,-1,-1,,,,1
5e75f60ae9644415b9b3669a,ffgwjlayu0,Nick_Dissertation_EX1,1,178,2020-07-08T14:57:11-07:00,0.82349896430969,1,versionA_stim.csv,READVersionA.csv,"Read Version A","Dissertation, read only version A",NOODLE,STRING,BUFFER3,Buffer,92,96,Study,User,-,,Study/JOL,BUFFER3,272,,,-1,-1,,,,1
5e75f60ae9644415b9b3669a,ffgwjlayu0,Nick_Dissertation_EX1,1,179,2020-07-08T14:57:12-07:00,0.95704889297485,1,versionA_stim.csv,READVersionA.csv,"Read Version A","Dissertation, read only version A",CARROT,POTATO,BUFFER3,Buffer,91,94,Study,User,-,,Study/JOL,BUFFER3,407,,,-1,-1,,,,1
5e75f60ae9644415b9b3669a,ffgwjlayu0,Nick_Dissertation_EX1,1,180,2020-07-08T14:57:13-07:00,1.3132162094116,1,versionA_stim.csv,READVersionA.csv,"Read Version A","Dissertation, read only version A",CAMP,ADVENTURE,BUFFER3,Buffer,95,93,Study,User,-,,Study/JOL,BUFFER3,623,,,-1,-1,,,,1
5e75f60ae9644415b9b3669a,ffgwjlayu0,Nick_Dissertation_EX1,1,181,2020-07-08T14:57:14-07:00,0.75283789634705,1,versionA_stim.csv,READVersionA.csv,"Read Version A","Dissertation, read only version A",MONEY,BANKER,Study2,B,132,100,Study,User,-,,Study/JOL,"Study Phase2",151,,,-1,-1,,,,1
5e75f60ae9644415b9b3669a,ffgwjlayu0,Nick_Dissertation_EX1,1,182,2020-07-08T14:57:15-07:00,1.1634900569916,1,versionA_stim.csv,READVersionA.csv,"Read Version A","Dissertation, read only version A",EARTH,GROUND,Study2,S,144,153,Study,User,-,,Study/JOL,"Study Phase2",465,,,-1,-1,,,,1
5e75f60ae9644415b9b3669a,ffgwjlayu0,Nick_Dissertation_EX1,1,183,2020-07-08T14:57:17-07:00,1.3752770423889,1,versionA_stim.csv,READVersionA.csv,"Read Version A","Dissertation, read only version A",BASEBALL,LEAGUE,Study2,B,131,124,Study,User,-,,Study/JOL,"Study Phase2",842,,,-1,-1,,,,1
5e75f60ae9644415b9b3669a,ffgwjlayu0,Nick_Dissertation_EX1,1,184,2020-07-08T14:57:18-07:00,1.1781468391418,1,versionA_stim.csv,READVersionA.csv,"Read Version A","Dissertation, read only version A",Shell,SHAKE,Study2,U,163,104,Study,User,-,,Study/JOL,"Study Phase2",645,,,-1,-1,,,,1
5e75f60ae9644415b9b3669a,ffgwjlayu0,Nick_Dissertation_EX1,1,185,2020-07-08T14:57:19-07:00,1.4351460933685,1,versionA_stim.csv,READVersionA.csv,"Read Version A","Dissertation, read only version A",MAZE,ELECTION,Study2,U,159,165,Study,User,-,,Study/JOL,"Study Phase2",893,,,-1,-1,,,,1
5e75f60ae9644415b9b3669a,ffgwjlayu0,Nick_Dissertation_EX1,1,186,2020-07-08T14:57:21-07:00,1.326376914978,1,versionA_stim.csv,READVersionA.csv,"Read Version A","Dissertation, read only version A",FUZZY,BANG,Study2,U,168,123,Study,User,-,,Study/JOL,"Study Phase2",789,,,-1,-1,,,,1
5e75f60ae9644415b9b3669a,ffgwjlayu0,Nick_Dissertation_EX1,1,187,2020-07-08T14:57:23-07:00,2.3525540828705,1,versionA_stim.csv,READVersionA.csv,"Read Version A","Dissertation, read only version A",CRACKLE,ABLE,Study2,U,162,146,Study,User,-,,Study/JOL,"Study Phase2",1664,,,-1,-1,,,,1
5e75f60ae9644415b9b3669a,ffgwjlayu0,Nick_Dissertation_EX1,1,188,2020-07-08T14:57:26-07:00,2.6643049716949,1,versionA_stim.csv,READVersionA.csv,"Read Version A","Dissertation, read only version A",CHILL,COLD,Study2,F,114,157,Study,User,-,,Study/JOL,"Study Phase2",1029,,,-1,-1,,,,1
5e75f60ae9644415b9b3669a,ffgwjlayu0,Nick_Dissertation_EX1,1,189,2020-07-08T14:57:27-07:00,1.6509830951691,1,versionA_stim.csv,READVersionA.csv,"Read Version A","Dissertation, read only version A",GIVE,STEAK,Study2,U,158,135,Study,User,-,,Study/JOL,"Study Phase2",947,,,-1,-1,,,,1
5e75f60ae9644415b9b3669a,ffgwjlayu0,Nick_Dissertation_EX1,1,190,2020-07-08T14:57:30-07:00,2.3322358131409,1,versionA_stim.csv,READVersionA.csv,"Read Version A","Dissertation, read only version A",EXTENSION,LONG,Study2,F,96,122,Study,User,-,,Study/JOL,"Study Phase2",698,,,-1,-1,,,,1
5e75f60ae9644415b9b3669a,ffgwjlayu0,Nick_Dissertation_EX1,1,191,2020-07-08T14:57:31-07:00,1.3943600654602,1,versionA_stim.csv,READVersionA.csv,"Read Version A","Dissertation, read only version A",ADJOURN,END,Study2,F,101,161,Study,User,-,,Study/JOL,"Study Phase2",816,,,-1,-1,,,,1
5e75f60ae9644415b9b3669a,ffgwjlayu0,Nick_Dissertation_EX1,1,192,2020-07-08T14:57:33-07:00,1.6076591014862,1,versionA_stim.csv,READVersionA.csv,"Read Version A","Dissertation, read only version A",LEASE,TOIL,Study2,U,170,126,Study,User,-,,Study/JOL,"Study Phase2",918,,,-1,-1,,,,1
5e75f60ae9644415b9b3669a,ffgwjlayu0,Nick_Dissertation_EX1,1,193,2020-07-08T14:57:34-07:00,1.0869309902191,1,versionA_stim.csv,READVersionA.csv,"Read Version A","Dissertation, read only version A",WATER,DRINK,Study2,S,143,133,Study,User,-,,Study/JOL,"Study Phase2",550,,,-1,-1,,,,1
5e75f60ae9644415b9b3669a,ffgwjlayu0,Nick_Dissertation_EX1,1,194,2020-07-08T14:57:36-07:00,2.4560639858246,1,versionA_stim.csv,READVersionA.csv,"Read Version A","Dissertation, read only version A",PHONE,COMMUNICATION,Study2,S,149,160,Study,User,-,,Study/JOL,"Study Phase2",903,,,-1,-1,,,,1
5e75f60ae9644415b9b3669a,ffgwjlayu0,Nick_Dissertation_EX1,1,195,2020-07-08T14:57:38-07:00,1.8816330432892,1,versionA_stim.csv,READVersionA.csv,"Read Version A","Dissertation, read only version A",MAIN,SCAR,Study2,U,175,108,Study,User,-,,Study/JOL,"Study Phase2",1244,,,-1,-1,,,,1
5e75f60ae9644415b9b3669a,ffgwjlayu0,Nick_Dissertation_EX1,1,196,2020-07-08T14:57:40-07:00,1.8640308380127,1,versionA_stim.csv,READVersionA.csv,"Read Version A","Dissertation, read only version A",INCENSE,SMELL,Study2,F,110,162,Study,User,-,,Study/JOL,"Study Phase2",1215,,,-1,-1,,,,1
5e75f60ae9644415b9b3669a,ffgwjlayu0,Nick_Dissertation_EX1,1,197,2020-07-08T14:57:41-07:00,1.2958371639252,1,versionA_stim.csv,READVersionA.csv,"Read Version A","Dissertation, read only version A",OWN,HAVE,Study2,S,153,155,Study,User,-,,Study/JOL,"Study Phase2",747,,,-1,-1,,,,1
5e75f60ae9644415b9b3669a,ffgwjlayu0,Nick_Dissertation_EX1,1,198,2020-07-08T14:57:43-07:00,1.294086933136,1,versionA_stim.csv,READVersionA.csv,"Read Version A","Dissertation, read only version A",CACTUS,PLANT,Study2,F,98,136,Study,User,-,,Study/JOL,"Study Phase2",709,,,-1,-1,,,,1
5e75f60ae9644415b9b3669a,ffgwjlayu0,Nick_Dissertation_EX1,1,199,2020-07-08T14:57:44-07:00,1.3805558681488,1,versionA_stim.csv,READVersionA.csv,"Read Version A","Dissertation, read only version A",FLEA,TICK,Study2,S,151,117,Study,User,-,,Study/JOL,"Study Phase2",815,,,-1,-1,,,,1
5e75f60ae9644415b9b3669a,ffgwjlayu0,Nick_Dissertation_EX1,1,200,2020-07-08T14:57:45-07:00,0.99547719955444,1,versionA_stim.csv,READVersionA.csv,"Read Version A","Dissertation, read only version A",SCALP,HEAD,Study2,F,105,131,Study,User,-,,Study/JOL,"Study Phase2",455,,,-1,-1,,,,1
5e75f60ae9644415b9b3669a,ffgwjlayu0,Nick_Dissertation_EX1,1,201,2020-07-08T14:57:46-07:00,1.349357843399,1,versionA_stim.csv,READVersionA.csv,"Read Version A","Dissertation, read only version A",MOAT,CLEAR,Study2,U,169,106,Study,User,-,,Study/JOL,"Study Phase2",750,,,-1,-1,,,,1
5e75f60ae9644415b9b3669a,ffgwjlayu0,Nick_Dissertation_EX1,1,202,2020-07-08T14:57:48-07:00,1.3177270889282,1,versionA_stim.csv,READVersionA.csv,"Read Version A","Dissertation, read only version A",SLEEP,NAP,Study2,B,134,102,Study,User,-,,Study/JOL,"Study Phase2",529,,,-1,-1,,,,1
5e75f60ae9644415b9b3669a,ffgwjlayu0,Nick_Dissertation_EX1,1,203,2020-07-08T14:57:49-07:00,1.4507448673248,1,versionA_stim.csv,READVersionA.csv,"Read Version A","Dissertation, read only version A",ELEMENT,CARBON,Study2,S,141,119,Study,User,-,,Study/JOL,"Study Phase2",855,,,-1,-1,,,,1
5e75f60ae9644415b9b3669a,ffgwjlayu0,Nick_Dissertation_EX1,1,204,2020-07-08T14:57:50-07:00,1.2655351161957,1,versionA_stim.csv,READVersionA.csv,"Read Version A","Dissertation, read only version A",SAFETY,SEATBELT,Study2,S,147,130,Study,User,-,,Study/JOL,"Study Phase2",594,,,-1,-1,,,,1
5e75f60ae9644415b9b3669a,ffgwjlayu0,Nick_Dissertation_EX1,1,205,2020-07-08T14:57:51-07:00,1.071928024292,1,versionA_stim.csv,READVersionA.csv,"Read Version A","Dissertation, read only version A",FEUD,FIGHT,Study2,F,113,99,Study,User,-,,Study/JOL,"Study Phase2",346,,,-1,-1,,,,1
5e75f60ae9644415b9b3669a,ffgwjlayu0,Nick_Dissertation_EX1,1,206,2020-07-08T14:57:53-07:00,1.2309799194336,1,versionA_stim.csv,READVersionA.csv,"Read Version A","Dissertation, read only version A",STAR,ACTRESS,Study2,B,120,173,Study,User,-,,Study/JOL,"Study Phase2",577,,,-1,-1,,,,1
5e75f60ae9644415b9b3669a,ffgwjlayu0,Nick_Dissertation_EX1,1,207,2020-07-08T14:57:53-07:00,0.74526000022888,1,versionA_stim.csv,READVersionA.csv,"Read Version A","Dissertation, read only version A",CLUE,GAME,Study2,F,97,148,Study,User,-,,Study/JOL,"Study Phase2",20,,,-1,-1,,,,1
5e75f60ae9644415b9b3669a,ffgwjlayu0,Nick_Dissertation_EX1,1,208,2020-07-08T14:57:55-07:00,1.4059240818024,1,versionA_stim.csv,READVersionA.csv,"Read Version A","Dissertation, read only version A",FRUIT,STRAWBERRY,Study2,B,124,170,Study,User,-,,Study/JOL,"Study Phase2",852,,,-1,-1,,,,1
5e75f60ae9644415b9b3669a,ffgwjlayu0,Nick_Dissertation_EX1,1,209,2020-07-08T14:57:56-07:00,1.2344119548798,1,versionA_stim.csv,READVersionA.csv,"Read Version A","Dissertation, read only version A",THREAD,THIMBLE,Study2,B,121,128,Study,User,-,,Study/JOL,"Study Phase2",612,,,-1,-1,,,,1
5e75f60ae9644415b9b3669a,ffgwjlayu0,Nick_Dissertation_EX1,1,210,2020-07-08T14:57:57-07:00,1.3409368991852,1,versionA_stim.csv,READVersionA.csv,"Read Version A","Dissertation, read only version A",BAD,VILLAIN,Study2,B,118,151,Study,User,-,,Study/JOL,"Study Phase2",807,,,-1,-1,,,,1
5e75f60ae9644415b9b3669a,ffgwjlayu0,Nick_Dissertation_EX1,1,211,2020-07-08T14:57:59-07:00,1.2049920558929,1,versionA_stim.csv,READVersionA.csv,"Read Version A","Dissertation, read only version A",DETECTIVE,MYSTERY,Study2,F,100,125,Study,User,-,,Study/JOL,"Study Phase2",660,,,-1,-1,,,,1
5e75f60ae9644415b9b3669a,ffgwjlayu0,Nick_Dissertation_EX1,1,212,2020-07-08T14:58:00-07:00,1.6927530765533,1,versionA_stim.csv,READVersionA.csv,"Read Version A","Dissertation, read only version A",MIRROR,CHILDREN,Study2,U,174,103,Study,User,-,,Study/JOL,"Study Phase2",1137,,,-1,-1,,,,1
5e75f60ae9644415b9b3669a,ffgwjlayu0,Nick_Dissertation_EX1,1,213,2020-07-08T14:58:01-07:00,1.2169690132141,1,versionA_stim.csv,READVersionA.csv,"Read Version A","Dissertation, read only version A",PLANE,AIRCRAFT,Study2,B,129,159,Study,User,-,,Study/JOL,"Study Phase2",625,,,-1,-1,,,,1
5e75f60ae9644415b9b3669a,ffgwjlayu0,Nick_Dissertation_EX1,1,214,2020-07-08T14:58:02-07:00,0.68176984786987,1,versionA_stim.csv,READVersionA.csv,"Read Version A","Dissertation, read only version A",RAZOR,SHAVE,Study2,S,136,107,Study,User,-,,Study/JOL,"Study Phase2",10,,,-1,-1,,,,1
5e75f60ae9644415b9b3669a,ffgwjlayu0,Nick_Dissertation_EX1,1,215,2020-07-08T14:58:04-07:00,1.7094311714172,1,versionA_stim.csv,READVersionA.csv,"Read Version A","Dissertation, read only version A",VEHICLE,CHARM,Study2,U,160,137,Study,User,-,,Study/JOL,"Study Phase2",1169,,,-1,-1,,,,1
5e75f60ae9644415b9b3669a,ffgwjlayu0,Nick_Dissertation_EX1,1,216,2020-07-08T14:58:06-07:00,2.1640429496765,1,versionA_stim.csv,READVersionA.csv,"Read Version A","Dissertation, read only version A",TANTRUM,TEMPER,Study2,S,154,147,Study,User,-,,Study/JOL,"Study Phase2",1651,,,-1,-1,,,,1
5e75f60ae9644415b9b3669a,ffgwjlayu0,Nick_Dissertation_EX1,1,217,2020-07-08T14:58:07-07:00,1.4225869178772,1,versionA_stim.csv,READVersionA.csv,"Read Version A","Dissertation, read only version A",DRY,WET,Study2,S,146,169,Study,User,-,,Study/JOL,"Study Phase2",852,,,-1,-1,,,,1
5e75f60ae9644415b9b3669a,ffgwjlayu0,Nick_Dissertation_EX1,1,218,2020-07-08T14:58:09-07:00,1.0601351261139,1,versionA_stim.csv,READVersionA.csv,"Read Version A","Dissertation, read only version A",BEST,FAVORITE,Study2,B,125,163,Study,User,-,,Study/JOL,"Study Phase2",454,,,-1,-1,,,,1
5e75f60ae9644415b9b3669a,ffgwjlayu0,Nick_Dissertation_EX1,1,219,2020-07-08T14:58:10-07:00,1.0077369213104,1,versionA_stim.csv,READVersionA.csv,"Read Version A","Dissertation, read only version A",AFFECTION,LOVE,Study2,F,115,172,Study,User,-,,Study/JOL,"Study Phase2",519,,,-1,-1,,,,1
5e75f60ae9644415b9b3669a,ffgwjlayu0,Nick_Dissertation_EX1,1,220,2020-07-08T14:58:11-07:00,1.0934429168701,1,versionA_stim.csv,READVersionA.csv,"Read Version A","Dissertation, read only version A",CHOP,CUT,Study2,F,107,127,Study,User,-,,Study/JOL,"Study Phase2",602,,,-1,-1,,,,1
5e75f60ae9644415b9b3669a,ffgwjlayu0,Nick_Dissertation_EX1,1,221,2020-07-08T14:58:12-07:00,1.0932052135468,1,versionA_stim.csv,READVersionA.csv,"Read Version A","Dissertation, read only version A",SHOELACE,TIE,Study2,F,99,129,Study,User,-,,Study/JOL,"Study Phase2",468,,,-1,-1,,,,1
5e75f60ae9644415b9b3669a,ffgwjlayu0,Nick_Dissertation_EX1,1,222,2020-07-08T14:58:13-07:00,1.0101478099823,1,versionA_stim.csv,READVersionA.csv,"Read Version A","Dissertation, read only version A",LOAN,SIGN,Study2,U,171,121,Study,User,-,,Study/JOL,"Study Phase2",380,,,-1,-1,,,,1
5e75f60ae9644415b9b3669a,ffgwjlayu0,Nick_Dissertation_EX1,1,223,2020-07-08T14:58:14-07:00,0.91764497756958,1,versionA_stim.csv,READVersionA.csv,"Read Version A","Dissertation, read only version A",FURRY,DOG,Study2,F,102,101,Study,User,-,,Study/JOL,"Study Phase2",386,,,-1,-1,,,,1
5e75f60ae9644415b9b3669a,ffgwjlayu0,Nick_Dissertation_EX1,1,224,2020-07-08T14:58:15-07:00,0.96051907539368,1,versionA_stim.csv,READVersionA.csv,"Read Version A","Dissertation, read only version A",LITTER,TRASH,Study2,F,103,175,Study,User,-,,Study/JOL,"Study Phase2",420,,,-1,-1,,,,1
5e75f60ae9644415b9b3669a,ffgwjlayu0,Nick_Dissertation_EX1,1,225,2020-07-08T14:58:16-07:00,1.0946450233459,1,versionA_stim.csv,READVersionA.csv,"Read Version A","Dissertation, read only version A",RIGHTS,EQUAL,Study2,S,137,112,Study,User,-,,Study/JOL,"Study Phase2",555,,,-1,-1,,,,1
5e75f60ae9644415b9b3669a,ffgwjlayu0,Nick_Dissertation_EX1,1,226,2020-07-08T14:58:16-07:00,0.65775394439697,1,versionA_stim.csv,READVersionA.csv,"Read Version A","Dissertation, read only version A",CAT,PANTHER,Study2,B,126,150,Study,User,-,,Study/JOL,"Study Phase2",47,,,-1,-1,,,,1
5e75f60ae9644415b9b3669a,ffgwjlayu0,Nick_Dissertation_EX1,1,227,2020-07-08T14:58:18-07:00,1.394767999649,1,versionA_stim.csv,READVersionA.csv,"Read Version A","Dissertation, read only version A",WRIST,BRACELET,Study2,S,140,138,Study,User,-,,Study/JOL,"Study Phase2",839,,,-1,-1,,,,1
5e75f60ae9644415b9b3669a,ffgwjlayu0,Nick_Dissertation_EX1,1,228,2020-07-08T14:58:19-07:00,1.2761371135712,1,versionA_stim.csv,READVersionA.csv,"Read Version A","Dissertation, read only version A",KEYS,JOKE,Study2,U,165,139,Study,User,-,,Study/JOL,"Study Phase2",607,,,-1,-1,,,,1
5e75f60ae9644415b9b3669a,ffgwjlayu0,Nick_Dissertation_EX1,1,229,2020-07-08T14:58:20-07:00,1.0754199028015,1,versionA_stim.csv,READVersionA.csv,"Read Version A","Dissertation, read only version A",POP,BALLOON,Study2,B,123,140,Study,User,-,,Study/JOL,"Study Phase2",556,,,-1,-1,,,,1
5e75f60ae9644415b9b3669a,ffgwjlayu0,Nick_Dissertation_EX1,1,230,2020-07-08T14:58:21-07:00,0.59914612770081,1,versionA_stim.csv,READVersionA.csv,"Read Version A","Dissertation, read only version A",GLASS,BREAKABLE,Study2,B,127,154,Study,User,-,,Study/JOL,"Study Phase2",59,,,-1,-1,,,,1
5e75f60ae9644415b9b3669a,ffgwjlayu0,Nick_Dissertation_EX1,1,231,2020-07-08T14:58:22-07:00,1.3432228565216,1,versionA_stim.csv,READVersionA.csv,"Read Version A","Dissertation, read only version A",TEMPERATURE,Morning,Study2,U,173,145,Study,User,-,,Study/JOL,"Study Phase2",794,,,-1,-1,,,,1
5e75f60ae9644415b9b3669a,ffgwjlayu0,Nick_Dissertation_EX1,1,232,2020-07-08T14:58:23-07:00,1.2098340988159,1,versionA_stim.csv,READVersionA.csv,"Read Version A","Dissertation, read only version A",NAME,HATE,Study2,U,167,97,Study,User,-,,Study/JOL,"Study Phase2",625,,,-1,-1,,,,1
5e75f60ae9644415b9b3669a,ffgwjlayu0,Nick_Dissertation_EX1,1,233,2020-07-08T14:58:24-07:00,1.0482928752899,1,versionA_stim.csv,READVersionA.csv,"Read Version A","Dissertation, read only version A",LOUD,NOISE,Study2,S,152,105,Study,User,-,,Study/JOL,"Study Phase2",498,,,-1,-1,,,,1
5e75f60ae9644415b9b3669a,ffgwjlayu0,Nick_Dissertation_EX1,1,234,2020-07-08T14:58:25-07:00,1.0767660140991,1,versionA_stim.csv,READVersionA.csv,"Read Version A","Dissertation, read only version A",HONEST,TRUTHFUL,Study2,B,133,168,Study,User,-,,Study/JOL,"Study Phase2",485,,,-1,-1,,,,1
5e75f60ae9644415b9b3669a,ffgwjlayu0,Nick_Dissertation_EX1,1,235,2020-07-08T14:58:26-07:00,0.60014009475708,1,versionA_stim.csv,READVersionA.csv,"Read Version A","Dissertation, read only version A",GONE,AWAY,Study2,S,142,176,Study,User,-,,Study/JOL,"Study Phase2",35,,,-1,-1,,,,1
5e75f60ae9644415b9b3669a,ffgwjlayu0,Nick_Dissertation_EX1,1,236,2020-07-08T14:58:28-07:00,1.9580838680267,1,versionA_stim.csv,READVersionA.csv,"Read Version A","Dissertation, read only version A",CANDLE,WAX,Study2,S,139,149,Study,User,-,,Study/JOL,"Study Phase2",1324,,,-1,-1,,,,1
5e75f60ae9644415b9b3669a,ffgwjlayu0,Nick_Dissertation_EX1,1,237,2020-07-08T14:58:30-07:00,2.3651301860809,1,versionA_stim.csv,READVersionA.csv,"Read Version A","Dissertation, read only version A",DEAD,COFFIN,Study2,B,128,116,Study,User,-,,Study/JOL,"Study Phase2",709,,,-1,-1,,,,1
5e75f60ae9644415b9b3669a,ffgwjlayu0,Nick_Dissertation_EX1,1,238,2020-07-08T14:58:32-07:00,1.4826929569244,1,versionA_stim.csv,READVersionA.csv,"Read Version A","Dissertation, read only version A",ALONE,LONELY,Study2,S,145,110,Study,User,-,,Study/JOL,"Study Phase2",918,,,-1,-1,,,,1
5e75f60ae9644415b9b3669a,ffgwjlayu0,Nick_Dissertation_EX1,1,239,2020-07-08T14:58:33-07:00,1.4191279411316,1,versionA_stim.csv,READVersionA.csv,"Read Version A","Dissertation, read only version A",MEAT,OBTAIN,Study2,U,161,111,Study,User,-,,Study/JOL,"Study Phase2",898,,,-1,-1,,,,1
5e75f60ae9644415b9b3669a,ffgwjlayu0,Nick_Dissertation_EX1,1,240,2020-07-08T14:58:35-07:00,1.4041569232941,1,versionA_stim.csv,READVersionA.csv,"Read Version A","Dissertation, read only version A",SHEARS,SCISSORS,Study2,F,112,98,Study,User,-,,Study/JOL,"Study Phase2",853,,,-1,-1,,,,1
5e75f60ae9644415b9b3669a,ffgwjlayu0,Nick_Dissertation_EX1,1,241,2020-07-08T14:58:36-07:00,1.1153321266174,1,versionA_stim.csv,READVersionA.csv,"Read Version A","Dissertation, read only version A",JUSTICE,MAROON,Study2,U,156,109,Study,User,-,,Study/JOL,"Study Phase2",555,,,-1,-1,,,,1
5e75f60ae9644415b9b3669a,ffgwjlayu0,Nick_Dissertation_EX1,1,242,2020-07-08T14:58:37-07:00,1.3358249664307,1,versionA_stim.csv,READVersionA.csv,"Read Version A","Dissertation, read only version A",FIGHT,BRAWL,Study2,B,135,134,Study,User,-,,Study/JOL,"Study Phase2",746,,,-1,-1,,,,1
5e75f60ae9644415b9b3669a,ffgwjlayu0,Nick_Dissertation_EX1,1,243,2020-07-08T14:58:38-07:00,0.5690450668335,1,versionA_stim.csv,READVersionA.csv,"Read Version A","Dissertation, read only version A",BOTH,OUNCE,Study2,U,172,115,Study,User,-,,Study/JOL,"Study Phase2",40,,,-1,-1,,,,1
5e75f60ae9644415b9b3669a,ffgwjlayu0,Nick_Dissertation_EX1,1,244,2020-07-08T14:58:39-07:00,1.6332979202271,1,versionA_stim.csv,READVersionA.csv,"Read Version A","Dissertation, read only version A",CAR,WINDSHIELD,Study2,B,117,158,Study,User,-,,Study/JOL,"Study Phase2",1011,,,-1,-1,,,,1
5e75f60ae9644415b9b3669a,ffgwjlayu0,Nick_Dissertation_EX1,1,245,2020-07-08T14:58:40-07:00,1.2313549518585,1,versionA_stim.csv,READVersionA.csv,"Read Version A","Dissertation, read only version A",BIRD,PENGUIN,Study2,B,119,152,Study,User,-,,Study/JOL,"Study Phase2",663,,,-1,-1,,,,1
5e75f60ae9644415b9b3669a,ffgwjlayu0,Nick_Dissertation_EX1,1,246,2020-07-08T14:58:42-07:00,1.2061460018158,1,versionA_stim.csv,READVersionA.csv,"Read Version A","Dissertation, read only version A",EVEN,REVENGE,Study2,B,122,114,Study,User,-,,Study/JOL,"Study Phase2",674,,,-1,-1,,,,1
5e75f60ae9644415b9b3669a,ffgwjlayu0,Nick_Dissertation_EX1,1,247,2020-07-08T14:58:43-07:00,1.4130029678345,1,versionA_stim.csv,READVersionA.csv,"Read Version A","Dissertation, read only version A",SUN,TAN,Study2,S,155,164,Study,User,-,,Study/JOL,"Study Phase2",870,,,-1,-1,,,,1
5e75f60ae9644415b9b3669a,ffgwjlayu0,Nick_Dissertation_EX1,1,248,2020-07-08T14:58:44-07:00,1.2315971851349,1,versionA_stim.csv,READVersionA.csv,"Read Version A","Dissertation, read only version A",TRUTH,LIE,Study2,S,148,167,Study,User,-,,Study/JOL,"Study Phase2",686,,,-1,-1,,,,1
5e75f60ae9644415b9b3669a,ffgwjlayu0,Nick_Dissertation_EX1,1,249,2020-07-08T14:58:45-07:00,0.83556079864502,1,versionA_stim.csv,READVersionA.csv,"Read Version A","Dissertation, read only version A",TURN,FLIP,Study2,B,116,156,Study,User,-,,Study/JOL,"Study Phase2",335,,,-1,-1,,,,1
5e75f60ae9644415b9b3669a,ffgwjlayu0,Nick_Dissertation_EX1,1,250,2020-07-08T14:58:46-07:00,0.84048700332642,1,versionA_stim.csv,READVersionA.csv,"Read Version A","Dissertation, read only version A",CHERRY,RED,Study2,F,104,120,Study,User,-,,Study/JOL,"Study Phase2",303,,,-1,-1,,,,1
5e75f60ae9644415b9b3669a,ffgwjlayu0,Nick_Dissertation_EX1,1,251,2020-07-08T14:58:47-07:00,1.0710999965668,1,versionA_stim.csv,READVersionA.csv,"Read Version A","Dissertation, read only version A",STRETCH,CLOTH,Study2,U,157,143,Study,User,-,,Study/JOL,"Study Phase2",467,,,-1,-1,,,,1
5e75f60ae9644415b9b3669a,ffgwjlayu0,Nick_Dissertation_EX1,1,252,2020-07-08T14:58:48-07:00,1.0653331279755,1,versionA_stim.csv,READVersionA.csv,"Read Version A","Dissertation, read only version A",ROD,REEL,Study2,S,150,118,Study,User,-,,Study/JOL,"Study Phase2",430,,,-1,-1,,,,1
5e75f60ae9644415b9b3669a,ffgwjlayu0,Nick_Dissertation_EX1,1,253,2020-07-08T14:58:49-07:00,0.92460989952087,1,versionA_stim.csv,READVersionA.csv,"Read Version A","Dissertation, read only version A",DINE,EAT,Study2,F,111,113,Study,User,-,,Study/JOL,"Study Phase2",327,,,-1,-1,,,,1
5e75f60ae9644415b9b3669a,ffgwjlayu0,Nick_Dissertation_EX1,1,254,2020-07-08T14:58:50-07:00,1.02397108078,1,versionA_stim.csv,READVersionA.csv,"Read Version A","Dissertation, read only version A",LISTEN,FICTION,Study2,U,164,174,Study,User,-,,Study/JOL,"Study Phase2",466,,,-1,-1,,,,1
5e75f60ae9644415b9b3669a,ffgwjlayu0,Nick_Dissertation_EX1,1,255,2020-07-08T14:58:51-07:00,1.0929119586945,1,versionA_stim.csv,READVersionA.csv,"Read Version A","Dissertation, read only version A",MASON,JAR,Study2,S,138,142,Study,User,-,,Study/JOL,"Study Phase2",502,,,-1,-1,,,,1
5e75f60ae9644415b9b3669a,ffgwjlayu0,Nick_Dissertation_EX1,1,256,2020-07-08T14:58:52-07:00,0.90030694007874,1,versionA_stim.csv,READVersionA.csv,"Read Version A","Dissertation, read only version A",DRIVER,CAR,Study2,F,106,132,Study,User,-,,Study/JOL,"Study Phase2",354,,,-1,-1,,,,1
5e75f60ae9644415b9b3669a,ffgwjlayu0,Nick_Dissertation_EX1,1,257,2020-07-08T14:58:54-07:00,2.1919159889221,1,versionA_stim.csv,READVersionA.csv,"Read Version A","Dissertation, read only version A",CAKE,CLOTHES,Study2,U,166,141,Study,User,-,,Study/JOL,"Study Phase2",569,,,-1,-1,,,,1
5e75f60ae9644415b9b3669a,ffgwjlayu0,Nick_Dissertation_EX1,1,258,2020-07-08T14:58:55-07:00,0.59923815727234,1,versionA_stim.csv,READVersionA.csv,"Read Version A","Dissertation, read only version A",FISH,SARDINE,Study2,B,130,144,Study,User,-,,Study/JOL,"Study Phase2",40,,,-1,-1,,,,1
5e75f60ae9644415b9b3669a,ffgwjlayu0,Nick_Dissertation_EX1,1,259,2020-07-08T14:58:55-07:00,0.59298300743103,1,versionA_stim.csv,READVersionA.csv,"Read Version A","Dissertation, read only version A",MULE,DONKEY,Study2,F,108,171,Study,User,-,,Study/JOL,"Study Phase2",43,,,-1,-1,,,,1
5e75f60ae9644415b9b3669a,ffgwjlayu0,Nick_Dissertation_EX1,1,260,2020-07-08T14:58:56-07:00,0.57209396362305,1,versionA_stim.csv,READVersionA.csv,"Read Version A","Dissertation, read only version A",DOCUMENT,PAPER,Study2,F,109,166,Study,User,-,,Study/JOL,"Study Phase2",4,,,-1,-1,,,,1
5e75f60ae9644415b9b3669a,ffgwjlayu0,Nick_Dissertation_EX1,1,261,2020-07-08T14:58:57-07:00,0.55517292022705,1,versionA_stim.csv,READVersionA.csv,"Read Version A","Dissertation, read only version A",SPRING,MARCH,BUFFER4,Buffer,179,177,Study,User,-,,Study/JOL,BUFFER4,84,,,-1,-1,,,,1
5e75f60ae9644415b9b3669a,ffgwjlayu0,Nick_Dissertation_EX1,1,262,2020-07-08T14:58:57-07:00,0.53607511520386,1,versionA_stim.csv,READVersionA.csv,"Read Version A","Dissertation, read only version A",TOOL,SHED,BUFFER4,Buffer,178,181,Study,User,-,,Study/JOL,BUFFER4,21,,,-1,-1,,,,1
5e75f60ae9644415b9b3669a,ffgwjlayu0,Nick_Dissertation_EX1,1,263,2020-07-08T14:58:58-07:00,0.57075095176697,1,versionA_stim.csv,READVersionA.csv,"Read Version A","Dissertation, read only version A",OCTOBER,SPOOKY,BUFFER4,Buffer,180,180,Study,User,-,,Study/JOL,BUFFER4,57,,,-1,-1,,,,1
5e75f60ae9644415b9b3669a,ffgwjlayu0,Nick_Dissertation_EX1,1,264,2020-07-08T14:58:58-07:00,0.68058204650879,1,versionA_stim.csv,READVersionA.csv,"Read Version A","Dissertation, read only version A",MONTH,YEAR,BUFFER4,Buffer,177,178,Study,User,-,,Study/JOL,BUFFER4,73,,,-1,-1,,,,1
5e75f60ae9644415b9b3669a,ffgwjlayu0,Nick_Dissertation_EX1,1,265,2020-07-08T14:58:59-07:00,0.61162185668945,1,versionA_stim.csv,READVersionA.csv,"Read Version A","Dissertation, read only version A",DAYS,WEAKS,BUFFER4,Buffer,176,179,Study,User,-,,Study/JOL,BUFFER4,33,,,-1,-1,,,,1
5e75f60ae9644415b9b3669a,ffgwjlayu0,Nick_Dissertation_EX1,1,266,2020-07-08T14:59:00-07:00,0.71272802352905,1,versionA_stim.csv,READVersionA.csv,"Read Version A","Dissertation, read only version A",,,,,,0,Instruct,User,-,"You have completed this section. Please press Enter.",Filler_Instruction,Instruct5,62,,,-1,-1,,,,1
5e75f60ae9644415b9b3669a,ffgwjlayu0,Nick_Dissertation_EX1,1,267,2020-07-08T15:01:01-07:00,120.95498609543,1,versionA_stim.csv,READVersionA.csv,"Read Version A","Dissertation, read only version A",,,,,,0,FreeRecall,120,120,"Please list the 50 US states in reverse alphabetical order (z - a). The task will automatically advance to the next screen after two minutes.",,Filler2,120002,"Wyoming Wisconsin West Virginia Washington Vermont Utah Ohio Nebraska Missouri Minnesota",0,99840,99840,0,0,,0.68
5e75f60ae9644415b9b3669a,ffgwjlayu0,Nick_Dissertation_EX1,1,268,2020-07-08T15:02:37-07:00,96.749305009842,1,versionA_stim.csv,READVersionA.csv,"Read Version A","Dissertation, read only version A",,,,,,0,Instruct,-,10,"You will now be presented with the first word from each of the previously studied item pairs. Please type the missing word. If you do not know the word, you may guess or press Enter to skip forward to the next pair.",,Instruct6,95763,,,-1,-1,,,,0.518
5e75f60ae9644415b9b3669a,ffgwjlayu0,Nick_Dissertation_EX1,1,269,2020-07-08T15:02:44-07:00,6.6869759559631,1,versionA_stim.csv,READVersionA.csv,"Read Version A","Dissertation, read only version A",RAZOR,SHAVE,Study2,S,136,107,Test,User,-,,Recall,Recall2,5931,blade,40,1982,5064,0,0,,1
5e75f60ae9644415b9b3669a,ffgwjlayu0,Nick_Dissertation_EX1,1,270,2020-07-08T15:02:48-07:00,4.2511370182037,1,versionA_stim.csv,READVersionA.csv,"Read Version A","Dissertation, read only version A",STAR,ACTRESS,Study2,B,120,173,Test,User,-,,Recall,Recall2,3692,shine,16.666666666667,2062,3350,0,0,,1
5e75f60ae9644415b9b3669a,ffgwjlayu0,Nick_Dissertation_EX1,1,271,2020-07-08T15:02:53-07:00,4.3135809898376,1,versionA_stim.csv,READVersionA.csv,"Read Version A","Dissertation, read only version A",CAT,PANTHER,Study2,B,126,150,Test,User,-,,Recall,Recall2,3740,dog,0,2365,3241,0,0,,1
5e75f60ae9644415b9b3669a,ffgwjlayu0,Nick_Dissertation_EX1,1,272,2020-07-08T15:02:57-07:00,4.7911989688873,1,versionA_stim.csv,READVersionA.csv,"Read Version A","Dissertation, read only version A",FURRY,DOG,Study2,F,102,101,Test,User,-,,Recall,Recall2,4234,animal,0,1993,3787,0,0,,1
5e75f60ae9644415b9b3669a,ffgwjlayu0,Nick_Dissertation_EX1,1,273,2020-07-08T15:03:08-07:00,10.630064964294,1,versionA_stim.csv,READVersionA.csv,"Read Version A","Dissertation, read only version A",WRIST,BRACELET,Study2,S,140,138,Test,User,-,,Recall,Recall2,9950,"bracelet ",100,1652,9247,1,1,,1
5e75f60ae9644415b9b3669a,ffgwjlayu0,Nick_Dissertation_EX1,1,274,2020-07-08T15:03:13-07:00,4.821494102478,1,versionA_stim.csv,READVersionA.csv,"Read Version A","Dissertation, read only version A",EARTH,GROUND,Study2,S,144,153,Test,User,-,,Recall,Recall2,4226,ground,100,1833,3573,1,1,,1
5e75f60ae9644415b9b3669a,ffgwjlayu0,Nick_Dissertation_EX1,1,275,2020-07-08T15:03:17-07:00,4.1830558776855,1,versionA_stim.csv,READVersionA.csv,"Read Version A","Dissertation, read only version A",ELEMENT,CARBON,Study2,S,141,119,Test,User,-,,Recall,Recall2,3602,carbon,100,1409,2933,1,1,,1
5e75f60ae9644415b9b3669a,ffgwjlayu0,Nick_Dissertation_EX1,1,276,2020-07-08T15:03:22-07:00,4.4173431396484,1,versionA_stim.csv,READVersionA.csv,"Read Version A","Dissertation, read only version A",LOAN,SIGN,Study2,U,171,121,Test,User,-,,Recall,Recall2,3818,cash,25,2451,3210,0,0,,1
5e75f60ae9644415b9b3669a,ffgwjlayu0,Nick_Dissertation_EX1,1,277,2020-07-08T15:03:28-07:00,6.8639559745789,1,versionA_stim.csv,READVersionA.csv,"Read Version A","Dissertation, read only version A",DETECTIVE,MYSTERY,Study2,F,100,125,Test,User,-,,Recall,Recall2,6350,mystery,100,1984,5264,1,1,,1
5e75f60ae9644415b9b3669a,ffgwjlayu0,Nick_Dissertation_EX1,1,278,2020-07-08T15:03:33-07:00,4.3933219909668,1,versionA_stim.csv,READVersionA.csv,"Read Version A","Dissertation, read only version A",SAFETY,SEATBELT,Study2,S,147,130,Test,User,-,,Recall,Recall2,3867,belt,66.666666666667,2285,3380,0,0,,1
5e75f60ae9644415b9b3669a,ffgwjlayu0,Nick_Dissertation_EX1,1,279,2020-07-08T15:03:37-07:00,4.428407907486,1,versionA_stim.csv,READVersionA.csv,"Read Version A","Dissertation, read only version A",LOUD,NOISE,Study2,S,152,105,Test,User,-,,Recall,Recall2,3865,noise,100,2028,3158,1,1,,1
5e75f60ae9644415b9b3669a,ffgwjlayu0,Nick_Dissertation_EX1,1,280,2020-07-08T15:03:40-07:00,2.9695250988007,1,versionA_stim.csv,READVersionA.csv,"Read Version A","Dissertation, read only version A",MASON,JAR,Study2,S,138,142,Test,User,-,,Recall,Recall2,2377,,0,-1,-1,0,0,,1
5e75f60ae9644415b9b3669a,ffgwjlayu0,Nick_Dissertation_EX1,1,281,2020-07-08T15:03:48-07:00,7.6321160793304,1,versionA_stim.csv,READVersionA.csv,"Read Version A","Dissertation, read only version A",MAIN,SCAR,Study2,U,175,108,Test,User,-,,Recall,Recall2,7040,driver,20,3529,6353,0,0,,1
5e75f60ae9644415b9b3669a,ffgwjlayu0,Nick_Dissertation_EX1,1,282,2020-07-08T15:03:53-07:00,5.1675698757172,1,versionA_stim.csv,READVersionA.csv,"Read Version A","Dissertation, read only version A",CHERRY,RED,Study2,F,104,120,Test,User,-,,Recall,Recall2,4549,topping,0,2279,3922,0,0,,1
5e75f60ae9644415b9b3669a,ffgwjlayu0,Nick_Dissertation_EX1,1,283,2020-07-08T15:03:58-07:00,4.5511450767517,1,versionA_stim.csv,READVersionA.csv,"Read Version A","Dissertation, read only version A",DRIVER,CAR,Study2,F,106,132,Test,User,-,,Recall,Recall2,4028,car,100,2515,3272,1,1,,1
5e75f60ae9644415b9b3669a,ffgwjlayu0,Nick_Dissertation_EX1,1,284,2020-07-08T15:04:01-07:00,3.452780008316,1,versionA_stim.csv,READVersionA.csv,"Read Version A","Dissertation, read only version A",BASEBALL,LEAGUE,Study2,B,131,124,Test,User,-,,Recall,Recall2,2873,cap,22.222222222222,1174,2214,0,0,,1
5e75f60ae9644415b9b3669a,ffgwjlayu0,Nick_Dissertation_EX1,1,285,2020-07-08T15:04:05-07:00,4.4279940128326,1,versionA_stim.csv,READVersionA.csv,"Read Version A","Dissertation, read only version A",EVEN,REVENGE,Study2,B,122,114,Test,User,-,,Recall,Recall2,3866,number,30.769230769231,1770,3215,0,0,,1
5e75f60ae9644415b9b3669a,ffgwjlayu0,Nick_Dissertation_EX1,1,286,2020-07-08T15:04:25-07:00,19.850183963776,1,versionA_stim.csv,READVersionA.csv,"Read Version A","Dissertation, read only version A",LEASE,TOIL,Study2,U,170,126,Test,User,-,,Recall,Recall2,19275,loan,25,17413,18530,0,0,,1
5e75f60ae9644415b9b3669a,ffgwjlayu0,Nick_Dissertation_EX1,1,287,2020-07-08T15:04:29-07:00,3.5768749713898,1,versionA_stim.csv,READVersionA.csv,"Read Version A","Dissertation, read only version A",AFFECTION,LOVE,Study2,F,115,172,Test,User,-,,Recall,Recall2,2831,love,100,1669,2461,1,1,,1
5e75f60ae9644415b9b3669a,ffgwjlayu0,Nick_Dissertation_EX1,1,288,2020-07-08T15:04:50-07:00,21.242639064789,1,versionA_stim.csv,READVersionA.csv,"Read Version A","Dissertation, read only version A",Shell,SHAKE,Study2,U,163,104,Test,User,-,,Recall,Recall2,20533,sea,50,19475,19812,0,0,,1
5e75f60ae9644415b9b3669a,ffgwjlayu0,Nick_Dissertation_EX1,1,289,2020-07-08T15:04:54-07:00,4.38782787323,1,versionA_stim.csv,READVersionA.csv,"Read Version A","Dissertation, read only version A",OWN,HAVE,Study2,S,153,155,Test,User,-,,Recall,Recall2,3572,my,0,2678,3200,0,0,,1
5e75f60ae9644415b9b3669a,ffgwjlayu0,Nick_Dissertation_EX1,1,290,2020-07-08T15:05:01-07:00,6.4044561386108,1,versionA_stim.csv,READVersionA.csv,"Read Version A","Dissertation, read only version A",SLEEP,NAP,Study2,B,134,102,Test,User,-,,Recall,Recall2,5831,night,25,4415,5176,0,0,,1
5e75f60ae9644415b9b3669a,ffgwjlayu0,Nick_Dissertation_EX1,1,291,2020-07-08T15:05:06-07:00,5.6016340255737,1,versionA_stim.csv,READVersionA.csv,"Read Version A","Dissertation, read only version A",MAZE,ELECTION,Study2,U,159,165,Test,User,-,,Recall,Recall2,5033,hidden,28.571428571429,2436,4380,0,0,,1
5e75f60ae9644415b9b3669a,ffgwjlayu0,Nick_Dissertation_EX1,1,292,2020-07-08T15:05:12-07:00,5.9787168502808,1,versionA_stim.csv,READVersionA.csv,"Read Version A","Dissertation, read only version A",GLASS,BREAKABLE,Study2,B,127,154,Test,User,-,,Recall,Recall2,5386,screen,40,3296,4805,0,0,,1
5e75f60ae9644415b9b3669a,ffgwjlayu0,Nick_Dissertation_EX1,1,293,2020-07-08T15:05:19-07:00,6.3436901569366,1,versionA_stim.csv,READVersionA.csv,"Read Version A","Dissertation, read only version A",ADJOURN,END,Study2,F,101,161,Test,User,-,,Recall,Recall2,5632,court,0,2630,4954,0,0,,1
5e75f60ae9644415b9b3669a,ffgwjlayu0,Nick_Dissertation_EX1,1,294,2020-07-08T15:05:23-07:00,3.8043808937073,1,versionA_stim.csv,READVersionA.csv,"Read Version A","Dissertation, read only version A",CRACKLE,ABLE,Study2,U,162,146,Test,User,-,,Recall,Recall2,3248,pop,0,2511,2793,0,0,,1
5e75f60ae9644415b9b3669a,ffgwjlayu0,Nick_Dissertation_EX1,1,295,2020-07-08T15:05:27-07:00,4.4641680717468,1,versionA_stim.csv,READVersionA.csv,"Read Version A","Dissertation, read only version A",NAME,HATE,Study2,U,167,97,Test,User,-,,Recall,Recall2,3886,age,57.142857142857,1996,3002,0,0,,1
5e75f60ae9644415b9b3669a,ffgwjlayu0,Nick_Dissertation_EX1,1,296,2020-07-08T15:05:38-07:00,10.766685962677,1,versionA_stim.csv,READVersionA.csv,"Read Version A","Dissertation, read only version A",BAD,VILLAIN,Study2,B,118,151,Test,User,-,,Recall,Recall2,10006,evil,54.545454545455,7574,8828,0,0,,1
5e75f60ae9644415b9b3669a,ffgwjlayu0,Nick_Dissertation_EX1,1,297,2020-07-08T15:06:06-07:00,28.330774068832,1,versionA_stim.csv,READVersionA.csv,"Read Version A","Dissertation, read only version A",INCENSE,SMELL,Study2,F,110,162,Test,User,-,,Recall,Recall2,27444,smell,100,26671,27204,1,1,,1
5e75f60ae9644415b9b3669a,ffgwjlayu0,Nick_Dissertation_EX1,1,298,2020-07-08T15:06:10-07:00,4.1343638896942,1,versionA_stim.csv,READVersionA.csv,"Read Version A","Dissertation, read only version A",TRUTH,LIE,Study2,S,148,167,Test,User,-,,Recall,Recall2,3345,lie,100,2056,2797,1,1,,1
5e75f60ae9644415b9b3669a,ffgwjlayu0,Nick_Dissertation_EX1,1,299,2020-07-08T15:06:16-07:00,5.2801659107208,1,versionA_stim.csv,READVersionA.csv,"Read Version A","Dissertation, read only version A",SUN,TAN,Study2,S,155,164,Test,User,-,,Recall,Recall2,4631,shine,25,2345,4092,0,0,,1
5e75f60ae9644415b9b3669a,ffgwjlayu0,Nick_Dissertation_EX1,1,300,2020-07-08T15:06:19-07:00,3.7076470851898,1,versionA_stim.csv,READVersionA.csv,"Read Version A","Dissertation, read only version A",VEHICLE,CHARM,Study2,U,160,137,Test,User,-,,Recall,Recall2,3052,car,75,2046,2417,0,1,,1
5e75f60ae9644415b9b3669a,ffgwjlayu0,Nick_Dissertation_EX1,1,301,2020-07-08T15:06:28-07:00,8.6757318973541,1,versionA_stim.csv,READVersionA.csv,"Read Version A","Dissertation, read only version A",DINE,EAT,Study2,F,111,113,Test,User,-,,Recall,Recall2,8107,food,0,5621,7710,0,0,,1
5e75f60ae9644415b9b3669a,ffgwjlayu0,Nick_Dissertation_EX1,1,302,2020-07-08T15:06:31-07:00,3.046257019043,1,versionA_stim.csv,READVersionA.csv,"Read Version A","Dissertation, read only version A",CAR,WINDSHIELD,Study2,B,117,158,Test,User,-,,Recall,Recall2,2499,screen,25,1489,2288,0,0,,1
5e75f60ae9644415b9b3669a,ffgwjlayu0,Nick_Dissertation_EX1,1,303,2020-07-08T15:06:36-07:00,4.5669691562653,1,versionA_stim.csv,READVersionA.csv,"Read Version A","Dissertation, read only version A",CHOP,CUT,Study2,F,107,127,Test,User,-,,Recall,Recall2,3935,knife,0,2224,3798,0,0,,1
5e75f60ae9644415b9b3669a,ffgwjlayu0,Nick_Dissertation_EX1,1,304,2020-07-08T15:06:39-07:00,3.1198618412018,1,versionA_stim.csv,READVersionA.csv,"Read Version A","Dissertation, read only version A",PHONE,COMMUNICATION,Study2,S,149,160,Test,User,-,,Recall,Recall2,2573,book,23.529411764706,1883,2325,0,0,,1
5e75f60ae9644415b9b3669a,ffgwjlayu0,Nick_Dissertation_EX1,1,305,2020-07-08T15:06:42-07:00,3.557272195816,1,versionA_stim.csv,READVersionA.csv,"Read Version A","Dissertation, read only version A",THREAD,THIMBLE,Study2,B,121,128,Test,User,-,,Recall,Recall2,2949,needle,30.769230769231,1357,2795,0,0,,1
5e75f60ae9644415b9b3669a,ffgwjlayu0,Nick_Dissertation_EX1,1,306,2020-07-08T15:06:46-07:00,3.2812349796295,1,versionA_stim.csv,READVersionA.csv,"Read Version A","Dissertation, read only version A",TEMPERATURE,Morning,Study2,U,173,145,Test,User,-,,Recall,Recall2,2697,hot,20,1219,2560,0,0,,1
5e75f60ae9644415b9b3669a,ffgwjlayu0,Nick_Dissertation_EX1,1,307,2020-07-08T15:06:48-07:00,2.1908869743347,1,versionA_stim.csv,READVersionA.csv,"Read Version A","Dissertation, read only version A",CANDLE,WAX,Study2,S,139,149,Test,User,-,,Recall,Recall2,1656,wax,100,1177,1563,1,1,,1
5e75f60ae9644415b9b3669a,ffgwjlayu0,Nick_Dissertation_EX1,1,308,2020-07-08T15:06:51-07:00,3.7444808483124,1,versionA_stim.csv,READVersionA.csv,"Read Version A","Dissertation, read only version A",MIRROR,CHILDREN,Study2,U,174,103,Test,User,-,,Recall,Recall2,3145,childeren,94.117647058824,1628,2892,0,1,,1
5e75f60ae9644415b9b3669a,ffgwjlayu0,Nick_Dissertation_EX1,1,309,2020-07-08T15:06:54-07:00,2.6120290756226,1,versionA_stim.csv,READVersionA.csv,"Read Version A","Dissertation, read only version A",FUZZY,BANG,Study2,U,168,123,Test,User,-,,Recall,Recall2,2033,cat,28.571428571429,1534,1859,0,0,,1
5e75f60ae9644415b9b3669a,ffgwjlayu0,Nick_Dissertation_EX1,1,310,2020-07-08T15:06:58-07:00,3.5812690258026,1,versionA_stim.csv,READVersionA.csv,"Read Version A","Dissertation, read only version A",MULE,DONKEY,Study2,F,108,171,Test,User,-,,Recall,Recall2,2998,donkey,100,1548,2838,1,1,,1
5e75f60ae9644415b9b3669a,ffgwjlayu0,Nick_Dissertation_EX1,1,311,2020-07-08T15:07:01-07:00,3.7816729545593,1,versionA_stim.csv,READVersionA.csv,"Read Version A","Dissertation, read only version A",DOCUMENT,PAPER,Study2,F,109,166,Test,User,-,,Recall,Recall2,3176,word,22.222222222222,2572,3121,0,0,,1
5e75f60ae9644415b9b3669a,ffgwjlayu0,Nick_Dissertation_EX1,1,312,2020-07-08T15:07:06-07:00,4.0943229198456,1,versionA_stim.csv,READVersionA.csv,"Read Version A","Dissertation, read only version A",LISTEN,FICTION,Study2,U,164,174,Test,User,-,,Recall,Recall2,3475,ear,0,2669,3292,0,0,,1
5e75f60ae9644415b9b3669a,ffgwjlayu0,Nick_Dissertation_EX1,1,313,2020-07-08T15:07:20-07:00,14.960498094559,1,versionA_stim.csv,READVersionA.csv,"Read Version A","Dissertation, read only version A",BEST,FAVORITE,Study2,B,125,163,Test,User,-,,Recall,Recall2,14367,worst,46.153846153846,13529,14277,0,0,,1
5e75f60ae9644415b9b3669a,ffgwjlayu0,Nick_Dissertation_EX1,1,314,2020-07-08T15:07:28-07:00,7.2934339046478,1,versionA_stim.csv,READVersionA.csv,"Read Version A","Dissertation, read only version A",CLUE,GAME,Study2,F,97,148,Test,User,-,,Recall,Recall2,5447,less,25,3775,4429,0,0,,1
5e75f60ae9644415b9b3669a,ffgwjlayu0,Nick_Dissertation_EX1,1,315,2020-07-08T15:07:33-07:00,4.9305310249329,1,versionA_stim.csv,READVersionA.csv,"Read Version A","Dissertation, read only version A",MOAT,CLEAR,Study2,U,169,106,Test,User,-,,Recall,Recall2,4261,river,20,3138,4112,0,0,,1
5e75f60ae9644415b9b3669a,ffgwjlayu0,Nick_Dissertation_EX1,1,316,2020-07-08T15:07:35-07:00,2.71147108078,1,versionA_stim.csv,READVersionA.csv,"Read Version A","Dissertation, read only version A",BIRD,PENGUIN,Study2,B,119,152,Test,User,-,,Recall,Recall2,2172,watch,0,1186,1954,0,0,,1
5e75f60ae9644415b9b3669a,ffgwjlayu0,Nick_Dissertation_EX1,1,317,2020-07-08T15:07:39-07:00,3.3839979171753,1,versionA_stim.csv,READVersionA.csv,"Read Version A","Dissertation, read only version A",EXTENSION,LONG,Study2,F,96,122,Test,User,-,,Recall,Recall2,2857,hair,0,2056,2701,0,0,,1
5e75f60ae9644415b9b3669a,ffgwjlayu0,Nick_Dissertation_EX1,1,318,2020-07-08T15:07:52-07:00,12.867511034012,1,versionA_stim.csv,READVersionA.csv,"Read Version A","Dissertation, read only version A",STRETCH,CLOTH,Study2,U,157,143,Test,User,-,,Recall,Recall2,12173,long,44.444444444444,10247,12045,0,0,,1
5e75f60ae9644415b9b3669a,ffgwjlayu0,Nick_Dissertation_EX1,1,319,2020-07-08T15:07:55-07:00,2.9069931507111,1,versionA_stim.csv,READVersionA.csv,"Read Version A","Dissertation, read only version A",RIGHTS,EQUAL,Study2,S,137,112,Test,User,-,,Recall,Recall2,2139,legal,60,1280,1868,0,0,,1
5e75f60ae9644415b9b3669a,ffgwjlayu0,Nick_Dissertation_EX1,1,320,2020-07-08T15:07:59-07:00,4.331228017807,1,versionA_stim.csv,READVersionA.csv,"Read Version A","Dissertation, read only version A",FEUD,FIGHT,Study2,F,113,99,Test,User,-,,Recall,Recall2,3563,argument,30.769230769231,1835,3263,0,0,,1
5e75f60ae9644415b9b3669a,ffgwjlayu0,Nick_Dissertation_EX1,1,321,2020-07-08T15:08:08-07:00,8.8468358516693,1,versionA_stim.csv,READVersionA.csv,"Read Version A","Dissertation, read only version A",PLANE,AIRCRAFT,Study2,B,129,159,Test,User,-,,Recall,Recall2,8264,pilot,30.769230769231,1341,8082,0,0,,1
5e75f60ae9644415b9b3669a,ffgwjlayu0,Nick_Dissertation_EX1,1,322,2020-07-08T15:08:11-07:00,3.3976850509644,1,versionA_stim.csv,READVersionA.csv,"Read Version A","Dissertation, read only version A",GIVE,STEAK,Study2,U,158,135,Test,User,-,,Recall,Recall2,2796,tke,50,2391,2674,0,0,,1
5e75f60ae9644415b9b3669a,ffgwjlayu0,Nick_Dissertation_EX1,1,323,2020-07-08T15:08:14-07:00,2.3880488872528,1,versionA_stim.csv,READVersionA.csv,"Read Version A","Dissertation, read only version A",CACTUS,PLANT,Study2,F,98,136,Test,User,-,,Recall,Recall2,1818,plant,100,1130,1630,1,1,,1
5e75f60ae9644415b9b3669a,ffgwjlayu0,Nick_Dissertation_EX1,1,324,2020-07-08T15:08:18-07:00,4.6307730674744,1,versionA_stim.csv,READVersionA.csv,"Read Version A","Dissertation, read only version A",CAKE,CLOTHES,Study2,U,166,141,Test,User,-,,Recall,Recall2,3964,suga,18.181818181818,3117,3704,0,0,,1
5e75f60ae9644415b9b3669a,ffgwjlayu0,Nick_Dissertation_EX1,1,325,2020-07-08T15:08:22-07:00,3.5944781303406,1,versionA_stim.csv,READVersionA.csv,"Read Version A","Dissertation, read only version A",TANTRUM,TEMPER,Study2,S,154,147,Test,User,-,,Recall,Recall2,3000,anger,36.363636363636,1837,2895,0,0,,1
5e75f60ae9644415b9b3669a,ffgwjlayu0,Nick_Dissertation_EX1,1,326,2020-07-08T15:08:24-07:00,2.6191968917847,1,versionA_stim.csv,READVersionA.csv,"Read Version A","Dissertation, read only version A",BOTH,OUNCE,Study2,U,172,115,Test,User,-,,Recall,Recall2,2061,smae,22.222222222222,1571,1899,0,0,,1
5e75f60ae9644415b9b3669a,ffgwjlayu0,Nick_Dissertation_EX1,1,327,2020-07-08T15:08:30-07:00,5.4315469264984,1,versionA_stim.csv,READVersionA.csv,"Read Version A","Dissertation, read only version A",SHOELACE,TIE,Study2,F,99,129,Test,User,-,,Recall,Recall2,3800,tie,100,2842,3310,1,1,,1
5e75f60ae9644415b9b3669a,ffgwjlayu0,Nick_Dissertation_EX1,1,328,2020-07-08T15:08:35-07:00,5.0758039951324,1,versionA_stim.csv,READVersionA.csv,"Read Version A","Dissertation, read only version A",GONE,AWAY,Study2,S,142,176,Test,User,-,,Recall,Recall2,4418,disapper,16.666666666667,1563,3735,0,0,,1
5e75f60ae9644415b9b3669a,ffgwjlayu0,Nick_Dissertation_EX1,1,329,2020-07-08T15:08:38-07:00,2.8225710391998,1,versionA_stim.csv,READVersionA.csv,"Read Version A","Dissertation, read only version A",JUSTICE,MAROON,Study2,U,156,109,Test,User,-,,Recall,Recall2,2079,law,22.222222222222,1304,1902,0,0,,1
5e75f60ae9644415b9b3669a,ffgwjlayu0,Nick_Dissertation_EX1,1,330,2020-07-08T15:08:41-07:00,3.0949130058289,1,versionA_stim.csv,READVersionA.csv,"Read Version A","Dissertation, read only version A",HONEST,TRUTHFUL,Study2,B,133,168,Test,User,-,,Recall,Recall2,2515,truth,76.923076923077,1738,2254,0,1,,1
5e75f60ae9644415b9b3669a,ffgwjlayu0,Nick_Dissertation_EX1,1,331,2020-07-08T15:08:44-07:00,3.1773221492767,1,versionA_stim.csv,READVersionA.csv,"Read Version A","Dissertation, read only version A",CHILL,COLD,Study2,F,114,157,Test,User,-,,Recall,Recall2,1604,cold,100,1050,1466,1,1,,1
5e75f60ae9644415b9b3669a,ffgwjlayu0,Nick_Dissertation_EX1,1,332,2020-07-08T15:08:48-07:00,3.6290469169617,1,versionA_stim.csv,READVersionA.csv,"Read Version A","Dissertation, read only version A",SCALP,HEAD,Study2,F,105,131,Test,User,-,,Recall,Recall2,2934,head,100,1088,2516,1,1,,1
5e75f60ae9644415b9b3669a,ffgwjlayu0,Nick_Dissertation_EX1,1,333,2020-07-08T15:08:51-07:00,3.5369739532471,1,versionA_stim.csv,READVersionA.csv,"Read Version A","Dissertation, read only version A",DRY,WET,Study2,S,146,169,Test,User,-,,Recall,Recall2,2869,wet,100,2418,2737,1,1,,1
5e75f60ae9644415b9b3669a,ffgwjlayu0,Nick_Dissertation_EX1,1,334,2020-07-08T15:08:55-07:00,3.9255549907684,1,versionA_stim.csv,READVersionA.csv,"Read Version A","Dissertation, read only version A",ALONE,LONELY,Study2,S,145,110,Test,User,-,,Recall,Recall2,3361,lonley,83.333333333333,1157,2983,0,1,,1
5e75f60ae9644415b9b3669a,ffgwjlayu0,Nick_Dissertation_EX1,1,335,2020-07-08T15:08:58-07:00,3.1011569499969,1,versionA_stim.csv,READVersionA.csv,"Read Version A","Dissertation, read only version A",POP,BALLOON,Study2,B,123,140,Test,User,-,,Recall,Recall2,2562,fuzz,0,1432,2417,0,0,,1
5e75f60ae9644415b9b3669a,ffgwjlayu0,Nick_Dissertation_EX1,1,336,2020-07-08T15:09:01-07:00,2.5255000591278,1,versionA_stim.csv,READVersionA.csv,"Read Version A","Dissertation, read only version A",LITTER,TRASH,Study2,F,103,175,Test,User,-,,Recall,Recall2,1897,bin,0,1289,1630,0,0,,1
5e75f60ae9644415b9b3669a,ffgwjlayu0,Nick_Dissertation_EX1,1,337,2020-07-08T15:09:05-07:00,4.2171199321747,1,versionA_stim.csv,READVersionA.csv,"Read Version A","Dissertation, read only version A",SHEARS,SCISSORS,Study2,F,112,98,Test,User,-,,Recall,Recall2,3628,cut,18.181818181818,3153,3472,0,0,,1
5e75f60ae9644415b9b3669a,ffgwjlayu0,Nick_Dissertation_EX1,1,338,2020-07-08T15:09:09-07:00,4.4532999992371,1,versionA_stim.csv,READVersionA.csv,"Read Version A","Dissertation, read only version A",FRUIT,STRAWBERRY,Study2,B,124,170,Test,User,-,,Recall,Recall2,3883,juice,13.333333333333,2290,3728,0,0,,1
5e75f60ae9644415b9b3669a,ffgwjlayu0,Nick_Dissertation_EX1,1,339,2020-07-08T15:09:12-07:00,2.5308392047882,1,versionA_stim.csv,READVersionA.csv,"Read Version A","Dissertation, read only version A",ROD,REEL,Study2,S,150,118,Test,User,-,,Recall,Recall2,1905,fish,0,1321,1657,0,0,,1
5e75f60ae9644415b9b3669a,ffgwjlayu0,Nick_Dissertation_EX1,1,340,2020-07-08T15:09:16-07:00,4.0291368961334,1,versionA_stim.csv,READVersionA.csv,"Read Version A","Dissertation, read only version A",MEAT,OBTAIN,Study2,U,161,111,Test,User,-,,Recall,Recall2,3469,cow,22.222222222222,2896,3337,0,0,,1
5e75f60ae9644415b9b3669a,ffgwjlayu0,Nick_Dissertation_EX1,1,341,2020-07-08T15:09:19-07:00,2.6494879722595,1,versionA_stim.csv,READVersionA.csv,"Read Version A","Dissertation, read only version A",WATER,DRINK,Study2,S,143,133,Test,User,-,,Recall,Recall2,2010,drink,100,1097,1697,1,1,,1
5e75f60ae9644415b9b3669a,ffgwjlayu0,Nick_Dissertation_EX1,1,342,2020-07-08T15:09:21-07:00,2.5543899536133,1,versionA_stim.csv,READVersionA.csv,"Read Version A","Dissertation, read only version A",TURN,FLIP,Study2,B,116,156,Test,User,-,,Recall,Recall2,1978,table,22.222222222222,1146,1732,0,0,,1
5e75f60ae9644415b9b3669a,ffgwjlayu0,Nick_Dissertation_EX1,1,343,2020-07-08T15:09:24-07:00,3.1364359855652,1,versionA_stim.csv,READVersionA.csv,"Read Version A","Dissertation, read only version A",DEAD,COFFIN,Study2,B,128,116,Test,User,-,,Recall,Recall2,2596,coffin,100,1590,2291,1,1,,1
5e75f60ae9644415b9b3669a,ffgwjlayu0,Nick_Dissertation_EX1,1,344,2020-07-08T15:09:28-07:00,4.00537109375,1,versionA_stim.csv,READVersionA.csv,"Read Version A","Dissertation, read only version A",MONEY,BANKER,Study2,B,132,100,Test,User,-,,Recall,Recall2,3435,buy,22.222222222222,1778,3198,0,0,,1
5e75f60ae9644415b9b3669a,ffgwjlayu0,Nick_Dissertation_EX1,1,345,2020-07-08T15:09:32-07:00,3.549654006958,1,versionA_stim.csv,READVersionA.csv,"Read Version A","Dissertation, read only version A",KEYS,JOKE,Study2,U,165,139,Test,User,-,,Recall,Recall2,2873,lock,50,1607,2671,0,0,,1
5e75f60ae9644415b9b3669a,ffgwjlayu0,Nick_Dissertation_EX1,1,346,2020-07-08T15:09:34-07:00,2.3636190891266,1,versionA_stim.csv,READVersionA.csv,"Read Version A","Dissertation, read only version A",FLEA,TICK,Study2,S,151,117,Test,User,-,,Recall,Recall2,1800,tick,100,1092,1476,1,1,,1
5e75f60ae9644415b9b3669a,ffgwjlayu0,Nick_Dissertation_EX1,1,347,2020-07-08T15:09:38-07:00,4.0477869510651,1,versionA_stim.csv,READVersionA.csv,"Read Version A","Dissertation, read only version A",FISH,SARDINE,Study2,B,130,144,Test,User,-,,Recall,Recall2,3345,catch,16.666666666667,2069,3108,0,0,,1
