Username,ID,ExperimentName,Session,Trial,Date,TimeDif,"Condition Number","Stimuli File","Order File","Condition Description","Condition Notes",Stimuli*Cue,Stimuli*Answer,Stimuli*Shuffle,"Stimuli*Stimuli Notes",Stimuli*Value,Procedure*Item,"Procedure*Trial Type","Procedure*Max Time","Procedure*Min Time",Procedure*Text,"Procedure*Procedure Notes",Procedure*Shuffle,Response*RT,Response*Response,Response*Accuracy,Response*RTfirst,Response*RTlast,Response*strictAcc,Response*lenientAcc,Response*focus,Response*Focus
5ee0ea4b6f43d80a4e57435d,9jbfbgmx05,Nick_Dissertation_EX1,1,1,2020-07-08T14:47:01-07:00,10.523440122604,3,versionC_stim.csv,READVersionC.csv,"Read Version C","Dissertation, read only version C",,,,,,0,Instruct,-,10,"Please study each of the following word pairs. Remember that your memory will be tested! When finished, press Enter to move to the next pair.",Initial_Instruct,Instruct1,10296,,,-1,-1,,,,1
5ee0ea4b6f43d80a4e57435d,9jbfbgmx05,Nick_Dissertation_EX1,1,2,2020-07-08T14:47:21-07:00,19.644157886505,3,versionC_stim.csv,READVersionC.csv,"Read Version C","Dissertation, read only version C",JAM,SPACE,BUFFER1,Buffer,5,6,Study,User,-,,Study/JOL,BUFFER,1876,,,-1,-1,,,,1
5ee0ea4b6f43d80a4e57435d,9jbfbgmx05,Nick_Dissertation_EX1,1,3,2020-07-08T14:47:55-07:00,34.547698974609,3,versionC_stim.csv,READVersionC.csv,"Read Version C","Dissertation, read only version C",BUTTER,PEANUT,BUFFER1,Buffer,3,3,Study,User,-,,Study/JOL,BUFFER,1870,,,-1,-1,,,,1
5ee0ea4b6f43d80a4e57435d,9jbfbgmx05,Nick_Dissertation_EX1,1,4,2020-07-08T14:47:59-07:00,3.1943011283875,3,versionC_stim.csv,READVersionC.csv,"Read Version C","Dissertation, read only version C",CATCHER,BASEBALL,BUFFER1,Buffer,2,5,Study,User,-,,Study/JOL,BUFFER,2707,,,-1,-1,,,,1
5ee0ea4b6f43d80a4e57435d,9jbfbgmx05,Nick_Dissertation_EX1,1,5,2020-07-08T14:48:00-07:00,1.3110167980194,3,versionC_stim.csv,READVersionC.csv,"Read Version C","Dissertation, read only version C",GREEN,TREES,BUFFER1,Buffer,1,4,Study,User,-,,Study/JOL,BUFFER,964,,,-1,-1,,,,1
5ee0ea4b6f43d80a4e57435d,9jbfbgmx05,Nick_Dissertation_EX1,1,6,2020-07-08T14:48:01-07:00,0.97353911399841,3,versionC_stim.csv,READVersionC.csv,"Read Version C","Dissertation, read only version C",HIDE,SCARE,BUFFER1,Buffer,4,2,Study,User,-,,Study/JOL,BUFFER,627,,,-1,-1,,,,1
5ee0ea4b6f43d80a4e57435d,9jbfbgmx05,Nick_Dissertation_EX1,1,7,2020-07-08T14:48:02-07:00,0.97949600219727,3,versionC_stim.csv,READVersionC.csv,"Read Version C","Dissertation, read only version C",BRONZE,ARTERY,Study1,U,74,20,Study,User,-,,Study/JOL,"Study Phase",641,,,-1,-1,,,,1
5ee0ea4b6f43d80a4e57435d,9jbfbgmx05,Nick_Dissertation_EX1,1,8,2020-07-08T14:48:03-07:00,1.5396518707275,3,versionC_stim.csv,READVersionC.csv,"Read Version C","Dissertation, read only version C",HUNGRY,PARK,Study1,U,68,54,Study,User,-,,Study/JOL,"Study Phase",1189,,,-1,-1,,,,1
5ee0ea4b6f43d80a4e57435d,9jbfbgmx05,Nick_Dissertation_EX1,1,9,2020-07-08T14:48:05-07:00,1.2021770477295,3,versionC_stim.csv,READVersionC.csv,"Read Version C","Dissertation, read only version C",VASE,KING,Study1,U,85,72,Study,User,-,,Study/JOL,"Study Phase",851,,,-1,-1,,,,1
5ee0ea4b6f43d80a4e57435d,9jbfbgmx05,Nick_Dissertation_EX1,1,10,2020-07-08T14:48:06-07:00,1.1574311256409,3,versionC_stim.csv,READVersionC.csv,"Read Version C","Dissertation, read only version C",LATCH,KEY,Study1,F,36,66,Study,User,-,,Study/JOL,"Study Phase",794,,,-1,-1,,,,1
5ee0ea4b6f43d80a4e57435d,9jbfbgmx05,Nick_Dissertation_EX1,1,11,2020-07-08T14:48:09-07:00,2.9016499519348,3,versionC_stim.csv,READVersionC.csv,"Read Version C","Dissertation, read only version C",HAMMER,CHISEL,Study1,B,9,77,Study,User,-,,Study/JOL,"Study Phase",1545,,,-1,-1,,,,1
5ee0ea4b6f43d80a4e57435d,9jbfbgmx05,Nick_Dissertation_EX1,1,12,2020-07-08T14:48:10-07:00,1.4857170581818,3,versionC_stim.csv,READVersionC.csv,"Read Version C","Dissertation, read only version C",DROWSY,SLEEP,Study1,F,41,73,Study,User,-,,Study/JOL,"Study Phase",1144,,,-1,-1,,,,1
5ee0ea4b6f43d80a4e57435d,9jbfbgmx05,Nick_Dissertation_EX1,1,13,2020-07-08T14:48:12-07:00,1.3740298748016,3,versionC_stim.csv,READVersionC.csv,"Read Version C","Dissertation, read only version C",WIND,BLOW,Study1,S,55,68,Study,User,-,,Study/JOL,"Study Phase",1006,,,-1,-1,,,,1
5ee0ea4b6f43d80a4e57435d,9jbfbgmx05,Nick_Dissertation_EX1,1,14,2020-07-08T14:48:13-07:00,1.6562809944153,3,versionC_stim.csv,READVersionC.csv,"Read Version C","Dissertation, read only version C",DESIGN,ARCHITECTURE,Study1,S,51,9,Study,User,-,,Study/JOL,"Study Phase",1302,,,-1,-1,,,,1
5ee0ea4b6f43d80a4e57435d,9jbfbgmx05,Nick_Dissertation_EX1,1,15,2020-07-08T14:48:15-07:00,1.6010229587555,3,versionC_stim.csv,READVersionC.csv,"Read Version C","Dissertation, read only version C",FISH,TUNA,Study1,B,25,48,Study,User,-,,Study/JOL,"Study Phase",1213,,,-1,-1,,,,1
5ee0ea4b6f43d80a4e57435d,9jbfbgmx05,Nick_Dissertation_EX1,1,16,2020-07-08T14:48:16-07:00,1.1676211357117,3,versionC_stim.csv,READVersionC.csv,"Read Version C","Dissertation, read only version C",NEWS,EDITOR,Study1,B,10,42,Study,User,-,,Study/JOL,"Study Phase",786,,,-1,-1,,,,1
5ee0ea4b6f43d80a4e57435d,9jbfbgmx05,Nick_Dissertation_EX1,1,17,2020-07-08T14:48:17-07:00,1.4367990493774,3,versionC_stim.csv,READVersionC.csv,"Read Version C","Dissertation, read only version C",POSITION,MACHINE,Study1,U,76,60,Study,User,-,,Study/JOL,"Study Phase",1063,,,-1,-1,,,,1
5ee0ea4b6f43d80a4e57435d,9jbfbgmx05,Nick_Dissertation_EX1,1,18,2020-07-08T14:48:19-07:00,1.3487379550934,3,versionC_stim.csv,READVersionC.csv,"Read Version C","Dissertation, read only version C",FLOWER,ORCHID,Study1,B,24,71,Study,User,-,,Study/JOL,"Study Phase",1005,,,-1,-1,,,,1
5ee0ea4b6f43d80a4e57435d,9jbfbgmx05,Nick_Dissertation_EX1,1,19,2020-07-08T14:48:20-07:00,1.5829930305481,3,versionC_stim.csv,READVersionC.csv,"Read Version C","Dissertation, read only version C",RIDDLE,SUGAR,Study1,U,81,62,Study,User,-,,Study/JOL,"Study Phase",1244,,,-1,-1,,,,1
5ee0ea4b6f43d80a4e57435d,9jbfbgmx05,Nick_Dissertation_EX1,1,20,2020-07-08T14:48:22-07:00,1.3077049255371,3,versionC_stim.csv,READVersionC.csv,"Read Version C","Dissertation, read only version C",ASSIGNMENT,DUE,Study1,S,46,47,Study,User,-,,Study/JOL,"Study Phase",941,,,-1,-1,,,,1
5ee0ea4b6f43d80a4e57435d,9jbfbgmx05,Nick_Dissertation_EX1,1,21,2020-07-08T14:48:23-07:00,1.6112880706787,3,versionC_stim.csv,READVersionC.csv,"Read Version C","Dissertation, read only version C",CLEAN,HYGIENE,Study1,B,17,78,Study,User,-,,Study/JOL,"Study Phase",1268,,,-1,-1,,,,1
5ee0ea4b6f43d80a4e57435d,9jbfbgmx05,Nick_Dissertation_EX1,1,22,2020-07-08T14:48:25-07:00,1.4368169307709,3,versionC_stim.csv,READVersionC.csv,"Read Version C","Dissertation, read only version C",CAR,HAPPY,Study1,U,77,23,Study,User,-,,Study/JOL,"Study Phase",1073,,,-1,-1,,,,1
5ee0ea4b6f43d80a4e57435d,9jbfbgmx05,Nick_Dissertation_EX1,1,23,2020-07-08T14:48:26-07:00,1.3812749385834,3,versionC_stim.csv,READVersionC.csv,"Read Version C","Dissertation, read only version C",RACKET,BALL,Study1,F,38,26,Study,User,-,,Study/JOL,"Study Phase",1006,,,-1,-1,,,,1
5ee0ea4b6f43d80a4e57435d,9jbfbgmx05,Nick_Dissertation_EX1,1,24,2020-07-08T14:48:27-07:00,1.1894550323486,3,versionC_stim.csv,READVersionC.csv,"Read Version C","Dissertation, read only version C",BEE,HONEY,Study1,S,63,65,Study,User,-,,Study/JOL,"Study Phase",804,,,-1,-1,,,,1
5ee0ea4b6f43d80a4e57435d,9jbfbgmx05,Nick_Dissertation_EX1,1,25,2020-07-08T14:48:28-07:00,1.0602440834045,3,versionC_stim.csv,READVersionC.csv,"Read Version C","Dissertation, read only version C",FOOT,SHOE,Study1,S,60,22,Study,User,-,,Study/JOL,"Study Phase",649,,,-1,-1,,,,1
5ee0ea4b6f43d80a4e57435d,9jbfbgmx05,Nick_Dissertation_EX1,1,26,2020-07-08T14:48:29-07:00,1.0910308361053,3,versionC_stim.csv,READVersionC.csv,"Read Version C","Dissertation, read only version C",WORD,SENTENCE,Study1,F,31,49,Study,User,-,,Study/JOL,"Study Phase",723,,,-1,-1,,,,1
5ee0ea4b6f43d80a4e57435d,9jbfbgmx05,Nick_Dissertation_EX1,1,27,2020-07-08T14:48:30-07:00,1.0542020797729,3,versionC_stim.csv,READVersionC.csv,"Read Version C","Dissertation, read only version C",END,BEGIN,Study1,S,54,70,Study,User,-,,Study/JOL,"Study Phase",694,,,-1,-1,,,,1
5ee0ea4b6f43d80a4e57435d,9jbfbgmx05,Nick_Dissertation_EX1,1,28,2020-07-08T14:48:33-07:00,2.4109721183777,3,versionC_stim.csv,READVersionC.csv,"Read Version C","Dissertation, read only version C",SACKING,DIETARY,Study1,U,67,30,Study,User,-,,Study/JOL,"Study Phase",2048,,,-1,-1,,,,1
5ee0ea4b6f43d80a4e57435d,9jbfbgmx05,Nick_Dissertation_EX1,1,29,2020-07-08T14:48:35-07:00,1.9687700271606,3,versionC_stim.csv,READVersionC.csv,"Read Version C","Dissertation, read only version C",BIRD,SWAN,Study1,B,14,61,Study,User,-,,Study/JOL,"Study Phase",1157,,,-1,-1,,,,1
5ee0ea4b6f43d80a4e57435d,9jbfbgmx05,Nick_Dissertation_EX1,1,30,2020-07-08T14:48:38-07:00,2.8295369148254,3,versionC_stim.csv,READVersionC.csv,"Read Version C","Dissertation, read only version C",ACCIDENT,STRONG,Study1,U,80,19,Study,User,-,,Study/JOL,"Study Phase",1382,,,-1,-1,,,,1
5ee0ea4b6f43d80a4e57435d,9jbfbgmx05,Nick_Dissertation_EX1,1,31,2020-07-08T14:48:39-07:00,1.2295980453491,3,versionC_stim.csv,READVersionC.csv,"Read Version C","Dissertation, read only version C",ROUND,CIRCLE,Study1,S,65,63,Study,User,-,,Study/JOL,"Study Phase",843,,,-1,-1,,,,1
5ee0ea4b6f43d80a4e57435d,9jbfbgmx05,Nick_Dissertation_EX1,1,32,2020-07-08T14:48:42-07:00,2.9338748455048,3,versionC_stim.csv,READVersionC.csv,"Read Version C","Dissertation, read only version C",WOULD,CASH,Study1,U,83,24,Study,User,-,,Study/JOL,"Study Phase",2585,,,-1,-1,,,,1
5ee0ea4b6f43d80a4e57435d,9jbfbgmx05,Nick_Dissertation_EX1,1,33,2020-07-08T14:48:43-07:00,1.2674000263214,3,versionC_stim.csv,READVersionC.csv,"Read Version C","Dissertation, read only version C",DOG,PAW,Study1,B,15,25,Study,User,-,,Study/JOL,"Study Phase",901,,,-1,-1,,,,1
5ee0ea4b6f43d80a4e57435d,9jbfbgmx05,Nick_Dissertation_EX1,1,34,2020-07-08T14:48:45-07:00,1.8487141132355,3,versionC_stim.csv,READVersionC.csv,"Read Version C","Dissertation, read only version C",BAD,DELINQUENT,Study1,B,6,21,Study,User,-,,Study/JOL,"Study Phase",1476,,,-1,-1,,,,1
5ee0ea4b6f43d80a4e57435d,9jbfbgmx05,Nick_Dissertation_EX1,1,35,2020-07-08T14:48:46-07:00,1.1992750167847,3,versionC_stim.csv,READVersionC.csv,"Read Version C","Dissertation, read only version C",ADD,VALLEY,Study1,U,82,43,Study,User,-,,Study/JOL,"Study Phase",804,,,-1,-1,,,,1
5ee0ea4b6f43d80a4e57435d,9jbfbgmx05,Nick_Dissertation_EX1,1,36,2020-07-08T14:48:47-07:00,1.1853058338165,3,versionC_stim.csv,READVersionC.csv,"Read Version C","Dissertation, read only version C",GROWTH,HEIGHT,Study1,F,30,27,Study,User,-,,Study/JOL,"Study Phase",833,,,-1,-1,,,,1
5ee0ea4b6f43d80a4e57435d,9jbfbgmx05,Nick_Dissertation_EX1,1,37,2020-07-08T14:48:49-07:00,1.2064700126648,3,versionC_stim.csv,READVersionC.csv,"Read Version C","Dissertation, read only version C",CHILD,BABY,Study1,S,64,81,Study,User,-,,Study/JOL,"Study Phase",823,,,-1,-1,,,,1
5ee0ea4b6f43d80a4e57435d,9jbfbgmx05,Nick_Dissertation_EX1,1,38,2020-07-08T14:48:50-07:00,1.081248998642,3,versionC_stim.csv,READVersionC.csv,"Read Version C","Dissertation, read only version C",SITE,LOCATION,Study1,S,48,46,Study,User,-,,Study/JOL,"Study Phase",728,,,-1,-1,,,,1
5ee0ea4b6f43d80a4e57435d,9jbfbgmx05,Nick_Dissertation_EX1,1,39,2020-07-08T14:48:51-07:00,1.2262041568756,3,versionC_stim.csv,READVersionC.csv,"Read Version C","Dissertation, read only version C",STING,HORNET,Study1,B,11,55,Study,User,-,,Study/JOL,"Study Phase",847,,,-1,-1,,,,1
5ee0ea4b6f43d80a4e57435d,9jbfbgmx05,Nick_Dissertation_EX1,1,40,2020-07-08T14:48:52-07:00,1.6209650039673,3,versionC_stim.csv,READVersionC.csv,"Read Version C","Dissertation, read only version C",ATTORNEY,LAW,Study1,F,34,69,Study,User,-,,Study/JOL,"Study Phase",1278,,,-1,-1,,,,1
5ee0ea4b6f43d80a4e57435d,9jbfbgmx05,Nick_Dissertation_EX1,1,41,2020-07-08T14:48:54-07:00,1.3093128204346,3,versionC_stim.csv,READVersionC.csv,"Read Version C","Dissertation, read only version C",STOMACH,DIGESTION,Study1,B,7,36,Study,User,-,,Study/JOL,"Study Phase",928,,,-1,-1,,,,1
5ee0ea4b6f43d80a4e57435d,9jbfbgmx05,Nick_Dissertation_EX1,1,42,2020-07-08T14:48:55-07:00,1.1793870925903,3,versionC_stim.csv,READVersionC.csv,"Read Version C","Dissertation, read only version C",PLANT,ROOT,Study1,B,13,18,Study,User,-,,Study/JOL,"Study Phase",785,,,-1,-1,,,,1
5ee0ea4b6f43d80a4e57435d,9jbfbgmx05,Nick_Dissertation_EX1,1,43,2020-07-08T14:48:56-07:00,1.0145349502563,3,versionC_stim.csv,READVersionC.csv,"Read Version C","Dissertation, read only version C",OUT,WAY,Study1,B,16,76,Study,User,-,,Study/JOL,"Study Phase",617,,,-1,-1,,,,1
5ee0ea4b6f43d80a4e57435d,9jbfbgmx05,Nick_Dissertation_EX1,1,44,2020-07-08T14:48:58-07:00,1.8640260696411,3,versionC_stim.csv,READVersionC.csv,"Read Version C","Dissertation, read only version C",DEFINITION,MEANING,Study1,S,62,84,Study,User,-,,Study/JOL,"Study Phase",1487,,,-1,-1,,,,1
5ee0ea4b6f43d80a4e57435d,9jbfbgmx05,Nick_Dissertation_EX1,1,45,2020-07-08T14:48:59-07:00,1.36794090271,3,versionC_stim.csv,READVersionC.csv,"Read Version C","Dissertation, read only version C",BLAZE,FIRE,Study1,F,45,29,Study,User,-,,Study/JOL,"Study Phase",1021,,,-1,-1,,,,1
5ee0ea4b6f43d80a4e57435d,9jbfbgmx05,Nick_Dissertation_EX1,1,46,2020-07-08T14:49:01-07:00,1.6925041675568,3,versionC_stim.csv,READVersionC.csv,"Read Version C","Dissertation, read only version C",STENCH,SMELL,Study1,F,42,50,Study,User,-,,Study/JOL,"Study Phase",950,,,-1,-1,,,,1
5ee0ea4b6f43d80a4e57435d,9jbfbgmx05,Nick_Dissertation_EX1,1,47,2020-07-08T14:49:02-07:00,1.3311619758606,3,versionC_stim.csv,READVersionC.csv,"Read Version C","Dissertation, read only version C",WASTE,DUMP,Study1,S,49,15,Study,User,-,,Study/JOL,"Study Phase",982,,,-1,-1,,,,1
5ee0ea4b6f43d80a4e57435d,9jbfbgmx05,Nick_Dissertation_EX1,1,48,2020-07-08T14:49:04-07:00,1.5060489177704,3,versionC_stim.csv,READVersionC.csv,"Read Version C","Dissertation, read only version C",PILOT,PLANE,Study1,F,44,11,Study,User,-,,Study/JOL,"Study Phase",1105,,,-1,-1,,,,1
5ee0ea4b6f43d80a4e57435d,9jbfbgmx05,Nick_Dissertation_EX1,1,49,2020-07-08T14:49:05-07:00,1.2384150028229,3,versionC_stim.csv,READVersionC.csv,"Read Version C","Dissertation, read only version C",BUSINESS,DEATH,Study1,U,72,35,Study,User,-,,Study/JOL,"Study Phase",868,,,-1,-1,,,,1
5ee0ea4b6f43d80a4e57435d,9jbfbgmx05,Nick_Dissertation_EX1,1,50,2020-07-08T14:49:06-07:00,1.2059140205383,3,versionC_stim.csv,READVersionC.csv,"Read Version C","Dissertation, read only version C",FLOOR,DISCOVER,Study1,U,71,51,Study,User,-,,Study/JOL,"Study Phase",822,,,-1,-1,,,,1
5ee0ea4b6f43d80a4e57435d,9jbfbgmx05,Nick_Dissertation_EX1,1,51,2020-07-08T14:49:07-07:00,1.2030329704285,3,versionC_stim.csv,READVersionC.csv,"Read Version C","Dissertation, read only version C",CLUTTER,PUSHER,Study1,U,66,79,Study,User,-,,Study/JOL,"Study Phase",840,,,-1,-1,,,,1
5ee0ea4b6f43d80a4e57435d,9jbfbgmx05,Nick_Dissertation_EX1,1,52,2020-07-08T14:49:08-07:00,1.0757360458374,3,versionC_stim.csv,READVersionC.csv,"Read Version C","Dissertation, read only version C",ROCK,GEOLOGY,Study1,B,19,33,Study,User,-,,Study/JOL,"Study Phase",709,,,-1,-1,,,,1
5ee0ea4b6f43d80a4e57435d,9jbfbgmx05,Nick_Dissertation_EX1,1,53,2020-07-08T14:49:10-07:00,1.3386650085449,3,versionC_stim.csv,READVersionC.csv,"Read Version C","Dissertation, read only version C",SICK,HIDE,Study1,U,84,16,Study,User,-,,Study/JOL,"Study Phase",955,,,-1,-1,,,,1
5ee0ea4b6f43d80a4e57435d,9jbfbgmx05,Nick_Dissertation_EX1,1,54,2020-07-08T14:49:11-07:00,1.4001779556274,3,versionC_stim.csv,READVersionC.csv,"Read Version C","Dissertation, read only version C",FAMINE,HUNGER,Study1,F,40,7,Study,User,-,,Study/JOL,"Study Phase",1038,,,-1,-1,,,,1
5ee0ea4b6f43d80a4e57435d,9jbfbgmx05,Nick_Dissertation_EX1,1,55,2020-07-08T14:49:12-07:00,1.0648379325867,3,versionC_stim.csv,READVersionC.csv,"Read Version C","Dissertation, read only version C",JURY,TRIAL,Study1,S,50,34,Study,User,-,,Study/JOL,"Study Phase",688,,,-1,-1,,,,1
5ee0ea4b6f43d80a4e57435d,9jbfbgmx05,Nick_Dissertation_EX1,1,56,2020-07-08T14:49:14-07:00,1.9091641902924,3,versionC_stim.csv,READVersionC.csv,"Read Version C","Dissertation, read only version C",TALK,DISCUSSION,Study1,B,21,17,Study,User,-,,Study/JOL,"Study Phase",516,,,-1,-1,,,,1
5ee0ea4b6f43d80a4e57435d,9jbfbgmx05,Nick_Dissertation_EX1,1,57,2020-07-08T14:49:15-07:00,0.89455795288086,3,versionC_stim.csv,READVersionC.csv,"Read Version C","Dissertation, read only version C",BELT,SOON,Study1,U,70,10,Study,User,-,,Study/JOL,"Study Phase",508,,,-1,-1,,,,1
5ee0ea4b6f43d80a4e57435d,9jbfbgmx05,Nick_Dissertation_EX1,1,58,2020-07-08T14:49:16-07:00,1.0604920387268,3,versionC_stim.csv,READVersionC.csv,"Read Version C","Dissertation, read only version C",CHEESE,WINE,Study1,S,57,31,Study,User,-,,Study/JOL,"Study Phase",705,,,-1,-1,,,,1
5ee0ea4b6f43d80a4e57435d,9jbfbgmx05,Nick_Dissertation_EX1,1,59,2020-07-08T14:49:18-07:00,1.6643078327179,3,versionC_stim.csv,READVersionC.csv,"Read Version C","Dissertation, read only version C",SIGHT,DEBATE,Study1,U,73,39,Study,User,-,,Study/JOL,"Study Phase",1302,,,-1,-1,,,,1
5ee0ea4b6f43d80a4e57435d,9jbfbgmx05,Nick_Dissertation_EX1,1,60,2020-07-08T14:49:19-07:00,1.3341059684753,3,versionC_stim.csv,READVersionC.csv,"Read Version C","Dissertation, read only version C",FANTASTIC,GREAT,Study1,F,35,74,Study,User,-,,Study/JOL,"Study Phase",976,,,-1,-1,,,,1
5ee0ea4b6f43d80a4e57435d,9jbfbgmx05,Nick_Dissertation_EX1,1,61,2020-07-08T14:49:20-07:00,1.2318260669708,3,versionC_stim.csv,READVersionC.csv,"Read Version C","Dissertation, read only version C",CHORE,WORK,Study1,F,39,52,Study,User,-,,Study/JOL,"Study Phase",884,,,-1,-1,,,,1
5ee0ea4b6f43d80a4e57435d,9jbfbgmx05,Nick_Dissertation_EX1,1,62,2020-07-08T14:49:21-07:00,1.1306381225586,3,versionC_stim.csv,READVersionC.csv,"Read Version C","Dissertation, read only version C",ATTIRE,CLOTHES,Study1,F,43,32,Study,User,-,,Study/JOL,"Study Phase",735,,,-1,-1,,,,1
5ee0ea4b6f43d80a4e57435d,9jbfbgmx05,Nick_Dissertation_EX1,1,63,2020-07-08T14:49:22-07:00,0.86986589431763,3,versionC_stim.csv,READVersionC.csv,"Read Version C","Dissertation, read only version C",HAND,FIX,Study1,U,75,67,Study,User,-,,Study/JOL,"Study Phase",521,,,-1,-1,,,,1
5ee0ea4b6f43d80a4e57435d,9jbfbgmx05,Nick_Dissertation_EX1,1,64,2020-07-08T14:49:23-07:00,1.0371050834656,3,versionC_stim.csv,READVersionC.csv,"Read Version C","Dissertation, read only version C",CHILI,HOT,Study1,F,37,75,Study,User,-,,Study/JOL,"Study Phase",670,,,-1,-1,,,,1
5ee0ea4b6f43d80a4e57435d,9jbfbgmx05,Nick_Dissertation_EX1,1,65,2020-07-08T14:49:26-07:00,2.3695750236511,3,versionC_stim.csv,READVersionC.csv,"Read Version C","Dissertation, read only version C",FUTURE,PAST,Study1,S,61,53,Study,User,-,,Study/JOL,"Study Phase",497,,,-1,-1,,,,1
5ee0ea4b6f43d80a4e57435d,9jbfbgmx05,Nick_Dissertation_EX1,1,66,2020-07-08T14:49:27-07:00,1.2306869029999,3,versionC_stim.csv,READVersionC.csv,"Read Version C","Dissertation, read only version C",COW,HERD,Study1,B,22,57,Study,User,-,,Study/JOL,"Study Phase",855,,,-1,-1,,,,1
5ee0ea4b6f43d80a4e57435d,9jbfbgmx05,Nick_Dissertation_EX1,1,67,2020-07-08T14:49:28-07:00,1.1510500907898,3,versionC_stim.csv,READVersionC.csv,"Read Version C","Dissertation, read only version C",MONEY,WAGE,Study1,B,8,82,Study,User,-,,Study/JOL,"Study Phase",791,,,-1,-1,,,,1
5ee0ea4b6f43d80a4e57435d,9jbfbgmx05,Nick_Dissertation_EX1,1,68,2020-07-08T14:49:30-07:00,2.2328050136566,3,versionC_stim.csv,READVersionC.csv,"Read Version C","Dissertation, read only version C",WATER,BRIDGE,Study1,B,18,40,Study,User,-,,Study/JOL,"Study Phase",874,,,-1,-1,,,,1
5ee0ea4b6f43d80a4e57435d,9jbfbgmx05,Nick_Dissertation_EX1,1,69,2020-07-08T14:49:31-07:00,0.99249601364136,3,versionC_stim.csv,READVersionC.csv,"Read Version C","Dissertation, read only version C",SIP,DRINK,Study1,F,27,85,Study,User,-,,Study/JOL,"Study Phase",533,,,-1,-1,,,,1
5ee0ea4b6f43d80a4e57435d,9jbfbgmx05,Nick_Dissertation_EX1,1,70,2020-07-08T14:49:32-07:00,0.93849086761475,3,versionC_stim.csv,READVersionC.csv,"Read Version C","Dissertation, read only version C",COLD,BITTER,Study1,B,12,41,Study,User,-,,Study/JOL,"Study Phase",566,,,-1,-1,,,,1
5ee0ea4b6f43d80a4e57435d,9jbfbgmx05,Nick_Dissertation_EX1,1,71,2020-07-08T14:49:33-07:00,0.98900198936462,3,versionC_stim.csv,READVersionC.csv,"Read Version C","Dissertation, read only version C",SALAD,LETTUCE,Study1,S,59,28,Study,User,-,,Study/JOL,"Study Phase",625,,,-1,-1,,,,1
5ee0ea4b6f43d80a4e57435d,9jbfbgmx05,Nick_Dissertation_EX1,1,72,2020-07-08T14:49:34-07:00,1.0585811138153,3,versionC_stim.csv,READVersionC.csv,"Read Version C","Dissertation, read only version C",SODA,POP,Study1,S,56,59,Study,User,-,,Study/JOL,"Study Phase",701,,,-1,-1,,,,1
5ee0ea4b6f43d80a4e57435d,9jbfbgmx05,Nick_Dissertation_EX1,1,73,2020-07-08T14:49:36-07:00,1.2908229827881,3,versionC_stim.csv,READVersionC.csv,"Read Version C","Dissertation, read only version C",TOILET,BATHROOM,Study1,S,58,56,Study,User,-,,Study/JOL,"Study Phase",924,,,-1,-1,,,,1
5ee0ea4b6f43d80a4e57435d,9jbfbgmx05,Nick_Dissertation_EX1,1,74,2020-07-08T14:49:37-07:00,1.0844240188599,3,versionC_stim.csv,READVersionC.csv,"Read Version C","Dissertation, read only version C",TUCK,ALLOW,Study1,U,78,14,Study,User,-,,Study/JOL,"Study Phase",713,,,-1,-1,,,,1
5ee0ea4b6f43d80a4e57435d,9jbfbgmx05,Nick_Dissertation_EX1,1,75,2020-07-08T14:49:38-07:00,1.161917924881,3,versionC_stim.csv,READVersionC.csv,"Read Version C","Dissertation, read only version C",WASP,BUG,Study1,F,32,64,Study,User,-,,Study/JOL,"Study Phase",628,,,-1,-1,,,,1
5ee0ea4b6f43d80a4e57435d,9jbfbgmx05,Nick_Dissertation_EX1,1,76,2020-07-08T14:49:39-07:00,0.94417190551758,3,versionC_stim.csv,READVersionC.csv,"Read Version C","Dissertation, read only version C",ENOUGH,FULL,Study1,F,26,38,Study,User,-,,Study/JOL,"Study Phase",570,,,-1,-1,,,,1
5ee0ea4b6f43d80a4e57435d,9jbfbgmx05,Nick_Dissertation_EX1,1,77,2020-07-08T14:49:40-07:00,0.90255999565125,3,versionC_stim.csv,READVersionC.csv,"Read Version C","Dissertation, read only version C",AMOUNT,NUMBER,Study1,S,47,12,Study,User,-,,Study/JOL,"Study Phase",546,,,-1,-1,,,,1
5ee0ea4b6f43d80a4e57435d,9jbfbgmx05,Nick_Dissertation_EX1,1,78,2020-07-08T14:49:41-07:00,0.90296602249146,3,versionC_stim.csv,READVersionC.csv,"Read Version C","Dissertation, read only version C",CARD,CREDIT,Study1,B,23,44,Study,User,-,,Study/JOL,"Study Phase",541,,,-1,-1,,,,1
5ee0ea4b6f43d80a4e57435d,9jbfbgmx05,Nick_Dissertation_EX1,1,79,2020-07-08T14:49:42-07:00,0.92943906784058,3,versionC_stim.csv,READVersionC.csv,"Read Version C","Dissertation, read only version C",LION,ART,Study1,U,79,37,Study,User,-,,Study/JOL,"Study Phase",548,,,-1,-1,,,,1
5ee0ea4b6f43d80a4e57435d,9jbfbgmx05,Nick_Dissertation_EX1,1,80,2020-07-08T14:49:42-07:00,0.87326312065125,3,versionC_stim.csv,READVersionC.csv,"Read Version C","Dissertation, read only version C",LIVER,KIDNEY,Study1,S,53,86,Study,User,-,,Study/JOL,"Study Phase",521,,,-1,-1,,,,1
5ee0ea4b6f43d80a4e57435d,9jbfbgmx05,Nick_Dissertation_EX1,1,81,2020-07-08T14:49:43-07:00,0.90167593955994,3,versionC_stim.csv,READVersionC.csv,"Read Version C","Dissertation, read only version C",SEIZE,TAKE,Study1,F,29,45,Study,User,-,,Study/JOL,"Study Phase",520,,,-1,-1,,,,1
5ee0ea4b6f43d80a4e57435d,9jbfbgmx05,Nick_Dissertation_EX1,1,82,2020-07-08T14:49:44-07:00,0.85664987564087,3,versionC_stim.csv,READVersionC.csv,"Read Version C","Dissertation, read only version C",DIVISION,MATH,Study1,F,33,58,Study,User,-,,Study/JOL,"Study Phase",501,,,-1,-1,,,,1
5ee0ea4b6f43d80a4e57435d,9jbfbgmx05,Nick_Dissertation_EX1,1,83,2020-07-08T14:49:45-07:00,0.90566515922546,3,versionC_stim.csv,READVersionC.csv,"Read Version C","Dissertation, read only version C",WAR,REVOLUTION,Study1,B,20,8,Study,User,-,,Study/JOL,"Study Phase",546,,,-1,-1,,,,1
5ee0ea4b6f43d80a4e57435d,9jbfbgmx05,Nick_Dissertation_EX1,1,84,2020-07-08T14:49:46-07:00,0.81158685684204,3,versionC_stim.csv,READVersionC.csv,"Read Version C","Dissertation, read only version C",BAR,GRILL,Study1,S,52,83,Study,User,-,,Study/JOL,"Study Phase",449,,,-1,-1,,,,1
5ee0ea4b6f43d80a4e57435d,9jbfbgmx05,Nick_Dissertation_EX1,1,85,2020-07-08T14:49:47-07:00,1.0016100406647,3,versionC_stim.csv,READVersionC.csv,"Read Version C","Dissertation, read only version C",WOMAN,LIFT,Study1,U,69,80,Study,User,-,,Study/JOL,"Study Phase",609,,,-1,-1,,,,1
5ee0ea4b6f43d80a4e57435d,9jbfbgmx05,Nick_Dissertation_EX1,1,86,2020-07-08T14:49:49-07:00,2.0906898975372,3,versionC_stim.csv,READVersionC.csv,"Read Version C","Dissertation, read only version C",CAVE,DARK,Study1,F,28,13,Study,User,-,,Study/JOL,"Study Phase",689,,,-1,-1,,,,1
5ee0ea4b6f43d80a4e57435d,9jbfbgmx05,Nick_Dissertation_EX1,1,87,2020-07-08T14:49:50-07:00,0.99639201164246,3,versionC_stim.csv,READVersionC.csv,"Read Version C","Dissertation, read only version C",POLICE,SHERRIF,BUFFER2,Buffer,87,89,Study,User,-,,Study/JOL,BUFFER2,526,,,-1,-1,,,,1
5ee0ea4b6f43d80a4e57435d,9jbfbgmx05,Nick_Dissertation_EX1,1,88,2020-07-08T14:49:51-07:00,1.2588641643524,3,versionC_stim.csv,READVersionC.csv,"Read Version C","Dissertation, read only version C",SPACE,MOON,BUFFER2,Buffer,89,91,Study,User,-,,Study/JOL,BUFFER2,898,,,-1,-1,,,,1
5ee0ea4b6f43d80a4e57435d,9jbfbgmx05,Nick_Dissertation_EX1,1,89,2020-07-08T14:49:52-07:00,1.0874328613281,3,versionC_stim.csv,READVersionC.csv,"Read Version C","Dissertation, read only version C",GOOSE,GEESE,BUFFER2,Buffer,86,87,Study,User,-,,Study/JOL,BUFFER2,712,,,-1,-1,,,,1
5ee0ea4b6f43d80a4e57435d,9jbfbgmx05,Nick_Dissertation_EX1,1,90,2020-07-08T14:49:54-07:00,1.8138110637665,3,versionC_stim.csv,READVersionC.csv,"Read Version C","Dissertation, read only version C",CHOCOLATE,MALT,BUFFER2,Buffer,88,88,Study,User,-,,Study/JOL,BUFFER2,1429,,,-1,-1,,,,1
5ee0ea4b6f43d80a4e57435d,9jbfbgmx05,Nick_Dissertation_EX1,1,91,2020-07-08T14:49:55-07:00,1.2122321128845,3,versionC_stim.csv,READVersionC.csv,"Read Version C","Dissertation, read only version C",STUFF,THING,BUFFER2,Buffer,90,90,Study,User,-,,Study/JOL,BUFFER2,860,,,-1,-1,,,,1
5ee0ea4b6f43d80a4e57435d,9jbfbgmx05,Nick_Dissertation_EX1,1,92,2020-07-08T14:49:58-07:00,2.1698589324951,3,versionC_stim.csv,READVersionC.csv,"Read Version C","Dissertation, read only version C",,,,,,0,Instruct,User,-,"You have completed this section. Please press Enter.",Filler_Instruction,Instruct2,1795,,,-1,-1,,,,1
5ee0ea4b6f43d80a4e57435d,9jbfbgmx05,Nick_Dissertation_EX1,1,93,2020-07-08T14:51:59-07:00,121.62640500069,3,versionC_stim.csv,READVersionC.csv,"Read Version C","Dissertation, read only version C",,,,,,0,FreeRecall,120,120,"Please list the 50 US states in alphabetical order. The task will automatically advance to the next screen after two minutes.",,Filler1,120003,"Alabama Alaska Arizona Arkansas California Colorado Connecticut Delaware Florida Georgia Hawaii Idaho IllinoisIndiana Iowa Kansas Kentucky Louisiana Maine Maryland Massachusetts Michigan Minnesota Mississippi Missouri MontanaNebraska Nevada New Hampshire New Jersey New Mexico New York North Carolina North Dakota Ohio Oklahoma Oregon PennsylvaniaRhode Island South Carolina South Dakota Tennessee Texas Utah Vermont Virginia Washington West Virginia ",0,-1,-1,0,0,,0.928
5ee0ea4b6f43d80a4e57435d,9jbfbgmx05,Nick_Dissertation_EX1,1,94,2020-07-08T14:52:11-07:00,11.381881952286,3,versionC_stim.csv,READVersionC.csv,"Read Version C","Dissertation, read only version C",,,,,,0,Instruct,-,10,"You will now be presented with the first word from each of the previously studied item pairs. Please type the missing word. If you do not know the word, you may guess or press Enter to skip forward to the next pair.",,Instruct3,11011,,,-1,-1,,,,1
5ee0ea4b6f43d80a4e57435d,9jbfbgmx05,Nick_Dissertation_EX1,1,95,2020-07-08T14:52:15-07:00,4.8570671081543,3,versionC_stim.csv,READVersionC.csv,"Read Version C","Dissertation, read only version C",DEFINITION,MEANING,Study1,S,62,84,Test,User,-,,Recall,Recall1,4463,meaning,100,1868,3322,1,1,,1
5ee0ea4b6f43d80a4e57435d,9jbfbgmx05,Nick_Dissertation_EX1,1,96,2020-07-08T14:52:23-07:00,7.2850389480591,3,versionC_stim.csv,READVersionC.csv,"Read Version C","Dissertation, read only version C",SALAD,LETTUCE,Study1,S,59,28,Test,User,-,,Recall,Recall1,6923,lettuce,100,4826,6387,1,1,,1
5ee0ea4b6f43d80a4e57435d,9jbfbgmx05,Nick_Dissertation_EX1,1,97,2020-07-08T14:52:27-07:00,4.3047490119934,3,versionC_stim.csv,READVersionC.csv,"Read Version C","Dissertation, read only version C",WASTE,DUMP,Study1,S,49,15,Test,User,-,,Recall,Recall1,3946,rubbish,18.181818181818,2015,3151,0,0,,1
5ee0ea4b6f43d80a4e57435d,9jbfbgmx05,Nick_Dissertation_EX1,1,98,2020-07-08T14:52:33-07:00,5.7185130119324,3,versionC_stim.csv,READVersionC.csv,"Read Version C","Dissertation, read only version C",CHORE,WORK,Study1,F,39,52,Test,User,-,,Recall,Recall1,5350,,0,-1,-1,0,0,,1
5ee0ea4b6f43d80a4e57435d,9jbfbgmx05,Nick_Dissertation_EX1,1,99,2020-07-08T14:52:37-07:00,3.9569799900055,3,versionC_stim.csv,READVersionC.csv,"Read Version C","Dissertation, read only version C",STENCH,SMELL,Study1,F,42,50,Test,User,-,,Recall,Recall1,3592,smell,100,1741,2372,1,1,,1
5ee0ea4b6f43d80a4e57435d,9jbfbgmx05,Nick_Dissertation_EX1,1,100,2020-07-08T14:52:45-07:00,8.817046880722,3,versionC_stim.csv,READVersionC.csv,"Read Version C","Dissertation, read only version C",ASSIGNMENT,DUE,Study1,S,46,47,Test,User,-,,Recall,Recall1,1871,due,100,1306,1563,1,1,,1
5ee0ea4b6f43d80a4e57435d,9jbfbgmx05,Nick_Dissertation_EX1,1,101,2020-07-08T14:52:54-07:00,8.1858179569244,3,versionC_stim.csv,READVersionC.csv,"Read Version C","Dissertation, read only version C",DIVISION,MATH,Study1,F,33,58,Test,User,-,,Recall,Recall1,7699,multiply,33.333333333333,3255,6351,0,0,,1
5ee0ea4b6f43d80a4e57435d,9jbfbgmx05,Nick_Dissertation_EX1,1,102,2020-07-08T14:52:57-07:00,3.743007183075,3,versionC_stim.csv,READVersionC.csv,"Read Version C","Dissertation, read only version C",TUCK,ALLOW,Study1,U,78,14,Test,User,-,,Recall,Recall1,3376,,0,-1,-1,0,0,,1
5ee0ea4b6f43d80a4e57435d,9jbfbgmx05,Nick_Dissertation_EX1,1,103,2020-07-08T14:53:04-07:00,6.3717918395996,3,versionC_stim.csv,READVersionC.csv,"Read Version C","Dissertation, read only version C",BAR,GRILL,Study1,S,52,83,Test,User,-,,Recall,Recall1,5965,drink,40,2572,5556,0,0,,1
5ee0ea4b6f43d80a4e57435d,9jbfbgmx05,Nick_Dissertation_EX1,1,104,2020-07-08T14:53:08-07:00,3.8784589767456,3,versionC_stim.csv,READVersionC.csv,"Read Version C","Dissertation, read only version C",CLEAN,HYGIENE,Study1,B,17,78,Test,User,-,,Recall,Recall1,3501,wash,18.181818181818,2425,2927,0,0,,1
5ee0ea4b6f43d80a4e57435d,9jbfbgmx05,Nick_Dissertation_EX1,1,105,2020-07-08T14:53:11-07:00,3.5980970859528,3,versionC_stim.csv,READVersionC.csv,"Read Version C","Dissertation, read only version C",GROWTH,HEIGHT,Study1,F,30,27,Test,User,-,,Recall,Recall1,3226,height,100,1775,2670,1,1,,1
5ee0ea4b6f43d80a4e57435d,9jbfbgmx05,Nick_Dissertation_EX1,1,106,2020-07-08T14:53:14-07:00,3.1199259757996,3,versionC_stim.csv,READVersionC.csv,"Read Version C","Dissertation, read only version C",COW,HERD,Study1,B,22,57,Test,User,-,,Recall,Recall1,2659,herd,100,1660,2428,1,1,,1
5ee0ea4b6f43d80a4e57435d,9jbfbgmx05,Nick_Dissertation_EX1,1,107,2020-07-08T14:53:18-07:00,3.7107980251312,3,versionC_stim.csv,READVersionC.csv,"Read Version C","Dissertation, read only version C",NEWS,EDITOR,Study1,B,10,42,Test,User,-,,Recall,Recall1,3358,,0,-1,-1,0,0,,1
5ee0ea4b6f43d80a4e57435d,9jbfbgmx05,Nick_Dissertation_EX1,1,108,2020-07-08T14:53:21-07:00,2.8347461223602,3,versionC_stim.csv,READVersionC.csv,"Read Version C","Dissertation, read only version C",WIND,BLOW,Study1,S,55,68,Test,User,-,,Recall,Recall1,2471,blow,100,1593,2243,1,1,,1
5ee0ea4b6f43d80a4e57435d,9jbfbgmx05,Nick_Dissertation_EX1,1,109,2020-07-08T14:53:23-07:00,2.4757549762726,3,versionC_stim.csv,READVersionC.csv,"Read Version C","Dissertation, read only version C",CAVE,DARK,Study1,F,28,13,Test,User,-,,Recall,Recall1,2098,dark,100,1059,1769,1,1,,1
5ee0ea4b6f43d80a4e57435d,9jbfbgmx05,Nick_Dissertation_EX1,1,110,2020-07-08T14:53:27-07:00,3.2646789550781,3,versionC_stim.csv,READVersionC.csv,"Read Version C","Dissertation, read only version C",HUNGRY,PARK,Study1,U,68,54,Test,User,-,,Recall,Recall1,2888,eat,28.571428571429,1879,2221,0,0,,1
5ee0ea4b6f43d80a4e57435d,9jbfbgmx05,Nick_Dissertation_EX1,1,111,2020-07-08T14:53:31-07:00,4.426882982254,3,versionC_stim.csv,READVersionC.csv,"Read Version C","Dissertation, read only version C",AMOUNT,NUMBER,Study1,S,47,12,Test,User,-,,Recall,Recall1,3039,money,36.363636363636,1989,2670,0,0,,1
5ee0ea4b6f43d80a4e57435d,9jbfbgmx05,Nick_Dissertation_EX1,1,112,2020-07-08T14:53:37-07:00,6.2877149581909,3,versionC_stim.csv,READVersionC.csv,"Read Version C","Dissertation, read only version C",ATTIRE,CLOTHES,Study1,F,43,32,Test,User,-,,Recall,Recall1,5925,clothes,100,3046,5431,1,1,,1
5ee0ea4b6f43d80a4e57435d,9jbfbgmx05,Nick_Dissertation_EX1,1,113,2020-07-08T14:53:46-07:00,8.5739929676056,3,versionC_stim.csv,READVersionC.csv,"Read Version C","Dissertation, read only version C",SITE,LOCATION,Study1,S,48,46,Test,User,-,,Recall,Recall1,8216,search,14.285714285714,3001,7547,0,0,,1
5ee0ea4b6f43d80a4e57435d,9jbfbgmx05,Nick_Dissertation_EX1,1,114,2020-07-08T14:53:49-07:00,2.9934620857239,3,versionC_stim.csv,READVersionC.csv,"Read Version C","Dissertation, read only version C",SIGHT,DEBATE,Study1,U,73,39,Test,User,-,,Recall,Recall1,2615,see,44.444444444444,2088,2480,0,0,,1
5ee0ea4b6f43d80a4e57435d,9jbfbgmx05,Nick_Dissertation_EX1,1,115,2020-07-08T14:53:52-07:00,3.2520489692688,3,versionC_stim.csv,READVersionC.csv,"Read Version C","Dissertation, read only version C",HAMMER,CHISEL,Study1,B,9,77,Test,User,-,,Recall,Recall1,2897,chisle,83.333333333333,1594,2632,0,1,,1
5ee0ea4b6f43d80a4e57435d,9jbfbgmx05,Nick_Dissertation_EX1,1,116,2020-07-08T14:53:56-07:00,3.4726309776306,3,versionC_stim.csv,READVersionC.csv,"Read Version C","Dissertation, read only version C",CLUTTER,PUSHER,Study1,U,66,79,Test,User,-,,Recall,Recall1,3102,plate,36.363636363636,1740,2582,0,0,,1
5ee0ea4b6f43d80a4e57435d,9jbfbgmx05,Nick_Dissertation_EX1,1,117,2020-07-08T14:53:59-07:00,3.6403419971466,3,versionC_stim.csv,READVersionC.csv,"Read Version C","Dissertation, read only version C",SICK,HIDE,Study1,U,84,16,Test,User,-,,Recall,Recall1,3272,ill,28.571428571429,2599,2963,0,0,,1
5ee0ea4b6f43d80a4e57435d,9jbfbgmx05,Nick_Dissertation_EX1,1,118,2020-07-08T14:54:01-07:00,2.0650329589844,3,versionC_stim.csv,READVersionC.csv,"Read Version C","Dissertation, read only version C",SACKING,DIETARY,Study1,U,67,30,Test,User,-,,Recall,Recall1,1668,,0,-1,-1,0,0,,1
5ee0ea4b6f43d80a4e57435d,9jbfbgmx05,Nick_Dissertation_EX1,1,119,2020-07-08T14:54:05-07:00,3.7374210357666,3,versionC_stim.csv,READVersionC.csv,"Read Version C","Dissertation, read only version C",FUTURE,PAST,Study1,S,61,53,Test,User,-,,Recall,Recall1,3358,past,100,1782,3237,1,1,,1
5ee0ea4b6f43d80a4e57435d,9jbfbgmx05,Nick_Dissertation_EX1,1,120,2020-07-08T14:54:08-07:00,2.9313349723816,3,versionC_stim.csv,READVersionC.csv,"Read Version C","Dissertation, read only version C",LION,ART,Study1,U,79,37,Test,User,-,,Recall,Recall1,2543,roar,57.142857142857,1316,1987,0,0,,1
5ee0ea4b6f43d80a4e57435d,9jbfbgmx05,Nick_Dissertation_EX1,1,121,2020-07-08T14:54:12-07:00,3.9356150627136,3,versionC_stim.csv,READVersionC.csv,"Read Version C","Dissertation, read only version C",WOULD,CASH,Study1,U,83,24,Test,User,-,,Recall,Recall1,3567,could,22.222222222222,2413,3081,0,0,,1
5ee0ea4b6f43d80a4e57435d,9jbfbgmx05,Nick_Dissertation_EX1,1,122,2020-07-08T14:54:17-07:00,4.6196091175079,3,versionC_stim.csv,READVersionC.csv,"Read Version C","Dissertation, read only version C",SIP,DRINK,Study1,F,27,85,Test,User,-,,Recall,Recall1,4245,drink,100,1812,3917,1,1,,1
5ee0ea4b6f43d80a4e57435d,9jbfbgmx05,Nick_Dissertation_EX1,1,123,2020-07-08T14:54:20-07:00,3.5174369812012,3,versionC_stim.csv,READVersionC.csv,"Read Version C","Dissertation, read only version C",OUT,WAY,Study1,B,16,76,Test,User,-,,Recall,Recall1,3164,side,0,2530,3027,0,0,,1
5ee0ea4b6f43d80a4e57435d,9jbfbgmx05,Nick_Dissertation_EX1,1,124,2020-07-08T14:54:24-07:00,4.0694148540497,3,versionC_stim.csv,READVersionC.csv,"Read Version C","Dissertation, read only version C",JURY,TRIAL,Study1,S,50,34,Test,User,-,,Recall,Recall1,3607,court,20,2154,3087,0,0,,1
5ee0ea4b6f43d80a4e57435d,9jbfbgmx05,Nick_Dissertation_EX1,1,125,2020-07-08T14:54:28-07:00,3.7408559322357,3,versionC_stim.csv,READVersionC.csv,"Read Version C","Dissertation, read only version C",STING,HORNET,Study1,B,11,55,Test,User,-,,Recall,Recall1,3365,hornet,100,1803,2801,1,1,,1
5ee0ea4b6f43d80a4e57435d,9jbfbgmx05,Nick_Dissertation_EX1,1,126,2020-07-08T14:54:36-07:00,7.9958620071411,3,versionC_stim.csv,READVersionC.csv,"Read Version C","Dissertation, read only version C",SODA,POP,Study1,S,56,59,Test,User,-,,Recall,Recall1,7580,sprite,22.222222222222,5301,7413,0,0,,1
5ee0ea4b6f43d80a4e57435d,9jbfbgmx05,Nick_Dissertation_EX1,1,127,2020-07-08T14:54:42-07:00,6.4651701450348,3,versionC_stim.csv,READVersionC.csv,"Read Version C","Dissertation, read only version C",HAND,FIX,Study1,U,75,67,Test,User,-,,Recall,Recall1,6072,hold,0,5273,5923,0,0,,1
5ee0ea4b6f43d80a4e57435d,9jbfbgmx05,Nick_Dissertation_EX1,1,128,2020-07-08T14:54:46-07:00,4.037036895752,3,versionC_stim.csv,READVersionC.csv,"Read Version C","Dissertation, read only version C",CARD,CREDIT,Study1,B,23,44,Test,User,-,,Recall,Recall1,3619,reader,50,2323,3087,0,0,,1
5ee0ea4b6f43d80a4e57435d,9jbfbgmx05,Nick_Dissertation_EX1,1,129,2020-07-08T14:54:51-07:00,4.6923651695251,3,versionC_stim.csv,READVersionC.csv,"Read Version C","Dissertation, read only version C",PLANT,ROOT,Study1,B,13,18,Test,User,-,,Recall,Recall1,4321,growth,60,2356,3920,0,0,,1
5ee0ea4b6f43d80a4e57435d,9jbfbgmx05,Nick_Dissertation_EX1,1,130,2020-07-08T14:54:56-07:00,4.8323979377747,3,versionC_stim.csv,READVersionC.csv,"Read Version C","Dissertation, read only version C",DROWSY,SLEEP,Study1,F,41,73,Test,User,-,,Recall,Recall1,4458,sleepy,90.909090909091,2076,3870,0,1,,1
5ee0ea4b6f43d80a4e57435d,9jbfbgmx05,Nick_Dissertation_EX1,1,131,2020-07-08T14:54:59-07:00,2.747997045517,3,versionC_stim.csv,READVersionC.csv,"Read Version C","Dissertation, read only version C",PILOT,PLANE,Study1,F,44,11,Test,User,-,,Recall,Recall1,2366,plane,100,1284,1886,1,1,,1
5ee0ea4b6f43d80a4e57435d,9jbfbgmx05,Nick_Dissertation_EX1,1,132,2020-07-08T14:55:03-07:00,4.5704770088196,3,versionC_stim.csv,READVersionC.csv,"Read Version C","Dissertation, read only version C",SEIZE,TAKE,Study1,F,29,45,Test,User,-,,Recall,Recall1,4182,win,0,3636,3884,0,0,,1
5ee0ea4b6f43d80a4e57435d,9jbfbgmx05,Nick_Dissertation_EX1,1,133,2020-07-08T14:55:06-07:00,2.7327899932861,3,versionC_stim.csv,READVersionC.csv,"Read Version C","Dissertation, read only version C",WATER,BRIDGE,Study1,B,18,40,Test,User,-,,Recall,Recall1,2272,,0,-1,-1,0,0,,1
5ee0ea4b6f43d80a4e57435d,9jbfbgmx05,Nick_Dissertation_EX1,1,134,2020-07-08T14:55:13-07:00,6.6699028015137,3,versionC_stim.csv,READVersionC.csv,"Read Version C","Dissertation, read only version C",ADD,VALLEY,Study1,U,82,43,Test,User,-,,Recall,Recall1,6272,subtract,14.285714285714,3070,5933,0,0,,1
5ee0ea4b6f43d80a4e57435d,9jbfbgmx05,Nick_Dissertation_EX1,1,135,2020-07-08T14:55:18-07:00,4.9322240352631,3,versionC_stim.csv,READVersionC.csv,"Read Version C","Dissertation, read only version C",WAR,REVOLUTION,Study1,B,20,8,Test,User,-,,Recall,Recall1,4551,conflict,22.222222222222,2156,4416,0,0,,1
5ee0ea4b6f43d80a4e57435d,9jbfbgmx05,Nick_Dissertation_EX1,1,136,2020-07-08T14:55:21-07:00,3.5403010845184,3,versionC_stim.csv,READVersionC.csv,"Read Version C","Dissertation, read only version C",ROUND,CIRCLE,Study1,S,65,63,Test,User,-,,Recall,Recall1,3145,,0,-1,-1,0,0,,1
5ee0ea4b6f43d80a4e57435d,9jbfbgmx05,Nick_Dissertation_EX1,1,137,2020-07-08T14:55:24-07:00,2.6184990406036,3,versionC_stim.csv,READVersionC.csv,"Read Version C","Dissertation, read only version C",CHILI,HOT,Study1,F,37,75,Test,User,-,,Recall,Recall1,2260,hot,100,1501,2005,1,1,,1
5ee0ea4b6f43d80a4e57435d,9jbfbgmx05,Nick_Dissertation_EX1,1,138,2020-07-08T14:55:30-07:00,6.0518460273743,3,versionC_stim.csv,READVersionC.csv,"Read Version C","Dissertation, read only version C",CHILD,BABY,Study1,S,64,81,Test,User,-,,Recall,Recall1,5675,adult,22.222222222222,1741,5542,0,0,,1
5ee0ea4b6f43d80a4e57435d,9jbfbgmx05,Nick_Dissertation_EX1,1,139,2020-07-08T14:55:34-07:00,3.8943560123444,3,versionC_stim.csv,READVersionC.csv,"Read Version C","Dissertation, read only version C",RIDDLE,SUGAR,Study1,U,81,62,Test,User,-,,Recall,Recall1,3513,rhyme,20,2343,3123,0,0,,1
5ee0ea4b6f43d80a4e57435d,9jbfbgmx05,Nick_Dissertation_EX1,1,140,2020-07-08T14:55:59-07:00,25.372210979462,3,versionC_stim.csv,READVersionC.csv,"Read Version C","Dissertation, read only version C",BAD,DELINQUENT,Study1,B,6,21,Test,User,-,,Recall,Recall1,24986,delinquent,100,1675,24873,1,1,,0.827
5ee0ea4b6f43d80a4e57435d,9jbfbgmx05,Nick_Dissertation_EX1,1,141,2020-07-08T14:56:05-07:00,6.0799548625946,3,versionC_stim.csv,READVersionC.csv,"Read Version C","Dissertation, read only version C",DESIGN,ARCHITECTURE,Study1,S,51,9,Test,User,-,,Recall,Recall1,5666,architecture,100,1924,5069,1,1,,1
5ee0ea4b6f43d80a4e57435d,9jbfbgmx05,Nick_Dissertation_EX1,1,142,2020-07-08T14:56:08-07:00,3.1676690578461,3,versionC_stim.csv,READVersionC.csv,"Read Version C","Dissertation, read only version C",BIRD,SWAN,Study1,B,14,61,Test,User,-,,Recall,Recall1,2790,fly,0,1975,2597,0,0,,1
5ee0ea4b6f43d80a4e57435d,9jbfbgmx05,Nick_Dissertation_EX1,1,143,2020-07-08T14:56:12-07:00,3.4402809143066,3,versionC_stim.csv,READVersionC.csv,"Read Version C","Dissertation, read only version C",POSITION,MACHINE,Study1,U,76,60,Test,User,-,,Recall,Recall1,3060,,0,-1,-1,0,0,,1
5ee0ea4b6f43d80a4e57435d,9jbfbgmx05,Nick_Dissertation_EX1,1,144,2020-07-08T14:56:17-07:00,4.7641730308533,3,versionC_stim.csv,READVersionC.csv,"Read Version C","Dissertation, read only version C",FISH,TUNA,Study1,B,25,48,Test,User,-,,Recall,Recall1,4408,tuna,100,2163,4178,1,1,,1
5ee0ea4b6f43d80a4e57435d,9jbfbgmx05,Nick_Dissertation_EX1,1,145,2020-07-08T14:56:21-07:00,4.8310949802399,3,versionC_stim.csv,READVersionC.csv,"Read Version C","Dissertation, read only version C",BUSINESS,DEATH,Study1,U,72,35,Test,User,-,,Recall,Recall1,4475,company,16.666666666667,2674,4067,0,0,,1
5ee0ea4b6f43d80a4e57435d,9jbfbgmx05,Nick_Dissertation_EX1,1,146,2020-07-08T14:56:25-07:00,3.8371541500092,3,versionC_stim.csv,READVersionC.csv,"Read Version C","Dissertation, read only version C",COLD,BITTER,Study1,B,12,41,Test,User,-,,Recall,Recall1,3453,warm,20,2057,3137,0,0,,1
5ee0ea4b6f43d80a4e57435d,9jbfbgmx05,Nick_Dissertation_EX1,1,147,2020-07-08T14:56:29-07:00,3.3642239570618,3,versionC_stim.csv,READVersionC.csv,"Read Version C","Dissertation, read only version C",FOOT,SHOE,Study1,S,60,22,Test,User,-,,Recall,Recall1,3010,arm,0,2005,2480,0,0,,1
5ee0ea4b6f43d80a4e57435d,9jbfbgmx05,Nick_Dissertation_EX1,1,148,2020-07-08T14:56:33-07:00,4.0694839954376,3,versionC_stim.csv,READVersionC.csv,"Read Version C","Dissertation, read only version C",MONEY,WAGE,Study1,B,8,82,Test,User,-,,Recall,Recall1,3713,rich,0,2581,3355,0,0,,1
5ee0ea4b6f43d80a4e57435d,9jbfbgmx05,Nick_Dissertation_EX1,1,149,2020-07-08T14:56:36-07:00,3.5746209621429,3,versionC_stim.csv,READVersionC.csv,"Read Version C","Dissertation, read only version C",DOG,PAW,Study1,B,15,25,Test,User,-,,Recall,Recall1,3192,cat,33.333333333333,2038,3071,0,0,,1
5ee0ea4b6f43d80a4e57435d,9jbfbgmx05,Nick_Dissertation_EX1,1,150,2020-07-08T14:56:38-07:00,1.4977910518646,3,versionC_stim.csv,READVersionC.csv,"Read Version C","Dissertation, read only version C",ENOUGH,FULL,Study1,F,26,38,Test,User,-,,Recall,Recall1,1113,,0,-1,-1,0,0,,1
5ee0ea4b6f43d80a4e57435d,9jbfbgmx05,Nick_Dissertation_EX1,1,151,2020-07-08T14:56:41-07:00,3.1178278923035,3,versionC_stim.csv,READVersionC.csv,"Read Version C","Dissertation, read only version C",FAMINE,HUNGER,Study1,F,40,7,Test,User,-,,Recall,Recall1,2745,war,22.222222222222,2092,2347,0,0,,1
5ee0ea4b6f43d80a4e57435d,9jbfbgmx05,Nick_Dissertation_EX1,1,152,2020-07-08T14:56:45-07:00,4.1342470645905,3,versionC_stim.csv,READVersionC.csv,"Read Version C","Dissertation, read only version C",WORD,SENTENCE,Study1,F,31,49,Test,User,-,,Recall,Recall1,3781,sentence,100,1638,3323,1,1,,1
5ee0ea4b6f43d80a4e57435d,9jbfbgmx05,Nick_Dissertation_EX1,1,153,2020-07-08T14:56:49-07:00,4.2866249084473,3,versionC_stim.csv,READVersionC.csv,"Read Version C","Dissertation, read only version C",FLOOR,DISCOVER,Study1,U,71,51,Test,User,-,,Recall,Recall1,3930,roof,16.666666666667,1499,3735,0,0,,1
5ee0ea4b6f43d80a4e57435d,9jbfbgmx05,Nick_Dissertation_EX1,1,154,2020-07-08T14:56:52-07:00,2.9240050315857,3,versionC_stim.csv,READVersionC.csv,"Read Version C","Dissertation, read only version C",ROCK,GEOLOGY,Study1,B,19,33,Test,User,-,,Recall,Recall1,2563,stone,16.666666666667,1392,2386,0,0,,1
5ee0ea4b6f43d80a4e57435d,9jbfbgmx05,Nick_Dissertation_EX1,1,155,2020-07-08T14:56:56-07:00,3.3570630550385,3,versionC_stim.csv,READVersionC.csv,"Read Version C","Dissertation, read only version C",RACKET,BALL,Study1,F,38,26,Test,User,-,,Recall,Recall1,2995,tennis,0,1385,2716,0,0,,1
5ee0ea4b6f43d80a4e57435d,9jbfbgmx05,Nick_Dissertation_EX1,1,156,2020-07-08T14:56:58-07:00,2.8057041168213,3,versionC_stim.csv,READVersionC.csv,"Read Version C","Dissertation, read only version C",END,BEGIN,Study1,S,54,70,Test,User,-,,Recall,Recall1,2422,start,0,1281,1858,0,0,,1
5ee0ea4b6f43d80a4e57435d,9jbfbgmx05,Nick_Dissertation_EX1,1,157,2020-07-08T14:57:02-07:00,3.7242419719696,3,versionC_stim.csv,READVersionC.csv,"Read Version C","Dissertation, read only version C",TALK,DISCUSSION,Study1,B,21,17,Test,User,-,,Recall,Recall1,3342,speak,13.333333333333,2198,3057,0,0,,1
5ee0ea4b6f43d80a4e57435d,9jbfbgmx05,Nick_Dissertation_EX1,1,158,2020-07-08T14:57:07-07:00,5.3165919780731,3,versionC_stim.csv,READVersionC.csv,"Read Version C","Dissertation, read only version C",TOILET,BATHROOM,Study1,S,58,56,Test,User,-,,Recall,Recall1,4964,wash,33.333333333333,3698,4617,0,0,,1
5ee0ea4b6f43d80a4e57435d,9jbfbgmx05,Nick_Dissertation_EX1,1,159,2020-07-08T14:57:14-07:00,6.1249358654022,3,versionC_stim.csv,READVersionC.csv,"Read Version C","Dissertation, read only version C",WASP,BUG,Study1,F,32,64,Test,User,-,,Recall,Recall1,5762,bee,33.333333333333,2528,5589,0,0,,1
5ee0ea4b6f43d80a4e57435d,9jbfbgmx05,Nick_Dissertation_EX1,1,160,2020-07-08T14:57:17-07:00,3.8539459705353,3,versionC_stim.csv,READVersionC.csv,"Read Version C","Dissertation, read only version C",WOMAN,LIFT,Study1,U,69,80,Test,User,-,,Recall,Recall1,3470,men,0,2986,3174,0,0,,1
5ee0ea4b6f43d80a4e57435d,9jbfbgmx05,Nick_Dissertation_EX1,1,161,2020-07-08T14:57:21-07:00,3.8311622142792,3,versionC_stim.csv,READVersionC.csv,"Read Version C","Dissertation, read only version C",VASE,KING,Study1,U,85,72,Test,User,-,,Recall,Recall1,3412,crack,22.222222222222,2221,3104,0,0,,1
5ee0ea4b6f43d80a4e57435d,9jbfbgmx05,Nick_Dissertation_EX1,1,162,2020-07-08T14:57:23-07:00,1.9940979480743,3,versionC_stim.csv,READVersionC.csv,"Read Version C","Dissertation, read only version C",ACCIDENT,STRONG,Study1,U,80,19,Test,User,-,,Recall,Recall1,1640,,0,-1,-1,0,0,,1
5ee0ea4b6f43d80a4e57435d,9jbfbgmx05,Nick_Dissertation_EX1,1,163,2020-07-08T14:57:29-07:00,5.9257688522339,3,versionC_stim.csv,READVersionC.csv,"Read Version C","Dissertation, read only version C",BEE,HONEY,Study1,S,63,65,Test,User,-,,Recall,Recall1,5539,wasp,0,2230,5023,0,0,,1
5ee0ea4b6f43d80a4e57435d,9jbfbgmx05,Nick_Dissertation_EX1,1,164,2020-07-08T14:57:32-07:00,2.7209360599518,3,versionC_stim.csv,READVersionC.csv,"Read Version C","Dissertation, read only version C",LATCH,KEY,Study1,F,36,66,Test,User,-,,Recall,Recall1,2353,,0,-1,-1,0,0,,1
5ee0ea4b6f43d80a4e57435d,9jbfbgmx05,Nick_Dissertation_EX1,1,165,2020-07-08T14:57:35-07:00,2.9326491355896,3,versionC_stim.csv,READVersionC.csv,"Read Version C","Dissertation, read only version C",BRONZE,ARTERY,Study1,U,74,20,Test,User,-,,Recall,Recall1,2555,silver,33.333333333333,1112,2446,0,0,,1
5ee0ea4b6f43d80a4e57435d,9jbfbgmx05,Nick_Dissertation_EX1,1,166,2020-07-08T14:57:38-07:00,3.3053159713745,3,versionC_stim.csv,READVersionC.csv,"Read Version C","Dissertation, read only version C",LIVER,KIDNEY,Study1,S,53,86,Test,User,-,,Recall,Recall1,2906,heart,18.181818181818,1569,2781,0,0,,1
5ee0ea4b6f43d80a4e57435d,9jbfbgmx05,Nick_Dissertation_EX1,1,167,2020-07-08T14:57:40-07:00,1.5765719413757,3,versionC_stim.csv,READVersionC.csv,"Read Version C","Dissertation, read only version C",BLAZE,FIRE,Study1,F,45,29,Test,User,-,,Recall,Recall1,1176,,0,-1,-1,0,0,,1
5ee0ea4b6f43d80a4e57435d,9jbfbgmx05,Nick_Dissertation_EX1,1,168,2020-07-08T14:57:45-07:00,5.7685489654541,3,versionC_stim.csv,READVersionC.csv,"Read Version C","Dissertation, read only version C",STOMACH,DIGESTION,Study1,B,7,36,Test,User,-,,Recall,Recall1,5399,digestion,100,3231,5072,1,1,,1
5ee0ea4b6f43d80a4e57435d,9jbfbgmx05,Nick_Dissertation_EX1,1,169,2020-07-08T14:57:48-07:00,2.5772790908813,3,versionC_stim.csv,READVersionC.csv,"Read Version C","Dissertation, read only version C",BELT,SOON,Study1,U,70,10,Test,User,-,,Recall,Recall1,2110,,0,-1,-1,0,0,,1
5ee0ea4b6f43d80a4e57435d,9jbfbgmx05,Nick_Dissertation_EX1,1,170,2020-07-08T14:57:52-07:00,3.884526014328,3,versionC_stim.csv,READVersionC.csv,"Read Version C","Dissertation, read only version C",CHEESE,WINE,Study1,S,57,31,Test,User,-,,Recall,Recall1,3438,wine,100,2716,3160,1,1,,1
5ee0ea4b6f43d80a4e57435d,9jbfbgmx05,Nick_Dissertation_EX1,1,171,2020-07-08T14:58:02-07:00,9.7503788471222,3,versionC_stim.csv,READVersionC.csv,"Read Version C","Dissertation, read only version C",ATTORNEY,LAW,Study1,F,34,69,Test,User,-,,Recall,Recall1,1873,,0,-1,-1,0,0,,1
5ee0ea4b6f43d80a4e57435d,9jbfbgmx05,Nick_Dissertation_EX1,1,172,2020-07-08T14:58:21-07:00,19.786400079727,3,versionC_stim.csv,READVersionC.csv,"Read Version C","Dissertation, read only version C",CAR,HAPPY,Study1,U,77,23,Test,User,-,,Recall,Recall1,19264,vehicle,16.666666666667,2027,19030,0,0,,0.828
5ee0ea4b6f43d80a4e57435d,9jbfbgmx05,Nick_Dissertation_EX1,1,173,2020-07-08T14:58:25-07:00,3.4832270145416,3,versionC_stim.csv,READVersionC.csv,"Read Version C","Dissertation, read only version C",FLOWER,ORCHID,Study1,B,24,71,Test,User,-,,Recall,Recall1,3080,plant,0,1794,2521,0,0,,1
5ee0ea4b6f43d80a4e57435d,9jbfbgmx05,Nick_Dissertation_EX1,1,174,2020-07-08T14:58:30-07:00,5.4220650196075,3,versionC_stim.csv,READVersionC.csv,"Read Version C","Dissertation, read only version C",FANTASTIC,GREAT,Study1,F,35,74,Test,User,-,,Recall,Recall1,5048,excellent,28.571428571429,2819,4693,0,0,,1
5ee0ea4b6f43d80a4e57435d,9jbfbgmx05,Nick_Dissertation_EX1,1,175,2020-07-08T14:58:41-07:00,10.892513036728,3,versionC_stim.csv,READVersionC.csv,"Read Version C","Dissertation, read only version C",,,,,,0,Instruct,-,10,"You will now be presented with a new set of word pairs. Please study each pair. Remember that your memory will be tested! When finished, press Enter to move to the next pair.",Initial_Instruct,Instruct4,10502,,,-1,-1,,,,1
5ee0ea4b6f43d80a4e57435d,9jbfbgmx05,Nick_Dissertation_EX1,1,176,2020-07-08T14:58:43-07:00,1.839663028717,3,versionC_stim.csv,READVersionC.csv,"Read Version C","Dissertation, read only version C",ADVENTURE,CAMP,BUFFER3,Buffer,95,93,Study,User,-,,Study/JOL,BUFFER3,1398,,,-1,-1,,,,1
5ee0ea4b6f43d80a4e57435d,9jbfbgmx05,Nick_Dissertation_EX1,1,177,2020-07-08T14:58:44-07:00,1.2048528194427,3,versionC_stim.csv,READVersionC.csv,"Read Version C","Dissertation, read only version C",STRING,NOODLE,BUFFER3,Buffer,92,94,Study,User,-,,Study/JOL,BUFFER3,803,,,-1,-1,,,,1
5ee0ea4b6f43d80a4e57435d,9jbfbgmx05,Nick_Dissertation_EX1,1,178,2020-07-08T14:58:46-07:00,1.3110461235046,3,versionC_stim.csv,READVersionC.csv,"Read Version C","Dissertation, read only version C",FROZEN,ICE,BUFFER3,Buffer,94,95,Study,User,-,,Study/JOL,BUFFER3,943,,,-1,-1,,,,1
5ee0ea4b6f43d80a4e57435d,9jbfbgmx05,Nick_Dissertation_EX1,1,179,2020-07-08T14:58:47-07:00,1.3022179603577,3,versionC_stim.csv,READVersionC.csv,"Read Version C","Dissertation, read only version C",POTATO,CARROT,BUFFER3,Buffer,91,96,Study,User,-,,Study/JOL,BUFFER3,938,,,-1,-1,,,,1
5ee0ea4b6f43d80a4e57435d,9jbfbgmx05,Nick_Dissertation_EX1,1,180,2020-07-08T14:58:48-07:00,1.12468791008,3,versionC_stim.csv,READVersionC.csv,"Read Version C","Dissertation, read only version C",FISH,SHRIMP,BUFFER3,Buffer,93,92,Study,User,-,,Study/JOL,BUFFER3,773,,,-1,-1,,,,1
5ee0ea4b6f43d80a4e57435d,9jbfbgmx05,Nick_Dissertation_EX1,1,181,2020-07-08T14:58:49-07:00,1.2246580123901,3,versionC_stim.csv,READVersionC.csv,"Read Version C","Dissertation, read only version C",NAP,SLEEP,Study2,F,134,147,Study,User,-,,Study/JOL,"Study Phase2",753,,,-1,-1,,,,1
5ee0ea4b6f43d80a4e57435d,9jbfbgmx05,Nick_Dissertation_EX1,1,182,2020-07-08T14:58:50-07:00,1.0508949756622,3,versionC_stim.csv,READVersionC.csv,"Read Version C","Dissertation, read only version C",HAVE,OWN,Study2,S,153,128,Study,User,-,,Study/JOL,"Study Phase2",674,,,-1,-1,,,,1
5ee0ea4b6f43d80a4e57435d,9jbfbgmx05,Nick_Dissertation_EX1,1,183,2020-07-08T14:58:52-07:00,1.5208780765533,3,versionC_stim.csv,READVersionC.csv,"Read Version C","Dissertation, read only version C",LONG,EXTENSION,Study2,B,96,112,Study,User,-,,Study/JOL,"Study Phase2",1133,,,-1,-1,,,,1
5ee0ea4b6f43d80a4e57435d,9jbfbgmx05,Nick_Dissertation_EX1,1,184,2020-07-08T14:58:53-07:00,1.0655961036682,3,versionC_stim.csv,READVersionC.csv,"Read Version C","Dissertation, read only version C",LIE,TRUTH,Study2,S,148,156,Study,User,-,,Study/JOL,"Study Phase2",699,,,-1,-1,,,,1
5ee0ea4b6f43d80a4e57435d,9jbfbgmx05,Nick_Dissertation_EX1,1,185,2020-07-08T14:58:55-07:00,2.0677850246429,3,versionC_stim.csv,READVersionC.csv,"Read Version C","Dissertation, read only version C",THIMBLE,THREAD,Study2,F,121,106,Study,User,-,,Study/JOL,"Study Phase2",1712,,,-1,-1,,,,1
5ee0ea4b6f43d80a4e57435d,9jbfbgmx05,Nick_Dissertation_EX1,1,186,2020-07-08T14:58:58-07:00,2.9548399448395,3,versionC_stim.csv,READVersionC.csv,"Read Version C","Dissertation, read only version C",OBTAIN,MEAT,Study2,U,161,155,Study,User,-,,Study/JOL,"Study Phase2",2572,,,-1,-1,,,,1
5ee0ea4b6f43d80a4e57435d,9jbfbgmx05,Nick_Dissertation_EX1,1,187,2020-07-08T14:58:59-07:00,1.4000868797302,3,versionC_stim.csv,READVersionC.csv,"Read Version C","Dissertation, read only version C",TRASH,LITTER,Study2,B,103,146,Study,User,-,,Study/JOL,"Study Phase2",1012,,,-1,-1,,,,1
5ee0ea4b6f43d80a4e57435d,9jbfbgmx05,Nick_Dissertation_EX1,1,188,2020-07-08T14:59:00-07:00,1.161630153656,3,versionC_stim.csv,READVersionC.csv,"Read Version C","Dissertation, read only version C",EAT,DINE,Study2,B,111,150,Study,User,-,,Study/JOL,"Study Phase2",783,,,-1,-1,,,,1
5ee0ea4b6f43d80a4e57435d,9jbfbgmx05,Nick_Dissertation_EX1,1,189,2020-07-08T14:59:02-07:00,1.1176698207855,3,versionC_stim.csv,READVersionC.csv,"Read Version C","Dissertation, read only version C",DOG,FURRY,Study2,B,102,104,Study,User,-,,Study/JOL,"Study Phase2",742,,,-1,-1,,,,1
5ee0ea4b6f43d80a4e57435d,9jbfbgmx05,Nick_Dissertation_EX1,1,190,2020-07-08T14:59:03-07:00,1.2513430118561,3,versionC_stim.csv,READVersionC.csv,"Read Version C","Dissertation, read only version C",SHAKE,Shell,Study2,U,163,116,Study,User,-,,Study/JOL,"Study Phase2",869,,,-1,-1,,,,1
5ee0ea4b6f43d80a4e57435d,9jbfbgmx05,Nick_Dissertation_EX1,1,191,2020-07-08T14:59:04-07:00,1.5252151489258,3,versionC_stim.csv,READVersionC.csv,"Read Version C","Dissertation, read only version C",SMELL,INCENSE,Study2,B,110,131,Study,User,-,,Study/JOL,"Study Phase2",1132,,,-1,-1,,,,1
5ee0ea4b6f43d80a4e57435d,9jbfbgmx05,Nick_Dissertation_EX1,1,192,2020-07-08T14:59:05-07:00,1.1637988090515,3,versionC_stim.csv,READVersionC.csv,"Read Version C","Dissertation, read only version C",AWAY,GONE,Study2,S,142,123,Study,User,-,,Study/JOL,"Study Phase2",796,,,-1,-1,,,,1
5ee0ea4b6f43d80a4e57435d,9jbfbgmx05,Nick_Dissertation_EX1,1,193,2020-07-08T14:59:07-07:00,1.2376801967621,3,versionC_stim.csv,READVersionC.csv,"Read Version C","Dissertation, read only version C",PENGUIN,BIRD,Study2,F,119,158,Study,User,-,,Study/JOL,"Study Phase2",887,,,-1,-1,,,,1
5ee0ea4b6f43d80a4e57435d,9jbfbgmx05,Nick_Dissertation_EX1,1,194,2020-07-08T14:59:08-07:00,1.3619778156281,3,versionC_stim.csv,READVersionC.csv,"Read Version C","Dissertation, read only version C",ABLE,CRACKLE,Study2,U,162,163,Study,User,-,,Study/JOL,"Study Phase2",1009,,,-1,-1,,,,1
5ee0ea4b6f43d80a4e57435d,9jbfbgmx05,Nick_Dissertation_EX1,1,195,2020-07-08T14:59:10-07:00,1.4492650032043,3,versionC_stim.csv,READVersionC.csv,"Read Version C","Dissertation, read only version C",AIRCRAFT,PLANE,Study2,F,129,114,Study,User,-,,Study/JOL,"Study Phase2",1068,,,-1,-1,,,,1
5ee0ea4b6f43d80a4e57435d,9jbfbgmx05,Nick_Dissertation_EX1,1,196,2020-07-08T14:59:11-07:00,1.4481639862061,3,versionC_stim.csv,READVersionC.csv,"Read Version C","Dissertation, read only version C",HEAD,SCALP,Study2,B,105,154,Study,User,-,,Study/JOL,"Study Phase2",1085,,,-1,-1,,,,1
5ee0ea4b6f43d80a4e57435d,9jbfbgmx05,Nick_Dissertation_EX1,1,197,2020-07-08T14:59:12-07:00,1.2854721546173,3,versionC_stim.csv,READVersionC.csv,"Read Version C","Dissertation, read only version C",FLIP,TURN,Study2,F,116,110,Study,User,-,,Study/JOL,"Study Phase2",902,,,-1,-1,,,,1
5ee0ea4b6f43d80a4e57435d,9jbfbgmx05,Nick_Dissertation_EX1,1,198,2020-07-08T14:59:14-07:00,1.4256548881531,3,versionC_stim.csv,READVersionC.csv,"Read Version C","Dissertation, read only version C",BRAWL,FIGHT,Study2,F,135,100,Study,User,-,,Study/JOL,"Study Phase2",1053,,,-1,-1,,,,1
5ee0ea4b6f43d80a4e57435d,9jbfbgmx05,Nick_Dissertation_EX1,1,199,2020-07-08T14:59:15-07:00,1.7192730903625,3,versionC_stim.csv,READVersionC.csv,"Read Version C","Dissertation, read only version C",Morning,TEMPERATURE,Study2,U,173,137,Study,User,-,,Study/JOL,"Study Phase2",1361,,,-1,-1,,,,1
5ee0ea4b6f43d80a4e57435d,9jbfbgmx05,Nick_Dissertation_EX1,1,200,2020-07-08T14:59:17-07:00,1.2106549739838,3,versionC_stim.csv,READVersionC.csv,"Read Version C","Dissertation, read only version C",COLD,CHILL,Study2,B,114,175,Study,User,-,,Study/JOL,"Study Phase2",854,,,-1,-1,,,,1
5ee0ea4b6f43d80a4e57435d,9jbfbgmx05,Nick_Dissertation_EX1,1,201,2020-07-08T14:59:19-07:00,2.7323880195618,3,versionC_stim.csv,READVersionC.csv,"Read Version C","Dissertation, read only version C",CLOTH,STRETCH,Study2,U,157,173,Study,User,-,,Study/JOL,"Study Phase2",1302,,,-1,-1,,,,1
5ee0ea4b6f43d80a4e57435d,9jbfbgmx05,Nick_Dissertation_EX1,1,202,2020-07-08T14:59:21-07:00,1.4372520446777,3,versionC_stim.csv,READVersionC.csv,"Read Version C","Dissertation, read only version C",NOISE,LOUD,Study2,S,152,117,Study,User,-,,Study/JOL,"Study Phase2",1067,,,-1,-1,,,,1
5ee0ea4b6f43d80a4e57435d,9jbfbgmx05,Nick_Dissertation_EX1,1,203,2020-07-08T14:59:23-07:00,1.7399308681488,3,versionC_stim.csv,READVersionC.csv,"Read Version C","Dissertation, read only version C",TOIL,LEASE,Study2,U,170,98,Study,User,-,,Study/JOL,"Study Phase2",1356,,,-1,-1,,,,1
5ee0ea4b6f43d80a4e57435d,9jbfbgmx05,Nick_Dissertation_EX1,1,204,2020-07-08T14:59:24-07:00,1.3415610790253,3,versionC_stim.csv,READVersionC.csv,"Read Version C","Dissertation, read only version C",WET,DRY,Study2,S,146,149,Study,User,-,,Study/JOL,"Study Phase2",932,,,-1,-1,,,,1
5ee0ea4b6f43d80a4e57435d,9jbfbgmx05,Nick_Dissertation_EX1,1,205,2020-07-08T14:59:26-07:00,2.0935161113739,3,versionC_stim.csv,READVersionC.csv,"Read Version C","Dissertation, read only version C",TEMPER,TANTRUM,Study2,S,154,109,Study,User,-,,Study/JOL,"Study Phase2",1732,,,-1,-1,,,,1
5ee0ea4b6f43d80a4e57435d,9jbfbgmx05,Nick_Dissertation_EX1,1,206,2020-07-08T14:59:30-07:00,3.7288417816162,3,versionC_stim.csv,READVersionC.csv,"Read Version C","Dissertation, read only version C",CHARM,VEHICLE,Study2,U,160,107,Study,User,-,,Study/JOL,"Study Phase2",3372,,,-1,-1,,,,1
5ee0ea4b6f43d80a4e57435d,9jbfbgmx05,Nick_Dissertation_EX1,1,207,2020-07-08T14:59:32-07:00,2.0662150382996,3,versionC_stim.csv,READVersionC.csv,"Read Version C","Dissertation, read only version C",TRUTHFUL,HONEST,Study2,F,133,124,Study,User,-,,Study/JOL,"Study Phase2",1675,,,-1,-1,,,,1
5ee0ea4b6f43d80a4e57435d,9jbfbgmx05,Nick_Dissertation_EX1,1,208,2020-07-08T14:59:33-07:00,1.305762052536,3,versionC_stim.csv,READVersionC.csv,"Read Version C","Dissertation, read only version C",STRAWBERRY,FRUIT,Study2,F,124,129,Study,User,-,,Study/JOL,"Study Phase2",936,,,-1,-1,,,,1
5ee0ea4b6f43d80a4e57435d,9jbfbgmx05,Nick_Dissertation_EX1,1,209,2020-07-08T14:59:34-07:00,1.1616950035095,3,versionC_stim.csv,READVersionC.csv,"Read Version C","Dissertation, read only version C",SCISSORS,SHEARS,Study2,B,112,97,Study,User,-,,Study/JOL,"Study Phase2",811,,,-1,-1,,,,1
5ee0ea4b6f43d80a4e57435d,9jbfbgmx05,Nick_Dissertation_EX1,1,210,2020-07-08T14:59:36-07:00,1.3917019367218,3,versionC_stim.csv,READVersionC.csv,"Read Version C","Dissertation, read only version C",PANTHER,CAT,Study2,F,126,113,Study,User,-,,Study/JOL,"Study Phase2",1026,,,-1,-1,,,,1
5ee0ea4b6f43d80a4e57435d,9jbfbgmx05,Nick_Dissertation_EX1,1,211,2020-07-08T14:59:37-07:00,1.5457830429077,3,versionC_stim.csv,READVersionC.csv,"Read Version C","Dissertation, read only version C",SARDINE,FISH,Study2,F,130,111,Study,User,-,,Study/JOL,"Study Phase2",1086,,,-1,-1,,,,1
5ee0ea4b6f43d80a4e57435d,9jbfbgmx05,Nick_Dissertation_EX1,1,212,2020-07-08T14:59:39-07:00,1.8238871097565,3,versionC_stim.csv,READVersionC.csv,"Read Version C","Dissertation, read only version C",SEATBELT,SAFETY,Study2,S,147,108,Study,User,-,,Study/JOL,"Study Phase2",1427,,,-1,-1,,,,1
5ee0ea4b6f43d80a4e57435d,9jbfbgmx05,Nick_Dissertation_EX1,1,213,2020-07-08T14:59:40-07:00,1.3710598945618,3,versionC_stim.csv,READVersionC.csv,"Read Version C","Dissertation, read only version C",REEL,ROD,Study2,S,150,101,Study,User,-,,Study/JOL,"Study Phase2",991,,,-1,-1,,,,1
5ee0ea4b6f43d80a4e57435d,9jbfbgmx05,Nick_Dissertation_EX1,1,214,2020-07-08T14:59:43-07:00,2.4646000862122,3,versionC_stim.csv,READVersionC.csv,"Read Version C","Dissertation, read only version C",BANKER,MONEY,Study2,F,132,133,Study,User,-,,Study/JOL,"Study Phase2",2072,,,-1,-1,,,,1
5ee0ea4b6f43d80a4e57435d,9jbfbgmx05,Nick_Dissertation_EX1,1,215,2020-07-08T14:59:44-07:00,1.1316449642181,3,versionC_stim.csv,READVersionC.csv,"Read Version C","Dissertation, read only version C",FAVORITE,BEST,Study2,F,125,153,Study,User,-,,Study/JOL,"Study Phase2",760,,,-1,-1,,,,1
5ee0ea4b6f43d80a4e57435d,9jbfbgmx05,Nick_Dissertation_EX1,1,216,2020-07-08T14:59:45-07:00,1.3200850486755,3,versionC_stim.csv,READVersionC.csv,"Read Version C","Dissertation, read only version C",DONKEY,MULE,Study2,B,108,127,Study,User,-,,Study/JOL,"Study Phase2",941,,,-1,-1,,,,1
5ee0ea4b6f43d80a4e57435d,9jbfbgmx05,Nick_Dissertation_EX1,1,217,2020-07-08T14:59:48-07:00,2.3963489532471,3,versionC_stim.csv,READVersionC.csv,"Read Version C","Dissertation, read only version C",COFFIN,DEAD,Study2,F,128,151,Study,User,-,,Study/JOL,"Study Phase2",934,,,-1,-1,,,,1
5ee0ea4b6f43d80a4e57435d,9jbfbgmx05,Nick_Dissertation_EX1,1,218,2020-07-08T14:59:49-07:00,1.6741790771484,3,versionC_stim.csv,READVersionC.csv,"Read Version C","Dissertation, read only version C",CARBON,ELEMENT,Study2,S,141,130,Study,User,-,,Study/JOL,"Study Phase2",1314,,,-1,-1,,,,1
5ee0ea4b6f43d80a4e57435d,9jbfbgmx05,Nick_Dissertation_EX1,1,219,2020-07-08T14:59:51-07:00,1.2356569766998,3,versionC_stim.csv,READVersionC.csv,"Read Version C","Dissertation, read only version C",STEAK,GIVE,Study2,U,158,126,Study,User,-,,Study/JOL,"Study Phase2",870,,,-1,-1,,,,1
5ee0ea4b6f43d80a4e57435d,9jbfbgmx05,Nick_Dissertation_EX1,1,220,2020-07-08T14:59:54-07:00,3.133553981781,3,versionC_stim.csv,READVersionC.csv,"Read Version C","Dissertation, read only version C",END,ADJOURN,Study2,B,101,145,Study,User,-,,Study/JOL,"Study Phase2",1643,,,-1,-1,,,,1
5ee0ea4b6f43d80a4e57435d,9jbfbgmx05,Nick_Dissertation_EX1,1,221,2020-07-08T14:59:56-07:00,2.597708940506,3,versionC_stim.csv,READVersionC.csv,"Read Version C","Dissertation, read only version C",PLANT,CACTUS,Study2,B,98,105,Study,User,-,,Study/JOL,"Study Phase2",2221,,,-1,-1,,,,1
5ee0ea4b6f43d80a4e57435d,9jbfbgmx05,Nick_Dissertation_EX1,1,222,2020-07-08T14:59:58-07:00,1.4787499904633,3,versionC_stim.csv,READVersionC.csv,"Read Version C","Dissertation, read only version C",GAME,CLUE,Study2,B,97,139,Study,User,-,,Study/JOL,"Study Phase2",1110,,,-1,-1,,,,1
5ee0ea4b6f43d80a4e57435d,9jbfbgmx05,Nick_Dissertation_EX1,1,223,2020-07-08T14:59:59-07:00,1.2315099239349,3,versionC_stim.csv,READVersionC.csv,"Read Version C","Dissertation, read only version C",RED,CHERRY,Study2,B,104,170,Study,User,-,,Study/JOL,"Study Phase2",847,,,-1,-1,,,,1
5ee0ea4b6f43d80a4e57435d,9jbfbgmx05,Nick_Dissertation_EX1,1,224,2020-07-08T15:00:01-07:00,1.8785171508789,3,versionC_stim.csv,READVersionC.csv,"Read Version C","Dissertation, read only version C",TICK,FLEA,Study2,S,151,159,Study,User,-,,Study/JOL,"Study Phase2",969,,,-1,-1,,,,1
5ee0ea4b6f43d80a4e57435d,9jbfbgmx05,Nick_Dissertation_EX1,1,225,2020-07-08T15:00:03-07:00,2.0832059383392,3,versionC_stim.csv,READVersionC.csv,"Read Version C","Dissertation, read only version C",OUNCE,BOTH,Study2,U,172,171,Study,User,-,,Study/JOL,"Study Phase2",1713,,,-1,-1,,,,1
5ee0ea4b6f43d80a4e57435d,9jbfbgmx05,Nick_Dissertation_EX1,1,226,2020-07-08T15:00:13-07:00,9.8930370807648,3,versionC_stim.csv,READVersionC.csv,"Read Version C","Dissertation, read only version C",BANG,FUZZY,Study2,U,168,99,Study,User,-,,Study/JOL,"Study Phase2",1941,,,-1,-1,,,,1
5ee0ea4b6f43d80a4e57435d,9jbfbgmx05,Nick_Dissertation_EX1,1,227,2020-07-08T15:00:14-07:00,1.607489824295,3,versionC_stim.csv,READVersionC.csv,"Read Version C","Dissertation, read only version C",SHAVE,RAZOR,Study2,S,136,119,Study,User,-,,Study/JOL,"Study Phase2",1190,,,-1,-1,,,,1
5ee0ea4b6f43d80a4e57435d,9jbfbgmx05,Nick_Dissertation_EX1,1,228,2020-07-08T15:00:16-07:00,1.3589980602264,3,versionC_stim.csv,READVersionC.csv,"Read Version C","Dissertation, read only version C",LOVE,AFFECTION,Study2,B,115,135,Study,User,-,,Study/JOL,"Study Phase2",996,,,-1,-1,,,,1
5ee0ea4b6f43d80a4e57435d,9jbfbgmx05,Nick_Dissertation_EX1,1,229,2020-07-08T15:00:17-07:00,1.2527830600739,3,versionC_stim.csv,READVersionC.csv,"Read Version C","Dissertation, read only version C",TAN,SUN,Study2,S,155,152,Study,User,-,,Study/JOL,"Study Phase2",891,,,-1,-1,,,,1
5ee0ea4b6f43d80a4e57435d,9jbfbgmx05,Nick_Dissertation_EX1,1,230,2020-07-08T15:00:18-07:00,1.292711019516,3,versionC_stim.csv,READVersionC.csv,"Read Version C","Dissertation, read only version C",LONELY,ALONE,Study2,S,145,157,Study,User,-,,Study/JOL,"Study Phase2",921,,,-1,-1,,,,1
5ee0ea4b6f43d80a4e57435d,9jbfbgmx05,Nick_Dissertation_EX1,1,231,2020-07-08T15:00:20-07:00,1.5195059776306,3,versionC_stim.csv,READVersionC.csv,"Read Version C","Dissertation, read only version C",SCAR,MAIN,Study2,U,175,165,Study,User,-,,Study/JOL,"Study Phase2",1148,,,-1,-1,,,,1
5ee0ea4b6f43d80a4e57435d,9jbfbgmx05,Nick_Dissertation_EX1,1,232,2020-07-08T15:00:21-07:00,1.3990030288696,3,versionC_stim.csv,READVersionC.csv,"Read Version C","Dissertation, read only version C",BRACELET,WRIST,Study2,S,140,140,Study,User,-,,Study/JOL,"Study Phase2",1045,,,-1,-1,,,,1
5ee0ea4b6f43d80a4e57435d,9jbfbgmx05,Nick_Dissertation_EX1,1,233,2020-07-08T15:00:23-07:00,1.3943469524384,3,versionC_stim.csv,READVersionC.csv,"Read Version C","Dissertation, read only version C",CUT,CHOP,Study2,B,107,167,Study,User,-,,Study/JOL,"Study Phase2",1032,,,-1,-1,,,,1
5ee0ea4b6f43d80a4e57435d,9jbfbgmx05,Nick_Dissertation_EX1,1,234,2020-07-08T15:00:24-07:00,1.1585478782654,3,versionC_stim.csv,READVersionC.csv,"Read Version C","Dissertation, read only version C",WAX,CANDLE,Study2,S,139,134,Study,User,-,,Study/JOL,"Study Phase2",725,,,-1,-1,,,,1
5ee0ea4b6f43d80a4e57435d,9jbfbgmx05,Nick_Dissertation_EX1,1,235,2020-07-08T15:00:25-07:00,1.1692190170288,3,versionC_stim.csv,READVersionC.csv,"Read Version C","Dissertation, read only version C",JAR,MASON,Study2,S,138,142,Study,User,-,,Study/JOL,"Study Phase2",802,,,-1,-1,,,,1
5ee0ea4b6f43d80a4e57435d,9jbfbgmx05,Nick_Dissertation_EX1,1,236,2020-07-08T15:00:27-07:00,1.74134516716,3,versionC_stim.csv,READVersionC.csv,"Read Version C","Dissertation, read only version C",WINDSHIELD,CAR,Study2,F,117,160,Study,User,-,,Study/JOL,"Study Phase2",1368,,,-1,-1,,,,1
5ee0ea4b6f43d80a4e57435d,9jbfbgmx05,Nick_Dissertation_EX1,1,237,2020-07-08T15:00:29-07:00,2.007887840271,3,versionC_stim.csv,READVersionC.csv,"Read Version C","Dissertation, read only version C",CLEAR,MOAT,Study2,U,169,118,Study,User,-,,Study/JOL,"Study Phase2",1630,,,-1,-1,,,,1
5ee0ea4b6f43d80a4e57435d,9jbfbgmx05,Nick_Dissertation_EX1,1,238,2020-07-08T15:00:31-07:00,1.9590291976929,3,versionC_stim.csv,READVersionC.csv,"Read Version C","Dissertation, read only version C",CLOTHES,CAKE,Study2,U,166,169,Study,User,-,,Study/JOL,"Study Phase2",1554,,,-1,-1,,,,1
5ee0ea4b6f43d80a4e57435d,9jbfbgmx05,Nick_Dissertation_EX1,1,239,2020-07-08T15:00:32-07:00,1.4786667823792,3,versionC_stim.csv,READVersionC.csv,"Read Version C","Dissertation, read only version C",COMMUNICATION,PHONE,Study2,S,149,164,Study,User,-,,Study/JOL,"Study Phase2",1093,,,-1,-1,,,,1
5ee0ea4b6f43d80a4e57435d,9jbfbgmx05,Nick_Dissertation_EX1,1,240,2020-07-08T15:00:34-07:00,1.9201571941376,3,versionC_stim.csv,READVersionC.csv,"Read Version C","Dissertation, read only version C",MAROON,JUSTICE,Study2,U,156,136,Study,User,-,,Study/JOL,"Study Phase2",1540,,,-1,-1,,,,1
5ee0ea4b6f43d80a4e57435d,9jbfbgmx05,Nick_Dissertation_EX1,1,241,2020-07-08T15:00:36-07:00,1.4619250297546,3,versionC_stim.csv,READVersionC.csv,"Read Version C","Dissertation, read only version C",ACTRESS,STAR,Study2,F,120,168,Study,User,-,,Study/JOL,"Study Phase2",1107,,,-1,-1,,,,1
5ee0ea4b6f43d80a4e57435d,9jbfbgmx05,Nick_Dissertation_EX1,1,242,2020-07-08T15:00:37-07:00,1.7839558124542,3,versionC_stim.csv,READVersionC.csv,"Read Version C","Dissertation, read only version C",LEAGUE,BASEBALL,Study2,F,131,122,Study,User,-,,Study/JOL,"Study Phase2",1396,,,-1,-1,,,,1
5ee0ea4b6f43d80a4e57435d,9jbfbgmx05,Nick_Dissertation_EX1,1,243,2020-07-08T15:00:39-07:00,1.7397241592407,3,versionC_stim.csv,READVersionC.csv,"Read Version C","Dissertation, read only version C",MYSTERY,DETECTIVE,Study2,B,100,162,Study,User,-,,Study/JOL,"Study Phase2",1381,,,-1,-1,,,,1
5ee0ea4b6f43d80a4e57435d,9jbfbgmx05,Nick_Dissertation_EX1,1,244,2020-07-08T15:00:41-07:00,1.6612629890442,3,versionC_stim.csv,READVersionC.csv,"Read Version C","Dissertation, read only version C",BREAKABLE,GLASS,Study2,F,127,115,Study,User,-,,Study/JOL,"Study Phase2",1286,,,-1,-1,,,,1
5ee0ea4b6f43d80a4e57435d,9jbfbgmx05,Nick_Dissertation_EX1,1,245,2020-07-08T15:00:42-07:00,1.2100539207458,3,versionC_stim.csv,READVersionC.csv,"Read Version C","Dissertation, read only version C",VILLAIN,BAD,Study2,F,118,172,Study,User,-,,Study/JOL,"Study Phase2",797,,,-1,-1,,,,1
5ee0ea4b6f43d80a4e57435d,9jbfbgmx05,Nick_Dissertation_EX1,1,246,2020-07-08T15:00:43-07:00,1.3816249370575,3,versionC_stim.csv,READVersionC.csv,"Read Version C","Dissertation, read only version C",DRINK,WATER,Study2,S,143,144,Study,User,-,,Study/JOL,"Study Phase2",902,,,-1,-1,,,,1
5ee0ea4b6f43d80a4e57435d,9jbfbgmx05,Nick_Dissertation_EX1,1,247,2020-07-08T15:00:45-07:00,1.1141180992126,3,versionC_stim.csv,READVersionC.csv,"Read Version C","Dissertation, read only version C",ELECTION,MAZE,Study2,U,159,103,Study,User,-,,Study/JOL,"Study Phase2",730,,,-1,-1,,,,1
5ee0ea4b6f43d80a4e57435d,9jbfbgmx05,Nick_Dissertation_EX1,1,248,2020-07-08T15:00:46-07:00,1.3045229911804,3,versionC_stim.csv,READVersionC.csv,"Read Version C","Dissertation, read only version C",CAR,DRIVER,Study2,B,106,138,Study,User,-,,Study/JOL,"Study Phase2",926,,,-1,-1,,,,1
5ee0ea4b6f43d80a4e57435d,9jbfbgmx05,Nick_Dissertation_EX1,1,249,2020-07-08T15:00:47-07:00,0.97421288490295,3,versionC_stim.csv,READVersionC.csv,"Read Version C","Dissertation, read only version C",SIGN,LOAN,Study2,U,171,143,Study,User,-,,Study/JOL,"Study Phase2",607,,,-1,-1,,,,1
5ee0ea4b6f43d80a4e57435d,9jbfbgmx05,Nick_Dissertation_EX1,1,250,2020-07-08T15:00:48-07:00,1.2337031364441,3,versionC_stim.csv,READVersionC.csv,"Read Version C","Dissertation, read only version C",GROUND,EARTH,Study2,S,144,176,Study,User,-,,Study/JOL,"Study Phase2",782,,,-1,-1,,,,1
5ee0ea4b6f43d80a4e57435d,9jbfbgmx05,Nick_Dissertation_EX1,1,251,2020-07-08T15:00:49-07:00,1.1100740432739,3,versionC_stim.csv,READVersionC.csv,"Read Version C","Dissertation, read only version C",HATE,NAME,Study2,U,167,120,Study,User,-,,Study/JOL,"Study Phase2",739,,,-1,-1,,,,1
5ee0ea4b6f43d80a4e57435d,9jbfbgmx05,Nick_Dissertation_EX1,1,252,2020-07-08T15:00:51-07:00,1.3951117992401,3,versionC_stim.csv,READVersionC.csv,"Read Version C","Dissertation, read only version C",EQUAL,RIGHTS,Study2,S,137,121,Study,User,-,,Study/JOL,"Study Phase2",1022,,,-1,-1,,,,1
5ee0ea4b6f43d80a4e57435d,9jbfbgmx05,Nick_Dissertation_EX1,1,253,2020-07-08T15:00:53-07:00,2.0040721893311,3,versionC_stim.csv,READVersionC.csv,"Read Version C","Dissertation, read only version C",CHILDREN,MIRROR,Study2,U,174,132,Study,User,-,,Study/JOL,"Study Phase2",1631,,,-1,-1,,,,1
5ee0ea4b6f43d80a4e57435d,9jbfbgmx05,Nick_Dissertation_EX1,1,254,2020-07-08T15:00:54-07:00,1.3867018222809,3,versionC_stim.csv,READVersionC.csv,"Read Version C","Dissertation, read only version C",JOKE,KEYS,Study2,U,165,102,Study,User,-,,Study/JOL,"Study Phase2",1015,,,-1,-1,,,,1
5ee0ea4b6f43d80a4e57435d,9jbfbgmx05,Nick_Dissertation_EX1,1,255,2020-07-08T15:00:55-07:00,1.4618201255798,3,versionC_stim.csv,READVersionC.csv,"Read Version C","Dissertation, read only version C",FICTION,LISTEN,Study2,U,164,125,Study,User,-,,Study/JOL,"Study Phase2",1071,,,-1,-1,,,,1
5ee0ea4b6f43d80a4e57435d,9jbfbgmx05,Nick_Dissertation_EX1,1,256,2020-07-08T15:00:57-07:00,1.4351620674133,3,versionC_stim.csv,READVersionC.csv,"Read Version C","Dissertation, read only version C",TIE,SHOELACE,Study2,B,99,161,Study,User,-,,Study/JOL,"Study Phase2",1056,,,-1,-1,,,,1
5ee0ea4b6f43d80a4e57435d,9jbfbgmx05,Nick_Dissertation_EX1,1,257,2020-07-08T15:00:58-07:00,1.3964629173279,3,versionC_stim.csv,READVersionC.csv,"Read Version C","Dissertation, read only version C",BALLOON,POP,Study2,F,123,148,Study,User,-,,Study/JOL,"Study Phase2",1022,,,-1,-1,,,,1
5ee0ea4b6f43d80a4e57435d,9jbfbgmx05,Nick_Dissertation_EX1,1,258,2020-07-08T15:01:01-07:00,2.7345280647278,3,versionC_stim.csv,READVersionC.csv,"Read Version C","Dissertation, read only version C",REVENGE,EVEN,Study2,F,122,174,Study,User,-,,Study/JOL,"Study Phase2",1848,,,-1,-1,,,,1
5ee0ea4b6f43d80a4e57435d,9jbfbgmx05,Nick_Dissertation_EX1,1,259,2020-07-08T15:01:03-07:00,1.5644149780273,3,versionC_stim.csv,READVersionC.csv,"Read Version C","Dissertation, read only version C",FIGHT,FEUD,Study2,B,113,166,Study,User,-,,Study/JOL,"Study Phase2",1196,,,-1,-1,,,,1
5ee0ea4b6f43d80a4e57435d,9jbfbgmx05,Nick_Dissertation_EX1,1,260,2020-07-08T15:01:04-07:00,1.2534749507904,3,versionC_stim.csv,READVersionC.csv,"Read Version C","Dissertation, read only version C",PAPER,DOCUMENT,Study2,B,109,141,Study,User,-,,Study/JOL,"Study Phase2",890,,,-1,-1,,,,1
5ee0ea4b6f43d80a4e57435d,9jbfbgmx05,Nick_Dissertation_EX1,1,261,2020-07-08T15:01:05-07:00,1.3612649440765,3,versionC_stim.csv,READVersionC.csv,"Read Version C","Dissertation, read only version C",YEAR,MONTH,BUFFER4,Buffer,177,177,Study,User,-,,Study/JOL,BUFFER4,948,,,-1,-1,,,,1
5ee0ea4b6f43d80a4e57435d,9jbfbgmx05,Nick_Dissertation_EX1,1,262,2020-07-08T15:01:07-07:00,1.6070001125336,3,versionC_stim.csv,READVersionC.csv,"Read Version C","Dissertation, read only version C",SHED,TOOL,BUFFER4,Buffer,178,180,Study,User,-,,Study/JOL,BUFFER4,1195,,,-1,-1,,,,1
5ee0ea4b6f43d80a4e57435d,9jbfbgmx05,Nick_Dissertation_EX1,1,263,2020-07-08T15:01:09-07:00,2.4030048847198,3,versionC_stim.csv,READVersionC.csv,"Read Version C","Dissertation, read only version C",MARCH,SPRING,BUFFER4,Buffer,179,179,Study,User,-,,Study/JOL,BUFFER4,2032,,,-1,-1,,,,1
5ee0ea4b6f43d80a4e57435d,9jbfbgmx05,Nick_Dissertation_EX1,1,264,2020-07-08T15:01:11-07:00,1.687539100647,3,versionC_stim.csv,READVersionC.csv,"Read Version C","Dissertation, read only version C",SPOOKY,OCTOBER,BUFFER4,Buffer,180,178,Study,User,-,,Study/JOL,BUFFER4,1303,,,-1,-1,,,,1
5ee0ea4b6f43d80a4e57435d,9jbfbgmx05,Nick_Dissertation_EX1,1,265,2020-07-08T15:01:14-07:00,2.7391848564148,3,versionC_stim.csv,READVersionC.csv,"Read Version C","Dissertation, read only version C",WEAKS,DAYS,BUFFER4,Buffer,176,181,Study,User,-,,Study/JOL,BUFFER4,2361,,,-1,-1,,,,1
5ee0ea4b6f43d80a4e57435d,9jbfbgmx05,Nick_Dissertation_EX1,1,266,2020-07-08T15:01:23-07:00,9.4345281124115,3,versionC_stim.csv,READVersionC.csv,"Read Version C","Dissertation, read only version C",,,,,,0,Instruct,User,-,"You have completed this section. Please press Enter.",Filler_Instruction,Instruct5,1945,,,-1,-1,,,,1
5ee0ea4b6f43d80a4e57435d,9jbfbgmx05,Nick_Dissertation_EX1,1,267,2020-07-08T15:03:23-07:00,120.4862818718,3,versionC_stim.csv,READVersionC.csv,"Read Version C","Dissertation, read only version C",,,,,,0,FreeRecall,120,120,"Please list the 50 US states in reverse alphabetical order (z - a). The task will automatically advance to the next screen after two minutes.",,Filler2,120003,"Alabama Alaska Arkansas California Colorado Connecticut Delaware Georgia Hawaii Idaho IllinoisIndiana Maine Maryland Massachusetts Michigan Minnesota Mississippi Missouri MontanaNebraska Nevada New Mexico New York North Carolina North Dakota Ohio Oklahoma Oregon PennsylvaniaRhode Island South Carolina South Dakota Tennessee Texas Virginia Washington",0,-1,-1,0,0,,0.93
5ee0ea4b6f43d80a4e57435d,9jbfbgmx05,Nick_Dissertation_EX1,1,268,2020-07-08T15:03:35-07:00,11.415000200272,3,versionC_stim.csv,READVersionC.csv,"Read Version C","Dissertation, read only version C",,,,,,0,Instruct,-,10,"You will now be presented with the first word from each of the previously studied item pairs. Please type the missing word. If you do not know the word, you may guess or press Enter to skip forward to the next pair.",,Instruct6,11040,,,-1,-1,,,,1
5ee0ea4b6f43d80a4e57435d,9jbfbgmx05,Nick_Dissertation_EX1,1,269,2020-07-08T15:03:39-07:00,3.6182799339294,3,versionC_stim.csv,READVersionC.csv,"Read Version C","Dissertation, read only version C",PANTHER,CAT,Study2,F,126,113,Test,User,-,,Recall,Recall2,3204,cat,100,1906,3058,1,1,,1
5ee0ea4b6f43d80a4e57435d,9jbfbgmx05,Nick_Dissertation_EX1,1,270,2020-07-08T15:03:42-07:00,3.3726530075073,3,versionC_stim.csv,READVersionC.csv,"Read Version C","Dissertation, read only version C",TICK,FLEA,Study2,S,151,159,Test,User,-,,Recall,Recall2,3006,flea,100,2135,2839,1,1,,1
5ee0ea4b6f43d80a4e57435d,9jbfbgmx05,Nick_Dissertation_EX1,1,271,2020-07-08T15:03:49-07:00,7.5878729820251,3,versionC_stim.csv,READVersionC.csv,"Read Version C","Dissertation, read only version C",CLEAR,MOAT,Study2,U,169,118,Test,User,-,,Recall,Recall2,7227,,0,3965,3965,0,0,,1
5ee0ea4b6f43d80a4e57435d,9jbfbgmx05,Nick_Dissertation_EX1,1,272,2020-07-08T15:03:53-07:00,3.1077389717102,3,versionC_stim.csv,READVersionC.csv,"Read Version C","Dissertation, read only version C",LIE,TRUTH,Study2,S,148,156,Test,User,-,,Recall,Recall2,2704,truth,100,1281,2232,1,1,,1
5ee0ea4b6f43d80a4e57435d,9jbfbgmx05,Nick_Dissertation_EX1,1,273,2020-07-08T15:03:59-07:00,6.1912670135498,3,versionC_stim.csv,READVersionC.csv,"Read Version C","Dissertation, read only version C",BRAWL,FIGHT,Study2,F,135,100,Test,User,-,,Recall,Recall2,5817,fight,100,1865,5373,1,1,,1
5ee0ea4b6f43d80a4e57435d,9jbfbgmx05,Nick_Dissertation_EX1,1,274,2020-07-08T15:04:02-07:00,3.1038129329681,3,versionC_stim.csv,READVersionC.csv,"Read Version C","Dissertation, read only version C",SARDINE,FISH,Study2,F,130,111,Test,User,-,,Recall,Recall2,2661,fish,100,1816,2335,1,1,,1
5ee0ea4b6f43d80a4e57435d,9jbfbgmx05,Nick_Dissertation_EX1,1,275,2020-07-08T15:04:05-07:00,3.4317779541016,3,versionC_stim.csv,READVersionC.csv,"Read Version C","Dissertation, read only version C",GAME,CLUE,Study2,B,97,139,Test,User,-,,Recall,Recall2,3052,console,54.545454545455,1753,2866,0,0,,1
5ee0ea4b6f43d80a4e57435d,9jbfbgmx05,Nick_Dissertation_EX1,1,276,2020-07-08T15:04:08-07:00,3.1266121864319,3,versionC_stim.csv,READVersionC.csv,"Read Version C","Dissertation, read only version C",GROUND,EARTH,Study2,S,144,176,Test,User,-,,Recall,Recall2,2751,floor,20,1614,2501,0,0,,1
5ee0ea4b6f43d80a4e57435d,9jbfbgmx05,Nick_Dissertation_EX1,1,277,2020-07-08T15:04:11-07:00,2.1628339290619,3,versionC_stim.csv,READVersionC.csv,"Read Version C","Dissertation, read only version C",CLOTH,STRETCH,Study2,U,157,173,Test,User,-,,Recall,Recall2,1789,,0,-1,-1,0,0,,1
5ee0ea4b6f43d80a4e57435d,9jbfbgmx05,Nick_Dissertation_EX1,1,278,2020-07-08T15:04:17-07:00,6.2503290176392,3,versionC_stim.csv,READVersionC.csv,"Read Version C","Dissertation, read only version C",SIGN,LOAN,Study2,U,171,143,Test,User,-,,Recall,Recall2,5861,write,0,4596,5545,0,0,,1
5ee0ea4b6f43d80a4e57435d,9jbfbgmx05,Nick_Dissertation_EX1,1,279,2020-07-08T15:04:23-07:00,6.4369049072266,3,versionC_stim.csv,READVersionC.csv,"Read Version C","Dissertation, read only version C",CAR,DRIVER,Study2,B,106,138,Test,User,-,,Recall,Recall2,6054,vehicle,30.769230769231,3304,5575,0,0,,1
5ee0ea4b6f43d80a4e57435d,9jbfbgmx05,Nick_Dissertation_EX1,1,280,2020-07-08T15:04:28-07:00,5.069463968277,3,versionC_stim.csv,READVersionC.csv,"Read Version C","Dissertation, read only version C",SCISSORS,SHEARS,Study2,B,112,97,Test,User,-,,Recall,Recall2,4688,chop,20,1199,4388,0,0,,1
5ee0ea4b6f43d80a4e57435d,9jbfbgmx05,Nick_Dissertation_EX1,1,281,2020-07-08T15:04:37-07:00,8.3930480480194,3,versionC_stim.csv,READVersionC.csv,"Read Version C","Dissertation, read only version C",BANKER,MONEY,Study2,F,132,133,Test,User,-,,Recall,Recall2,8003,money,100,6491,7632,1,1,,1
5ee0ea4b6f43d80a4e57435d,9jbfbgmx05,Nick_Dissertation_EX1,1,282,2020-07-08T15:04:42-07:00,4.8400609493256,3,versionC_stim.csv,READVersionC.csv,"Read Version C","Dissertation, read only version C",RED,CHERRY,Study2,B,104,170,Test,User,-,,Recall,Recall2,4450,colour,33.333333333333,2081,4033,0,0,,1
5ee0ea4b6f43d80a4e57435d,9jbfbgmx05,Nick_Dissertation_EX1,1,283,2020-07-08T15:04:45-07:00,3.2145450115204,3,versionC_stim.csv,READVersionC.csv,"Read Version C","Dissertation, read only version C",COFFIN,DEAD,Study2,F,128,151,Test,User,-,,Recall,Recall2,2834,dead,100,1360,2395,1,1,,1
5ee0ea4b6f43d80a4e57435d,9jbfbgmx05,Nick_Dissertation_EX1,1,284,2020-07-08T15:04:52-07:00,6.7088890075684,3,versionC_stim.csv,READVersionC.csv,"Read Version C","Dissertation, read only version C",BANG,FUZZY,Study2,U,168,99,Test,User,-,,Recall,Recall2,6326,,0,4010,4335,0,0,,1
5ee0ea4b6f43d80a4e57435d,9jbfbgmx05,Nick_Dissertation_EX1,1,285,2020-07-08T15:04:57-07:00,5.3108170032501,3,versionC_stim.csv,READVersionC.csv,"Read Version C","Dissertation, read only version C",END,ADJOURN,Study2,B,101,145,Test,User,-,,Recall,Recall2,4920,start,33.333333333333,1396,3935,0,0,,1
5ee0ea4b6f43d80a4e57435d,9jbfbgmx05,Nick_Dissertation_EX1,1,286,2020-07-08T15:05:02-07:00,4.8476021289825,3,versionC_stim.csv,READVersionC.csv,"Read Version C","Dissertation, read only version C",PAPER,DOCUMENT,Study2,B,109,141,Test,User,-,,Recall,Recall2,4414,scissors,12.5,2081,4262,0,0,,1
5ee0ea4b6f43d80a4e57435d,9jbfbgmx05,Nick_Dissertation_EX1,1,287,2020-07-08T15:05:05-07:00,3.5592699050903,3,versionC_stim.csv,READVersionC.csv,"Read Version C","Dissertation, read only version C",JOKE,KEYS,Study2,U,165,102,Test,User,-,,Recall,Recall2,3167,funny,22.222222222222,1196,2559,0,0,,1
5ee0ea4b6f43d80a4e57435d,9jbfbgmx05,Nick_Dissertation_EX1,1,288,2020-07-08T15:05:10-07:00,4.4081909656525,3,versionC_stim.csv,READVersionC.csv,"Read Version C","Dissertation, read only version C",FLIP,TURN,Study2,F,116,110,Test,User,-,,Recall,Recall2,4030,turn,100,2892,3389,1,1,,1
5ee0ea4b6f43d80a4e57435d,9jbfbgmx05,Nick_Dissertation_EX1,1,289,2020-07-08T15:05:13-07:00,3.6847751140594,3,versionC_stim.csv,READVersionC.csv,"Read Version C","Dissertation, read only version C",THIMBLE,THREAD,Study2,F,121,106,Test,User,-,,Recall,Recall2,3305,thread,100,1870,2697,1,1,,1
5ee0ea4b6f43d80a4e57435d,9jbfbgmx05,Nick_Dissertation_EX1,1,290,2020-07-08T15:05:18-07:00,4.2351870536804,3,versionC_stim.csv,READVersionC.csv,"Read Version C","Dissertation, read only version C",SHAVE,RAZOR,Study2,S,136,119,Test,User,-,,Recall,Recall2,3831,razor,100,2506,3479,1,1,,1
5ee0ea4b6f43d80a4e57435d,9jbfbgmx05,Nick_Dissertation_EX1,1,291,2020-07-08T15:05:21-07:00,3.3244779109955,3,versionC_stim.csv,READVersionC.csv,"Read Version C","Dissertation, read only version C",CARBON,ELEMENT,Study2,S,141,130,Test,User,-,,Recall,Recall2,2919,element,100,1246,2465,1,1,,1
5ee0ea4b6f43d80a4e57435d,9jbfbgmx05,Nick_Dissertation_EX1,1,292,2020-07-08T15:05:26-07:00,5.2783739566803,3,versionC_stim.csv,READVersionC.csv,"Read Version C","Dissertation, read only version C",ABLE,CRACKLE,Study2,U,162,163,Test,User,-,,Recall,Recall2,4901,submit,0,3761,4776,0,0,,1
5ee0ea4b6f43d80a4e57435d,9jbfbgmx05,Nick_Dissertation_EX1,1,293,2020-07-08T15:05:29-07:00,2.4963099956512,3,versionC_stim.csv,READVersionC.csv,"Read Version C","Dissertation, read only version C",REEL,ROD,Study2,S,150,101,Test,User,-,,Recall,Recall2,2122,rod,100,1527,1977,1,1,,1
5ee0ea4b6f43d80a4e57435d,9jbfbgmx05,Nick_Dissertation_EX1,1,294,2020-07-08T15:05:32-07:00,3.3683500289917,3,versionC_stim.csv,READVersionC.csv,"Read Version C","Dissertation, read only version C",SHAKE,Shell,Study2,U,163,116,Test,User,-,,Recall,Recall2,2990,nod,0,2115,2564,0,0,,1
5ee0ea4b6f43d80a4e57435d,9jbfbgmx05,Nick_Dissertation_EX1,1,295,2020-07-08T15:05:35-07:00,2.8928439617157,3,versionC_stim.csv,READVersionC.csv,"Read Version C","Dissertation, read only version C",DRINK,WATER,Study2,S,143,144,Test,User,-,,Recall,Recall2,2516,water,100,1604,2368,1,1,,1
5ee0ea4b6f43d80a4e57435d,9jbfbgmx05,Nick_Dissertation_EX1,1,296,2020-07-08T15:05:41-07:00,5.7412919998169,3,versionC_stim.csv,READVersionC.csv,"Read Version C","Dissertation, read only version C",SMELL,INCENSE,Study2,B,110,131,Test,User,-,,Recall,Recall2,5366,stench,30.769230769231,3749,5016,0,0,,1
5ee0ea4b6f43d80a4e57435d,9jbfbgmx05,Nick_Dissertation_EX1,1,297,2020-07-08T15:05:44-07:00,2.9852981567383,3,versionC_stim.csv,READVersionC.csv,"Read Version C","Dissertation, read only version C",EAT,DINE,Study2,B,111,150,Test,User,-,,Recall,Recall2,2582,food,25,1691,2361,0,0,,1
5ee0ea4b6f43d80a4e57435d,9jbfbgmx05,Nick_Dissertation_EX1,1,298,2020-07-08T15:05:46-07:00,2.7824058532715,3,versionC_stim.csv,READVersionC.csv,"Read Version C","Dissertation, read only version C",WAX,CANDLE,Study2,S,139,134,Test,User,-,,Recall,Recall2,2382,candle,100,1289,2166,1,1,,1
5ee0ea4b6f43d80a4e57435d,9jbfbgmx05,Nick_Dissertation_EX1,1,299,2020-07-08T15:05:53-07:00,6.9289951324463,3,versionC_stim.csv,READVersionC.csv,"Read Version C","Dissertation, read only version C",FAVORITE,BEST,Study2,F,125,153,Test,User,-,,Recall,Recall2,1833,,0,-1,-1,0,0,,1
5ee0ea4b6f43d80a4e57435d,9jbfbgmx05,Nick_Dissertation_EX1,1,300,2020-07-08T15:05:57-07:00,4.0369808673859,3,versionC_stim.csv,READVersionC.csv,"Read Version C","Dissertation, read only version C",CHILDREN,MIRROR,Study2,U,174,132,Test,User,-,,Recall,Recall2,3509,play,0,2512,3119,0,0,,1
5ee0ea4b6f43d80a4e57435d,9jbfbgmx05,Nick_Dissertation_EX1,1,301,2020-07-08T15:06:01-07:00,3.424565076828,3,versionC_stim.csv,READVersionC.csv,"Read Version C","Dissertation, read only version C",AIRCRAFT,PLANE,Study2,F,129,114,Test,User,-,,Recall,Recall2,3033,plane,100,1328,2647,1,1,,1
5ee0ea4b6f43d80a4e57435d,9jbfbgmx05,Nick_Dissertation_EX1,1,302,2020-07-08T15:06:04-07:00,3.4776599407196,3,versionC_stim.csv,READVersionC.csv,"Read Version C","Dissertation, read only version C",HAVE,OWN,Study2,S,153,128,Test,User,-,,Recall,Recall2,3118,take,0,2279,2870,0,0,,1
5ee0ea4b6f43d80a4e57435d,9jbfbgmx05,Nick_Dissertation_EX1,1,303,2020-07-08T15:06:07-07:00,3.0419960021973,3,versionC_stim.csv,READVersionC.csv,"Read Version C","Dissertation, read only version C",CLOTHES,CAKE,Study2,U,166,169,Test,User,-,,Recall,Recall2,2632,,0,-1,-1,0,0,,1
5ee0ea4b6f43d80a4e57435d,9jbfbgmx05,Nick_Dissertation_EX1,1,304,2020-07-08T15:06:12-07:00,4.3070800304413,3,versionC_stim.csv,READVersionC.csv,"Read Version C","Dissertation, read only version C",WET,DRY,Study2,S,146,149,Test,User,-,,Recall,Recall2,3881,water,25,2623,3698,0,0,,1
5ee0ea4b6f43d80a4e57435d,9jbfbgmx05,Nick_Dissertation_EX1,1,305,2020-07-08T15:06:23-07:00,11.292254924774,3,versionC_stim.csv,READVersionC.csv,"Read Version C","Dissertation, read only version C",EQUAL,RIGHTS,Study2,S,137,121,Test,User,-,,Recall,Recall2,10920,same,20,10199,10688,0,0,,1
5ee0ea4b6f43d80a4e57435d,9jbfbgmx05,Nick_Dissertation_EX1,1,306,2020-07-08T15:06:26-07:00,2.7500691413879,3,versionC_stim.csv,READVersionC.csv,"Read Version C","Dissertation, read only version C",OUNCE,BOTH,Study2,U,172,171,Test,User,-,,Recall,Recall2,2361,,0,-1,-1,0,0,,1
5ee0ea4b6f43d80a4e57435d,9jbfbgmx05,Nick_Dissertation_EX1,1,307,2020-07-08T15:06:31-07:00,5.278137922287,3,versionC_stim.csv,READVersionC.csv,"Read Version C","Dissertation, read only version C",AWAY,GONE,Study2,S,142,123,Test,User,-,,Recall,Recall2,4344,towards,18.181818181818,2585,3834,0,0,,1
5ee0ea4b6f43d80a4e57435d,9jbfbgmx05,Nick_Dissertation_EX1,1,308,2020-07-08T15:06:33-07:00,2.4914770126343,3,versionC_stim.csv,READVersionC.csv,"Read Version C","Dissertation, read only version C",DOG,FURRY,Study2,B,102,104,Test,User,-,,Recall,Recall2,2118,cat,0,1261,1511,0,0,,1
5ee0ea4b6f43d80a4e57435d,9jbfbgmx05,Nick_Dissertation_EX1,1,309,2020-07-08T15:06:35-07:00,1.5735991001129,3,versionC_stim.csv,READVersionC.csv,"Read Version C","Dissertation, read only version C",REVENGE,EVEN,Study2,F,122,174,Test,User,-,,Recall,Recall2,1202,,0,-1,-1,0,0,,1
5ee0ea4b6f43d80a4e57435d,9jbfbgmx05,Nick_Dissertation_EX1,1,310,2020-07-08T15:06:39-07:00,3.7721219062805,3,versionC_stim.csv,READVersionC.csv,"Read Version C","Dissertation, read only version C",STEAK,GIVE,Study2,U,158,126,Test,User,-,,Recall,Recall2,3365,eat,28.571428571429,1750,2863,0,0,,1
5ee0ea4b6f43d80a4e57435d,9jbfbgmx05,Nick_Dissertation_EX1,1,311,2020-07-08T15:06:42-07:00,3.0001289844513,3,versionC_stim.csv,READVersionC.csv,"Read Version C","Dissertation, read only version C",LONELY,ALONE,Study2,S,145,157,Test,User,-,,Recall,Recall2,2629,alone,100,1467,2043,1,1,,1
5ee0ea4b6f43d80a4e57435d,9jbfbgmx05,Nick_Dissertation_EX1,1,312,2020-07-08T15:06:45-07:00,3.1251769065857,3,versionC_stim.csv,READVersionC.csv,"Read Version C","Dissertation, read only version C",PLANT,CACTUS,Study2,B,98,105,Test,User,-,,Recall,Recall2,2750,growth,16.666666666667,1312,2353,0,0,,1
5ee0ea4b6f43d80a4e57435d,9jbfbgmx05,Nick_Dissertation_EX1,1,313,2020-07-08T15:06:47-07:00,2.0157279968262,3,versionC_stim.csv,READVersionC.csv,"Read Version C","Dissertation, read only version C",BALLOON,POP,Study2,F,123,148,Test,User,-,,Recall,Recall2,1635,pop,100,1033,1362,1,1,,1
5ee0ea4b6f43d80a4e57435d,9jbfbgmx05,Nick_Dissertation_EX1,1,314,2020-07-08T15:06:50-07:00,3.0382962226868,3,versionC_stim.csv,READVersionC.csv,"Read Version C","Dissertation, read only version C",TRASH,LITTER,Study2,B,103,146,Test,User,-,,Recall,Recall2,2671,rubbish,15.384615384615,1184,2343,0,0,,1
5ee0ea4b6f43d80a4e57435d,9jbfbgmx05,Nick_Dissertation_EX1,1,315,2020-07-08T15:06:53-07:00,2.6444108486176,3,versionC_stim.csv,READVersionC.csv,"Read Version C","Dissertation, read only version C",WINDSHIELD,CAR,Study2,F,117,160,Test,User,-,,Recall,Recall2,2277,car,100,1454,1700,1,1,,1
5ee0ea4b6f43d80a4e57435d,9jbfbgmx05,Nick_Dissertation_EX1,1,316,2020-07-08T15:06:57-07:00,4.165990114212,3,versionC_stim.csv,READVersionC.csv,"Read Version C","Dissertation, read only version C",BRACELET,WRIST,Study2,S,140,140,Test,User,-,,Recall,Recall2,2727,wrist,100,1174,2161,1,1,,1
5ee0ea4b6f43d80a4e57435d,9jbfbgmx05,Nick_Dissertation_EX1,1,317,2020-07-08T15:07:00-07:00,3.1900968551636,3,versionC_stim.csv,READVersionC.csv,"Read Version C","Dissertation, read only version C",HEAD,SCALP,Study2,B,105,154,Test,User,-,,Recall,Recall2,2769,hat,25,2017,2235,0,0,,1
5ee0ea4b6f43d80a4e57435d,9jbfbgmx05,Nick_Dissertation_EX1,1,318,2020-07-08T15:07:04-07:00,3.8856811523438,3,versionC_stim.csv,READVersionC.csv,"Read Version C","Dissertation, read only version C",LEAGUE,BASEBALL,Study2,F,131,122,Test,User,-,,Recall,Recall2,3403,baseball,100,1329,2903,1,1,,1
5ee0ea4b6f43d80a4e57435d,9jbfbgmx05,Nick_Dissertation_EX1,1,319,2020-07-08T15:07:09-07:00,5.2817738056183,3,versionC_stim.csv,READVersionC.csv,"Read Version C","Dissertation, read only version C",JAR,MASON,Study2,S,138,142,Test,User,-,,Recall,Recall2,3827,jam,25,2640,3483,0,0,,1
5ee0ea4b6f43d80a4e57435d,9jbfbgmx05,Nick_Dissertation_EX1,1,320,2020-07-08T15:07:11-07:00,1.6358110904694,3,versionC_stim.csv,READVersionC.csv,"Read Version C","Dissertation, read only version C",TAN,SUN,Study2,S,155,152,Test,User,-,,Recall,Recall2,1248,,0,-1,-1,0,0,,1
5ee0ea4b6f43d80a4e57435d,9jbfbgmx05,Nick_Dissertation_EX1,1,321,2020-07-08T15:07:14-07:00,2.7767910957336,3,versionC_stim.csv,READVersionC.csv,"Read Version C","Dissertation, read only version C",COMMUNICATION,PHONE,Study2,S,149,164,Test,User,-,,Recall,Recall2,2400,phone,100,1335,2205,1,1,,1
5ee0ea4b6f43d80a4e57435d,9jbfbgmx05,Nick_Dissertation_EX1,1,322,2020-07-08T15:07:23-07:00,9.184681892395,3,versionC_stim.csv,READVersionC.csv,"Read Version C","Dissertation, read only version C",COLD,CHILL,Study2,B,114,175,Test,User,-,,Recall,Recall2,7780,freezing,15.384615384615,6120,7442,0,0,,1
5ee0ea4b6f43d80a4e57435d,9jbfbgmx05,Nick_Dissertation_EX1,1,323,2020-07-08T15:07:27-07:00,4.4021260738373,3,versionC_stim.csv,READVersionC.csv,"Read Version C","Dissertation, read only version C",PENGUIN,BIRD,Study2,F,119,158,Test,User,-,,Recall,Recall2,3613,bird,100,1670,3443,1,1,,1
5ee0ea4b6f43d80a4e57435d,9jbfbgmx05,Nick_Dissertation_EX1,1,324,2020-07-08T15:07:32-07:00,5.0701448917389,3,versionC_stim.csv,READVersionC.csv,"Read Version C","Dissertation, read only version C",MYSTERY,DETECTIVE,Study2,B,100,162,Test,User,-,,Recall,Recall2,4692,clue,30.769230769231,3973,4437,0,0,,1
5ee0ea4b6f43d80a4e57435d,9jbfbgmx05,Nick_Dissertation_EX1,1,325,2020-07-08T15:07:41-07:00,8.4361481666565,3,versionC_stim.csv,READVersionC.csv,"Read Version C","Dissertation, read only version C",MAROON,JUSTICE,Study2,U,156,136,Test,User,-,,Recall,Recall2,8052,children,26.666666666667,1716,7659,0,0,,1
5ee0ea4b6f43d80a4e57435d,9jbfbgmx05,Nick_Dissertation_EX1,1,326,2020-07-08T15:07:56-07:00,15.569458007812,3,versionC_stim.csv,READVersionC.csv,"Read Version C","Dissertation, read only version C",NOISE,LOUD,Study2,S,152,117,Test,User,-,,Recall,Recall2,1954,loud,100,1241,1766,1,1,,1
5ee0ea4b6f43d80a4e57435d,9jbfbgmx05,Nick_Dissertation_EX1,1,327,2020-07-08T15:08:05-07:00,8.9754719734192,3,versionC_stim.csv,READVersionC.csv,"Read Version C","Dissertation, read only version C",SCAR,MAIN,Study2,U,175,165,Test,User,-,,Recall,Recall2,8487,forever,0,5072,8249,0,0,,1
5ee0ea4b6f43d80a4e57435d,9jbfbgmx05,Nick_Dissertation_EX1,1,328,2020-07-08T15:08:11-07:00,5.626473903656,3,versionC_stim.csv,READVersionC.csv,"Read Version C","Dissertation, read only version C",DONKEY,MULE,Study2,B,108,127,Test,User,-,,Recall,Recall2,4156,mule,100,1529,3732,1,1,,1
5ee0ea4b6f43d80a4e57435d,9jbfbgmx05,Nick_Dissertation_EX1,1,329,2020-07-08T15:08:14-07:00,3.205442905426,3,versionC_stim.csv,READVersionC.csv,"Read Version C","Dissertation, read only version C",ACTRESS,STAR,Study2,F,120,168,Test,User,-,,Recall,Recall2,2834,actor,44.444444444444,1784,2623,0,0,,1
5ee0ea4b6f43d80a4e57435d,9jbfbgmx05,Nick_Dissertation_EX1,1,330,2020-07-08T15:08:18-07:00,4.079852104187,3,versionC_stim.csv,READVersionC.csv,"Read Version C","Dissertation, read only version C",TIE,SHOELACE,Study2,B,99,161,Test,User,-,,Recall,Recall2,3699,knot,16.666666666667,2870,3570,0,0,,1
5ee0ea4b6f43d80a4e57435d,9jbfbgmx05,Nick_Dissertation_EX1,1,331,2020-07-08T15:08:21-07:00,2.7861039638519,3,versionC_stim.csv,READVersionC.csv,"Read Version C","Dissertation, read only version C",SEATBELT,SAFETY,Study2,S,147,108,Test,User,-,,Recall,Recall2,2380,car,22.222222222222,1790,2007,0,0,,1
5ee0ea4b6f43d80a4e57435d,9jbfbgmx05,Nick_Dissertation_EX1,1,332,2020-07-08T15:08:24-07:00,3.0487930774689,3,versionC_stim.csv,READVersionC.csv,"Read Version C","Dissertation, read only version C",CUT,CHOP,Study2,B,107,167,Test,User,-,,Recall,Recall2,2667,chop,100,1348,2145,1,1,,1
5ee0ea4b6f43d80a4e57435d,9jbfbgmx05,Nick_Dissertation_EX1,1,333,2020-07-08T15:08:27-07:00,2.7193350791931,3,versionC_stim.csv,READVersionC.csv,"Read Version C","Dissertation, read only version C",BREAKABLE,GLASS,Study2,F,127,115,Test,User,-,,Recall,Recall2,2299,glass,100,1382,2127,1,1,,1
5ee0ea4b6f43d80a4e57435d,9jbfbgmx05,Nick_Dissertation_EX1,1,334,2020-07-08T15:08:35-07:00,7.8605148792267,3,versionC_stim.csv,READVersionC.csv,"Read Version C","Dissertation, read only version C",Morning,TEMPERATURE,Study2,U,173,137,Test,User,-,,Recall,Recall2,7461,temprature,95.238095238095,4885,7039,0,1,,1
5ee0ea4b6f43d80a4e57435d,9jbfbgmx05,Nick_Dissertation_EX1,1,335,2020-07-08T15:08:38-07:00,3.6572449207306,3,versionC_stim.csv,READVersionC.csv,"Read Version C","Dissertation, read only version C",LONG,EXTENSION,Study2,B,96,112,Test,User,-,,Recall,Recall2,3275,short,28.571428571429,1968,2713,0,0,,1
5ee0ea4b6f43d80a4e57435d,9jbfbgmx05,Nick_Dissertation_EX1,1,336,2020-07-08T15:08:41-07:00,3.1118760108948,3,versionC_stim.csv,READVersionC.csv,"Read Version C","Dissertation, read only version C",STRAWBERRY,FRUIT,Study2,F,124,129,Test,User,-,,Recall,Recall2,2713,fruit,100,1318,2184,1,1,,1
5ee0ea4b6f43d80a4e57435d,9jbfbgmx05,Nick_Dissertation_EX1,1,337,2020-07-08T15:08:49-07:00,7.7665181159973,3,versionC_stim.csv,READVersionC.csv,"Read Version C","Dissertation, read only version C",TEMPER,TANTRUM,Study2,S,154,109,Test,User,-,,Recall,Recall2,7387,tantrum,100,5184,6868,1,1,,1
5ee0ea4b6f43d80a4e57435d,9jbfbgmx05,Nick_Dissertation_EX1,1,338,2020-07-08T15:08:53-07:00,4.2288620471954,3,versionC_stim.csv,READVersionC.csv,"Read Version C","Dissertation, read only version C",FIGHT,FEUD,Study2,B,113,166,Test,User,-,,Recall,Recall2,3843,brawl,0,1819,2917,0,0,,1
5ee0ea4b6f43d80a4e57435d,9jbfbgmx05,Nick_Dissertation_EX1,1,339,2020-07-08T15:08:58-07:00,4.6676938533783,3,versionC_stim.csv,READVersionC.csv,"Read Version C","Dissertation, read only version C",LOVE,AFFECTION,Study2,B,115,135,Test,User,-,,Recall,Recall2,3755,heart,28.571428571429,2536,3372,0,0,,1
5ee0ea4b6f43d80a4e57435d,9jbfbgmx05,Nick_Dissertation_EX1,1,340,2020-07-08T15:09:01-07:00,3.0947959423065,3,versionC_stim.csv,READVersionC.csv,"Read Version C","Dissertation, read only version C",TRUTHFUL,HONEST,Study2,F,133,124,Test,User,-,,Recall,Recall2,2714,honest,100,1433,2326,1,1,,1
5ee0ea4b6f43d80a4e57435d,9jbfbgmx05,Nick_Dissertation_EX1,1,341,2020-07-08T15:09:06-07:00,4.8986310958862,3,versionC_stim.csv,READVersionC.csv,"Read Version C","Dissertation, read only version C",OBTAIN,MEAT,Study2,U,161,155,Test,User,-,,Recall,Recall2,4506,collect,36.363636363636,1705,4036,0,0,,1
5ee0ea4b6f43d80a4e57435d,9jbfbgmx05,Nick_Dissertation_EX1,1,342,2020-07-08T15:09:08-07:00,2.4516620635986,3,versionC_stim.csv,READVersionC.csv,"Read Version C","Dissertation, read only version C",ELECTION,MAZE,Study2,U,159,103,Test,User,-,,Recall,Recall2,2078,,0,-1,-1,0,0,,1
5ee0ea4b6f43d80a4e57435d,9jbfbgmx05,Nick_Dissertation_EX1,1,343,2020-07-08T15:09:13-07:00,4.6245088577271,3,versionC_stim.csv,READVersionC.csv,"Read Version C","Dissertation, read only version C",FICTION,LISTEN,Study2,U,164,125,Test,User,-,,Recall,Recall2,4259,fake,20,3580,4050,0,0,,1
5ee0ea4b6f43d80a4e57435d,9jbfbgmx05,Nick_Dissertation_EX1,1,344,2020-07-08T15:09:16-07:00,3.0833430290222,3,versionC_stim.csv,READVersionC.csv,"Read Version C","Dissertation, read only version C",VILLAIN,BAD,Study2,F,118,172,Test,User,-,,Recall,Recall2,2670,bad,100,1328,1777,1,1,,1
5ee0ea4b6f43d80a4e57435d,9jbfbgmx05,Nick_Dissertation_EX1,1,345,2020-07-08T15:09:19-07:00,2.7459990978241,3,versionC_stim.csv,READVersionC.csv,"Read Version C","Dissertation, read only version C",CHARM,VEHICLE,Study2,U,160,107,Test,User,-,,Recall,Recall2,2354,,0,-1,-1,0,0,,1
