Username,ID,ExperimentName,Session,Trial,Date,TimeDif,"Condition Number","Stimuli File","Order File","Condition Description","Condition Notes",Stimuli*Cue,Stimuli*Answer,Stimuli*Shuffle,"Stimuli*Stimuli Notes",Stimuli*Value,Procedure*Item,"Procedure*Trial Type","Procedure*Max Time","Procedure*Min Time",Procedure*Text,"Procedure*Procedure Notes",Procedure*Shuffle,Response*RT,Response*Response,Response*Accuracy,Response*RTfirst,Response*RTlast,Response*strictAcc,Response*lenientAcc,Response*focus,Response*Focus
5ee3dc3d8a8aa00bafcfde54,seqze6a1t9,Nick_Dissertation_EX1,1,1,2020-07-08T14:37:01-07:00,15.077575922012,3,versionC_stim.csv,READVersionC.csv,"Read Version C","Dissertation, read only version C",,,,,,0,Instruct,-,10,"Please study each of the following word pairs. Remember that your memory will be tested! When finished, press Enter to move to the next pair.",Initial_Instruct,Instruct1,14654,,,-1,-1,,,,1
5ee3dc3d8a8aa00bafcfde54,seqze6a1t9,Nick_Dissertation_EX1,1,2,2020-07-08T14:37:07-07:00,6.4430289268494,3,versionC_stim.csv,READVersionC.csv,"Read Version C","Dissertation, read only version C",HIDE,SCARE,BUFFER1,Buffer,4,3,Study,User,-,,Study/JOL,BUFFER,5981,,,-1,-1,,,,1
5ee3dc3d8a8aa00bafcfde54,seqze6a1t9,Nick_Dissertation_EX1,1,3,2020-07-08T14:37:46-07:00,38.47700715065,3,versionC_stim.csv,READVersionC.csv,"Read Version C","Dissertation, read only version C",JAM,SPACE,BUFFER1,Buffer,5,5,Study,User,-,,Study/JOL,BUFFER,37978,,,-1,-1,,,,1
5ee3dc3d8a8aa00bafcfde54,seqze6a1t9,Nick_Dissertation_EX1,1,4,2020-07-08T14:37:52-07:00,6.0559258460999,3,versionC_stim.csv,READVersionC.csv,"Read Version C","Dissertation, read only version C",GREEN,TREES,BUFFER1,Buffer,1,2,Study,User,-,,Study/JOL,BUFFER,5583,,,-1,-1,,,,1
5ee3dc3d8a8aa00bafcfde54,seqze6a1t9,Nick_Dissertation_EX1,1,5,2020-07-08T14:37:59-07:00,7.3430440425873,3,versionC_stim.csv,READVersionC.csv,"Read Version C","Dissertation, read only version C",BUTTER,PEANUT,BUFFER1,Buffer,3,6,Study,User,-,,Study/JOL,BUFFER,6902,,,-1,-1,,,,1
5ee3dc3d8a8aa00bafcfde54,seqze6a1t9,Nick_Dissertation_EX1,1,6,2020-07-08T14:38:08-07:00,8.589408159256,3,versionC_stim.csv,READVersionC.csv,"Read Version C","Dissertation, read only version C",CATCHER,BASEBALL,BUFFER1,Buffer,2,4,Study,User,-,,Study/JOL,BUFFER,8137,,,-1,-1,,,,1
5ee3dc3d8a8aa00bafcfde54,seqze6a1t9,Nick_Dissertation_EX1,1,7,2020-07-08T14:38:14-07:00,5.7272958755493,3,versionC_stim.csv,READVersionC.csv,"Read Version C","Dissertation, read only version C",WIND,BLOW,Study1,S,55,53,Study,User,-,,Study/JOL,"Study Phase",5264,,,-1,-1,,,,1
5ee3dc3d8a8aa00bafcfde54,seqze6a1t9,Nick_Dissertation_EX1,1,8,2020-07-08T14:38:23-07:00,9.3489561080933,3,versionC_stim.csv,READVersionC.csv,"Read Version C","Dissertation, read only version C",HAMMER,CHISEL,Study1,B,9,29,Study,User,-,,Study/JOL,"Study Phase",8890,,,-1,-1,,,,1
5ee3dc3d8a8aa00bafcfde54,seqze6a1t9,Nick_Dissertation_EX1,1,9,2020-07-08T14:38:34-07:00,10.625383853912,3,versionC_stim.csv,READVersionC.csv,"Read Version C","Dissertation, read only version C",DEFINITION,MEANING,Study1,S,62,42,Study,User,-,,Study/JOL,"Study Phase",10081,,,-1,-1,,,,1
5ee3dc3d8a8aa00bafcfde54,seqze6a1t9,Nick_Dissertation_EX1,1,10,2020-07-08T14:38:39-07:00,5.8438830375671,3,versionC_stim.csv,READVersionC.csv,"Read Version C","Dissertation, read only version C",LIVER,KIDNEY,Study1,S,53,83,Study,User,-,,Study/JOL,"Study Phase",5385,,,-1,-1,,,,1
5ee3dc3d8a8aa00bafcfde54,seqze6a1t9,Nick_Dissertation_EX1,1,11,2020-07-08T14:38:48-07:00,9.0076329708099,3,versionC_stim.csv,READVersionC.csv,"Read Version C","Dissertation, read only version C",STOMACH,DIGESTION,Study1,B,7,84,Study,User,-,,Study/JOL,"Study Phase",8578,,,-1,-1,,,,1
5ee3dc3d8a8aa00bafcfde54,seqze6a1t9,Nick_Dissertation_EX1,1,12,2020-07-08T14:38:54-07:00,5.5384860038757,3,versionC_stim.csv,READVersionC.csv,"Read Version C","Dissertation, read only version C",HAND,FIX,Study1,U,75,74,Study,User,-,,Study/JOL,"Study Phase",5083,,,-1,-1,,,,1
5ee3dc3d8a8aa00bafcfde54,seqze6a1t9,Nick_Dissertation_EX1,1,13,2020-07-08T14:39:08-07:00,14.236851930618,3,versionC_stim.csv,READVersionC.csv,"Read Version C","Dissertation, read only version C",DROWSY,SLEEP,Study1,F,41,81,Study,User,-,,Study/JOL,"Study Phase",13695,,,-1,-1,,,,1
5ee3dc3d8a8aa00bafcfde54,seqze6a1t9,Nick_Dissertation_EX1,1,14,2020-07-08T14:39:15-07:00,6.7444131374359,3,versionC_stim.csv,READVersionC.csv,"Read Version C","Dissertation, read only version C",FAMINE,HUNGER,Study1,F,40,61,Study,User,-,,Study/JOL,"Study Phase",6279,,,-1,-1,,,,1
5ee3dc3d8a8aa00bafcfde54,seqze6a1t9,Nick_Dissertation_EX1,1,15,2020-07-08T14:39:21-07:00,5.9369559288025,3,versionC_stim.csv,READVersionC.csv,"Read Version C","Dissertation, read only version C",CHEESE,WINE,Study1,S,57,55,Study,User,-,,Study/JOL,"Study Phase",5490,,,-1,-1,,,,1
5ee3dc3d8a8aa00bafcfde54,seqze6a1t9,Nick_Dissertation_EX1,1,16,2020-07-08T14:39:26-07:00,5.1259369850159,3,versionC_stim.csv,READVersionC.csv,"Read Version C","Dissertation, read only version C",WASP,BUG,Study1,F,32,25,Study,User,-,,Study/JOL,"Study Phase",4657,,,-1,-1,,,,1
5ee3dc3d8a8aa00bafcfde54,seqze6a1t9,Nick_Dissertation_EX1,1,17,2020-07-08T14:39:32-07:00,5.5176360607147,3,versionC_stim.csv,READVersionC.csv,"Read Version C","Dissertation, read only version C",SICK,HIDE,Study1,U,84,30,Study,User,-,,Study/JOL,"Study Phase",5080,,,-1,-1,,,,1
5ee3dc3d8a8aa00bafcfde54,seqze6a1t9,Nick_Dissertation_EX1,1,18,2020-07-08T14:39:41-07:00,9.8778009414673,3,versionC_stim.csv,READVersionC.csv,"Read Version C","Dissertation, read only version C",FLOWER,ORCHID,Study1,B,24,64,Study,User,-,,Study/JOL,"Study Phase",9447,,,-1,-1,,,,1
5ee3dc3d8a8aa00bafcfde54,seqze6a1t9,Nick_Dissertation_EX1,1,19,2020-07-08T14:39:50-07:00,8.4621360301971,3,versionC_stim.csv,READVersionC.csv,"Read Version C","Dissertation, read only version C",TALK,DISCUSSION,Study1,B,21,28,Study,User,-,,Study/JOL,"Study Phase",7997,,,-1,-1,,,,1
5ee3dc3d8a8aa00bafcfde54,seqze6a1t9,Nick_Dissertation_EX1,1,20,2020-07-08T14:39:58-07:00,7.6474070549011,3,versionC_stim.csv,READVersionC.csv,"Read Version C","Dissertation, read only version C",ROUND,CIRCLE,Study1,S,65,62,Study,User,-,,Study/JOL,"Study Phase",7031,,,-1,-1,,,,1
5ee3dc3d8a8aa00bafcfde54,seqze6a1t9,Nick_Dissertation_EX1,1,21,2020-07-08T14:40:03-07:00,5.9370179176331,3,versionC_stim.csv,READVersionC.csv,"Read Version C","Dissertation, read only version C",VASE,KING,Study1,U,85,47,Study,User,-,,Study/JOL,"Study Phase",5465,,,-1,-1,,,,1
5ee3dc3d8a8aa00bafcfde54,seqze6a1t9,Nick_Dissertation_EX1,1,22,2020-07-08T14:40:09-07:00,5.8326239585876,3,versionC_stim.csv,READVersionC.csv,"Read Version C","Dissertation, read only version C",FUTURE,PAST,Study1,S,61,38,Study,User,-,,Study/JOL,"Study Phase",5405,,,-1,-1,,,,1
5ee3dc3d8a8aa00bafcfde54,seqze6a1t9,Nick_Dissertation_EX1,1,23,2020-07-08T14:40:16-07:00,6.370863199234,3,versionC_stim.csv,READVersionC.csv,"Read Version C","Dissertation, read only version C",STING,HORNET,Study1,B,11,40,Study,User,-,,Study/JOL,"Study Phase",5927,,,-1,-1,,,,1
5ee3dc3d8a8aa00bafcfde54,seqze6a1t9,Nick_Dissertation_EX1,1,24,2020-07-08T14:40:23-07:00,6.872053861618,3,versionC_stim.csv,READVersionC.csv,"Read Version C","Dissertation, read only version C",WASTE,DUMP,Study1,S,49,19,Study,User,-,,Study/JOL,"Study Phase",6434,,,-1,-1,,,,1
5ee3dc3d8a8aa00bafcfde54,seqze6a1t9,Nick_Dissertation_EX1,1,25,2020-07-08T14:40:30-07:00,7.941967010498,3,versionC_stim.csv,READVersionC.csv,"Read Version C","Dissertation, read only version C",END,BEGIN,Study1,S,54,10,Study,User,-,,Study/JOL,"Study Phase",7507,,,-1,-1,,,,1
5ee3dc3d8a8aa00bafcfde54,seqze6a1t9,Nick_Dissertation_EX1,1,26,2020-07-08T14:40:40-07:00,9.7388939857483,3,versionC_stim.csv,READVersionC.csv,"Read Version C","Dissertation, read only version C",TOILET,BATHROOM,Study1,S,58,31,Study,User,-,,Study/JOL,"Study Phase",9290,,,-1,-1,,,,1
5ee3dc3d8a8aa00bafcfde54,seqze6a1t9,Nick_Dissertation_EX1,1,27,2020-07-08T14:40:48-07:00,7.5740931034088,3,versionC_stim.csv,READVersionC.csv,"Read Version C","Dissertation, read only version C",HUNGRY,PARK,Study1,U,68,76,Study,User,-,,Study/JOL,"Study Phase",5874,,,-1,-1,,,,1
5ee3dc3d8a8aa00bafcfde54,seqze6a1t9,Nick_Dissertation_EX1,1,28,2020-07-08T14:40:53-07:00,5.4999079704285,3,versionC_stim.csv,READVersionC.csv,"Read Version C","Dissertation, read only version C",OUT,WAY,Study1,B,16,27,Study,User,-,,Study/JOL,"Study Phase",5067,,,-1,-1,,,,1
5ee3dc3d8a8aa00bafcfde54,seqze6a1t9,Nick_Dissertation_EX1,1,29,2020-07-08T14:41:03-07:00,9.3330769538879,3,versionC_stim.csv,READVersionC.csv,"Read Version C","Dissertation, read only version C",ATTORNEY,LAW,Study1,F,34,32,Study,User,-,,Study/JOL,"Study Phase",8814,,,-1,-1,,,,1
5ee3dc3d8a8aa00bafcfde54,seqze6a1t9,Nick_Dissertation_EX1,1,30,2020-07-08T14:41:10-07:00,7.2771770954132,3,versionC_stim.csv,READVersionC.csv,"Read Version C","Dissertation, read only version C",RACKET,BALL,Study1,F,38,67,Study,User,-,,Study/JOL,"Study Phase",6829,,,-1,-1,,,,1
5ee3dc3d8a8aa00bafcfde54,seqze6a1t9,Nick_Dissertation_EX1,1,31,2020-07-08T14:41:18-07:00,7.8632488250732,3,versionC_stim.csv,READVersionC.csv,"Read Version C","Dissertation, read only version C",WOMAN,LIFT,Study1,U,69,66,Study,User,-,,Study/JOL,"Study Phase",7435,,,-1,-1,,,,1
5ee3dc3d8a8aa00bafcfde54,seqze6a1t9,Nick_Dissertation_EX1,1,32,2020-07-08T14:41:25-07:00,7.6681621074677,3,versionC_stim.csv,READVersionC.csv,"Read Version C","Dissertation, read only version C",BUSINESS,DEATH,Study1,U,72,21,Study,User,-,,Study/JOL,"Study Phase",7237,,,-1,-1,,,,1
5ee3dc3d8a8aa00bafcfde54,seqze6a1t9,Nick_Dissertation_EX1,1,33,2020-07-08T14:41:37-07:00,11.751717090607,3,versionC_stim.csv,READVersionC.csv,"Read Version C","Dissertation, read only version C",BAD,DELINQUENT,Study1,B,6,86,Study,User,-,,Study/JOL,"Study Phase",11230,,,-1,-1,,,,1
5ee3dc3d8a8aa00bafcfde54,seqze6a1t9,Nick_Dissertation_EX1,1,34,2020-07-08T14:41:43-07:00,5.9343369007111,3,versionC_stim.csv,READVersionC.csv,"Read Version C","Dissertation, read only version C",FOOT,SHOE,Study1,S,60,37,Study,User,-,,Study/JOL,"Study Phase",5497,,,-1,-1,,,,1
5ee3dc3d8a8aa00bafcfde54,seqze6a1t9,Nick_Dissertation_EX1,1,35,2020-07-08T14:41:52-07:00,9.1849451065063,3,versionC_stim.csv,READVersionC.csv,"Read Version C","Dissertation, read only version C",COLD,BITTER,Study1,B,12,85,Study,User,-,,Study/JOL,"Study Phase",8742,,,-1,-1,,,,1
5ee3dc3d8a8aa00bafcfde54,seqze6a1t9,Nick_Dissertation_EX1,1,36,2020-07-08T14:41:58-07:00,5.5812959671021,3,versionC_stim.csv,READVersionC.csv,"Read Version C","Dissertation, read only version C",BEE,HONEY,Study1,S,63,41,Study,User,-,,Study/JOL,"Study Phase",5151,,,-1,-1,,,,1
5ee3dc3d8a8aa00bafcfde54,seqze6a1t9,Nick_Dissertation_EX1,1,37,2020-07-08T14:42:04-07:00,5.9778180122375,3,versionC_stim.csv,READVersionC.csv,"Read Version C","Dissertation, read only version C",SITE,LOCATION,Study1,S,48,75,Study,User,-,,Study/JOL,"Study Phase",5543,,,-1,-1,,,,1
5ee3dc3d8a8aa00bafcfde54,seqze6a1t9,Nick_Dissertation_EX1,1,38,2020-07-08T14:42:08-07:00,4.5809788703918,3,versionC_stim.csv,READVersionC.csv,"Read Version C","Dissertation, read only version C",DOG,PAW,Study1,B,15,65,Study,User,-,,Study/JOL,"Study Phase",4154,,,-1,-1,,,,1
5ee3dc3d8a8aa00bafcfde54,seqze6a1t9,Nick_Dissertation_EX1,1,39,2020-07-08T14:42:16-07:00,7.0601170063019,3,versionC_stim.csv,READVersionC.csv,"Read Version C","Dissertation, read only version C",ATTIRE,CLOTHES,Study1,F,43,24,Study,User,-,,Study/JOL,"Study Phase",6617,,,-1,-1,,,,1
5ee3dc3d8a8aa00bafcfde54,seqze6a1t9,Nick_Dissertation_EX1,1,40,2020-07-08T14:42:23-07:00,7.3351891040802,3,versionC_stim.csv,READVersionC.csv,"Read Version C","Dissertation, read only version C",LATCH,KEY,Study1,F,36,43,Study,User,-,,Study/JOL,"Study Phase",6906,,,-1,-1,,,,1
5ee3dc3d8a8aa00bafcfde54,seqze6a1t9,Nick_Dissertation_EX1,1,41,2020-07-08T14:42:31-07:00,7.8020670413971,3,versionC_stim.csv,READVersionC.csv,"Read Version C","Dissertation, read only version C",CAVE,DARK,Study1,F,28,12,Study,User,-,,Study/JOL,"Study Phase",6362,,,-1,-1,,,,1
5ee3dc3d8a8aa00bafcfde54,seqze6a1t9,Nick_Dissertation_EX1,1,42,2020-07-08T14:42:40-07:00,9.4340767860413,3,versionC_stim.csv,READVersionC.csv,"Read Version C","Dissertation, read only version C",PLANT,ROOT,Study1,B,13,51,Study,User,-,,Study/JOL,"Study Phase",8982,,,-1,-1,,,,1
5ee3dc3d8a8aa00bafcfde54,seqze6a1t9,Nick_Dissertation_EX1,1,43,2020-07-08T14:42:49-07:00,8.8926861286163,3,versionC_stim.csv,READVersionC.csv,"Read Version C","Dissertation, read only version C",FANTASTIC,GREAT,Study1,F,35,50,Study,User,-,,Study/JOL,"Study Phase",8439,,,-1,-1,,,,1
5ee3dc3d8a8aa00bafcfde54,seqze6a1t9,Nick_Dissertation_EX1,1,44,2020-07-08T14:42:56-07:00,7.1835210323334,3,versionC_stim.csv,READVersionC.csv,"Read Version C","Dissertation, read only version C",SALAD,LETTUCE,Study1,S,59,35,Study,User,-,,Study/JOL,"Study Phase",6751,,,-1,-1,,,,1
5ee3dc3d8a8aa00bafcfde54,seqze6a1t9,Nick_Dissertation_EX1,1,45,2020-07-08T14:43:05-07:00,8.7434740066528,3,versionC_stim.csv,READVersionC.csv,"Read Version C","Dissertation, read only version C",CHORE,WORK,Study1,F,39,17,Study,User,-,,Study/JOL,"Study Phase",8289,,,-1,-1,,,,1
5ee3dc3d8a8aa00bafcfde54,seqze6a1t9,Nick_Dissertation_EX1,1,46,2020-07-08T14:43:12-07:00,7.5199859142303,3,versionC_stim.csv,READVersionC.csv,"Read Version C","Dissertation, read only version C",BAR,GRILL,Study1,S,52,73,Study,User,-,,Study/JOL,"Study Phase",7049,,,-1,-1,,,,1
5ee3dc3d8a8aa00bafcfde54,seqze6a1t9,Nick_Dissertation_EX1,1,47,2020-07-08T14:43:20-07:00,7.7592029571533,3,versionC_stim.csv,READVersionC.csv,"Read Version C","Dissertation, read only version C",POSITION,MACHINE,Study1,U,76,54,Study,User,-,,Study/JOL,"Study Phase",7297,,,-1,-1,,,,1
5ee3dc3d8a8aa00bafcfde54,seqze6a1t9,Nick_Dissertation_EX1,1,48,2020-07-08T14:43:25-07:00,5.0097739696503,3,versionC_stim.csv,READVersionC.csv,"Read Version C","Dissertation, read only version C",COW,HERD,Study1,B,22,33,Study,User,-,,Study/JOL,"Study Phase",4553,,,-1,-1,,,,1
5ee3dc3d8a8aa00bafcfde54,seqze6a1t9,Nick_Dissertation_EX1,1,49,2020-07-08T14:43:31-07:00,6.0402410030365,3,versionC_stim.csv,READVersionC.csv,"Read Version C","Dissertation, read only version C",STENCH,SMELL,Study1,F,42,80,Study,User,-,,Study/JOL,"Study Phase",5606,,,-1,-1,,,,1
5ee3dc3d8a8aa00bafcfde54,seqze6a1t9,Nick_Dissertation_EX1,1,50,2020-07-08T14:43:36-07:00,4.8377110958099,3,versionC_stim.csv,READVersionC.csv,"Read Version C","Dissertation, read only version C",BLAZE,FIRE,Study1,F,45,57,Study,User,-,,Study/JOL,"Study Phase",4351,,,-1,-1,,,,1
5ee3dc3d8a8aa00bafcfde54,seqze6a1t9,Nick_Dissertation_EX1,1,51,2020-07-08T14:43:41-07:00,5.2921450138092,3,versionC_stim.csv,READVersionC.csv,"Read Version C","Dissertation, read only version C",LION,ART,Study1,U,79,46,Study,User,-,,Study/JOL,"Study Phase",4859,,,-1,-1,,,,1
5ee3dc3d8a8aa00bafcfde54,seqze6a1t9,Nick_Dissertation_EX1,1,52,2020-07-08T14:43:48-07:00,6.8740270137787,3,versionC_stim.csv,READVersionC.csv,"Read Version C","Dissertation, read only version C",AMOUNT,NUMBER,Study1,S,47,77,Study,User,-,,Study/JOL,"Study Phase",6421,,,-1,-1,,,,1
5ee3dc3d8a8aa00bafcfde54,seqze6a1t9,Nick_Dissertation_EX1,1,53,2020-07-08T14:43:54-07:00,5.5936079025269,3,versionC_stim.csv,READVersionC.csv,"Read Version C","Dissertation, read only version C",JURY,TRIAL,Study1,S,50,16,Study,User,-,,Study/JOL,"Study Phase",5146,,,-1,-1,,,,1
5ee3dc3d8a8aa00bafcfde54,seqze6a1t9,Nick_Dissertation_EX1,1,54,2020-07-08T14:43:56-07:00,2.3287200927734,3,versionC_stim.csv,READVersionC.csv,"Read Version C","Dissertation, read only version C",CAR,HAPPY,Study1,U,77,39,Study,User,-,,Study/JOL,"Study Phase",1878,,,-1,-1,,,,1
5ee3dc3d8a8aa00bafcfde54,seqze6a1t9,Nick_Dissertation_EX1,1,55,2020-07-08T14:44:00-07:00,4.3156230449677,3,versionC_stim.csv,READVersionC.csv,"Read Version C","Dissertation, read only version C",SEIZE,TAKE,Study1,F,29,82,Study,User,-,,Study/JOL,"Study Phase",3867,,,-1,-1,,,,1
5ee3dc3d8a8aa00bafcfde54,seqze6a1t9,Nick_Dissertation_EX1,1,56,2020-07-08T14:44:10-07:00,9.6865270137787,3,versionC_stim.csv,READVersionC.csv,"Read Version C","Dissertation, read only version C",WATER,BRIDGE,Study1,B,18,59,Study,User,-,,Study/JOL,"Study Phase",9260,,,-1,-1,,,,1
5ee3dc3d8a8aa00bafcfde54,seqze6a1t9,Nick_Dissertation_EX1,1,57,2020-07-08T14:44:14-07:00,3.7615118026733,3,versionC_stim.csv,READVersionC.csv,"Read Version C","Dissertation, read only version C",DESIGN,ARCHITECTURE,Study1,S,51,15,Study,User,-,,Study/JOL,"Study Phase",3318,,,-1,-1,,,,1
5ee3dc3d8a8aa00bafcfde54,seqze6a1t9,Nick_Dissertation_EX1,1,58,2020-07-08T14:44:17-07:00,3.3245739936829,3,versionC_stim.csv,READVersionC.csv,"Read Version C","Dissertation, read only version C",BIRD,SWAN,Study1,B,14,56,Study,User,-,,Study/JOL,"Study Phase",2891,,,-1,-1,,,,1
5ee3dc3d8a8aa00bafcfde54,seqze6a1t9,Nick_Dissertation_EX1,1,59,2020-07-08T14:44:20-07:00,2.4644210338593,3,versionC_stim.csv,READVersionC.csv,"Read Version C","Dissertation, read only version C",FISH,TUNA,Study1,B,25,20,Study,User,-,,Study/JOL,"Study Phase",2022,,,-1,-1,,,,1
5ee3dc3d8a8aa00bafcfde54,seqze6a1t9,Nick_Dissertation_EX1,1,60,2020-07-08T14:44:22-07:00,1.8549840450287,3,versionC_stim.csv,READVersionC.csv,"Read Version C","Dissertation, read only version C",SIGHT,DEBATE,Study1,U,73,11,Study,User,-,,Study/JOL,"Study Phase",1432,,,-1,-1,,,,1
5ee3dc3d8a8aa00bafcfde54,seqze6a1t9,Nick_Dissertation_EX1,1,61,2020-07-08T14:44:25-07:00,3.8992829322815,3,versionC_stim.csv,READVersionC.csv,"Read Version C","Dissertation, read only version C",CLUTTER,PUSHER,Study1,U,66,18,Study,User,-,,Study/JOL,"Study Phase",3462,,,-1,-1,,,,1
5ee3dc3d8a8aa00bafcfde54,seqze6a1t9,Nick_Dissertation_EX1,1,62,2020-07-08T14:44:28-07:00,2.2527921199799,3,versionC_stim.csv,READVersionC.csv,"Read Version C","Dissertation, read only version C",NEWS,EDITOR,Study1,B,10,63,Study,User,-,,Study/JOL,"Study Phase",1759,,,-1,-1,,,,1
5ee3dc3d8a8aa00bafcfde54,seqze6a1t9,Nick_Dissertation_EX1,1,63,2020-07-08T14:44:30-07:00,2.4643819332123,3,versionC_stim.csv,READVersionC.csv,"Read Version C","Dissertation, read only version C",GROWTH,HEIGHT,Study1,F,30,44,Study,User,-,,Study/JOL,"Study Phase",1943,,,-1,-1,,,,1
5ee3dc3d8a8aa00bafcfde54,seqze6a1t9,Nick_Dissertation_EX1,1,64,2020-07-08T14:44:34-07:00,3.5912990570068,3,versionC_stim.csv,READVersionC.csv,"Read Version C","Dissertation, read only version C",CHILI,HOT,Study1,F,37,69,Study,User,-,,Study/JOL,"Study Phase",3130,,,-1,-1,,,,1
5ee3dc3d8a8aa00bafcfde54,seqze6a1t9,Nick_Dissertation_EX1,1,65,2020-07-08T14:44:36-07:00,2.5912520885468,3,versionC_stim.csv,READVersionC.csv,"Read Version C","Dissertation, read only version C",MONEY,WAGE,Study1,B,8,13,Study,User,-,,Study/JOL,"Study Phase",1141,,,-1,-1,,,,1
5ee3dc3d8a8aa00bafcfde54,seqze6a1t9,Nick_Dissertation_EX1,1,66,2020-07-08T14:44:38-07:00,1.7379720211029,3,versionC_stim.csv,READVersionC.csv,"Read Version C","Dissertation, read only version C",WORD,SENTENCE,Study1,F,31,78,Study,User,-,,Study/JOL,"Study Phase",1311,,,-1,-1,,,,1
5ee3dc3d8a8aa00bafcfde54,seqze6a1t9,Nick_Dissertation_EX1,1,67,2020-07-08T14:44:40-07:00,1.81218791008,3,versionC_stim.csv,READVersionC.csv,"Read Version C","Dissertation, read only version C",TUCK,ALLOW,Study1,U,78,68,Study,User,-,,Study/JOL,"Study Phase",1372,,,-1,-1,,,,1
5ee3dc3d8a8aa00bafcfde54,seqze6a1t9,Nick_Dissertation_EX1,1,68,2020-07-08T14:44:42-07:00,2.1585779190063,3,versionC_stim.csv,READVersionC.csv,"Read Version C","Dissertation, read only version C",CARD,CREDIT,Study1,B,23,45,Study,User,-,,Study/JOL,"Study Phase",1736,,,-1,-1,,,,1
5ee3dc3d8a8aa00bafcfde54,seqze6a1t9,Nick_Dissertation_EX1,1,69,2020-07-08T14:44:44-07:00,2.287572145462,3,versionC_stim.csv,READVersionC.csv,"Read Version C","Dissertation, read only version C",ADD,VALLEY,Study1,U,82,9,Study,User,-,,Study/JOL,"Study Phase",1776,,,-1,-1,,,,1
5ee3dc3d8a8aa00bafcfde54,seqze6a1t9,Nick_Dissertation_EX1,1,70,2020-07-08T14:44:46-07:00,1.9700407981873,3,versionC_stim.csv,READVersionC.csv,"Read Version C","Dissertation, read only version C",ASSIGNMENT,DUE,Study1,S,46,70,Study,User,-,,Study/JOL,"Study Phase",1554,,,-1,-1,,,,1
5ee3dc3d8a8aa00bafcfde54,seqze6a1t9,Nick_Dissertation_EX1,1,71,2020-07-08T14:44:49-07:00,2.2593131065369,3,versionC_stim.csv,READVersionC.csv,"Read Version C","Dissertation, read only version C",SACKING,DIETARY,Study1,U,67,8,Study,User,-,,Study/JOL,"Study Phase",1780,,,-1,-1,,,,1
5ee3dc3d8a8aa00bafcfde54,seqze6a1t9,Nick_Dissertation_EX1,1,72,2020-07-08T14:44:51-07:00,1.9345710277557,3,versionC_stim.csv,READVersionC.csv,"Read Version C","Dissertation, read only version C",SIP,DRINK,Study1,F,27,34,Study,User,-,,Study/JOL,"Study Phase",1491,,,-1,-1,,,,1
5ee3dc3d8a8aa00bafcfde54,seqze6a1t9,Nick_Dissertation_EX1,1,73,2020-07-08T14:44:52-07:00,1.8678109645844,3,versionC_stim.csv,READVersionC.csv,"Read Version C","Dissertation, read only version C",SODA,POP,Study1,S,56,26,Study,User,-,,Study/JOL,"Study Phase",1436,,,-1,-1,,,,1
5ee3dc3d8a8aa00bafcfde54,seqze6a1t9,Nick_Dissertation_EX1,1,74,2020-07-08T14:44:55-07:00,2.1070740222931,3,versionC_stim.csv,READVersionC.csv,"Read Version C","Dissertation, read only version C",CLEAN,HYGIENE,Study1,B,17,58,Study,User,-,,Study/JOL,"Study Phase",1675,,,-1,-1,,,,1
5ee3dc3d8a8aa00bafcfde54,seqze6a1t9,Nick_Dissertation_EX1,1,75,2020-07-08T14:44:57-07:00,2.0766980648041,3,versionC_stim.csv,READVersionC.csv,"Read Version C","Dissertation, read only version C",CHILD,BABY,Study1,S,64,72,Study,User,-,,Study/JOL,"Study Phase",1504,,,-1,-1,,,,1
5ee3dc3d8a8aa00bafcfde54,seqze6a1t9,Nick_Dissertation_EX1,1,76,2020-07-08T14:44:59-07:00,1.9418609142303,3,versionC_stim.csv,READVersionC.csv,"Read Version C","Dissertation, read only version C",PILOT,PLANE,Study1,F,44,52,Study,User,-,,Study/JOL,"Study Phase",1497,,,-1,-1,,,,1
5ee3dc3d8a8aa00bafcfde54,seqze6a1t9,Nick_Dissertation_EX1,1,77,2020-07-08T14:45:01-07:00,1.9948470592499,3,versionC_stim.csv,READVersionC.csv,"Read Version C","Dissertation, read only version C",BRONZE,ARTERY,Study1,U,74,14,Study,User,-,,Study/JOL,"Study Phase",1558,,,-1,-1,,,,1
5ee3dc3d8a8aa00bafcfde54,seqze6a1t9,Nick_Dissertation_EX1,1,78,2020-07-08T14:45:02-07:00,1.478798866272,3,versionC_stim.csv,READVersionC.csv,"Read Version C","Dissertation, read only version C",WAR,REVOLUTION,Study1,B,20,49,Study,User,-,,Study/JOL,"Study Phase",1052,,,-1,-1,,,,1
5ee3dc3d8a8aa00bafcfde54,seqze6a1t9,Nick_Dissertation_EX1,1,79,2020-07-08T14:45:04-07:00,2.0667130947113,3,versionC_stim.csv,READVersionC.csv,"Read Version C","Dissertation, read only version C",BELT,SOON,Study1,U,70,60,Study,User,-,,Study/JOL,"Study Phase",1631,,,-1,-1,,,,1
5ee3dc3d8a8aa00bafcfde54,seqze6a1t9,Nick_Dissertation_EX1,1,80,2020-07-08T14:45:05-07:00,1.3183789253235,3,versionC_stim.csv,READVersionC.csv,"Read Version C","Dissertation, read only version C",ROCK,GEOLOGY,Study1,B,19,23,Study,User,-,,Study/JOL,"Study Phase",881,,,-1,-1,,,,1
5ee3dc3d8a8aa00bafcfde54,seqze6a1t9,Nick_Dissertation_EX1,1,81,2020-07-08T14:45:08-07:00,2.3816251754761,3,versionC_stim.csv,READVersionC.csv,"Read Version C","Dissertation, read only version C",ACCIDENT,STRONG,Study1,U,80,7,Study,User,-,,Study/JOL,"Study Phase",1926,,,-1,-1,,,,1
5ee3dc3d8a8aa00bafcfde54,seqze6a1t9,Nick_Dissertation_EX1,1,82,2020-07-08T14:45:14-07:00,5.924763917923,3,versionC_stim.csv,READVersionC.csv,"Read Version C","Dissertation, read only version C",WOULD,CASH,Study1,U,83,22,Study,User,-,,Study/JOL,"Study Phase",5460,,,-1,-1,,,,1
5ee3dc3d8a8aa00bafcfde54,seqze6a1t9,Nick_Dissertation_EX1,1,83,2020-07-08T14:45:16-07:00,2.2587139606476,3,versionC_stim.csv,READVersionC.csv,"Read Version C","Dissertation, read only version C",ENOUGH,FULL,Study1,F,26,71,Study,User,-,,Study/JOL,"Study Phase",1777,,,-1,-1,,,,1
5ee3dc3d8a8aa00bafcfde54,seqze6a1t9,Nick_Dissertation_EX1,1,84,2020-07-08T14:45:18-07:00,1.9724519252777,3,versionC_stim.csv,READVersionC.csv,"Read Version C","Dissertation, read only version C",DIVISION,MATH,Study1,F,33,79,Study,User,-,,Study/JOL,"Study Phase",1541,,,-1,-1,,,,1
5ee3dc3d8a8aa00bafcfde54,seqze6a1t9,Nick_Dissertation_EX1,1,85,2020-07-08T14:45:20-07:00,1.9719700813293,3,versionC_stim.csv,READVersionC.csv,"Read Version C","Dissertation, read only version C",RIDDLE,SUGAR,Study1,U,81,48,Study,User,-,,Study/JOL,"Study Phase",1534,,,-1,-1,,,,1
5ee3dc3d8a8aa00bafcfde54,seqze6a1t9,Nick_Dissertation_EX1,1,86,2020-07-08T14:45:22-07:00,1.9585111141205,3,versionC_stim.csv,READVersionC.csv,"Read Version C","Dissertation, read only version C",FLOOR,DISCOVER,Study1,U,71,36,Study,User,-,,Study/JOL,"Study Phase",1503,,,-1,-1,,,,1
5ee3dc3d8a8aa00bafcfde54,seqze6a1t9,Nick_Dissertation_EX1,1,87,2020-07-08T14:45:24-07:00,1.6858069896698,3,versionC_stim.csv,READVersionC.csv,"Read Version C","Dissertation, read only version C",STUFF,THING,BUFFER2,Buffer,90,91,Study,User,-,,Study/JOL,BUFFER2,1242,,,-1,-1,,,,1
5ee3dc3d8a8aa00bafcfde54,seqze6a1t9,Nick_Dissertation_EX1,1,88,2020-07-08T14:45:25-07:00,1.9554359912872,3,versionC_stim.csv,READVersionC.csv,"Read Version C","Dissertation, read only version C",POLICE,SHERRIF,BUFFER2,Buffer,87,90,Study,User,-,,Study/JOL,BUFFER2,1514,,,-1,-1,,,,1
5ee3dc3d8a8aa00bafcfde54,seqze6a1t9,Nick_Dissertation_EX1,1,89,2020-07-08T14:45:28-07:00,2.9819688796997,3,versionC_stim.csv,READVersionC.csv,"Read Version C","Dissertation, read only version C",SPACE,MOON,BUFFER2,Buffer,89,88,Study,User,-,,Study/JOL,BUFFER2,2467,,,-1,-1,,,,1
5ee3dc3d8a8aa00bafcfde54,seqze6a1t9,Nick_Dissertation_EX1,1,90,2020-07-08T14:45:31-07:00,2.2916569709778,3,versionC_stim.csv,READVersionC.csv,"Read Version C","Dissertation, read only version C",CHOCOLATE,MALT,BUFFER2,Buffer,88,87,Study,User,-,,Study/JOL,BUFFER2,1858,,,-1,-1,,,,1
5ee3dc3d8a8aa00bafcfde54,seqze6a1t9,Nick_Dissertation_EX1,1,91,2020-07-08T14:45:33-07:00,2.4985730648041,3,versionC_stim.csv,READVersionC.csv,"Read Version C","Dissertation, read only version C",GOOSE,GEESE,BUFFER2,Buffer,86,89,Study,User,-,,Study/JOL,BUFFER2,2063,,,-1,-1,,,,1
5ee3dc3d8a8aa00bafcfde54,seqze6a1t9,Nick_Dissertation_EX1,1,92,2020-07-08T14:45:39-07:00,5.2345130443573,3,versionC_stim.csv,READVersionC.csv,"Read Version C","Dissertation, read only version C",,,,,,0,Instruct,User,-,"You have completed this section. Please press Enter.",Filler_Instruction,Instruct2,4797,,,-1,-1,,,,1
5ee3dc3d8a8aa00bafcfde54,seqze6a1t9,Nick_Dissertation_EX1,1,93,2020-07-08T14:47:39-07:00,120.69459199905,3,versionC_stim.csv,READVersionC.csv,"Read Version C","Dissertation, read only version C",,,,,,0,FreeRecall,120,120,"Please list the 50 US states in alphabetical order. The task will automatically advance to the next screen after two minutes.",,Filler1,120007,"Alabama Alaska Arizona Arkansas California Colorado Connecticut Delaware Florida Georgia Hawaii Idaho Illinois Indiana Iowa Kansas ",0,45407,119407,0,0,,0.809
5ee3dc3d8a8aa00bafcfde54,seqze6a1t9,Nick_Dissertation_EX1,1,94,2020-07-08T14:47:52-07:00,12.481740951538,3,versionC_stim.csv,READVersionC.csv,"Read Version C","Dissertation, read only version C",,,,,,0,Instruct,-,10,"You will now be presented with the first word from each of the previously studied item pairs. Please type the missing word. If you do not know the word, you may guess or press Enter to skip forward to the next pair.",,Instruct3,11927,,,-1,-1,,,,1
5ee3dc3d8a8aa00bafcfde54,seqze6a1t9,Nick_Dissertation_EX1,1,95,2020-07-08T14:48:00-07:00,8.6877450942993,3,versionC_stim.csv,READVersionC.csv,"Read Version C","Dissertation, read only version C",ACCIDENT,STRONG,Study1,U,80,7,Test,User,-,,Recall,Recall1,8137,car,22.222222222222,4297,7639,0,0,,1
5ee3dc3d8a8aa00bafcfde54,seqze6a1t9,Nick_Dissertation_EX1,1,96,2020-07-08T14:48:04-07:00,3.4537708759308,3,versionC_stim.csv,READVersionC.csv,"Read Version C","Dissertation, read only version C",LION,ART,Study1,U,79,46,Test,User,-,,Recall,Recall1,2949,animal,22.222222222222,1844,2755,0,0,,1
5ee3dc3d8a8aa00bafcfde54,seqze6a1t9,Nick_Dissertation_EX1,1,97,2020-07-08T14:48:12-07:00,7.8665060997009,3,versionC_stim.csv,READVersionC.csv,"Read Version C","Dissertation, read only version C",ENOUGH,FULL,Study1,F,26,71,Test,User,-,,Recall,Recall1,7403,strong,0,5706,7049,0,0,,1
5ee3dc3d8a8aa00bafcfde54,seqze6a1t9,Nick_Dissertation_EX1,1,98,2020-07-08T14:48:15-07:00,3.6735129356384,3,versionC_stim.csv,READVersionC.csv,"Read Version C","Dissertation, read only version C",SALAD,LETTUCE,Study1,S,59,35,Test,User,-,,Recall,Recall1,3192,fruit,16.666666666667,2280,2999,0,0,,1
5ee3dc3d8a8aa00bafcfde54,seqze6a1t9,Nick_Dissertation_EX1,1,99,2020-07-08T14:48:18-07:00,2.3695878982544,3,versionC_stim.csv,READVersionC.csv,"Read Version C","Dissertation, read only version C",ATTORNEY,LAW,Study1,F,34,32,Test,User,-,,Recall,Recall1,1888,law,100,1377,1647,1,1,,1
5ee3dc3d8a8aa00bafcfde54,seqze6a1t9,Nick_Dissertation_EX1,1,100,2020-07-08T14:48:22-07:00,4.7025201320648,3,versionC_stim.csv,READVersionC.csv,"Read Version C","Dissertation, read only version C",WAR,REVOLUTION,Study1,B,20,49,Test,User,-,,Recall,Recall1,4243,gun,30.769230769231,2081,3744,0,0,,1
5ee3dc3d8a8aa00bafcfde54,seqze6a1t9,Nick_Dissertation_EX1,1,101,2020-07-08T14:48:26-07:00,3.7776210308075,3,versionC_stim.csv,READVersionC.csv,"Read Version C","Dissertation, read only version C",DEFINITION,MEANING,Study1,S,62,42,Test,User,-,,Recall,Recall1,3325,word,0,2141,3085,0,0,,1
5ee3dc3d8a8aa00bafcfde54,seqze6a1t9,Nick_Dissertation_EX1,1,102,2020-07-08T14:48:29-07:00,3.2300078868866,3,versionC_stim.csv,READVersionC.csv,"Read Version C","Dissertation, read only version C",SIP,DRINK,Study1,F,27,34,Test,User,-,,Recall,Recall1,2773,drink,100,1525,2260,1,1,,1
5ee3dc3d8a8aa00bafcfde54,seqze6a1t9,Nick_Dissertation_EX1,1,103,2020-07-08T14:49:00-07:00,30.531476020813,3,versionC_stim.csv,READVersionC.csv,"Read Version C","Dissertation, read only version C",MONEY,WAGE,Study1,B,8,13,Test,User,-,,Recall,Recall1,29979,job,0,5706,29737,0,0,,1
5ee3dc3d8a8aa00bafcfde54,seqze6a1t9,Nick_Dissertation_EX1,1,104,2020-07-08T14:49:08-07:00,8.3961369991302,3,versionC_stim.csv,READVersionC.csv,"Read Version C","Dissertation, read only version C",CHILD,BABY,Study1,S,64,72,Test,User,-,,Recall,Recall1,7915,parent,20,6380,7417,0,0,,1
5ee3dc3d8a8aa00bafcfde54,seqze6a1t9,Nick_Dissertation_EX1,1,105,2020-07-08T14:49:25-07:00,16.285746097565,3,versionC_stim.csv,READVersionC.csv,"Read Version C","Dissertation, read only version C",SACKING,DIETARY,Study1,U,67,8,Test,User,-,,Recall,Recall1,15753,,0,-1,-1,0,0,,1
5ee3dc3d8a8aa00bafcfde54,seqze6a1t9,Nick_Dissertation_EX1,1,106,2020-07-08T14:49:41-07:00,16.424932956696,3,versionC_stim.csv,READVersionC.csv,"Read Version C","Dissertation, read only version C",AMOUNT,NUMBER,Study1,S,47,77,Test,User,-,,Recall,Recall1,15851,number,100,14779,15705,1,1,,1
5ee3dc3d8a8aa00bafcfde54,seqze6a1t9,Nick_Dissertation_EX1,1,107,2020-07-08T14:49:49-07:00,7.8807408809662,3,versionC_stim.csv,READVersionC.csv,"Read Version C","Dissertation, read only version C",END,BEGIN,Study1,S,54,10,Test,User,-,,Recall,Recall1,7322,begin,100,5995,7096,1,1,,1
5ee3dc3d8a8aa00bafcfde54,seqze6a1t9,Nick_Dissertation_EX1,1,108,2020-07-08T14:49:52-07:00,3.0870251655579,3,versionC_stim.csv,READVersionC.csv,"Read Version C","Dissertation, read only version C",BELT,SOON,Study1,U,70,60,Test,User,-,,Recall,Recall1,2637,waist,22.222222222222,1565,2253,0,0,,1
5ee3dc3d8a8aa00bafcfde54,seqze6a1t9,Nick_Dissertation_EX1,1,109,2020-07-08T14:50:11-07:00,19.297096967697,3,versionC_stim.csv,READVersionC.csv,"Read Version C","Dissertation, read only version C",CHORE,WORK,Study1,F,39,17,Test,User,-,,Recall,Recall1,18754,house,22.222222222222,16275,18481,0,0,,1
5ee3dc3d8a8aa00bafcfde54,seqze6a1t9,Nick_Dissertation_EX1,1,110,2020-07-08T14:50:15-07:00,3.6226110458374,3,versionC_stim.csv,READVersionC.csv,"Read Version C","Dissertation, read only version C",DIVISION,MATH,Study1,F,33,79,Test,User,-,,Recall,Recall1,3133,math,100,2061,2476,1,1,,1
5ee3dc3d8a8aa00bafcfde54,seqze6a1t9,Nick_Dissertation_EX1,1,111,2020-07-08T14:50:32-07:00,17.102905988693,3,versionC_stim.csv,READVersionC.csv,"Read Version C","Dissertation, read only version C",TUCK,ALLOW,Study1,U,78,68,Test,User,-,,Recall,Recall1,16531,,0,-1,-1,0,0,,1
5ee3dc3d8a8aa00bafcfde54,seqze6a1t9,Nick_Dissertation_EX1,1,112,2020-07-08T14:50:39-07:00,6.9275708198547,3,versionC_stim.csv,READVersionC.csv,"Read Version C","Dissertation, read only version C",CHEESE,WINE,Study1,S,57,55,Test,User,-,,Recall,Recall1,6411,wine,100,5261,6234,1,1,,1
5ee3dc3d8a8aa00bafcfde54,seqze6a1t9,Nick_Dissertation_EX1,1,113,2020-07-08T14:50:48-07:00,8.9794521331787,3,versionC_stim.csv,READVersionC.csv,"Read Version C","Dissertation, read only version C",DOG,PAW,Study1,B,15,65,Test,User,-,,Recall,Recall1,8507,cat,33.333333333333,7658,8010,0,0,,1
5ee3dc3d8a8aa00bafcfde54,seqze6a1t9,Nick_Dissertation_EX1,1,114,2020-07-08T14:51:06-07:00,18.160295009613,3,versionC_stim.csv,READVersionC.csv,"Read Version C","Dissertation, read only version C",STING,HORNET,Study1,B,11,40,Test,User,-,,Recall,Recall1,17599,hornet,100,16639,17374,1,1,,1
5ee3dc3d8a8aa00bafcfde54,seqze6a1t9,Nick_Dissertation_EX1,1,115,2020-07-08T14:51:10-07:00,3.867583990097,3,versionC_stim.csv,READVersionC.csv,"Read Version C","Dissertation, read only version C",BEE,HONEY,Study1,S,63,41,Test,User,-,,Recall,Recall1,3346,honey,100,2226,3089,1,1,,1
5ee3dc3d8a8aa00bafcfde54,seqze6a1t9,Nick_Dissertation_EX1,1,116,2020-07-08T14:51:48-07:00,38.438752889633,3,versionC_stim.csv,READVersionC.csv,"Read Version C","Dissertation, read only version C",RIDDLE,SUGAR,Study1,U,81,48,Test,User,-,,Recall,Recall1,37893,,0,-1,-1,0,0,,1
5ee3dc3d8a8aa00bafcfde54,seqze6a1t9,Nick_Dissertation_EX1,1,117,2020-07-08T14:51:56-07:00,7.1803431510925,3,versionC_stim.csv,READVersionC.csv,"Read Version C","Dissertation, read only version C",BLAZE,FIRE,Study1,F,45,57,Test,User,-,,Recall,Recall1,6696,fire,100,4776,6358,1,1,,1
5ee3dc3d8a8aa00bafcfde54,seqze6a1t9,Nick_Dissertation_EX1,1,118,2020-07-08T14:52:08-07:00,12.079457044601,3,versionC_stim.csv,READVersionC.csv,"Read Version C","Dissertation, read only version C",BAD,DELINQUENT,Study1,B,6,86,Test,User,-,,Recall,Recall1,11543,delinquent,100,5719,11174,1,1,,1
5ee3dc3d8a8aa00bafcfde54,seqze6a1t9,Nick_Dissertation_EX1,1,119,2020-07-08T14:52:12-07:00,4.3040018081665,3,versionC_stim.csv,READVersionC.csv,"Read Version C","Dissertation, read only version C",COLD,BITTER,Study1,B,12,85,Test,User,-,,Recall,Recall1,3795,bitter,100,2931,3666,1,1,,1
5ee3dc3d8a8aa00bafcfde54,seqze6a1t9,Nick_Dissertation_EX1,1,120,2020-07-08T14:52:15-07:00,3.0571510791779,3,versionC_stim.csv,READVersionC.csv,"Read Version C","Dissertation, read only version C",VASE,KING,Study1,U,85,47,Test,User,-,,Recall,Recall1,2600,flower,0,1542,2374,0,0,,1
5ee3dc3d8a8aa00bafcfde54,seqze6a1t9,Nick_Dissertation_EX1,1,121,2020-07-08T14:52:36-07:00,20.924024105072,3,versionC_stim.csv,READVersionC.csv,"Read Version C","Dissertation, read only version C",POSITION,MACHINE,Study1,U,76,54,Test,User,-,,Recall,Recall1,19350,machine,100,17160,19124,1,1,,1
5ee3dc3d8a8aa00bafcfde54,seqze6a1t9,Nick_Dissertation_EX1,1,122,2020-07-08T14:52:52-07:00,15.876533985138,3,versionC_stim.csv,READVersionC.csv,"Read Version C","Dissertation, read only version C",DROWSY,SLEEP,Study1,F,41,81,Test,User,-,,Recall,Recall1,14280,sick,22.222222222222,13754,14071,0,0,,1
5ee3dc3d8a8aa00bafcfde54,seqze6a1t9,Nick_Dissertation_EX1,1,123,2020-07-08T14:52:57-07:00,5.2438449859619,3,versionC_stim.csv,READVersionC.csv,"Read Version C","Dissertation, read only version C",WASTE,DUMP,Study1,S,49,19,Test,User,-,,Recall,Recall1,4767,trash,0,3776,4414,0,0,,1
5ee3dc3d8a8aa00bafcfde54,seqze6a1t9,Nick_Dissertation_EX1,1,124,2020-07-08T14:53:11-07:00,13.458611011505,3,versionC_stim.csv,READVersionC.csv,"Read Version C","Dissertation, read only version C",CAR,HAPPY,Study1,U,77,39,Test,User,-,,Recall,Recall1,12930,road,22.222222222222,4337,12768,0,0,,1
5ee3dc3d8a8aa00bafcfde54,seqze6a1t9,Nick_Dissertation_EX1,1,125,2020-07-08T14:53:17-07:00,5.9813318252563,3,versionC_stim.csv,READVersionC.csv,"Read Version C","Dissertation, read only version C",GROWTH,HEIGHT,Study1,F,30,44,Test,User,-,,Recall,Recall1,5492,big,44.444444444444,5029,5331,0,0,,1
5ee3dc3d8a8aa00bafcfde54,seqze6a1t9,Nick_Dissertation_EX1,1,126,2020-07-08T14:53:23-07:00,6.1325640678406,3,versionC_stim.csv,READVersionC.csv,"Read Version C","Dissertation, read only version C",FLOOR,DISCOVER,Study1,U,71,36,Test,User,-,,Recall,Recall1,5666,ground,14.285714285714,4736,5504,0,0,,1
5ee3dc3d8a8aa00bafcfde54,seqze6a1t9,Nick_Dissertation_EX1,1,127,2020-07-08T14:53:35-07:00,12.031064987183,3,versionC_stim.csv,READVersionC.csv,"Read Version C","Dissertation, read only version C",BAR,GRILL,Study1,S,52,73,Test,User,-,,Recall,Recall1,11491,alcohol,33.333333333333,4034,11233,0,0,,1
5ee3dc3d8a8aa00bafcfde54,seqze6a1t9,Nick_Dissertation_EX1,1,128,2020-07-08T14:54:08-07:00,33.695143938065,3,versionC_stim.csv,READVersionC.csv,"Read Version C","Dissertation, read only version C",CLEAN,HYGIENE,Study1,B,17,58,Test,User,-,,Recall,Recall1,33089,maid,18.181818181818,32547,32864,0,0,,1
5ee3dc3d8a8aa00bafcfde54,seqze6a1t9,Nick_Dissertation_EX1,1,129,2020-07-08T14:54:11-07:00,3.0297451019287,3,versionC_stim.csv,READVersionC.csv,"Read Version C","Dissertation, read only version C",HAMMER,CHISEL,Study1,B,9,29,Test,User,-,,Recall,Recall1,2518,nail,40,1878,2325,0,0,,1
5ee3dc3d8a8aa00bafcfde54,seqze6a1t9,Nick_Dissertation_EX1,1,130,2020-07-08T14:54:19-07:00,7.1862900257111,3,versionC_stim.csv,READVersionC.csv,"Read Version C","Dissertation, read only version C",WOMAN,LIFT,Study1,U,69,66,Test,User,-,,Recall,Recall1,6722,attractive,14.285714285714,4016,6240,0,0,,1
5ee3dc3d8a8aa00bafcfde54,seqze6a1t9,Nick_Dissertation_EX1,1,131,2020-07-08T14:54:30-07:00,11.240638971329,3,versionC_stim.csv,READVersionC.csv,"Read Version C","Dissertation, read only version C",TALK,DISCUSSION,Study1,B,21,28,Test,User,-,,Recall,Recall1,10699,discussion,100,9147,10490,1,1,,1
5ee3dc3d8a8aa00bafcfde54,seqze6a1t9,Nick_Dissertation_EX1,1,132,2020-07-08T14:54:42-07:00,12.038625001907,3,versionC_stim.csv,READVersionC.csv,"Read Version C","Dissertation, read only version C",BUSINESS,DEATH,Study1,U,72,21,Test,User,-,,Recall,Recall1,11471,money,20,10271,11149,0,0,,1
5ee3dc3d8a8aa00bafcfde54,seqze6a1t9,Nick_Dissertation_EX1,1,133,2020-07-08T14:54:45-07:00,3.5174288749695,3,versionC_stim.csv,READVersionC.csv,"Read Version C","Dissertation, read only version C",ROUND,CIRCLE,Study1,S,65,62,Test,User,-,,Recall,Recall1,3022,circle,100,2207,2909,1,1,,1
5ee3dc3d8a8aa00bafcfde54,seqze6a1t9,Nick_Dissertation_EX1,1,134,2020-07-08T14:54:50-07:00,4.8843171596527,3,versionC_stim.csv,READVersionC.csv,"Read Version C","Dissertation, read only version C",SITE,LOCATION,Study1,S,48,75,Test,User,-,,Recall,Recall1,4394,location,100,3034,4185,1,1,,1
5ee3dc3d8a8aa00bafcfde54,seqze6a1t9,Nick_Dissertation_EX1,1,135,2020-07-08T14:55:46-07:00,56.026397943497,3,versionC_stim.csv,READVersionC.csv,"Read Version C","Dissertation, read only version C",SODA,POP,Study1,S,56,26,Test,User,-,,Recall,Recall1,55469,machine,0,43630,55339,0,0,,1
5ee3dc3d8a8aa00bafcfde54,seqze6a1t9,Nick_Dissertation_EX1,1,136,2020-07-08T14:55:57-07:00,10.706126928329,3,versionC_stim.csv,READVersionC.csv,"Read Version C","Dissertation, read only version C",TOILET,BATHROOM,Study1,S,58,31,Test,User,-,,Recall,Recall1,10107,bathroom,100,8267,9657,1,1,,1
5ee3dc3d8a8aa00bafcfde54,seqze6a1t9,Nick_Dissertation_EX1,1,137,2020-07-08T14:56:00-07:00,2.8535811901093,3,versionC_stim.csv,READVersionC.csv,"Read Version C","Dissertation, read only version C",COW,HERD,Study1,B,22,33,Test,User,-,,Recall,Recall1,2384,hard,75,1696,2175,0,1,,1
5ee3dc3d8a8aa00bafcfde54,seqze6a1t9,Nick_Dissertation_EX1,1,138,2020-07-08T14:56:09-07:00,8.8626508712769,3,versionC_stim.csv,READVersionC.csv,"Read Version C","Dissertation, read only version C",PLANT,ROOT,Study1,B,13,51,Test,User,-,,Recall,Recall1,8378,vase,0,4760,7543,0,0,,1
5ee3dc3d8a8aa00bafcfde54,seqze6a1t9,Nick_Dissertation_EX1,1,139,2020-07-08T14:56:39-07:00,30.232587099075,3,versionC_stim.csv,READVersionC.csv,"Read Version C","Dissertation, read only version C",WATER,BRIDGE,Study1,B,18,59,Test,User,-,,Recall,Recall1,29617,clear,18.181818181818,7185,29408,0,0,,1
5ee3dc3d8a8aa00bafcfde54,seqze6a1t9,Nick_Dissertation_EX1,1,140,2020-07-08T14:56:46-07:00,6.7997739315033,3,versionC_stim.csv,READVersionC.csv,"Read Version C","Dissertation, read only version C",STENCH,SMELL,Study1,F,42,80,Test,User,-,,Recall,Recall1,6317,smell,100,5582,6172,1,1,,1
5ee3dc3d8a8aa00bafcfde54,seqze6a1t9,Nick_Dissertation_EX1,1,141,2020-07-08T14:56:48-07:00,2.162780046463,3,versionC_stim.csv,READVersionC.csv,"Read Version C","Dissertation, read only version C",OUT,WAY,Study1,B,16,27,Test,User,-,,Recall,Recall1,1697,in,0,1505,1632,0,0,,1
5ee3dc3d8a8aa00bafcfde54,seqze6a1t9,Nick_Dissertation_EX1,1,142,2020-07-08T14:56:52-07:00,4.1470119953156,3,versionC_stim.csv,READVersionC.csv,"Read Version C","Dissertation, read only version C",FANTASTIC,GREAT,Study1,F,35,50,Test,User,-,,Recall,Recall1,3675,great,100,2715,3450,1,1,,1
5ee3dc3d8a8aa00bafcfde54,seqze6a1t9,Nick_Dissertation_EX1,1,143,2020-07-08T14:56:55-07:00,3.2133939266205,3,versionC_stim.csv,READVersionC.csv,"Read Version C","Dissertation, read only version C",FISH,TUNA,Study1,B,25,20,Test,User,-,,Recall,Recall1,2753,swim,0,1857,2400,0,0,,1
5ee3dc3d8a8aa00bafcfde54,seqze6a1t9,Nick_Dissertation_EX1,1,144,2020-07-08T14:57:02-07:00,6.8471949100494,3,versionC_stim.csv,READVersionC.csv,"Read Version C","Dissertation, read only version C",SICK,HIDE,Study1,U,84,30,Test,User,-,,Recall,Recall1,6355,unhappy,18.181818181818,4851,6130,0,0,,1
5ee3dc3d8a8aa00bafcfde54,seqze6a1t9,Nick_Dissertation_EX1,1,145,2020-07-08T14:57:09-07:00,6.6589140892029,3,versionC_stim.csv,READVersionC.csv,"Read Version C","Dissertation, read only version C",JURY,TRIAL,Study1,S,50,16,Test,User,-,,Recall,Recall1,6162,trial,100,2114,6017,1,1,,1
5ee3dc3d8a8aa00bafcfde54,seqze6a1t9,Nick_Dissertation_EX1,1,146,2020-07-08T14:57:15-07:00,6.0486569404602,3,versionC_stim.csv,READVersionC.csv,"Read Version C","Dissertation, read only version C",HAND,FIX,Study1,U,75,74,Test,User,-,,Recall,Recall1,5578,arm,0,4794,5161,0,0,,1
5ee3dc3d8a8aa00bafcfde54,seqze6a1t9,Nick_Dissertation_EX1,1,147,2020-07-08T14:57:25-07:00,10.284002065659,3,versionC_stim.csv,READVersionC.csv,"Read Version C","Dissertation, read only version C",ADD,VALLEY,Study1,U,82,9,Test,User,-,,Recall,Recall1,9746,subtract,14.285714285714,4706,8993,0,0,,1
5ee3dc3d8a8aa00bafcfde54,seqze6a1t9,Nick_Dissertation_EX1,1,148,2020-07-08T14:57:30-07:00,4.9258139133453,3,versionC_stim.csv,READVersionC.csv,"Read Version C","Dissertation, read only version C",LATCH,KEY,Study1,F,36,43,Test,User,-,,Recall,Recall1,4441,key,100,3898,4263,1,1,,1
5ee3dc3d8a8aa00bafcfde54,seqze6a1t9,Nick_Dissertation_EX1,1,149,2020-07-08T14:57:33-07:00,2.8305990695953,3,versionC_stim.csv,READVersionC.csv,"Read Version C","Dissertation, read only version C",BRONZE,ARTERY,Study1,U,74,14,Test,User,-,,Recall,Recall1,2354,medal,18.181818181818,1474,2177,0,0,,1
5ee3dc3d8a8aa00bafcfde54,seqze6a1t9,Nick_Dissertation_EX1,1,150,2020-07-08T14:57:37-07:00,3.7165610790253,3,versionC_stim.csv,READVersionC.csv,"Read Version C","Dissertation, read only version C",FUTURE,PAST,Study1,S,61,38,Test,User,-,,Recall,Recall1,2159,past,100,1407,1918,1,1,,1
5ee3dc3d8a8aa00bafcfde54,seqze6a1t9,Nick_Dissertation_EX1,1,151,2020-07-08T14:57:56-07:00,19.25005698204,3,versionC_stim.csv,READVersionC.csv,"Read Version C","Dissertation, read only version C",ASSIGNMENT,DUE,Study1,S,46,70,Test,User,-,,Recall,Recall1,18709,work,0,16341,18324,0,0,,1
5ee3dc3d8a8aa00bafcfde54,seqze6a1t9,Nick_Dissertation_EX1,1,152,2020-07-08T14:58:01-07:00,5.2499718666077,3,versionC_stim.csv,READVersionC.csv,"Read Version C","Dissertation, read only version C",LIVER,KIDNEY,Study1,S,53,83,Test,User,-,,Recall,Recall1,4771,kidney,100,3811,4530,1,1,,1
5ee3dc3d8a8aa00bafcfde54,seqze6a1t9,Nick_Dissertation_EX1,1,153,2020-07-08T14:58:10-07:00,8.7824242115021,3,versionC_stim.csv,READVersionC.csv,"Read Version C","Dissertation, read only version C",HUNGRY,PARK,Study1,U,68,76,Test,User,-,,Recall,Recall1,8324,food,0,3509,8003,0,0,,1
5ee3dc3d8a8aa00bafcfde54,seqze6a1t9,Nick_Dissertation_EX1,1,154,2020-07-08T14:58:35-07:00,25.328442811966,3,versionC_stim.csv,READVersionC.csv,"Read Version C","Dissertation, read only version C",WORD,SENTENCE,Study1,F,31,78,Test,User,-,,Recall,Recall1,24782,letter,42.857142857143,19119,24573,0,0,,1
5ee3dc3d8a8aa00bafcfde54,seqze6a1t9,Nick_Dissertation_EX1,1,155,2020-07-08T14:58:39-07:00,3.5906031131744,3,versionC_stim.csv,READVersionC.csv,"Read Version C","Dissertation, read only version C",RACKET,BALL,Study1,F,38,67,Test,User,-,,Recall,Recall1,3106,ball,100,2578,2992,1,1,,1
5ee3dc3d8a8aa00bafcfde54,seqze6a1t9,Nick_Dissertation_EX1,1,156,2020-07-08T14:59:20-07:00,40.874778985977,3,versionC_stim.csv,READVersionC.csv,"Read Version C","Dissertation, read only version C",DESIGN,ARCHITECTURE,Study1,S,51,15,Test,User,-,,Recall,Recall1,40332,architecture,100,1563,39002,1,1,,0.683
5ee3dc3d8a8aa00bafcfde54,seqze6a1t9,Nick_Dissertation_EX1,1,157,2020-07-08T14:59:51-07:00,31.331813097,3,versionC_stim.csv,READVersionC.csv,"Read Version C","Dissertation, read only version C",ROCK,GEOLOGY,Study1,B,19,23,Test,User,-,,Recall,Recall1,30741,smash,0,29957,30371,0,0,,1
5ee3dc3d8a8aa00bafcfde54,seqze6a1t9,Nick_Dissertation_EX1,1,158,2020-07-08T14:59:58-07:00,7.2682948112488,3,versionC_stim.csv,READVersionC.csv,"Read Version C","Dissertation, read only version C",WASP,BUG,Study1,F,32,25,Test,User,-,,Recall,Recall1,6789,kill,0,2599,6404,0,0,,1
5ee3dc3d8a8aa00bafcfde54,seqze6a1t9,Nick_Dissertation_EX1,1,159,2020-07-08T15:00:03-07:00,4.3128361701965,3,versionC_stim.csv,READVersionC.csv,"Read Version C","Dissertation, read only version C",BIRD,SWAN,Study1,B,14,56,Test,User,-,,Recall,Recall1,3821,fly,0,2956,3403,0,0,,1
5ee3dc3d8a8aa00bafcfde54,seqze6a1t9,Nick_Dissertation_EX1,1,160,2020-07-08T15:00:08-07:00,5.714879989624,3,versionC_stim.csv,READVersionC.csv,"Read Version C","Dissertation, read only version C",ATTIRE,CLOTHES,Study1,F,43,24,Test,User,-,,Recall,Recall1,4250,clothes,100,2569,3720,1,1,,1
5ee3dc3d8a8aa00bafcfde54,seqze6a1t9,Nick_Dissertation_EX1,1,161,2020-07-08T15:00:14-07:00,6.0728499889374,3,versionC_stim.csv,READVersionC.csv,"Read Version C","Dissertation, read only version C",SIGHT,DEBATE,Study1,U,73,11,Test,User,-,,Recall,Recall1,5608,see,44.444444444444,5032,5431,0,0,,1
5ee3dc3d8a8aa00bafcfde54,seqze6a1t9,Nick_Dissertation_EX1,1,162,2020-07-08T15:00:23-07:00,8.8281970024109,3,versionC_stim.csv,READVersionC.csv,"Read Version C","Dissertation, read only version C",STOMACH,DIGESTION,Study1,B,7,84,Test,User,-,,Recall,Recall1,8360,digestion,100,2518,5029,1,1,,1
5ee3dc3d8a8aa00bafcfde54,seqze6a1t9,Nick_Dissertation_EX1,1,163,2020-07-08T15:00:26-07:00,3.1337189674377,3,versionC_stim.csv,READVersionC.csv,"Read Version C","Dissertation, read only version C",CHILI,HOT,Study1,F,37,69,Test,User,-,,Recall,Recall1,2535,hot,100,1543,2374,1,1,,1
5ee3dc3d8a8aa00bafcfde54,seqze6a1t9,Nick_Dissertation_EX1,1,164,2020-07-08T15:00:52-07:00,25.859556913376,3,versionC_stim.csv,READVersionC.csv,"Read Version C","Dissertation, read only version C",WOULD,CASH,Study1,U,83,22,Test,User,-,,Recall,Recall1,25304,,0,-1,-1,0,0,,1
5ee3dc3d8a8aa00bafcfde54,seqze6a1t9,Nick_Dissertation_EX1,1,165,2020-07-08T15:01:03-07:00,11.226010084152,3,versionC_stim.csv,READVersionC.csv,"Read Version C","Dissertation, read only version C",NEWS,EDITOR,Study1,B,10,63,Test,User,-,,Recall,Recall1,10618,important,40,7195,10392,0,0,,1
5ee3dc3d8a8aa00bafcfde54,seqze6a1t9,Nick_Dissertation_EX1,1,166,2020-07-08T15:01:08-07:00,5.0388250350952,3,versionC_stim.csv,READVersionC.csv,"Read Version C","Dissertation, read only version C",FOOT,SHOE,Study1,S,60,37,Test,User,-,,Recall,Recall1,4556,walk,0,3516,4010,0,0,,1
5ee3dc3d8a8aa00bafcfde54,seqze6a1t9,Nick_Dissertation_EX1,1,167,2020-07-08T15:01:48-07:00,39.056360006332,3,versionC_stim.csv,READVersionC.csv,"Read Version C","Dissertation, read only version C",CARD,CREDIT,Study1,B,23,45,Test,User,-,,Recall,Recall1,38479,pack,20,37713,38254,0,0,,1
5ee3dc3d8a8aa00bafcfde54,seqze6a1t9,Nick_Dissertation_EX1,1,168,2020-07-08T15:01:51-07:00,3.4558320045471,3,versionC_stim.csv,READVersionC.csv,"Read Version C","Dissertation, read only version C",PILOT,PLANE,Study1,F,44,52,Test,User,-,,Recall,Recall1,2965,airplane,76.923076923077,1413,2452,0,1,,1
5ee3dc3d8a8aa00bafcfde54,seqze6a1t9,Nick_Dissertation_EX1,1,169,2020-07-08T15:01:58-07:00,7.167083978653,3,versionC_stim.csv,READVersionC.csv,"Read Version C","Dissertation, read only version C",WIND,BLOW,Study1,S,55,53,Test,User,-,,Recall,Recall1,6697,sky,0,5721,6472,0,0,,1
5ee3dc3d8a8aa00bafcfde54,seqze6a1t9,Nick_Dissertation_EX1,1,170,2020-07-08T15:02:04-07:00,5.3547518253326,3,versionC_stim.csv,READVersionC.csv,"Read Version C","Dissertation, read only version C",CLUTTER,PUSHER,Study1,U,66,18,Test,User,-,,Recall,Recall1,4887,mess,20,1814,4037,0,0,,1
5ee3dc3d8a8aa00bafcfde54,seqze6a1t9,Nick_Dissertation_EX1,1,171,2020-07-08T15:02:16-07:00,12.618980169296,3,versionC_stim.csv,READVersionC.csv,"Read Version C","Dissertation, read only version C",FAMINE,HUNGER,Study1,F,40,61,Test,User,-,,Recall,Recall1,12071,hunger,100,11129,11910,1,1,,1
5ee3dc3d8a8aa00bafcfde54,seqze6a1t9,Nick_Dissertation_EX1,1,172,2020-07-08T15:02:22-07:00,5.7981760501862,3,versionC_stim.csv,READVersionC.csv,"Read Version C","Dissertation, read only version C",SEIZE,TAKE,Study1,F,29,82,Test,User,-,,Recall,Recall1,5234,lose,25,3443,4641,0,0,,1
5ee3dc3d8a8aa00bafcfde54,seqze6a1t9,Nick_Dissertation_EX1,1,173,2020-07-08T15:02:25-07:00,2.8202018737793,3,versionC_stim.csv,READVersionC.csv,"Read Version C","Dissertation, read only version C",FLOWER,ORCHID,Study1,B,24,64,Test,User,-,,Recall,Recall1,2337,pot,22.222222222222,1728,2016,0,0,,1
5ee3dc3d8a8aa00bafcfde54,seqze6a1t9,Nick_Dissertation_EX1,1,174,2020-07-08T15:02:36-07:00,11.418081998825,3,versionC_stim.csv,READVersionC.csv,"Read Version C","Dissertation, read only version C",CAVE,DARK,Study1,F,28,12,Test,User,-,,Recall,Recall1,10866,dark,100,9602,10657,1,1,,1
5ee3dc3d8a8aa00bafcfde54,seqze6a1t9,Nick_Dissertation_EX1,1,175,2020-07-08T15:02:48-07:00,12.014055013657,3,versionC_stim.csv,READVersionC.csv,"Read Version C","Dissertation, read only version C",,,,,,0,Instruct,-,10,"You will now be presented with a new set of word pairs. Please study each pair. Remember that your memory will be tested! When finished, press Enter to move to the next pair.",Initial_Instruct,Instruct4,11457,,,-1,-1,,,,1
5ee3dc3d8a8aa00bafcfde54,seqze6a1t9,Nick_Dissertation_EX1,1,176,2020-07-08T15:03:16-07:00,27.402018070221,3,versionC_stim.csv,READVersionC.csv,"Read Version C","Dissertation, read only version C",FISH,SHRIMP,BUFFER3,Buffer,93,93,Study,User,-,,Study/JOL,BUFFER3,26822,,,-1,-1,,,,1
5ee3dc3d8a8aa00bafcfde54,seqze6a1t9,Nick_Dissertation_EX1,1,177,2020-07-08T15:03:17-07:00,1.8233978748322,3,versionC_stim.csv,READVersionC.csv,"Read Version C","Dissertation, read only version C",STRING,NOODLE,BUFFER3,Buffer,92,94,Study,User,-,,Study/JOL,BUFFER3,1238,,,-1,-1,,,,1
5ee3dc3d8a8aa00bafcfde54,seqze6a1t9,Nick_Dissertation_EX1,1,178,2020-07-08T15:03:19-07:00,1.4554181098938,3,versionC_stim.csv,READVersionC.csv,"Read Version C","Dissertation, read only version C",POTATO,CARROT,BUFFER3,Buffer,91,96,Study,User,-,,Study/JOL,BUFFER3,998,,,-1,-1,,,,1
5ee3dc3d8a8aa00bafcfde54,seqze6a1t9,Nick_Dissertation_EX1,1,179,2020-07-08T15:03:21-07:00,1.8805718421936,3,versionC_stim.csv,READVersionC.csv,"Read Version C","Dissertation, read only version C",ADVENTURE,CAMP,BUFFER3,Buffer,95,92,Study,User,-,,Study/JOL,BUFFER3,1416,,,-1,-1,,,,1
5ee3dc3d8a8aa00bafcfde54,seqze6a1t9,Nick_Dissertation_EX1,1,180,2020-07-08T15:03:22-07:00,1.1074411869049,3,versionC_stim.csv,READVersionC.csv,"Read Version C","Dissertation, read only version C",FROZEN,ICE,BUFFER3,Buffer,94,95,Study,User,-,,Study/JOL,BUFFER3,661,,,-1,-1,,,,1
5ee3dc3d8a8aa00bafcfde54,seqze6a1t9,Nick_Dissertation_EX1,1,181,2020-07-08T15:03:23-07:00,1.6296880245209,3,versionC_stim.csv,READVersionC.csv,"Read Version C","Dissertation, read only version C",NAP,SLEEP,Study2,F,134,127,Study,User,-,,Study/JOL,"Study Phase2",1185,,,-1,-1,,,,1
5ee3dc3d8a8aa00bafcfde54,seqze6a1t9,Nick_Dissertation_EX1,1,182,2020-07-08T15:03:25-07:00,1.7969818115234,3,versionC_stim.csv,READVersionC.csv,"Read Version C","Dissertation, read only version C",SIGN,LOAN,Study2,U,171,130,Study,User,-,,Study/JOL,"Study Phase2",1309,,,-1,-1,,,,1
5ee3dc3d8a8aa00bafcfde54,seqze6a1t9,Nick_Dissertation_EX1,1,183,2020-07-08T15:03:27-07:00,1.5188581943512,3,versionC_stim.csv,READVersionC.csv,"Read Version C","Dissertation, read only version C",ELECTION,MAZE,Study2,U,159,124,Study,User,-,,Study/JOL,"Study Phase2",1040,,,-1,-1,,,,1
5ee3dc3d8a8aa00bafcfde54,seqze6a1t9,Nick_Dissertation_EX1,1,184,2020-07-08T15:03:29-07:00,2.3369817733765,3,versionC_stim.csv,READVersionC.csv,"Read Version C","Dissertation, read only version C",SEATBELT,SAFETY,Study2,S,147,108,Study,User,-,,Study/JOL,"Study Phase2",878,,,-1,-1,,,,1
5ee3dc3d8a8aa00bafcfde54,seqze6a1t9,Nick_Dissertation_EX1,1,185,2020-07-08T15:03:30-07:00,0.97370219230652,3,versionC_stim.csv,READVersionC.csv,"Read Version C","Dissertation, read only version C",CLOTHES,CAKE,Study2,U,166,107,Study,User,-,,Study/JOL,"Study Phase2",493,,,-1,-1,,,,1
5ee3dc3d8a8aa00bafcfde54,seqze6a1t9,Nick_Dissertation_EX1,1,186,2020-07-08T15:03:33-07:00,3.2913818359375,3,versionC_stim.csv,READVersionC.csv,"Read Version C","Dissertation, read only version C",MAROON,JUSTICE,Study2,U,156,114,Study,User,-,,Study/JOL,"Study Phase2",1838,,,-1,-1,,,,1
5ee3dc3d8a8aa00bafcfde54,seqze6a1t9,Nick_Dissertation_EX1,1,187,2020-07-08T15:03:35-07:00,1.7698810100555,3,versionC_stim.csv,READVersionC.csv,"Read Version C","Dissertation, read only version C",LONELY,ALONE,Study2,S,145,164,Study,User,-,,Study/JOL,"Study Phase2",1291,,,-1,-1,,,,1
5ee3dc3d8a8aa00bafcfde54,seqze6a1t9,Nick_Dissertation_EX1,1,188,2020-07-08T15:03:37-07:00,2.1718580722809,3,versionC_stim.csv,READVersionC.csv,"Read Version C","Dissertation, read only version C",WAX,CANDLE,Study2,S,139,173,Study,User,-,,Study/JOL,"Study Phase2",1674,,,-1,-1,,,,1
5ee3dc3d8a8aa00bafcfde54,seqze6a1t9,Nick_Dissertation_EX1,1,189,2020-07-08T15:03:39-07:00,1.3841841220856,3,versionC_stim.csv,READVersionC.csv,"Read Version C","Dissertation, read only version C",LEAGUE,BASEBALL,Study2,F,131,161,Study,User,-,,Study/JOL,"Study Phase2",934,,,-1,-1,,,,1
5ee3dc3d8a8aa00bafcfde54,seqze6a1t9,Nick_Dissertation_EX1,1,190,2020-07-08T15:03:43-07:00,4.0616159439087,3,versionC_stim.csv,READVersionC.csv,"Read Version C","Dissertation, read only version C",BREAKABLE,GLASS,Study2,F,127,117,Study,User,-,,Study/JOL,"Study Phase2",2600,,,-1,-1,,,,1
5ee3dc3d8a8aa00bafcfde54,seqze6a1t9,Nick_Dissertation_EX1,1,191,2020-07-08T15:03:45-07:00,1.7604310512543,3,versionC_stim.csv,READVersionC.csv,"Read Version C","Dissertation, read only version C",PAPER,DOCUMENT,Study2,B,109,116,Study,User,-,,Study/JOL,"Study Phase2",1306,,,-1,-1,,,,1
5ee3dc3d8a8aa00bafcfde54,seqze6a1t9,Nick_Dissertation_EX1,1,192,2020-07-08T15:03:47-07:00,2.4742288589478,3,versionC_stim.csv,READVersionC.csv,"Read Version C","Dissertation, read only version C",SARDINE,FISH,Study2,F,130,98,Study,User,-,,Study/JOL,"Study Phase2",2009,,,-1,-1,,,,1
5ee3dc3d8a8aa00bafcfde54,seqze6a1t9,Nick_Dissertation_EX1,1,193,2020-07-08T15:03:49-07:00,2.1635370254517,3,versionC_stim.csv,READVersionC.csv,"Read Version C","Dissertation, read only version C",HEAD,SCALP,Study2,B,105,128,Study,User,-,,Study/JOL,"Study Phase2",1702,,,-1,-1,,,,1
5ee3dc3d8a8aa00bafcfde54,seqze6a1t9,Nick_Dissertation_EX1,1,194,2020-07-08T15:04:02-07:00,12.377368927002,3,versionC_stim.csv,READVersionC.csv,"Read Version C","Dissertation, read only version C",SHAKE,Shell,Study2,U,163,154,Study,User,-,,Study/JOL,"Study Phase2",11769,,,-1,-1,,,,1
5ee3dc3d8a8aa00bafcfde54,seqze6a1t9,Nick_Dissertation_EX1,1,195,2020-07-08T15:04:03-07:00,1.500118970871,3,versionC_stim.csv,READVersionC.csv,"Read Version C","Dissertation, read only version C",DRINK,WATER,Study2,S,143,175,Study,User,-,,Study/JOL,"Study Phase2",1005,,,-1,-1,,,,1
5ee3dc3d8a8aa00bafcfde54,seqze6a1t9,Nick_Dissertation_EX1,1,196,2020-07-08T15:04:11-07:00,8.1793479919434,3,versionC_stim.csv,READVersionC.csv,"Read Version C","Dissertation, read only version C",CHILDREN,MIRROR,Study2,U,174,109,Study,User,-,,Study/JOL,"Study Phase2",7704,,,-1,-1,,,,1
5ee3dc3d8a8aa00bafcfde54,seqze6a1t9,Nick_Dissertation_EX1,1,197,2020-07-08T15:04:13-07:00,1.7622442245483,3,versionC_stim.csv,READVersionC.csv,"Read Version C","Dissertation, read only version C",REEL,ROD,Study2,S,150,160,Study,User,-,,Study/JOL,"Study Phase2",1296,,,-1,-1,,,,1
5ee3dc3d8a8aa00bafcfde54,seqze6a1t9,Nick_Dissertation_EX1,1,198,2020-07-08T15:04:15-07:00,1.7734928131104,3,versionC_stim.csv,READVersionC.csv,"Read Version C","Dissertation, read only version C",VILLAIN,BAD,Study2,F,118,142,Study,User,-,,Study/JOL,"Study Phase2",1313,,,-1,-1,,,,1
5ee3dc3d8a8aa00bafcfde54,seqze6a1t9,Nick_Dissertation_EX1,1,199,2020-07-08T15:04:23-07:00,7.9777050018311,3,versionC_stim.csv,READVersionC.csv,"Read Version C","Dissertation, read only version C",BANG,FUZZY,Study2,U,168,129,Study,User,-,,Study/JOL,"Study Phase2",7383,,,-1,-1,,,,1
5ee3dc3d8a8aa00bafcfde54,seqze6a1t9,Nick_Dissertation_EX1,1,200,2020-07-08T15:04:25-07:00,1.8373610973358,3,versionC_stim.csv,READVersionC.csv,"Read Version C","Dissertation, read only version C",TRUTHFUL,HONEST,Study2,F,133,97,Study,User,-,,Study/JOL,"Study Phase2",1375,,,-1,-1,,,,1
5ee3dc3d8a8aa00bafcfde54,seqze6a1t9,Nick_Dissertation_EX1,1,201,2020-07-08T15:04:31-07:00,6.1003479957581,3,versionC_stim.csv,READVersionC.csv,"Read Version C","Dissertation, read only version C",OUNCE,BOTH,Study2,U,172,150,Study,User,-,,Study/JOL,"Study Phase2",5642,,,-1,-1,,,,1
5ee3dc3d8a8aa00bafcfde54,seqze6a1t9,Nick_Dissertation_EX1,1,202,2020-07-08T15:04:33-07:00,2.2694520950317,3,versionC_stim.csv,READVersionC.csv,"Read Version C","Dissertation, read only version C",OBTAIN,MEAT,Study2,U,161,113,Study,User,-,,Study/JOL,"Study Phase2",1732,,,-1,-1,,,,1
5ee3dc3d8a8aa00bafcfde54,seqze6a1t9,Nick_Dissertation_EX1,1,203,2020-07-08T15:04:35-07:00,1.9946129322052,3,versionC_stim.csv,READVersionC.csv,"Read Version C","Dissertation, read only version C",TOIL,LEASE,Study2,U,170,99,Study,User,-,,Study/JOL,"Study Phase2",1538,,,-1,-1,,,,1
5ee3dc3d8a8aa00bafcfde54,seqze6a1t9,Nick_Dissertation_EX1,1,204,2020-07-08T15:04:36-07:00,1.4298570156097,3,versionC_stim.csv,READVersionC.csv,"Read Version C","Dissertation, read only version C",STRAWBERRY,FRUIT,Study2,F,124,174,Study,User,-,,Study/JOL,"Study Phase2",971,,,-1,-1,,,,1
5ee3dc3d8a8aa00bafcfde54,seqze6a1t9,Nick_Dissertation_EX1,1,205,2020-07-08T15:04:38-07:00,1.3911769390106,3,versionC_stim.csv,READVersionC.csv,"Read Version C","Dissertation, read only version C",COMMUNICATION,PHONE,Study2,S,149,139,Study,User,-,,Study/JOL,"Study Phase2",937,,,-1,-1,,,,1
5ee3dc3d8a8aa00bafcfde54,seqze6a1t9,Nick_Dissertation_EX1,1,206,2020-07-08T15:04:48-07:00,10.093570947647,3,versionC_stim.csv,READVersionC.csv,"Read Version C","Dissertation, read only version C",CLEAR,MOAT,Study2,U,169,152,Study,User,-,,Study/JOL,"Study Phase2",9548,,,-1,-1,,,,1
5ee3dc3d8a8aa00bafcfde54,seqze6a1t9,Nick_Dissertation_EX1,1,207,2020-07-08T15:04:49-07:00,1.5806260108948,3,versionC_stim.csv,READVersionC.csv,"Read Version C","Dissertation, read only version C",FIGHT,FEUD,Study2,B,113,141,Study,User,-,,Study/JOL,"Study Phase2",1128,,,-1,-1,,,,1
5ee3dc3d8a8aa00bafcfde54,seqze6a1t9,Nick_Dissertation_EX1,1,208,2020-07-08T15:04:51-07:00,1.4233820438385,3,versionC_stim.csv,READVersionC.csv,"Read Version C","Dissertation, read only version C",TEMPER,TANTRUM,Study2,S,154,163,Study,User,-,,Study/JOL,"Study Phase2",958,,,-1,-1,,,,1
5ee3dc3d8a8aa00bafcfde54,seqze6a1t9,Nick_Dissertation_EX1,1,209,2020-07-08T15:04:53-07:00,1.6626780033112,3,versionC_stim.csv,READVersionC.csv,"Read Version C","Dissertation, read only version C",JOKE,KEYS,Study2,U,165,106,Study,User,-,,Study/JOL,"Study Phase2",1209,,,-1,-1,,,,1
5ee3dc3d8a8aa00bafcfde54,seqze6a1t9,Nick_Dissertation_EX1,1,210,2020-07-08T15:04:54-07:00,1.7443799972534,3,versionC_stim.csv,READVersionC.csv,"Read Version C","Dissertation, read only version C",SCAR,MAIN,Study2,U,175,134,Study,User,-,,Study/JOL,"Study Phase2",1288,,,-1,-1,,,,1
5ee3dc3d8a8aa00bafcfde54,seqze6a1t9,Nick_Dissertation_EX1,1,211,2020-07-08T15:04:56-07:00,1.242311000824,3,versionC_stim.csv,READVersionC.csv,"Read Version C","Dissertation, read only version C",CAR,DRIVER,Study2,B,106,121,Study,User,-,,Study/JOL,"Study Phase2",780,,,-1,-1,,,,1
5ee3dc3d8a8aa00bafcfde54,seqze6a1t9,Nick_Dissertation_EX1,1,212,2020-07-08T15:04:57-07:00,1.0145559310913,3,versionC_stim.csv,READVersionC.csv,"Read Version C","Dissertation, read only version C",FICTION,LISTEN,Study2,U,164,104,Study,User,-,,Study/JOL,"Study Phase2",566,,,-1,-1,,,,1
5ee3dc3d8a8aa00bafcfde54,seqze6a1t9,Nick_Dissertation_EX1,1,213,2020-07-08T15:04:58-07:00,1.4318101406097,3,versionC_stim.csv,READVersionC.csv,"Read Version C","Dissertation, read only version C",EAT,DINE,Study2,B,111,123,Study,User,-,,Study/JOL,"Study Phase2",965,,,-1,-1,,,,1
5ee3dc3d8a8aa00bafcfde54,seqze6a1t9,Nick_Dissertation_EX1,1,214,2020-07-08T15:04:59-07:00,1.458783864975,3,versionC_stim.csv,READVersionC.csv,"Read Version C","Dissertation, read only version C",CUT,CHOP,Study2,B,107,158,Study,User,-,,Study/JOL,"Study Phase2",943,,,-1,-1,,,,1
5ee3dc3d8a8aa00bafcfde54,seqze6a1t9,Nick_Dissertation_EX1,1,215,2020-07-08T15:05:01-07:00,1.1933579444885,3,versionC_stim.csv,READVersionC.csv,"Read Version C","Dissertation, read only version C",COFFIN,DEAD,Study2,F,128,100,Study,User,-,,Study/JOL,"Study Phase2",723,,,-1,-1,,,,1
5ee3dc3d8a8aa00bafcfde54,seqze6a1t9,Nick_Dissertation_EX1,1,216,2020-07-08T15:05:02-07:00,1.4131541252136,3,versionC_stim.csv,READVersionC.csv,"Read Version C","Dissertation, read only version C",WET,DRY,Study2,S,146,133,Study,User,-,,Study/JOL,"Study Phase2",966,,,-1,-1,,,,1
5ee3dc3d8a8aa00bafcfde54,seqze6a1t9,Nick_Dissertation_EX1,1,217,2020-07-08T15:05:03-07:00,1.2316780090332,3,versionC_stim.csv,READVersionC.csv,"Read Version C","Dissertation, read only version C",SHAVE,RAZOR,Study2,S,136,144,Study,User,-,,Study/JOL,"Study Phase2",781,,,-1,-1,,,,1
5ee3dc3d8a8aa00bafcfde54,seqze6a1t9,Nick_Dissertation_EX1,1,218,2020-07-08T15:05:05-07:00,1.3217849731445,3,versionC_stim.csv,READVersionC.csv,"Read Version C","Dissertation, read only version C",FAVORITE,BEST,Study2,F,125,101,Study,User,-,,Study/JOL,"Study Phase2",847,,,-1,-1,,,,1
5ee3dc3d8a8aa00bafcfde54,seqze6a1t9,Nick_Dissertation_EX1,1,219,2020-07-08T15:05:06-07:00,1.326651096344,3,versionC_stim.csv,READVersionC.csv,"Read Version C","Dissertation, read only version C",JAR,MASON,Study2,S,138,132,Study,User,-,,Study/JOL,"Study Phase2",866,,,-1,-1,,,,1
5ee3dc3d8a8aa00bafcfde54,seqze6a1t9,Nick_Dissertation_EX1,1,220,2020-07-08T15:05:11-07:00,4.6088268756866,3,versionC_stim.csv,READVersionC.csv,"Read Version C","Dissertation, read only version C",DONKEY,MULE,Study2,B,108,147,Study,User,-,,Study/JOL,"Study Phase2",4065,,,-1,-1,,,,1
5ee3dc3d8a8aa00bafcfde54,seqze6a1t9,Nick_Dissertation_EX1,1,221,2020-07-08T15:05:12-07:00,1.3624041080475,3,versionC_stim.csv,READVersionC.csv,"Read Version C","Dissertation, read only version C",TRASH,LITTER,Study2,B,103,146,Study,User,-,,Study/JOL,"Study Phase2",895,,,-1,-1,,,,1
5ee3dc3d8a8aa00bafcfde54,seqze6a1t9,Nick_Dissertation_EX1,1,222,2020-07-08T15:05:13-07:00,1.2302029132843,3,versionC_stim.csv,READVersionC.csv,"Read Version C","Dissertation, read only version C",LOVE,AFFECTION,Study2,B,115,111,Study,User,-,,Study/JOL,"Study Phase2",782,,,-1,-1,,,,1
5ee3dc3d8a8aa00bafcfde54,seqze6a1t9,Nick_Dissertation_EX1,1,223,2020-07-08T15:05:15-07:00,1.5319321155548,3,versionC_stim.csv,READVersionC.csv,"Read Version C","Dissertation, read only version C",SCISSORS,SHEARS,Study2,B,112,159,Study,User,-,,Study/JOL,"Study Phase2",992,,,-1,-1,,,,1
5ee3dc3d8a8aa00bafcfde54,seqze6a1t9,Nick_Dissertation_EX1,1,224,2020-07-08T15:05:23-07:00,8.3465988636017,3,versionC_stim.csv,READVersionC.csv,"Read Version C","Dissertation, read only version C",LONG,EXTENSION,Study2,B,96,131,Study,User,-,,Study/JOL,"Study Phase2",7801,,,-1,-1,,,,1
5ee3dc3d8a8aa00bafcfde54,seqze6a1t9,Nick_Dissertation_EX1,1,225,2020-07-08T15:05:27-07:00,3.6736640930176,3,versionC_stim.csv,READVersionC.csv,"Read Version C","Dissertation, read only version C",COLD,CHILL,Study2,B,114,171,Study,User,-,,Study/JOL,"Study Phase2",2202,,,-1,-1,,,,1
5ee3dc3d8a8aa00bafcfde54,seqze6a1t9,Nick_Dissertation_EX1,1,226,2020-07-08T15:05:49-07:00,22.180026054382,3,versionC_stim.csv,READVersionC.csv,"Read Version C","Dissertation, read only version C",EQUAL,RIGHTS,Study2,S,137,172,Study,User,-,,Study/JOL,"Study Phase2",21619,,,-1,-1,,,,1
5ee3dc3d8a8aa00bafcfde54,seqze6a1t9,Nick_Dissertation_EX1,1,227,2020-07-08T15:05:51-07:00,2.0946779251099,3,versionC_stim.csv,READVersionC.csv,"Read Version C","Dissertation, read only version C",BALLOON,POP,Study2,F,123,149,Study,User,-,,Study/JOL,"Study Phase2",1614,,,-1,-1,,,,1
5ee3dc3d8a8aa00bafcfde54,seqze6a1t9,Nick_Dissertation_EX1,1,228,2020-07-08T15:05:53-07:00,2.3494448661804,3,versionC_stim.csv,READVersionC.csv,"Read Version C","Dissertation, read only version C",REVENGE,EVEN,Study2,F,122,103,Study,User,-,,Study/JOL,"Study Phase2",1872,,,-1,-1,,,,1
5ee3dc3d8a8aa00bafcfde54,seqze6a1t9,Nick_Dissertation_EX1,1,229,2020-07-08T15:05:55-07:00,1.4583740234375,3,versionC_stim.csv,READVersionC.csv,"Read Version C","Dissertation, read only version C",DOG,FURRY,Study2,B,102,176,Study,User,-,,Study/JOL,"Study Phase2",989,,,-1,-1,,,,1
5ee3dc3d8a8aa00bafcfde54,seqze6a1t9,Nick_Dissertation_EX1,1,230,2020-07-08T15:05:56-07:00,1.5577781200409,3,versionC_stim.csv,READVersionC.csv,"Read Version C","Dissertation, read only version C",RED,CHERRY,Study2,B,104,153,Study,User,-,,Study/JOL,"Study Phase2",1104,,,-1,-1,,,,1
5ee3dc3d8a8aa00bafcfde54,seqze6a1t9,Nick_Dissertation_EX1,1,231,2020-07-08T15:05:58-07:00,1.7343969345093,3,versionC_stim.csv,READVersionC.csv,"Read Version C","Dissertation, read only version C",CARBON,ELEMENT,Study2,S,141,145,Study,User,-,,Study/JOL,"Study Phase2",1261,,,-1,-1,,,,1
5ee3dc3d8a8aa00bafcfde54,seqze6a1t9,Nick_Dissertation_EX1,1,232,2020-07-08T15:06:00-07:00,1.6109349727631,3,versionC_stim.csv,READVersionC.csv,"Read Version C","Dissertation, read only version C",END,ADJOURN,Study2,B,101,165,Study,User,-,,Study/JOL,"Study Phase2",1161,,,-1,-1,,,,1
5ee3dc3d8a8aa00bafcfde54,seqze6a1t9,Nick_Dissertation_EX1,1,233,2020-07-08T15:06:07-07:00,7.1056151390076,3,versionC_stim.csv,READVersionC.csv,"Read Version C","Dissertation, read only version C",GAME,CLUE,Study2,B,97,151,Study,User,-,,Study/JOL,"Study Phase2",6531,,,-1,-1,,,,1
5ee3dc3d8a8aa00bafcfde54,seqze6a1t9,Nick_Dissertation_EX1,1,234,2020-07-08T15:06:08-07:00,1.5724458694458,3,versionC_stim.csv,READVersionC.csv,"Read Version C","Dissertation, read only version C",ACTRESS,STAR,Study2,F,120,143,Study,User,-,,Study/JOL,"Study Phase2",1109,,,-1,-1,,,,1
5ee3dc3d8a8aa00bafcfde54,seqze6a1t9,Nick_Dissertation_EX1,1,235,2020-07-08T15:06:10-07:00,1.703164100647,3,versionC_stim.csv,READVersionC.csv,"Read Version C","Dissertation, read only version C",TICK,FLEA,Study2,S,151,118,Study,User,-,,Study/JOL,"Study Phase2",1228,,,-1,-1,,,,1
5ee3dc3d8a8aa00bafcfde54,seqze6a1t9,Nick_Dissertation_EX1,1,236,2020-07-08T15:06:12-07:00,1.8341119289398,3,versionC_stim.csv,READVersionC.csv,"Read Version C","Dissertation, read only version C",PLANT,CACTUS,Study2,B,98,135,Study,User,-,,Study/JOL,"Study Phase2",1390,,,-1,-1,,,,1
5ee3dc3d8a8aa00bafcfde54,seqze6a1t9,Nick_Dissertation_EX1,1,237,2020-07-08T15:06:14-07:00,1.8546550273895,3,versionC_stim.csv,READVersionC.csv,"Read Version C","Dissertation, read only version C",HAVE,OWN,Study2,S,153,155,Study,User,-,,Study/JOL,"Study Phase2",1389,,,-1,-1,,,,1
5ee3dc3d8a8aa00bafcfde54,seqze6a1t9,Nick_Dissertation_EX1,1,238,2020-07-08T15:06:15-07:00,1.458878993988,3,versionC_stim.csv,READVersionC.csv,"Read Version C","Dissertation, read only version C",FLIP,TURN,Study2,F,116,170,Study,User,-,,Study/JOL,"Study Phase2",988,,,-1,-1,,,,1
5ee3dc3d8a8aa00bafcfde54,seqze6a1t9,Nick_Dissertation_EX1,1,239,2020-07-08T15:06:18-07:00,2.7433350086212,3,versionC_stim.csv,READVersionC.csv,"Read Version C","Dissertation, read only version C",BRACELET,WRIST,Study2,S,140,148,Study,User,-,,Study/JOL,"Study Phase2",2191,,,-1,-1,,,,1
5ee3dc3d8a8aa00bafcfde54,seqze6a1t9,Nick_Dissertation_EX1,1,240,2020-07-08T15:06:28-07:00,9.7617030143738,3,versionC_stim.csv,READVersionC.csv,"Read Version C","Dissertation, read only version C",TIE,SHOELACE,Study2,B,99,102,Study,User,-,,Study/JOL,"Study Phase2",9312,,,-1,-1,,,,1
5ee3dc3d8a8aa00bafcfde54,seqze6a1t9,Nick_Dissertation_EX1,1,241,2020-07-08T15:06:29-07:00,1.6335718631744,3,versionC_stim.csv,READVersionC.csv,"Read Version C","Dissertation, read only version C",BRAWL,FIGHT,Study2,F,135,119,Study,User,-,,Study/JOL,"Study Phase2",1148,,,-1,-1,,,,1
5ee3dc3d8a8aa00bafcfde54,seqze6a1t9,Nick_Dissertation_EX1,1,242,2020-07-08T15:06:32-07:00,2.9447450637817,3,versionC_stim.csv,READVersionC.csv,"Read Version C","Dissertation, read only version C",AIRCRAFT,PLANE,Study2,F,129,140,Study,User,-,,Study/JOL,"Study Phase2",2487,,,-1,-1,,,,1
5ee3dc3d8a8aa00bafcfde54,seqze6a1t9,Nick_Dissertation_EX1,1,243,2020-07-08T15:06:34-07:00,1.7300779819489,3,versionC_stim.csv,READVersionC.csv,"Read Version C","Dissertation, read only version C",CHARM,VEHICLE,Study2,U,160,105,Study,User,-,,Study/JOL,"Study Phase2",1268,,,-1,-1,,,,1
5ee3dc3d8a8aa00bafcfde54,seqze6a1t9,Nick_Dissertation_EX1,1,244,2020-07-08T15:06:36-07:00,2.029657125473,3,versionC_stim.csv,READVersionC.csv,"Read Version C","Dissertation, read only version C",HATE,NAME,Study2,U,167,166,Study,User,-,,Study/JOL,"Study Phase2",1567,,,-1,-1,,,,1
5ee3dc3d8a8aa00bafcfde54,seqze6a1t9,Nick_Dissertation_EX1,1,245,2020-07-08T15:06:38-07:00,1.6373829841614,3,versionC_stim.csv,READVersionC.csv,"Read Version C","Dissertation, read only version C",CLOTH,STRETCH,Study2,U,157,156,Study,User,-,,Study/JOL,"Study Phase2",1182,,,-1,-1,,,,1
5ee3dc3d8a8aa00bafcfde54,seqze6a1t9,Nick_Dissertation_EX1,1,246,2020-07-08T15:06:41-07:00,3.106027841568,3,versionC_stim.csv,READVersionC.csv,"Read Version C","Dissertation, read only version C",PENGUIN,BIRD,Study2,F,119,168,Study,User,-,,Study/JOL,"Study Phase2",2635,,,-1,-1,,,,1
5ee3dc3d8a8aa00bafcfde54,seqze6a1t9,Nick_Dissertation_EX1,1,247,2020-07-08T15:06:43-07:00,1.8439831733704,3,versionC_stim.csv,READVersionC.csv,"Read Version C","Dissertation, read only version C",LIE,TRUTH,Study2,S,148,115,Study,User,-,,Study/JOL,"Study Phase2",1334,,,-1,-1,,,,1
5ee3dc3d8a8aa00bafcfde54,seqze6a1t9,Nick_Dissertation_EX1,1,248,2020-07-08T15:06:45-07:00,1.9499659538269,3,versionC_stim.csv,READVersionC.csv,"Read Version C","Dissertation, read only version C",PANTHER,CAT,Study2,F,126,138,Study,User,-,,Study/JOL,"Study Phase2",1461,,,-1,-1,,,,1
5ee3dc3d8a8aa00bafcfde54,seqze6a1t9,Nick_Dissertation_EX1,1,249,2020-07-08T15:06:47-07:00,2.4304308891296,3,versionC_stim.csv,READVersionC.csv,"Read Version C","Dissertation, read only version C",SMELL,INCENSE,Study2,B,110,125,Study,User,-,,Study/JOL,"Study Phase2",1981,,,-1,-1,,,,1
5ee3dc3d8a8aa00bafcfde54,seqze6a1t9,Nick_Dissertation_EX1,1,250,2020-07-08T15:06:49-07:00,1.6537880897522,3,versionC_stim.csv,READVersionC.csv,"Read Version C","Dissertation, read only version C",AWAY,GONE,Study2,S,142,136,Study,User,-,,Study/JOL,"Study Phase2",1184,,,-1,-1,,,,1
5ee3dc3d8a8aa00bafcfde54,seqze6a1t9,Nick_Dissertation_EX1,1,251,2020-07-08T15:06:57-07:00,8.6038620471954,3,versionC_stim.csv,READVersionC.csv,"Read Version C","Dissertation, read only version C",STEAK,GIVE,Study2,U,158,122,Study,User,-,,Study/JOL,"Study Phase2",8019,,,-1,-1,,,,1
5ee3dc3d8a8aa00bafcfde54,seqze6a1t9,Nick_Dissertation_EX1,1,252,2020-07-08T15:06:59-07:00,2.0794370174408,3,versionC_stim.csv,READVersionC.csv,"Read Version C","Dissertation, read only version C",NOISE,LOUD,Study2,S,152,162,Study,User,-,,Study/JOL,"Study Phase2",1599,,,-1,-1,,,,1
5ee3dc3d8a8aa00bafcfde54,seqze6a1t9,Nick_Dissertation_EX1,1,253,2020-07-08T15:07:01-07:00,1.2446129322052,3,versionC_stim.csv,READVersionC.csv,"Read Version C","Dissertation, read only version C",ABLE,CRACKLE,Study2,U,162,157,Study,User,-,,Study/JOL,"Study Phase2",792,,,-1,-1,,,,1
5ee3dc3d8a8aa00bafcfde54,seqze6a1t9,Nick_Dissertation_EX1,1,254,2020-07-08T15:07:03-07:00,1.9241859912872,3,versionC_stim.csv,READVersionC.csv,"Read Version C","Dissertation, read only version C",MYSTERY,DETECTIVE,Study2,B,100,137,Study,User,-,,Study/JOL,"Study Phase2",1450,,,-1,-1,,,,1
5ee3dc3d8a8aa00bafcfde54,seqze6a1t9,Nick_Dissertation_EX1,1,255,2020-07-08T15:07:06-07:00,3.7105150222778,3,versionC_stim.csv,READVersionC.csv,"Read Version C","Dissertation, read only version C",Morning,TEMPERATURE,Study2,U,173,120,Study,User,-,,Study/JOL,"Study Phase2",3249,,,-1,-1,,,,1
5ee3dc3d8a8aa00bafcfde54,seqze6a1t9,Nick_Dissertation_EX1,1,256,2020-07-08T15:07:10-07:00,3.4742450714111,3,versionC_stim.csv,READVersionC.csv,"Read Version C","Dissertation, read only version C",GROUND,EARTH,Study2,S,144,126,Study,User,-,,Study/JOL,"Study Phase2",2973,,,-1,-1,,,,1
5ee3dc3d8a8aa00bafcfde54,seqze6a1t9,Nick_Dissertation_EX1,1,257,2020-07-08T15:07:12-07:00,2.3113558292389,3,versionC_stim.csv,READVersionC.csv,"Read Version C","Dissertation, read only version C",WINDSHIELD,CAR,Study2,F,117,112,Study,User,-,,Study/JOL,"Study Phase2",1858,,,-1,-1,,,,1
5ee3dc3d8a8aa00bafcfde54,seqze6a1t9,Nick_Dissertation_EX1,1,258,2020-07-08T15:07:14-07:00,2.3135361671448,3,versionC_stim.csv,READVersionC.csv,"Read Version C","Dissertation, read only version C",TAN,SUN,Study2,S,155,167,Study,User,-,,Study/JOL,"Study Phase2",1846,,,-1,-1,,,,1
5ee3dc3d8a8aa00bafcfde54,seqze6a1t9,Nick_Dissertation_EX1,1,259,2020-07-08T15:07:16-07:00,1.9587819576263,3,versionC_stim.csv,READVersionC.csv,"Read Version C","Dissertation, read only version C",BANKER,MONEY,Study2,F,132,110,Study,User,-,,Study/JOL,"Study Phase2",1480,,,-1,-1,,,,1
5ee3dc3d8a8aa00bafcfde54,seqze6a1t9,Nick_Dissertation_EX1,1,260,2020-07-08T15:07:18-07:00,1.24240899086,3,versionC_stim.csv,READVersionC.csv,"Read Version C","Dissertation, read only version C",THIMBLE,THREAD,Study2,F,121,169,Study,User,-,,Study/JOL,"Study Phase2",796,,,-1,-1,,,,1
5ee3dc3d8a8aa00bafcfde54,seqze6a1t9,Nick_Dissertation_EX1,1,261,2020-07-08T15:07:19-07:00,1.8426539897919,3,versionC_stim.csv,READVersionC.csv,"Read Version C","Dissertation, read only version C",MARCH,SPRING,BUFFER4,Buffer,179,178,Study,User,-,,Study/JOL,BUFFER4,1389,,,-1,-1,,,,1
5ee3dc3d8a8aa00bafcfde54,seqze6a1t9,Nick_Dissertation_EX1,1,262,2020-07-08T15:07:21-07:00,1.4541389942169,3,versionC_stim.csv,READVersionC.csv,"Read Version C","Dissertation, read only version C",SPOOKY,OCTOBER,BUFFER4,Buffer,180,181,Study,User,-,,Study/JOL,BUFFER4,989,,,-1,-1,,,,1
5ee3dc3d8a8aa00bafcfde54,seqze6a1t9,Nick_Dissertation_EX1,1,263,2020-07-08T15:07:24-07:00,3.5273249149323,3,versionC_stim.csv,READVersionC.csv,"Read Version C","Dissertation, read only version C",YEAR,MONTH,BUFFER4,Buffer,177,177,Study,User,-,,Study/JOL,BUFFER4,3057,,,-1,-1,,,,1
5ee3dc3d8a8aa00bafcfde54,seqze6a1t9,Nick_Dissertation_EX1,1,264,2020-07-08T15:07:26-07:00,1.3997600078583,3,versionC_stim.csv,READVersionC.csv,"Read Version C","Dissertation, read only version C",WEAKS,DAYS,BUFFER4,Buffer,176,179,Study,User,-,,Study/JOL,BUFFER4,940,,,-1,-1,,,,1
5ee3dc3d8a8aa00bafcfde54,seqze6a1t9,Nick_Dissertation_EX1,1,265,2020-07-08T15:07:27-07:00,0.95877003669739,3,versionC_stim.csv,READVersionC.csv,"Read Version C","Dissertation, read only version C",SHED,TOOL,BUFFER4,Buffer,178,180,Study,User,-,,Study/JOL,BUFFER4,487,,,-1,-1,,,,1
5ee3dc3d8a8aa00bafcfde54,seqze6a1t9,Nick_Dissertation_EX1,1,266,2020-07-08T15:07:30-07:00,2.9388720989227,3,versionC_stim.csv,READVersionC.csv,"Read Version C","Dissertation, read only version C",,,,,,0,Instruct,User,-,"You have completed this section. Please press Enter.",Filler_Instruction,Instruct5,2462,,,-1,-1,,,,1
5ee3dc3d8a8aa00bafcfde54,seqze6a1t9,Nick_Dissertation_EX1,1,267,2020-07-08T15:09:30-07:00,120.67034482956,3,versionC_stim.csv,READVersionC.csv,"Read Version C","Dissertation, read only version C",,,,,,0,FreeRecall,120,120,"Please list the 50 US states in reverse alphabetical order (z - a). The task will automatically advance to the next screen after two minutes.",,Filler2,120011,"Wyoming Wisconsin West Viginia Washington Virginia Vermont Utah Texas Tennessee South Dakota South Carolina Rhoda Island Pennsylvania Oregon Oklahoma Ohio North Dakota North Carolina New York New Mexico New Hampshire Nevada Nebraska",0,14858,118234,0,0,,0.982
5ee3dc3d8a8aa00bafcfde54,seqze6a1t9,Nick_Dissertation_EX1,1,268,2020-07-08T15:09:45-07:00,14.33512711525,3,versionC_stim.csv,READVersionC.csv,"Read Version C","Dissertation, read only version C",,,,,,0,Instruct,-,10,"You will now be presented with the first word from each of the previously studied item pairs. Please type the missing word. If you do not know the word, you may guess or press Enter to skip forward to the next pair.",,Instruct6,13774,,,-1,-1,,,,0.948
5ee3dc3d8a8aa00bafcfde54,seqze6a1t9,Nick_Dissertation_EX1,1,269,2020-07-08T15:09:52-07:00,7.8231089115143,3,versionC_stim.csv,READVersionC.csv,"Read Version C","Dissertation, read only version C",MYSTERY,DETECTIVE,Study2,B,100,137,Test,User,-,,Recall,Recall2,7172,Detective,100,2004,6355,1,1,,1
5ee3dc3d8a8aa00bafcfde54,seqze6a1t9,Nick_Dissertation_EX1,1,270,2020-07-08T15:09:55-07:00,2.6060190200806,3,versionC_stim.csv,READVersionC.csv,"Read Version C","Dissertation, read only version C",TICK,FLEA,Study2,S,151,118,Test,User,-,,Recall,Recall2,2137,Flea,100,1336,2008,1,1,,1
5ee3dc3d8a8aa00bafcfde54,seqze6a1t9,Nick_Dissertation_EX1,1,271,2020-07-08T15:09:59-07:00,4.3401989936829,3,versionC_stim.csv,READVersionC.csv,"Read Version C","Dissertation, read only version C",CHILDREN,MIRROR,Study2,U,174,109,Test,User,-,,Recall,Recall2,3826,Mirror,100,2801,3633,1,1,,1
5ee3dc3d8a8aa00bafcfde54,seqze6a1t9,Nick_Dissertation_EX1,1,272,2020-07-08T15:10:16-07:00,16.769305944443,3,versionC_stim.csv,READVersionC.csv,"Read Version C","Dissertation, read only version C",OUNCE,BOTH,Study2,U,172,150,Test,User,-,,Recall,Recall2,16200,Both,100,14999,15927,1,1,,1
5ee3dc3d8a8aa00bafcfde54,seqze6a1t9,Nick_Dissertation_EX1,1,273,2020-07-08T15:10:21-07:00,5.152107000351,3,versionC_stim.csv,READVersionC.csv,"Read Version C","Dissertation, read only version C",OBTAIN,MEAT,Study2,U,161,113,Test,User,-,,Recall,Recall2,4590,Have,25,2685,4365,0,0,,1
5ee3dc3d8a8aa00bafcfde54,seqze6a1t9,Nick_Dissertation_EX1,1,274,2020-07-08T15:10:24-07:00,2.7983500957489,3,versionC_stim.csv,READVersionC.csv,"Read Version C","Dissertation, read only version C",SARDINE,FISH,Study2,F,130,98,Test,User,-,,Recall,Recall2,2325,Fish,100,1588,2132,1,1,,1
5ee3dc3d8a8aa00bafcfde54,seqze6a1t9,Nick_Dissertation_EX1,1,275,2020-07-08T15:10:33-07:00,9.3341310024261,3,versionC_stim.csv,READVersionC.csv,"Read Version C","Dissertation, read only version C",CLOTHES,CAKE,Study2,U,166,107,Test,User,-,,Recall,Recall2,8800,Attaire,36.363636363636,2079,7903,0,0,,1
5ee3dc3d8a8aa00bafcfde54,seqze6a1t9,Nick_Dissertation_EX1,1,276,2020-07-08T15:10:38-07:00,4.2808411121368,3,versionC_stim.csv,READVersionC.csv,"Read Version C","Dissertation, read only version C",ACTRESS,STAR,Study2,F,120,143,Test,User,-,,Recall,Recall2,2754,Star,100,1568,2592,1,1,,1
5ee3dc3d8a8aa00bafcfde54,seqze6a1t9,Nick_Dissertation_EX1,1,277,2020-07-08T15:10:50-07:00,12.047904968262,3,versionC_stim.csv,READVersionC.csv,"Read Version C","Dissertation, read only version C",SMELL,INCENSE,Study2,B,110,125,Test,User,-,,Recall,Recall2,11495,See,40,6245,9557,0,0,,1
5ee3dc3d8a8aa00bafcfde54,seqze6a1t9,Nick_Dissertation_EX1,1,278,2020-07-08T15:11:00-07:00,10.609866857529,3,versionC_stim.csv,READVersionC.csv,"Read Version C","Dissertation, read only version C",TRASH,LITTER,Study2,B,103,146,Test,User,-,,Recall,Recall2,10048,Garbage,15.384615384615,4445,9085,0,0,,1
5ee3dc3d8a8aa00bafcfde54,seqze6a1t9,Nick_Dissertation_EX1,1,279,2020-07-08T15:11:14-07:00,13.167008161545,3,versionC_stim.csv,READVersionC.csv,"Read Version C","Dissertation, read only version C",PANTHER,CAT,Study2,F,126,138,Test,User,-,,Recall,Recall2,12589,Predator,36.363636363636,3836,11755,0,0,,1
5ee3dc3d8a8aa00bafcfde54,seqze6a1t9,Nick_Dissertation_EX1,1,280,2020-07-08T15:11:20-07:00,6.7212707996368,3,versionC_stim.csv,READVersionC.csv,"Read Version C","Dissertation, read only version C",LONELY,ALONE,Study2,S,145,164,Test,User,-,,Recall,Recall2,6146,Alone,100,4864,6016,1,1,,1
5ee3dc3d8a8aa00bafcfde54,seqze6a1t9,Nick_Dissertation_EX1,1,281,2020-07-08T15:11:24-07:00,3.5637202262878,3,versionC_stim.csv,READVersionC.csv,"Read Version C","Dissertation, read only version C",DRINK,WATER,Study2,S,143,175,Test,User,-,,Recall,Recall2,3080,Water,100,1863,2950,1,1,,1
5ee3dc3d8a8aa00bafcfde54,seqze6a1t9,Nick_Dissertation_EX1,1,282,2020-07-08T15:11:28-07:00,4.5606718063354,3,versionC_stim.csv,READVersionC.csv,"Read Version C","Dissertation, read only version C",SCAR,MAIN,Study2,U,175,134,Test,User,-,,Recall,Recall2,4091,Heal,25,3386,3930,0,0,,1
5ee3dc3d8a8aa00bafcfde54,seqze6a1t9,Nick_Dissertation_EX1,1,283,2020-07-08T15:11:33-07:00,4.3037791252136,3,versionC_stim.csv,READVersionC.csv,"Read Version C","Dissertation, read only version C",RED,CHERRY,Study2,B,104,153,Test,User,-,,Recall,Recall2,3813,Cherry,100,2436,3587,1,1,,1
5ee3dc3d8a8aa00bafcfde54,seqze6a1t9,Nick_Dissertation_EX1,1,284,2020-07-08T15:11:38-07:00,4.9785718917847,3,versionC_stim.csv,READVersionC.csv,"Read Version C","Dissertation, read only version C",CARBON,ELEMENT,Study2,S,141,145,Test,User,-,,Recall,Recall2,4507,Element,100,1898,4314,1,1,,1
5ee3dc3d8a8aa00bafcfde54,seqze6a1t9,Nick_Dissertation_EX1,1,285,2020-07-08T15:11:41-07:00,3.1876580715179,3,versionC_stim.csv,READVersionC.csv,"Read Version C","Dissertation, read only version C",COLD,CHILL,Study2,B,114,171,Test,User,-,,Recall,Recall2,2707,Shower,18.181818181818,1441,2625,0,0,,1
5ee3dc3d8a8aa00bafcfde54,seqze6a1t9,Nick_Dissertation_EX1,1,286,2020-07-08T15:11:44-07:00,3.0441100597382,3,versionC_stim.csv,READVersionC.csv,"Read Version C","Dissertation, read only version C",WINDSHIELD,CAR,Study2,F,117,112,Test,User,-,,Recall,Recall2,2551,Glass,25,1526,2358,0,0,,1
5ee3dc3d8a8aa00bafcfde54,seqze6a1t9,Nick_Dissertation_EX1,1,287,2020-07-08T15:11:47-07:00,2.6304709911346,3,versionC_stim.csv,READVersionC.csv,"Read Version C","Dissertation, read only version C",BALLOON,POP,Study2,F,123,149,Test,User,-,,Recall,Recall2,2145,Pop,100,1456,1968,1,1,,1
5ee3dc3d8a8aa00bafcfde54,seqze6a1t9,Nick_Dissertation_EX1,1,288,2020-07-08T15:11:53-07:00,6.3357028961182,3,versionC_stim.csv,READVersionC.csv,"Read Version C","Dissertation, read only version C",TIE,SHOELACE,Study2,B,99,102,Test,User,-,,Recall,Recall2,5866,Shoelace,100,4345,5721,1,1,,1
5ee3dc3d8a8aa00bafcfde54,seqze6a1t9,Nick_Dissertation_EX1,1,289,2020-07-08T15:12:00-07:00,7.0990190505981,3,versionC_stim.csv,READVersionC.csv,"Read Version C","Dissertation, read only version C",SHAKE,Shell,Study2,U,163,154,Test,User,-,,Recall,Recall2,5600,Milk,22.222222222222,4350,5454,0,0,,1
5ee3dc3d8a8aa00bafcfde54,seqze6a1t9,Nick_Dissertation_EX1,1,290,2020-07-08T15:12:03-07:00,2.7987871170044,3,versionC_stim.csv,READVersionC.csv,"Read Version C","Dissertation, read only version C",TRUTHFUL,HONEST,Study2,F,133,97,Test,User,-,,Recall,Recall2,2313,Liar,0,1542,2166,0,0,,1
5ee3dc3d8a8aa00bafcfde54,seqze6a1t9,Nick_Dissertation_EX1,1,291,2020-07-08T15:12:15-07:00,12.429112911224,3,versionC_stim.csv,READVersionC.csv,"Read Version C","Dissertation, read only version C",PENGUIN,BIRD,Study2,F,119,168,Test,User,-,,Recall,Recall2,11871,Antartic,16.666666666667,2366,8973,0,0,,1
5ee3dc3d8a8aa00bafcfde54,seqze6a1t9,Nick_Dissertation_EX1,1,292,2020-07-08T15:12:20-07:00,4.3942139148712,3,versionC_stim.csv,READVersionC.csv,"Read Version C","Dissertation, read only version C",VILLAIN,BAD,Study2,F,118,142,Test,User,-,,Recall,Recall2,3891,Bad,100,1987,2851,1,1,,1
5ee3dc3d8a8aa00bafcfde54,seqze6a1t9,Nick_Dissertation_EX1,1,293,2020-07-08T15:12:26-07:00,6.786199092865,3,versionC_stim.csv,READVersionC.csv,"Read Version C","Dissertation, read only version C",Morning,TEMPERATURE,Study2,U,173,120,Test,User,-,,Recall,Recall2,6314,Rise,26.666666666667,2121,6041,0,0,,1
5ee3dc3d8a8aa00bafcfde54,seqze6a1t9,Nick_Dissertation_EX1,1,294,2020-07-08T15:12:31-07:00,4.5257630348206,3,versionC_stim.csv,READVersionC.csv,"Read Version C","Dissertation, read only version C",CHARM,VEHICLE,Study2,U,160,105,Test,User,-,,Recall,Recall2,4056,Lovely,46.153846153846,1703,3718,0,0,,1
5ee3dc3d8a8aa00bafcfde54,seqze6a1t9,Nick_Dissertation_EX1,1,295,2020-07-08T15:12:36-07:00,4.9486429691315,3,versionC_stim.csv,READVersionC.csv,"Read Version C","Dissertation, read only version C",FAVORITE,BEST,Study2,F,125,101,Test,User,-,,Recall,Recall2,4475,Toy,28.571428571429,3801,4329,0,0,,1
5ee3dc3d8a8aa00bafcfde54,seqze6a1t9,Nick_Dissertation_EX1,1,296,2020-07-08T15:12:41-07:00,4.8224439620972,3,versionC_stim.csv,READVersionC.csv,"Read Version C","Dissertation, read only version C",BRACELET,WRIST,Study2,S,140,148,Test,User,-,,Recall,Recall2,4251,Wrist,100,1483,4058,1,1,,1
5ee3dc3d8a8aa00bafcfde54,seqze6a1t9,Nick_Dissertation_EX1,1,297,2020-07-08T15:12:49-07:00,8.7792010307312,3,versionC_stim.csv,READVersionC.csv,"Read Version C","Dissertation, read only version C",NAP,SLEEP,Study2,F,134,127,Test,User,-,,Recall,Recall2,8286,Couch,0,4940,7485,0,0,,1
5ee3dc3d8a8aa00bafcfde54,seqze6a1t9,Nick_Dissertation_EX1,1,298,2020-07-08T15:12:54-07:00,4.7818369865417,3,versionC_stim.csv,READVersionC.csv,"Read Version C","Dissertation, read only version C",BANKER,MONEY,Study2,F,132,110,Test,User,-,,Recall,Recall2,4280,Money,100,3350,4086,1,1,,1
5ee3dc3d8a8aa00bafcfde54,seqze6a1t9,Nick_Dissertation_EX1,1,299,2020-07-08T15:13:23-07:00,28.25986289978,3,versionC_stim.csv,READVersionC.csv,"Read Version C","Dissertation, read only version C",HAVE,OWN,Study2,S,153,155,Test,User,-,,Recall,Recall2,27692,Want,57.142857142857,8986,27337,0,0,,1
5ee3dc3d8a8aa00bafcfde54,seqze6a1t9,Nick_Dissertation_EX1,1,300,2020-07-08T15:13:39-07:00,16.973476171494,3,versionC_stim.csv,READVersionC.csv,"Read Version C","Dissertation, read only version C",BANG,FUZZY,Study2,U,168,129,Test,User,-,,Recall,Recall2,16404,Fuzzy,100,6881,16130,1,1,,1
5ee3dc3d8a8aa00bafcfde54,seqze6a1t9,Nick_Dissertation_EX1,1,301,2020-07-08T15:14:03-07:00,23.328038930893,3,versionC_stim.csv,READVersionC.csv,"Read Version C","Dissertation, read only version C",ABLE,CRACKLE,Study2,U,162,157,Test,User,-,,Recall,Recall2,22763,Walk,36.363636363636,21802,22570,0,0,,1
5ee3dc3d8a8aa00bafcfde54,seqze6a1t9,Nick_Dissertation_EX1,1,302,2020-07-08T15:14:07-07:00,3.8135509490967,3,versionC_stim.csv,READVersionC.csv,"Read Version C","Dissertation, read only version C",LOVE,AFFECTION,Study2,B,115,111,Test,User,-,,Recall,Recall2,3302,Laugh,14.285714285714,2309,3029,0,0,,1
5ee3dc3d8a8aa00bafcfde54,seqze6a1t9,Nick_Dissertation_EX1,1,303,2020-07-08T15:14:10-07:00,3.8358569145203,3,versionC_stim.csv,READVersionC.csv,"Read Version C","Dissertation, read only version C",FICTION,LISTEN,Study2,U,164,104,Test,User,-,,Recall,Recall2,3336,Fact,20,1575,2630,0,0,,1
5ee3dc3d8a8aa00bafcfde54,seqze6a1t9,Nick_Dissertation_EX1,1,304,2020-07-08T15:14:18-07:00,7.5190660953522,3,versionC_stim.csv,READVersionC.csv,"Read Version C","Dissertation, read only version C",AIRCRAFT,PLANE,Study2,F,129,140,Test,User,-,,Recall,Recall2,7038,Pilot,40,5693,6877,0,0,,1
5ee3dc3d8a8aa00bafcfde54,seqze6a1t9,Nick_Dissertation_EX1,1,305,2020-07-08T15:14:22-07:00,4.2887380123138,3,versionC_stim.csv,READVersionC.csv,"Read Version C","Dissertation, read only version C",LEAGUE,BASEBALL,Study2,F,131,161,Test,User,-,,Recall,Recall2,3797,Baseball,100,1556,3667,1,1,,1
5ee3dc3d8a8aa00bafcfde54,seqze6a1t9,Nick_Dissertation_EX1,1,306,2020-07-08T15:14:27-07:00,5.011794090271,3,versionC_stim.csv,READVersionC.csv,"Read Version C","Dissertation, read only version C",FIGHT,FEUD,Study2,B,113,141,Test,User,-,,Recall,Recall2,4538,Ring,0,3433,4249,0,0,,1
5ee3dc3d8a8aa00bafcfde54,seqze6a1t9,Nick_Dissertation_EX1,1,307,2020-07-08T15:14:30-07:00,3.0967059135437,3,versionC_stim.csv,READVersionC.csv,"Read Version C","Dissertation, read only version C",COFFIN,DEAD,Study2,F,128,100,Test,User,-,,Recall,Recall2,2607,Death,66.666666666667,1470,2381,0,0,,1
5ee3dc3d8a8aa00bafcfde54,seqze6a1t9,Nick_Dissertation_EX1,1,308,2020-07-08T15:14:38-07:00,7.60529088974,3,versionC_stim.csv,READVersionC.csv,"Read Version C","Dissertation, read only version C",DONKEY,MULE,Study2,B,108,147,Test,User,-,,Recall,Recall2,7146,Mule,100,5881,7017,1,1,,1
5ee3dc3d8a8aa00bafcfde54,seqze6a1t9,Nick_Dissertation_EX1,1,309,2020-07-08T15:14:48-07:00,9.9478960037231,3,versionC_stim.csv,READVersionC.csv,"Read Version C","Dissertation, read only version C",TEMPER,TANTRUM,Study2,S,154,163,Test,User,-,,Recall,Recall2,9474,Angry,50,6257,9136,0,0,,1
5ee3dc3d8a8aa00bafcfde54,seqze6a1t9,Nick_Dissertation_EX1,1,310,2020-07-08T15:14:54-07:00,5.5851380825043,3,versionC_stim.csv,READVersionC.csv,"Read Version C","Dissertation, read only version C",SIGN,LOAN,Study2,U,171,130,Test,User,-,,Recall,Recall2,5112,Language,50,3255,4855,0,0,,1
5ee3dc3d8a8aa00bafcfde54,seqze6a1t9,Nick_Dissertation_EX1,1,311,2020-07-08T15:14:59-07:00,5.6190760135651,3,versionC_stim.csv,READVersionC.csv,"Read Version C","Dissertation, read only version C",PLANT,CACTUS,Study2,B,98,135,Test,User,-,,Recall,Recall2,5092,Pot,22.222222222222,2675,4898,0,0,,1
5ee3dc3d8a8aa00bafcfde54,seqze6a1t9,Nick_Dissertation_EX1,1,312,2020-07-08T15:15:08-07:00,9.3175270557404,3,versionC_stim.csv,READVersionC.csv,"Read Version C","Dissertation, read only version C",WET,DRY,Study2,S,146,133,Test,User,-,,Recall,Recall2,8841,Drench,44.444444444444,3480,8279,0,0,,1
5ee3dc3d8a8aa00bafcfde54,seqze6a1t9,Nick_Dissertation_EX1,1,313,2020-07-08T15:15:18-07:00,10.015254974365,3,versionC_stim.csv,READVersionC.csv,"Read Version C","Dissertation, read only version C",FLIP,TURN,Study2,F,116,170,Test,User,-,,Recall,Recall2,9526,Turn,100,4357,9333,1,1,,1
5ee3dc3d8a8aa00bafcfde54,seqze6a1t9,Nick_Dissertation_EX1,1,314,2020-07-08T15:15:33-07:00,14.94056892395,3,versionC_stim.csv,READVersionC.csv,"Read Version C","Dissertation, read only version C",HATE,NAME,Study2,U,167,166,Test,User,-,,Recall,Recall2,14385,Anger,44.444444444444,5839,14239,0,0,,1
5ee3dc3d8a8aa00bafcfde54,seqze6a1t9,Nick_Dissertation_EX1,1,315,2020-07-08T15:15:36-07:00,3.0520429611206,3,versionC_stim.csv,READVersionC.csv,"Read Version C","Dissertation, read only version C",NOISE,LOUD,Study2,S,152,162,Test,User,-,,Recall,Recall2,2570,Loud,100,1753,2361,1,1,,1
5ee3dc3d8a8aa00bafcfde54,seqze6a1t9,Nick_Dissertation_EX1,1,316,2020-07-08T15:15:41-07:00,4.8392210006714,3,versionC_stim.csv,READVersionC.csv,"Read Version C","Dissertation, read only version C",STEAK,GIVE,Study2,U,158,122,Test,User,-,,Recall,Recall2,3361,Eat,28.571428571429,2432,3152,0,0,,1
5ee3dc3d8a8aa00bafcfde54,seqze6a1t9,Nick_Dissertation_EX1,1,317,2020-07-08T15:15:44-07:00,2.9724130630493,3,versionC_stim.csv,READVersionC.csv,"Read Version C","Dissertation, read only version C",WAX,CANDLE,Study2,S,139,173,Test,User,-,,Recall,Recall2,2479,Ear,22.222222222222,1678,2285,0,0,,1
5ee3dc3d8a8aa00bafcfde54,seqze6a1t9,Nick_Dissertation_EX1,1,318,2020-07-08T15:15:52-07:00,7.4896559715271,3,versionC_stim.csv,READVersionC.csv,"Read Version C","Dissertation, read only version C",REVENGE,EVEN,Study2,F,122,103,Test,User,-,,Recall,Recall2,7017,Equal,22.222222222222,3303,6823,0,0,,1
5ee3dc3d8a8aa00bafcfde54,seqze6a1t9,Nick_Dissertation_EX1,1,319,2020-07-08T15:16:01-07:00,8.8317639827728,3,versionC_stim.csv,READVersionC.csv,"Read Version C","Dissertation, read only version C",ELECTION,MAZE,Study2,U,159,124,Test,User,-,,Recall,Recall2,8338,Vote,25,7473,8145,0,0,,1
5ee3dc3d8a8aa00bafcfde54,seqze6a1t9,Nick_Dissertation_EX1,1,320,2020-07-08T15:16:07-07:00,6.5041580200195,3,versionC_stim.csv,READVersionC.csv,"Read Version C","Dissertation, read only version C",CLOTH,STRETCH,Study2,U,157,156,Test,User,-,,Recall,Recall2,4735,Table,33.333333333333,3693,4588,0,0,,1
5ee3dc3d8a8aa00bafcfde54,seqze6a1t9,Nick_Dissertation_EX1,1,321,2020-07-08T15:16:10-07:00,3.2716701030731,3,versionC_stim.csv,READVersionC.csv,"Read Version C","Dissertation, read only version C",THIMBLE,THREAD,Study2,F,121,169,Test,User,-,,Recall,Recall2,2673,,0,-1,-1,0,0,,1
5ee3dc3d8a8aa00bafcfde54,seqze6a1t9,Nick_Dissertation_EX1,1,322,2020-07-08T15:16:14-07:00,3.5506770610809,3,versionC_stim.csv,READVersionC.csv,"Read Version C","Dissertation, read only version C",SCISSORS,SHEARS,Study2,B,112,159,Test,User,-,,Recall,Recall2,3048,Cut,0,2535,2903,0,0,,1
5ee3dc3d8a8aa00bafcfde54,seqze6a1t9,Nick_Dissertation_EX1,1,323,2020-07-08T15:16:19-07:00,5.3236339092255,3,versionC_stim.csv,READVersionC.csv,"Read Version C","Dissertation, read only version C",JAR,MASON,Study2,S,138,132,Test,User,-,,Recall,Recall2,4765,Honey,40,3596,4475,0,0,,1
5ee3dc3d8a8aa00bafcfde54,seqze6a1t9,Nick_Dissertation_EX1,1,324,2020-07-08T15:16:24-07:00,4.8361809253693,3,versionC_stim.csv,READVersionC.csv,"Read Version C","Dissertation, read only version C",REEL,ROD,Study2,S,150,160,Test,User,-,,Recall,Recall2,4350,Rod,100,3181,3837,1,1,,1
5ee3dc3d8a8aa00bafcfde54,seqze6a1t9,Nick_Dissertation_EX1,1,325,2020-07-08T15:16:28-07:00,4.2694540023804,3,versionC_stim.csv,READVersionC.csv,"Read Version C","Dissertation, read only version C",CUT,CHOP,Study2,B,107,158,Test,User,-,,Recall,Recall2,3799,Paper,22.222222222222,2838,3654,0,0,,1
5ee3dc3d8a8aa00bafcfde54,seqze6a1t9,Nick_Dissertation_EX1,1,326,2020-07-08T15:16:32-07:00,3.9391801357269,3,versionC_stim.csv,READVersionC.csv,"Read Version C","Dissertation, read only version C",END,ADJOURN,Study2,B,101,165,Test,User,-,,Recall,Recall2,3469,Begin,16.666666666667,2556,3292,0,0,,1
5ee3dc3d8a8aa00bafcfde54,seqze6a1t9,Nick_Dissertation_EX1,1,327,2020-07-08T15:16:37-07:00,4.9693908691406,3,versionC_stim.csv,READVersionC.csv,"Read Version C","Dissertation, read only version C",SHAVE,RAZOR,Study2,S,136,144,Test,User,-,,Recall,Recall2,4484,Skin,0,3587,4211,0,0,,1
5ee3dc3d8a8aa00bafcfde54,seqze6a1t9,Nick_Dissertation_EX1,1,328,2020-07-08T15:16:41-07:00,3.608423948288,3,versionC_stim.csv,READVersionC.csv,"Read Version C","Dissertation, read only version C",LIE,TRUTH,Study2,S,148,115,Test,User,-,,Recall,Recall2,3113,Liar,22.222222222222,2328,2888,0,0,,1
5ee3dc3d8a8aa00bafcfde54,seqze6a1t9,Nick_Dissertation_EX1,1,329,2020-07-08T15:16:45-07:00,3.9318211078644,3,versionC_stim.csv,READVersionC.csv,"Read Version C","Dissertation, read only version C",TAN,SUN,Study2,S,155,167,Test,User,-,,Recall,Recall2,3424,Darker,0,2255,3326,0,0,,1
5ee3dc3d8a8aa00bafcfde54,seqze6a1t9,Nick_Dissertation_EX1,1,330,2020-07-08T15:16:49-07:00,4.6727340221405,3,versionC_stim.csv,READVersionC.csv,"Read Version C","Dissertation, read only version C",EAT,DINE,Study2,B,111,123,Test,User,-,,Recall,Recall2,4210,Happy,0,3069,3885,0,0,,1
5ee3dc3d8a8aa00bafcfde54,seqze6a1t9,Nick_Dissertation_EX1,1,331,2020-07-08T15:16:53-07:00,3.5667819976807,3,versionC_stim.csv,READVersionC.csv,"Read Version C","Dissertation, read only version C",BRAWL,FIGHT,Study2,F,135,119,Test,User,-,,Recall,Recall2,3081,Fight,100,2279,2887,1,1,,1
5ee3dc3d8a8aa00bafcfde54,seqze6a1t9,Nick_Dissertation_EX1,1,332,2020-07-08T15:16:58-07:00,5.0737199783325,3,versionC_stim.csv,READVersionC.csv,"Read Version C","Dissertation, read only version C",EQUAL,RIGHTS,Study2,S,137,172,Test,User,-,,Recall,Recall2,4577,,0,-1,-1,0,0,,1
5ee3dc3d8a8aa00bafcfde54,seqze6a1t9,Nick_Dissertation_EX1,1,333,2020-07-08T15:17:01-07:00,3.2140119075775,3,versionC_stim.csv,READVersionC.csv,"Read Version C","Dissertation, read only version C",JOKE,KEYS,Study2,U,165,106,Test,User,-,,Recall,Recall2,2731,Laugh,0,1835,2426,0,0,,1
5ee3dc3d8a8aa00bafcfde54,seqze6a1t9,Nick_Dissertation_EX1,1,334,2020-07-08T15:17:05-07:00,3.2503089904785,3,versionC_stim.csv,READVersionC.csv,"Read Version C","Dissertation, read only version C",BREAKABLE,GLASS,Study2,F,127,117,Test,User,-,,Recall,Recall2,2764,Glass,100,1724,2555,1,1,,1
5ee3dc3d8a8aa00bafcfde54,seqze6a1t9,Nick_Dissertation_EX1,1,335,2020-07-08T15:17:11-07:00,6.1281499862671,3,versionC_stim.csv,READVersionC.csv,"Read Version C","Dissertation, read only version C",SEATBELT,SAFETY,Study2,S,147,108,Test,User,-,,Recall,Recall2,5611,Safety,100,1947,5370,1,1,,1
5ee3dc3d8a8aa00bafcfde54,seqze6a1t9,Nick_Dissertation_EX1,1,336,2020-07-08T15:17:18-07:00,7.3449652194977,3,versionC_stim.csv,READVersionC.csv,"Read Version C","Dissertation, read only version C",AWAY,GONE,Study2,S,142,136,Test,User,-,,Recall,Recall2,6872,Alone,66.666666666667,3623,6743,0,0,,1
5ee3dc3d8a8aa00bafcfde54,seqze6a1t9,Nick_Dissertation_EX1,1,337,2020-07-08T15:17:22-07:00,4.2704048156738,3,versionC_stim.csv,READVersionC.csv,"Read Version C","Dissertation, read only version C",COMMUNICATION,PHONE,Study2,S,149,139,Test,User,-,,Recall,Recall2,3780,Phone,100,2945,3650,1,1,,1
5ee3dc3d8a8aa00bafcfde54,seqze6a1t9,Nick_Dissertation_EX1,1,338,2020-07-08T15:17:28-07:00,6.1333019733429,3,versionC_stim.csv,READVersionC.csv,"Read Version C","Dissertation, read only version C",PAPER,DOCUMENT,Study2,B,109,116,Test,User,-,,Recall,Recall2,5668,Whitre,14.285714285714,4786,5524,0,0,,1
5ee3dc3d8a8aa00bafcfde54,seqze6a1t9,Nick_Dissertation_EX1,1,339,2020-07-08T15:17:35-07:00,6.8765711784363,3,versionC_stim.csv,READVersionC.csv,"Read Version C","Dissertation, read only version C",CLEAR,MOAT,Study2,U,169,152,Test,User,-,,Recall,Recall2,6400,Mind,25,5758,6270,0,0,,1
5ee3dc3d8a8aa00bafcfde54,seqze6a1t9,Nick_Dissertation_EX1,1,340,2020-07-08T15:17:53-07:00,17.799321889877,3,versionC_stim.csv,READVersionC.csv,"Read Version C","Dissertation, read only version C",HEAD,SCALP,Study2,B,105,128,Test,User,-,,Recall,Recall2,17249,Hat,25,16495,17023,0,0,,1
5ee3dc3d8a8aa00bafcfde54,seqze6a1t9,Nick_Dissertation_EX1,1,341,2020-07-08T15:18:15-07:00,21.834838151932,3,versionC_stim.csv,READVersionC.csv,"Read Version C","Dissertation, read only version C",TOIL,LEASE,Study2,U,170,99,Test,User,-,,Recall,Recall2,21239,,0,4596,7284,0,0,,1
5ee3dc3d8a8aa00bafcfde54,seqze6a1t9,Nick_Dissertation_EX1,1,342,2020-07-08T15:18:21-07:00,5.6794748306274,3,versionC_stim.csv,READVersionC.csv,"Read Version C","Dissertation, read only version C",LONG,EXTENSION,Study2,B,96,131,Test,User,-,,Recall,Recall2,5165,Extend,66.666666666667,3837,4972,0,0,,1
5ee3dc3d8a8aa00bafcfde54,seqze6a1t9,Nick_Dissertation_EX1,1,343,2020-07-08T15:18:28-07:00,7.7584290504456,3,versionC_stim.csv,READVersionC.csv,"Read Version C","Dissertation, read only version C",DOG,FURRY,Study2,B,102,176,Test,User,-,,Recall,Recall2,7275,Lead,0,6490,7082,0,0,,1
5ee3dc3d8a8aa00bafcfde54,seqze6a1t9,Nick_Dissertation_EX1,1,344,2020-07-08T15:18:32-07:00,3.7930068969727,3,versionC_stim.csv,READVersionC.csv,"Read Version C","Dissertation, read only version C",MAROON,JUSTICE,Study2,U,156,114,Test,User,-,,Recall,Recall2,3320,Colour,15.384615384615,1831,2999,0,0,,1
5ee3dc3d8a8aa00bafcfde54,seqze6a1t9,Nick_Dissertation_EX1,1,345,2020-07-08T15:18:38-07:00,5.4880831241608,3,versionC_stim.csv,READVersionC.csv,"Read Version C","Dissertation, read only version C",GAME,CLUE,Study2,B,97,151,Test,User,-,,Recall,Recall2,5008,Video,22.222222222222,3470,4494,0,0,,1
5ee3dc3d8a8aa00bafcfde54,seqze6a1t9,Nick_Dissertation_EX1,1,346,2020-07-08T15:18:43-07:00,5.3381650447845,3,versionC_stim.csv,READVersionC.csv,"Read Version C","Dissertation, read only version C",CAR,DRIVER,Study2,B,106,121,Test,User,-,,Recall,Recall2,4837,Drive,90.909090909091,1860,4388,0,1,,1
