Username,ID,ExperimentName,Session,Trial,Date,TimeDif,"Condition Number","Stimuli File","Order File","Condition Description","Condition Notes",Stimuli*Cue,Stimuli*Answer,Stimuli*Shuffle,"Stimuli*Stimuli Notes",Stimuli*Value,Procedure*Item,"Procedure*Trial Type","Procedure*Max Time","Procedure*Min Time",Procedure*Text,"Procedure*Procedure Notes",Procedure*Shuffle,Response*RT,Response*Response,Response*Accuracy,Response*RTfirst,Response*RTlast,Response*strictAcc,Response*lenientAcc,Response*focus,Response*Focus
5ec848e98af2e014101df8e5,r5013rw1r5,Nick_Dissertation_EX1,1,1,2020-07-08T14:46:37-07:00,12.46585392952,1,versionA_stim.csv,READVersionA.csv,"Read Version A","Dissertation, read only version A",,,,,,0,Instruct,-,10,"Please study each of the following word pairs. Remember that your memory will be tested! When finished, press Enter to move to the next pair.",Initial_Instruct,Instruct1,11766,,,-1,-1,,,,1
5ec848e98af2e014101df8e5,r5013rw1r5,Nick_Dissertation_EX1,1,2,2020-07-08T14:46:40-07:00,3.2018420696259,1,versionA_stim.csv,READVersionA.csv,"Read Version A","Dissertation, read only version A",PEANUT,BUTTER,BUFFER1,Buffer,3,3,Study,User,-,,Study/JOL,BUFFER,2666,,,-1,-1,,,,1
5ec848e98af2e014101df8e5,r5013rw1r5,Nick_Dissertation_EX1,1,3,2020-07-08T14:46:54-07:00,14.348348855972,1,versionA_stim.csv,READVersionA.csv,"Read Version A","Dissertation, read only version A",BASEBALL,CATCHER,BUFFER1,Buffer,2,6,Study,User,-,,Study/JOL,BUFFER,13790,,,-1,-1,,,,1
5ec848e98af2e014101df8e5,r5013rw1r5,Nick_Dissertation_EX1,1,4,2020-07-08T14:46:57-07:00,2.7468631267548,1,versionA_stim.csv,READVersionA.csv,"Read Version A","Dissertation, read only version A",SCARE,HIDE,BUFFER1,Buffer,4,2,Study,User,-,,Study/JOL,BUFFER,2254,,,-1,-1,,,,1
5ec848e98af2e014101df8e5,r5013rw1r5,Nick_Dissertation_EX1,1,5,2020-07-08T14:46:59-07:00,2.1371600627899,1,versionA_stim.csv,READVersionA.csv,"Read Version A","Dissertation, read only version A",TREES,GREEN,BUFFER1,Buffer,1,4,Study,User,-,,Study/JOL,BUFFER,1652,,,-1,-1,,,,1
5ec848e98af2e014101df8e5,r5013rw1r5,Nick_Dissertation_EX1,1,6,2020-07-08T14:47:01-07:00,1.5234608650208,1,versionA_stim.csv,READVersionA.csv,"Read Version A","Dissertation, read only version A",SPACE,JAM,BUFFER1,Buffer,5,5,Study,User,-,,Study/JOL,BUFFER,917,,,-1,-1,,,,1
5ec848e98af2e014101df8e5,r5013rw1r5,Nick_Dissertation_EX1,1,7,2020-07-08T14:47:03-07:00,2.4501271247864,1,versionA_stim.csv,READVersionA.csv,"Read Version A","Dissertation, read only version A",STRONG,ACCIDENT,Study1,U,80,39,Study,User,-,,Study/JOL,"Study Phase",1982,,,-1,-1,,,,1
5ec848e98af2e014101df8e5,r5013rw1r5,Nick_Dissertation_EX1,1,8,2020-07-08T14:47:05-07:00,1.6639080047607,1,versionA_stim.csv,READVersionA.csv,"Read Version A","Dissertation, read only version A",HOT,CHILI,Study1,B,37,7,Study,User,-,,Study/JOL,"Study Phase",1182,,,-1,-1,,,,1
5ec848e98af2e014101df8e5,r5013rw1r5,Nick_Dissertation_EX1,1,9,2020-07-08T14:47:06-07:00,1.4023427963257,1,versionA_stim.csv,READVersionA.csv,"Read Version A","Dissertation, read only version A",VALLEY,ADD,Study1,U,82,77,Study,User,-,,Study/JOL,"Study Phase",921,,,-1,-1,,,,1
5ec848e98af2e014101df8e5,r5013rw1r5,Nick_Dissertation_EX1,1,10,2020-07-08T14:47:08-07:00,1.4517321586609,1,versionA_stim.csv,READVersionA.csv,"Read Version A","Dissertation, read only version A",TRIAL,JURY,Study1,S,50,43,Study,User,-,,Study/JOL,"Study Phase",940,,,-1,-1,,,,1
5ec848e98af2e014101df8e5,r5013rw1r5,Nick_Dissertation_EX1,1,11,2020-07-08T14:47:10-07:00,1.6438629627228,1,versionA_stim.csv,READVersionA.csv,"Read Version A","Dissertation, read only version A",FIX,HAND,Study1,U,75,48,Study,User,-,,Study/JOL,"Study Phase",1141,,,-1,-1,,,,1
5ec848e98af2e014101df8e5,r5013rw1r5,Nick_Dissertation_EX1,1,12,2020-07-08T14:47:11-07:00,1.8788180351257,1,versionA_stim.csv,READVersionA.csv,"Read Version A","Dissertation, read only version A",SENTENCE,WORD,Study1,B,31,72,Study,User,-,,Study/JOL,"Study Phase",1315,,,-1,-1,,,,1
5ec848e98af2e014101df8e5,r5013rw1r5,Nick_Dissertation_EX1,1,13,2020-07-08T14:47:13-07:00,1.406641960144,1,versionA_stim.csv,READVersionA.csv,"Read Version A","Dissertation, read only version A",HERD,COW,Study1,F,22,59,Study,User,-,,Study/JOL,"Study Phase",924,,,-1,-1,,,,1
5ec848e98af2e014101df8e5,r5013rw1r5,Nick_Dissertation_EX1,1,14,2020-07-08T14:47:14-07:00,1.615406036377,1,versionA_stim.csv,READVersionA.csv,"Read Version A","Dissertation, read only version A",BITTER,COLD,Study1,F,12,62,Study,User,-,,Study/JOL,"Study Phase",1137,,,-1,-1,,,,1
5ec848e98af2e014101df8e5,r5013rw1r5,Nick_Dissertation_EX1,1,15,2020-07-08T14:47:16-07:00,1.822772026062,1,versionA_stim.csv,READVersionA.csv,"Read Version A","Dissertation, read only version A",LIFT,WOMAN,Study1,U,69,21,Study,User,-,,Study/JOL,"Study Phase",1326,,,-1,-1,,,,1
5ec848e98af2e014101df8e5,r5013rw1r5,Nick_Dissertation_EX1,1,16,2020-07-08T14:47:18-07:00,1.3295459747314,1,versionA_stim.csv,READVersionA.csv,"Read Version A","Dissertation, read only version A",DUE,ASSIGNMENT,Study1,S,46,36,Study,User,-,,Study/JOL,"Study Phase",806,,,-1,-1,,,,1
5ec848e98af2e014101df8e5,r5013rw1r5,Nick_Dissertation_EX1,1,17,2020-07-08T14:47:19-07:00,1.6789228916168,1,versionA_stim.csv,READVersionA.csv,"Read Version A","Dissertation, read only version A",DEBATE,SIGHT,Study1,U,73,68,Study,User,-,,Study/JOL,"Study Phase",1193,,,-1,-1,,,,1
5ec848e98af2e014101df8e5,r5013rw1r5,Nick_Dissertation_EX1,1,18,2020-07-08T14:47:21-07:00,1.658830165863,1,versionA_stim.csv,READVersionA.csv,"Read Version A","Dissertation, read only version A",FIRE,BLAZE,Study1,B,45,42,Study,User,-,,Study/JOL,"Study Phase",1096,,,-1,-1,,,,1
5ec848e98af2e014101df8e5,r5013rw1r5,Nick_Dissertation_EX1,1,19,2020-07-08T14:47:23-07:00,2.5460789203644,1,versionA_stim.csv,READVersionA.csv,"Read Version A","Dissertation, read only version A",TUNA,FISH,Study1,F,25,11,Study,User,-,,Study/JOL,"Study Phase",2057,,,-1,-1,,,,1
5ec848e98af2e014101df8e5,r5013rw1r5,Nick_Dissertation_EX1,1,20,2020-07-08T14:47:26-07:00,2.3105549812317,1,versionA_stim.csv,READVersionA.csv,"Read Version A","Dissertation, read only version A",MACHINE,POSITION,Study1,U,76,71,Study,User,-,,Study/JOL,"Study Phase",1743,,,-1,-1,,,,1
5ec848e98af2e014101df8e5,r5013rw1r5,Nick_Dissertation_EX1,1,21,2020-07-08T14:47:28-07:00,1.7355530261993,1,versionA_stim.csv,READVersionA.csv,"Read Version A","Dissertation, read only version A",MEANING,DEFINITION,Study1,S,62,35,Study,User,-,,Study/JOL,"Study Phase",1250,,,-1,-1,,,,1
5ec848e98af2e014101df8e5,r5013rw1r5,Nick_Dissertation_EX1,1,22,2020-07-08T14:47:29-07:00,1.4368488788605,1,versionA_stim.csv,READVersionA.csv,"Read Version A","Dissertation, read only version A",BEGIN,END,Study1,S,54,20,Study,User,-,,Study/JOL,"Study Phase",955,,,-1,-1,,,,1
5ec848e98af2e014101df8e5,r5013rw1r5,Nick_Dissertation_EX1,1,23,2020-07-08T14:47:30-07:00,1.1870450973511,1,versionA_stim.csv,READVersionA.csv,"Read Version A","Dissertation, read only version A",PAW,DOG,Study1,F,15,45,Study,User,-,,Study/JOL,"Study Phase",728,,,-1,-1,,,,1
5ec848e98af2e014101df8e5,r5013rw1r5,Nick_Dissertation_EX1,1,24,2020-07-08T14:47:32-07:00,1.3896110057831,1,versionA_stim.csv,READVersionA.csv,"Read Version A","Dissertation, read only version A",BLOW,WIND,Study1,S,55,63,Study,User,-,,Study/JOL,"Study Phase",737,,,-1,-1,,,,1
5ec848e98af2e014101df8e5,r5013rw1r5,Nick_Dissertation_EX1,1,25,2020-07-08T14:47:33-07:00,1.5468859672546,1,versionA_stim.csv,READVersionA.csv,"Read Version A","Dissertation, read only version A",BRIDGE,WATER,Study1,F,18,38,Study,User,-,,Study/JOL,"Study Phase",978,,,-1,-1,,,,1
5ec848e98af2e014101df8e5,r5013rw1r5,Nick_Dissertation_EX1,1,26,2020-07-08T14:47:35-07:00,2.0166819095612,1,versionA_stim.csv,READVersionA.csv,"Read Version A","Dissertation, read only version A",DIETARY,SACKING,Study1,U,67,29,Study,User,-,,Study/JOL,"Study Phase",1497,,,-1,-1,,,,1
5ec848e98af2e014101df8e5,r5013rw1r5,Nick_Dissertation_EX1,1,27,2020-07-08T14:47:36-07:00,1.3060011863708,1,versionA_stim.csv,READVersionA.csv,"Read Version A","Dissertation, read only version A",HEIGHT,GROWTH,Study1,B,30,58,Study,User,-,,Study/JOL,"Study Phase",804,,,-1,-1,,,,1
5ec848e98af2e014101df8e5,r5013rw1r5,Nick_Dissertation_EX1,1,28,2020-07-08T14:47:38-07:00,1.1856260299683,1,versionA_stim.csv,READVersionA.csv,"Read Version A","Dissertation, read only version A",DISCOVER,FLOOR,Study1,U,71,34,Study,User,-,,Study/JOL,"Study Phase",705,,,-1,-1,,,,1
5ec848e98af2e014101df8e5,r5013rw1r5,Nick_Dissertation_EX1,1,29,2020-07-08T14:47:41-07:00,3.2706918716431,1,versionA_stim.csv,READVersionA.csv,"Read Version A","Dissertation, read only version A",ROOT,PLANT,Study1,F,13,28,Study,User,-,,Study/JOL,"Study Phase",1755,,,-1,-1,,,,1
5ec848e98af2e014101df8e5,r5013rw1r5,Nick_Dissertation_EX1,1,30,2020-07-08T14:47:42-07:00,1.5950169563293,1,versionA_stim.csv,READVersionA.csv,"Read Version A","Dissertation, read only version A",CHISEL,HAMMER,Study1,F,9,15,Study,User,-,,Study/JOL,"Study Phase",1099,,,-1,-1,,,,1
5ec848e98af2e014101df8e5,r5013rw1r5,Nick_Dissertation_EX1,1,31,2020-07-08T14:47:44-07:00,1.5324721336365,1,versionA_stim.csv,READVersionA.csv,"Read Version A","Dissertation, read only version A",EDITOR,NEWS,Study1,F,10,61,Study,User,-,,Study/JOL,"Study Phase",1031,,,-1,-1,,,,1
5ec848e98af2e014101df8e5,r5013rw1r5,Nick_Dissertation_EX1,1,32,2020-07-08T14:47:45-07:00,1.4675419330597,1,versionA_stim.csv,READVersionA.csv,"Read Version A","Dissertation, read only version A",DARK,CAVE,Study1,B,28,50,Study,User,-,,Study/JOL,"Study Phase",1040,,,-1,-1,,,,1
5ec848e98af2e014101df8e5,r5013rw1r5,Nick_Dissertation_EX1,1,33,2020-07-08T14:47:47-07:00,1.6378490924835,1,versionA_stim.csv,READVersionA.csv,"Read Version A","Dissertation, read only version A",TAKE,SEIZE,Study1,B,29,74,Study,User,-,,Study/JOL,"Study Phase",1164,,,-1,-1,,,,1
5ec848e98af2e014101df8e5,r5013rw1r5,Nick_Dissertation_EX1,1,34,2020-07-08T14:47:48-07:00,0.97569298744202,1,versionA_stim.csv,READVersionA.csv,"Read Version A","Dissertation, read only version A",SMELL,STENCH,Study1,B,42,31,Study,User,-,,Study/JOL,"Study Phase",474,,,-1,-1,,,,1
5ec848e98af2e014101df8e5,r5013rw1r5,Nick_Dissertation_EX1,1,35,2020-07-08T14:47:49-07:00,1.2887699604034,1,versionA_stim.csv,READVersionA.csv,"Read Version A","Dissertation, read only version A",POP,SODA,Study1,S,56,33,Study,User,-,,Study/JOL,"Study Phase",776,,,-1,-1,,,,1
5ec848e98af2e014101df8e5,r5013rw1r5,Nick_Dissertation_EX1,1,36,2020-07-08T14:47:51-07:00,1.5444259643555,1,versionA_stim.csv,READVersionA.csv,"Read Version A","Dissertation, read only version A",CREDIT,CARD,Study1,F,23,44,Study,User,-,,Study/JOL,"Study Phase",927,,,-1,-1,,,,1
5ec848e98af2e014101df8e5,r5013rw1r5,Nick_Dissertation_EX1,1,37,2020-07-08T14:47:52-07:00,1.203773021698,1,versionA_stim.csv,READVersionA.csv,"Read Version A","Dissertation, read only version A",WAY,OUT,Study1,F,16,24,Study,User,-,,Study/JOL,"Study Phase",717,,,-1,-1,,,,1
5ec848e98af2e014101df8e5,r5013rw1r5,Nick_Dissertation_EX1,1,38,2020-07-08T14:47:54-07:00,1.6189429759979,1,versionA_stim.csv,READVersionA.csv,"Read Version A","Dissertation, read only version A",HYGIENE,CLEAN,Study1,F,17,17,Study,User,-,,Study/JOL,"Study Phase",1136,,,-1,-1,,,,1
5ec848e98af2e014101df8e5,r5013rw1r5,Nick_Dissertation_EX1,1,39,2020-07-08T14:47:55-07:00,1.610377073288,1,versionA_stim.csv,READVersionA.csv,"Read Version A","Dissertation, read only version A",DRINK,SIP,Study1,B,27,19,Study,User,-,,Study/JOL,"Study Phase",1062,,,-1,-1,,,,1
5ec848e98af2e014101df8e5,r5013rw1r5,Nick_Dissertation_EX1,1,40,2020-07-08T14:47:56-07:00,1.1135799884796,1,versionA_stim.csv,READVersionA.csv,"Read Version A","Dissertation, read only version A",HIDE,SICK,Study1,U,84,13,Study,User,-,,Study/JOL,"Study Phase",631,,,-1,-1,,,,1
5ec848e98af2e014101df8e5,r5013rw1r5,Nick_Dissertation_EX1,1,41,2020-07-08T14:47:57-07:00,1.0277209281921,1,versionA_stim.csv,READVersionA.csv,"Read Version A","Dissertation, read only version A",HONEY,BEE,Study1,S,63,53,Study,User,-,,Study/JOL,"Study Phase",537,,,-1,-1,,,,1
5ec848e98af2e014101df8e5,r5013rw1r5,Nick_Dissertation_EX1,1,42,2020-07-08T14:47:59-07:00,1.2137811183929,1,versionA_stim.csv,READVersionA.csv,"Read Version A","Dissertation, read only version A",FULL,ENOUGH,Study1,B,26,37,Study,User,-,,Study/JOL,"Study Phase",680,,,-1,-1,,,,1
5ec848e98af2e014101df8e5,r5013rw1r5,Nick_Dissertation_EX1,1,43,2020-07-08T14:48:00-07:00,1.5919668674469,1,versionA_stim.csv,READVersionA.csv,"Read Version A","Dissertation, read only version A",SUGAR,RIDDLE,Study1,U,81,27,Study,User,-,,Study/JOL,"Study Phase",1105,,,-1,-1,,,,1
5ec848e98af2e014101df8e5,r5013rw1r5,Nick_Dissertation_EX1,1,44,2020-07-08T14:48:03-07:00,2.3833250999451,1,versionA_stim.csv,READVersionA.csv,"Read Version A","Dissertation, read only version A",BATHROOM,TOILET,Study1,S,58,49,Study,User,-,,Study/JOL,"Study Phase",1819,,,-1,-1,,,,1
5ec848e98af2e014101df8e5,r5013rw1r5,Nick_Dissertation_EX1,1,45,2020-07-08T14:48:04-07:00,1.3159799575806,1,versionA_stim.csv,READVersionA.csv,"Read Version A","Dissertation, read only version A",LETTUCE,SALAD,Study1,S,59,10,Study,User,-,,Study/JOL,"Study Phase",770,,,-1,-1,,,,1
5ec848e98af2e014101df8e5,r5013rw1r5,Nick_Dissertation_EX1,1,46,2020-07-08T14:48:15-07:00,11.495486974716,1,versionA_stim.csv,READVersionA.csv,"Read Version A","Dissertation, read only version A",WORK,CHORE,Study1,B,39,9,Study,User,-,,Study/JOL,"Study Phase",10875,,,-1,-1,,,,1
5ec848e98af2e014101df8e5,r5013rw1r5,Nick_Dissertation_EX1,1,47,2020-07-08T14:48:17-07:00,1.6491498947144,1,versionA_stim.csv,READVersionA.csv,"Read Version A","Dissertation, read only version A",DISCUSSION,TALK,Study1,F,21,32,Study,User,-,,Study/JOL,"Study Phase",1130,,,-1,-1,,,,1
5ec848e98af2e014101df8e5,r5013rw1r5,Nick_Dissertation_EX1,1,48,2020-07-08T14:48:18-07:00,1.2209100723267,1,versionA_stim.csv,READVersionA.csv,"Read Version A","Dissertation, read only version A",BALL,RACKET,Study1,B,38,76,Study,User,-,,Study/JOL,"Study Phase",746,,,-1,-1,,,,1
5ec848e98af2e014101df8e5,r5013rw1r5,Nick_Dissertation_EX1,1,49,2020-07-08T14:48:19-07:00,1.0856330394745,1,versionA_stim.csv,READVersionA.csv,"Read Version A","Dissertation, read only version A",DEATH,BUSINESS,Study1,U,72,69,Study,User,-,,Study/JOL,"Study Phase",610,,,-1,-1,,,,1
5ec848e98af2e014101df8e5,r5013rw1r5,Nick_Dissertation_EX1,1,50,2020-07-08T14:48:20-07:00,0.97956705093384,1,versionA_stim.csv,READVersionA.csv,"Read Version A","Dissertation, read only version A",CIRCLE,ROUND,Study1,S,65,26,Study,User,-,,Study/JOL,"Study Phase",503,,,-1,-1,,,,1
5ec848e98af2e014101df8e5,r5013rw1r5,Nick_Dissertation_EX1,1,51,2020-07-08T14:48:22-07:00,1.8416049480438,1,versionA_stim.csv,READVersionA.csv,"Read Version A","Dissertation, read only version A",GEOLOGY,ROCK,Study1,F,19,14,Study,User,-,,Study/JOL,"Study Phase",1359,,,-1,-1,,,,1
5ec848e98af2e014101df8e5,r5013rw1r5,Nick_Dissertation_EX1,1,52,2020-07-08T14:48:24-07:00,1.485435962677,1,versionA_stim.csv,READVersionA.csv,"Read Version A","Dissertation, read only version A",DIGESTION,STOMACH,Study1,F,7,86,Study,User,-,,Study/JOL,"Study Phase",1017,,,-1,-1,,,,1
5ec848e98af2e014101df8e5,r5013rw1r5,Nick_Dissertation_EX1,1,53,2020-07-08T14:48:25-07:00,1.4661331176758,1,versionA_stim.csv,READVersionA.csv,"Read Version A","Dissertation, read only version A",KEY,LATCH,Study1,B,36,56,Study,User,-,,Study/JOL,"Study Phase",962,,,-1,-1,,,,1
5ec848e98af2e014101df8e5,r5013rw1r5,Nick_Dissertation_EX1,1,54,2020-07-08T14:48:27-07:00,1.9611968994141,1,versionA_stim.csv,READVersionA.csv,"Read Version A","Dissertation, read only version A",PLANE,PILOT,Study1,B,44,75,Study,User,-,,Study/JOL,"Study Phase",1463,,,-1,-1,,,,1
5ec848e98af2e014101df8e5,r5013rw1r5,Nick_Dissertation_EX1,1,55,2020-07-08T14:48:29-07:00,1.526437997818,1,versionA_stim.csv,READVersionA.csv,"Read Version A","Dissertation, read only version A",HUNGER,FAMINE,Study1,B,40,73,Study,User,-,,Study/JOL,"Study Phase",1028,,,-1,-1,,,,1
5ec848e98af2e014101df8e5,r5013rw1r5,Nick_Dissertation_EX1,1,56,2020-07-08T14:48:32-07:00,2.862909078598,1,versionA_stim.csv,READVersionA.csv,"Read Version A","Dissertation, read only version A",KING,VASE,Study1,U,85,22,Study,User,-,,Study/JOL,"Study Phase",1261,,,-1,-1,,,,1
5ec848e98af2e014101df8e5,r5013rw1r5,Nick_Dissertation_EX1,1,57,2020-07-08T14:48:33-07:00,1.8505778312683,1,versionA_stim.csv,READVersionA.csv,"Read Version A","Dissertation, read only version A",PAST,FUTURE,Study1,S,61,79,Study,User,-,,Study/JOL,"Study Phase",1333,,,-1,-1,,,,1
5ec848e98af2e014101df8e5,r5013rw1r5,Nick_Dissertation_EX1,1,58,2020-07-08T14:48:35-07:00,1.6473240852356,1,versionA_stim.csv,READVersionA.csv,"Read Version A","Dissertation, read only version A",BUG,WASP,Study1,B,32,46,Study,User,-,,Study/JOL,"Study Phase",1076,,,-1,-1,,,,1
5ec848e98af2e014101df8e5,r5013rw1r5,Nick_Dissertation_EX1,1,59,2020-07-08T14:48:37-07:00,1.8393120765686,1,versionA_stim.csv,READVersionA.csv,"Read Version A","Dissertation, read only version A",NUMBER,AMOUNT,Study1,S,47,84,Study,User,-,,Study/JOL,"Study Phase",1324,,,-1,-1,,,,1
5ec848e98af2e014101df8e5,r5013rw1r5,Nick_Dissertation_EX1,1,60,2020-07-08T14:48:39-07:00,1.9878399372101,1,versionA_stim.csv,READVersionA.csv,"Read Version A","Dissertation, read only version A",MATH,DIVISION,Study1,B,33,81,Study,User,-,,Study/JOL,"Study Phase",1483,,,-1,-1,,,,1
5ec848e98af2e014101df8e5,r5013rw1r5,Nick_Dissertation_EX1,1,61,2020-07-08T14:48:41-07:00,2.1190478801727,1,versionA_stim.csv,READVersionA.csv,"Read Version A","Dissertation, read only version A",HAPPY,CAR,Study1,U,77,12,Study,User,-,,Study/JOL,"Study Phase",1561,,,-1,-1,,,,1
5ec848e98af2e014101df8e5,r5013rw1r5,Nick_Dissertation_EX1,1,62,2020-07-08T14:48:43-07:00,2.0940701961517,1,versionA_stim.csv,READVersionA.csv,"Read Version A","Dissertation, read only version A",GRILL,BAR,Study1,S,52,67,Study,User,-,,Study/JOL,"Study Phase",1630,,,-1,-1,,,,1
5ec848e98af2e014101df8e5,r5013rw1r5,Nick_Dissertation_EX1,1,63,2020-07-08T14:48:46-07:00,3.1241538524628,1,versionA_stim.csv,READVersionA.csv,"Read Version A","Dissertation, read only version A",PUSHER,CLUTTER,Study1,U,66,85,Study,User,-,,Study/JOL,"Study Phase",2611,,,-1,-1,,,,1
5ec848e98af2e014101df8e5,r5013rw1r5,Nick_Dissertation_EX1,1,64,2020-07-08T14:48:48-07:00,2.1441371440887,1,versionA_stim.csv,READVersionA.csv,"Read Version A","Dissertation, read only version A",SHOE,FOOT,Study1,S,60,60,Study,User,-,,Study/JOL,"Study Phase",1628,,,-1,-1,,,,1
5ec848e98af2e014101df8e5,r5013rw1r5,Nick_Dissertation_EX1,1,65,2020-07-08T14:48:50-07:00,2.1432809829712,1,versionA_stim.csv,READVersionA.csv,"Read Version A","Dissertation, read only version A",KIDNEY,LIVER,Study1,S,53,80,Study,User,-,,Study/JOL,"Study Phase",1619,,,-1,-1,,,,1
5ec848e98af2e014101df8e5,r5013rw1r5,Nick_Dissertation_EX1,1,66,2020-07-08T14:48:52-07:00,1.5239820480347,1,versionA_stim.csv,READVersionA.csv,"Read Version A","Dissertation, read only version A",HORNET,STING,Study1,F,11,70,Study,User,-,,Study/JOL,"Study Phase",1034,,,-1,-1,,,,1
5ec848e98af2e014101df8e5,r5013rw1r5,Nick_Dissertation_EX1,1,67,2020-07-08T14:48:53-07:00,1.2738258838654,1,versionA_stim.csv,READVersionA.csv,"Read Version A","Dissertation, read only version A",REVOLUTION,WAR,Study1,F,20,65,Study,User,-,,Study/JOL,"Study Phase",783,,,-1,-1,,,,1
5ec848e98af2e014101df8e5,r5013rw1r5,Nick_Dissertation_EX1,1,68,2020-07-08T14:48:55-07:00,1.2824540138245,1,versionA_stim.csv,READVersionA.csv,"Read Version A","Dissertation, read only version A",CASH,WOULD,Study1,U,83,30,Study,User,-,,Study/JOL,"Study Phase",802,,,-1,-1,,,,1
5ec848e98af2e014101df8e5,r5013rw1r5,Nick_Dissertation_EX1,1,69,2020-07-08T14:48:56-07:00,1.485044002533,1,versionA_stim.csv,READVersionA.csv,"Read Version A","Dissertation, read only version A",ALLOW,TUCK,Study1,U,78,64,Study,User,-,,Study/JOL,"Study Phase",942,,,-1,-1,,,,1
5ec848e98af2e014101df8e5,r5013rw1r5,Nick_Dissertation_EX1,1,70,2020-07-08T14:48:58-07:00,1.4752879142761,1,versionA_stim.csv,READVersionA.csv,"Read Version A","Dissertation, read only version A",GREAT,FANTASTIC,Study1,B,35,41,Study,User,-,,Study/JOL,"Study Phase",950,,,-1,-1,,,,1
5ec848e98af2e014101df8e5,r5013rw1r5,Nick_Dissertation_EX1,1,71,2020-07-08T14:48:59-07:00,1.5273180007935,1,versionA_stim.csv,READVersionA.csv,"Read Version A","Dissertation, read only version A",CLOTHES,ATTIRE,Study1,B,43,47,Study,User,-,,Study/JOL,"Study Phase",1045,,,-1,-1,,,,1
5ec848e98af2e014101df8e5,r5013rw1r5,Nick_Dissertation_EX1,1,72,2020-07-08T14:49:01-07:00,1.6712310314178,1,versionA_stim.csv,READVersionA.csv,"Read Version A","Dissertation, read only version A",LAW,ATTORNEY,Study1,B,34,78,Study,User,-,,Study/JOL,"Study Phase",1055,,,-1,-1,,,,1
5ec848e98af2e014101df8e5,r5013rw1r5,Nick_Dissertation_EX1,1,73,2020-07-08T14:49:02-07:00,1.52281498909,1,versionA_stim.csv,READVersionA.csv,"Read Version A","Dissertation, read only version A",ORCHID,FLOWER,Study1,F,24,83,Study,User,-,,Study/JOL,"Study Phase",1034,,,-1,-1,,,,1
5ec848e98af2e014101df8e5,r5013rw1r5,Nick_Dissertation_EX1,1,74,2020-07-08T14:49:04-07:00,2.0956270694733,1,versionA_stim.csv,READVersionA.csv,"Read Version A","Dissertation, read only version A",ARTERY,BRONZE,Study1,U,74,40,Study,User,-,,Study/JOL,"Study Phase",1578,,,-1,-1,,,,1
5ec848e98af2e014101df8e5,r5013rw1r5,Nick_Dissertation_EX1,1,75,2020-07-08T14:49:06-07:00,1.7560338973999,1,versionA_stim.csv,READVersionA.csv,"Read Version A","Dissertation, read only version A",DELINQUENT,BAD,Study1,F,6,51,Study,User,-,,Study/JOL,"Study Phase",1253,,,-1,-1,,,,1
5ec848e98af2e014101df8e5,r5013rw1r5,Nick_Dissertation_EX1,1,76,2020-07-08T14:49:08-07:00,1.4641630649567,1,versionA_stim.csv,READVersionA.csv,"Read Version A","Dissertation, read only version A",WINE,CHEESE,Study1,S,57,55,Study,User,-,,Study/JOL,"Study Phase",945,,,-1,-1,,,,1
5ec848e98af2e014101df8e5,r5013rw1r5,Nick_Dissertation_EX1,1,77,2020-07-08T14:49:09-07:00,1.7456140518188,1,versionA_stim.csv,READVersionA.csv,"Read Version A","Dissertation, read only version A",SOON,BELT,Study1,U,70,66,Study,User,-,,Study/JOL,"Study Phase",1234,,,-1,-1,,,,1
5ec848e98af2e014101df8e5,r5013rw1r5,Nick_Dissertation_EX1,1,78,2020-07-08T14:49:11-07:00,1.7030370235443,1,versionA_stim.csv,READVersionA.csv,"Read Version A","Dissertation, read only version A",SWAN,BIRD,Study1,F,14,18,Study,User,-,,Study/JOL,"Study Phase",1123,,,-1,-1,,,,1
5ec848e98af2e014101df8e5,r5013rw1r5,Nick_Dissertation_EX1,1,79,2020-07-08T14:49:13-07:00,1.7363948822021,1,versionA_stim.csv,READVersionA.csv,"Read Version A","Dissertation, read only version A",LOCATION,SITE,Study1,S,48,23,Study,User,-,,Study/JOL,"Study Phase",1239,,,-1,-1,,,,1
5ec848e98af2e014101df8e5,r5013rw1r5,Nick_Dissertation_EX1,1,80,2020-07-08T14:49:14-07:00,1.7020831108093,1,versionA_stim.csv,READVersionA.csv,"Read Version A","Dissertation, read only version A",ART,LION,Study1,U,79,82,Study,User,-,,Study/JOL,"Study Phase",1155,,,-1,-1,,,,1
5ec848e98af2e014101df8e5,r5013rw1r5,Nick_Dissertation_EX1,1,81,2020-07-08T14:49:16-07:00,1.9577538967133,1,versionA_stim.csv,READVersionA.csv,"Read Version A","Dissertation, read only version A",SLEEP,DROWSY,Study1,B,41,16,Study,User,-,,Study/JOL,"Study Phase",1429,,,-1,-1,,,,1
5ec848e98af2e014101df8e5,r5013rw1r5,Nick_Dissertation_EX1,1,82,2020-07-08T14:49:18-07:00,1.760311126709,1,versionA_stim.csv,READVersionA.csv,"Read Version A","Dissertation, read only version A",ARCHITECTURE,DESIGN,Study1,S,51,25,Study,User,-,,Study/JOL,"Study Phase",1272,,,-1,-1,,,,1
5ec848e98af2e014101df8e5,r5013rw1r5,Nick_Dissertation_EX1,1,83,2020-07-08T14:49:20-07:00,1.5977458953857,1,versionA_stim.csv,READVersionA.csv,"Read Version A","Dissertation, read only version A",BABY,CHILD,Study1,S,64,57,Study,User,-,,Study/JOL,"Study Phase",1052,,,-1,-1,,,,1
5ec848e98af2e014101df8e5,r5013rw1r5,Nick_Dissertation_EX1,1,84,2020-07-08T14:49:22-07:00,1.9116959571838,1,versionA_stim.csv,READVersionA.csv,"Read Version A","Dissertation, read only version A",DUMP,WASTE,Study1,S,49,8,Study,User,-,,Study/JOL,"Study Phase",1334,,,-1,-1,,,,1
5ec848e98af2e014101df8e5,r5013rw1r5,Nick_Dissertation_EX1,1,85,2020-07-08T14:49:23-07:00,1.4142801761627,1,versionA_stim.csv,READVersionA.csv,"Read Version A","Dissertation, read only version A",WAGE,MONEY,Study1,F,8,54,Study,User,-,,Study/JOL,"Study Phase",922,,,-1,-1,,,,1
5ec848e98af2e014101df8e5,r5013rw1r5,Nick_Dissertation_EX1,1,86,2020-07-08T14:49:25-07:00,1.4153728485107,1,versionA_stim.csv,READVersionA.csv,"Read Version A","Dissertation, read only version A",PARK,HUNGRY,Study1,U,68,52,Study,User,-,,Study/JOL,"Study Phase",924,,,-1,-1,,,,1
5ec848e98af2e014101df8e5,r5013rw1r5,Nick_Dissertation_EX1,1,87,2020-07-08T14:49:26-07:00,1.3844261169434,1,versionA_stim.csv,READVersionA.csv,"Read Version A","Dissertation, read only version A",THING,STUFF,BUFFER2,Buffer,90,90,Study,User,-,,Study/JOL,BUFFER2,910,,,-1,-1,,,,1
5ec848e98af2e014101df8e5,r5013rw1r5,Nick_Dissertation_EX1,1,88,2020-07-08T14:49:27-07:00,1.5472409725189,1,versionA_stim.csv,READVersionA.csv,"Read Version A","Dissertation, read only version A",GEESE,GOOSE,BUFFER2,Buffer,86,89,Study,User,-,,Study/JOL,BUFFER2,1059,,,-1,-1,,,,1
5ec848e98af2e014101df8e5,r5013rw1r5,Nick_Dissertation_EX1,1,89,2020-07-08T14:49:29-07:00,1.860671043396,1,versionA_stim.csv,READVersionA.csv,"Read Version A","Dissertation, read only version A",MOON,SPACE,BUFFER2,Buffer,89,88,Study,User,-,,Study/JOL,BUFFER2,1381,,,-1,-1,,,,1
5ec848e98af2e014101df8e5,r5013rw1r5,Nick_Dissertation_EX1,1,90,2020-07-08T14:49:31-07:00,1.5885298252106,1,versionA_stim.csv,READVersionA.csv,"Read Version A","Dissertation, read only version A",MALT,CHOCOLATE,BUFFER2,Buffer,88,87,Study,User,-,,Study/JOL,BUFFER2,1012,,,-1,-1,,,,1
5ec848e98af2e014101df8e5,r5013rw1r5,Nick_Dissertation_EX1,1,91,2020-07-08T14:49:32-07:00,1.5042111873627,1,versionA_stim.csv,READVersionA.csv,"Read Version A","Dissertation, read only version A",SHERRIF,POLICE,BUFFER2,Buffer,87,91,Study,User,-,,Study/JOL,BUFFER2,1038,,,-1,-1,,,,1
5ec848e98af2e014101df8e5,r5013rw1r5,Nick_Dissertation_EX1,1,92,2020-07-08T14:49:35-07:00,2.950110912323,1,versionA_stim.csv,READVersionA.csv,"Read Version A","Dissertation, read only version A",,,,,,0,Instruct,User,-,"You have completed this section. Please press Enter.",Filler_Instruction,Instruct2,2447,,,-1,-1,,,,1
5ec848e98af2e014101df8e5,r5013rw1r5,Nick_Dissertation_EX1,1,93,2020-07-08T14:51:36-07:00,120.65112805367,1,versionA_stim.csv,READVersionA.csv,"Read Version A","Dissertation, read only version A",,,,,,0,FreeRecall,120,120,"Please list the 50 US states in alphabetical order. The task will automatically advance to the next screen after two minutes.",,Filler1,120004,"I'm not from the US so this won't be good. Alabama California Connecticut Hawaii Illinois Iowa Michigan Montana New York Utah ",0,8363,115739,0,0,,0.975
5ec848e98af2e014101df8e5,r5013rw1r5,Nick_Dissertation_EX1,1,94,2020-07-08T14:52:02-07:00,25.710942983627,1,versionA_stim.csv,READVersionA.csv,"Read Version A","Dissertation, read only version A",,,,,,0,Instruct,-,10,"You will now be presented with the first word from each of the previously studied item pairs. Please type the missing word. If you do not know the word, you may guess or press Enter to skip forward to the next pair.",,Instruct3,24467,,,-1,-1,,,,1
5ec848e98af2e014101df8e5,r5013rw1r5,Nick_Dissertation_EX1,1,95,2020-07-08T14:52:07-07:00,5.3409440517426,1,versionA_stim.csv,READVersionA.csv,"Read Version A","Dissertation, read only version A",VALLEY,ADD,Study1,U,82,77,Test,User,-,,Recall,Recall1,3781,,0,-1,-1,0,0,,1
5ec848e98af2e014101df8e5,r5013rw1r5,Nick_Dissertation_EX1,1,96,2020-07-08T14:52:11-07:00,4.2787449359894,1,versionA_stim.csv,READVersionA.csv,"Read Version A","Dissertation, read only version A",ORCHID,FLOWER,Study1,F,24,83,Test,User,-,,Recall,Recall1,3698,Flower,100,1978,3216,1,1,,1
5ec848e98af2e014101df8e5,r5013rw1r5,Nick_Dissertation_EX1,1,97,2020-07-08T14:52:22-07:00,11.148212909698,1,versionA_stim.csv,READVersionA.csv,"Read Version A","Dissertation, read only version A",KING,VASE,Study1,U,85,22,Test,User,-,,Recall,Recall1,10564,,0,-1,-1,0,0,,1
5ec848e98af2e014101df8e5,r5013rw1r5,Nick_Dissertation_EX1,1,98,2020-07-08T14:52:26-07:00,3.9689569473267,1,versionA_stim.csv,READVersionA.csv,"Read Version A","Dissertation, read only version A",PUSHER,CLUTTER,Study1,U,66,85,Test,User,-,,Recall,Recall1,3454,,0,-1,-1,0,0,,1
5ec848e98af2e014101df8e5,r5013rw1r5,Nick_Dissertation_EX1,1,99,2020-07-08T14:52:33-07:00,6.1820061206818,1,versionA_stim.csv,READVersionA.csv,"Read Version A","Dissertation, read only version A",MACHINE,POSITION,Study1,U,76,71,Test,User,-,,Recall,Recall1,5592,Ground,28.571428571429,4137,5155,0,0,,1
5ec848e98af2e014101df8e5,r5013rw1r5,Nick_Dissertation_EX1,1,100,2020-07-08T14:52:36-07:00,3.8555998802185,1,versionA_stim.csv,READVersionA.csv,"Read Version A","Dissertation, read only version A",DUMP,WASTE,Study1,S,49,8,Test,User,-,,Recall,Recall1,3338,,0,-1,-1,0,0,,1
5ec848e98af2e014101df8e5,r5013rw1r5,Nick_Dissertation_EX1,1,101,2020-07-08T14:52:40-07:00,3.2899072170258,1,versionA_stim.csv,READVersionA.csv,"Read Version A","Dissertation, read only version A",SMELL,STENCH,Study1,B,42,31,Test,User,-,,Recall,Recall1,2787,,0,-1,-1,0,0,,1
5ec848e98af2e014101df8e5,r5013rw1r5,Nick_Dissertation_EX1,1,102,2020-07-08T14:52:50-07:00,10.689386844635,1,versionA_stim.csv,READVersionA.csv,"Read Version A","Dissertation, read only version A",DISCUSSION,TALK,Study1,F,21,32,Test,User,-,,Recall,Recall1,10116,Debate,20,5361,9754,0,0,,1
5ec848e98af2e014101df8e5,r5013rw1r5,Nick_Dissertation_EX1,1,103,2020-07-08T14:52:56-07:00,5.1679799556732,1,versionA_stim.csv,READVersionA.csv,"Read Version A","Dissertation, read only version A",BALL,RACKET,Study1,B,38,76,Test,User,-,,Recall,Recall1,4596,Field,18.181818181818,3196,3987,0,0,,1
5ec848e98af2e014101df8e5,r5013rw1r5,Nick_Dissertation_EX1,1,104,2020-07-08T14:52:58-07:00,2.8134000301361,1,versionA_stim.csv,READVersionA.csv,"Read Version A","Dissertation, read only version A",BRIDGE,WATER,Study1,F,18,38,Test,User,-,,Recall,Recall1,2325,,0,-1,-1,0,0,,1
5ec848e98af2e014101df8e5,r5013rw1r5,Nick_Dissertation_EX1,1,105,2020-07-08T14:53:04-07:00,5.1806161403656,1,versionA_stim.csv,READVersionA.csv,"Read Version A","Dissertation, read only version A",TAKE,SEIZE,Study1,B,29,74,Test,User,-,,Recall,Recall1,4604,GIVE,44.444444444444,3585,4135,0,0,,1
5ec848e98af2e014101df8e5,r5013rw1r5,Nick_Dissertation_EX1,1,106,2020-07-08T14:53:07-07:00,3.4403040409088,1,versionA_stim.csv,READVersionA.csv,"Read Version A","Dissertation, read only version A",HUNGER,FAMINE,Study1,B,40,73,Test,User,-,,Recall,Recall1,2950,FAMINE,100,1496,2313,1,1,,1
5ec848e98af2e014101df8e5,r5013rw1r5,Nick_Dissertation_EX1,1,107,2020-07-08T14:53:10-07:00,2.8319089412689,1,versionA_stim.csv,READVersionA.csv,"Read Version A","Dissertation, read only version A",LETTUCE,SALAD,Study1,S,59,10,Test,User,-,,Recall,Recall1,2272,,0,-1,-1,0,0,,1
5ec848e98af2e014101df8e5,r5013rw1r5,Nick_Dissertation_EX1,1,108,2020-07-08T14:53:12-07:00,1.7860939502716,1,versionA_stim.csv,READVersionA.csv,"Read Version A","Dissertation, read only version A",ROOT,PLANT,Study1,F,13,28,Test,User,-,,Recall,Recall1,1184,,0,-1,-1,0,0,,1
5ec848e98af2e014101df8e5,r5013rw1r5,Nick_Dissertation_EX1,1,109,2020-07-08T14:53:14-07:00,2.7407019138336,1,versionA_stim.csv,READVersionA.csv,"Read Version A","Dissertation, read only version A",CASH,WOULD,Study1,U,83,30,Test,User,-,,Recall,Recall1,2173,,0,-1,-1,0,0,,1
5ec848e98af2e014101df8e5,r5013rw1r5,Nick_Dissertation_EX1,1,110,2020-07-08T14:53:16-07:00,1.5303521156311,1,versionA_stim.csv,READVersionA.csv,"Read Version A","Dissertation, read only version A",DUE,ASSIGNMENT,Study1,S,46,36,Test,User,-,,Recall,Recall1,938,,0,-1,-1,0,0,,1
5ec848e98af2e014101df8e5,r5013rw1r5,Nick_Dissertation_EX1,1,111,2020-07-08T14:53:19-07:00,3.1944780349731,1,versionA_stim.csv,READVersionA.csv,"Read Version A","Dissertation, read only version A",FULL,ENOUGH,Study1,B,26,37,Test,User,-,,Recall,Recall1,2467,,0,-1,-1,0,0,,1
5ec848e98af2e014101df8e5,r5013rw1r5,Nick_Dissertation_EX1,1,112,2020-07-08T14:53:22-07:00,3.02725481987,1,versionA_stim.csv,READVersionA.csv,"Read Version A","Dissertation, read only version A",HONEY,BEE,Study1,S,63,53,Test,User,-,,Recall,Recall1,2428,,0,-1,-1,0,0,,1
5ec848e98af2e014101df8e5,r5013rw1r5,Nick_Dissertation_EX1,1,113,2020-07-08T14:53:24-07:00,1.6677122116089,1,versionA_stim.csv,READVersionA.csv,"Read Version A","Dissertation, read only version A",BATHROOM,TOILET,Study1,S,58,49,Test,User,-,,Recall,Recall1,1184,,0,-1,-1,0,0,,1
5ec848e98af2e014101df8e5,r5013rw1r5,Nick_Dissertation_EX1,1,114,2020-07-08T14:53:28-07:00,4.0255558490753,1,versionA_stim.csv,READVersionA.csv,"Read Version A","Dissertation, read only version A",SOON,BELT,Study1,U,70,66,Test,User,-,,Recall,Recall1,2527,,0,-1,-1,0,0,,1
5ec848e98af2e014101df8e5,r5013rw1r5,Nick_Dissertation_EX1,1,115,2020-07-08T14:53:35-07:00,7.2923290729523,1,versionA_stim.csv,READVersionA.csv,"Read Version A","Dissertation, read only version A",GRILL,BAR,Study1,S,52,67,Test,User,-,,Recall,Recall1,6656,,0,-1,-1,0,0,,1
5ec848e98af2e014101df8e5,r5013rw1r5,Nick_Dissertation_EX1,1,116,2020-07-08T14:53:39-07:00,3.7312910556793,1,versionA_stim.csv,READVersionA.csv,"Read Version A","Dissertation, read only version A",PARK,HUNGRY,Study1,U,68,52,Test,User,-,,Recall,Recall1,3250,,0,-1,-1,0,0,,1
5ec848e98af2e014101df8e5,r5013rw1r5,Nick_Dissertation_EX1,1,117,2020-07-08T14:53:41-07:00,2.5718309879303,1,versionA_stim.csv,READVersionA.csv,"Read Version A","Dissertation, read only version A",POP,SODA,Study1,S,56,33,Test,User,-,,Recall,Recall1,1984,,0,-1,-1,0,0,,1
5ec848e98af2e014101df8e5,r5013rw1r5,Nick_Dissertation_EX1,1,118,2020-07-08T14:53:47-07:00,5.5892338752747,1,versionA_stim.csv,READVersionA.csv,"Read Version A","Dissertation, read only version A",CIRCLE,ROUND,Study1,S,65,26,Test,User,-,,Recall,Recall1,5090,SQUARE,18.181818181818,2183,4539,0,0,,1
5ec848e98af2e014101df8e5,r5013rw1r5,Nick_Dissertation_EX1,1,119,2020-07-08T14:53:51-07:00,4.0148749351501,1,versionA_stim.csv,READVersionA.csv,"Read Version A","Dissertation, read only version A",HERD,COW,Study1,F,22,59,Test,User,-,,Recall,Recall1,3441,,0,-1,-1,0,0,,1
5ec848e98af2e014101df8e5,r5013rw1r5,Nick_Dissertation_EX1,1,120,2020-07-08T14:53:53-07:00,1.7127251625061,1,versionA_stim.csv,READVersionA.csv,"Read Version A","Dissertation, read only version A",HEIGHT,GROWTH,Study1,B,30,58,Test,User,-,,Recall,Recall1,1224,,0,-1,-1,0,0,,1
5ec848e98af2e014101df8e5,r5013rw1r5,Nick_Dissertation_EX1,1,121,2020-07-08T14:53:55-07:00,2.481281042099,1,versionA_stim.csv,READVersionA.csv,"Read Version A","Dissertation, read only version A",SUGAR,RIDDLE,Study1,U,81,27,Test,User,-,,Recall,Recall1,1993,,0,-1,-1,0,0,,1
5ec848e98af2e014101df8e5,r5013rw1r5,Nick_Dissertation_EX1,1,122,2020-07-08T14:53:57-07:00,1.9337708950043,1,versionA_stim.csv,READVersionA.csv,"Read Version A","Dissertation, read only version A",SHOE,FOOT,Study1,S,60,60,Test,User,-,,Recall,Recall1,1364,,0,-1,-1,0,0,,1
5ec848e98af2e014101df8e5,r5013rw1r5,Nick_Dissertation_EX1,1,123,2020-07-08T14:54:01-07:00,4.2956490516663,1,versionA_stim.csv,READVersionA.csv,"Read Version A","Dissertation, read only version A",REVOLUTION,WAR,Study1,F,20,65,Test,User,-,,Recall,Recall1,3713,,0,-1,-1,0,0,,1
5ec848e98af2e014101df8e5,r5013rw1r5,Nick_Dissertation_EX1,1,124,2020-07-08T14:54:06-07:00,4.4005839824677,1,versionA_stim.csv,READVersionA.csv,"Read Version A","Dissertation, read only version A",NUMBER,AMOUNT,Study1,S,47,84,Test,User,-,,Recall,Recall1,3898,,0,-1,-1,0,0,,1
5ec848e98af2e014101df8e5,r5013rw1r5,Nick_Dissertation_EX1,1,125,2020-07-08T14:54:08-07:00,2.375403881073,1,versionA_stim.csv,READVersionA.csv,"Read Version A","Dissertation, read only version A",PAW,DOG,Study1,F,15,45,Test,User,-,,Recall,Recall1,1886,,0,-1,-1,0,0,,1
5ec848e98af2e014101df8e5,r5013rw1r5,Nick_Dissertation_EX1,1,126,2020-07-08T14:54:13-07:00,4.7562341690063,1,versionA_stim.csv,READVersionA.csv,"Read Version A","Dissertation, read only version A",LIFT,WOMAN,Study1,U,69,21,Test,User,-,,Recall,Recall1,4123,,0,-1,-1,0,0,,1
5ec848e98af2e014101df8e5,r5013rw1r5,Nick_Dissertation_EX1,1,127,2020-07-08T14:54:18-07:00,4.5652558803558,1,versionA_stim.csv,READVersionA.csv,"Read Version A","Dissertation, read only version A",MEANING,DEFINITION,Study1,S,62,35,Test,User,-,,Recall,Recall1,4081,,0,-1,-1,0,0,,1
5ec848e98af2e014101df8e5,r5013rw1r5,Nick_Dissertation_EX1,1,128,2020-07-08T14:54:35-07:00,17.001290082932,1,versionA_stim.csv,READVersionA.csv,"Read Version A","Dissertation, read only version A",LAW,ATTORNEY,Study1,B,34,78,Test,User,-,,Recall,Recall1,16434,ATTORNEY,100,4285,12018,1,1,,1
5ec848e98af2e014101df8e5,r5013rw1r5,Nick_Dissertation_EX1,1,129,2020-07-08T14:54:40-07:00,5.856714963913,1,versionA_stim.csv,READVersionA.csv,"Read Version A","Dissertation, read only version A",BITTER,COLD,Study1,F,12,62,Test,User,-,,Recall,Recall1,5306,SWEET,0,2467,4009,0,0,,1
5ec848e98af2e014101df8e5,r5013rw1r5,Nick_Dissertation_EX1,1,130,2020-07-08T14:54:46-07:00,5.1301000118256,1,versionA_stim.csv,READVersionA.csv,"Read Version A","Dissertation, read only version A",SLEEP,DROWSY,Study1,B,41,16,Test,User,-,,Recall,Recall1,4516,,0,-1,-1,0,0,,1
5ec848e98af2e014101df8e5,r5013rw1r5,Nick_Dissertation_EX1,1,131,2020-07-08T14:54:50-07:00,4.9100270271301,1,versionA_stim.csv,READVersionA.csv,"Read Version A","Dissertation, read only version A",CHISEL,HAMMER,Study1,F,9,15,Test,User,-,,Recall,Recall1,4390,HAMMER,100,2454,3395,1,1,,1
5ec848e98af2e014101df8e5,r5013rw1r5,Nick_Dissertation_EX1,1,132,2020-07-08T14:54:53-07:00,2.4902920722961,1,versionA_stim.csv,READVersionA.csv,"Read Version A","Dissertation, read only version A",CLOTHES,ATTIRE,Study1,B,43,47,Test,User,-,,Recall,Recall1,1918,,0,-1,-1,0,0,,1
5ec848e98af2e014101df8e5,r5013rw1r5,Nick_Dissertation_EX1,1,133,2020-07-08T14:54:56-07:00,3.1755938529968,1,versionA_stim.csv,READVersionA.csv,"Read Version A","Dissertation, read only version A",DRINK,SIP,Study1,B,27,19,Test,User,-,,Recall,Recall1,2685,,0,-1,-1,0,0,,1
5ec848e98af2e014101df8e5,r5013rw1r5,Nick_Dissertation_EX1,1,134,2020-07-08T14:54:59-07:00,2.7655811309814,1,versionA_stim.csv,READVersionA.csv,"Read Version A","Dissertation, read only version A",WAY,OUT,Study1,F,16,24,Test,User,-,,Recall,Recall1,2244,,0,-1,-1,0,0,,1
5ec848e98af2e014101df8e5,r5013rw1r5,Nick_Dissertation_EX1,1,135,2020-07-08T14:55:02-07:00,3.5192058086395,1,versionA_stim.csv,READVersionA.csv,"Read Version A","Dissertation, read only version A",ART,LION,Study1,U,79,82,Test,User,-,,Recall,Recall1,2948,,0,-1,-1,0,0,,1
5ec848e98af2e014101df8e5,r5013rw1r5,Nick_Dissertation_EX1,1,136,2020-07-08T14:55:06-07:00,3.1299121379852,1,versionA_stim.csv,READVersionA.csv,"Read Version A","Dissertation, read only version A",ARTERY,BRONZE,Study1,U,74,40,Test,User,-,,Recall,Recall1,2600,,0,-1,-1,0,0,,1
5ec848e98af2e014101df8e5,r5013rw1r5,Nick_Dissertation_EX1,1,137,2020-07-08T14:55:12-07:00,6.3767740726471,1,versionA_stim.csv,READVersionA.csv,"Read Version A","Dissertation, read only version A",DIETARY,SACKING,Study1,U,67,29,Test,User,-,,Recall,Recall1,5702,,0,-1,-1,0,0,,1
5ec848e98af2e014101df8e5,r5013rw1r5,Nick_Dissertation_EX1,1,138,2020-07-08T14:55:17-07:00,4.9880168437958,1,versionA_stim.csv,READVersionA.csv,"Read Version A","Dissertation, read only version A",FIX,HAND,Study1,U,75,48,Test,User,-,,Recall,Recall1,4532,,0,-1,-1,0,0,,1
5ec848e98af2e014101df8e5,r5013rw1r5,Nick_Dissertation_EX1,1,139,2020-07-08T14:55:23-07:00,5.8429200649261,1,versionA_stim.csv,READVersionA.csv,"Read Version A","Dissertation, read only version A",STRONG,ACCIDENT,Study1,U,80,39,Test,User,-,,Recall,Recall1,5261,WEAK,16.666666666667,3287,4842,0,0,,1
5ec848e98af2e014101df8e5,r5013rw1r5,Nick_Dissertation_EX1,1,140,2020-07-08T14:55:30-07:00,7.2170009613037,1,versionA_stim.csv,READVersionA.csv,"Read Version A","Dissertation, read only version A",PAST,FUTURE,Study1,S,61,79,Test,User,-,,Recall,Recall1,6719,FUTURE,100,5140,6210,1,1,,1
5ec848e98af2e014101df8e5,r5013rw1r5,Nick_Dissertation_EX1,1,141,2020-07-08T14:55:35-07:00,4.7846350669861,1,versionA_stim.csv,READVersionA.csv,"Read Version A","Dissertation, read only version A",LOCATION,SITE,Study1,S,48,23,Test,User,-,,Recall,Recall1,4160,,0,-1,-1,0,0,,1
5ec848e98af2e014101df8e5,r5013rw1r5,Nick_Dissertation_EX1,1,142,2020-07-08T14:55:37-07:00,2.6920878887177,1,versionA_stim.csv,READVersionA.csv,"Read Version A","Dissertation, read only version A",FIRE,BLAZE,Study1,B,45,42,Test,User,-,,Recall,Recall1,2190,,0,-1,-1,0,0,,1
5ec848e98af2e014101df8e5,r5013rw1r5,Nick_Dissertation_EX1,1,143,2020-07-08T14:55:42-07:00,4.3789820671082,1,versionA_stim.csv,READVersionA.csv,"Read Version A","Dissertation, read only version A",WINE,CHEESE,Study1,S,57,55,Test,User,-,,Recall,Recall1,3786,CHEESE,100,1471,2441,1,1,,1
5ec848e98af2e014101df8e5,r5013rw1r5,Nick_Dissertation_EX1,1,144,2020-07-08T14:55:45-07:00,3.4914131164551,1,versionA_stim.csv,READVersionA.csv,"Read Version A","Dissertation, read only version A",ALLOW,TUCK,Study1,U,78,64,Test,User,-,,Recall,Recall1,2995,,0,-1,-1,0,0,,1
5ec848e98af2e014101df8e5,r5013rw1r5,Nick_Dissertation_EX1,1,145,2020-07-08T14:55:49-07:00,3.9496829509735,1,versionA_stim.csv,READVersionA.csv,"Read Version A","Dissertation, read only version A",HAPPY,CAR,Study1,U,77,12,Test,User,-,,Recall,Recall1,3431,,0,-1,-1,0,0,,1
5ec848e98af2e014101df8e5,r5013rw1r5,Nick_Dissertation_EX1,1,146,2020-07-08T14:55:53-07:00,3.555979013443,1,versionA_stim.csv,READVersionA.csv,"Read Version A","Dissertation, read only version A",PLANE,PILOT,Study1,B,44,75,Test,User,-,,Recall,Recall1,2970,,0,-1,-1,0,0,,1
5ec848e98af2e014101df8e5,r5013rw1r5,Nick_Dissertation_EX1,1,147,2020-07-08T14:55:57-07:00,3.8419978618622,1,versionA_stim.csv,READVersionA.csv,"Read Version A","Dissertation, read only version A",DARK,CAVE,Study1,B,28,50,Test,User,-,,Recall,Recall1,3349,,0,-1,-1,0,0,,1
5ec848e98af2e014101df8e5,r5013rw1r5,Nick_Dissertation_EX1,1,148,2020-07-08T14:56:02-07:00,5.2197501659393,1,versionA_stim.csv,READVersionA.csv,"Read Version A","Dissertation, read only version A",BLOW,WIND,Study1,S,55,63,Test,User,-,,Recall,Recall1,4639,,0,-1,-1,0,0,,1
5ec848e98af2e014101df8e5,r5013rw1r5,Nick_Dissertation_EX1,1,149,2020-07-08T14:56:27-07:00,25.560387849808,1,versionA_stim.csv,READVersionA.csv,"Read Version A","Dissertation, read only version A",DEBATE,SIGHT,Study1,U,73,68,Test,User,-,,Recall,Recall1,24983,,0,-1,-1,0,0,,1
5ec848e98af2e014101df8e5,r5013rw1r5,Nick_Dissertation_EX1,1,150,2020-07-08T14:56:30-07:00,2.0805361270905,1,versionA_stim.csv,READVersionA.csv,"Read Version A","Dissertation, read only version A",WAGE,MONEY,Study1,F,8,54,Test,User,-,,Recall,Recall1,1553,,0,-1,-1,0,0,,1
5ec848e98af2e014101df8e5,r5013rw1r5,Nick_Dissertation_EX1,1,151,2020-07-08T14:56:34-07:00,4.9026668071747,1,versionA_stim.csv,READVersionA.csv,"Read Version A","Dissertation, read only version A",BUG,WASP,Study1,B,32,46,Test,User,-,,Recall,Recall1,4306,,0,-1,-1,0,0,,1
5ec848e98af2e014101df8e5,r5013rw1r5,Nick_Dissertation_EX1,1,152,2020-07-08T14:56:37-07:00,2.08544921875,1,versionA_stim.csv,READVersionA.csv,"Read Version A","Dissertation, read only version A",GREAT,FANTASTIC,Study1,B,35,41,Test,User,-,,Recall,Recall1,1583,,0,-1,-1,0,0,,1
5ec848e98af2e014101df8e5,r5013rw1r5,Nick_Dissertation_EX1,1,153,2020-07-08T14:56:48-07:00,11.463313817978,1,versionA_stim.csv,READVersionA.csv,"Read Version A","Dissertation, read only version A",BEGIN,END,Study1,S,54,20,Test,User,-,,Recall,Recall1,10758,END,100,10009,10312,1,1,,0.796
5ec848e98af2e014101df8e5,r5013rw1r5,Nick_Dissertation_EX1,1,154,2020-07-08T14:56:52-07:00,3.6833600997925,1,versionA_stim.csv,READVersionA.csv,"Read Version A","Dissertation, read only version A",HOT,CHILI,Study1,B,37,7,Test,User,-,,Recall,Recall1,3090,,0,-1,-1,0,0,,1
5ec848e98af2e014101df8e5,r5013rw1r5,Nick_Dissertation_EX1,1,155,2020-07-08T14:56:55-07:00,3.0311529636383,1,versionA_stim.csv,READVersionA.csv,"Read Version A","Dissertation, read only version A",ARCHITECTURE,DESIGN,Study1,S,51,25,Test,User,-,,Recall,Recall1,2522,,0,-1,-1,0,0,,1
5ec848e98af2e014101df8e5,r5013rw1r5,Nick_Dissertation_EX1,1,156,2020-07-08T14:57:01-07:00,6.571172952652,1,versionA_stim.csv,READVersionA.csv,"Read Version A","Dissertation, read only version A",WORK,CHORE,Study1,B,39,9,Test,User,-,,Recall,Recall1,6003,HARD,44.444444444444,4560,5640,0,0,,1
5ec848e98af2e014101df8e5,r5013rw1r5,Nick_Dissertation_EX1,1,157,2020-07-08T14:57:05-07:00,3.6001830101013,1,versionA_stim.csv,READVersionA.csv,"Read Version A","Dissertation, read only version A",SWAN,BIRD,Study1,F,14,18,Test,User,-,,Recall,Recall1,3110,,0,-1,-1,0,0,,1
5ec848e98af2e014101df8e5,r5013rw1r5,Nick_Dissertation_EX1,1,158,2020-07-08T14:57:08-07:00,3.5591280460358,1,versionA_stim.csv,READVersionA.csv,"Read Version A","Dissertation, read only version A",CREDIT,CARD,Study1,F,23,44,Test,User,-,,Recall,Recall1,3028,,0,-1,-1,0,0,,1
5ec848e98af2e014101df8e5,r5013rw1r5,Nick_Dissertation_EX1,1,159,2020-07-08T14:57:12-07:00,3.1659369468689,1,versionA_stim.csv,READVersionA.csv,"Read Version A","Dissertation, read only version A",GEOLOGY,ROCK,Study1,F,19,14,Test,User,-,,Recall,Recall1,2578,,0,-1,-1,0,0,,1
5ec848e98af2e014101df8e5,r5013rw1r5,Nick_Dissertation_EX1,1,160,2020-07-08T14:57:24-07:00,12.269237995148,1,versionA_stim.csv,READVersionA.csv,"Read Version A","Dissertation, read only version A",DIGESTION,STOMACH,Study1,F,7,86,Test,User,-,,Recall,Recall1,11661,,0,-1,-1,0,0,,1
5ec848e98af2e014101df8e5,r5013rw1r5,Nick_Dissertation_EX1,1,161,2020-07-08T14:57:29-07:00,4.9533770084381,1,versionA_stim.csv,READVersionA.csv,"Read Version A","Dissertation, read only version A",HORNET,STING,Study1,F,11,70,Test,User,-,,Recall,Recall1,4423,,0,-1,-1,0,0,,1
5ec848e98af2e014101df8e5,r5013rw1r5,Nick_Dissertation_EX1,1,162,2020-07-08T14:57:31-07:00,2.0011560916901,1,versionA_stim.csv,READVersionA.csv,"Read Version A","Dissertation, read only version A",EDITOR,NEWS,Study1,F,10,61,Test,User,-,,Recall,Recall1,1416,,0,-1,-1,0,0,,1
5ec848e98af2e014101df8e5,r5013rw1r5,Nick_Dissertation_EX1,1,163,2020-07-08T14:57:36-07:00,5.3296589851379,1,versionA_stim.csv,READVersionA.csv,"Read Version A","Dissertation, read only version A",TUNA,FISH,Study1,F,25,11,Test,User,-,,Recall,Recall1,4819,,0,-1,-1,0,0,,1
5ec848e98af2e014101df8e5,r5013rw1r5,Nick_Dissertation_EX1,1,164,2020-07-08T14:57:44-07:00,8.0348398685455,1,versionA_stim.csv,READVersionA.csv,"Read Version A","Dissertation, read only version A",TRIAL,JURY,Study1,S,50,43,Test,User,-,,Recall,Recall1,6420,ERROR,22.222222222222,4543,6054,0,0,,1
5ec848e98af2e014101df8e5,r5013rw1r5,Nick_Dissertation_EX1,1,165,2020-07-08T14:57:48-07:00,3.4749460220337,1,versionA_stim.csv,READVersionA.csv,"Read Version A","Dissertation, read only version A",SENTENCE,WORD,Study1,B,31,72,Test,User,-,,Recall,Recall1,2962,,0,-1,-1,0,0,,1
5ec848e98af2e014101df8e5,r5013rw1r5,Nick_Dissertation_EX1,1,166,2020-07-08T14:57:58-07:00,9.9433200359344,1,versionA_stim.csv,READVersionA.csv,"Read Version A","Dissertation, read only version A",DEATH,BUSINESS,Study1,U,72,69,Test,User,-,,Recall,Recall1,9296,,0,-1,-1,0,0,,1
5ec848e98af2e014101df8e5,r5013rw1r5,Nick_Dissertation_EX1,1,167,2020-07-08T14:58:03-07:00,5.0264489650726,1,versionA_stim.csv,READVersionA.csv,"Read Version A","Dissertation, read only version A",HIDE,SICK,Study1,U,84,13,Test,User,-,,Recall,Recall1,4417,,0,-1,-1,0,0,,1
5ec848e98af2e014101df8e5,r5013rw1r5,Nick_Dissertation_EX1,1,168,2020-07-08T14:58:07-07:00,3.9494721889496,1,versionA_stim.csv,READVersionA.csv,"Read Version A","Dissertation, read only version A",DISCOVER,FLOOR,Study1,U,71,34,Test,User,-,,Recall,Recall1,3434,,0,-1,-1,0,0,,1
5ec848e98af2e014101df8e5,r5013rw1r5,Nick_Dissertation_EX1,1,169,2020-07-08T14:58:10-07:00,3.8130509853363,1,versionA_stim.csv,READVersionA.csv,"Read Version A","Dissertation, read only version A",DELINQUENT,BAD,Study1,F,6,51,Test,User,-,,Recall,Recall1,3322,,0,-1,-1,0,0,,1
5ec848e98af2e014101df8e5,r5013rw1r5,Nick_Dissertation_EX1,1,170,2020-07-08T14:58:13-07:00,2.681499004364,1,versionA_stim.csv,READVersionA.csv,"Read Version A","Dissertation, read only version A",MATH,DIVISION,Study1,B,33,81,Test,User,-,,Recall,Recall1,2108,,0,-1,-1,0,0,,1
5ec848e98af2e014101df8e5,r5013rw1r5,Nick_Dissertation_EX1,1,171,2020-07-08T14:58:16-07:00,2.6864669322968,1,versionA_stim.csv,READVersionA.csv,"Read Version A","Dissertation, read only version A",HYGIENE,CLEAN,Study1,F,17,17,Test,User,-,,Recall,Recall1,2174,,0,-1,-1,0,0,,1
5ec848e98af2e014101df8e5,r5013rw1r5,Nick_Dissertation_EX1,1,172,2020-07-08T14:58:21-07:00,4.9157209396362,1,versionA_stim.csv,READVersionA.csv,"Read Version A","Dissertation, read only version A",BABY,CHILD,Study1,S,64,57,Test,User,-,,Recall,Recall1,4427,CHILD,100,2698,3834,1,1,,1
5ec848e98af2e014101df8e5,r5013rw1r5,Nick_Dissertation_EX1,1,173,2020-07-08T14:58:23-07:00,2.193922996521,1,versionA_stim.csv,READVersionA.csv,"Read Version A","Dissertation, read only version A",KEY,LATCH,Study1,B,36,56,Test,User,-,,Recall,Recall1,1652,,0,-1,-1,0,0,,1
5ec848e98af2e014101df8e5,r5013rw1r5,Nick_Dissertation_EX1,1,174,2020-07-08T14:58:29-07:00,5.8808119297028,1,versionA_stim.csv,READVersionA.csv,"Read Version A","Dissertation, read only version A",KIDNEY,LIVER,Study1,S,53,80,Test,User,-,,Recall,Recall1,5347,,0,-1,-1,0,0,,1
5ec848e98af2e014101df8e5,r5013rw1r5,Nick_Dissertation_EX1,1,175,2020-07-08T14:58:50-07:00,21.064791202545,1,versionA_stim.csv,READVersionA.csv,"Read Version A","Dissertation, read only version A",,,,,,0,Instruct,-,10,"You will now be presented with a new set of word pairs. Please study each pair. Remember that your memory will be tested! When finished, press Enter to move to the next pair.",Initial_Instruct,Instruct4,20501,,,-1,-1,,,,1
5ec848e98af2e014101df8e5,r5013rw1r5,Nick_Dissertation_EX1,1,176,2020-07-08T14:59:00-07:00,10.563831806183,1,versionA_stim.csv,READVersionA.csv,"Read Version A","Dissertation, read only version A",CARROT,POTATO,BUFFER3,Buffer,91,93,Study,User,-,,Study/JOL,BUFFER3,9983,,,-1,-1,,,,1
5ec848e98af2e014101df8e5,r5013rw1r5,Nick_Dissertation_EX1,1,177,2020-07-08T14:59:04-07:00,3.6293580532074,1,versionA_stim.csv,READVersionA.csv,"Read Version A","Dissertation, read only version A",ICE,FROZEN,BUFFER3,Buffer,94,92,Study,User,-,,Study/JOL,BUFFER3,3032,,,-1,-1,,,,1
5ec848e98af2e014101df8e5,r5013rw1r5,Nick_Dissertation_EX1,1,178,2020-07-08T14:59:08-07:00,4.0242779254913,1,versionA_stim.csv,READVersionA.csv,"Read Version A","Dissertation, read only version A",CAMP,ADVENTURE,BUFFER3,Buffer,95,94,Study,User,-,,Study/JOL,BUFFER3,3537,,,-1,-1,,,,1
5ec848e98af2e014101df8e5,r5013rw1r5,Nick_Dissertation_EX1,1,179,2020-07-08T14:59:14-07:00,5.7583730220795,1,versionA_stim.csv,READVersionA.csv,"Read Version A","Dissertation, read only version A",NOODLE,STRING,BUFFER3,Buffer,92,96,Study,User,-,,Study/JOL,BUFFER3,5102,,,-1,-1,,,,1
5ec848e98af2e014101df8e5,r5013rw1r5,Nick_Dissertation_EX1,1,180,2020-07-08T14:59:17-07:00,3.517884016037,1,versionA_stim.csv,READVersionA.csv,"Read Version A","Dissertation, read only version A",SHRIMP,FISH,BUFFER3,Buffer,93,95,Study,User,-,,Study/JOL,BUFFER3,3021,,,-1,-1,,,,1
5ec848e98af2e014101df8e5,r5013rw1r5,Nick_Dissertation_EX1,1,181,2020-07-08T14:59:23-07:00,5.8112549781799,1,versionA_stim.csv,READVersionA.csv,"Read Version A","Dissertation, read only version A",INCENSE,SMELL,Study2,F,110,175,Study,User,-,,Study/JOL,"Study Phase2",5241,,,-1,-1,,,,1
5ec848e98af2e014101df8e5,r5013rw1r5,Nick_Dissertation_EX1,1,182,2020-07-08T14:59:30-07:00,6.4004650115967,1,versionA_stim.csv,READVersionA.csv,"Read Version A","Dissertation, read only version A",ADJOURN,END,Study2,F,101,170,Study,User,-,,Study/JOL,"Study Phase2",5909,,,-1,-1,,,,1
5ec848e98af2e014101df8e5,r5013rw1r5,Nick_Dissertation_EX1,1,183,2020-07-08T14:59:36-07:00,5.9856610298157,1,versionA_stim.csv,READVersionA.csv,"Read Version A","Dissertation, read only version A",MOAT,CLEAR,Study2,U,169,130,Study,User,-,,Study/JOL,"Study Phase2",5401,,,-1,-1,,,,1
5ec848e98af2e014101df8e5,r5013rw1r5,Nick_Dissertation_EX1,1,184,2020-07-08T14:59:43-07:00,7.0274651050568,1,versionA_stim.csv,READVersionA.csv,"Read Version A","Dissertation, read only version A",DOCUMENT,PAPER,Study2,F,109,165,Study,User,-,,Study/JOL,"Study Phase2",6445,,,-1,-1,,,,1
5ec848e98af2e014101df8e5,r5013rw1r5,Nick_Dissertation_EX1,1,185,2020-07-08T14:59:54-07:00,11.433219909668,1,versionA_stim.csv,READVersionA.csv,"Read Version A","Dissertation, read only version A",LEASE,TOIL,Study2,U,170,111,Study,User,-,,Study/JOL,"Study Phase2",10846,,,-1,-1,,,,1
5ec848e98af2e014101df8e5,r5013rw1r5,Nick_Dissertation_EX1,1,186,2020-07-08T15:00:01-07:00,6.535208940506,1,versionA_stim.csv,READVersionA.csv,"Read Version A","Dissertation, read only version A",KEYS,JOKE,Study2,U,165,148,Study,User,-,,Study/JOL,"Study Phase2",6066,,,-1,-1,,,,1
5ec848e98af2e014101df8e5,r5013rw1r5,Nick_Dissertation_EX1,1,187,2020-07-08T15:00:07-07:00,6.4314751625061,1,versionA_stim.csv,READVersionA.csv,"Read Version A","Dissertation, read only version A",CAKE,CLOTHES,Study2,U,166,156,Study,User,-,,Study/JOL,"Study Phase2",5858,,,-1,-1,,,,1
5ec848e98af2e014101df8e5,r5013rw1r5,Nick_Dissertation_EX1,1,188,2020-07-08T15:00:13-07:00,5.6371719837189,1,versionA_stim.csv,READVersionA.csv,"Read Version A","Dissertation, read only version A",LISTEN,FICTION,Study2,U,164,109,Study,User,-,,Study/JOL,"Study Phase2",5058,,,-1,-1,,,,1
5ec848e98af2e014101df8e5,r5013rw1r5,Nick_Dissertation_EX1,1,189,2020-07-08T15:00:17-07:00,4.9076180458069,1,versionA_stim.csv,READVersionA.csv,"Read Version A","Dissertation, read only version A",CHOP,CUT,Study2,F,107,100,Study,User,-,,Study/JOL,"Study Phase2",4410,,,-1,-1,,,,1
5ec848e98af2e014101df8e5,r5013rw1r5,Nick_Dissertation_EX1,1,190,2020-07-08T15:00:22-07:00,4.6225829124451,1,versionA_stim.csv,READVersionA.csv,"Read Version A","Dissertation, read only version A",BAD,VILLAIN,Study2,B,118,132,Study,User,-,,Study/JOL,"Study Phase2",4009,,,-1,-1,,,,1
5ec848e98af2e014101df8e5,r5013rw1r5,Nick_Dissertation_EX1,1,191,2020-07-08T15:00:29-07:00,7.3757920265198,1,versionA_stim.csv,READVersionA.csv,"Read Version A","Dissertation, read only version A",TEMPERATURE,Morning,Study2,U,173,136,Study,User,-,,Study/JOL,"Study Phase2",6831,,,-1,-1,,,,1
5ec848e98af2e014101df8e5,r5013rw1r5,Nick_Dissertation_EX1,1,192,2020-07-08T15:00:36-07:00,6.3795409202576,1,versionA_stim.csv,READVersionA.csv,"Read Version A","Dissertation, read only version A",GIVE,STEAK,Study2,U,158,127,Study,User,-,,Study/JOL,"Study Phase2",5792,,,-1,-1,,,,1
5ec848e98af2e014101df8e5,r5013rw1r5,Nick_Dissertation_EX1,1,193,2020-07-08T15:00:43-07:00,6.9301691055298,1,versionA_stim.csv,READVersionA.csv,"Read Version A","Dissertation, read only version A",LOAN,SIGN,Study2,U,171,103,Study,User,-,,Study/JOL,"Study Phase2",6342,,,-1,-1,,,,1
5ec848e98af2e014101df8e5,r5013rw1r5,Nick_Dissertation_EX1,1,194,2020-07-08T15:00:48-07:00,5.651741027832,1,versionA_stim.csv,READVersionA.csv,"Read Version A","Dissertation, read only version A",SAFETY,SEATBELT,Study2,S,147,152,Study,User,-,,Study/JOL,"Study Phase2",5188,,,-1,-1,,,,1
5ec848e98af2e014101df8e5,r5013rw1r5,Nick_Dissertation_EX1,1,195,2020-07-08T15:00:55-07:00,6.254870891571,1,versionA_stim.csv,READVersionA.csv,"Read Version A","Dissertation, read only version A",EARTH,GROUND,Study2,S,144,138,Study,User,-,,Study/JOL,"Study Phase2",5655,,,-1,-1,,,,1
5ec848e98af2e014101df8e5,r5013rw1r5,Nick_Dissertation_EX1,1,196,2020-07-08T15:00:59-07:00,4.7496309280396,1,versionA_stim.csv,READVersionA.csv,"Read Version A","Dissertation, read only version A",DRIVER,CAR,Study2,F,106,164,Study,User,-,,Study/JOL,"Study Phase2",4242,,,-1,-1,,,,1
5ec848e98af2e014101df8e5,r5013rw1r5,Nick_Dissertation_EX1,1,197,2020-07-08T15:01:05-07:00,5.8222210407257,1,versionA_stim.csv,READVersionA.csv,"Read Version A","Dissertation, read only version A",STRETCH,CLOTH,Study2,U,157,107,Study,User,-,,Study/JOL,"Study Phase2",5168,,,-1,-1,,,,1
5ec848e98af2e014101df8e5,r5013rw1r5,Nick_Dissertation_EX1,1,198,2020-07-08T15:01:10-07:00,4.4738190174103,1,versionA_stim.csv,READVersionA.csv,"Read Version A","Dissertation, read only version A",FIGHT,BRAWL,Study2,B,135,104,Study,User,-,,Study/JOL,"Study Phase2",3948,,,-1,-1,,,,1
5ec848e98af2e014101df8e5,r5013rw1r5,Nick_Dissertation_EX1,1,199,2020-07-08T15:01:17-07:00,7.3774859905243,1,versionA_stim.csv,READVersionA.csv,"Read Version A","Dissertation, read only version A",THREAD,THIMBLE,Study2,B,121,145,Study,User,-,,Study/JOL,"Study Phase2",6796,,,-1,-1,,,,1
5ec848e98af2e014101df8e5,r5013rw1r5,Nick_Dissertation_EX1,1,200,2020-07-08T15:01:22-07:00,4.5067279338837,1,versionA_stim.csv,READVersionA.csv,"Read Version A","Dissertation, read only version A",NAME,HATE,Study2,U,167,159,Study,User,-,,Study/JOL,"Study Phase2",3915,,,-1,-1,,,,1
5ec848e98af2e014101df8e5,r5013rw1r5,Nick_Dissertation_EX1,1,201,2020-07-08T15:01:27-07:00,5.5715911388397,1,versionA_stim.csv,READVersionA.csv,"Read Version A","Dissertation, read only version A",SCALP,HEAD,Study2,F,105,172,Study,User,-,,Study/JOL,"Study Phase2",5077,,,-1,-1,,,,1
5ec848e98af2e014101df8e5,r5013rw1r5,Nick_Dissertation_EX1,1,202,2020-07-08T15:01:34-07:00,6.3681540489197,1,versionA_stim.csv,READVersionA.csv,"Read Version A","Dissertation, read only version A",AFFECTION,LOVE,Study2,F,115,140,Study,User,-,,Study/JOL,"Study Phase2",5749,,,-1,-1,,,,1
5ec848e98af2e014101df8e5,r5013rw1r5,Nick_Dissertation_EX1,1,203,2020-07-08T15:01:37-07:00,3.5017609596252,1,versionA_stim.csv,READVersionA.csv,"Read Version A","Dissertation, read only version A",DEAD,COFFIN,Study2,B,128,131,Study,User,-,,Study/JOL,"Study Phase2",2863,,,-1,-1,,,,1
5ec848e98af2e014101df8e5,r5013rw1r5,Nick_Dissertation_EX1,1,204,2020-07-08T15:01:42-07:00,4.6249959468842,1,versionA_stim.csv,READVersionA.csv,"Read Version A","Dissertation, read only version A",RIGHTS,EQUAL,Study2,S,137,157,Study,User,-,,Study/JOL,"Study Phase2",3944,,,-1,-1,,,,1
5ec848e98af2e014101df8e5,r5013rw1r5,Nick_Dissertation_EX1,1,205,2020-07-08T15:01:49-07:00,6.8298399448395,1,versionA_stim.csv,READVersionA.csv,"Read Version A","Dissertation, read only version A",EVEN,REVENGE,Study2,B,122,116,Study,User,-,,Study/JOL,"Study Phase2",6359,,,-1,-1,,,,1
5ec848e98af2e014101df8e5,r5013rw1r5,Nick_Dissertation_EX1,1,206,2020-07-08T15:01:53-07:00,4.7997260093689,1,versionA_stim.csv,READVersionA.csv,"Read Version A","Dissertation, read only version A",LOUD,NOISE,Study2,S,152,105,Study,User,-,,Study/JOL,"Study Phase2",4230,,,-1,-1,,,,1
5ec848e98af2e014101df8e5,r5013rw1r5,Nick_Dissertation_EX1,1,207,2020-07-08T15:01:56-07:00,3.1114089488983,1,versionA_stim.csv,READVersionA.csv,"Read Version A","Dissertation, read only version A",CHERRY,RED,Study2,F,104,169,Study,User,-,,Study/JOL,"Study Phase2",2609,,,-1,-1,,,,1
5ec848e98af2e014101df8e5,r5013rw1r5,Nick_Dissertation_EX1,1,208,2020-07-08T15:02:03-07:00,6.3390271663666,1,versionA_stim.csv,READVersionA.csv,"Read Version A","Dissertation, read only version A",HONEST,TRUTHFUL,Study2,B,133,171,Study,User,-,,Study/JOL,"Study Phase2",4567,,,-1,-1,,,,1
5ec848e98af2e014101df8e5,r5013rw1r5,Nick_Dissertation_EX1,1,209,2020-07-08T15:02:08-07:00,5.4033310413361,1,versionA_stim.csv,READVersionA.csv,"Read Version A","Dissertation, read only version A",POP,BALLOON,Study2,B,123,101,Study,User,-,,Study/JOL,"Study Phase2",4863,,,-1,-1,,,,1
5ec848e98af2e014101df8e5,r5013rw1r5,Nick_Dissertation_EX1,1,210,2020-07-08T15:02:13-07:00,4.7587308883667,1,versionA_stim.csv,READVersionA.csv,"Read Version A","Dissertation, read only version A",BEST,FAVORITE,Study2,B,125,167,Study,User,-,,Study/JOL,"Study Phase2",4152,,,-1,-1,,,,1
5ec848e98af2e014101df8e5,r5013rw1r5,Nick_Dissertation_EX1,1,211,2020-07-08T15:02:17-07:00,4.3918900489807,1,versionA_stim.csv,READVersionA.csv,"Read Version A","Dissertation, read only version A",RAZOR,SHAVE,Study2,S,136,117,Study,User,-,,Study/JOL,"Study Phase2",3893,,,-1,-1,,,,1
5ec848e98af2e014101df8e5,r5013rw1r5,Nick_Dissertation_EX1,1,212,2020-07-08T15:02:22-07:00,4.6591560840607,1,versionA_stim.csv,READVersionA.csv,"Read Version A","Dissertation, read only version A",DRY,WET,Study2,S,146,134,Study,User,-,,Study/JOL,"Study Phase2",4036,,,-1,-1,,,,1
5ec848e98af2e014101df8e5,r5013rw1r5,Nick_Dissertation_EX1,1,213,2020-07-08T15:02:26-07:00,4.0364179611206,1,versionA_stim.csv,READVersionA.csv,"Read Version A","Dissertation, read only version A",CLUE,GAME,Study2,F,97,137,Study,User,-,,Study/JOL,"Study Phase2",3527,,,-1,-1,,,,1
5ec848e98af2e014101df8e5,r5013rw1r5,Nick_Dissertation_EX1,1,214,2020-07-08T15:02:32-07:00,6.1770868301392,1,versionA_stim.csv,READVersionA.csv,"Read Version A","Dissertation, read only version A",FUZZY,BANG,Study2,U,168,166,Study,User,-,,Study/JOL,"Study Phase2",5598,,,-1,-1,,,,1
5ec848e98af2e014101df8e5,r5013rw1r5,Nick_Dissertation_EX1,1,215,2020-07-08T15:02:38-07:00,5.3256990909576,1,versionA_stim.csv,READVersionA.csv,"Read Version A","Dissertation, read only version A",DINE,EAT,Study2,F,111,154,Study,User,-,,Study/JOL,"Study Phase2",4820,,,-1,-1,,,,1
5ec848e98af2e014101df8e5,r5013rw1r5,Nick_Dissertation_EX1,1,216,2020-07-08T15:02:43-07:00,5.5999751091003,1,versionA_stim.csv,READVersionA.csv,"Read Version A","Dissertation, read only version A",SHOELACE,TIE,Study2,F,99,99,Study,User,-,,Study/JOL,"Study Phase2",5020,,,-1,-1,,,,1
5ec848e98af2e014101df8e5,r5013rw1r5,Nick_Dissertation_EX1,1,217,2020-07-08T15:02:49-07:00,6.2542269229889,1,versionA_stim.csv,READVersionA.csv,"Read Version A","Dissertation, read only version A",FRUIT,STRAWBERRY,Study2,B,124,176,Study,User,-,,Study/JOL,"Study Phase2",5752,,,-1,-1,,,,1
5ec848e98af2e014101df8e5,r5013rw1r5,Nick_Dissertation_EX1,1,218,2020-07-08T15:02:56-07:00,6.2433240413666,1,versionA_stim.csv,READVersionA.csv,"Read Version A","Dissertation, read only version A",GLASS,BREAKABLE,Study2,B,127,124,Study,User,-,,Study/JOL,"Study Phase2",5686,,,-1,-1,,,,1
5ec848e98af2e014101df8e5,r5013rw1r5,Nick_Dissertation_EX1,1,219,2020-07-08T15:03:02-07:00,6.0443499088287,1,versionA_stim.csv,READVersionA.csv,"Read Version A","Dissertation, read only version A",FLEA,TICK,Study2,S,151,147,Study,User,-,,Study/JOL,"Study Phase2",5455,,,-1,-1,,,,1
5ec848e98af2e014101df8e5,r5013rw1r5,Nick_Dissertation_EX1,1,220,2020-07-08T15:03:07-07:00,5.0502769947052,1,versionA_stim.csv,READVersionA.csv,"Read Version A","Dissertation, read only version A",BASEBALL,LEAGUE,Study2,B,131,150,Study,User,-,,Study/JOL,"Study Phase2",4556,,,-1,-1,,,,1
5ec848e98af2e014101df8e5,r5013rw1r5,Nick_Dissertation_EX1,1,221,2020-07-08T15:03:13-07:00,6.3242571353912,1,versionA_stim.csv,READVersionA.csv,"Read Version A","Dissertation, read only version A",MAZE,ELECTION,Study2,U,159,128,Study,User,-,,Study/JOL,"Study Phase2",5633,,,-1,-1,,,,1
5ec848e98af2e014101df8e5,r5013rw1r5,Nick_Dissertation_EX1,1,222,2020-07-08T15:03:17-07:00,4.2052488327026,1,versionA_stim.csv,READVersionA.csv,"Read Version A","Dissertation, read only version A",SLEEP,NAP,Study2,B,134,115,Study,User,-,,Study/JOL,"Study Phase2",3726,,,-1,-1,,,,1
5ec848e98af2e014101df8e5,r5013rw1r5,Nick_Dissertation_EX1,1,223,2020-07-08T15:03:22-07:00,4.8502910137177,1,versionA_stim.csv,READVersionA.csv,"Read Version A","Dissertation, read only version A",GONE,AWAY,Study2,S,142,162,Study,User,-,,Study/JOL,"Study Phase2",4248,,,-1,-1,,,,1
5ec848e98af2e014101df8e5,r5013rw1r5,Nick_Dissertation_EX1,1,224,2020-07-08T15:03:27-07:00,5.2997779846191,1,versionA_stim.csv,READVersionA.csv,"Read Version A","Dissertation, read only version A",MEAT,OBTAIN,Study2,U,161,120,Study,User,-,,Study/JOL,"Study Phase2",4815,,,-1,-1,,,,1
5ec848e98af2e014101df8e5,r5013rw1r5,Nick_Dissertation_EX1,1,225,2020-07-08T15:03:32-07:00,4.3349571228027,1,versionA_stim.csv,READVersionA.csv,"Read Version A","Dissertation, read only version A",FISH,SARDINE,Study2,B,130,161,Study,User,-,,Study/JOL,"Study Phase2",3749,,,-1,-1,,,,1
5ec848e98af2e014101df8e5,r5013rw1r5,Nick_Dissertation_EX1,1,226,2020-07-08T15:03:35-07:00,3.0488078594208,1,versionA_stim.csv,READVersionA.csv,"Read Version A","Dissertation, read only version A",SUN,TAN,Study2,S,155,110,Study,User,-,,Study/JOL,"Study Phase2",2546,,,-1,-1,,,,1
5ec848e98af2e014101df8e5,r5013rw1r5,Nick_Dissertation_EX1,1,227,2020-07-08T15:03:38-07:00,2.8986151218414,1,versionA_stim.csv,READVersionA.csv,"Read Version A","Dissertation, read only version A",MASON,JAR,Study2,S,138,168,Study,User,-,,Study/JOL,"Study Phase2",2366,,,-1,-1,,,,1
5ec848e98af2e014101df8e5,r5013rw1r5,Nick_Dissertation_EX1,1,228,2020-07-08T15:03:44-07:00,5.961333990097,1,versionA_stim.csv,READVersionA.csv,"Read Version A","Dissertation, read only version A",TURN,FLIP,Study2,B,116,122,Study,User,-,,Study/JOL,"Study Phase2",5359,,,-1,-1,,,,1
5ec848e98af2e014101df8e5,r5013rw1r5,Nick_Dissertation_EX1,1,229,2020-07-08T15:03:48-07:00,4.575483083725,1,versionA_stim.csv,READVersionA.csv,"Read Version A","Dissertation, read only version A",TRUTH,LIE,Study2,S,148,108,Study,User,-,,Study/JOL,"Study Phase2",2923,,,-1,-1,,,,1
5ec848e98af2e014101df8e5,r5013rw1r5,Nick_Dissertation_EX1,1,230,2020-07-08T15:03:54-07:00,5.8064999580383,1,versionA_stim.csv,READVersionA.csv,"Read Version A","Dissertation, read only version A",FEUD,FIGHT,Study2,F,113,97,Study,User,-,,Study/JOL,"Study Phase2",4175,,,-1,-1,,,,1
5ec848e98af2e014101df8e5,r5013rw1r5,Nick_Dissertation_EX1,1,231,2020-07-08T15:03:59-07:00,4.6397638320923,1,versionA_stim.csv,READVersionA.csv,"Read Version A","Dissertation, read only version A",CACTUS,PLANT,Study2,F,98,139,Study,User,-,,Study/JOL,"Study Phase2",4124,,,-1,-1,,,,1
5ec848e98af2e014101df8e5,r5013rw1r5,Nick_Dissertation_EX1,1,232,2020-07-08T15:04:05-07:00,6.2199611663818,1,versionA_stim.csv,READVersionA.csv,"Read Version A","Dissertation, read only version A",ALONE,LONELY,Study2,S,145,129,Study,User,-,,Study/JOL,"Study Phase2",4639,,,-1,-1,,,,1
5ec848e98af2e014101df8e5,r5013rw1r5,Nick_Dissertation_EX1,1,233,2020-07-08T15:04:10-07:00,5.0542848110199,1,versionA_stim.csv,READVersionA.csv,"Read Version A","Dissertation, read only version A",ELEMENT,CARBON,Study2,S,141,142,Study,User,-,,Study/JOL,"Study Phase2",4529,,,-1,-1,,,,1
5ec848e98af2e014101df8e5,r5013rw1r5,Nick_Dissertation_EX1,1,234,2020-07-08T15:04:14-07:00,4.5490911006927,1,versionA_stim.csv,READVersionA.csv,"Read Version A","Dissertation, read only version A",CHILL,COLD,Study2,F,114,146,Study,User,-,,Study/JOL,"Study Phase2",3765,,,-1,-1,,,,1
5ec848e98af2e014101df8e5,r5013rw1r5,Nick_Dissertation_EX1,1,235,2020-07-08T15:04:19-07:00,4.9778130054474,1,versionA_stim.csv,READVersionA.csv,"Read Version A","Dissertation, read only version A",BIRD,PENGUIN,Study2,B,119,133,Study,User,-,,Study/JOL,"Study Phase2",4489,,,-1,-1,,,,1
5ec848e98af2e014101df8e5,r5013rw1r5,Nick_Dissertation_EX1,1,236,2020-07-08T15:04:23-07:00,3.9044299125671,1,versionA_stim.csv,READVersionA.csv,"Read Version A","Dissertation, read only version A",VEHICLE,CHARM,Study2,U,160,155,Study,User,-,,Study/JOL,"Study Phase2",3310,,,-1,-1,,,,1
5ec848e98af2e014101df8e5,r5013rw1r5,Nick_Dissertation_EX1,1,237,2020-07-08T15:04:28-07:00,4.208799123764,1,versionA_stim.csv,READVersionA.csv,"Read Version A","Dissertation, read only version A",PLANE,AIRCRAFT,Study2,B,129,106,Study,User,-,,Study/JOL,"Study Phase2",3688,,,-1,-1,,,,1
5ec848e98af2e014101df8e5,r5013rw1r5,Nick_Dissertation_EX1,1,238,2020-07-08T15:04:31-07:00,3.7919678688049,1,versionA_stim.csv,READVersionA.csv,"Read Version A","Dissertation, read only version A",MONEY,BANKER,Study2,B,132,173,Study,User,-,,Study/JOL,"Study Phase2",3220,,,-1,-1,,,,1
5ec848e98af2e014101df8e5,r5013rw1r5,Nick_Dissertation_EX1,1,239,2020-07-08T15:04:36-07:00,4.4834141731262,1,versionA_stim.csv,READVersionA.csv,"Read Version A","Dissertation, read only version A",TANTRUM,TEMPER,Study2,S,154,160,Study,User,-,,Study/JOL,"Study Phase2",3966,,,-1,-1,,,,1
5ec848e98af2e014101df8e5,r5013rw1r5,Nick_Dissertation_EX1,1,240,2020-07-08T15:04:39-07:00,2.8329799175262,1,versionA_stim.csv,READVersionA.csv,"Read Version A","Dissertation, read only version A",PHONE,COMMUNICATION,Study2,S,149,114,Study,User,-,,Study/JOL,"Study Phase2",2350,,,-1,-1,,,,1
5ec848e98af2e014101df8e5,r5013rw1r5,Nick_Dissertation_EX1,1,241,2020-07-08T15:04:46-07:00,7.3782451152802,1,versionA_stim.csv,READVersionA.csv,"Read Version A","Dissertation, read only version A",LITTER,TRASH,Study2,F,103,149,Study,User,-,,Study/JOL,"Study Phase2",6769,,,-1,-1,,,,1
5ec848e98af2e014101df8e5,r5013rw1r5,Nick_Dissertation_EX1,1,242,2020-07-08T15:04:50-07:00,4.049103975296,1,versionA_stim.csv,READVersionA.csv,"Read Version A","Dissertation, read only version A",ROD,REEL,Study2,S,150,98,Study,User,-,,Study/JOL,"Study Phase2",3545,,,-1,-1,,,,1
5ec848e98af2e014101df8e5,r5013rw1r5,Nick_Dissertation_EX1,1,243,2020-07-08T15:04:57-07:00,6.9792850017548,1,versionA_stim.csv,READVersionA.csv,"Read Version A","Dissertation, read only version A",CAR,WINDSHIELD,Study2,B,117,141,Study,User,-,,Study/JOL,"Study Phase2",6390,,,-1,-1,,,,1
5ec848e98af2e014101df8e5,r5013rw1r5,Nick_Dissertation_EX1,1,244,2020-07-08T15:05:03-07:00,5.8538739681244,1,versionA_stim.csv,READVersionA.csv,"Read Version A","Dissertation, read only version A",CRACKLE,ABLE,Study2,U,162,153,Study,User,-,,Study/JOL,"Study Phase2",5249,,,-1,-1,,,,1
5ec848e98af2e014101df8e5,r5013rw1r5,Nick_Dissertation_EX1,1,245,2020-07-08T15:05:07-07:00,4.4780650138855,1,versionA_stim.csv,READVersionA.csv,"Read Version A","Dissertation, read only version A",OWN,HAVE,Study2,S,153,158,Study,User,-,,Study/JOL,"Study Phase2",3969,,,-1,-1,,,,1
5ec848e98af2e014101df8e5,r5013rw1r5,Nick_Dissertation_EX1,1,246,2020-07-08T15:05:12-07:00,4.8788659572601,1,versionA_stim.csv,READVersionA.csv,"Read Version A","Dissertation, read only version A",CAT,PANTHER,Study2,B,126,125,Study,User,-,,Study/JOL,"Study Phase2",4244,,,-1,-1,,,,1
5ec848e98af2e014101df8e5,r5013rw1r5,Nick_Dissertation_EX1,1,247,2020-07-08T15:05:18-07:00,5.3429560661316,1,versionA_stim.csv,READVersionA.csv,"Read Version A","Dissertation, read only version A",Shell,SHAKE,Study2,U,163,119,Study,User,-,,Study/JOL,"Study Phase2",4797,,,-1,-1,,,,1
5ec848e98af2e014101df8e5,r5013rw1r5,Nick_Dissertation_EX1,1,248,2020-07-08T15:05:21-07:00,3.6118288040161,1,versionA_stim.csv,READVersionA.csv,"Read Version A","Dissertation, read only version A",WRIST,BRACELET,Study2,S,140,143,Study,User,-,,Study/JOL,"Study Phase2",3025,,,-1,-1,,,,1
5ec848e98af2e014101df8e5,r5013rw1r5,Nick_Dissertation_EX1,1,249,2020-07-08T15:05:28-07:00,6.8479800224304,1,versionA_stim.csv,READVersionA.csv,"Read Version A","Dissertation, read only version A",JUSTICE,MAROON,Study2,U,156,163,Study,User,-,,Study/JOL,"Study Phase2",6351,,,-1,-1,,,,1
5ec848e98af2e014101df8e5,r5013rw1r5,Nick_Dissertation_EX1,1,250,2020-07-08T15:05:33-07:00,5.2310400009155,1,versionA_stim.csv,READVersionA.csv,"Read Version A","Dissertation, read only version A",WATER,DRINK,Study2,S,143,118,Study,User,-,,Study/JOL,"Study Phase2",3573,,,-1,-1,,,,1
5ec848e98af2e014101df8e5,r5013rw1r5,Nick_Dissertation_EX1,1,251,2020-07-08T15:05:37-07:00,3.3634309768677,1,versionA_stim.csv,READVersionA.csv,"Read Version A","Dissertation, read only version A",CANDLE,WAX,Study2,S,139,174,Study,User,-,,Study/JOL,"Study Phase2",2847,,,-1,-1,,,,1
5ec848e98af2e014101df8e5,r5013rw1r5,Nick_Dissertation_EX1,1,252,2020-07-08T15:05:42-07:00,4.9337840080261,1,versionA_stim.csv,READVersionA.csv,"Read Version A","Dissertation, read only version A",EXTENSION,LONG,Study2,F,96,112,Study,User,-,,Study/JOL,"Study Phase2",4285,,,-1,-1,,,,1
5ec848e98af2e014101df8e5,r5013rw1r5,Nick_Dissertation_EX1,1,253,2020-07-08T15:05:45-07:00,3.720566034317,1,versionA_stim.csv,READVersionA.csv,"Read Version A","Dissertation, read only version A",FURRY,DOG,Study2,F,102,126,Study,User,-,,Study/JOL,"Study Phase2",3154,,,-1,-1,,,,1
5ec848e98af2e014101df8e5,r5013rw1r5,Nick_Dissertation_EX1,1,254,2020-07-08T15:05:51-07:00,5.6328611373901,1,versionA_stim.csv,READVersionA.csv,"Read Version A","Dissertation, read only version A",MULE,DONKEY,Study2,F,108,123,Study,User,-,,Study/JOL,"Study Phase2",5046,,,-1,-1,,,,1
5ec848e98af2e014101df8e5,r5013rw1r5,Nick_Dissertation_EX1,1,255,2020-07-08T15:05:58-07:00,7.0508999824524,1,versionA_stim.csv,READVersionA.csv,"Read Version A","Dissertation, read only version A",BOTH,OUNCE,Study2,U,172,113,Study,User,-,,Study/JOL,"Study Phase2",6521,,,-1,-1,,,,1
5ec848e98af2e014101df8e5,r5013rw1r5,Nick_Dissertation_EX1,1,256,2020-07-08T15:06:06-07:00,7.5352120399475,1,versionA_stim.csv,READVersionA.csv,"Read Version A","Dissertation, read only version A",MAIN,SCAR,Study2,U,175,135,Study,User,-,,Study/JOL,"Study Phase2",6589,,,-1,-1,,,,1
5ec848e98af2e014101df8e5,r5013rw1r5,Nick_Dissertation_EX1,1,257,2020-07-08T15:06:12-07:00,6.6397478580475,1,versionA_stim.csv,READVersionA.csv,"Read Version A","Dissertation, read only version A",DETECTIVE,MYSTERY,Study2,F,100,102,Study,User,-,,Study/JOL,"Study Phase2",5994,,,-1,-1,,,,1
5ec848e98af2e014101df8e5,r5013rw1r5,Nick_Dissertation_EX1,1,258,2020-07-08T15:06:18-07:00,5.5680410861969,1,versionA_stim.csv,READVersionA.csv,"Read Version A","Dissertation, read only version A",MIRROR,CHILDREN,Study2,U,174,121,Study,User,-,,Study/JOL,"Study Phase2",5045,,,-1,-1,,,,1
5ec848e98af2e014101df8e5,r5013rw1r5,Nick_Dissertation_EX1,1,259,2020-07-08T15:06:23-07:00,5.6568019390106,1,versionA_stim.csv,READVersionA.csv,"Read Version A","Dissertation, read only version A",STAR,ACTRESS,Study2,B,120,151,Study,User,-,,Study/JOL,"Study Phase2",5082,,,-1,-1,,,,1
5ec848e98af2e014101df8e5,r5013rw1r5,Nick_Dissertation_EX1,1,260,2020-07-08T15:06:29-07:00,5.270987033844,1,versionA_stim.csv,READVersionA.csv,"Read Version A","Dissertation, read only version A",SHEARS,SCISSORS,Study2,F,112,144,Study,User,-,,Study/JOL,"Study Phase2",4748,,,-1,-1,,,,1
5ec848e98af2e014101df8e5,r5013rw1r5,Nick_Dissertation_EX1,1,261,2020-07-08T15:06:34-07:00,5.0041809082031,1,versionA_stim.csv,READVersionA.csv,"Read Version A","Dissertation, read only version A",DAYS,WEAKS,BUFFER4,Buffer,176,180,Study,User,-,,Study/JOL,BUFFER4,4414,,,-1,-1,,,,1
5ec848e98af2e014101df8e5,r5013rw1r5,Nick_Dissertation_EX1,1,262,2020-07-08T15:06:41-07:00,7.439355134964,1,versionA_stim.csv,READVersionA.csv,"Read Version A","Dissertation, read only version A",OCTOBER,SPOOKY,BUFFER4,Buffer,180,177,Study,User,-,,Study/JOL,BUFFER4,6860,,,-1,-1,,,,1
5ec848e98af2e014101df8e5,r5013rw1r5,Nick_Dissertation_EX1,1,263,2020-07-08T15:06:45-07:00,4.0445108413696,1,versionA_stim.csv,READVersionA.csv,"Read Version A","Dissertation, read only version A",SPRING,MARCH,BUFFER4,Buffer,179,179,Study,User,-,,Study/JOL,BUFFER4,3439,,,-1,-1,,,,1
5ec848e98af2e014101df8e5,r5013rw1r5,Nick_Dissertation_EX1,1,264,2020-07-08T15:06:49-07:00,3.4008390903473,1,versionA_stim.csv,READVersionA.csv,"Read Version A","Dissertation, read only version A",TOOL,SHED,BUFFER4,Buffer,178,178,Study,User,-,,Study/JOL,BUFFER4,2901,,,-1,-1,,,,1
5ec848e98af2e014101df8e5,r5013rw1r5,Nick_Dissertation_EX1,1,265,2020-07-08T15:06:53-07:00,3.9092659950256,1,versionA_stim.csv,READVersionA.csv,"Read Version A","Dissertation, read only version A",MONTH,YEAR,BUFFER4,Buffer,177,181,Study,User,-,,Study/JOL,BUFFER4,3277,,,-1,-1,,,,1
5ec848e98af2e014101df8e5,r5013rw1r5,Nick_Dissertation_EX1,1,266,2020-07-08T15:06:54-07:00,1.8688199520111,1,versionA_stim.csv,READVersionA.csv,"Read Version A","Dissertation, read only version A",,,,,,0,Instruct,User,-,"You have completed this section. Please press Enter.",Filler_Instruction,Instruct5,1315,,,-1,-1,,,,1
5ec848e98af2e014101df8e5,r5013rw1r5,Nick_Dissertation_EX1,1,267,2020-07-08T15:08:55-07:00,120.60935401917,1,versionA_stim.csv,READVersionA.csv,"Read Version A","Dissertation, read only version A",,,,,,0,FreeRecall,120,120,"Please list the 50 US states in reverse alphabetical order (z - a). The task will automatically advance to the next screen after two minutes.",,Filler2,120002,"Wyoming Washington Utah Texas New York Montana Illinois Hawaii Florida California Arizona Al",0,7331,119441,0,0,,1
5ec848e98af2e014101df8e5,r5013rw1r5,Nick_Dissertation_EX1,1,268,2020-07-08T15:09:07-07:00,12.020972967148,1,versionA_stim.csv,READVersionA.csv,"Read Version A","Dissertation, read only version A",,,,,,0,Instruct,-,10,"You will now be presented with the first word from each of the previously studied item pairs. Please type the missing word. If you do not know the word, you may guess or press Enter to skip forward to the next pair.",,Instruct6,11416,,,-1,-1,,,,1
5ec848e98af2e014101df8e5,r5013rw1r5,Nick_Dissertation_EX1,1,269,2020-07-08T15:09:14-07:00,6.6752121448517,1,versionA_stim.csv,READVersionA.csv,"Read Version A","Dissertation, read only version A",GIVE,STEAK,Study2,U,158,127,Test,User,-,,Recall,Recall2,6045,AWAY,22.222222222222,2315,5411,0,0,,1
5ec848e98af2e014101df8e5,r5013rw1r5,Nick_Dissertation_EX1,1,270,2020-07-08T15:09:16-07:00,2.5558550357819,1,versionA_stim.csv,READVersionA.csv,"Read Version A","Dissertation, read only version A",CHERRY,RED,Study2,F,104,169,Test,User,-,,Recall,Recall2,2054,RED,100,1350,1717,1,1,,1
5ec848e98af2e014101df8e5,r5013rw1r5,Nick_Dissertation_EX1,1,271,2020-07-08T15:09:22-07:00,6.1676199436188,1,versionA_stim.csv,READVersionA.csv,"Read Version A","Dissertation, read only version A",LISTEN,FICTION,Study2,U,164,109,Test,User,-,,Recall,Recall2,5547,LOUD,18.181818181818,3685,4487,0,0,,1
5ec848e98af2e014101df8e5,r5013rw1r5,Nick_Dissertation_EX1,1,272,2020-07-08T15:09:31-07:00,8.3350470066071,1,versionA_stim.csv,READVersionA.csv,"Read Version A","Dissertation, read only version A",MOAT,CLEAR,Study2,U,169,130,Test,User,-,,Recall,Recall2,7855,CLEAR,100,1706,7305,1,1,,1
5ec848e98af2e014101df8e5,r5013rw1r5,Nick_Dissertation_EX1,1,273,2020-07-08T15:09:35-07:00,4.1502649784088,1,versionA_stim.csv,READVersionA.csv,"Read Version A","Dissertation, read only version A",DINE,EAT,Study2,F,111,154,Test,User,-,,Recall,Recall2,3564,OUT,33.333333333333,2881,3270,0,0,,1
5ec848e98af2e014101df8e5,r5013rw1r5,Nick_Dissertation_EX1,1,274,2020-07-08T15:09:38-07:00,2.7190699577332,1,versionA_stim.csv,READVersionA.csv,"Read Version A","Dissertation, read only version A",VEHICLE,CHARM,Study2,U,160,155,Test,User,-,,Recall,Recall2,2222,CAR,75,1355,1868,0,1,,1
5ec848e98af2e014101df8e5,r5013rw1r5,Nick_Dissertation_EX1,1,275,2020-07-08T15:09:42-07:00,4.0409200191498,1,versionA_stim.csv,READVersionA.csv,"Read Version A","Dissertation, read only version A",CAR,WINDSHIELD,Study2,B,117,141,Test,User,-,,Recall,Recall2,3432,DRIVER,37.5,2115,3031,0,0,,1
5ec848e98af2e014101df8e5,r5013rw1r5,Nick_Dissertation_EX1,1,276,2020-07-08T15:09:50-07:00,7.8607831001282,1,versionA_stim.csv,READVersionA.csv,"Read Version A","Dissertation, read only version A",TANTRUM,TEMPER,Study2,S,154,160,Test,User,-,,Recall,Recall2,7368,TEMPER,100,5759,6564,1,1,,1
5ec848e98af2e014101df8e5,r5013rw1r5,Nick_Dissertation_EX1,1,277,2020-07-08T15:09:55-07:00,5.8706288337708,1,versionA_stim.csv,READVersionA.csv,"Read Version A","Dissertation, read only version A",CAT,PANTHER,Study2,B,126,125,Test,User,-,,Recall,Recall2,5227,,0,-1,-1,0,0,,1
5ec848e98af2e014101df8e5,r5013rw1r5,Nick_Dissertation_EX1,1,278,2020-07-08T15:09:59-07:00,3.9053301811218,1,versionA_stim.csv,READVersionA.csv,"Read Version A","Dissertation, read only version A",CHOP,CUT,Study2,F,107,100,Test,User,-,,Recall,Recall2,3323,STICK,25,1575,2397,0,0,,1
5ec848e98af2e014101df8e5,r5013rw1r5,Nick_Dissertation_EX1,1,279,2020-07-08T15:10:04-07:00,5.0454609394073,1,versionA_stim.csv,READVersionA.csv,"Read Version A","Dissertation, read only version A",ALONE,LONELY,Study2,S,145,129,Test,User,-,,Recall,Recall2,4385,LONELY,100,2711,3640,1,1,,1
5ec848e98af2e014101df8e5,r5013rw1r5,Nick_Dissertation_EX1,1,280,2020-07-08T15:10:16-07:00,11.788763046265,1,versionA_stim.csv,READVersionA.csv,"Read Version A","Dissertation, read only version A",DETECTIVE,MYSTERY,Study2,F,100,102,Test,User,-,,Recall,Recall2,11233,MYSTERY,100,2258,8616,1,1,,1
5ec848e98af2e014101df8e5,r5013rw1r5,Nick_Dissertation_EX1,1,281,2020-07-08T15:10:22-07:00,5.6627538204193,1,versionA_stim.csv,READVersionA.csv,"Read Version A","Dissertation, read only version A",WRIST,BRACELET,Study2,S,140,143,Test,User,-,,Recall,Recall2,5055,WATCH,30.769230769231,1805,4640,0,0,,1
5ec848e98af2e014101df8e5,r5013rw1r5,Nick_Dissertation_EX1,1,282,2020-07-08T15:10:26-07:00,4.100203037262,1,versionA_stim.csv,READVersionA.csv,"Read Version A","Dissertation, read only version A",DEAD,COFFIN,Study2,B,128,131,Test,User,-,,Recall,Recall2,3593,COFFIN,100,2149,3184,1,1,,1
5ec848e98af2e014101df8e5,r5013rw1r5,Nick_Dissertation_EX1,1,283,2020-07-08T15:10:33-07:00,7.0310211181641,1,versionA_stim.csv,READVersionA.csv,"Read Version A","Dissertation, read only version A",FRUIT,STRAWBERRY,Study2,B,124,176,Test,User,-,,Recall,Recall2,6418,STRAWBERRY,100,1250,5778,1,1,,1
5ec848e98af2e014101df8e5,r5013rw1r5,Nick_Dissertation_EX1,1,284,2020-07-08T15:10:36-07:00,3.3638370037079,1,versionA_stim.csv,READVersionA.csv,"Read Version A","Dissertation, read only version A",CHILL,COLD,Study2,F,114,146,Test,User,-,,Recall,Recall2,2861,COLD,100,1399,2131,1,1,,1
5ec848e98af2e014101df8e5,r5013rw1r5,Nick_Dissertation_EX1,1,285,2020-07-08T15:10:40-07:00,4.1987550258636,1,versionA_stim.csv,READVersionA.csv,"Read Version A","Dissertation, read only version A",MEAT,OBTAIN,Study2,U,161,120,Test,User,-,,Recall,Recall2,3729,OBTAIN,100,1683,3187,1,1,,1
5ec848e98af2e014101df8e5,r5013rw1r5,Nick_Dissertation_EX1,1,286,2020-07-08T15:10:47-07:00,6.1482717990875,1,versionA_stim.csv,READVersionA.csv,"Read Version A","Dissertation, read only version A",EXTENSION,LONG,Study2,F,96,112,Test,User,-,,Recall,Recall2,5557,,0,-1,-1,0,0,,1
5ec848e98af2e014101df8e5,r5013rw1r5,Nick_Dissertation_EX1,1,287,2020-07-08T15:10:53-07:00,6.5433940887451,1,versionA_stim.csv,READVersionA.csv,"Read Version A","Dissertation, read only version A",EVEN,REVENGE,Study2,B,122,116,Test,User,-,,Recall,Recall2,5933,,0,-1,-1,0,0,,1
5ec848e98af2e014101df8e5,r5013rw1r5,Nick_Dissertation_EX1,1,288,2020-07-08T15:11:04-07:00,10.528413057327,1,versionA_stim.csv,READVersionA.csv,"Read Version A","Dissertation, read only version A",POP,BALLOON,Study2,B,123,101,Test,User,-,,Recall,Recall2,9926,BALLOON,100,5754,9256,1,1,,1
5ec848e98af2e014101df8e5,r5013rw1r5,Nick_Dissertation_EX1,1,289,2020-07-08T15:11:13-07:00,9.4323790073395,1,versionA_stim.csv,READVersionA.csv,"Read Version A","Dissertation, read only version A",GLASS,BREAKABLE,Study2,B,127,124,Test,User,-,,Recall,Recall2,8724,BREAKABLE,100,5258,7595,1,1,,1
5ec848e98af2e014101df8e5,r5013rw1r5,Nick_Dissertation_EX1,1,290,2020-07-08T15:11:21-07:00,7.5425889492035,1,versionA_stim.csv,READVersionA.csv,"Read Version A","Dissertation, read only version A",LOUD,NOISE,Study2,S,152,105,Test,User,-,,Recall,Recall2,6785,BANG,22.222222222222,3167,6135,0,0,,1
5ec848e98af2e014101df8e5,r5013rw1r5,Nick_Dissertation_EX1,1,291,2020-07-08T15:11:27-07:00,6.0703868865967,1,versionA_stim.csv,READVersionA.csv,"Read Version A","Dissertation, read only version A",BASEBALL,LEAGUE,Study2,B,131,150,Test,User,-,,Recall,Recall2,5488,FIELD,18.181818181818,3102,3839,0,0,,1
5ec848e98af2e014101df8e5,r5013rw1r5,Nick_Dissertation_EX1,1,292,2020-07-08T15:11:33-07:00,6.3833382129669,1,versionA_stim.csv,READVersionA.csv,"Read Version A","Dissertation, read only version A",RIGHTS,EQUAL,Study2,S,137,157,Test,User,-,,Recall,Recall2,5789,EQUAL,100,3708,4694,1,1,,1
5ec848e98af2e014101df8e5,r5013rw1r5,Nick_Dissertation_EX1,1,293,2020-07-08T15:11:38-07:00,5.2196698188782,1,versionA_stim.csv,READVersionA.csv,"Read Version A","Dissertation, read only version A",PHONE,COMMUNICATION,Study2,S,149,114,Test,User,-,,Recall,Recall2,4714,CALL,23.529411764706,3587,4221,0,0,,1
5ec848e98af2e014101df8e5,r5013rw1r5,Nick_Dissertation_EX1,1,294,2020-07-08T15:11:43-07:00,5.0914649963379,1,versionA_stim.csv,READVersionA.csv,"Read Version A","Dissertation, read only version A",GONE,AWAY,Study2,S,142,162,Test,User,-,,Recall,Recall2,4494,,0,-1,-1,0,0,,1
5ec848e98af2e014101df8e5,r5013rw1r5,Nick_Dissertation_EX1,1,295,2020-07-08T15:11:47-07:00,3.6247529983521,1,versionA_stim.csv,READVersionA.csv,"Read Version A","Dissertation, read only version A",WATER,DRINK,Study2,S,143,118,Test,User,-,,Recall,Recall2,3045,DRINK,100,1943,2683,1,1,,1
5ec848e98af2e014101df8e5,r5013rw1r5,Nick_Dissertation_EX1,1,296,2020-07-08T15:11:54-07:00,6.7543821334839,1,versionA_stim.csv,READVersionA.csv,"Read Version A","Dissertation, read only version A",SAFETY,SEATBELT,Study2,S,147,152,Test,User,-,,Recall,Recall2,6161,,0,-1,-1,0,0,,1
5ec848e98af2e014101df8e5,r5013rw1r5,Nick_Dissertation_EX1,1,297,2020-07-08T15:11:58-07:00,4.5180020332336,1,versionA_stim.csv,READVersionA.csv,"Read Version A","Dissertation, read only version A",MONEY,BANKER,Study2,B,132,173,Test,User,-,,Recall,Recall2,4006,BANKER,100,1927,2821,1,1,,1
5ec848e98af2e014101df8e5,r5013rw1r5,Nick_Dissertation_EX1,1,298,2020-07-08T15:12:06-07:00,7.8926758766174,1,versionA_stim.csv,READVersionA.csv,"Read Version A","Dissertation, read only version A",BIRD,PENGUIN,Study2,B,119,133,Test,User,-,,Recall,Recall2,7254,FLY,0,5926,6608,0,0,,1
5ec848e98af2e014101df8e5,r5013rw1r5,Nick_Dissertation_EX1,1,299,2020-07-08T15:12:11-07:00,4.9823269844055,1,versionA_stim.csv,READVersionA.csv,"Read Version A","Dissertation, read only version A",CLUE,GAME,Study2,F,97,137,Test,User,-,,Recall,Recall2,4314,,0,-1,-1,0,0,,1
5ec848e98af2e014101df8e5,r5013rw1r5,Nick_Dissertation_EX1,1,300,2020-07-08T15:12:21-07:00,10.099777936935,1,versionA_stim.csv,READVersionA.csv,"Read Version A","Dissertation, read only version A",STRETCH,CLOTH,Study2,U,157,107,Test,User,-,,Recall,Recall2,9504,,0,-1,-1,0,0,,1
5ec848e98af2e014101df8e5,r5013rw1r5,Nick_Dissertation_EX1,1,301,2020-07-08T15:12:44-07:00,22.690316200256,1,versionA_stim.csv,READVersionA.csv,"Read Version A","Dissertation, read only version A",SHEARS,SCISSORS,Study2,F,112,144,Test,User,-,,Recall,Recall2,22075,SCISSORS,100,4045,16377,1,1,,1
5ec848e98af2e014101df8e5,r5013rw1r5,Nick_Dissertation_EX1,1,302,2020-07-08T15:12:52-07:00,7.7660348415375,1,versionA_stim.csv,READVersionA.csv,"Read Version A","Dissertation, read only version A",KEYS,JOKE,Study2,U,165,148,Test,User,-,,Recall,Recall2,7179,CAR,0,4224,4789,0,0,,1
5ec848e98af2e014101df8e5,r5013rw1r5,Nick_Dissertation_EX1,1,303,2020-07-08T15:12:57-07:00,5.2531461715698,1,versionA_stim.csv,READVersionA.csv,"Read Version A","Dissertation, read only version A",HONEST,TRUTHFUL,Study2,B,133,171,Test,User,-,,Recall,Recall2,4726,,0,-1,-1,0,0,,1
5ec848e98af2e014101df8e5,r5013rw1r5,Nick_Dissertation_EX1,1,304,2020-07-08T15:13:03-07:00,6.1203119754791,1,versionA_stim.csv,READVersionA.csv,"Read Version A","Dissertation, read only version A",ROD,REEL,Study2,S,150,98,Test,User,-,,Recall,Recall2,5480,REEL,100,2086,2830,1,1,,1
5ec848e98af2e014101df8e5,r5013rw1r5,Nick_Dissertation_EX1,1,305,2020-07-08T15:13:08-07:00,5.336357831955,1,versionA_stim.csv,READVersionA.csv,"Read Version A","Dissertation, read only version A",TRUTH,LIE,Study2,S,148,108,Test,User,-,,Recall,Recall2,4771,LIE,100,3955,4337,1,1,,1
5ec848e98af2e014101df8e5,r5013rw1r5,Nick_Dissertation_EX1,1,306,2020-07-08T15:13:22-07:00,13.387348175049,1,versionA_stim.csv,READVersionA.csv,"Read Version A","Dissertation, read only version A",ELEMENT,CARBON,Study2,S,141,142,Test,User,-,,Recall,Recall2,12796,CARBON,100,10942,11992,1,1,,1
5ec848e98af2e014101df8e5,r5013rw1r5,Nick_Dissertation_EX1,1,307,2020-07-08T15:13:25-07:00,3.2660348415375,1,versionA_stim.csv,READVersionA.csv,"Read Version A","Dissertation, read only version A",SLEEP,NAP,Study2,B,134,115,Test,User,-,,Recall,Recall2,2744,NAP,100,1973,2341,1,1,,1
5ec848e98af2e014101df8e5,r5013rw1r5,Nick_Dissertation_EX1,1,308,2020-07-08T15:13:30-07:00,4.7007460594177,1,versionA_stim.csv,READVersionA.csv,"Read Version A","Dissertation, read only version A",BOTH,OUNCE,Study2,U,172,113,Test,User,-,,Recall,Recall2,4196,US,28.571428571429,3713,3856,0,0,,1
5ec848e98af2e014101df8e5,r5013rw1r5,Nick_Dissertation_EX1,1,309,2020-07-08T15:13:39-07:00,9.4240601062775,1,versionA_stim.csv,READVersionA.csv,"Read Version A","Dissertation, read only version A",MAZE,ELECTION,Study2,U,159,128,Test,User,-,,Recall,Recall2,8785,ELECTION,100,6572,7841,1,1,,1
5ec848e98af2e014101df8e5,r5013rw1r5,Nick_Dissertation_EX1,1,310,2020-07-08T15:13:44-07:00,4.8711569309235,1,versionA_stim.csv,READVersionA.csv,"Read Version A","Dissertation, read only version A",DOCUMENT,PAPER,Study2,F,109,165,Test,User,-,,Recall,Recall2,4267,NUMBER,36.363636363636,2651,3995,0,0,,1
5ec848e98af2e014101df8e5,r5013rw1r5,Nick_Dissertation_EX1,1,311,2020-07-08T15:13:49-07:00,4.6499290466309,1,versionA_stim.csv,READVersionA.csv,"Read Version A","Dissertation, read only version A",FUZZY,BANG,Study2,U,168,166,Test,User,-,,Recall,Recall2,4128,DOG,28.571428571429,1696,3817,0,0,,1
5ec848e98af2e014101df8e5,r5013rw1r5,Nick_Dissertation_EX1,1,312,2020-07-08T15:13:53-07:00,4.2713119983673,1,versionA_stim.csv,READVersionA.csv,"Read Version A","Dissertation, read only version A",AFFECTION,LOVE,Study2,F,115,140,Test,User,-,,Recall,Recall2,3687,LOVE,100,2006,3219,1,1,,1
5ec848e98af2e014101df8e5,r5013rw1r5,Nick_Dissertation_EX1,1,313,2020-07-08T15:14:07-07:00,14.251827001572,1,versionA_stim.csv,READVersionA.csv,"Read Version A","Dissertation, read only version A",PLANE,AIRCRAFT,Study2,B,129,106,Test,User,-,,Recall,Recall2,13659,"AIRPLANE ",50,2089,9402,0,0,,1
5ec848e98af2e014101df8e5,r5013rw1r5,Nick_Dissertation_EX1,1,314,2020-07-08T15:14:15-07:00,7.7677929401398,1,versionA_stim.csv,READVersionA.csv,"Read Version A","Dissertation, read only version A",LOAN,SIGN,Study2,U,171,103,Test,User,-,,Recall,Recall2,6688,GIVE,25,4239,4820,0,0,,1
5ec848e98af2e014101df8e5,r5013rw1r5,Nick_Dissertation_EX1,1,315,2020-07-08T15:14:25-07:00,10.396847963333,1,versionA_stim.csv,READVersionA.csv,"Read Version A","Dissertation, read only version A",SUN,TAN,Study2,S,155,110,Test,User,-,,Recall,Recall2,9790,WARM,28.571428571429,2989,9506,0,0,,1
5ec848e98af2e014101df8e5,r5013rw1r5,Nick_Dissertation_EX1,1,316,2020-07-08T15:14:34-07:00,8.1417210102081,1,versionA_stim.csv,READVersionA.csv,"Read Version A","Dissertation, read only version A",FEUD,FIGHT,Study2,F,113,97,Test,User,-,,Recall,Recall2,7290,FIGHT,100,5420,6914,1,1,,1
5ec848e98af2e014101df8e5,r5013rw1r5,Nick_Dissertation_EX1,1,317,2020-07-08T15:15:05-07:00,31.306484937668,1,versionA_stim.csv,READVersionA.csv,"Read Version A","Dissertation, read only version A",FLEA,TICK,Study2,S,151,147,Test,User,-,,Recall,Recall2,29683,FIT,28.571428571429,28939,29278,0,0,,0.97
5ec848e98af2e014101df8e5,r5013rw1r5,Nick_Dissertation_EX1,1,318,2020-07-08T15:15:08-07:00,3.3910410404205,1,versionA_stim.csv,READVersionA.csv,"Read Version A","Dissertation, read only version A",CACTUS,PLANT,Study2,F,98,139,Test,User,-,,Recall,Recall2,2864,PLANT,100,1959,2564,1,1,,1
5ec848e98af2e014101df8e5,r5013rw1r5,Nick_Dissertation_EX1,1,319,2020-07-08T15:15:18-07:00,9.8023009300232,1,versionA_stim.csv,READVersionA.csv,"Read Version A","Dissertation, read only version A",RAZOR,SHAVE,Study2,S,136,117,Test,User,-,,Recall,Recall2,9161,SHARP,60,3762,5103,0,0,,1
5ec848e98af2e014101df8e5,r5013rw1r5,Nick_Dissertation_EX1,1,320,2020-07-08T15:15:22-07:00,4.1385900974274,1,versionA_stim.csv,READVersionA.csv,"Read Version A","Dissertation, read only version A",ADJOURN,END,Study2,F,101,170,Test,User,-,,Recall,Recall2,3529,END,100,2843,3124,1,1,,1
5ec848e98af2e014101df8e5,r5013rw1r5,Nick_Dissertation_EX1,1,321,2020-07-08T15:15:27-07:00,4.3312509059906,1,versionA_stim.csv,READVersionA.csv,"Read Version A","Dissertation, read only version A",DRY,WET,Study2,S,146,134,Test,User,-,,Recall,Recall2,3803,WET,100,2956,3358,1,1,,1
5ec848e98af2e014101df8e5,r5013rw1r5,Nick_Dissertation_EX1,1,322,2020-07-08T15:15:32-07:00,5.9021291732788,1,versionA_stim.csv,READVersionA.csv,"Read Version A","Dissertation, read only version A",JUSTICE,MAROON,Study2,U,156,163,Test,User,-,,Recall,Recall2,5297,EQUAL,18.181818181818,2593,3955,0,0,,1
5ec848e98af2e014101df8e5,r5013rw1r5,Nick_Dissertation_EX1,1,323,2020-07-08T15:15:39-07:00,6.5729069709778,1,versionA_stim.csv,READVersionA.csv,"Read Version A","Dissertation, read only version A",NAME,HATE,Study2,U,167,159,Test,User,-,,Recall,Recall2,6055,,0,-1,-1,0,0,,1
5ec848e98af2e014101df8e5,r5013rw1r5,Nick_Dissertation_EX1,1,324,2020-07-08T15:15:45-07:00,6.0524399280548,1,versionA_stim.csv,READVersionA.csv,"Read Version A","Dissertation, read only version A",EARTH,GROUND,Study2,S,144,138,Test,User,-,,Recall,Recall2,5419,GROUND,100,2891,4635,1,1,,1
5ec848e98af2e014101df8e5,r5013rw1r5,Nick_Dissertation_EX1,1,325,2020-07-08T15:15:50-07:00,4.4283981323242,1,versionA_stim.csv,READVersionA.csv,"Read Version A","Dissertation, read only version A",INCENSE,SMELL,Study2,F,110,175,Test,User,-,,Recall,Recall2,3899,SMELLS,90.909090909091,1984,2989,0,1,,1
5ec848e98af2e014101df8e5,r5013rw1r5,Nick_Dissertation_EX1,1,326,2020-07-08T15:16:17-07:00,27.475695848465,1,versionA_stim.csv,READVersionA.csv,"Read Version A","Dissertation, read only version A",FISH,SARDINE,Study2,B,130,161,Test,User,-,,Recall,Recall2,26871,,0,7508,7508,0,0,,1
5ec848e98af2e014101df8e5,r5013rw1r5,Nick_Dissertation_EX1,1,327,2020-07-08T15:16:22-07:00,4.7806489467621,1,versionA_stim.csv,READVersionA.csv,"Read Version A","Dissertation, read only version A",CANDLE,WAX,Study2,S,139,174,Test,User,-,,Recall,Recall2,4167,LIGHT,0,2924,3814,0,0,,1
5ec848e98af2e014101df8e5,r5013rw1r5,Nick_Dissertation_EX1,1,328,2020-07-08T15:16:25-07:00,3.0075721740723,1,versionA_stim.csv,READVersionA.csv,"Read Version A","Dissertation, read only version A",MASON,JAR,Study2,S,138,168,Test,User,-,,Recall,Recall2,2493,JAR,100,1300,1798,1,1,,1
5ec848e98af2e014101df8e5,r5013rw1r5,Nick_Dissertation_EX1,1,329,2020-07-08T15:16:31-07:00,5.987370967865,1,versionA_stim.csv,READVersionA.csv,"Read Version A","Dissertation, read only version A",Shell,SHAKE,Study2,U,163,119,Test,User,-,,Recall,Recall2,5475,SEA,50,4591,5185,0,0,,1
5ec848e98af2e014101df8e5,r5013rw1r5,Nick_Dissertation_EX1,1,330,2020-07-08T15:16:41-07:00,10.590372085571,1,versionA_stim.csv,READVersionA.csv,"Read Version A","Dissertation, read only version A",TEMPERATURE,Morning,Study2,U,173,136,Test,User,-,,Recall,Recall2,9100,,0,-1,-1,0,0,,1
5ec848e98af2e014101df8e5,r5013rw1r5,Nick_Dissertation_EX1,1,331,2020-07-08T15:17:12-07:00,30.204497814178,1,versionA_stim.csv,READVersionA.csv,"Read Version A","Dissertation, read only version A",FIGHT,BRAWL,Study2,B,135,104,Test,User,-,,Recall,Recall2,29621,BRAWL,100,27713,29210,1,1,,1
5ec848e98af2e014101df8e5,r5013rw1r5,Nick_Dissertation_EX1,1,332,2020-07-08T15:17:23-07:00,11.439018011093,1,versionA_stim.csv,READVersionA.csv,"Read Version A","Dissertation, read only version A",BEST,FAVORITE,Study2,B,125,167,Test,User,-,,Recall,Recall2,9720,,0,-1,-1,0,0,,1
5ec848e98af2e014101df8e5,r5013rw1r5,Nick_Dissertation_EX1,1,333,2020-07-08T15:17:28-07:00,4.6013350486755,1,versionA_stim.csv,READVersionA.csv,"Read Version A","Dissertation, read only version A",TURN,FLIP,Study2,B,116,122,Test,User,-,,Recall,Recall2,4123,FLIP,100,3150,3760,1,1,,1
5ec848e98af2e014101df8e5,r5013rw1r5,Nick_Dissertation_EX1,1,334,2020-07-08T15:17:32-07:00,3.9779860973358,1,versionA_stim.csv,READVersionA.csv,"Read Version A","Dissertation, read only version A",SHOELACE,TIE,Study2,F,99,99,Test,User,-,,Recall,Recall2,3425,STRING,44.444444444444,1988,3000,0,0,,1
5ec848e98af2e014101df8e5,r5013rw1r5,Nick_Dissertation_EX1,1,335,2020-07-08T15:17:43-07:00,11.098532915115,1,versionA_stim.csv,READVersionA.csv,"Read Version A","Dissertation, read only version A",MAIN,SCAR,Study2,U,175,135,Test,User,-,,Recall,Recall2,10510,,0,-1,-1,0,0,,1
5ec848e98af2e014101df8e5,r5013rw1r5,Nick_Dissertation_EX1,1,336,2020-07-08T15:17:51-07:00,7.8914709091187,1,versionA_stim.csv,READVersionA.csv,"Read Version A","Dissertation, read only version A",OWN,HAVE,Study2,S,153,158,Test,User,-,,Recall,Recall2,7400,,0,-1,-1,0,0,,1
5ec848e98af2e014101df8e5,r5013rw1r5,Nick_Dissertation_EX1,1,337,2020-07-08T15:17:57-07:00,6.2045149803162,1,versionA_stim.csv,READVersionA.csv,"Read Version A","Dissertation, read only version A",MULE,DONKEY,Study2,F,108,123,Test,User,-,,Recall,Recall2,5616,DONKEY,100,1677,5137,1,1,,1
5ec848e98af2e014101df8e5,r5013rw1r5,Nick_Dissertation_EX1,1,338,2020-07-08T15:18:01-07:00,3.9151830673218,1,versionA_stim.csv,READVersionA.csv,"Read Version A","Dissertation, read only version A",CAKE,CLOTHES,Study2,U,166,156,Test,User,-,,Recall,Recall2,3374,CLOTHES,100,1826,3159,1,1,,1
5ec848e98af2e014101df8e5,r5013rw1r5,Nick_Dissertation_EX1,1,339,2020-07-08T15:18:04-07:00,3.0997080802917,1,versionA_stim.csv,READVersionA.csv,"Read Version A","Dissertation, read only version A",DRIVER,CAR,Study2,F,106,164,Test,User,-,,Recall,Recall2,2494,CAR,100,1767,2319,1,1,,1
5ec848e98af2e014101df8e5,r5013rw1r5,Nick_Dissertation_EX1,1,340,2020-07-08T15:18:16-07:00,12.14993596077,1,versionA_stim.csv,READVersionA.csv,"Read Version A","Dissertation, read only version A",CRACKLE,ABLE,Study2,U,162,153,Test,User,-,,Recall,Recall2,11522,CREASE,20,9379,10750,0,0,,1
5ec848e98af2e014101df8e5,r5013rw1r5,Nick_Dissertation_EX1,1,341,2020-07-08T15:18:21-07:00,4.5660269260406,1,versionA_stim.csv,READVersionA.csv,"Read Version A","Dissertation, read only version A",FURRY,DOG,Study2,F,102,126,Test,User,-,,Recall,Recall2,4037,DOG,100,1725,3624,1,1,,1
5ec848e98af2e014101df8e5,r5013rw1r5,Nick_Dissertation_EX1,1,342,2020-07-08T15:18:26-07:00,5.5644171237946,1,versionA_stim.csv,READVersionA.csv,"Read Version A","Dissertation, read only version A",MIRROR,CHILDREN,Study2,U,174,121,Test,User,-,,Recall,Recall2,4947,IMAGE,30.769230769231,2319,4194,0,0,,1
5ec848e98af2e014101df8e5,r5013rw1r5,Nick_Dissertation_EX1,1,343,2020-07-08T15:18:32-07:00,5.5393009185791,1,versionA_stim.csv,READVersionA.csv,"Read Version A","Dissertation, read only version A",LITTER,TRASH,Study2,F,103,149,Test,User,-,,Recall,Recall2,4974,TRASH,100,3216,4588,1,1,,1
5ec848e98af2e014101df8e5,r5013rw1r5,Nick_Dissertation_EX1,1,344,2020-07-08T15:18:41-07:00,9.7016611099243,1,versionA_stim.csv,READVersionA.csv,"Read Version A","Dissertation, read only version A",LEASE,TOIL,Study2,U,170,111,Test,User,-,,Recall,Recall2,8142,RENT,25,6960,7611,0,0,,1
5ec848e98af2e014101df8e5,r5013rw1r5,Nick_Dissertation_EX1,1,345,2020-07-08T15:18:46-07:00,4.7951259613037,1,versionA_stim.csv,READVersionA.csv,"Read Version A","Dissertation, read only version A",STAR,ACTRESS,Study2,B,120,151,Test,User,-,,Recall,Recall2,4178,ACTRESS,100,2028,3878,1,1,,1
5ec848e98af2e014101df8e5,r5013rw1r5,Nick_Dissertation_EX1,1,346,2020-07-08T15:19:00-07:00,14.290889024734,1,versionA_stim.csv,READVersionA.csv,"Read Version A","Dissertation, read only version A",BAD,VILLAIN,Study2,B,118,132,Test,User,-,,Recall,Recall2,13711,GOOD,0,12626,13530,0,0,,1
5ec848e98af2e014101df8e5,r5013rw1r5,Nick_Dissertation_EX1,1,347,2020-07-08T15:19:10-07:00,9.8332660198212,1,versionA_stim.csv,READVersionA.csv,"Read Version A","Dissertation, read only version A",THREAD,THIMBLE,Study2,B,121,145,Test,User,-,,Recall,Recall2,9235,"THIMBLE ",100,2172,6360,1,1,,1
5ec848e98af2e014101df8e5,r5013rw1r5,Nick_Dissertation_EX1,1,348,2020-07-08T15:19:20-07:00,10.155997991562,1,versionA_stim.csv,READVersionA.csv,"Read Version A","Dissertation, read only version A",SCALP,HEAD,Study2,F,105,172,Test,User,-,,Recall,Recall2,9564,"ITCHY ",22.222222222222,1793,6354,0,0,,1
5ec848e98af2e014101df8e5,r5013rw1r5,Nick_Dissertation_EX1,1,349,2020-07-08T15:19:24-07:00,3.2872588634491,1,versionA_stim.csv,READVersionA.csv,"Read Version A","Dissertation, read only version A",,,,,,0,Instruct,User,-,"You have completed this section. Please press Enter.",,Instruct7,2661,,,-1,-1,,,,1
5ec848e98af2e014101df8e5,r5013rw1r5,Nick_Dissertation_EX1,1,350,2020-07-08T15:19:27-07:00,3.0372650623322,1,versionA_stim.csv,READVersionA.csv,"Read Version A","Dissertation, read only version A",,,,,,0,Instruct,User,-,"The following screen will ask you a few questions abour your experience today. You must complete these questions to receive credit.",,Instruct8,2510,,,-1,-1,,,,1
