Username,ID,ExperimentName,Session,Trial,Date,TimeDif,"Condition Number","Stimuli File","Order File","Condition Description","Condition Notes",Stimuli*Cue,Stimuli*Answer,Stimuli*Shuffle,"Stimuli*Stimuli Notes",Stimuli*Value,Procedure*Item,"Procedure*Trial Type","Procedure*Max Time","Procedure*Min Time",Procedure*Text,"Procedure*Procedure Notes",Procedure*Shuffle,Response*RT,Response*Response,Response*Accuracy,Response*RTfirst,Response*RTlast,Response*strictAcc,Response*lenientAcc,Response*focus,Response*Focus
5eea09b8178b96000c1102d9,jwln8rrl25,Nick_Dissertation_EX1,1,1,2020-07-08T14:49:50-07:00,13.735405921936,1,versionA_stim.csv,READVersionA.csv,"Read Version A","Dissertation, read only version A",,,,,,0,Instruct,-,10,"Please study each of the following word pairs. Remember that your memory will be tested! When finished, press Enter to move to the next pair.",Initial_Instruct,Instruct1,13341,,,-1,-1,,,,1
5eea09b8178b96000c1102d9,jwln8rrl25,Nick_Dissertation_EX1,1,2,2020-07-08T14:49:54-07:00,4.4801170825958,1,versionA_stim.csv,READVersionA.csv,"Read Version A","Dissertation, read only version A",SCARE,HIDE,BUFFER1,Buffer,4,3,Study,User,-,,Study/JOL,BUFFER,4072,,,-1,-1,,,,1
5eea09b8178b96000c1102d9,jwln8rrl25,Nick_Dissertation_EX1,1,3,2020-07-08T14:49:59-07:00,4.2190659046173,1,versionA_stim.csv,READVersionA.csv,"Read Version A","Dissertation, read only version A",PEANUT,BUTTER,BUFFER1,Buffer,3,2,Study,User,-,,Study/JOL,BUFFER,3769,,,-1,-1,,,,1
5eea09b8178b96000c1102d9,jwln8rrl25,Nick_Dissertation_EX1,1,4,2020-07-08T14:50:01-07:00,2.5964210033417,1,versionA_stim.csv,READVersionA.csv,"Read Version A","Dissertation, read only version A",TREES,GREEN,BUFFER1,Buffer,1,4,Study,User,-,,Study/JOL,BUFFER,2162,,,-1,-1,,,,1
5eea09b8178b96000c1102d9,jwln8rrl25,Nick_Dissertation_EX1,1,5,2020-07-08T14:50:03-07:00,1.8491930961609,1,versionA_stim.csv,READVersionA.csv,"Read Version A","Dissertation, read only version A",SPACE,JAM,BUFFER1,Buffer,5,6,Study,User,-,,Study/JOL,BUFFER,1461,,,-1,-1,,,,1
5eea09b8178b96000c1102d9,jwln8rrl25,Nick_Dissertation_EX1,1,6,2020-07-08T14:50:06-07:00,2.5392830371857,1,versionA_stim.csv,READVersionA.csv,"Read Version A","Dissertation, read only version A",BASEBALL,CATCHER,BUFFER1,Buffer,2,5,Study,User,-,,Study/JOL,BUFFER,2122,,,-1,-1,,,,1
5eea09b8178b96000c1102d9,jwln8rrl25,Nick_Dissertation_EX1,1,7,2020-07-08T14:50:11-07:00,5.8003420829773,1,versionA_stim.csv,READVersionA.csv,"Read Version A","Dissertation, read only version A",BALL,RACKET,Study1,B,38,13,Study,User,-,,Study/JOL,"Study Phase",5363,,,-1,-1,,,,1
5eea09b8178b96000c1102d9,jwln8rrl25,Nick_Dissertation_EX1,1,8,2020-07-08T14:50:13-07:00,1.9878787994385,1,versionA_stim.csv,READVersionA.csv,"Read Version A","Dissertation, read only version A",SHOE,FOOT,Study1,S,60,63,Study,User,-,,Study/JOL,"Study Phase",1574,,,-1,-1,,,,1
5eea09b8178b96000c1102d9,jwln8rrl25,Nick_Dissertation_EX1,1,9,2020-07-08T14:50:16-07:00,2.3829870223999,1,versionA_stim.csv,READVersionA.csv,"Read Version A","Dissertation, read only version A",ARCHITECTURE,DESIGN,Study1,S,51,20,Study,User,-,,Study/JOL,"Study Phase",1909,,,-1,-1,,,,1
5eea09b8178b96000c1102d9,jwln8rrl25,Nick_Dissertation_EX1,1,10,2020-07-08T14:50:18-07:00,2.3010129928589,1,versionA_stim.csv,READVersionA.csv,"Read Version A","Dissertation, read only version A",ART,LION,Study1,U,79,64,Study,User,-,,Study/JOL,"Study Phase",1742,,,-1,-1,,,,1
5eea09b8178b96000c1102d9,jwln8rrl25,Nick_Dissertation_EX1,1,11,2020-07-08T14:50:20-07:00,2.0415630340576,1,versionA_stim.csv,READVersionA.csv,"Read Version A","Dissertation, read only version A",BLOW,WIND,Study1,S,55,62,Study,User,-,,Study/JOL,"Study Phase",1616,,,-1,-1,,,,1
5eea09b8178b96000c1102d9,jwln8rrl25,Nick_Dissertation_EX1,1,12,2020-07-08T14:50:22-07:00,1.6558921337128,1,versionA_stim.csv,READVersionA.csv,"Read Version A","Dissertation, read only version A",BITTER,COLD,Study1,F,12,81,Study,User,-,,Study/JOL,"Study Phase",1199,,,-1,-1,,,,1
5eea09b8178b96000c1102d9,jwln8rrl25,Nick_Dissertation_EX1,1,13,2020-07-08T14:50:23-07:00,1.6605858802795,1,versionA_stim.csv,READVersionA.csv,"Read Version A","Dissertation, read only version A",WINE,CHEESE,Study1,S,57,17,Study,User,-,,Study/JOL,"Study Phase",1227,,,-1,-1,,,,1
5eea09b8178b96000c1102d9,jwln8rrl25,Nick_Dissertation_EX1,1,14,2020-07-08T14:50:25-07:00,1.8276090621948,1,versionA_stim.csv,READVersionA.csv,"Read Version A","Dissertation, read only version A",SLEEP,DROWSY,Study1,B,41,55,Study,User,-,,Study/JOL,"Study Phase",1381,,,-1,-1,,,,1
5eea09b8178b96000c1102d9,jwln8rrl25,Nick_Dissertation_EX1,1,15,2020-07-08T14:50:27-07:00,1.6370830535889,1,versionA_stim.csv,READVersionA.csv,"Read Version A","Dissertation, read only version A",PAW,DOG,Study1,F,15,25,Study,User,-,,Study/JOL,"Study Phase",1163,,,-1,-1,,,,1
5eea09b8178b96000c1102d9,jwln8rrl25,Nick_Dissertation_EX1,1,16,2020-07-08T14:50:28-07:00,1.3435139656067,1,versionA_stim.csv,READVersionA.csv,"Read Version A","Dissertation, read only version A",HONEY,BEE,Study1,S,63,37,Study,User,-,,Study/JOL,"Study Phase",937,,,-1,-1,,,,1
5eea09b8178b96000c1102d9,jwln8rrl25,Nick_Dissertation_EX1,1,17,2020-07-08T14:50:30-07:00,1.3248679637909,1,versionA_stim.csv,READVersionA.csv,"Read Version A","Dissertation, read only version A",TUNA,FISH,Study1,F,25,30,Study,User,-,,Study/JOL,"Study Phase",887,,,-1,-1,,,,1
5eea09b8178b96000c1102d9,jwln8rrl25,Nick_Dissertation_EX1,1,18,2020-07-08T14:50:31-07:00,1.3555479049683,1,versionA_stim.csv,READVersionA.csv,"Read Version A","Dissertation, read only version A",TAKE,SEIZE,Study1,B,29,53,Study,User,-,,Study/JOL,"Study Phase",897,,,-1,-1,,,,1
5eea09b8178b96000c1102d9,jwln8rrl25,Nick_Dissertation_EX1,1,19,2020-07-08T14:50:32-07:00,1.3801941871643,1,versionA_stim.csv,READVersionA.csv,"Read Version A","Dissertation, read only version A",DRINK,SIP,Study1,B,27,36,Study,User,-,,Study/JOL,"Study Phase",907,,,-1,-1,,,,1
5eea09b8178b96000c1102d9,jwln8rrl25,Nick_Dissertation_EX1,1,20,2020-07-08T14:50:34-07:00,1.5091259479523,1,versionA_stim.csv,READVersionA.csv,"Read Version A","Dissertation, read only version A",EDITOR,NEWS,Study1,F,10,66,Study,User,-,,Study/JOL,"Study Phase",1073,,,-1,-1,,,,1
5eea09b8178b96000c1102d9,jwln8rrl25,Nick_Dissertation_EX1,1,21,2020-07-08T14:50:35-07:00,1.3933238983154,1,versionA_stim.csv,READVersionA.csv,"Read Version A","Dissertation, read only version A",CREDIT,CARD,Study1,F,23,54,Study,User,-,,Study/JOL,"Study Phase",859,,,-1,-1,,,,1
5eea09b8178b96000c1102d9,jwln8rrl25,Nick_Dissertation_EX1,1,22,2020-07-08T14:50:37-07:00,1.368931055069,1,versionA_stim.csv,READVersionA.csv,"Read Version A","Dissertation, read only version A",BATHROOM,TOILET,Study1,S,58,22,Study,User,-,,Study/JOL,"Study Phase",885,,,-1,-1,,,,1
5eea09b8178b96000c1102d9,jwln8rrl25,Nick_Dissertation_EX1,1,23,2020-07-08T14:50:38-07:00,1.4133830070496,1,versionA_stim.csv,READVersionA.csv,"Read Version A","Dissertation, read only version A",DUMP,WASTE,Study1,S,49,8,Study,User,-,,Study/JOL,"Study Phase",960,,,-1,-1,,,,1
5eea09b8178b96000c1102d9,jwln8rrl25,Nick_Dissertation_EX1,1,24,2020-07-08T14:50:39-07:00,1.2980589866638,1,versionA_stim.csv,READVersionA.csv,"Read Version A","Dissertation, read only version A",KING,VASE,Study1,U,85,75,Study,User,-,,Study/JOL,"Study Phase",781,,,-1,-1,,,,1
5eea09b8178b96000c1102d9,jwln8rrl25,Nick_Dissertation_EX1,1,25,2020-07-08T14:50:41-07:00,1.8640809059143,1,versionA_stim.csv,READVersionA.csv,"Read Version A","Dissertation, read only version A",DARK,CAVE,Study1,B,28,82,Study,User,-,,Study/JOL,"Study Phase",1416,,,-1,-1,,,,1
5eea09b8178b96000c1102d9,jwln8rrl25,Nick_Dissertation_EX1,1,26,2020-07-08T14:50:43-07:00,1.4490230083466,1,versionA_stim.csv,READVersionA.csv,"Read Version A","Dissertation, read only version A",CIRCLE,ROUND,Study1,S,65,12,Study,User,-,,Study/JOL,"Study Phase",950,,,-1,-1,,,,1
5eea09b8178b96000c1102d9,jwln8rrl25,Nick_Dissertation_EX1,1,27,2020-07-08T14:50:45-07:00,2.0321650505066,1,versionA_stim.csv,READVersionA.csv,"Read Version A","Dissertation, read only version A",ORCHID,FLOWER,Study1,F,24,85,Study,User,-,,Study/JOL,"Study Phase",1614,,,-1,-1,,,,1
5eea09b8178b96000c1102d9,jwln8rrl25,Nick_Dissertation_EX1,1,28,2020-07-08T14:50:47-07:00,2.1951401233673,1,versionA_stim.csv,READVersionA.csv,"Read Version A","Dissertation, read only version A",BEGIN,END,Study1,S,54,39,Study,User,-,,Study/JOL,"Study Phase",1611,,,-1,-1,,,,1
5eea09b8178b96000c1102d9,jwln8rrl25,Nick_Dissertation_EX1,1,29,2020-07-08T14:50:48-07:00,1.239825963974,1,versionA_stim.csv,READVersionA.csv,"Read Version A","Dissertation, read only version A",HUNGER,FAMINE,Study1,B,40,56,Study,User,-,,Study/JOL,"Study Phase",841,,,-1,-1,,,,1
5eea09b8178b96000c1102d9,jwln8rrl25,Nick_Dissertation_EX1,1,30,2020-07-08T14:50:50-07:00,1.8798439502716,1,versionA_stim.csv,READVersionA.csv,"Read Version A","Dissertation, read only version A",HYGIENE,CLEAN,Study1,F,17,21,Study,User,-,,Study/JOL,"Study Phase",1435,,,-1,-1,,,,1
5eea09b8178b96000c1102d9,jwln8rrl25,Nick_Dissertation_EX1,1,31,2020-07-08T14:50:52-07:00,1.6067700386047,1,versionA_stim.csv,READVersionA.csv,"Read Version A","Dissertation, read only version A",DEBATE,SIGHT,Study1,U,73,35,Study,User,-,,Study/JOL,"Study Phase",1012,,,-1,-1,,,,1
5eea09b8178b96000c1102d9,jwln8rrl25,Nick_Dissertation_EX1,1,32,2020-07-08T14:50:53-07:00,1.2419719696045,1,versionA_stim.csv,READVersionA.csv,"Read Version A","Dissertation, read only version A",WAY,OUT,Study1,F,16,71,Study,User,-,,Study/JOL,"Study Phase",793,,,-1,-1,,,,1
5eea09b8178b96000c1102d9,jwln8rrl25,Nick_Dissertation_EX1,1,33,2020-07-08T14:50:54-07:00,1.26322889328,1,versionA_stim.csv,READVersionA.csv,"Read Version A","Dissertation, read only version A",HOT,CHILI,Study1,B,37,24,Study,User,-,,Study/JOL,"Study Phase",791,,,-1,-1,,,,1
5eea09b8178b96000c1102d9,jwln8rrl25,Nick_Dissertation_EX1,1,34,2020-07-08T14:50:57-07:00,3.2325801849365,1,versionA_stim.csv,READVersionA.csv,"Read Version A","Dissertation, read only version A",STRONG,ACCIDENT,Study1,U,80,68,Study,User,-,,Study/JOL,"Study Phase",2645,,,-1,-1,,,,1
5eea09b8178b96000c1102d9,jwln8rrl25,Nick_Dissertation_EX1,1,35,2020-07-08T14:50:59-07:00,2.0260088443756,1,versionA_stim.csv,READVersionA.csv,"Read Version A","Dissertation, read only version A",ARTERY,BRONZE,Study1,U,74,41,Study,User,-,,Study/JOL,"Study Phase",1626,,,-1,-1,,,,1
5eea09b8178b96000c1102d9,jwln8rrl25,Nick_Dissertation_EX1,1,36,2020-07-08T14:51:01-07:00,1.9078631401062,1,versionA_stim.csv,READVersionA.csv,"Read Version A","Dissertation, read only version A",DIGESTION,STOMACH,Study1,F,7,76,Study,User,-,,Study/JOL,"Study Phase",1386,,,-1,-1,,,,1
5eea09b8178b96000c1102d9,jwln8rrl25,Nick_Dissertation_EX1,1,37,2020-07-08T14:51:03-07:00,2.0087180137634,1,versionA_stim.csv,READVersionA.csv,"Read Version A","Dissertation, read only version A",CHISEL,HAMMER,Study1,F,9,80,Study,User,-,,Study/JOL,"Study Phase",1569,,,-1,-1,,,,1
5eea09b8178b96000c1102d9,jwln8rrl25,Nick_Dissertation_EX1,1,38,2020-07-08T14:51:05-07:00,1.8680348396301,1,versionA_stim.csv,READVersionA.csv,"Read Version A","Dissertation, read only version A",KEY,LATCH,Study1,B,36,51,Study,User,-,,Study/JOL,"Study Phase",1408,,,-1,-1,,,,1
5eea09b8178b96000c1102d9,jwln8rrl25,Nick_Dissertation_EX1,1,39,2020-07-08T14:51:07-07:00,1.5432920455933,1,versionA_stim.csv,READVersionA.csv,"Read Version A","Dissertation, read only version A",GREAT,FANTASTIC,Study1,B,35,72,Study,User,-,,Study/JOL,"Study Phase",1119,,,-1,-1,,,,1
5eea09b8178b96000c1102d9,jwln8rrl25,Nick_Dissertation_EX1,1,40,2020-07-08T14:51:08-07:00,1.2085709571838,1,versionA_stim.csv,READVersionA.csv,"Read Version A","Dissertation, read only version A",PAST,FUTURE,Study1,S,61,26,Study,User,-,,Study/JOL,"Study Phase",731,,,-1,-1,,,,1
5eea09b8178b96000c1102d9,jwln8rrl25,Nick_Dissertation_EX1,1,41,2020-07-08T14:51:09-07:00,1.2109160423279,1,versionA_stim.csv,READVersionA.csv,"Read Version A","Dissertation, read only version A",DEATH,BUSINESS,Study1,U,72,79,Study,User,-,,Study/JOL,"Study Phase",789,,,-1,-1,,,,1
5eea09b8178b96000c1102d9,jwln8rrl25,Nick_Dissertation_EX1,1,42,2020-07-08T14:51:10-07:00,1.0286641120911,1,versionA_stim.csv,READVersionA.csv,"Read Version A","Dissertation, read only version A",REVOLUTION,WAR,Study1,F,20,77,Study,User,-,,Study/JOL,"Study Phase",581,,,-1,-1,,,,1
5eea09b8178b96000c1102d9,jwln8rrl25,Nick_Dissertation_EX1,1,43,2020-07-08T14:51:12-07:00,2.0858879089355,1,versionA_stim.csv,READVersionA.csv,"Read Version A","Dissertation, read only version A",GEOLOGY,ROCK,Study1,F,19,29,Study,User,-,,Study/JOL,"Study Phase",1611,,,-1,-1,,,,1
5eea09b8178b96000c1102d9,jwln8rrl25,Nick_Dissertation_EX1,1,44,2020-07-08T14:51:14-07:00,1.4714748859406,1,versionA_stim.csv,READVersionA.csv,"Read Version A","Dissertation, read only version A",BABY,CHILD,Study1,S,64,11,Study,User,-,,Study/JOL,"Study Phase",1001,,,-1,-1,,,,1
5eea09b8178b96000c1102d9,jwln8rrl25,Nick_Dissertation_EX1,1,45,2020-07-08T14:51:15-07:00,1.3744702339172,1,versionA_stim.csv,READVersionA.csv,"Read Version A","Dissertation, read only version A",KIDNEY,LIVER,Study1,S,53,74,Study,User,-,,Study/JOL,"Study Phase",946,,,-1,-1,,,,1
5eea09b8178b96000c1102d9,jwln8rrl25,Nick_Dissertation_EX1,1,46,2020-07-08T14:51:17-07:00,1.8419809341431,1,versionA_stim.csv,READVersionA.csv,"Read Version A","Dissertation, read only version A",DELINQUENT,BAD,Study1,F,6,61,Study,User,-,,Study/JOL,"Study Phase",1416,,,-1,-1,,,,1
5eea09b8178b96000c1102d9,jwln8rrl25,Nick_Dissertation_EX1,1,47,2020-07-08T14:51:23-07:00,6.6025559902191,1,versionA_stim.csv,READVersionA.csv,"Read Version A","Dissertation, read only version A",WORK,CHORE,Study1,B,39,40,Study,User,-,,Study/JOL,"Study Phase",6018,,,-1,-1,,,,0.767
5eea09b8178b96000c1102d9,jwln8rrl25,Nick_Dissertation_EX1,1,48,2020-07-08T14:51:27-07:00,3.4016509056091,1,versionA_stim.csv,READVersionA.csv,"Read Version A","Dissertation, read only version A",LETTUCE,SALAD,Study1,S,59,23,Study,User,-,,Study/JOL,"Study Phase",2016,,,-1,-1,,,,1
5eea09b8178b96000c1102d9,jwln8rrl25,Nick_Dissertation_EX1,1,49,2020-07-08T14:51:28-07:00,1.4600501060486,1,versionA_stim.csv,READVersionA.csv,"Read Version A","Dissertation, read only version A",MEANING,DEFINITION,Study1,S,62,31,Study,User,-,,Study/JOL,"Study Phase",1033,,,-1,-1,,,,1
5eea09b8178b96000c1102d9,jwln8rrl25,Nick_Dissertation_EX1,1,50,2020-07-08T14:51:30-07:00,1.3255159854889,1,versionA_stim.csv,READVersionA.csv,"Read Version A","Dissertation, read only version A",DUE,ASSIGNMENT,Study1,S,46,52,Study,User,-,,Study/JOL,"Study Phase",900,,,-1,-1,,,,1
5eea09b8178b96000c1102d9,jwln8rrl25,Nick_Dissertation_EX1,1,51,2020-07-08T14:51:32-07:00,2.1133189201355,1,versionA_stim.csv,READVersionA.csv,"Read Version A","Dissertation, read only version A",BUG,WASP,Study1,B,32,50,Study,User,-,,Study/JOL,"Study Phase",1669,,,-1,-1,,,,1
5eea09b8178b96000c1102d9,jwln8rrl25,Nick_Dissertation_EX1,1,52,2020-07-08T14:51:34-07:00,1.753632068634,1,versionA_stim.csv,READVersionA.csv,"Read Version A","Dissertation, read only version A",HORNET,STING,Study1,F,11,46,Study,User,-,,Study/JOL,"Study Phase",1350,,,-1,-1,,,,1
5eea09b8178b96000c1102d9,jwln8rrl25,Nick_Dissertation_EX1,1,53,2020-07-08T14:51:35-07:00,1.3547489643097,1,versionA_stim.csv,READVersionA.csv,"Read Version A","Dissertation, read only version A",LIFT,WOMAN,Study1,U,69,84,Study,User,-,,Study/JOL,"Study Phase",904,,,-1,-1,,,,1
5eea09b8178b96000c1102d9,jwln8rrl25,Nick_Dissertation_EX1,1,54,2020-07-08T14:51:36-07:00,1.2067980766296,1,versionA_stim.csv,READVersionA.csv,"Read Version A","Dissertation, read only version A",CLOTHES,ATTIRE,Study1,B,43,47,Study,User,-,,Study/JOL,"Study Phase",770,,,-1,-1,,,,1
5eea09b8178b96000c1102d9,jwln8rrl25,Nick_Dissertation_EX1,1,55,2020-07-08T14:51:37-07:00,1.2256829738617,1,versionA_stim.csv,READVersionA.csv,"Read Version A","Dissertation, read only version A",PARK,HUNGRY,Study1,U,68,10,Study,User,-,,Study/JOL,"Study Phase",741,,,-1,-1,,,,1
5eea09b8178b96000c1102d9,jwln8rrl25,Nick_Dissertation_EX1,1,56,2020-07-08T14:51:38-07:00,1.1440110206604,1,versionA_stim.csv,READVersionA.csv,"Read Version A","Dissertation, read only version A",WAGE,MONEY,Study1,F,8,70,Study,User,-,,Study/JOL,"Study Phase",698,,,-1,-1,,,,1
5eea09b8178b96000c1102d9,jwln8rrl25,Nick_Dissertation_EX1,1,57,2020-07-08T14:51:40-07:00,1.1098790168762,1,versionA_stim.csv,READVersionA.csv,"Read Version A","Dissertation, read only version A",BRIDGE,WATER,Study1,F,18,83,Study,User,-,,Study/JOL,"Study Phase",648,,,-1,-1,,,,1
5eea09b8178b96000c1102d9,jwln8rrl25,Nick_Dissertation_EX1,1,58,2020-07-08T14:51:41-07:00,1.1460409164429,1,versionA_stim.csv,READVersionA.csv,"Read Version A","Dissertation, read only version A",FIRE,BLAZE,Study1,B,45,49,Study,User,-,,Study/JOL,"Study Phase",687,,,-1,-1,,,,1
5eea09b8178b96000c1102d9,jwln8rrl25,Nick_Dissertation_EX1,1,59,2020-07-08T14:51:42-07:00,1.1909279823303,1,versionA_stim.csv,READVersionA.csv,"Read Version A","Dissertation, read only version A",PLANE,PILOT,Study1,B,44,14,Study,User,-,,Study/JOL,"Study Phase",746,,,-1,-1,,,,1
5eea09b8178b96000c1102d9,jwln8rrl25,Nick_Dissertation_EX1,1,60,2020-07-08T14:51:43-07:00,1.343917131424,1,versionA_stim.csv,READVersionA.csv,"Read Version A","Dissertation, read only version A",SUGAR,RIDDLE,Study1,U,81,78,Study,User,-,,Study/JOL,"Study Phase",885,,,-1,-1,,,,1
5eea09b8178b96000c1102d9,jwln8rrl25,Nick_Dissertation_EX1,1,61,2020-07-08T14:51:46-07:00,2.4231128692627,1,versionA_stim.csv,READVersionA.csv,"Read Version A","Dissertation, read only version A",FIX,HAND,Study1,U,75,60,Study,User,-,,Study/JOL,"Study Phase",1949,,,-1,-1,,,,1
5eea09b8178b96000c1102d9,jwln8rrl25,Nick_Dissertation_EX1,1,62,2020-07-08T14:51:47-07:00,1.3712959289551,1,versionA_stim.csv,READVersionA.csv,"Read Version A","Dissertation, read only version A",SMELL,STENCH,Study1,B,42,34,Study,User,-,,Study/JOL,"Study Phase",939,,,-1,-1,,,,1
5eea09b8178b96000c1102d9,jwln8rrl25,Nick_Dissertation_EX1,1,63,2020-07-08T14:51:49-07:00,1.490875005722,1,versionA_stim.csv,READVersionA.csv,"Read Version A","Dissertation, read only version A",CASH,WOULD,Study1,U,83,65,Study,User,-,,Study/JOL,"Study Phase",1033,,,-1,-1,,,,1
5eea09b8178b96000c1102d9,jwln8rrl25,Nick_Dissertation_EX1,1,64,2020-07-08T14:51:51-07:00,2.8203730583191,1,versionA_stim.csv,READVersionA.csv,"Read Version A","Dissertation, read only version A",FULL,ENOUGH,Study1,B,26,58,Study,User,-,,Study/JOL,"Study Phase",2379,,,-1,-1,,,,1
5eea09b8178b96000c1102d9,jwln8rrl25,Nick_Dissertation_EX1,1,65,2020-07-08T14:51:54-07:00,2.3193030357361,1,versionA_stim.csv,READVersionA.csv,"Read Version A","Dissertation, read only version A",LAW,ATTORNEY,Study1,B,34,28,Study,User,-,,Study/JOL,"Study Phase",1893,,,-1,-1,,,,1
5eea09b8178b96000c1102d9,jwln8rrl25,Nick_Dissertation_EX1,1,66,2020-07-08T14:51:56-07:00,1.9552519321442,1,versionA_stim.csv,READVersionA.csv,"Read Version A","Dissertation, read only version A",DISCUSSION,TALK,Study1,F,21,7,Study,User,-,,Study/JOL,"Study Phase",1503,,,-1,-1,,,,1
5eea09b8178b96000c1102d9,jwln8rrl25,Nick_Dissertation_EX1,1,67,2020-07-08T14:51:59-07:00,2.9013381004333,1,versionA_stim.csv,READVersionA.csv,"Read Version A","Dissertation, read only version A",ALLOW,TUCK,Study1,U,78,44,Study,User,-,,Study/JOL,"Study Phase",2484,,,-1,-1,,,,1
5eea09b8178b96000c1102d9,jwln8rrl25,Nick_Dissertation_EX1,1,68,2020-07-08T14:52:00-07:00,1.9371409416199,1,versionA_stim.csv,READVersionA.csv,"Read Version A","Dissertation, read only version A",HEIGHT,GROWTH,Study1,B,30,48,Study,User,-,,Study/JOL,"Study Phase",1520,,,-1,-1,,,,1
5eea09b8178b96000c1102d9,jwln8rrl25,Nick_Dissertation_EX1,1,69,2020-07-08T14:52:02-07:00,1.7729620933533,1,versionA_stim.csv,READVersionA.csv,"Read Version A","Dissertation, read only version A",ROOT,PLANT,Study1,F,13,19,Study,User,-,,Study/JOL,"Study Phase",1300,,,-1,-1,,,,1
5eea09b8178b96000c1102d9,jwln8rrl25,Nick_Dissertation_EX1,1,70,2020-07-08T14:52:04-07:00,1.2668008804321,1,versionA_stim.csv,READVersionA.csv,"Read Version A","Dissertation, read only version A",SWAN,BIRD,Study1,F,14,18,Study,User,-,,Study/JOL,"Study Phase",809,,,-1,-1,,,,1
5eea09b8178b96000c1102d9,jwln8rrl25,Nick_Dissertation_EX1,1,71,2020-07-08T14:52:05-07:00,1.1553239822388,1,versionA_stim.csv,READVersionA.csv,"Read Version A","Dissertation, read only version A",POP,SODA,Study1,S,56,69,Study,User,-,,Study/JOL,"Study Phase",742,,,-1,-1,,,,1
5eea09b8178b96000c1102d9,jwln8rrl25,Nick_Dissertation_EX1,1,72,2020-07-08T14:52:06-07:00,1.220242023468,1,versionA_stim.csv,READVersionA.csv,"Read Version A","Dissertation, read only version A",DIETARY,SACKING,Study1,U,67,57,Study,User,-,,Study/JOL,"Study Phase",746,,,-1,-1,,,,1
5eea09b8178b96000c1102d9,jwln8rrl25,Nick_Dissertation_EX1,1,73,2020-07-08T14:52:07-07:00,1.1196749210358,1,versionA_stim.csv,READVersionA.csv,"Read Version A","Dissertation, read only version A",HAPPY,CAR,Study1,U,77,9,Study,User,-,,Study/JOL,"Study Phase",682,,,-1,-1,,,,1
5eea09b8178b96000c1102d9,jwln8rrl25,Nick_Dissertation_EX1,1,74,2020-07-08T14:52:08-07:00,1.124204158783,1,versionA_stim.csv,READVersionA.csv,"Read Version A","Dissertation, read only version A",TRIAL,JURY,Study1,S,50,43,Study,User,-,,Study/JOL,"Study Phase",657,,,-1,-1,,,,1
5eea09b8178b96000c1102d9,jwln8rrl25,Nick_Dissertation_EX1,1,75,2020-07-08T14:52:09-07:00,1.2061698436737,1,versionA_stim.csv,READVersionA.csv,"Read Version A","Dissertation, read only version A",SENTENCE,WORD,Study1,B,31,86,Study,User,-,,Study/JOL,"Study Phase",735,,,-1,-1,,,,1
5eea09b8178b96000c1102d9,jwln8rrl25,Nick_Dissertation_EX1,1,76,2020-07-08T14:52:11-07:00,1.2446320056915,1,versionA_stim.csv,READVersionA.csv,"Read Version A","Dissertation, read only version A",GRILL,BAR,Study1,S,52,45,Study,User,-,,Study/JOL,"Study Phase",790,,,-1,-1,,,,1
5eea09b8178b96000c1102d9,jwln8rrl25,Nick_Dissertation_EX1,1,77,2020-07-08T14:52:11-07:00,0.86751914024353,1,versionA_stim.csv,READVersionA.csv,"Read Version A","Dissertation, read only version A",HIDE,SICK,Study1,U,84,42,Study,User,-,,Study/JOL,"Study Phase",423,,,-1,-1,,,,1
5eea09b8178b96000c1102d9,jwln8rrl25,Nick_Dissertation_EX1,1,78,2020-07-08T14:52:13-07:00,1.4797079563141,1,versionA_stim.csv,READVersionA.csv,"Read Version A","Dissertation, read only version A",PUSHER,CLUTTER,Study1,U,66,73,Study,User,-,,Study/JOL,"Study Phase",1029,,,-1,-1,,,,1
5eea09b8178b96000c1102d9,jwln8rrl25,Nick_Dissertation_EX1,1,79,2020-07-08T14:52:14-07:00,1.3591899871826,1,versionA_stim.csv,READVersionA.csv,"Read Version A","Dissertation, read only version A",HERD,COW,Study1,F,22,38,Study,User,-,,Study/JOL,"Study Phase",901,,,-1,-1,,,,1
5eea09b8178b96000c1102d9,jwln8rrl25,Nick_Dissertation_EX1,1,80,2020-07-08T14:52:16-07:00,1.3514449596405,1,versionA_stim.csv,READVersionA.csv,"Read Version A","Dissertation, read only version A",NUMBER,AMOUNT,Study1,S,47,59,Study,User,-,,Study/JOL,"Study Phase",932,,,-1,-1,,,,1
5eea09b8178b96000c1102d9,jwln8rrl25,Nick_Dissertation_EX1,1,81,2020-07-08T14:52:17-07:00,1.575266122818,1,versionA_stim.csv,READVersionA.csv,"Read Version A","Dissertation, read only version A",DISCOVER,FLOOR,Study1,U,71,33,Study,User,-,,Study/JOL,"Study Phase",1073,,,-1,-1,,,,1
5eea09b8178b96000c1102d9,jwln8rrl25,Nick_Dissertation_EX1,1,82,2020-07-08T14:52:19-07:00,1.556823015213,1,versionA_stim.csv,READVersionA.csv,"Read Version A","Dissertation, read only version A",VALLEY,ADD,Study1,U,82,15,Study,User,-,,Study/JOL,"Study Phase",1083,,,-1,-1,,,,1
5eea09b8178b96000c1102d9,jwln8rrl25,Nick_Dissertation_EX1,1,83,2020-07-08T14:52:21-07:00,2.3217220306396,1,versionA_stim.csv,READVersionA.csv,"Read Version A","Dissertation, read only version A",SOON,BELT,Study1,U,70,67,Study,User,-,,Study/JOL,"Study Phase",761,,,-1,-1,,,,1
5eea09b8178b96000c1102d9,jwln8rrl25,Nick_Dissertation_EX1,1,84,2020-07-08T14:52:22-07:00,1.3494868278503,1,versionA_stim.csv,READVersionA.csv,"Read Version A","Dissertation, read only version A",MACHINE,POSITION,Study1,U,76,32,Study,User,-,,Study/JOL,"Study Phase",867,,,-1,-1,,,,1
5eea09b8178b96000c1102d9,jwln8rrl25,Nick_Dissertation_EX1,1,85,2020-07-08T14:52:24-07:00,1.169322013855,1,versionA_stim.csv,READVersionA.csv,"Read Version A","Dissertation, read only version A",LOCATION,SITE,Study1,S,48,16,Study,User,-,,Study/JOL,"Study Phase",672,,,-1,-1,,,,1
5eea09b8178b96000c1102d9,jwln8rrl25,Nick_Dissertation_EX1,1,86,2020-07-08T14:52:25-07:00,1.1645259857178,1,versionA_stim.csv,READVersionA.csv,"Read Version A","Dissertation, read only version A",MATH,DIVISION,Study1,B,33,27,Study,User,-,,Study/JOL,"Study Phase",737,,,-1,-1,,,,1
5eea09b8178b96000c1102d9,jwln8rrl25,Nick_Dissertation_EX1,1,87,2020-07-08T14:52:26-07:00,1.5605521202087,1,versionA_stim.csv,READVersionA.csv,"Read Version A","Dissertation, read only version A",MALT,CHOCOLATE,BUFFER2,Buffer,88,89,Study,User,-,,Study/JOL,BUFFER2,1097,,,-1,-1,,,,1
5eea09b8178b96000c1102d9,jwln8rrl25,Nick_Dissertation_EX1,1,88,2020-07-08T14:52:28-07:00,1.5332908630371,1,versionA_stim.csv,READVersionA.csv,"Read Version A","Dissertation, read only version A",MOON,SPACE,BUFFER2,Buffer,89,90,Study,User,-,,Study/JOL,BUFFER2,963,,,-1,-1,,,,1
5eea09b8178b96000c1102d9,jwln8rrl25,Nick_Dissertation_EX1,1,89,2020-07-08T14:52:30-07:00,1.7747111320496,1,versionA_stim.csv,READVersionA.csv,"Read Version A","Dissertation, read only version A",THING,STUFF,BUFFER2,Buffer,90,87,Study,User,-,,Study/JOL,BUFFER2,1316,,,-1,-1,,,,1
5eea09b8178b96000c1102d9,jwln8rrl25,Nick_Dissertation_EX1,1,90,2020-07-08T14:52:31-07:00,1.3661060333252,1,versionA_stim.csv,READVersionA.csv,"Read Version A","Dissertation, read only version A",SHERRIF,POLICE,BUFFER2,Buffer,87,88,Study,User,-,,Study/JOL,BUFFER2,907,,,-1,-1,,,,1
5eea09b8178b96000c1102d9,jwln8rrl25,Nick_Dissertation_EX1,1,91,2020-07-08T14:52:33-07:00,1.8444278240204,1,versionA_stim.csv,READVersionA.csv,"Read Version A","Dissertation, read only version A",GEESE,GOOSE,BUFFER2,Buffer,86,91,Study,User,-,,Study/JOL,BUFFER2,1371,,,-1,-1,,,,1
5eea09b8178b96000c1102d9,jwln8rrl25,Nick_Dissertation_EX1,1,92,2020-07-08T14:52:36-07:00,3.6384069919586,1,versionA_stim.csv,READVersionA.csv,"Read Version A","Dissertation, read only version A",,,,,,0,Instruct,User,-,"You have completed this section. Please press Enter.",Filler_Instruction,Instruct2,3168,,,-1,-1,,,,1
5eea09b8178b96000c1102d9,jwln8rrl25,Nick_Dissertation_EX1,1,93,2020-07-08T14:54:37-07:00,120.78291106224,1,versionA_stim.csv,READVersionA.csv,"Read Version A","Dissertation, read only version A",,,,,,0,FreeRecall,120,120,"Please list the 50 US states in alphabetical order. The task will automatically advance to the next screen after two minutes.",,Filler1,120008,"Alaska, Arizona, California, Colorado, Florida, Hawaii, Kentucky, Massachusetts? Michigan, Mississippi, New",0,26933,119891,0,0,,1
5eea09b8178b96000c1102d9,jwln8rrl25,Nick_Dissertation_EX1,1,94,2020-07-08T14:54:49-07:00,11.785573959351,1,versionA_stim.csv,READVersionA.csv,"Read Version A","Dissertation, read only version A",,,,,,0,Instruct,-,10,"You will now be presented with the first word from each of the previously studied item pairs. Please type the missing word. If you do not know the word, you may guess or press Enter to skip forward to the next pair.",,Instruct3,11121,,,-1,-1,,,,1
5eea09b8178b96000c1102d9,jwln8rrl25,Nick_Dissertation_EX1,1,95,2020-07-08T14:54:54-07:00,5.0315761566162,1,versionA_stim.csv,READVersionA.csv,"Read Version A","Dissertation, read only version A",PUSHER,CLUTTER,Study1,U,66,73,Test,User,-,,Recall,Recall1,4416,,0,-1,-1,0,0,,1
5eea09b8178b96000c1102d9,jwln8rrl25,Nick_Dissertation_EX1,1,96,2020-07-08T14:54:58-07:00,4.3316268920898,1,versionA_stim.csv,READVersionA.csv,"Read Version A","Dissertation, read only version A",LETTUCE,SALAD,Study1,S,59,23,Test,User,-,,Recall,Recall1,3878,SALAD,100,1851,3594,1,1,,1
5eea09b8178b96000c1102d9,jwln8rrl25,Nick_Dissertation_EX1,1,97,2020-07-08T14:55:01-07:00,2.6881899833679,1,versionA_stim.csv,READVersionA.csv,"Read Version A","Dissertation, read only version A",WAY,OUT,Study1,F,16,71,Test,User,-,,Recall,Recall1,2204,OUT,100,1650,1945,1,1,,1
5eea09b8178b96000c1102d9,jwln8rrl25,Nick_Dissertation_EX1,1,98,2020-07-08T14:55:05-07:00,4.1991550922394,1,versionA_stim.csv,READVersionA.csv,"Read Version A","Dissertation, read only version A",DUE,ASSIGNMENT,Study1,S,46,52,Test,User,-,,Recall,Recall1,2727,DATE,28.571428571429,1762,2294,0,0,,1
5eea09b8178b96000c1102d9,jwln8rrl25,Nick_Dissertation_EX1,1,99,2020-07-08T14:55:09-07:00,3.4553740024567,1,versionA_stim.csv,READVersionA.csv,"Read Version A","Dissertation, read only version A",PAST,FUTURE,Study1,S,61,26,Test,User,-,,Recall,Recall1,2931,FUTURE,100,1444,2627,1,1,,1
5eea09b8178b96000c1102d9,jwln8rrl25,Nick_Dissertation_EX1,1,100,2020-07-08T14:55:15-07:00,6.0638680458069,1,versionA_stim.csv,READVersionA.csv,"Read Version A","Dissertation, read only version A",HORNET,STING,Study1,F,11,46,Test,User,-,,Recall,Recall1,5565,STING,100,1821,4784,1,1,,1
5eea09b8178b96000c1102d9,jwln8rrl25,Nick_Dissertation_EX1,1,101,2020-07-08T14:55:20-07:00,5.1675310134888,1,versionA_stim.csv,READVersionA.csv,"Read Version A","Dissertation, read only version A",EDITOR,NEWS,Study1,F,10,66,Test,User,-,,Recall,Recall1,4689,NEWS,100,2697,3613,1,1,,1
5eea09b8178b96000c1102d9,jwln8rrl25,Nick_Dissertation_EX1,1,102,2020-07-08T14:55:23-07:00,3.4592487812042,1,versionA_stim.csv,READVersionA.csv,"Read Version A","Dissertation, read only version A",WORK,CHORE,Study1,B,39,40,Test,User,-,,Recall,Recall1,3057,,0,-1,-1,0,0,,1
5eea09b8178b96000c1102d9,jwln8rrl25,Nick_Dissertation_EX1,1,103,2020-07-08T14:55:29-07:00,5.2185552120209,1,versionA_stim.csv,READVersionA.csv,"Read Version A","Dissertation, read only version A",PLANE,PILOT,Study1,B,44,14,Test,User,-,,Recall,Recall1,4419,PASSANGER,14.285714285714,2438,4240,0,0,,1
5eea09b8178b96000c1102d9,jwln8rrl25,Nick_Dissertation_EX1,1,104,2020-07-08T14:55:34-07:00,5.6217110157013,1,versionA_stim.csv,READVersionA.csv,"Read Version A","Dissertation, read only version A",ALLOW,TUCK,Study1,U,78,44,Test,User,-,,Recall,Recall1,4752,DO,0,4273,4389,0,0,,1
5eea09b8178b96000c1102d9,jwln8rrl25,Nick_Dissertation_EX1,1,105,2020-07-08T14:55:40-07:00,5.2796859741211,1,versionA_stim.csv,READVersionA.csv,"Read Version A","Dissertation, read only version A",DISCOVER,FLOOR,Study1,U,71,33,Test,User,-,,Recall,Recall1,4676,WORLD,40,3706,4361,0,0,,1
5eea09b8178b96000c1102d9,jwln8rrl25,Nick_Dissertation_EX1,1,106,2020-07-08T14:55:47-07:00,6.9842758178711,1,versionA_stim.csv,READVersionA.csv,"Read Version A","Dissertation, read only version A",VALLEY,ADD,Study1,U,82,15,Test,User,-,,Recall,Recall1,6497,,0,-1,-1,0,0,,1
5eea09b8178b96000c1102d9,jwln8rrl25,Nick_Dissertation_EX1,1,107,2020-07-08T14:55:52-07:00,5.8021941184998,1,versionA_stim.csv,READVersionA.csv,"Read Version A","Dissertation, read only version A",HIDE,SICK,Study1,U,84,42,Test,User,-,,Recall,Recall1,5099,SEEK,50,4319,4758,0,0,,1
5eea09b8178b96000c1102d9,jwln8rrl25,Nick_Dissertation_EX1,1,108,2020-07-08T14:55:57-07:00,4.4315779209137,1,versionA_stim.csv,READVersionA.csv,"Read Version A","Dissertation, read only version A",MATH,DIVISION,Study1,B,33,27,Test,User,-,,Recall,Recall1,3678,TEST,16.666666666667,2805,3359,0,0,,1
5eea09b8178b96000c1102d9,jwln8rrl25,Nick_Dissertation_EX1,1,109,2020-07-08T14:56:06-07:00,9.3856890201569,1,versionA_stim.csv,READVersionA.csv,"Read Version A","Dissertation, read only version A",DEBATE,SIGHT,Study1,U,73,35,Test,User,-,,Recall,Recall1,8972,ARGUE,20,2519,8562,0,0,,1
5eea09b8178b96000c1102d9,jwln8rrl25,Nick_Dissertation_EX1,1,110,2020-07-08T14:56:09-07:00,2.3393220901489,1,versionA_stim.csv,READVersionA.csv,"Read Version A","Dissertation, read only version A",PAW,DOG,Study1,F,15,25,Test,User,-,,Recall,Recall1,1787,DOG,100,1203,1509,1,1,,1
5eea09b8178b96000c1102d9,jwln8rrl25,Nick_Dissertation_EX1,1,111,2020-07-08T14:56:13-07:00,4.501415014267,1,versionA_stim.csv,READVersionA.csv,"Read Version A","Dissertation, read only version A",ART,LION,Study1,U,79,64,Test,User,-,,Recall,Recall1,3889,LION,100,3116,3651,1,1,,1
5eea09b8178b96000c1102d9,jwln8rrl25,Nick_Dissertation_EX1,1,112,2020-07-08T14:56:22-07:00,9.2652859687805,1,versionA_stim.csv,READVersionA.csv,"Read Version A","Dissertation, read only version A",BRIDGE,WATER,Study1,F,18,83,Test,User,-,,Recall,Recall1,8806,,0,-1,-1,0,0,,1
5eea09b8178b96000c1102d9,jwln8rrl25,Nick_Dissertation_EX1,1,113,2020-07-08T14:56:28-07:00,5.3337469100952,1,versionA_stim.csv,READVersionA.csv,"Read Version A","Dissertation, read only version A",ARTERY,BRONZE,Study1,U,74,41,Test,User,-,,Recall,Recall1,4936,HEART,18.181818181818,2115,3754,0,0,,1
5eea09b8178b96000c1102d9,jwln8rrl25,Nick_Dissertation_EX1,1,114,2020-07-08T14:56:31-07:00,3.3672211170197,1,versionA_stim.csv,READVersionA.csv,"Read Version A","Dissertation, read only version A",MEANING,DEFINITION,Study1,S,62,31,Test,User,-,,Recall,Recall1,2991,,0,-1,-1,0,0,,1
5eea09b8178b96000c1102d9,jwln8rrl25,Nick_Dissertation_EX1,1,115,2020-07-08T14:56:33-07:00,2.1670298576355,1,versionA_stim.csv,READVersionA.csv,"Read Version A","Dissertation, read only version A",NUMBER,AMOUNT,Study1,S,47,59,Test,User,-,,Recall,Recall1,1763,,0,-1,-1,0,0,,1
5eea09b8178b96000c1102d9,jwln8rrl25,Nick_Dissertation_EX1,1,116,2020-07-08T14:56:43-07:00,9.3515381813049,1,versionA_stim.csv,READVersionA.csv,"Read Version A","Dissertation, read only version A",FIRE,BLAZE,Study1,B,45,49,Test,User,-,,Recall,Recall1,8747,BLAZE,100,4617,5677,1,1,,1
5eea09b8178b96000c1102d9,jwln8rrl25,Nick_Dissertation_EX1,1,117,2020-07-08T14:56:55-07:00,12.467147827148,1,versionA_stim.csv,READVersionA.csv,"Read Version A","Dissertation, read only version A",CIRCLE,ROUND,Study1,S,65,12,Test,User,-,,Recall,Recall1,11862,,0,2729,3766,0,0,,1
5eea09b8178b96000c1102d9,jwln8rrl25,Nick_Dissertation_EX1,1,118,2020-07-08T14:56:58-07:00,3.3183960914612,1,versionA_stim.csv,READVersionA.csv,"Read Version A","Dissertation, read only version A",CASH,WOULD,Study1,U,83,65,Test,User,-,,Recall,Recall1,2863,MONEY,20,1844,2552,0,0,,1
5eea09b8178b96000c1102d9,jwln8rrl25,Nick_Dissertation_EX1,1,119,2020-07-08T14:57:01-07:00,2.30650806427,1,versionA_stim.csv,READVersionA.csv,"Read Version A","Dissertation, read only version A",TUNA,FISH,Study1,F,25,30,Test,User,-,,Recall,Recall1,1831,FISH,100,1169,1494,1,1,,1
5eea09b8178b96000c1102d9,jwln8rrl25,Nick_Dissertation_EX1,1,120,2020-07-08T14:57:03-07:00,2.8425669670105,1,versionA_stim.csv,READVersionA.csv,"Read Version A","Dissertation, read only version A",BABY,CHILD,Study1,S,64,11,Test,User,-,,Recall,Recall1,2238,CHILD,100,1282,1877,1,1,,1
5eea09b8178b96000c1102d9,jwln8rrl25,Nick_Dissertation_EX1,1,121,2020-07-08T14:57:09-07:00,5.4071750640869,1,versionA_stim.csv,READVersionA.csv,"Read Version A","Dissertation, read only version A",KEY,LATCH,Study1,B,36,51,Test,User,-,,Recall,Recall1,4922,HOLDER,18.181818181818,2888,4553,0,0,,1
5eea09b8178b96000c1102d9,jwln8rrl25,Nick_Dissertation_EX1,1,122,2020-07-08T14:57:14-07:00,5.4843018054962,1,versionA_stim.csv,READVersionA.csv,"Read Version A","Dissertation, read only version A",WAGE,MONEY,Study1,F,8,70,Test,User,-,,Recall,Recall1,4884,MONEY,100,3465,4370,1,1,,1
5eea09b8178b96000c1102d9,jwln8rrl25,Nick_Dissertation_EX1,1,123,2020-07-08T14:57:21-07:00,6.1859719753265,1,versionA_stim.csv,READVersionA.csv,"Read Version A","Dissertation, read only version A",DELINQUENT,BAD,Study1,F,6,61,Test,User,-,,Recall,Recall1,5566,,0,3833,3834,0,0,,1
5eea09b8178b96000c1102d9,jwln8rrl25,Nick_Dissertation_EX1,1,124,2020-07-08T14:57:24-07:00,3.3545072078705,1,versionA_stim.csv,READVersionA.csv,"Read Version A","Dissertation, read only version A",BITTER,COLD,Study1,F,12,81,Test,User,-,,Recall,Recall1,2787,SWEET,0,1573,2528,0,0,,1
5eea09b8178b96000c1102d9,jwln8rrl25,Nick_Dissertation_EX1,1,125,2020-07-08T14:57:30-07:00,5.7435989379883,1,versionA_stim.csv,READVersionA.csv,"Read Version A","Dissertation, read only version A",MACHINE,POSITION,Study1,U,76,32,Test,User,-,,Recall,Recall1,4920,,0,-1,-1,0,0,,1
5eea09b8178b96000c1102d9,jwln8rrl25,Nick_Dissertation_EX1,1,126,2020-07-08T14:57:32-07:00,2.3171198368073,1,versionA_stim.csv,READVersionA.csv,"Read Version A","Dissertation, read only version A",CREDIT,CARD,Study1,F,23,54,Test,User,-,,Recall,Recall1,1851,CARD,100,995,1587,1,1,,1
5eea09b8178b96000c1102d9,jwln8rrl25,Nick_Dissertation_EX1,1,127,2020-07-08T14:57:47-07:00,15.307841062546,1,versionA_stim.csv,READVersionA.csv,"Read Version A","Dissertation, read only version A",SMELL,STENCH,Study1,B,42,34,Test,User,-,,Recall,Recall1,14686,PUNGENT,30.769230769231,10978,12515,0,0,,1
5eea09b8178b96000c1102d9,jwln8rrl25,Nick_Dissertation_EX1,1,128,2020-07-08T14:57:51-07:00,3.7351939678192,1,versionA_stim.csv,READVersionA.csv,"Read Version A","Dissertation, read only version A",BATHROOM,TOILET,Study1,S,58,22,Test,User,-,,Recall,Recall1,3259,SINK,20,2061,2458,0,0,,1
5eea09b8178b96000c1102d9,jwln8rrl25,Nick_Dissertation_EX1,1,129,2020-07-08T14:57:58-07:00,6.8100271224976,1,versionA_stim.csv,READVersionA.csv,"Read Version A","Dissertation, read only version A",CHISEL,HAMMER,Study1,F,9,80,Test,User,-,,Recall,Recall1,6202,,0,3956,4585,0,0,,1
5eea09b8178b96000c1102d9,jwln8rrl25,Nick_Dissertation_EX1,1,130,2020-07-08T14:58:05-07:00,6.8795790672302,1,versionA_stim.csv,READVersionA.csv,"Read Version A","Dissertation, read only version A",BUG,WASP,Study1,B,32,50,Test,User,-,,Recall,Recall1,6335,WASP,100,3030,4805,1,1,,1
5eea09b8178b96000c1102d9,jwln8rrl25,Nick_Dissertation_EX1,1,131,2020-07-08T14:58:07-07:00,2.7506217956543,1,versionA_stim.csv,READVersionA.csv,"Read Version A","Dissertation, read only version A",HONEY,BEE,Study1,S,63,37,Test,User,-,,Recall,Recall1,2033,BEE,100,1285,1692,1,1,,1
5eea09b8178b96000c1102d9,jwln8rrl25,Nick_Dissertation_EX1,1,132,2020-07-08T14:58:12-07:00,4.8990840911865,1,versionA_stim.csv,READVersionA.csv,"Read Version A","Dissertation, read only version A",ROOT,PLANT,Study1,F,13,19,Test,User,-,,Recall,Recall1,4443,PLANT,100,2456,4201,1,1,,1
5eea09b8178b96000c1102d9,jwln8rrl25,Nick_Dissertation_EX1,1,133,2020-07-08T14:58:17-07:00,4.9879710674286,1,versionA_stim.csv,READVersionA.csv,"Read Version A","Dissertation, read only version A",LOCATION,SITE,Study1,S,48,16,Test,User,-,,Recall,Recall1,4601,HOME,25,3918,4321,0,0,,1
5eea09b8178b96000c1102d9,jwln8rrl25,Nick_Dissertation_EX1,1,134,2020-07-08T14:58:26-07:00,8.4557569026947,1,versionA_stim.csv,READVersionA.csv,"Read Version A","Dissertation, read only version A",ORCHID,FLOWER,Study1,F,24,85,Test,User,-,,Recall,Recall1,7899,GRAPE,18.181818181818,5610,7729,0,0,,1
5eea09b8178b96000c1102d9,jwln8rrl25,Nick_Dissertation_EX1,1,135,2020-07-08T14:58:28-07:00,2.3571670055389,1,versionA_stim.csv,READVersionA.csv,"Read Version A","Dissertation, read only version A",HAPPY,CAR,Study1,U,77,9,Test,User,-,,Recall,Recall1,1890,SAD,33.333333333333,1289,1645,0,0,,1
5eea09b8178b96000c1102d9,jwln8rrl25,Nick_Dissertation_EX1,1,136,2020-07-08T14:58:38-07:00,9.5895049571991,1,versionA_stim.csv,READVersionA.csv,"Read Version A","Dissertation, read only version A",DIGESTION,STOMACH,Study1,F,7,76,Test,User,-,,Recall,Recall1,9139,FOOD,18.181818181818,2663,8845,0,0,,1
5eea09b8178b96000c1102d9,jwln8rrl25,Nick_Dissertation_EX1,1,137,2020-07-08T14:58:40-07:00,2.583428144455,1,versionA_stim.csv,READVersionA.csv,"Read Version A","Dissertation, read only version A",HYGIENE,CLEAN,Study1,F,17,21,Test,User,-,,Recall,Recall1,2131,,0,-1,-1,0,0,,1
5eea09b8178b96000c1102d9,jwln8rrl25,Nick_Dissertation_EX1,1,138,2020-07-08T14:58:49-07:00,8.2978780269623,1,versionA_stim.csv,READVersionA.csv,"Read Version A","Dissertation, read only version A",DARK,CAVE,Study1,B,28,82,Test,User,-,,Recall,Recall1,7854,SAD,28.571428571429,3159,3582,0,0,,1
5eea09b8178b96000c1102d9,jwln8rrl25,Nick_Dissertation_EX1,1,139,2020-07-08T14:58:51-07:00,2.1577808856964,1,versionA_stim.csv,READVersionA.csv,"Read Version A","Dissertation, read only version A",TRIAL,JURY,Study1,S,50,43,Test,User,-,,Recall,Recall1,1684,,0,-1,-1,0,0,,1
5eea09b8178b96000c1102d9,jwln8rrl25,Nick_Dissertation_EX1,1,140,2020-07-08T14:58:54-07:00,3.3723590373993,1,versionA_stim.csv,READVersionA.csv,"Read Version A","Dissertation, read only version A",DUMP,WASTE,Study1,S,49,8,Test,User,-,,Recall,Recall1,2791,MESS,22.222222222222,2123,2647,0,0,,1
5eea09b8178b96000c1102d9,jwln8rrl25,Nick_Dissertation_EX1,1,141,2020-07-08T14:59:00-07:00,5.8120028972626,1,versionA_stim.csv,READVersionA.csv,"Read Version A","Dissertation, read only version A",DISCUSSION,TALK,Study1,F,21,7,Test,User,-,,Recall,Recall1,4084,DEBATE,20,2428,3865,0,0,,1
5eea09b8178b96000c1102d9,jwln8rrl25,Nick_Dissertation_EX1,1,142,2020-07-08T14:59:05-07:00,4.630401134491,1,versionA_stim.csv,READVersionA.csv,"Read Version A","Dissertation, read only version A",ARCHITECTURE,DESIGN,Study1,S,51,20,Test,User,-,,Recall,Recall1,3985,BUILDING,28.571428571429,1879,3550,0,0,,1
5eea09b8178b96000c1102d9,jwln8rrl25,Nick_Dissertation_EX1,1,143,2020-07-08T14:59:08-07:00,3.2011940479279,1,versionA_stim.csv,READVersionA.csv,"Read Version A","Dissertation, read only version A",SOON,BELT,Study1,U,70,67,Test,User,-,,Recall,Recall1,2605,LATER,44.444444444444,1668,2393,0,0,,1
5eea09b8178b96000c1102d9,jwln8rrl25,Nick_Dissertation_EX1,1,144,2020-07-08T14:59:11-07:00,3.5239398479462,1,versionA_stim.csv,READVersionA.csv,"Read Version A","Dissertation, read only version A",SHOE,FOOT,Study1,S,60,63,Test,User,-,,Recall,Recall1,3037,FOOT,100,1489,1887,1,1,,1
5eea09b8178b96000c1102d9,jwln8rrl25,Nick_Dissertation_EX1,1,145,2020-07-08T14:59:20-07:00,8.3238749504089,1,versionA_stim.csv,READVersionA.csv,"Read Version A","Dissertation, read only version A",KING,VASE,Study1,U,85,75,Test,User,-,,Recall,Recall1,7604,VASE,100,6831,7395,1,1,,1
5eea09b8178b96000c1102d9,jwln8rrl25,Nick_Dissertation_EX1,1,146,2020-07-08T14:59:24-07:00,4.6582591533661,1,versionA_stim.csv,READVersionA.csv,"Read Version A","Dissertation, read only version A",POP,SODA,Study1,S,56,69,Test,User,-,,Recall,Recall1,4170,WATER,22.222222222222,3238,3933,0,0,,1
5eea09b8178b96000c1102d9,jwln8rrl25,Nick_Dissertation_EX1,1,147,2020-07-08T14:59:28-07:00,3.3454539775848,1,versionA_stim.csv,READVersionA.csv,"Read Version A","Dissertation, read only version A",GRILL,BAR,Study1,S,52,45,Test,User,-,,Recall,Recall1,2778,BURGER,44.444444444444,1558,2378,0,0,,1
5eea09b8178b96000c1102d9,jwln8rrl25,Nick_Dissertation_EX1,1,148,2020-07-08T14:59:31-07:00,3.6452720165253,1,versionA_stim.csv,READVersionA.csv,"Read Version A","Dissertation, read only version A",PARK,HUNGRY,Study1,U,68,10,Test,User,-,,Recall,Recall1,3081,TREES,18.181818181818,2071,2877,0,0,,1
5eea09b8178b96000c1102d9,jwln8rrl25,Nick_Dissertation_EX1,1,149,2020-07-08T14:59:35-07:00,4.2155170440674,1,versionA_stim.csv,READVersionA.csv,"Read Version A","Dissertation, read only version A",LIFT,WOMAN,Study1,U,69,84,Test,User,-,,Recall,Recall1,3530,UP,0,2966,3209,0,0,,1
5eea09b8178b96000c1102d9,jwln8rrl25,Nick_Dissertation_EX1,1,150,2020-07-08T15:00:08-07:00,32.487125873566,1,versionA_stim.csv,READVersionA.csv,"Read Version A","Dissertation, read only version A",FULL,ENOUGH,Study1,B,26,58,Test,User,-,,Recall,Recall1,31702,STUFFEd,15.384615384615,21808,31306,0,0,,1
5eea09b8178b96000c1102d9,jwln8rrl25,Nick_Dissertation_EX1,1,151,2020-07-08T15:00:11-07:00,2.6870150566101,1,versionA_stim.csv,READVersionA.csv,"Read Version A","Dissertation, read only version A",HERD,COW,Study1,F,22,38,Test,User,-,,Recall,Recall1,2164,COW,100,1619,1868,1,1,,1
5eea09b8178b96000c1102d9,jwln8rrl25,Nick_Dissertation_EX1,1,152,2020-07-08T15:00:13-07:00,2.6193060874939,1,versionA_stim.csv,READVersionA.csv,"Read Version A","Dissertation, read only version A",STRONG,ACCIDENT,Study1,U,80,68,Test,User,-,,Recall,Recall1,2147,WEAK,16.666666666667,1453,1911,0,0,,1
5eea09b8178b96000c1102d9,jwln8rrl25,Nick_Dissertation_EX1,1,153,2020-07-08T15:00:17-07:00,3.4541018009186,1,versionA_stim.csv,READVersionA.csv,"Read Version A","Dissertation, read only version A",SWAN,BIRD,Study1,F,14,18,Test,User,-,,Recall,Recall1,2975,BLACK,22.222222222222,1925,2678,0,0,,1
5eea09b8178b96000c1102d9,jwln8rrl25,Nick_Dissertation_EX1,1,154,2020-07-08T15:00:22-07:00,5.3874490261078,1,versionA_stim.csv,READVersionA.csv,"Read Version A","Dissertation, read only version A",SUGAR,RIDDLE,Study1,U,81,78,Test,User,-,,Recall,Recall1,4838,CANDY,18.181818181818,3650,4582,0,0,,1
5eea09b8178b96000c1102d9,jwln8rrl25,Nick_Dissertation_EX1,1,155,2020-07-08T15:00:26-07:00,3.5089089870453,1,versionA_stim.csv,READVersionA.csv,"Read Version A","Dissertation, read only version A",TAKE,SEIZE,Study1,B,29,53,Test,User,-,,Recall,Recall1,3034,GIVE,44.444444444444,2273,2695,0,0,,1
5eea09b8178b96000c1102d9,jwln8rrl25,Nick_Dissertation_EX1,1,156,2020-07-08T15:00:28-07:00,2.6395440101624,1,versionA_stim.csv,READVersionA.csv,"Read Version A","Dissertation, read only version A",GREAT,FANTASTIC,Study1,B,35,72,Test,User,-,,Recall,Recall1,2064,,0,-1,-1,0,0,,1
5eea09b8178b96000c1102d9,jwln8rrl25,Nick_Dissertation_EX1,1,157,2020-07-08T15:00:32-07:00,3.7457051277161,1,versionA_stim.csv,READVersionA.csv,"Read Version A","Dissertation, read only version A",HUNGER,FAMINE,Study1,B,40,56,Test,User,-,,Recall,Recall1,3244,STRIKE,33.333333333333,1689,3027,0,0,,1
5eea09b8178b96000c1102d9,jwln8rrl25,Nick_Dissertation_EX1,1,158,2020-07-08T15:00:34-07:00,1.9224920272827,1,versionA_stim.csv,READVersionA.csv,"Read Version A","Dissertation, read only version A",SLEEP,DROWSY,Study1,B,41,55,Test,User,-,,Recall,Recall1,1467,,0,-1,-1,0,0,,1
5eea09b8178b96000c1102d9,jwln8rrl25,Nick_Dissertation_EX1,1,159,2020-07-08T15:00:38-07:00,4.3756840229034,1,versionA_stim.csv,READVersionA.csv,"Read Version A","Dissertation, read only version A",HEIGHT,GROWTH,Study1,B,30,48,Test,User,-,,Recall,Recall1,3786,WEIGHT,33.333333333333,2833,3537,0,0,,1
5eea09b8178b96000c1102d9,jwln8rrl25,Nick_Dissertation_EX1,1,160,2020-07-08T15:00:41-07:00,3.1489927768707,1,versionA_stim.csv,READVersionA.csv,"Read Version A","Dissertation, read only version A",LAW,ATTORNEY,Study1,B,34,28,Test,User,-,,Recall,Recall1,2656,ORDER,46.153846153846,1606,2433,0,0,,1
5eea09b8178b96000c1102d9,jwln8rrl25,Nick_Dissertation_EX1,1,161,2020-07-08T15:00:43-07:00,1.4431371688843,1,versionA_stim.csv,READVersionA.csv,"Read Version A","Dissertation, read only version A",BLOW,WIND,Study1,S,55,62,Test,User,-,,Recall,Recall1,991,,0,-1,-1,0,0,,1
5eea09b8178b96000c1102d9,jwln8rrl25,Nick_Dissertation_EX1,1,162,2020-07-08T15:00:45-07:00,2.3942039012909,1,versionA_stim.csv,READVersionA.csv,"Read Version A","Dissertation, read only version A",DIETARY,SACKING,Study1,U,67,57,Test,User,-,,Recall,Recall1,1895,,0,-1,-1,0,0,,1
5eea09b8178b96000c1102d9,jwln8rrl25,Nick_Dissertation_EX1,1,163,2020-07-08T15:00:48-07:00,2.7783441543579,1,versionA_stim.csv,READVersionA.csv,"Read Version A","Dissertation, read only version A",HOT,CHILI,Study1,B,37,24,Test,User,-,,Recall,Recall1,2158,COLD,44.444444444444,1429,1816,0,0,,1
5eea09b8178b96000c1102d9,jwln8rrl25,Nick_Dissertation_EX1,1,164,2020-07-08T15:00:51-07:00,3.1171188354492,1,versionA_stim.csv,READVersionA.csv,"Read Version A","Dissertation, read only version A",BEGIN,END,Study1,S,54,39,Test,User,-,,Recall,Recall1,2655,FINISH,22.222222222222,1566,2374,0,0,,1
5eea09b8178b96000c1102d9,jwln8rrl25,Nick_Dissertation_EX1,1,165,2020-07-08T15:00:53-07:00,1.7757539749146,1,versionA_stim.csv,READVersionA.csv,"Read Version A","Dissertation, read only version A",FIX,HAND,Study1,U,75,60,Test,User,-,,Recall,Recall1,1239,,0,-1,-1,0,0,,1
5eea09b8178b96000c1102d9,jwln8rrl25,Nick_Dissertation_EX1,1,166,2020-07-08T15:00:59-07:00,6.4917080402374,1,versionA_stim.csv,READVersionA.csv,"Read Version A","Dissertation, read only version A",WINE,CHEESE,Study1,S,57,17,Test,User,-,,Recall,Recall1,5892,CHEESE,100,4597,5612,1,1,,1
5eea09b8178b96000c1102d9,jwln8rrl25,Nick_Dissertation_EX1,1,167,2020-07-08T15:01:05-07:00,5.1628890037537,1,versionA_stim.csv,READVersionA.csv,"Read Version A","Dissertation, read only version A",REVOLUTION,WAR,Study1,F,20,77,Test,User,-,,Recall,Recall1,4678,,0,-1,-1,0,0,,1
5eea09b8178b96000c1102d9,jwln8rrl25,Nick_Dissertation_EX1,1,168,2020-07-08T15:01:07-07:00,2.0252120494843,1,versionA_stim.csv,READVersionA.csv,"Read Version A","Dissertation, read only version A",GEOLOGY,ROCK,Study1,F,19,29,Test,User,-,,Recall,Recall1,1552,,0,-1,-1,0,0,,1
5eea09b8178b96000c1102d9,jwln8rrl25,Nick_Dissertation_EX1,1,169,2020-07-08T15:01:10-07:00,3.343190908432,1,versionA_stim.csv,READVersionA.csv,"Read Version A","Dissertation, read only version A",KIDNEY,LIVER,Study1,S,53,74,Test,User,-,,Recall,Recall1,2779,LIVER,100,1671,2291,1,1,,1
5eea09b8178b96000c1102d9,jwln8rrl25,Nick_Dissertation_EX1,1,170,2020-07-08T15:01:15-07:00,4.8827111721039,1,versionA_stim.csv,READVersionA.csv,"Read Version A","Dissertation, read only version A",CLOTHES,ATTIRE,Study1,B,43,47,Test,User,-,,Recall,Recall1,4336,,0,-1,-1,0,0,,1
5eea09b8178b96000c1102d9,jwln8rrl25,Nick_Dissertation_EX1,1,171,2020-07-08T15:01:21-07:00,6.3931829929352,1,versionA_stim.csv,READVersionA.csv,"Read Version A","Dissertation, read only version A",BALL,RACKET,Study1,B,38,13,Test,User,-,,Recall,Recall1,5727,FOOT,20,5043,5387,0,0,,1
5eea09b8178b96000c1102d9,jwln8rrl25,Nick_Dissertation_EX1,1,172,2020-07-08T15:01:25-07:00,3.8190188407898,1,versionA_stim.csv,READVersionA.csv,"Read Version A","Dissertation, read only version A",DRINK,SIP,Study1,B,27,36,Test,User,-,,Recall,Recall1,3218,POP,33.333333333333,2590,2927,0,0,,1
5eea09b8178b96000c1102d9,jwln8rrl25,Nick_Dissertation_EX1,1,173,2020-07-08T15:01:28-07:00,2.7051441669464,1,versionA_stim.csv,READVersionA.csv,"Read Version A","Dissertation, read only version A",DEATH,BUSINESS,Study1,U,72,79,Test,User,-,,Recall,Recall1,2141,LIFE,33.333333333333,1403,1926,0,0,,1
5eea09b8178b96000c1102d9,jwln8rrl25,Nick_Dissertation_EX1,1,174,2020-07-08T15:01:33-07:00,5.1025569438934,1,versionA_stim.csv,READVersionA.csv,"Read Version A","Dissertation, read only version A",SENTENCE,WORD,Study1,B,31,86,Test,User,-,,Recall,Recall1,4644,WORDS,88.888888888889,3688,4348,0,1,,1
5eea09b8178b96000c1102d9,jwln8rrl25,Nick_Dissertation_EX1,1,175,2020-07-08T15:01:44-07:00,11.319138050079,1,versionA_stim.csv,READVersionA.csv,"Read Version A","Dissertation, read only version A",,,,,,0,Instruct,-,10,"You will now be presented with a new set of word pairs. Please study each pair. Remember that your memory will be tested! When finished, press Enter to move to the next pair.",Initial_Instruct,Instruct4,10662,,,-1,-1,,,,1
5eea09b8178b96000c1102d9,jwln8rrl25,Nick_Dissertation_EX1,1,176,2020-07-08T15:01:47-07:00,2.6371529102325,1,versionA_stim.csv,READVersionA.csv,"Read Version A","Dissertation, read only version A",ICE,FROZEN,BUFFER3,Buffer,94,93,Study,User,-,,Study/JOL,BUFFER3,2166,,,-1,-1,,,,1
5eea09b8178b96000c1102d9,jwln8rrl25,Nick_Dissertation_EX1,1,177,2020-07-08T15:01:48-07:00,1.246465921402,1,versionA_stim.csv,READVersionA.csv,"Read Version A","Dissertation, read only version A",CARROT,POTATO,BUFFER3,Buffer,91,94,Study,User,-,,Study/JOL,BUFFER3,780,,,-1,-1,,,,1
5eea09b8178b96000c1102d9,jwln8rrl25,Nick_Dissertation_EX1,1,178,2020-07-08T15:01:50-07:00,1.6053490638733,1,versionA_stim.csv,READVersionA.csv,"Read Version A","Dissertation, read only version A",SHRIMP,FISH,BUFFER3,Buffer,93,92,Study,User,-,,Study/JOL,BUFFER3,1124,,,-1,-1,,,,1
5eea09b8178b96000c1102d9,jwln8rrl25,Nick_Dissertation_EX1,1,179,2020-07-08T15:01:51-07:00,1.4315829277039,1,versionA_stim.csv,READVersionA.csv,"Read Version A","Dissertation, read only version A",CAMP,ADVENTURE,BUFFER3,Buffer,95,96,Study,User,-,,Study/JOL,BUFFER3,961,,,-1,-1,,,,1
5eea09b8178b96000c1102d9,jwln8rrl25,Nick_Dissertation_EX1,1,180,2020-07-08T15:01:53-07:00,1.427698135376,1,versionA_stim.csv,READVersionA.csv,"Read Version A","Dissertation, read only version A",NOODLE,STRING,BUFFER3,Buffer,92,95,Study,User,-,,Study/JOL,BUFFER3,829,,,-1,-1,,,,1
5eea09b8178b96000c1102d9,jwln8rrl25,Nick_Dissertation_EX1,1,181,2020-07-08T15:01:54-07:00,1.5714528560638,1,versionA_stim.csv,READVersionA.csv,"Read Version A","Dissertation, read only version A",EVEN,REVENGE,Study2,B,122,162,Study,User,-,,Study/JOL,"Study Phase2",1095,,,-1,-1,,,,1
5eea09b8178b96000c1102d9,jwln8rrl25,Nick_Dissertation_EX1,1,182,2020-07-08T15:01:56-07:00,1.4471151828766,1,versionA_stim.csv,READVersionA.csv,"Read Version A","Dissertation, read only version A",POP,BALLOON,Study2,B,123,170,Study,User,-,,Study/JOL,"Study Phase2",978,,,-1,-1,,,,1
5eea09b8178b96000c1102d9,jwln8rrl25,Nick_Dissertation_EX1,1,183,2020-07-08T15:01:57-07:00,1.6280219554901,1,versionA_stim.csv,READVersionA.csv,"Read Version A","Dissertation, read only version A",OWN,HAVE,Study2,S,153,140,Study,User,-,,Study/JOL,"Study Phase2",1006,,,-1,-1,,,,1
5eea09b8178b96000c1102d9,jwln8rrl25,Nick_Dissertation_EX1,1,184,2020-07-08T15:01:59-07:00,1.4866969585419,1,versionA_stim.csv,READVersionA.csv,"Read Version A","Dissertation, read only version A",ELEMENT,CARBON,Study2,S,141,102,Study,User,-,,Study/JOL,"Study Phase2",966,,,-1,-1,,,,1
5eea09b8178b96000c1102d9,jwln8rrl25,Nick_Dissertation_EX1,1,185,2020-07-08T15:02:01-07:00,2.2545359134674,1,versionA_stim.csv,READVersionA.csv,"Read Version A","Dissertation, read only version A",CAKE,CLOTHES,Study2,U,166,117,Study,User,-,,Study/JOL,"Study Phase2",773,,,-1,-1,,,,1
5eea09b8178b96000c1102d9,jwln8rrl25,Nick_Dissertation_EX1,1,186,2020-07-08T15:02:03-07:00,2.4675409793854,1,versionA_stim.csv,READVersionA.csv,"Read Version A","Dissertation, read only version A",CHOP,CUT,Study2,F,107,167,Study,User,-,,Study/JOL,"Study Phase2",985,,,-1,-1,,,,1
5eea09b8178b96000c1102d9,jwln8rrl25,Nick_Dissertation_EX1,1,187,2020-07-08T15:02:05-07:00,1.2980852127075,1,versionA_stim.csv,READVersionA.csv,"Read Version A","Dissertation, read only version A",FIGHT,BRAWL,Study2,B,135,142,Study,User,-,,Study/JOL,"Study Phase2",824,,,-1,-1,,,,1
5eea09b8178b96000c1102d9,jwln8rrl25,Nick_Dissertation_EX1,1,188,2020-07-08T15:02:06-07:00,1.3704688549042,1,versionA_stim.csv,READVersionA.csv,"Read Version A","Dissertation, read only version A",GONE,AWAY,Study2,S,142,135,Study,User,-,,Study/JOL,"Study Phase2",847,,,-1,-1,,,,1
5eea09b8178b96000c1102d9,jwln8rrl25,Nick_Dissertation_EX1,1,189,2020-07-08T15:02:08-07:00,1.4312520027161,1,versionA_stim.csv,READVersionA.csv,"Read Version A","Dissertation, read only version A",LOAN,SIGN,Study2,U,171,160,Study,User,-,,Study/JOL,"Study Phase2",855,,,-1,-1,,,,1
5eea09b8178b96000c1102d9,jwln8rrl25,Nick_Dissertation_EX1,1,190,2020-07-08T15:02:09-07:00,1.8789000511169,1,versionA_stim.csv,READVersionA.csv,"Read Version A","Dissertation, read only version A",Shell,SHAKE,Study2,U,163,157,Study,User,-,,Study/JOL,"Study Phase2",1360,,,-1,-1,,,,1
5eea09b8178b96000c1102d9,jwln8rrl25,Nick_Dissertation_EX1,1,191,2020-07-08T15:02:11-07:00,1.3887259960175,1,versionA_stim.csv,READVersionA.csv,"Read Version A","Dissertation, read only version A",PLANE,AIRCRAFT,Study2,B,129,122,Study,User,-,,Study/JOL,"Study Phase2",921,,,-1,-1,,,,1
5eea09b8178b96000c1102d9,jwln8rrl25,Nick_Dissertation_EX1,1,192,2020-07-08T15:02:12-07:00,1.3714330196381,1,versionA_stim.csv,READVersionA.csv,"Read Version A","Dissertation, read only version A",LEASE,TOIL,Study2,U,170,168,Study,User,-,,Study/JOL,"Study Phase2",820,,,-1,-1,,,,1
5eea09b8178b96000c1102d9,jwln8rrl25,Nick_Dissertation_EX1,1,193,2020-07-08T15:02:14-07:00,1.4974579811096,1,versionA_stim.csv,READVersionA.csv,"Read Version A","Dissertation, read only version A",GLASS,BREAKABLE,Study2,B,127,108,Study,User,-,,Study/JOL,"Study Phase2",1068,,,-1,-1,,,,1
5eea09b8178b96000c1102d9,jwln8rrl25,Nick_Dissertation_EX1,1,194,2020-07-08T15:02:15-07:00,1.4710969924927,1,versionA_stim.csv,READVersionA.csv,"Read Version A","Dissertation, read only version A",KEYS,JOKE,Study2,U,165,113,Study,User,-,,Study/JOL,"Study Phase2",999,,,-1,-1,,,,1
5eea09b8178b96000c1102d9,jwln8rrl25,Nick_Dissertation_EX1,1,195,2020-07-08T15:02:17-07:00,1.412003993988,1,versionA_stim.csv,READVersionA.csv,"Read Version A","Dissertation, read only version A",TURN,FLIP,Study2,B,116,150,Study,User,-,,Study/JOL,"Study Phase2",923,,,-1,-1,,,,1
5eea09b8178b96000c1102d9,jwln8rrl25,Nick_Dissertation_EX1,1,196,2020-07-08T15:02:18-07:00,1.4396810531616,1,versionA_stim.csv,READVersionA.csv,"Read Version A","Dissertation, read only version A",DRIVER,CAR,Study2,F,106,139,Study,User,-,,Study/JOL,"Study Phase2",838,,,-1,-1,,,,1
5eea09b8178b96000c1102d9,jwln8rrl25,Nick_Dissertation_EX1,1,197,2020-07-08T15:02:20-07:00,1.6034739017487,1,versionA_stim.csv,READVersionA.csv,"Read Version A","Dissertation, read only version A",STRETCH,CLOTH,Study2,U,157,165,Study,User,-,,Study/JOL,"Study Phase2",1181,,,-1,-1,,,,1
5eea09b8178b96000c1102d9,jwln8rrl25,Nick_Dissertation_EX1,1,198,2020-07-08T15:02:21-07:00,1.2752051353455,1,versionA_stim.csv,READVersionA.csv,"Read Version A","Dissertation, read only version A",MASON,JAR,Study2,S,138,163,Study,User,-,,Study/JOL,"Study Phase2",773,,,-1,-1,,,,1
5eea09b8178b96000c1102d9,jwln8rrl25,Nick_Dissertation_EX1,1,199,2020-07-08T15:02:22-07:00,0.98444700241089,1,versionA_stim.csv,READVersionA.csv,"Read Version A","Dissertation, read only version A",ROD,REEL,Study2,S,150,154,Study,User,-,,Study/JOL,"Study Phase2",490,,,-1,-1,,,,1
5eea09b8178b96000c1102d9,jwln8rrl25,Nick_Dissertation_EX1,1,200,2020-07-08T15:02:23-07:00,1.1497228145599,1,versionA_stim.csv,READVersionA.csv,"Read Version A","Dissertation, read only version A",MOAT,CLEAR,Study2,U,169,129,Study,User,-,,Study/JOL,"Study Phase2",638,,,-1,-1,,,,1
5eea09b8178b96000c1102d9,jwln8rrl25,Nick_Dissertation_EX1,1,201,2020-07-08T15:02:24-07:00,1.0558362007141,1,versionA_stim.csv,READVersionA.csv,"Read Version A","Dissertation, read only version A",SCALP,HEAD,Study2,F,105,120,Study,User,-,,Study/JOL,"Study Phase2",565,,,-1,-1,,,,1
5eea09b8178b96000c1102d9,jwln8rrl25,Nick_Dissertation_EX1,1,202,2020-07-08T15:02:25-07:00,1.2816050052643,1,versionA_stim.csv,READVersionA.csv,"Read Version A","Dissertation, read only version A",SLEEP,NAP,Study2,B,134,146,Study,User,-,,Study/JOL,"Study Phase2",873,,,-1,-1,,,,1
5eea09b8178b96000c1102d9,jwln8rrl25,Nick_Dissertation_EX1,1,203,2020-07-08T15:02:27-07:00,1.4821288585663,1,versionA_stim.csv,READVersionA.csv,"Read Version A","Dissertation, read only version A",HONEST,TRUTHFUL,Study2,B,133,132,Study,User,-,,Study/JOL,"Study Phase2",1026,,,-1,-1,,,,1
5eea09b8178b96000c1102d9,jwln8rrl25,Nick_Dissertation_EX1,1,204,2020-07-08T15:02:28-07:00,1.4855959415436,1,versionA_stim.csv,READVersionA.csv,"Read Version A","Dissertation, read only version A",DOCUMENT,PAPER,Study2,F,109,131,Study,User,-,,Study/JOL,"Study Phase2",863,,,-1,-1,,,,1
5eea09b8178b96000c1102d9,jwln8rrl25,Nick_Dissertation_EX1,1,205,2020-07-08T15:02:29-07:00,1.2143840789795,1,versionA_stim.csv,READVersionA.csv,"Read Version A","Dissertation, read only version A",MAZE,ELECTION,Study2,U,159,151,Study,User,-,,Study/JOL,"Study Phase2",812,,,-1,-1,,,,1
5eea09b8178b96000c1102d9,jwln8rrl25,Nick_Dissertation_EX1,1,206,2020-07-08T15:02:31-07:00,1.3420901298523,1,versionA_stim.csv,READVersionA.csv,"Read Version A","Dissertation, read only version A",CANDLE,WAX,Study2,S,139,149,Study,User,-,,Study/JOL,"Study Phase2",903,,,-1,-1,,,,1
5eea09b8178b96000c1102d9,jwln8rrl25,Nick_Dissertation_EX1,1,207,2020-07-08T15:02:32-07:00,1.1873559951782,1,versionA_stim.csv,READVersionA.csv,"Read Version A","Dissertation, read only version A",STAR,ACTRESS,Study2,B,120,126,Study,User,-,,Study/JOL,"Study Phase2",771,,,-1,-1,,,,1
5eea09b8178b96000c1102d9,jwln8rrl25,Nick_Dissertation_EX1,1,208,2020-07-08T15:02:33-07:00,1.4294378757477,1,versionA_stim.csv,READVersionA.csv,"Read Version A","Dissertation, read only version A",ADJOURN,END,Study2,F,101,118,Study,User,-,,Study/JOL,"Study Phase2",967,,,-1,-1,,,,1
5eea09b8178b96000c1102d9,jwln8rrl25,Nick_Dissertation_EX1,1,209,2020-07-08T15:02:36-07:00,2.1460449695587,1,versionA_stim.csv,READVersionA.csv,"Read Version A","Dissertation, read only version A",PHONE,COMMUNICATION,Study2,S,149,123,Study,User,-,,Study/JOL,"Study Phase2",1655,,,-1,-1,,,,1
5eea09b8178b96000c1102d9,jwln8rrl25,Nick_Dissertation_EX1,1,210,2020-07-08T15:02:37-07:00,1.6031589508057,1,versionA_stim.csv,READVersionA.csv,"Read Version A","Dissertation, read only version A",MULE,DONKEY,Study2,F,108,159,Study,User,-,,Study/JOL,"Study Phase2",1023,,,-1,-1,,,,1
5eea09b8178b96000c1102d9,jwln8rrl25,Nick_Dissertation_EX1,1,211,2020-07-08T15:02:38-07:00,1.108903169632,1,versionA_stim.csv,READVersionA.csv,"Read Version A","Dissertation, read only version A",LISTEN,FICTION,Study2,U,164,111,Study,User,-,,Study/JOL,"Study Phase2",625,,,-1,-1,,,,1
5eea09b8178b96000c1102d9,jwln8rrl25,Nick_Dissertation_EX1,1,212,2020-07-08T15:02:39-07:00,1.0120370388031,1,versionA_stim.csv,READVersionA.csv,"Read Version A","Dissertation, read only version A",THREAD,THIMBLE,Study2,B,121,143,Study,User,-,,Study/JOL,"Study Phase2",536,,,-1,-1,,,,1
5eea09b8178b96000c1102d9,jwln8rrl25,Nick_Dissertation_EX1,1,213,2020-07-08T15:02:40-07:00,1.0526068210602,1,versionA_stim.csv,READVersionA.csv,"Read Version A","Dissertation, read only version A",LITTER,TRASH,Study2,F,103,97,Study,User,-,,Study/JOL,"Study Phase2",538,,,-1,-1,,,,1
5eea09b8178b96000c1102d9,jwln8rrl25,Nick_Dissertation_EX1,1,214,2020-07-08T15:02:41-07:00,1.0425181388855,1,versionA_stim.csv,READVersionA.csv,"Read Version A","Dissertation, read only version A",INCENSE,SMELL,Study2,F,110,124,Study,User,-,,Study/JOL,"Study Phase2",534,,,-1,-1,,,,1
5eea09b8178b96000c1102d9,jwln8rrl25,Nick_Dissertation_EX1,1,215,2020-07-08T15:02:42-07:00,0.98777198791504,1,versionA_stim.csv,READVersionA.csv,"Read Version A","Dissertation, read only version A",FISH,SARDINE,Study2,B,130,127,Study,User,-,,Study/JOL,"Study Phase2",515,,,-1,-1,,,,1
5eea09b8178b96000c1102d9,jwln8rrl25,Nick_Dissertation_EX1,1,216,2020-07-08T15:02:43-07:00,1.0349199771881,1,versionA_stim.csv,READVersionA.csv,"Read Version A","Dissertation, read only version A",SUN,TAN,Study2,S,155,174,Study,User,-,,Study/JOL,"Study Phase2",525,,,-1,-1,,,,1
5eea09b8178b96000c1102d9,jwln8rrl25,Nick_Dissertation_EX1,1,217,2020-07-08T15:02:45-07:00,1.2637388706207,1,versionA_stim.csv,READVersionA.csv,"Read Version A","Dissertation, read only version A",MAIN,SCAR,Study2,U,175,112,Study,User,-,,Study/JOL,"Study Phase2",816,,,-1,-1,,,,1
5eea09b8178b96000c1102d9,jwln8rrl25,Nick_Dissertation_EX1,1,218,2020-07-08T15:02:46-07:00,1.5669500827789,1,versionA_stim.csv,READVersionA.csv,"Read Version A","Dissertation, read only version A",MONEY,BANKER,Study2,B,132,141,Study,User,-,,Study/JOL,"Study Phase2",1080,,,-1,-1,,,,1
5eea09b8178b96000c1102d9,jwln8rrl25,Nick_Dissertation_EX1,1,219,2020-07-08T15:02:47-07:00,1.1360409259796,1,versionA_stim.csv,READVersionA.csv,"Read Version A","Dissertation, read only version A",BAD,VILLAIN,Study2,B,118,176,Study,User,-,,Study/JOL,"Study Phase2",548,,,-1,-1,,,,1
5eea09b8178b96000c1102d9,jwln8rrl25,Nick_Dissertation_EX1,1,220,2020-07-08T15:02:49-07:00,1.294862985611,1,versionA_stim.csv,READVersionA.csv,"Read Version A","Dissertation, read only version A",BASEBALL,LEAGUE,Study2,B,131,173,Study,User,-,,Study/JOL,"Study Phase2",842,,,-1,-1,,,,1
5eea09b8178b96000c1102d9,jwln8rrl25,Nick_Dissertation_EX1,1,221,2020-07-08T15:02:50-07:00,1.3139111995697,1,versionA_stim.csv,READVersionA.csv,"Read Version A","Dissertation, read only version A",SHOELACE,TIE,Study2,F,99,137,Study,User,-,,Study/JOL,"Study Phase2",849,,,-1,-1,,,,1
5eea09b8178b96000c1102d9,jwln8rrl25,Nick_Dissertation_EX1,1,222,2020-07-08T15:02:51-07:00,1.4412019252777,1,versionA_stim.csv,READVersionA.csv,"Read Version A","Dissertation, read only version A",FRUIT,STRAWBERRY,Study2,B,124,103,Study,User,-,,Study/JOL,"Study Phase2",948,,,-1,-1,,,,1
5eea09b8178b96000c1102d9,jwln8rrl25,Nick_Dissertation_EX1,1,223,2020-07-08T15:02:53-07:00,1.5282280445099,1,versionA_stim.csv,READVersionA.csv,"Read Version A","Dissertation, read only version A",ALONE,LONELY,Study2,S,145,115,Study,User,-,,Study/JOL,"Study Phase2",1088,,,-1,-1,,,,1
5eea09b8178b96000c1102d9,jwln8rrl25,Nick_Dissertation_EX1,1,224,2020-07-08T15:02:54-07:00,1.3608019351959,1,versionA_stim.csv,READVersionA.csv,"Read Version A","Dissertation, read only version A",DRY,WET,Study2,S,146,152,Study,User,-,,Study/JOL,"Study Phase2",887,,,-1,-1,,,,1
5eea09b8178b96000c1102d9,jwln8rrl25,Nick_Dissertation_EX1,1,225,2020-07-08T15:02:56-07:00,1.727217912674,1,versionA_stim.csv,READVersionA.csv,"Read Version A","Dissertation, read only version A",SAFETY,SEATBELT,Study2,S,147,100,Study,User,-,,Study/JOL,"Study Phase2",1254,,,-1,-1,,,,1
5eea09b8178b96000c1102d9,jwln8rrl25,Nick_Dissertation_EX1,1,226,2020-07-08T15:02:58-07:00,1.5245311260223,1,versionA_stim.csv,READVersionA.csv,"Read Version A","Dissertation, read only version A",MEAT,OBTAIN,Study2,U,161,158,Study,User,-,,Study/JOL,"Study Phase2",898,,,-1,-1,,,,1
5eea09b8178b96000c1102d9,jwln8rrl25,Nick_Dissertation_EX1,1,227,2020-07-08T15:03:00-07:00,2.3769578933716,1,versionA_stim.csv,READVersionA.csv,"Read Version A","Dissertation, read only version A",NAME,HATE,Study2,U,167,145,Study,User,-,,Study/JOL,"Study Phase2",914,,,-1,-1,,,,1
5eea09b8178b96000c1102d9,jwln8rrl25,Nick_Dissertation_EX1,1,228,2020-07-08T15:03:02-07:00,2.4031181335449,1,versionA_stim.csv,READVersionA.csv,"Read Version A","Dissertation, read only version A",BIRD,PENGUIN,Study2,B,119,119,Study,User,-,,Study/JOL,"Study Phase2",1901,,,-1,-1,,,,1
5eea09b8178b96000c1102d9,jwln8rrl25,Nick_Dissertation_EX1,1,229,2020-07-08T15:03:04-07:00,1.1799659729004,1,versionA_stim.csv,READVersionA.csv,"Read Version A","Dissertation, read only version A",DEAD,COFFIN,Study2,B,128,98,Study,User,-,,Study/JOL,"Study Phase2",725,,,-1,-1,,,,1
5eea09b8178b96000c1102d9,jwln8rrl25,Nick_Dissertation_EX1,1,230,2020-07-08T15:03:05-07:00,1.2782258987427,1,versionA_stim.csv,READVersionA.csv,"Read Version A","Dissertation, read only version A",CHERRY,RED,Study2,F,104,125,Study,User,-,,Study/JOL,"Study Phase2",816,,,-1,-1,,,,1
5eea09b8178b96000c1102d9,jwln8rrl25,Nick_Dissertation_EX1,1,231,2020-07-08T15:03:06-07:00,1.2389400005341,1,versionA_stim.csv,READVersionA.csv,"Read Version A","Dissertation, read only version A",FURRY,DOG,Study2,F,102,155,Study,User,-,,Study/JOL,"Study Phase2",772,,,-1,-1,,,,1
5eea09b8178b96000c1102d9,jwln8rrl25,Nick_Dissertation_EX1,1,232,2020-07-08T15:03:08-07:00,1.9102280139923,1,versionA_stim.csv,READVersionA.csv,"Read Version A","Dissertation, read only version A",RAZOR,SHAVE,Study2,S,136,169,Study,User,-,,Study/JOL,"Study Phase2",1337,,,-1,-1,,,,1
5eea09b8178b96000c1102d9,jwln8rrl25,Nick_Dissertation_EX1,1,233,2020-07-08T15:03:10-07:00,2.3234081268311,1,versionA_stim.csv,READVersionA.csv,"Read Version A","Dissertation, read only version A",CLUE,GAME,Study2,F,97,110,Study,User,-,,Study/JOL,"Study Phase2",1859,,,-1,-1,,,,1
5eea09b8178b96000c1102d9,jwln8rrl25,Nick_Dissertation_EX1,1,234,2020-07-08T15:03:12-07:00,1.2675788402557,1,versionA_stim.csv,READVersionA.csv,"Read Version A","Dissertation, read only version A",JUSTICE,MAROON,Study2,U,156,175,Study,User,-,,Study/JOL,"Study Phase2",821,,,-1,-1,,,,1
5eea09b8178b96000c1102d9,jwln8rrl25,Nick_Dissertation_EX1,1,235,2020-07-08T15:03:13-07:00,1.0801961421967,1,versionA_stim.csv,READVersionA.csv,"Read Version A","Dissertation, read only version A",FUZZY,BANG,Study2,U,168,105,Study,User,-,,Study/JOL,"Study Phase2",548,,,-1,-1,,,,1
5eea09b8178b96000c1102d9,jwln8rrl25,Nick_Dissertation_EX1,1,236,2020-07-08T15:03:14-07:00,1.3122999668121,1,versionA_stim.csv,READVersionA.csv,"Read Version A","Dissertation, read only version A",CAR,WINDSHIELD,Study2,B,117,166,Study,User,-,,Study/JOL,"Study Phase2",800,,,-1,-1,,,,1
5eea09b8178b96000c1102d9,jwln8rrl25,Nick_Dissertation_EX1,1,237,2020-07-08T15:03:15-07:00,1.3546359539032,1,versionA_stim.csv,READVersionA.csv,"Read Version A","Dissertation, read only version A",EXTENSION,LONG,Study2,F,96,130,Study,User,-,,Study/JOL,"Study Phase2",892,,,-1,-1,,,,1
5eea09b8178b96000c1102d9,jwln8rrl25,Nick_Dissertation_EX1,1,238,2020-07-08T15:03:17-07:00,1.2614109516144,1,versionA_stim.csv,READVersionA.csv,"Read Version A","Dissertation, read only version A",FLEA,TICK,Study2,S,151,99,Study,User,-,,Study/JOL,"Study Phase2",780,,,-1,-1,,,,1
5eea09b8178b96000c1102d9,jwln8rrl25,Nick_Dissertation_EX1,1,239,2020-07-08T15:03:18-07:00,1.3918781280518,1,versionA_stim.csv,READVersionA.csv,"Read Version A","Dissertation, read only version A",SHEARS,SCISSORS,Study2,F,112,114,Study,User,-,,Study/JOL,"Study Phase2",871,,,-1,-1,,,,1
5eea09b8178b96000c1102d9,jwln8rrl25,Nick_Dissertation_EX1,1,240,2020-07-08T15:03:20-07:00,1.6102049350739,1,versionA_stim.csv,READVersionA.csv,"Read Version A","Dissertation, read only version A",AFFECTION,LOVE,Study2,F,115,171,Study,User,-,,Study/JOL,"Study Phase2",1090,,,-1,-1,,,,1
5eea09b8178b96000c1102d9,jwln8rrl25,Nick_Dissertation_EX1,1,241,2020-07-08T15:03:21-07:00,1.1625030040741,1,versionA_stim.csv,READVersionA.csv,"Read Version A","Dissertation, read only version A",WATER,DRINK,Study2,S,143,161,Study,User,-,,Study/JOL,"Study Phase2",720,,,-1,-1,,,,1
5eea09b8178b96000c1102d9,jwln8rrl25,Nick_Dissertation_EX1,1,242,2020-07-08T15:03:22-07:00,1.3062679767609,1,versionA_stim.csv,READVersionA.csv,"Read Version A","Dissertation, read only version A",VEHICLE,CHARM,Study2,U,160,138,Study,User,-,,Study/JOL,"Study Phase2",826,,,-1,-1,,,,1
5eea09b8178b96000c1102d9,jwln8rrl25,Nick_Dissertation_EX1,1,243,2020-07-08T15:03:24-07:00,1.5750911235809,1,versionA_stim.csv,READVersionA.csv,"Read Version A","Dissertation, read only version A",DETECTIVE,MYSTERY,Study2,F,100,109,Study,User,-,,Study/JOL,"Study Phase2",1124,,,-1,-1,,,,1
5eea09b8178b96000c1102d9,jwln8rrl25,Nick_Dissertation_EX1,1,244,2020-07-08T15:03:25-07:00,1.0345828533173,1,versionA_stim.csv,READVersionA.csv,"Read Version A","Dissertation, read only version A",WRIST,BRACELET,Study2,S,140,134,Study,User,-,,Study/JOL,"Study Phase2",562,,,-1,-1,,,,1
5eea09b8178b96000c1102d9,jwln8rrl25,Nick_Dissertation_EX1,1,245,2020-07-08T15:03:26-07:00,1.2773990631104,1,versionA_stim.csv,READVersionA.csv,"Read Version A","Dissertation, read only version A",TRUTH,LIE,Study2,S,148,121,Study,User,-,,Study/JOL,"Study Phase2",708,,,-1,-1,,,,1
5eea09b8178b96000c1102d9,jwln8rrl25,Nick_Dissertation_EX1,1,246,2020-07-08T15:03:28-07:00,2.0617499351501,1,versionA_stim.csv,READVersionA.csv,"Read Version A","Dissertation, read only version A",BEST,FAVORITE,Study2,B,125,147,Study,User,-,,Study/JOL,"Study Phase2",1464,,,-1,-1,,,,1
5eea09b8178b96000c1102d9,jwln8rrl25,Nick_Dissertation_EX1,1,247,2020-07-08T15:03:29-07:00,1.3216159343719,1,versionA_stim.csv,READVersionA.csv,"Read Version A","Dissertation, read only version A",MIRROR,CHILDREN,Study2,U,174,153,Study,User,-,,Study/JOL,"Study Phase2",856,,,-1,-1,,,,1
5eea09b8178b96000c1102d9,jwln8rrl25,Nick_Dissertation_EX1,1,248,2020-07-08T15:03:30-07:00,1.0191190242767,1,versionA_stim.csv,READVersionA.csv,"Read Version A","Dissertation, read only version A",FEUD,FIGHT,Study2,F,113,107,Study,User,-,,Study/JOL,"Study Phase2",608,,,-1,-1,,,,1
5eea09b8178b96000c1102d9,jwln8rrl25,Nick_Dissertation_EX1,1,249,2020-07-08T15:03:32-07:00,1.9245991706848,1,versionA_stim.csv,READVersionA.csv,"Read Version A","Dissertation, read only version A",CAT,PANTHER,Study2,B,126,104,Study,User,-,,Study/JOL,"Study Phase2",1483,,,-1,-1,,,,1
5eea09b8178b96000c1102d9,jwln8rrl25,Nick_Dissertation_EX1,1,250,2020-07-08T15:03:33-07:00,1.1256499290466,1,versionA_stim.csv,READVersionA.csv,"Read Version A","Dissertation, read only version A",CHILL,COLD,Study2,F,114,128,Study,User,-,,Study/JOL,"Study Phase2",653,,,-1,-1,,,,1
5eea09b8178b96000c1102d9,jwln8rrl25,Nick_Dissertation_EX1,1,251,2020-07-08T15:03:35-07:00,1.1439769268036,1,versionA_stim.csv,READVersionA.csv,"Read Version A","Dissertation, read only version A",CRACKLE,ABLE,Study2,U,162,156,Study,User,-,,Study/JOL,"Study Phase2",655,,,-1,-1,,,,1
5eea09b8178b96000c1102d9,jwln8rrl25,Nick_Dissertation_EX1,1,252,2020-07-08T15:03:36-07:00,1.2558481693268,1,versionA_stim.csv,READVersionA.csv,"Read Version A","Dissertation, read only version A",EARTH,GROUND,Study2,S,144,116,Study,User,-,,Study/JOL,"Study Phase2",797,,,-1,-1,,,,1
5eea09b8178b96000c1102d9,jwln8rrl25,Nick_Dissertation_EX1,1,253,2020-07-08T15:03:37-07:00,1.1162929534912,1,versionA_stim.csv,READVersionA.csv,"Read Version A","Dissertation, read only version A",CACTUS,PLANT,Study2,F,98,101,Study,User,-,,Study/JOL,"Study Phase2",657,,,-1,-1,,,,1
5eea09b8178b96000c1102d9,jwln8rrl25,Nick_Dissertation_EX1,1,254,2020-07-08T15:03:38-07:00,1.2380800247192,1,versionA_stim.csv,READVersionA.csv,"Read Version A","Dissertation, read only version A",RIGHTS,EQUAL,Study2,S,137,136,Study,User,-,,Study/JOL,"Study Phase2",745,,,-1,-1,,,,1
5eea09b8178b96000c1102d9,jwln8rrl25,Nick_Dissertation_EX1,1,255,2020-07-08T15:03:40-07:00,1.4494090080261,1,versionA_stim.csv,READVersionA.csv,"Read Version A","Dissertation, read only version A",TANTRUM,TEMPER,Study2,S,154,148,Study,User,-,,Study/JOL,"Study Phase2",1001,,,-1,-1,,,,1
5eea09b8178b96000c1102d9,jwln8rrl25,Nick_Dissertation_EX1,1,256,2020-07-08T15:03:41-07:00,1.201210975647,1,versionA_stim.csv,READVersionA.csv,"Read Version A","Dissertation, read only version A",DINE,EAT,Study2,F,111,144,Study,User,-,,Study/JOL,"Study Phase2",714,,,-1,-1,,,,1
5eea09b8178b96000c1102d9,jwln8rrl25,Nick_Dissertation_EX1,1,257,2020-07-08T15:03:42-07:00,1.6467838287354,1,versionA_stim.csv,READVersionA.csv,"Read Version A","Dissertation, read only version A",TEMPERATURE,Morning,Study2,U,173,164,Study,User,-,,Study/JOL,"Study Phase2",1177,,,-1,-1,,,,1
5eea09b8178b96000c1102d9,jwln8rrl25,Nick_Dissertation_EX1,1,258,2020-07-08T15:03:44-07:00,1.423730134964,1,versionA_stim.csv,READVersionA.csv,"Read Version A","Dissertation, read only version A",LOUD,NOISE,Study2,S,152,133,Study,User,-,,Study/JOL,"Study Phase2",952,,,-1,-1,,,,1
5eea09b8178b96000c1102d9,jwln8rrl25,Nick_Dissertation_EX1,1,259,2020-07-08T15:03:45-07:00,1.5749819278717,1,versionA_stim.csv,READVersionA.csv,"Read Version A","Dissertation, read only version A",GIVE,STEAK,Study2,U,158,106,Study,User,-,,Study/JOL,"Study Phase2",1079,,,-1,-1,,,,1
5eea09b8178b96000c1102d9,jwln8rrl25,Nick_Dissertation_EX1,1,260,2020-07-08T15:03:47-07:00,1.2213749885559,1,versionA_stim.csv,READVersionA.csv,"Read Version A","Dissertation, read only version A",BOTH,OUNCE,Study2,U,172,172,Study,User,-,,Study/JOL,"Study Phase2",740,,,-1,-1,,,,1
5eea09b8178b96000c1102d9,jwln8rrl25,Nick_Dissertation_EX1,1,261,2020-07-08T15:03:48-07:00,1.3900330066681,1,versionA_stim.csv,READVersionA.csv,"Read Version A","Dissertation, read only version A",SPRING,MARCH,BUFFER4,Buffer,179,179,Study,User,-,,Study/JOL,BUFFER4,847,,,-1,-1,,,,1
5eea09b8178b96000c1102d9,jwln8rrl25,Nick_Dissertation_EX1,1,262,2020-07-08T15:03:50-07:00,2.2391800880432,1,versionA_stim.csv,READVersionA.csv,"Read Version A","Dissertation, read only version A",OCTOBER,SPOOKY,BUFFER4,Buffer,180,178,Study,User,-,,Study/JOL,BUFFER4,762,,,-1,-1,,,,1
5eea09b8178b96000c1102d9,jwln8rrl25,Nick_Dissertation_EX1,1,263,2020-07-08T15:03:52-07:00,1.2487020492554,1,versionA_stim.csv,READVersionA.csv,"Read Version A","Dissertation, read only version A",DAYS,WEAKS,BUFFER4,Buffer,176,180,Study,User,-,,Study/JOL,BUFFER4,784,,,-1,-1,,,,1
5eea09b8178b96000c1102d9,jwln8rrl25,Nick_Dissertation_EX1,1,264,2020-07-08T15:03:53-07:00,1.6080529689789,1,versionA_stim.csv,READVersionA.csv,"Read Version A","Dissertation, read only version A",TOOL,SHED,BUFFER4,Buffer,178,177,Study,User,-,,Study/JOL,BUFFER4,1113,,,-1,-1,,,,1
5eea09b8178b96000c1102d9,jwln8rrl25,Nick_Dissertation_EX1,1,265,2020-07-08T15:03:55-07:00,1.476646900177,1,versionA_stim.csv,READVersionA.csv,"Read Version A","Dissertation, read only version A",MONTH,YEAR,BUFFER4,Buffer,177,181,Study,User,-,,Study/JOL,BUFFER4,1004,,,-1,-1,,,,1
5eea09b8178b96000c1102d9,jwln8rrl25,Nick_Dissertation_EX1,1,266,2020-07-08T15:03:57-07:00,2.8071799278259,1,versionA_stim.csv,READVersionA.csv,"Read Version A","Dissertation, read only version A",,,,,,0,Instruct,User,-,"You have completed this section. Please press Enter.",Filler_Instruction,Instruct5,2225,,,-1,-1,,,,1
5eea09b8178b96000c1102d9,jwln8rrl25,Nick_Dissertation_EX1,1,267,2020-07-08T15:05:58-07:00,120.60221815109,1,versionA_stim.csv,READVersionA.csv,"Read Version A","Dissertation, read only version A",,,,,,0,FreeRecall,120,120,"Please list the 50 US states in reverse alphabetical order (z - a). The task will automatically advance to the next screen after two minutes.",,Filler2,120003,"I am not from America so I am struggling to even name them let alone backwards, New York, New Jersey, Mississipi, Massachusetts, Hawaii, Florida, Indiana ",0,8234,93558,0,0,,1
5eea09b8178b96000c1102d9,jwln8rrl25,Nick_Dissertation_EX1,1,268,2020-07-08T15:06:10-07:00,11.5853099823,1,versionA_stim.csv,READVersionA.csv,"Read Version A","Dissertation, read only version A",,,,,,0,Instruct,-,10,"You will now be presented with the first word from each of the previously studied item pairs. Please type the missing word. If you do not know the word, you may guess or press Enter to skip forward to the next pair.",,Instruct6,10995,,,-1,-1,,,,1
5eea09b8178b96000c1102d9,jwln8rrl25,Nick_Dissertation_EX1,1,269,2020-07-08T15:06:18-07:00,8.109030008316,1,versionA_stim.csv,READVersionA.csv,"Read Version A","Dissertation, read only version A",MEAT,OBTAIN,Study2,U,161,158,Test,User,-,,Recall,Recall2,7505,COW,22.222222222222,6898,7208,0,0,,1
5eea09b8178b96000c1102d9,jwln8rrl25,Nick_Dissertation_EX1,1,270,2020-07-08T15:06:22-07:00,4.3241710662842,1,versionA_stim.csv,READVersionA.csv,"Read Version A","Dissertation, read only version A",STAR,ACTRESS,Study2,B,120,126,Test,User,-,,Recall,Recall2,3860,ACTRESS,100,1970,3682,1,1,,1
5eea09b8178b96000c1102d9,jwln8rrl25,Nick_Dissertation_EX1,1,271,2020-07-08T15:06:25-07:00,3.4093718528748,1,versionA_stim.csv,READVersionA.csv,"Read Version A","Dissertation, read only version A",TEMPERATURE,Morning,Study2,U,173,164,Test,User,-,,Recall,Recall2,2924,COLD,18.181818181818,2249,2683,0,0,,1
5eea09b8178b96000c1102d9,jwln8rrl25,Nick_Dissertation_EX1,1,272,2020-07-08T15:06:28-07:00,2.8585109710693,1,versionA_stim.csv,READVersionA.csv,"Read Version A","Dissertation, read only version A",DOCUMENT,PAPER,Study2,F,109,131,Test,User,-,,Recall,Recall2,2284,PAPER,100,1302,2086,1,1,,1
5eea09b8178b96000c1102d9,jwln8rrl25,Nick_Dissertation_EX1,1,273,2020-07-08T15:06:31-07:00,2.3768301010132,1,versionA_stim.csv,READVersionA.csv,"Read Version A","Dissertation, read only version A",OWN,HAVE,Study2,S,153,140,Test,User,-,,Recall,Recall2,1931,,0,-1,-1,0,0,,1
5eea09b8178b96000c1102d9,jwln8rrl25,Nick_Dissertation_EX1,1,274,2020-07-08T15:06:33-07:00,2.4476790428162,1,versionA_stim.csv,READVersionA.csv,"Read Version A","Dissertation, read only version A",FEUD,FIGHT,Study2,F,113,107,Test,User,-,,Recall,Recall2,1942,FIGHT,100,1201,1672,1,1,,1
5eea09b8178b96000c1102d9,jwln8rrl25,Nick_Dissertation_EX1,1,275,2020-07-08T15:06:38-07:00,4.9247808456421,1,versionA_stim.csv,READVersionA.csv,"Read Version A","Dissertation, read only version A",ELEMENT,CARBON,Study2,S,141,102,Test,User,-,,Recall,Recall2,4302,GOLD,20,3327,4120,0,0,,1
5eea09b8178b96000c1102d9,jwln8rrl25,Nick_Dissertation_EX1,1,276,2020-07-08T15:06:43-07:00,5.2282471656799,1,versionA_stim.csv,READVersionA.csv,"Read Version A","Dissertation, read only version A",CAT,PANTHER,Study2,B,126,104,Test,User,-,,Recall,Recall2,4719,,0,-1,-1,0,0,,1
5eea09b8178b96000c1102d9,jwln8rrl25,Nick_Dissertation_EX1,1,277,2020-07-08T15:06:46-07:00,2.3583748340607,1,versionA_stim.csv,READVersionA.csv,"Read Version A","Dissertation, read only version A",EVEN,REVENGE,Study2,B,122,162,Test,User,-,,Recall,Recall2,1712,ODD,0,1236,1571,0,0,,1
5eea09b8178b96000c1102d9,jwln8rrl25,Nick_Dissertation_EX1,1,278,2020-07-08T15:06:54-07:00,8.1465561389923,1,versionA_stim.csv,READVersionA.csv,"Read Version A","Dissertation, read only version A",MIRROR,CHILDREN,Study2,U,174,153,Test,User,-,,Recall,Recall2,7181,COPY,16.666666666667,5999,6750,0,0,,1
5eea09b8178b96000c1102d9,jwln8rrl25,Nick_Dissertation_EX1,1,279,2020-07-08T15:06:59-07:00,5.3216128349304,1,versionA_stim.csv,READVersionA.csv,"Read Version A","Dissertation, read only version A",ADJOURN,END,Study2,F,101,118,Test,User,-,,Recall,Recall2,4749,GOODBYE,20,1941,3632,0,0,,1
5eea09b8178b96000c1102d9,jwln8rrl25,Nick_Dissertation_EX1,1,280,2020-07-08T15:07:04-07:00,4.4815001487732,1,versionA_stim.csv,READVersionA.csv,"Read Version A","Dissertation, read only version A",SHEARS,SCISSORS,Study2,F,112,114,Test,User,-,,Recall,Recall2,3981,SCISSORS,100,1395,3812,1,1,,1
5eea09b8178b96000c1102d9,jwln8rrl25,Nick_Dissertation_EX1,1,281,2020-07-08T15:07:07-07:00,3.8039898872375,1,versionA_stim.csv,READVersionA.csv,"Read Version A","Dissertation, read only version A",NAME,HATE,Study2,U,167,145,Test,User,-,,Recall,Recall2,3208,,0,-1,-1,0,0,,1
5eea09b8178b96000c1102d9,jwln8rrl25,Nick_Dissertation_EX1,1,282,2020-07-08T15:07:10-07:00,2.5544781684875,1,versionA_stim.csv,READVersionA.csv,"Read Version A","Dissertation, read only version A",JUSTICE,MAROON,Study2,U,156,175,Test,User,-,,Recall,Recall2,1994,LAW,22.222222222222,1306,1648,0,0,,1
5eea09b8178b96000c1102d9,jwln8rrl25,Nick_Dissertation_EX1,1,283,2020-07-08T15:07:14-07:00,4.454931974411,1,versionA_stim.csv,READVersionA.csv,"Read Version A","Dissertation, read only version A",BASEBALL,LEAGUE,Study2,B,131,173,Test,User,-,,Recall,Recall2,3958,CARD,20,1931,3031,0,0,,1
5eea09b8178b96000c1102d9,jwln8rrl25,Nick_Dissertation_EX1,1,284,2020-07-08T15:07:19-07:00,4.7753999233246,1,versionA_stim.csv,READVersionA.csv,"Read Version A","Dissertation, read only version A",FRUIT,STRAWBERRY,Study2,B,124,103,Test,User,-,,Recall,Recall2,4174,STRAWBERRY,100,1206,3799,1,1,,1
5eea09b8178b96000c1102d9,jwln8rrl25,Nick_Dissertation_EX1,1,285,2020-07-08T15:07:24-07:00,4.3704590797424,1,versionA_stim.csv,READVersionA.csv,"Read Version A","Dissertation, read only version A",THREAD,THIMBLE,Study2,B,121,143,Test,User,-,,Recall,Recall2,3865,PULL,18.181818181818,2603,3458,0,0,,1
5eea09b8178b96000c1102d9,jwln8rrl25,Nick_Dissertation_EX1,1,286,2020-07-08T15:07:26-07:00,2.4046800136566,1,versionA_stim.csv,READVersionA.csv,"Read Version A","Dissertation, read only version A",SUN,TAN,Study2,S,155,174,Test,User,-,,Recall,Recall2,1736,,0,-1,-1,0,0,,1
5eea09b8178b96000c1102d9,jwln8rrl25,Nick_Dissertation_EX1,1,287,2020-07-08T15:07:32-07:00,6.3530030250549,1,versionA_stim.csv,READVersionA.csv,"Read Version A","Dissertation, read only version A",LOUD,NOISE,Study2,S,152,133,Test,User,-,,Recall,Recall2,5686,SPEAKER,33.333333333333,1706,5503,0,0,,1
5eea09b8178b96000c1102d9,jwln8rrl25,Nick_Dissertation_EX1,1,288,2020-07-08T15:07:36-07:00,3.7037169933319,1,versionA_stim.csv,READVersionA.csv,"Read Version A","Dissertation, read only version A",DRY,WET,Study2,S,146,152,Test,User,-,,Recall,Recall2,2929,WET,100,2167,2532,1,1,,1
5eea09b8178b96000c1102d9,jwln8rrl25,Nick_Dissertation_EX1,1,289,2020-07-08T15:07:43-07:00,6.7006628513336,1,versionA_stim.csv,READVersionA.csv,"Read Version A","Dissertation, read only version A",EARTH,GROUND,Study2,S,144,116,Test,User,-,,Recall,Recall2,6006,LOVe,20,5315,5789,0,0,,1
5eea09b8178b96000c1102d9,jwln8rrl25,Nick_Dissertation_EX1,1,290,2020-07-08T15:07:46-07:00,3.734787940979,1,versionA_stim.csv,READVersionA.csv,"Read Version A","Dissertation, read only version A",GIVE,STEAK,Study2,U,158,106,Test,User,-,,Recall,Recall2,3191,TAKE,66.666666666667,1331,2872,0,0,,1
5eea09b8178b96000c1102d9,jwln8rrl25,Nick_Dissertation_EX1,1,291,2020-07-08T15:07:49-07:00,2.6865270137787,1,versionA_stim.csv,READVersionA.csv,"Read Version A","Dissertation, read only version A",BAD,VILLAIN,Study2,B,118,176,Test,User,-,,Recall,Recall2,2063,GOOD,0,1470,1864,0,0,,1
5eea09b8178b96000c1102d9,jwln8rrl25,Nick_Dissertation_EX1,1,292,2020-07-08T15:07:54-07:00,5.1648290157318,1,versionA_stim.csv,READVersionA.csv,"Read Version A","Dissertation, read only version A",CAKE,CLOTHES,Study2,U,166,117,Test,User,-,,Recall,Recall2,4667,,0,-1,-1,0,0,,1
5eea09b8178b96000c1102d9,jwln8rrl25,Nick_Dissertation_EX1,1,293,2020-07-08T15:07:59-07:00,5.1586351394653,1,versionA_stim.csv,READVersionA.csv,"Read Version A","Dissertation, read only version A",CHERRY,RED,Study2,F,104,125,Test,User,-,,Recall,Recall2,4558,POP,0,3233,4305,0,0,,1
5eea09b8178b96000c1102d9,jwln8rrl25,Nick_Dissertation_EX1,1,294,2020-07-08T15:08:04-07:00,4.1854009628296,1,versionA_stim.csv,READVersionA.csv,"Read Version A","Dissertation, read only version A",LISTEN,FICTION,Study2,U,164,111,Test,User,-,,Recall,Recall2,3732,LOOK,18.181818181818,2886,3501,0,0,,1
5eea09b8178b96000c1102d9,jwln8rrl25,Nick_Dissertation_EX1,1,295,2020-07-08T15:08:08-07:00,3.9802639484406,1,versionA_stim.csv,READVersionA.csv,"Read Version A","Dissertation, read only version A",EXTENSION,LONG,Study2,F,96,130,Test,User,-,,Recall,Recall2,2488,,0,-1,-1,0,0,,1
5eea09b8178b96000c1102d9,jwln8rrl25,Nick_Dissertation_EX1,1,296,2020-07-08T15:08:10-07:00,2.8479220867157,1,versionA_stim.csv,READVersionA.csv,"Read Version A","Dissertation, read only version A",FUZZY,BANG,Study2,U,168,105,Test,User,-,,Recall,Recall2,2304,DOG,28.571428571429,1502,1839,0,0,,1
5eea09b8178b96000c1102d9,jwln8rrl25,Nick_Dissertation_EX1,1,297,2020-07-08T15:08:14-07:00,3.5122439861298,1,versionA_stim.csv,READVersionA.csv,"Read Version A","Dissertation, read only version A",BEST,FAVORITE,Study2,B,125,147,Test,User,-,,Recall,Recall2,3033,FRIEND,57.142857142857,2047,2720,0,0,,1
5eea09b8178b96000c1102d9,jwln8rrl25,Nick_Dissertation_EX1,1,298,2020-07-08T15:08:16-07:00,2.4515919685364,1,versionA_stim.csv,READVersionA.csv,"Read Version A","Dissertation, read only version A",FURRY,DOG,Study2,F,102,155,Test,User,-,,Recall,Recall2,1965,DOG,100,1496,1725,1,1,,1
5eea09b8178b96000c1102d9,jwln8rrl25,Nick_Dissertation_EX1,1,299,2020-07-08T15:08:20-07:00,3.0488879680634,1,versionA_stim.csv,READVersionA.csv,"Read Version A","Dissertation, read only version A",MAIN,SCAR,Study2,U,175,112,Test,User,-,,Recall,Recall2,1588,,0,-1,-1,0,0,,1
5eea09b8178b96000c1102d9,jwln8rrl25,Nick_Dissertation_EX1,1,300,2020-07-08T15:08:26-07:00,6.6018710136414,1,versionA_stim.csv,READVersionA.csv,"Read Version A","Dissertation, read only version A",PHONE,COMMUNICATION,Study2,S,149,123,Test,User,-,,Recall,Recall2,6094,COMMUNICATE,83.333333333333,2879,5437,0,1,,1
5eea09b8178b96000c1102d9,jwln8rrl25,Nick_Dissertation_EX1,1,301,2020-07-08T15:08:29-07:00,3.1651999950409,1,versionA_stim.csv,READVersionA.csv,"Read Version A","Dissertation, read only version A",SCALP,HEAD,Study2,F,105,120,Test,User,-,,Recall,Recall2,2534,HEAD,100,1680,2353,1,1,,1
5eea09b8178b96000c1102d9,jwln8rrl25,Nick_Dissertation_EX1,1,302,2020-07-08T15:08:33-07:00,3.3402979373932,1,versionA_stim.csv,READVersionA.csv,"Read Version A","Dissertation, read only version A",MONEY,BANKER,Study2,B,132,141,Test,User,-,,Recall,Recall2,2856,,0,-1,-1,0,0,,1
5eea09b8178b96000c1102d9,jwln8rrl25,Nick_Dissertation_EX1,1,303,2020-07-08T15:08:39-07:00,5.9082159996033,1,versionA_stim.csv,READVersionA.csv,"Read Version A","Dissertation, read only version A",WRIST,BRACELET,Study2,S,140,134,Test,User,-,,Recall,Recall2,5319,HAND,16.666666666667,4138,5012,0,0,,1
5eea09b8178b96000c1102d9,jwln8rrl25,Nick_Dissertation_EX1,1,304,2020-07-08T15:08:42-07:00,3.4010660648346,1,versionA_stim.csv,READVersionA.csv,"Read Version A","Dissertation, read only version A",CLUE,GAME,Study2,F,97,110,Test,User,-,,Recall,Recall2,2889,TIP,0,2255,2571,0,0,,1
5eea09b8178b96000c1102d9,jwln8rrl25,Nick_Dissertation_EX1,1,305,2020-07-08T15:08:44-07:00,2.3168969154358,1,versionA_stim.csv,READVersionA.csv,"Read Version A","Dissertation, read only version A",RIGHTS,EQUAL,Study2,S,137,136,Test,User,-,,Recall,Recall2,1733,LAW,25,1194,1512,0,0,,1
5eea09b8178b96000c1102d9,jwln8rrl25,Nick_Dissertation_EX1,1,306,2020-07-08T15:08:48-07:00,3.5736401081085,1,versionA_stim.csv,READVersionA.csv,"Read Version A","Dissertation, read only version A",GONE,AWAY,Study2,S,142,135,Test,User,-,,Recall,Recall2,1991,,0,-1,-1,0,0,,1
5eea09b8178b96000c1102d9,jwln8rrl25,Nick_Dissertation_EX1,1,307,2020-07-08T15:08:58-07:00,10.630066871643,1,versionA_stim.csv,READVersionA.csv,"Read Version A","Dissertation, read only version A",SAFETY,SEATBELT,Study2,S,147,100,Test,User,-,,Recall,Recall2,9988,LAW,18.181818181818,6389,6920,0,0,,1
5eea09b8178b96000c1102d9,jwln8rrl25,Nick_Dissertation_EX1,1,308,2020-07-08T15:09:02-07:00,3.9689781665802,1,versionA_stim.csv,READVersionA.csv,"Read Version A","Dissertation, read only version A",SHOELACE,TIE,Study2,F,99,137,Test,User,-,,Recall,Recall2,2503,TIE,100,2077,2311,1,1,,1
5eea09b8178b96000c1102d9,jwln8rrl25,Nick_Dissertation_EX1,1,309,2020-07-08T15:09:09-07:00,6.2032589912415,1,versionA_stim.csv,READVersionA.csv,"Read Version A","Dissertation, read only version A",TURN,FLIP,Study2,B,116,150,Test,User,-,,Recall,Recall2,5625,AWAY,0,1527,5372,0,0,,1
5eea09b8178b96000c1102d9,jwln8rrl25,Nick_Dissertation_EX1,1,310,2020-07-08T15:09:11-07:00,2.3147518634796,1,versionA_stim.csv,READVersionA.csv,"Read Version A","Dissertation, read only version A",MASON,JAR,Study2,S,138,163,Test,User,-,,Recall,Recall2,1834,,0,-1,-1,0,0,,1
5eea09b8178b96000c1102d9,jwln8rrl25,Nick_Dissertation_EX1,1,311,2020-07-08T15:09:16-07:00,5.0552651882172,1,versionA_stim.csv,READVersionA.csv,"Read Version A","Dissertation, read only version A",CHILL,COLD,Study2,F,114,128,Test,User,-,,Recall,Recall2,4441,,0,-1,-1,0,0,,1
5eea09b8178b96000c1102d9,jwln8rrl25,Nick_Dissertation_EX1,1,312,2020-07-08T15:09:18-07:00,2.3387959003448,1,versionA_stim.csv,READVersionA.csv,"Read Version A","Dissertation, read only version A",CANDLE,WAX,Study2,S,139,149,Test,User,-,,Recall,Recall2,1748,LIT,0,1136,1464,0,0,,1
5eea09b8178b96000c1102d9,jwln8rrl25,Nick_Dissertation_EX1,1,313,2020-07-08T15:09:24-07:00,5.5030460357666,1,versionA_stim.csv,READVersionA.csv,"Read Version A","Dissertation, read only version A",CHOP,CUT,Study2,F,107,167,Test,User,-,,Recall,Recall2,5018,CUt,100,4448,4726,1,1,,1
5eea09b8178b96000c1102d9,jwln8rrl25,Nick_Dissertation_EX1,1,314,2020-07-08T15:09:26-07:00,2.6540539264679,1,versionA_stim.csv,READVersionA.csv,"Read Version A","Dissertation, read only version A",AFFECTION,LOVE,Study2,F,115,171,Test,User,-,,Recall,Recall2,2176,LOVE,100,1540,1980,1,1,,1
5eea09b8178b96000c1102d9,jwln8rrl25,Nick_Dissertation_EX1,1,315,2020-07-08T15:09:30-07:00,3.6855919361115,1,versionA_stim.csv,READVersionA.csv,"Read Version A","Dissertation, read only version A",FISH,SARDINE,Study2,B,130,127,Test,User,-,,Recall,Recall2,3123,SARDINE,100,1509,2663,1,1,,1
5eea09b8178b96000c1102d9,jwln8rrl25,Nick_Dissertation_EX1,1,316,2020-07-08T15:09:34-07:00,4.114443063736,1,versionA_stim.csv,READVersionA.csv,"Read Version A","Dissertation, read only version A",DETECTIVE,MYSTERY,Study2,F,100,109,Test,User,-,,Recall,Recall2,3600,FIND,0,2860,3218,0,0,,1
5eea09b8178b96000c1102d9,jwln8rrl25,Nick_Dissertation_EX1,1,317,2020-07-08T15:09:39-07:00,4.5409700870514,1,versionA_stim.csv,READVersionA.csv,"Read Version A","Dissertation, read only version A",DRIVER,CAR,Study2,F,106,139,Test,User,-,,Recall,Recall2,3966,TAXI,28.571428571429,1385,3494,0,0,,1
5eea09b8178b96000c1102d9,jwln8rrl25,Nick_Dissertation_EX1,1,318,2020-07-08T15:09:50-07:00,10.825459003448,1,versionA_stim.csv,READVersionA.csv,"Read Version A","Dissertation, read only version A",KEYS,JOKE,Study2,U,165,113,Test,User,-,,Recall,Recall2,10231,C,0,8723,8940,0,0,,1
5eea09b8178b96000c1102d9,jwln8rrl25,Nick_Dissertation_EX1,1,319,2020-07-08T15:09:53-07:00,3.1455059051514,1,versionA_stim.csv,READVersionA.csv,"Read Version A","Dissertation, read only version A",RAZOR,SHAVE,Study2,S,136,169,Test,User,-,,Recall,Recall2,2665,BLADE,40,1642,2352,0,0,,1
5eea09b8178b96000c1102d9,jwln8rrl25,Nick_Dissertation_EX1,1,320,2020-07-08T15:09:55-07:00,2.470381975174,1,versionA_stim.csv,READVersionA.csv,"Read Version A","Dissertation, read only version A",FLEA,TICK,Study2,S,151,99,Test,User,-,,Recall,Recall2,1969,TICK,100,1309,1703,1,1,,1
5eea09b8178b96000c1102d9,jwln8rrl25,Nick_Dissertation_EX1,1,321,2020-07-08T15:10:00-07:00,5.1868360042572,1,versionA_stim.csv,READVersionA.csv,"Read Version A","Dissertation, read only version A",INCENSE,SMELL,Study2,F,110,124,Test,User,-,,Recall,Recall2,4605,SMELL,100,3721,4300,1,1,,1
5eea09b8178b96000c1102d9,jwln8rrl25,Nick_Dissertation_EX1,1,322,2020-07-08T15:10:04-07:00,3.7441251277924,1,versionA_stim.csv,READVersionA.csv,"Read Version A","Dissertation, read only version A",ROD,REEL,Study2,S,150,154,Test,User,-,,Recall,Recall2,3245,FISH,0,1084,1608,0,0,,1
5eea09b8178b96000c1102d9,jwln8rrl25,Nick_Dissertation_EX1,1,323,2020-07-08T15:10:07-07:00,2.3662869930267,1,versionA_stim.csv,READVersionA.csv,"Read Version A","Dissertation, read only version A",CRACKLE,ABLE,Study2,U,162,156,Test,User,-,,Recall,Recall2,1906,POP,0,1241,1581,0,0,,1
5eea09b8178b96000c1102d9,jwln8rrl25,Nick_Dissertation_EX1,1,324,2020-07-08T15:10:11-07:00,4.1546819210052,1,versionA_stim.csv,READVersionA.csv,"Read Version A","Dissertation, read only version A",HONEST,TRUTHFUL,Study2,B,133,132,Test,User,-,,Recall,Recall2,3542,BELIEF,14.285714285714,1443,3274,0,0,,1
5eea09b8178b96000c1102d9,jwln8rrl25,Nick_Dissertation_EX1,1,325,2020-07-08T15:10:14-07:00,3.4022440910339,1,versionA_stim.csv,READVersionA.csv,"Read Version A","Dissertation, read only version A",Shell,SHAKE,Study2,U,163,157,Test,User,-,,Recall,Recall2,2927,FISH,44.444444444444,2318,2643,0,0,,1
5eea09b8178b96000c1102d9,jwln8rrl25,Nick_Dissertation_EX1,1,326,2020-07-08T15:10:19-07:00,5.32914686203,1,versionA_stim.csv,READVersionA.csv,"Read Version A","Dissertation, read only version A",PLANE,AIRCRAFT,Study2,B,129,122,Test,User,-,,Recall,Recall2,4755,PASSANGER,23.529411764706,1471,3520,0,0,,1
5eea09b8178b96000c1102d9,jwln8rrl25,Nick_Dissertation_EX1,1,327,2020-07-08T15:10:23-07:00,3.8264410495758,1,versionA_stim.csv,READVersionA.csv,"Read Version A","Dissertation, read only version A",DINE,EAT,Study2,F,111,144,Test,User,-,,Recall,Recall2,3358,PLATE,50,2440,3117,0,0,,1
5eea09b8178b96000c1102d9,jwln8rrl25,Nick_Dissertation_EX1,1,328,2020-07-08T15:10:26-07:00,2.8126990795135,1,versionA_stim.csv,READVersionA.csv,"Read Version A","Dissertation, read only version A",LITTER,TRASH,Study2,F,103,97,Test,User,-,,Recall,Recall2,2350,BIN,0,1519,2061,0,0,,1
5eea09b8178b96000c1102d9,jwln8rrl25,Nick_Dissertation_EX1,1,329,2020-07-08T15:10:29-07:00,2.6526248455048,1,versionA_stim.csv,READVersionA.csv,"Read Version A","Dissertation, read only version A",VEHICLE,CHARM,Study2,U,160,138,Test,User,-,,Recall,Recall2,2054,CAR,75,1494,1870,0,1,,1
5eea09b8178b96000c1102d9,jwln8rrl25,Nick_Dissertation_EX1,1,330,2020-07-08T15:10:37-07:00,8.2394850254059,1,versionA_stim.csv,READVersionA.csv,"Read Version A","Dissertation, read only version A",TANTRUM,TEMPER,Study2,S,154,148,Test,User,-,,Recall,Recall2,7769,ANGER,36.363636363636,2776,7514,0,0,,1
5eea09b8178b96000c1102d9,jwln8rrl25,Nick_Dissertation_EX1,1,331,2020-07-08T15:10:41-07:00,3.9577281475067,1,versionA_stim.csv,READVersionA.csv,"Read Version A","Dissertation, read only version A",CAR,WINDSHIELD,Study2,B,117,166,Test,User,-,,Recall,Recall2,3370,,0,1939,1939,0,0,,1
5eea09b8178b96000c1102d9,jwln8rrl25,Nick_Dissertation_EX1,1,332,2020-07-08T15:10:46-07:00,5.2004709243774,1,versionA_stim.csv,READVersionA.csv,"Read Version A","Dissertation, read only version A",BIRD,PENGUIN,Study2,B,119,119,Test,User,-,,Recall,Recall2,3641,PENGUIN,100,1558,3278,1,1,,1
5eea09b8178b96000c1102d9,jwln8rrl25,Nick_Dissertation_EX1,1,333,2020-07-08T15:10:50-07:00,3.7584760189056,1,versionA_stim.csv,READVersionA.csv,"Read Version A","Dissertation, read only version A",MULE,DONKEY,Study2,F,108,159,Test,User,-,,Recall,Recall2,3158,DONKEY,100,1350,2775,1,1,,1
5eea09b8178b96000c1102d9,jwln8rrl25,Nick_Dissertation_EX1,1,334,2020-07-08T15:10:53-07:00,2.9535799026489,1,versionA_stim.csv,READVersionA.csv,"Read Version A","Dissertation, read only version A",DEAD,COFFIN,Study2,B,128,98,Test,User,-,,Recall,Recall2,2493,COFFIN,100,1338,2222,1,1,,1
5eea09b8178b96000c1102d9,jwln8rrl25,Nick_Dissertation_EX1,1,335,2020-07-08T15:10:55-07:00,1.6730940341949,1,versionA_stim.csv,READVersionA.csv,"Read Version A","Dissertation, read only version A",BOTH,OUNCE,Study2,U,172,172,Test,User,-,,Recall,Recall2,1173,,0,-1,-1,0,0,,1
5eea09b8178b96000c1102d9,jwln8rrl25,Nick_Dissertation_EX1,1,336,2020-07-08T15:11:01-07:00,6.9059410095215,1,versionA_stim.csv,READVersionA.csv,"Read Version A","Dissertation, read only version A",CACTUS,PLANT,Study2,F,98,101,Test,User,-,,Recall,Recall2,6354,SPIKE,20,1868,6125,0,0,,1
5eea09b8178b96000c1102d9,jwln8rrl25,Nick_Dissertation_EX1,1,337,2020-07-08T15:11:06-07:00,4.7087531089783,1,versionA_stim.csv,READVersionA.csv,"Read Version A","Dissertation, read only version A",MOAT,CLEAR,Study2,U,169,129,Test,User,-,,Recall,Recall2,4224,BRIDGE,18.181818181818,2111,3812,0,0,,1
5eea09b8178b96000c1102d9,jwln8rrl25,Nick_Dissertation_EX1,1,338,2020-07-08T15:11:28-07:00,22.279278993607,1,versionA_stim.csv,READVersionA.csv,"Read Version A","Dissertation, read only version A",FIGHT,BRAWL,Study2,B,135,142,Test,User,-,,Recall,Recall2,21684,,0,-1,-1,0,0,,1
5eea09b8178b96000c1102d9,jwln8rrl25,Nick_Dissertation_EX1,1,339,2020-07-08T15:11:31-07:00,2.7037839889526,1,versionA_stim.csv,READVersionA.csv,"Read Version A","Dissertation, read only version A",LOAN,SIGN,Study2,U,171,160,Test,User,-,,Recall,Recall2,2113,MONEY,22.222222222222,1366,1980,0,0,,1
5eea09b8178b96000c1102d9,jwln8rrl25,Nick_Dissertation_EX1,1,340,2020-07-08T15:11:34-07:00,2.6820828914642,1,versionA_stim.csv,READVersionA.csv,"Read Version A","Dissertation, read only version A",LEASE,TOIL,Study2,U,170,168,Test,User,-,,Recall,Recall2,1823,,0,-1,-1,0,0,,1
5eea09b8178b96000c1102d9,jwln8rrl25,Nick_Dissertation_EX1,1,341,2020-07-08T15:11:36-07:00,1.7777080535889,1,versionA_stim.csv,READVersionA.csv,"Read Version A","Dissertation, read only version A",STRETCH,CLOTH,Study2,U,157,165,Test,User,-,,Recall,Recall2,1293,,0,-1,-1,0,0,,1
5eea09b8178b96000c1102d9,jwln8rrl25,Nick_Dissertation_EX1,1,342,2020-07-08T15:11:39-07:00,3.4330859184265,1,versionA_stim.csv,READVersionA.csv,"Read Version A","Dissertation, read only version A",MAZE,ELECTION,Study2,U,159,151,Test,User,-,,Recall,Recall2,2868,,0,-1,-1,0,0,,1
5eea09b8178b96000c1102d9,jwln8rrl25,Nick_Dissertation_EX1,1,343,2020-07-08T15:11:42-07:00,2.9523711204529,1,versionA_stim.csv,READVersionA.csv,"Read Version A","Dissertation, read only version A",POP,BALLOON,Study2,B,123,170,Test,User,-,,Recall,Recall2,2500,CHERRY,0,1091,2273,0,0,,1
5eea09b8178b96000c1102d9,jwln8rrl25,Nick_Dissertation_EX1,1,344,2020-07-08T15:11:45-07:00,2.9785139560699,1,versionA_stim.csv,READVersionA.csv,"Read Version A","Dissertation, read only version A",ALONE,LONELY,Study2,S,145,115,Test,User,-,,Recall,Recall2,2531,AFRAID,0,1323,2337,0,0,,1
5eea09b8178b96000c1102d9,jwln8rrl25,Nick_Dissertation_EX1,1,345,2020-07-08T15:11:53-07:00,7.6422500610352,1,versionA_stim.csv,READVersionA.csv,"Read Version A","Dissertation, read only version A",GLASS,BREAKABLE,Study2,B,127,108,Test,User,-,,Recall,Recall2,7060,BREAKABLE,100,1164,6699,1,1,,1
5eea09b8178b96000c1102d9,jwln8rrl25,Nick_Dissertation_EX1,1,346,2020-07-08T15:11:56-07:00,3.3423709869385,1,versionA_stim.csv,READVersionA.csv,"Read Version A","Dissertation, read only version A",TRUTH,LIE,Study2,S,148,121,Test,User,-,,Recall,Recall2,2887,DARE,28.571428571429,1744,2469,0,0,,1
5eea09b8178b96000c1102d9,jwln8rrl25,Nick_Dissertation_EX1,1,347,2020-07-08T15:11:59-07:00,3.030483007431,1,versionA_stim.csv,READVersionA.csv,"Read Version A","Dissertation, read only version A",SLEEP,NAP,Study2,B,134,146,Test,User,-,,Recall,Recall2,2433,BED,0,1924,2192,0,0,,1
5eea09b8178b96000c1102d9,jwln8rrl25,Nick_Dissertation_EX1,1,348,2020-07-08T15:12:09-07:00,10.441637039185,1,versionA_stim.csv,READVersionA.csv,"Read Version A","Dissertation, read only version A",WATER,DRINK,Study2,S,143,161,Test,User,-,,Recall,Recall2,9823,DRINK,100,1317,6749,1,1,,1
