Username,ID,ExperimentName,Session,Trial,Date,TimeDif,"Condition Number","Stimuli File","Order File","Condition Description","Condition Notes",Stimuli*Cue,Stimuli*Answer,Stimuli*Shuffle,"Stimuli*Stimuli Notes",Stimuli*Value,Procedure*Item,"Procedure*Trial Type","Procedure*Max Time","Procedure*Min Time",Procedure*Text,"Procedure*Procedure Notes",Procedure*Shuffle,Response*RT,Response*Response,Response*Accuracy,Response*RTfirst,Response*RTlast,Response*strictAcc,Response*lenientAcc,Response*focus,Response*Focus
5ee28e445c4bda79bb152afc,kb6g2g92o8,Nick_Dissertation_EX1,1,1,2020-07-08T14:52:46-07:00,14.244146823883,2,versionA_stim.csv,READVersionB.csv,"Read Version B","Dissertation, read only version B",,,,,,0,Instruct,-,10,"Please study each of the following word pairs. Remember that your memory will be tested! When finished, press Enter to move to the next pair.",Initial_Instruct,Instruct1,13885,,,-1,-1,,,,1
5ee28e445c4bda79bb152afc,kb6g2g92o8,Nick_Dissertation_EX1,1,2,2020-07-08T14:53:00-07:00,14.710261106491,2,versionA_stim.csv,READVersionB.csv,"Read Version B","Dissertation, read only version B",NOODLE,STRING,BUFFER3,Buffer,92,95,Study,User,-,,Study/JOL,BUFFER,14205,,,-1,-1,,,,0.423
5ee28e445c4bda79bb152afc,kb6g2g92o8,Nick_Dissertation_EX1,1,3,2020-07-08T14:53:03-07:00,3.0191509723663,2,versionA_stim.csv,READVersionB.csv,"Read Version B","Dissertation, read only version B",ICE,FROZEN,BUFFER3,Buffer,94,96,Study,User,-,,Study/JOL,BUFFER,2534,,,-1,-1,,,,1
5ee28e445c4bda79bb152afc,kb6g2g92o8,Nick_Dissertation_EX1,1,4,2020-07-08T14:53:07-07:00,3.3619990348816,2,versionA_stim.csv,READVersionB.csv,"Read Version B","Dissertation, read only version B",SHRIMP,FISH,BUFFER3,Buffer,93,93,Study,User,-,,Study/JOL,BUFFER,2884,,,-1,-1,,,,1
5ee28e445c4bda79bb152afc,kb6g2g92o8,Nick_Dissertation_EX1,1,5,2020-07-08T14:53:11-07:00,4.2053029537201,2,versionA_stim.csv,READVersionB.csv,"Read Version B","Dissertation, read only version B",CARROT,POTATO,BUFFER3,Buffer,91,92,Study,User,-,,Study/JOL,BUFFER,3723,,,-1,-1,,,,1
5ee28e445c4bda79bb152afc,kb6g2g92o8,Nick_Dissertation_EX1,1,6,2020-07-08T14:53:14-07:00,2.8090069293976,2,versionA_stim.csv,READVersionB.csv,"Read Version B","Dissertation, read only version B",CAMP,ADVENTURE,BUFFER3,Buffer,95,94,Study,User,-,,Study/JOL,BUFFER,2325,,,-1,-1,,,,1
5ee28e445c4bda79bb152afc,kb6g2g92o8,Nick_Dissertation_EX1,1,7,2020-07-08T14:53:16-07:00,2.0066471099854,2,versionA_stim.csv,READVersionB.csv,"Read Version B","Dissertation, read only version B",SCALP,HEAD,Study2,F,105,153,Study,User,-,,Study/JOL,"Study Phase",1670,,,-1,-1,,,,1
5ee28e445c4bda79bb152afc,kb6g2g92o8,Nick_Dissertation_EX1,1,8,2020-07-08T14:53:17-07:00,1.236603975296,2,versionA_stim.csv,READVersionB.csv,"Read Version B","Dissertation, read only version B",INCENSE,SMELL,Study2,F,110,115,Study,User,-,,Study/JOL,"Study Phase",888,,,-1,-1,,,,1
5ee28e445c4bda79bb152afc,kb6g2g92o8,Nick_Dissertation_EX1,1,9,2020-07-08T14:53:18-07:00,1.0919089317322,2,versionA_stim.csv,READVersionB.csv,"Read Version B","Dissertation, read only version B",OWN,HAVE,Study2,S,153,164,Study,User,-,,Study/JOL,"Study Phase",748,,,-1,-1,,,,1
5ee28e445c4bda79bb152afc,kb6g2g92o8,Nick_Dissertation_EX1,1,10,2020-07-08T14:53:20-07:00,2.0473880767822,2,versionA_stim.csv,READVersionB.csv,"Read Version B","Dissertation, read only version B",SLEEP,NAP,Study2,B,134,105,Study,User,-,,Study/JOL,"Study Phase",1691,,,-1,-1,,,,1
5ee28e445c4bda79bb152afc,kb6g2g92o8,Nick_Dissertation_EX1,1,11,2020-07-08T14:53:22-07:00,1.8885939121246,2,versionA_stim.csv,READVersionB.csv,"Read Version B","Dissertation, read only version B",EXTENSION,LONG,Study2,F,96,129,Study,User,-,,Study/JOL,"Study Phase",1508,,,-1,-1,,,,1
5ee28e445c4bda79bb152afc,kb6g2g92o8,Nick_Dissertation_EX1,1,12,2020-07-08T14:53:24-07:00,1.84880900383,2,versionA_stim.csv,READVersionB.csv,"Read Version B","Dissertation, read only version B",CAR,WINDSHIELD,Study2,B,117,131,Study,User,-,,Study/JOL,"Study Phase",1498,,,-1,-1,,,,1
5ee28e445c4bda79bb152afc,kb6g2g92o8,Nick_Dissertation_EX1,1,13,2020-07-08T14:53:26-07:00,1.9632301330566,2,versionA_stim.csv,READVersionB.csv,"Read Version B","Dissertation, read only version B",ADJOURN,END,Study2,F,101,163,Study,User,-,,Study/JOL,"Study Phase",1602,,,-1,-1,,,,1
5ee28e445c4bda79bb152afc,kb6g2g92o8,Nick_Dissertation_EX1,1,14,2020-07-08T14:53:28-07:00,2.1545250415802,2,versionA_stim.csv,READVersionB.csv,"Read Version B","Dissertation, read only version B",CAT,PANTHER,Study2,B,126,147,Study,User,-,,Study/JOL,"Study Phase",1782,,,-1,-1,,,,1
5ee28e445c4bda79bb152afc,kb6g2g92o8,Nick_Dissertation_EX1,1,15,2020-07-08T14:53:30-07:00,1.5420429706573,2,versionA_stim.csv,READVersionB.csv,"Read Version B","Dissertation, read only version B",BAD,VILLAIN,Study2,B,118,157,Study,User,-,,Study/JOL,"Study Phase",1199,,,-1,-1,,,,1
5ee28e445c4bda79bb152afc,kb6g2g92o8,Nick_Dissertation_EX1,1,16,2020-07-08T14:53:32-07:00,1.9646129608154,2,versionA_stim.csv,READVersionB.csv,"Read Version B","Dissertation, read only version B",POP,BALLOON,Study2,B,123,117,Study,User,-,,Study/JOL,"Study Phase",1598,,,-1,-1,,,,1
5ee28e445c4bda79bb152afc,kb6g2g92o8,Nick_Dissertation_EX1,1,17,2020-07-08T14:53:33-07:00,1.3710179328918,2,versionA_stim.csv,READVersionB.csv,"Read Version B","Dissertation, read only version B",MOAT,CLEAR,Study2,U,169,136,Study,User,-,,Study/JOL,"Study Phase",1021,,,-1,-1,,,,1
5ee28e445c4bda79bb152afc,kb6g2g92o8,Nick_Dissertation_EX1,1,18,2020-07-08T14:53:35-07:00,2.4391181468964,2,versionA_stim.csv,READVersionB.csv,"Read Version B","Dissertation, read only version B",STRETCH,CLOTH,Study2,U,157,133,Study,User,-,,Study/JOL,"Study Phase",1977,,,-1,-1,,,,1
5ee28e445c4bda79bb152afc,kb6g2g92o8,Nick_Dissertation_EX1,1,19,2020-07-08T14:53:37-07:00,1.2555727958679,2,versionA_stim.csv,READVersionB.csv,"Read Version B","Dissertation, read only version B",SUN,TAN,Study2,S,155,167,Study,User,-,,Study/JOL,"Study Phase",871,,,-1,-1,,,,1
5ee28e445c4bda79bb152afc,kb6g2g92o8,Nick_Dissertation_EX1,1,20,2020-07-08T14:53:38-07:00,1.4985771179199,2,versionA_stim.csv,READVersionB.csv,"Read Version B","Dissertation, read only version B",TANTRUM,TEMPER,Study2,S,154,106,Study,User,-,,Study/JOL,"Study Phase",1137,,,-1,-1,,,,1
5ee28e445c4bda79bb152afc,kb6g2g92o8,Nick_Dissertation_EX1,1,21,2020-07-08T14:53:40-07:00,1.3949210643768,2,versionA_stim.csv,READVersionB.csv,"Read Version B","Dissertation, read only version B",PLANE,AIRCRAFT,Study2,B,129,116,Study,User,-,,Study/JOL,"Study Phase",1030,,,-1,-1,,,,1
5ee28e445c4bda79bb152afc,kb6g2g92o8,Nick_Dissertation_EX1,1,22,2020-07-08T14:53:42-07:00,2.5459358692169,2,versionA_stim.csv,READVersionB.csv,"Read Version B","Dissertation, read only version B",CRACKLE,ABLE,Study2,U,162,148,Study,User,-,,Study/JOL,"Study Phase",1180,,,-1,-1,,,,1
5ee28e445c4bda79bb152afc,kb6g2g92o8,Nick_Dissertation_EX1,1,23,2020-07-08T14:53:47-07:00,5.0459959506989,2,versionA_stim.csv,READVersionB.csv,"Read Version B","Dissertation, read only version B",NAME,HATE,Study2,U,167,107,Study,User,-,,Study/JOL,"Study Phase",4568,,,-1,-1,,,,1
5ee28e445c4bda79bb152afc,kb6g2g92o8,Nick_Dissertation_EX1,1,24,2020-07-08T14:53:52-07:00,4.8232600688934,2,versionA_stim.csv,READVersionB.csv,"Read Version B","Dissertation, read only version B",FISH,SARDINE,Study2,B,130,125,Study,User,-,,Study/JOL,"Study Phase",4364,,,-1,-1,,,,1
5ee28e445c4bda79bb152afc,kb6g2g92o8,Nick_Dissertation_EX1,1,25,2020-07-08T14:53:54-07:00,1.7286770343781,2,versionA_stim.csv,READVersionB.csv,"Read Version B","Dissertation, read only version B",DOCUMENT,PAPER,Study2,F,109,176,Study,User,-,,Study/JOL,"Study Phase",1371,,,-1,-1,,,,1
5ee28e445c4bda79bb152afc,kb6g2g92o8,Nick_Dissertation_EX1,1,26,2020-07-08T14:53:57-07:00,3.225692987442,2,versionA_stim.csv,READVersionB.csv,"Read Version B","Dissertation, read only version B",STAR,ACTRESS,Study2,B,120,120,Study,User,-,,Study/JOL,"Study Phase",2720,,,-1,-1,,,,1
5ee28e445c4bda79bb152afc,kb6g2g92o8,Nick_Dissertation_EX1,1,27,2020-07-08T14:53:58-07:00,1.3417661190033,2,versionA_stim.csv,READVersionB.csv,"Read Version B","Dissertation, read only version B",BEST,FAVORITE,Study2,B,125,149,Study,User,-,,Study/JOL,"Study Phase",946,,,-1,-1,,,,1
5ee28e445c4bda79bb152afc,kb6g2g92o8,Nick_Dissertation_EX1,1,28,2020-07-08T14:54:00-07:00,2.1769168376923,2,versionA_stim.csv,READVersionB.csv,"Read Version B","Dissertation, read only version B",EARTH,GROUND,Study2,S,144,118,Study,User,-,,Study/JOL,"Study Phase",1827,,,-1,-1,,,,1
5ee28e445c4bda79bb152afc,kb6g2g92o8,Nick_Dissertation_EX1,1,29,2020-07-08T14:54:30-07:00,29.78825712204,2,versionA_stim.csv,READVersionB.csv,"Read Version B","Dissertation, read only version B",WRIST,BRACELET,Study2,S,140,151,Study,User,-,,Study/JOL,"Study Phase",29328,,,-1,-1,,,,0.48
5ee28e445c4bda79bb152afc,kb6g2g92o8,Nick_Dissertation_EX1,1,30,2020-07-08T14:54:33-07:00,2.5712049007416,2,versionA_stim.csv,READVersionB.csv,"Read Version B","Dissertation, read only version B",AFFECTION,LOVE,Study2,F,115,160,Study,User,-,,Study/JOL,"Study Phase",2063,,,-1,-1,,,,1
5ee28e445c4bda79bb152afc,kb6g2g92o8,Nick_Dissertation_EX1,1,31,2020-07-08T14:54:37-07:00,3.866199016571,2,versionA_stim.csv,READVersionB.csv,"Read Version B","Dissertation, read only version B",DINE,EAT,Study2,F,111,159,Study,User,-,,Study/JOL,"Study Phase",3295,,,-1,-1,,,,0.882
5ee28e445c4bda79bb152afc,kb6g2g92o8,Nick_Dissertation_EX1,1,32,2020-07-08T14:54:39-07:00,2.4629979133606,2,versionA_stim.csv,READVersionB.csv,"Read Version B","Dissertation, read only version B",THREAD,THIMBLE,Study2,B,121,135,Study,User,-,,Study/JOL,"Study Phase",1996,,,-1,-1,,,,1
5ee28e445c4bda79bb152afc,kb6g2g92o8,Nick_Dissertation_EX1,1,33,2020-07-08T14:54:41-07:00,1.4055030345917,2,versionA_stim.csv,READVersionB.csv,"Read Version B","Dissertation, read only version B",KEYS,JOKE,Study2,U,165,142,Study,User,-,,Study/JOL,"Study Phase",1045,,,-1,-1,,,,1
5ee28e445c4bda79bb152afc,kb6g2g92o8,Nick_Dissertation_EX1,1,34,2020-07-08T14:54:42-07:00,1.9571650028229,2,versionA_stim.csv,READVersionB.csv,"Read Version B","Dissertation, read only version B",MONEY,BANKER,Study2,B,132,127,Study,User,-,,Study/JOL,"Study Phase",1570,,,-1,-1,,,,1
5ee28e445c4bda79bb152afc,kb6g2g92o8,Nick_Dissertation_EX1,1,35,2020-07-08T14:54:44-07:00,2.0104320049286,2,versionA_stim.csv,READVersionB.csv,"Read Version B","Dissertation, read only version B",JUSTICE,MAROON,Study2,U,156,171,Study,User,-,,Study/JOL,"Study Phase",1639,,,-1,-1,,,,1
5ee28e445c4bda79bb152afc,kb6g2g92o8,Nick_Dissertation_EX1,1,36,2020-07-08T14:54:47-07:00,2.5700271129608,2,versionA_stim.csv,READVersionB.csv,"Read Version B","Dissertation, read only version B",BOTH,OUNCE,Study2,U,172,174,Study,User,-,,Study/JOL,"Study Phase",2065,,,-1,-1,,,,1
5ee28e445c4bda79bb152afc,kb6g2g92o8,Nick_Dissertation_EX1,1,37,2020-07-08T14:54:49-07:00,1.872279882431,2,versionA_stim.csv,READVersionB.csv,"Read Version B","Dissertation, read only version B",GLASS,BREAKABLE,Study2,B,127,111,Study,User,-,,Study/JOL,"Study Phase",1518,,,-1,-1,,,,1
5ee28e445c4bda79bb152afc,kb6g2g92o8,Nick_Dissertation_EX1,1,38,2020-07-08T14:54:51-07:00,1.941507101059,2,versionA_stim.csv,READVersionB.csv,"Read Version B","Dissertation, read only version B",DRIVER,CAR,Study2,F,106,100,Study,User,-,,Study/JOL,"Study Phase",1588,,,-1,-1,,,,1
5ee28e445c4bda79bb152afc,kb6g2g92o8,Nick_Dissertation_EX1,1,39,2020-07-08T14:54:52-07:00,1.1696269512177,2,versionA_stim.csv,READVersionB.csv,"Read Version B","Dissertation, read only version B",DEAD,COFFIN,Study2,B,128,139,Study,User,-,,Study/JOL,"Study Phase",805,,,-1,-1,,,,1
5ee28e445c4bda79bb152afc,kb6g2g92o8,Nick_Dissertation_EX1,1,40,2020-07-08T14:54:54-07:00,1.8420829772949,2,versionA_stim.csv,READVersionB.csv,"Read Version B","Dissertation, read only version B",CHOP,CUT,Study2,F,107,109,Study,User,-,,Study/JOL,"Study Phase",1489,,,-1,-1,,,,1
5ee28e445c4bda79bb152afc,kb6g2g92o8,Nick_Dissertation_EX1,1,41,2020-07-08T14:54:56-07:00,2.5791931152344,2,versionA_stim.csv,READVersionB.csv,"Read Version B","Dissertation, read only version B",SHEARS,SCISSORS,Study2,F,112,158,Study,User,-,,Study/JOL,"Study Phase",2115,,,-1,-1,,,,1
5ee28e445c4bda79bb152afc,kb6g2g92o8,Nick_Dissertation_EX1,1,42,2020-07-08T14:54:58-07:00,1.7158029079437,2,versionA_stim.csv,READVersionB.csv,"Read Version B","Dissertation, read only version B",EVEN,REVENGE,Study2,B,122,132,Study,User,-,,Study/JOL,"Study Phase",1353,,,-1,-1,,,,1
5ee28e445c4bda79bb152afc,kb6g2g92o8,Nick_Dissertation_EX1,1,43,2020-07-08T14:55:00-07:00,1.9999570846558,2,versionA_stim.csv,READVersionB.csv,"Read Version B","Dissertation, read only version B",LITTER,TRASH,Study2,F,103,143,Study,User,-,,Study/JOL,"Study Phase",1641,,,-1,-1,,,,1
5ee28e445c4bda79bb152afc,kb6g2g92o8,Nick_Dissertation_EX1,1,44,2020-07-08T14:55:02-07:00,1.8619349002838,2,versionA_stim.csv,READVersionB.csv,"Read Version B","Dissertation, read only version B",ROD,REEL,Study2,S,150,168,Study,User,-,,Study/JOL,"Study Phase",1500,,,-1,-1,,,,1
5ee28e445c4bda79bb152afc,kb6g2g92o8,Nick_Dissertation_EX1,1,45,2020-07-08T14:55:04-07:00,2.4530689716339,2,versionA_stim.csv,READVersionB.csv,"Read Version B","Dissertation, read only version B",ELEMENT,CARBON,Study2,S,141,119,Study,User,-,,Study/JOL,"Study Phase",1883,,,-1,-1,,,,1
5ee28e445c4bda79bb152afc,kb6g2g92o8,Nick_Dissertation_EX1,1,46,2020-07-08T14:55:06-07:00,1.6812610626221,2,versionA_stim.csv,READVersionB.csv,"Read Version B","Dissertation, read only version B",LOAN,SIGN,Study2,U,171,123,Study,User,-,,Study/JOL,"Study Phase",1194,,,-1,-1,,,,1
5ee28e445c4bda79bb152afc,kb6g2g92o8,Nick_Dissertation_EX1,1,47,2020-07-08T14:55:09-07:00,2.6687591075897,2,versionA_stim.csv,READVersionB.csv,"Read Version B","Dissertation, read only version B",Shell,SHAKE,Study2,U,163,162,Study,User,-,,Study/JOL,"Study Phase",2116,,,-1,-1,,,,1
5ee28e445c4bda79bb152afc,kb6g2g92o8,Nick_Dissertation_EX1,1,48,2020-07-08T14:55:11-07:00,1.7681639194489,2,versionA_stim.csv,READVersionB.csv,"Read Version B","Dissertation, read only version B",RIGHTS,EQUAL,Study2,S,137,104,Study,User,-,,Study/JOL,"Study Phase",1320,,,-1,-1,,,,1
5ee28e445c4bda79bb152afc,kb6g2g92o8,Nick_Dissertation_EX1,1,49,2020-07-08T14:55:12-07:00,1.4877910614014,2,versionA_stim.csv,READVersionB.csv,"Read Version B","Dissertation, read only version B",MEAT,OBTAIN,Study2,U,161,99,Study,User,-,,Study/JOL,"Study Phase",1038,,,-1,-1,,,,1
5ee28e445c4bda79bb152afc,kb6g2g92o8,Nick_Dissertation_EX1,1,50,2020-07-08T14:55:14-07:00,1.9502809047699,2,versionA_stim.csv,READVersionB.csv,"Read Version B","Dissertation, read only version B",FRUIT,STRAWBERRY,Study2,B,124,134,Study,User,-,,Study/JOL,"Study Phase",1576,,,-1,-1,,,,1
5ee28e445c4bda79bb152afc,kb6g2g92o8,Nick_Dissertation_EX1,1,51,2020-07-08T14:55:16-07:00,1.9295969009399,2,versionA_stim.csv,READVersionB.csv,"Read Version B","Dissertation, read only version B",LEASE,TOIL,Study2,U,170,101,Study,User,-,,Study/JOL,"Study Phase",1565,,,-1,-1,,,,1
5ee28e445c4bda79bb152afc,kb6g2g92o8,Nick_Dissertation_EX1,1,52,2020-07-08T14:55:19-07:00,3.0840590000153,2,versionA_stim.csv,READVersionB.csv,"Read Version B","Dissertation, read only version B",DETECTIVE,MYSTERY,Study2,F,100,110,Study,User,-,,Study/JOL,"Study Phase",2611,,,-1,-1,,,,1
5ee28e445c4bda79bb152afc,kb6g2g92o8,Nick_Dissertation_EX1,1,53,2020-07-08T14:55:21-07:00,1.4899501800537,2,versionA_stim.csv,READVersionB.csv,"Read Version B","Dissertation, read only version B",VEHICLE,CHARM,Study2,U,160,137,Study,User,-,,Study/JOL,"Study Phase",1140,,,-1,-1,,,,1
5ee28e445c4bda79bb152afc,kb6g2g92o8,Nick_Dissertation_EX1,1,54,2020-07-08T14:55:23-07:00,2.0407478809357,2,versionA_stim.csv,READVersionB.csv,"Read Version B","Dissertation, read only version B",GIVE,STEAK,Study2,U,158,112,Study,User,-,,Study/JOL,"Study Phase",1677,,,-1,-1,,,,1
5ee28e445c4bda79bb152afc,kb6g2g92o8,Nick_Dissertation_EX1,1,55,2020-07-08T14:55:25-07:00,2.5331621170044,2,versionA_stim.csv,READVersionB.csv,"Read Version B","Dissertation, read only version B",MAIN,SCAR,Study2,U,175,145,Study,User,-,,Study/JOL,"Study Phase",2070,,,-1,-1,,,,1
5ee28e445c4bda79bb152afc,kb6g2g92o8,Nick_Dissertation_EX1,1,56,2020-07-08T14:55:27-07:00,1.8375668525696,2,versionA_stim.csv,READVersionB.csv,"Read Version B","Dissertation, read only version B",HONEST,TRUTHFUL,Study2,B,133,128,Study,User,-,,Study/JOL,"Study Phase",1469,,,-1,-1,,,,1
5ee28e445c4bda79bb152afc,kb6g2g92o8,Nick_Dissertation_EX1,1,57,2020-07-08T14:55:28-07:00,1.4287781715393,2,versionA_stim.csv,READVersionB.csv,"Read Version B","Dissertation, read only version B",LOUD,NOISE,Study2,S,152,146,Study,User,-,,Study/JOL,"Study Phase",1057,,,-1,-1,,,,1
5ee28e445c4bda79bb152afc,kb6g2g92o8,Nick_Dissertation_EX1,1,58,2020-07-08T14:55:30-07:00,1.5481088161469,2,versionA_stim.csv,READVersionB.csv,"Read Version B","Dissertation, read only version B",WATER,DRINK,Study2,S,143,140,Study,User,-,,Study/JOL,"Study Phase",1156,,,-1,-1,,,,1
5ee28e445c4bda79bb152afc,kb6g2g92o8,Nick_Dissertation_EX1,1,59,2020-07-08T14:55:33-07:00,2.8722851276398,2,versionA_stim.csv,READVersionB.csv,"Read Version B","Dissertation, read only version B",BASEBALL,LEAGUE,Study2,B,131,155,Study,User,-,,Study/JOL,"Study Phase",2383,,,-1,-1,,,,1
5ee28e445c4bda79bb152afc,kb6g2g92o8,Nick_Dissertation_EX1,1,60,2020-07-08T14:55:34-07:00,1.3152239322662,2,versionA_stim.csv,READVersionB.csv,"Read Version B","Dissertation, read only version B",MULE,DONKEY,Study2,F,108,173,Study,User,-,,Study/JOL,"Study Phase",955,,,-1,-1,,,,1
5ee28e445c4bda79bb152afc,kb6g2g92o8,Nick_Dissertation_EX1,1,61,2020-07-08T14:55:35-07:00,1.2986400127411,2,versionA_stim.csv,READVersionB.csv,"Read Version B","Dissertation, read only version B",DRY,WET,Study2,S,146,138,Study,User,-,,Study/JOL,"Study Phase",939,,,-1,-1,,,,1
5ee28e445c4bda79bb152afc,kb6g2g92o8,Nick_Dissertation_EX1,1,62,2020-07-08T14:55:37-07:00,1.6432518959045,2,versionA_stim.csv,READVersionB.csv,"Read Version B","Dissertation, read only version B",FIGHT,BRAWL,Study2,B,135,122,Study,User,-,,Study/JOL,"Study Phase",1260,,,-1,-1,,,,1
5ee28e445c4bda79bb152afc,kb6g2g92o8,Nick_Dissertation_EX1,1,63,2020-07-08T14:55:39-07:00,1.9880800247192,2,versionA_stim.csv,READVersionB.csv,"Read Version B","Dissertation, read only version B",MASON,JAR,Study2,S,138,144,Study,User,-,,Study/JOL,"Study Phase",1626,,,-1,-1,,,,1
5ee28e445c4bda79bb152afc,kb6g2g92o8,Nick_Dissertation_EX1,1,64,2020-07-08T14:55:41-07:00,2.4290142059326,2,versionA_stim.csv,READVersionB.csv,"Read Version B","Dissertation, read only version B",FUZZY,BANG,Study2,U,168,150,Study,User,-,,Study/JOL,"Study Phase",1932,,,-1,-1,,,,1
5ee28e445c4bda79bb152afc,kb6g2g92o8,Nick_Dissertation_EX1,1,65,2020-07-08T14:55:44-07:00,2.0468339920044,2,versionA_stim.csv,READVersionB.csv,"Read Version B","Dissertation, read only version B",RAZOR,SHAVE,Study2,S,136,98,Study,User,-,,Study/JOL,"Study Phase",1692,,,-1,-1,,,,1
5ee28e445c4bda79bb152afc,kb6g2g92o8,Nick_Dissertation_EX1,1,66,2020-07-08T14:55:45-07:00,1.8419139385223,2,versionA_stim.csv,READVersionB.csv,"Read Version B","Dissertation, read only version B",MIRROR,CHILDREN,Study2,U,174,170,Study,User,-,,Study/JOL,"Study Phase",1475,,,-1,-1,,,,1
5ee28e445c4bda79bb152afc,kb6g2g92o8,Nick_Dissertation_EX1,1,67,2020-07-08T14:55:47-07:00,1.9807388782501,2,versionA_stim.csv,READVersionB.csv,"Read Version B","Dissertation, read only version B",TRUTH,LIE,Study2,S,148,161,Study,User,-,,Study/JOL,"Study Phase",1603,,,-1,-1,,,,1
5ee28e445c4bda79bb152afc,kb6g2g92o8,Nick_Dissertation_EX1,1,68,2020-07-08T14:55:49-07:00,1.5794839859009,2,versionA_stim.csv,READVersionB.csv,"Read Version B","Dissertation, read only version B",FLEA,TICK,Study2,S,151,169,Study,User,-,,Study/JOL,"Study Phase",1200,,,-1,-1,,,,1
5ee28e445c4bda79bb152afc,kb6g2g92o8,Nick_Dissertation_EX1,1,69,2020-07-08T14:55:51-07:00,2.4288640022278,2,versionA_stim.csv,READVersionB.csv,"Read Version B","Dissertation, read only version B",ALONE,LONELY,Study2,S,145,154,Study,User,-,,Study/JOL,"Study Phase",1879,,,-1,-1,,,,1
5ee28e445c4bda79bb152afc,kb6g2g92o8,Nick_Dissertation_EX1,1,70,2020-07-08T14:55:53-07:00,1.5469200611115,2,versionA_stim.csv,READVersionB.csv,"Read Version B","Dissertation, read only version B",TURN,FLIP,Study2,B,116,102,Study,User,-,,Study/JOL,"Study Phase",1203,,,-1,-1,,,,1
5ee28e445c4bda79bb152afc,kb6g2g92o8,Nick_Dissertation_EX1,1,71,2020-07-08T14:55:55-07:00,1.6728110313416,2,versionA_stim.csv,READVersionB.csv,"Read Version B","Dissertation, read only version B",TEMPERATURE,Morning,Study2,U,173,126,Study,User,-,,Study/JOL,"Study Phase",1304,,,-1,-1,,,,1
5ee28e445c4bda79bb152afc,kb6g2g92o8,Nick_Dissertation_EX1,1,72,2020-07-08T14:55:56-07:00,1.3015658855438,2,versionA_stim.csv,READVersionB.csv,"Read Version B","Dissertation, read only version B",CHERRY,RED,Study2,F,104,130,Study,User,-,,Study/JOL,"Study Phase",935,,,-1,-1,,,,1
5ee28e445c4bda79bb152afc,kb6g2g92o8,Nick_Dissertation_EX1,1,73,2020-07-08T14:55:58-07:00,1.9420690536499,2,versionA_stim.csv,READVersionB.csv,"Read Version B","Dissertation, read only version B",MAZE,ELECTION,Study2,U,159,166,Study,User,-,,Study/JOL,"Study Phase",1578,,,-1,-1,,,,1
5ee28e445c4bda79bb152afc,kb6g2g92o8,Nick_Dissertation_EX1,1,74,2020-07-08T14:56:00-07:00,2.4307401180267,2,versionA_stim.csv,READVersionB.csv,"Read Version B","Dissertation, read only version B",PHONE,COMMUNICATION,Study2,S,149,113,Study,User,-,,Study/JOL,"Study Phase",1881,,,-1,-1,,,,1
5ee28e445c4bda79bb152afc,kb6g2g92o8,Nick_Dissertation_EX1,1,75,2020-07-08T14:56:02-07:00,1.4812738895416,2,versionA_stim.csv,READVersionB.csv,"Read Version B","Dissertation, read only version B",FURRY,DOG,Study2,F,102,172,Study,User,-,,Study/JOL,"Study Phase",1093,,,-1,-1,,,,1
5ee28e445c4bda79bb152afc,kb6g2g92o8,Nick_Dissertation_EX1,1,76,2020-07-08T14:56:03-07:00,1.725839138031,2,versionA_stim.csv,READVersionB.csv,"Read Version B","Dissertation, read only version B",BIRD,PENGUIN,Study2,B,119,175,Study,User,-,,Study/JOL,"Study Phase",1327,,,-1,-1,,,,1
5ee28e445c4bda79bb152afc,kb6g2g92o8,Nick_Dissertation_EX1,1,77,2020-07-08T14:56:08-07:00,4.0658869743347,2,versionA_stim.csv,READVersionB.csv,"Read Version B","Dissertation, read only version B",CANDLE,WAX,Study2,S,139,141,Study,User,-,,Study/JOL,"Study Phase",3571,,,-1,-1,,,,1
5ee28e445c4bda79bb152afc,kb6g2g92o8,Nick_Dissertation_EX1,1,78,2020-07-08T14:56:09-07:00,1.3968999385834,2,versionA_stim.csv,READVersionB.csv,"Read Version B","Dissertation, read only version B",CLUE,GAME,Study2,F,97,165,Study,User,-,,Study/JOL,"Study Phase",1051,,,-1,-1,,,,1
5ee28e445c4bda79bb152afc,kb6g2g92o8,Nick_Dissertation_EX1,1,79,2020-07-08T14:56:11-07:00,1.959105014801,2,versionA_stim.csv,READVersionB.csv,"Read Version B","Dissertation, read only version B",CACTUS,PLANT,Study2,F,98,103,Study,User,-,,Study/JOL,"Study Phase",1594,,,-1,-1,,,,1
5ee28e445c4bda79bb152afc,kb6g2g92o8,Nick_Dissertation_EX1,1,80,2020-07-08T14:56:14-07:00,2.8941149711609,2,versionA_stim.csv,READVersionB.csv,"Read Version B","Dissertation, read only version B",CAKE,CLOTHES,Study2,U,166,152,Study,User,-,,Study/JOL,"Study Phase",2426,,,-1,-1,,,,1
5ee28e445c4bda79bb152afc,kb6g2g92o8,Nick_Dissertation_EX1,1,81,2020-07-08T14:56:15-07:00,1.1842789649963,2,versionA_stim.csv,READVersionB.csv,"Read Version B","Dissertation, read only version B",CHILL,COLD,Study2,F,114,97,Study,User,-,,Study/JOL,"Study Phase",816,,,-1,-1,,,,1
5ee28e445c4bda79bb152afc,kb6g2g92o8,Nick_Dissertation_EX1,1,82,2020-07-08T14:56:17-07:00,2.1018040180206,2,versionA_stim.csv,READVersionB.csv,"Read Version B","Dissertation, read only version B",SAFETY,SEATBELT,Study2,S,147,156,Study,User,-,,Study/JOL,"Study Phase",1752,,,-1,-1,,,,1
5ee28e445c4bda79bb152afc,kb6g2g92o8,Nick_Dissertation_EX1,1,83,2020-07-08T14:56:19-07:00,2.1354310512543,2,versionA_stim.csv,READVersionB.csv,"Read Version B","Dissertation, read only version B",LISTEN,FICTION,Study2,U,164,121,Study,User,-,,Study/JOL,"Study Phase",1763,,,-1,-1,,,,1
5ee28e445c4bda79bb152afc,kb6g2g92o8,Nick_Dissertation_EX1,1,84,2020-07-08T14:56:20-07:00,0.75651001930237,2,versionA_stim.csv,READVersionB.csv,"Read Version B","Dissertation, read only version B",GONE,AWAY,Study2,S,142,114,Study,User,-,,Study/JOL,"Study Phase",407,,,-1,-1,,,,1
5ee28e445c4bda79bb152afc,kb6g2g92o8,Nick_Dissertation_EX1,1,85,2020-07-08T14:56:21-07:00,1.014307975769,2,versionA_stim.csv,READVersionB.csv,"Read Version B","Dissertation, read only version B",SHOELACE,TIE,Study2,F,99,124,Study,User,-,,Study/JOL,"Study Phase",656,,,-1,-1,,,,1
5ee28e445c4bda79bb152afc,kb6g2g92o8,Nick_Dissertation_EX1,1,86,2020-07-08T14:56:22-07:00,0.83772087097168,2,versionA_stim.csv,READVersionB.csv,"Read Version B","Dissertation, read only version B",FEUD,FIGHT,Study2,F,113,108,Study,User,-,,Study/JOL,"Study Phase",461,,,-1,-1,,,,1
5ee28e445c4bda79bb152afc,kb6g2g92o8,Nick_Dissertation_EX1,1,87,2020-07-08T14:56:23-07:00,1.3288512229919,2,versionA_stim.csv,READVersionB.csv,"Read Version B","Dissertation, read only version B",SPRING,MARCH,BUFFER4,Buffer,179,178,Study,User,-,,Study/JOL,BUFFER2,968,,,-1,-1,,,,1
5ee28e445c4bda79bb152afc,kb6g2g92o8,Nick_Dissertation_EX1,1,88,2020-07-08T14:56:24-07:00,1.3213798999786,2,versionA_stim.csv,READVersionB.csv,"Read Version B","Dissertation, read only version B",TOOL,SHED,BUFFER4,Buffer,178,179,Study,User,-,,Study/JOL,BUFFER2,955,,,-1,-1,,,,1
5ee28e445c4bda79bb152afc,kb6g2g92o8,Nick_Dissertation_EX1,1,89,2020-07-08T14:56:26-07:00,1.6528608798981,2,versionA_stim.csv,READVersionB.csv,"Read Version B","Dissertation, read only version B",OCTOBER,SPOOKY,BUFFER4,Buffer,180,181,Study,User,-,,Study/JOL,BUFFER2,1282,,,-1,-1,,,,1
5ee28e445c4bda79bb152afc,kb6g2g92o8,Nick_Dissertation_EX1,1,90,2020-07-08T14:56:27-07:00,0.97597408294678,2,versionA_stim.csv,READVersionB.csv,"Read Version B","Dissertation, read only version B",MONTH,YEAR,BUFFER4,Buffer,177,180,Study,User,-,,Study/JOL,BUFFER2,623,,,-1,-1,,,,1
5ee28e445c4bda79bb152afc,kb6g2g92o8,Nick_Dissertation_EX1,1,91,2020-07-08T14:56:28-07:00,0.89928197860718,2,versionA_stim.csv,READVersionB.csv,"Read Version B","Dissertation, read only version B",DAYS,WEAKS,BUFFER4,Buffer,176,177,Study,User,-,,Study/JOL,BUFFER2,512,,,-1,-1,,,,1
5ee28e445c4bda79bb152afc,kb6g2g92o8,Nick_Dissertation_EX1,1,92,2020-07-08T14:56:30-07:00,2.3973619937897,2,versionA_stim.csv,READVersionB.csv,"Read Version B","Dissertation, read only version B",,,,,,0,Instruct,User,-,"You have completed this section. Please press Enter.",Filler_Instruction,Instruct2,1859,,,-1,-1,,,,1
5ee28e445c4bda79bb152afc,kb6g2g92o8,Nick_Dissertation_EX1,1,93,2020-07-08T14:58:32-07:00,121.18269205093,2,versionA_stim.csv,READVersionB.csv,"Read Version B","Dissertation, read only version B",,,,,,0,FreeRecall,120,120,"Please list the 50 US states in alphabetical order. The task will automatically advance to the next screen after two minutes.",,Filler1,120691,"alabama, alaska, atlanta, ",0,21312,116151,0,0,,0.956
5ee28e445c4bda79bb152afc,kb6g2g92o8,Nick_Dissertation_EX1,1,94,2020-07-08T14:58:44-07:00,12.223376989365,2,versionA_stim.csv,READVersionB.csv,"Read Version B","Dissertation, read only version B",,,,,,0,Instruct,-,10,"You will now be presented with the first word from each of the previously studied item pairs. Please type the missing word. If you do not know the word, you may guess or press Enter to skip forward to the next pair.",,Instruct3,10490,,,-1,-1,,,,1
5ee28e445c4bda79bb152afc,kb6g2g92o8,Nick_Dissertation_EX1,1,95,2020-07-08T14:58:57-07:00,13.002150058746,2,versionA_stim.csv,READVersionB.csv,"Read Version B","Dissertation, read only version B",CAKE,CLOTHES,Study2,U,166,152,Test,User,-,,Recall,Recall1,12497,EGG,20,11132,11873,0,0,,1
5ee28e445c4bda79bb152afc,kb6g2g92o8,Nick_Dissertation_EX1,1,96,2020-07-08T14:59:01-07:00,3.8988239765167,2,versionA_stim.csv,READVersionB.csv,"Read Version B","Dissertation, read only version B",BEST,FAVORITE,Study2,B,125,149,Test,User,-,,Recall,Recall1,2400,,0,-1,-1,0,0,,1
5ee28e445c4bda79bb152afc,kb6g2g92o8,Nick_Dissertation_EX1,1,97,2020-07-08T14:59:04-07:00,3.6630589962006,2,versionA_stim.csv,READVersionB.csv,"Read Version B","Dissertation, read only version B",PLANE,AIRCRAFT,Study2,B,129,116,Test,User,-,,Recall,Recall1,3158,FLY,18.181818181818,1869,2379,0,0,,1
5ee28e445c4bda79bb152afc,kb6g2g92o8,Nick_Dissertation_EX1,1,98,2020-07-08T14:59:08-07:00,3.4442899227142,2,versionA_stim.csv,READVersionB.csv,"Read Version B","Dissertation, read only version B",CRACKLE,ABLE,Study2,U,162,148,Test,User,-,,Recall,Recall1,2953,POP,0,1705,1965,0,0,,1
5ee28e445c4bda79bb152afc,kb6g2g92o8,Nick_Dissertation_EX1,1,99,2020-07-08T14:59:11-07:00,3.4074809551239,2,versionA_stim.csv,READVersionB.csv,"Read Version B","Dissertation, read only version B",DEAD,COFFIN,Study2,B,128,139,Test,User,-,,Recall,Recall1,2866,,0,-1,-1,0,0,,1
5ee28e445c4bda79bb152afc,kb6g2g92o8,Nick_Dissertation_EX1,1,100,2020-07-08T14:59:24-07:00,12.952822208405,2,versionA_stim.csv,READVersionB.csv,"Read Version B","Dissertation, read only version B",SAFETY,SEATBELT,Study2,S,147,156,Test,User,-,,Recall,Recall1,12464,,0,-1,-1,0,0,,1
5ee28e445c4bda79bb152afc,kb6g2g92o8,Nick_Dissertation_EX1,1,101,2020-07-08T14:59:29-07:00,5.1965398788452,2,versionA_stim.csv,READVersionB.csv,"Read Version B","Dissertation, read only version B",TANTRUM,TEMPER,Study2,S,154,106,Test,User,-,,Recall,Recall1,4677,TEMPER,100,2039,3859,1,1,,1
5ee28e445c4bda79bb152afc,kb6g2g92o8,Nick_Dissertation_EX1,1,102,2020-07-08T14:59:40-07:00,11.117537021637,2,versionA_stim.csv,READVersionB.csv,"Read Version B","Dissertation, read only version B",FEUD,FIGHT,Study2,F,113,108,Test,User,-,,Recall,Recall1,10646,,0,-1,-1,0,0,,1
5ee28e445c4bda79bb152afc,kb6g2g92o8,Nick_Dissertation_EX1,1,103,2020-07-08T14:59:46-07:00,5.431930065155,2,versionA_stim.csv,READVersionB.csv,"Read Version B","Dissertation, read only version B",SLEEP,NAP,Study2,B,134,105,Test,User,-,,Recall,Recall1,4930,TIGHT,0,2055,2525,0,0,,1
5ee28e445c4bda79bb152afc,kb6g2g92o8,Nick_Dissertation_EX1,1,104,2020-07-08T14:59:54-07:00,8.4028759002686,2,versionA_stim.csv,READVersionB.csv,"Read Version B","Dissertation, read only version B",GONE,AWAY,Study2,S,142,114,Test,User,-,,Recall,Recall1,7941,,0,-1,-1,0,0,,1
5ee28e445c4bda79bb152afc,kb6g2g92o8,Nick_Dissertation_EX1,1,105,2020-07-08T15:00:02-07:00,7.2255489826202,2,versionA_stim.csv,READVersionB.csv,"Read Version B","Dissertation, read only version B",EVEN,REVENGE,Study2,B,122,132,Test,User,-,,Recall,Recall1,6691,,0,-1,-1,0,0,,1
5ee28e445c4bda79bb152afc,kb6g2g92o8,Nick_Dissertation_EX1,1,106,2020-07-08T15:00:06-07:00,4.2217609882355,2,versionA_stim.csv,READVersionB.csv,"Read Version B","Dissertation, read only version B",CHILL,COLD,Study2,F,114,97,Test,User,-,,Recall,Recall1,2685,COLD,100,1457,1847,1,1,,1
5ee28e445c4bda79bb152afc,kb6g2g92o8,Nick_Dissertation_EX1,1,107,2020-07-08T15:00:09-07:00,3.0848159790039,2,versionA_stim.csv,READVersionB.csv,"Read Version B","Dissertation, read only version B",STRETCH,CLOTH,Study2,U,157,133,Test,User,-,,Recall,Recall1,2606,LONG,44.444444444444,1314,1694,0,0,,1
5ee28e445c4bda79bb152afc,kb6g2g92o8,Nick_Dissertation_EX1,1,108,2020-07-08T15:00:23-07:00,14.172864198685,2,versionA_stim.csv,READVersionB.csv,"Read Version B","Dissertation, read only version B",TEMPERATURE,Morning,Study2,U,173,126,Test,User,-,,Recall,Recall1,13683,WEATHER,14.285714285714,3315,12584,0,0,,1
5ee28e445c4bda79bb152afc,kb6g2g92o8,Nick_Dissertation_EX1,1,109,2020-07-08T15:00:27-07:00,3.9328119754791,2,versionA_stim.csv,READVersionB.csv,"Read Version B","Dissertation, read only version B",BAD,VILLAIN,Study2,B,118,157,Test,User,-,,Recall,Recall1,3403,GOOD,0,1679,2509,0,0,,1
5ee28e445c4bda79bb152afc,kb6g2g92o8,Nick_Dissertation_EX1,1,110,2020-07-08T15:00:31-07:00,3.796238899231,2,versionA_stim.csv,READVersionB.csv,"Read Version B","Dissertation, read only version B",DRIVER,CAR,Study2,F,106,100,Test,User,-,,Recall,Recall1,3305,,0,-1,-1,0,0,,1
5ee28e445c4bda79bb152afc,kb6g2g92o8,Nick_Dissertation_EX1,1,111,2020-07-08T15:00:33-07:00,2.0339620113373,2,versionA_stim.csv,READVersionB.csv,"Read Version B","Dissertation, read only version B",FIGHT,BRAWL,Study2,B,135,122,Test,User,-,,Recall,Recall1,1661,,0,-1,-1,0,0,,1
5ee28e445c4bda79bb152afc,kb6g2g92o8,Nick_Dissertation_EX1,1,112,2020-07-08T15:00:37-07:00,4.707230091095,2,versionA_stim.csv,READVersionB.csv,"Read Version B","Dissertation, read only version B",FUZZY,BANG,Study2,U,168,150,Test,User,-,,Recall,Recall1,4180,SOFT,0,2105,3545,0,0,,1
5ee28e445c4bda79bb152afc,kb6g2g92o8,Nick_Dissertation_EX1,1,113,2020-07-08T15:00:43-07:00,5.5276308059692,2,versionA_stim.csv,READVersionB.csv,"Read Version B","Dissertation, read only version B",ELEMENT,CARBON,Study2,S,141,119,Test,User,-,,Recall,Recall1,5062,FIRE,20,3573,4023,0,0,,1
5ee28e445c4bda79bb152afc,kb6g2g92o8,Nick_Dissertation_EX1,1,114,2020-07-08T15:00:45-07:00,1.9000551700592,2,versionA_stim.csv,READVersionB.csv,"Read Version B","Dissertation, read only version B",ALONE,LONELY,Study2,S,145,154,Test,User,-,,Recall,Recall1,1502,,0,-1,-1,0,0,,1
5ee28e445c4bda79bb152afc,kb6g2g92o8,Nick_Dissertation_EX1,1,115,2020-07-08T15:00:50-07:00,4.9086639881134,2,versionA_stim.csv,READVersionB.csv,"Read Version B","Dissertation, read only version B",TURN,FLIP,Study2,B,116,102,Test,User,-,,Recall,Recall1,4400,,0,-1,-1,0,0,,1
5ee28e445c4bda79bb152afc,kb6g2g92o8,Nick_Dissertation_EX1,1,116,2020-07-08T15:00:57-07:00,6.9422469139099,2,versionA_stim.csv,READVersionB.csv,"Read Version B","Dissertation, read only version B",CAR,WINDSHIELD,Study2,B,117,131,Test,User,-,,Recall,Recall1,6483,WINDOW,50,3430,5429,0,0,,1
5ee28e445c4bda79bb152afc,kb6g2g92o8,Nick_Dissertation_EX1,1,117,2020-07-08T15:01:04-07:00,6.8867061138153,2,versionA_stim.csv,READVersionB.csv,"Read Version B","Dissertation, read only version B",MIRROR,CHILDREN,Study2,U,174,170,Test,User,-,,Recall,Recall1,6354,,0,-1,-1,0,0,,1
5ee28e445c4bda79bb152afc,kb6g2g92o8,Nick_Dissertation_EX1,1,118,2020-07-08T15:01:06-07:00,2.1725058555603,2,versionA_stim.csv,READVersionB.csv,"Read Version B","Dissertation, read only version B",MONEY,BANKER,Study2,B,132,127,Test,User,-,,Recall,Recall1,1769,,0,-1,-1,0,0,,1
5ee28e445c4bda79bb152afc,kb6g2g92o8,Nick_Dissertation_EX1,1,119,2020-07-08T15:01:11-07:00,4.8696091175079,2,versionA_stim.csv,READVersionB.csv,"Read Version B","Dissertation, read only version B",SHEARS,SCISSORS,Study2,F,112,158,Test,User,-,,Recall,Recall1,4364,WOOL,16.666666666667,2541,3151,0,0,,1
5ee28e445c4bda79bb152afc,kb6g2g92o8,Nick_Dissertation_EX1,1,120,2020-07-08T15:01:12-07:00,1.3103749752045,2,versionA_stim.csv,READVersionB.csv,"Read Version B","Dissertation, read only version B",INCENSE,SMELL,Study2,F,110,115,Test,User,-,,Recall,Recall1,924,,0,-1,-1,0,0,,1
5ee28e445c4bda79bb152afc,kb6g2g92o8,Nick_Dissertation_EX1,1,121,2020-07-08T15:01:14-07:00,2.1622409820557,2,versionA_stim.csv,READVersionB.csv,"Read Version B","Dissertation, read only version B",LEASE,TOIL,Study2,U,170,101,Test,User,-,,Recall,Recall1,1781,,0,-1,-1,0,0,,1
5ee28e445c4bda79bb152afc,kb6g2g92o8,Nick_Dissertation_EX1,1,122,2020-07-08T15:01:24-07:00,9.4859020709991,2,versionA_stim.csv,READVersionB.csv,"Read Version B","Dissertation, read only version B",DINE,EAT,Study2,F,111,159,Test,User,-,,Recall,Recall1,8912,WINE,28.571428571429,3509,8128,0,0,,1
5ee28e445c4bda79bb152afc,kb6g2g92o8,Nick_Dissertation_EX1,1,123,2020-07-08T15:01:28-07:00,4.7621779441833,2,versionA_stim.csv,READVersionB.csv,"Read Version B","Dissertation, read only version B",LOUD,NOISE,Study2,S,152,146,Test,User,-,,Recall,Recall1,4290,NOISE,100,2826,3356,1,1,,1
5ee28e445c4bda79bb152afc,kb6g2g92o8,Nick_Dissertation_EX1,1,124,2020-07-08T15:01:32-07:00,3.7900638580322,2,versionA_stim.csv,READVersionB.csv,"Read Version B","Dissertation, read only version B",CHOP,CUT,Study2,F,107,109,Test,User,-,,Recall,Recall1,2273,,0,-1,-1,0,0,,1
5ee28e445c4bda79bb152afc,kb6g2g92o8,Nick_Dissertation_EX1,1,125,2020-07-08T15:01:47-07:00,14.553149223328,2,versionA_stim.csv,READVersionB.csv,"Read Version B","Dissertation, read only version B",JUSTICE,MAROON,Study2,U,156,171,Test,User,-,,Recall,Recall1,14024,,0,-1,-1,0,0,,1
5ee28e445c4bda79bb152afc,kb6g2g92o8,Nick_Dissertation_EX1,1,126,2020-07-08T15:01:49-07:00,1.9628469944,2,versionA_stim.csv,READVersionB.csv,"Read Version B","Dissertation, read only version B",MAZE,ELECTION,Study2,U,159,166,Test,User,-,,Recall,Recall1,1542,,0,-1,-1,0,0,,1
5ee28e445c4bda79bb152afc,kb6g2g92o8,Nick_Dissertation_EX1,1,127,2020-07-08T15:01:51-07:00,2.0465638637543,2,versionA_stim.csv,READVersionB.csv,"Read Version B","Dissertation, read only version B",FLEA,TICK,Study2,S,151,169,Test,User,-,,Recall,Recall1,1660,,0,-1,-1,0,0,,1
5ee28e445c4bda79bb152afc,kb6g2g92o8,Nick_Dissertation_EX1,1,128,2020-07-08T15:01:53-07:00,1.8734300136566,2,versionA_stim.csv,READVersionB.csv,"Read Version B","Dissertation, read only version B",HONEST,TRUTHFUL,Study2,B,133,128,Test,User,-,,Recall,Recall1,1493,,0,-1,-1,0,0,,1
5ee28e445c4bda79bb152afc,kb6g2g92o8,Nick_Dissertation_EX1,1,129,2020-07-08T15:01:59-07:00,6.6679720878601,2,versionA_stim.csv,READVersionB.csv,"Read Version B","Dissertation, read only version B",SUN,TAN,Study2,S,155,167,Test,User,-,,Recall,Recall1,5192,BRIGHT,22.222222222222,3368,4058,0,0,,1
5ee28e445c4bda79bb152afc,kb6g2g92o8,Nick_Dissertation_EX1,1,130,2020-07-08T15:02:05-07:00,5.7772169113159,2,versionA_stim.csv,READVersionB.csv,"Read Version B","Dissertation, read only version B",MOAT,CLEAR,Study2,U,169,136,Test,User,-,,Recall,Recall1,4298,CLEAR,100,2729,3589,1,1,,1
5ee28e445c4bda79bb152afc,kb6g2g92o8,Nick_Dissertation_EX1,1,131,2020-07-08T15:02:08-07:00,2.4623329639435,2,versionA_stim.csv,READVersionB.csv,"Read Version B","Dissertation, read only version B",FRUIT,STRAWBERRY,Study2,B,124,134,Test,User,-,,Recall,Recall1,1972,,0,-1,-1,0,0,,1
5ee28e445c4bda79bb152afc,kb6g2g92o8,Nick_Dissertation_EX1,1,132,2020-07-08T15:02:09-07:00,1.5558171272278,2,versionA_stim.csv,READVersionB.csv,"Read Version B","Dissertation, read only version B",RIGHTS,EQUAL,Study2,S,137,104,Test,User,-,,Recall,Recall1,1187,,0,-1,-1,0,0,,1
5ee28e445c4bda79bb152afc,kb6g2g92o8,Nick_Dissertation_EX1,1,133,2020-07-08T15:02:15-07:00,5.5492179393768,2,versionA_stim.csv,READVersionB.csv,"Read Version B","Dissertation, read only version B",MULE,DONKEY,Study2,F,108,173,Test,User,-,,Recall,Recall1,5042,DONKEY,100,2030,2910,1,1,,1
5ee28e445c4bda79bb152afc,kb6g2g92o8,Nick_Dissertation_EX1,1,134,2020-07-08T15:02:18-07:00,3.5720620155334,2,versionA_stim.csv,READVersionB.csv,"Read Version B","Dissertation, read only version B",EXTENSION,LONG,Study2,F,96,129,Test,User,-,,Recall,Recall1,3052,LONG,100,1651,2061,1,1,,1
5ee28e445c4bda79bb152afc,kb6g2g92o8,Nick_Dissertation_EX1,1,135,2020-07-08T15:02:21-07:00,2.8053019046783,2,versionA_stim.csv,READVersionB.csv,"Read Version B","Dissertation, read only version B",VEHICLE,CHARM,Study2,U,160,137,Test,User,-,,Recall,Recall1,2317,CAR,75,1567,1867,0,1,,1
5ee28e445c4bda79bb152afc,kb6g2g92o8,Nick_Dissertation_EX1,1,136,2020-07-08T15:02:23-07:00,1.9994990825653,2,versionA_stim.csv,READVersionB.csv,"Read Version B","Dissertation, read only version B",DOCUMENT,PAPER,Study2,F,109,176,Test,User,-,,Recall,Recall1,1614,,0,-1,-1,0,0,,1
5ee28e445c4bda79bb152afc,kb6g2g92o8,Nick_Dissertation_EX1,1,137,2020-07-08T15:02:28-07:00,4.7111229896545,2,versionA_stim.csv,READVersionB.csv,"Read Version B","Dissertation, read only version B",SCALP,HEAD,Study2,F,105,153,Test,User,-,,Recall,Recall1,4232,HAIR,50,3123,3513,0,0,,1
5ee28e445c4bda79bb152afc,kb6g2g92o8,Nick_Dissertation_EX1,1,138,2020-07-08T15:02:29-07:00,1.6033139228821,2,versionA_stim.csv,READVersionB.csv,"Read Version B","Dissertation, read only version B",PHONE,COMMUNICATION,Study2,S,149,113,Test,User,-,,Recall,Recall1,1235,,0,-1,-1,0,0,,1
5ee28e445c4bda79bb152afc,kb6g2g92o8,Nick_Dissertation_EX1,1,139,2020-07-08T15:02:32-07:00,3.0324580669403,2,versionA_stim.csv,READVersionB.csv,"Read Version B","Dissertation, read only version B",CHERRY,RED,Study2,F,104,130,Test,User,-,,Recall,Recall1,2536,,0,-1,-1,0,0,,1
5ee28e445c4bda79bb152afc,kb6g2g92o8,Nick_Dissertation_EX1,1,140,2020-07-08T15:02:34-07:00,1.880392074585,2,versionA_stim.csv,READVersionB.csv,"Read Version B","Dissertation, read only version B",FISH,SARDINE,Study2,B,130,125,Test,User,-,,Recall,Recall1,1532,,0,-1,-1,0,0,,1
5ee28e445c4bda79bb152afc,kb6g2g92o8,Nick_Dissertation_EX1,1,141,2020-07-08T15:02:37-07:00,2.5297768115997,2,versionA_stim.csv,READVersionB.csv,"Read Version B","Dissertation, read only version B",MEAT,OBTAIN,Study2,U,161,99,Test,User,-,,Recall,Recall1,2019,,0,-1,-1,0,0,,1
5ee28e445c4bda79bb152afc,kb6g2g92o8,Nick_Dissertation_EX1,1,142,2020-07-08T15:02:41-07:00,4.4761190414429,2,versionA_stim.csv,READVersionB.csv,"Read Version B","Dissertation, read only version B",ROD,REEL,Study2,S,150,168,Test,User,-,,Recall,Recall1,3988,FISHING,0,1965,3185,0,0,,1
5ee28e445c4bda79bb152afc,kb6g2g92o8,Nick_Dissertation_EX1,1,143,2020-07-08T15:02:44-07:00,2.8360471725464,2,versionA_stim.csv,READVersionB.csv,"Read Version B","Dissertation, read only version B",GLASS,BREAKABLE,Study2,B,127,111,Test,User,-,,Recall,Recall1,2363,,0,-1,-1,0,0,,1
5ee28e445c4bda79bb152afc,kb6g2g92o8,Nick_Dissertation_EX1,1,144,2020-07-08T15:02:57-07:00,12.671994924545,2,versionA_stim.csv,READVersionB.csv,"Read Version B","Dissertation, read only version B",BOTH,OUNCE,Study2,U,172,174,Test,User,-,,Recall,Recall1,12193,FUED,44.444444444444,9418,9899,0,0,,1
5ee28e445c4bda79bb152afc,kb6g2g92o8,Nick_Dissertation_EX1,1,145,2020-07-08T15:02:58-07:00,1.6686460971832,2,versionA_stim.csv,READVersionB.csv,"Read Version B","Dissertation, read only version B",GIVE,STEAK,Study2,U,158,112,Test,User,-,,Recall,Recall1,1276,,0,-1,-1,0,0,,1
5ee28e445c4bda79bb152afc,kb6g2g92o8,Nick_Dissertation_EX1,1,146,2020-07-08T15:03:02-07:00,3.5894949436188,2,versionA_stim.csv,READVersionB.csv,"Read Version B","Dissertation, read only version B",CAT,PANTHER,Study2,B,126,147,Test,User,-,,Recall,Recall1,3093,PET,40,1926,2165,0,0,,1
5ee28e445c4bda79bb152afc,kb6g2g92o8,Nick_Dissertation_EX1,1,147,2020-07-08T15:03:10-07:00,7.9462988376617,2,versionA_stim.csv,READVersionB.csv,"Read Version B","Dissertation, read only version B",FURRY,DOG,Study2,F,102,172,Test,User,-,,Recall,Recall1,7341,DOG,100,1681,2362,1,1,,1
5ee28e445c4bda79bb152afc,kb6g2g92o8,Nick_Dissertation_EX1,1,148,2020-07-08T15:03:11-07:00,1.503653049469,2,versionA_stim.csv,READVersionB.csv,"Read Version B","Dissertation, read only version B",NAME,HATE,Study2,U,167,107,Test,User,-,,Recall,Recall1,1112,,0,-1,-1,0,0,,1
5ee28e445c4bda79bb152afc,kb6g2g92o8,Nick_Dissertation_EX1,1,149,2020-07-08T15:03:14-07:00,2.4145159721375,2,versionA_stim.csv,READVersionB.csv,"Read Version B","Dissertation, read only version B",CACTUS,PLANT,Study2,F,98,103,Test,User,-,,Recall,Recall1,1827,,0,-1,-1,0,0,,1
5ee28e445c4bda79bb152afc,kb6g2g92o8,Nick_Dissertation_EX1,1,150,2020-07-08T15:03:15-07:00,1.3186831474304,2,versionA_stim.csv,READVersionB.csv,"Read Version B","Dissertation, read only version B",Shell,SHAKE,Study2,U,163,162,Test,User,-,,Recall,Recall1,960,,0,-1,-1,0,0,,1
5ee28e445c4bda79bb152afc,kb6g2g92o8,Nick_Dissertation_EX1,1,151,2020-07-08T15:03:23-07:00,7.3100788593292,2,versionA_stim.csv,READVersionB.csv,"Read Version B","Dissertation, read only version B",THREAD,THIMBLE,Study2,B,121,135,Test,User,-,,Recall,Recall1,5832,LONG,18.181818181818,4670,5170,0,0,,1
5ee28e445c4bda79bb152afc,kb6g2g92o8,Nick_Dissertation_EX1,1,152,2020-07-08T15:03:25-07:00,2.5912520885468,2,versionA_stim.csv,READVersionB.csv,"Read Version B","Dissertation, read only version B",CANDLE,WAX,Study2,S,139,141,Test,User,-,,Recall,Recall1,2115,,0,-1,-1,0,0,,1
5ee28e445c4bda79bb152afc,kb6g2g92o8,Nick_Dissertation_EX1,1,153,2020-07-08T15:03:27-07:00,1.6203210353851,2,versionA_stim.csv,READVersionB.csv,"Read Version B","Dissertation, read only version B",DRY,WET,Study2,S,146,138,Test,User,-,,Recall,Recall1,1246,,0,-1,-1,0,0,,1
5ee28e445c4bda79bb152afc,kb6g2g92o8,Nick_Dissertation_EX1,1,154,2020-07-08T15:03:28-07:00,1.7016398906708,2,versionA_stim.csv,READVersionB.csv,"Read Version B","Dissertation, read only version B",CLUE,GAME,Study2,F,97,165,Test,User,-,,Recall,Recall1,1335,,0,-1,-1,0,0,,1
5ee28e445c4bda79bb152afc,kb6g2g92o8,Nick_Dissertation_EX1,1,155,2020-07-08T15:03:33-07:00,4.0663571357727,2,versionA_stim.csv,READVersionB.csv,"Read Version B","Dissertation, read only version B",BIRD,PENGUIN,Study2,B,119,175,Test,User,-,,Recall,Recall1,3591,FLY,0,2154,2504,0,0,,1
5ee28e445c4bda79bb152afc,kb6g2g92o8,Nick_Dissertation_EX1,1,156,2020-07-08T15:03:35-07:00,2.4775249958038,2,versionA_stim.csv,READVersionB.csv,"Read Version B","Dissertation, read only version B",WRIST,BRACELET,Study2,S,140,151,Test,User,-,,Recall,Recall1,1965,,0,-1,-1,0,0,,1
5ee28e445c4bda79bb152afc,kb6g2g92o8,Nick_Dissertation_EX1,1,157,2020-07-08T15:03:37-07:00,2.0062639713287,2,versionA_stim.csv,READVersionB.csv,"Read Version B","Dissertation, read only version B",MAIN,SCAR,Study2,U,175,145,Test,User,-,,Recall,Recall1,1590,,0,-1,-1,0,0,,1
5ee28e445c4bda79bb152afc,kb6g2g92o8,Nick_Dissertation_EX1,1,158,2020-07-08T15:03:40-07:00,2.6405138969421,2,versionA_stim.csv,READVersionB.csv,"Read Version B","Dissertation, read only version B",KEYS,JOKE,Study2,U,165,142,Test,User,-,,Recall,Recall1,2141,,0,-1,-1,0,0,,1
5ee28e445c4bda79bb152afc,kb6g2g92o8,Nick_Dissertation_EX1,1,159,2020-07-08T15:03:45-07:00,5.0247421264648,2,versionA_stim.csv,READVersionB.csv,"Read Version B","Dissertation, read only version B",LITTER,TRASH,Study2,F,103,143,Test,User,-,,Recall,Recall1,3547,,0,-1,-1,0,0,,1
5ee28e445c4bda79bb152afc,kb6g2g92o8,Nick_Dissertation_EX1,1,160,2020-07-08T15:03:48-07:00,3.4162888526917,2,versionA_stim.csv,READVersionB.csv,"Read Version B","Dissertation, read only version B",BASEBALL,LEAGUE,Study2,B,131,155,Test,User,-,,Recall,Recall1,2934,,0,-1,-1,0,0,,1
5ee28e445c4bda79bb152afc,kb6g2g92o8,Nick_Dissertation_EX1,1,161,2020-07-08T15:03:51-07:00,2.8747861385345,2,versionA_stim.csv,READVersionB.csv,"Read Version B","Dissertation, read only version B",POP,BALLOON,Study2,B,123,117,Test,User,-,,Recall,Recall1,2393,,0,-1,-1,0,0,,1
5ee28e445c4bda79bb152afc,kb6g2g92o8,Nick_Dissertation_EX1,1,162,2020-07-08T15:03:57-07:00,6.2292640209198,2,versionA_stim.csv,READVersionB.csv,"Read Version B","Dissertation, read only version B",LOAN,SIGN,Study2,U,171,123,Test,User,-,,Recall,Recall1,5700,MONEY,22.222222222222,2993,4883,0,0,,1
5ee28e445c4bda79bb152afc,kb6g2g92o8,Nick_Dissertation_EX1,1,163,2020-07-08T15:04:00-07:00,2.6619458198547,2,versionA_stim.csv,READVersionB.csv,"Read Version B","Dissertation, read only version B",DETECTIVE,MYSTERY,Study2,F,100,110,Test,User,-,,Recall,Recall1,2186,,0,-1,-1,0,0,,1
5ee28e445c4bda79bb152afc,kb6g2g92o8,Nick_Dissertation_EX1,1,164,2020-07-08T15:04:04-07:00,4.0269541740417,2,versionA_stim.csv,READVersionB.csv,"Read Version B","Dissertation, read only version B",OWN,HAVE,Study2,S,153,164,Test,User,-,,Recall,Recall1,3533,,0,-1,-1,0,0,,1
5ee28e445c4bda79bb152afc,kb6g2g92o8,Nick_Dissertation_EX1,1,165,2020-07-08T15:04:10-07:00,5.9891629219055,2,versionA_stim.csv,READVersionB.csv,"Read Version B","Dissertation, read only version B",TRUTH,LIE,Study2,S,148,161,Test,User,-,,Recall,Recall1,4455,DARE,28.571428571429,3551,4041,0,0,,1
5ee28e445c4bda79bb152afc,kb6g2g92o8,Nick_Dissertation_EX1,1,166,2020-07-08T15:04:13-07:00,3.4323999881744,2,versionA_stim.csv,READVersionB.csv,"Read Version B","Dissertation, read only version B",WATER,DRINK,Study2,S,143,140,Test,User,-,,Recall,Recall1,2958,,0,-1,-1,0,0,,1
5ee28e445c4bda79bb152afc,kb6g2g92o8,Nick_Dissertation_EX1,1,167,2020-07-08T15:04:17-07:00,3.5201749801636,2,versionA_stim.csv,READVersionB.csv,"Read Version B","Dissertation, read only version B",ADJOURN,END,Study2,F,101,163,Test,User,-,,Recall,Recall1,3031,END,100,1512,1912,1,1,,1
5ee28e445c4bda79bb152afc,kb6g2g92o8,Nick_Dissertation_EX1,1,168,2020-07-08T15:04:20-07:00,2.9567260742188,2,versionA_stim.csv,READVersionB.csv,"Read Version B","Dissertation, read only version B",EARTH,GROUND,Study2,S,144,118,Test,User,-,,Recall,Recall1,2441,,0,-1,-1,0,0,,1
5ee28e445c4bda79bb152afc,kb6g2g92o8,Nick_Dissertation_EX1,1,169,2020-07-08T15:04:24-07:00,4.0808980464935,2,versionA_stim.csv,READVersionB.csv,"Read Version B","Dissertation, read only version B",LISTEN,FICTION,Study2,U,164,121,Test,User,-,,Recall,Recall1,3593,EAR,0,2824,3174,0,0,,1
5ee28e445c4bda79bb152afc,kb6g2g92o8,Nick_Dissertation_EX1,1,170,2020-07-08T15:04:27-07:00,3.1022019386292,2,versionA_stim.csv,READVersionB.csv,"Read Version B","Dissertation, read only version B",AFFECTION,LOVE,Study2,F,115,160,Test,User,-,,Recall,Recall1,2609,,0,-1,-1,0,0,,1
5ee28e445c4bda79bb152afc,kb6g2g92o8,Nick_Dissertation_EX1,1,171,2020-07-08T15:04:29-07:00,2.065906047821,2,versionA_stim.csv,READVersionB.csv,"Read Version B","Dissertation, read only version B",STAR,ACTRESS,Study2,B,120,120,Test,User,-,,Recall,Recall1,1674,,0,-1,-1,0,0,,1
5ee28e445c4bda79bb152afc,kb6g2g92o8,Nick_Dissertation_EX1,1,172,2020-07-08T15:04:40-07:00,10.545953989029,2,versionA_stim.csv,READVersionB.csv,"Read Version B","Dissertation, read only version B",RAZOR,SHAVE,Study2,S,136,98,Test,User,-,,Recall,Recall1,10073,SHARP,60,6036,8516,0,0,,1
5ee28e445c4bda79bb152afc,kb6g2g92o8,Nick_Dissertation_EX1,1,173,2020-07-08T15:04:41-07:00,1.7962749004364,2,versionA_stim.csv,READVersionB.csv,"Read Version B","Dissertation, read only version B",MASON,JAR,Study2,S,138,144,Test,User,-,,Recall,Recall1,1410,,0,-1,-1,0,0,,1
5ee28e445c4bda79bb152afc,kb6g2g92o8,Nick_Dissertation_EX1,1,174,2020-07-08T15:04:42-07:00,1.0674440860748,2,versionA_stim.csv,READVersionB.csv,"Read Version B","Dissertation, read only version B",SHOELACE,TIE,Study2,F,99,124,Test,User,-,,Recall,Recall1,702,,0,-1,-1,0,0,,1
5ee28e445c4bda79bb152afc,kb6g2g92o8,Nick_Dissertation_EX1,1,175,2020-07-08T15:05:01-07:00,18.425127029419,2,versionA_stim.csv,READVersionB.csv,"Read Version B","Dissertation, read only version B",,,,,,0,Instruct,-,10,"You will now be presented with a new set of word pairs. Please study each pair. Remember that your memory will be tested! When finished, press Enter to move to the next pair.",Initial_Instruct,Instruct4,17927,,,-1,-1,,,,0.356
5ee28e445c4bda79bb152afc,kb6g2g92o8,Nick_Dissertation_EX1,1,176,2020-07-08T15:05:11-07:00,9.8175330162048,2,versionA_stim.csv,READVersionB.csv,"Read Version B","Dissertation, read only version B",TREES,GREEN,BUFFER1,Buffer,1,4,Study,User,-,,Study/JOL,BUFFER3,9294,,,-1,-1,,,,1
5ee28e445c4bda79bb152afc,kb6g2g92o8,Nick_Dissertation_EX1,1,177,2020-07-08T15:05:41-07:00,30.226751804352,2,versionA_stim.csv,READVersionB.csv,"Read Version B","Dissertation, read only version B",SPACE,JAM,BUFFER1,Buffer,5,3,Study,User,-,,Study/JOL,BUFFER3,29715,,,-1,-1,,,,0.611
5ee28e445c4bda79bb152afc,kb6g2g92o8,Nick_Dissertation_EX1,1,178,2020-07-08T15:05:43-07:00,2.4669661521912,2,versionA_stim.csv,READVersionB.csv,"Read Version B","Dissertation, read only version B",BASEBALL,CATCHER,BUFFER1,Buffer,2,2,Study,User,-,,Study/JOL,BUFFER3,1942,,,-1,-1,,,,1
5ee28e445c4bda79bb152afc,kb6g2g92o8,Nick_Dissertation_EX1,1,179,2020-07-08T15:05:59-07:00,15.83523106575,2,versionA_stim.csv,READVersionB.csv,"Read Version B","Dissertation, read only version B",SCARE,HIDE,BUFFER1,Buffer,4,6,Study,User,-,,Study/JOL,BUFFER3,15360,,,-1,-1,,,,1
5ee28e445c4bda79bb152afc,kb6g2g92o8,Nick_Dissertation_EX1,1,180,2020-07-08T15:06:03-07:00,4.1637899875641,2,versionA_stim.csv,READVersionB.csv,"Read Version B","Dissertation, read only version B",PEANUT,BUTTER,BUFFER1,Buffer,3,5,Study,User,-,,Study/JOL,BUFFER3,3638,,,-1,-1,,,,1
5ee28e445c4bda79bb152afc,kb6g2g92o8,Nick_Dissertation_EX1,1,181,2020-07-08T15:06:06-07:00,2.6954009532928,2,versionA_stim.csv,READVersionB.csv,"Read Version B","Dissertation, read only version B",PLANE,PILOT,Study1,B,44,46,Study,User,-,,Study/JOL,"Study Phase2",1296,,,-1,-1,,,,1
5ee28e445c4bda79bb152afc,kb6g2g92o8,Nick_Dissertation_EX1,1,182,2020-07-08T15:06:09-07:00,3.1690800189972,2,versionA_stim.csv,READVersionB.csv,"Read Version B","Dissertation, read only version B",SMELL,STENCH,Study1,B,42,70,Study,User,-,,Study/JOL,"Study Phase2",1775,,,-1,-1,,,,1
5ee28e445c4bda79bb152afc,kb6g2g92o8,Nick_Dissertation_EX1,1,183,2020-07-08T15:06:11-07:00,2.154709815979,2,versionA_stim.csv,READVersionB.csv,"Read Version B","Dissertation, read only version B",ALLOW,TUCK,Study1,U,78,24,Study,User,-,,Study/JOL,"Study Phase2",1744,,,-1,-1,,,,1
5ee28e445c4bda79bb152afc,kb6g2g92o8,Nick_Dissertation_EX1,1,184,2020-07-08T15:06:13-07:00,1.7536551952362,2,versionA_stim.csv,READVersionB.csv,"Read Version B","Dissertation, read only version B",FULL,ENOUGH,Study1,B,26,63,Study,User,-,,Study/JOL,"Study Phase2",1375,,,-1,-1,,,,1
5ee28e445c4bda79bb152afc,kb6g2g92o8,Nick_Dissertation_EX1,1,185,2020-07-08T15:06:15-07:00,2.0972859859467,2,versionA_stim.csv,READVersionB.csv,"Read Version B","Dissertation, read only version B",TRIAL,JURY,Study1,S,50,49,Study,User,-,,Study/JOL,"Study Phase2",1573,,,-1,-1,,,,1
5ee28e445c4bda79bb152afc,kb6g2g92o8,Nick_Dissertation_EX1,1,186,2020-07-08T15:06:17-07:00,1.8273119926453,2,versionA_stim.csv,READVersionB.csv,"Read Version B","Dissertation, read only version B",MACHINE,POSITION,Study1,U,76,35,Study,User,-,,Study/JOL,"Study Phase2",1321,,,-1,-1,,,,1
5ee28e445c4bda79bb152afc,kb6g2g92o8,Nick_Dissertation_EX1,1,187,2020-07-08T15:06:19-07:00,1.5269968509674,2,versionA_stim.csv,READVersionB.csv,"Read Version B","Dissertation, read only version B",DELINQUENT,BAD,Study1,F,6,48,Study,User,-,,Study/JOL,"Study Phase2",1140,,,-1,-1,,,,1
5ee28e445c4bda79bb152afc,kb6g2g92o8,Nick_Dissertation_EX1,1,188,2020-07-08T15:06:21-07:00,2.8653440475464,2,versionA_stim.csv,READVersionB.csv,"Read Version B","Dissertation, read only version B",HEIGHT,GROWTH,Study1,B,30,56,Study,User,-,,Study/JOL,"Study Phase2",2357,,,-1,-1,,,,1
5ee28e445c4bda79bb152afc,kb6g2g92o8,Nick_Dissertation_EX1,1,189,2020-07-08T15:06:23-07:00,1.6850039958954,2,versionA_stim.csv,READVersionB.csv,"Read Version B","Dissertation, read only version B",DUE,ASSIGNMENT,Study1,S,46,62,Study,User,-,,Study/JOL,"Study Phase2",1319,,,-1,-1,,,,1
5ee28e445c4bda79bb152afc,kb6g2g92o8,Nick_Dissertation_EX1,1,190,2020-07-08T15:06:26-07:00,2.6822350025177,2,versionA_stim.csv,READVersionB.csv,"Read Version B","Dissertation, read only version B",HAPPY,CAR,Study1,U,77,43,Study,User,-,,Study/JOL,"Study Phase2",2189,,,-1,-1,,,,1
5ee28e445c4bda79bb152afc,kb6g2g92o8,Nick_Dissertation_EX1,1,191,2020-07-08T15:06:27-07:00,1.5187940597534,2,versionA_stim.csv,READVersionB.csv,"Read Version B","Dissertation, read only version B",LIFT,WOMAN,Study1,U,69,22,Study,User,-,,Study/JOL,"Study Phase2",1133,,,-1,-1,,,,1
5ee28e445c4bda79bb152afc,kb6g2g92o8,Nick_Dissertation_EX1,1,192,2020-07-08T15:06:29-07:00,1.5532689094543,2,versionA_stim.csv,READVersionB.csv,"Read Version B","Dissertation, read only version B",TUNA,FISH,Study1,F,25,25,Study,User,-,,Study/JOL,"Study Phase2",1190,,,-1,-1,,,,1
5ee28e445c4bda79bb152afc,kb6g2g92o8,Nick_Dissertation_EX1,1,193,2020-07-08T15:06:31-07:00,1.8777439594269,2,versionA_stim.csv,READVersionB.csv,"Read Version B","Dissertation, read only version B",WINE,CHEESE,Study1,S,57,73,Study,User,-,,Study/JOL,"Study Phase2",496,,,-1,-1,,,,1
5ee28e445c4bda79bb152afc,kb6g2g92o8,Nick_Dissertation_EX1,1,194,2020-07-08T15:06:33-07:00,1.8234620094299,2,versionA_stim.csv,READVersionB.csv,"Read Version B","Dissertation, read only version B",VALLEY,ADD,Study1,U,82,36,Study,User,-,,Study/JOL,"Study Phase2",1452,,,-1,-1,,,,1
5ee28e445c4bda79bb152afc,kb6g2g92o8,Nick_Dissertation_EX1,1,195,2020-07-08T15:06:34-07:00,1.8111371994019,2,versionA_stim.csv,READVersionB.csv,"Read Version B","Dissertation, read only version B",ROOT,PLANT,Study1,F,13,68,Study,User,-,,Study/JOL,"Study Phase2",1443,,,-1,-1,,,,1
5ee28e445c4bda79bb152afc,kb6g2g92o8,Nick_Dissertation_EX1,1,196,2020-07-08T15:06:37-07:00,2.171844959259,2,versionA_stim.csv,READVersionB.csv,"Read Version B","Dissertation, read only version B",WORK,CHORE,Study1,B,39,77,Study,User,-,,Study/JOL,"Study Phase2",776,,,-1,-1,,,,1
5ee28e445c4bda79bb152afc,kb6g2g92o8,Nick_Dissertation_EX1,1,197,2020-07-08T15:06:38-07:00,1.8240020275116,2,versionA_stim.csv,READVersionB.csv,"Read Version B","Dissertation, read only version B",DIGESTION,STOMACH,Study1,F,7,17,Study,User,-,,Study/JOL,"Study Phase2",1445,,,-1,-1,,,,1
5ee28e445c4bda79bb152afc,kb6g2g92o8,Nick_Dissertation_EX1,1,198,2020-07-08T15:06:40-07:00,1.9177548885345,2,versionA_stim.csv,READVersionB.csv,"Read Version B","Dissertation, read only version B",WAGE,MONEY,Study1,F,8,45,Study,User,-,,Study/JOL,"Study Phase2",1536,,,-1,-1,,,,1
5ee28e445c4bda79bb152afc,kb6g2g92o8,Nick_Dissertation_EX1,1,199,2020-07-08T15:06:42-07:00,1.7407069206238,2,versionA_stim.csv,READVersionB.csv,"Read Version B","Dissertation, read only version B",POP,SODA,Study1,S,56,12,Study,User,-,,Study/JOL,"Study Phase2",1370,,,-1,-1,,,,1
5ee28e445c4bda79bb152afc,kb6g2g92o8,Nick_Dissertation_EX1,1,200,2020-07-08T15:06:44-07:00,1.4904201030731,2,versionA_stim.csv,READVersionB.csv,"Read Version B","Dissertation, read only version B",CREDIT,CARD,Study1,F,23,65,Study,User,-,,Study/JOL,"Study Phase2",1121,,,-1,-1,,,,1
5ee28e445c4bda79bb152afc,kb6g2g92o8,Nick_Dissertation_EX1,1,201,2020-07-08T15:06:46-07:00,2.6025130748749,2,versionA_stim.csv,READVersionB.csv,"Read Version B","Dissertation, read only version B",HIDE,SICK,Study1,U,84,55,Study,User,-,,Study/JOL,"Study Phase2",2117,,,-1,-1,,,,1
5ee28e445c4bda79bb152afc,kb6g2g92o8,Nick_Dissertation_EX1,1,202,2020-07-08T15:06:48-07:00,1.4167900085449,2,versionA_stim.csv,READVersionB.csv,"Read Version B","Dissertation, read only version B",BALL,RACKET,Study1,B,38,13,Study,User,-,,Study/JOL,"Study Phase2",1055,,,-1,-1,,,,1
5ee28e445c4bda79bb152afc,kb6g2g92o8,Nick_Dissertation_EX1,1,203,2020-07-08T15:06:50-07:00,2.6425619125366,2,versionA_stim.csv,READVersionB.csv,"Read Version B","Dissertation, read only version B",MATH,DIVISION,Study1,B,33,33,Study,User,-,,Study/JOL,"Study Phase2",1259,,,-1,-1,,,,1
5ee28e445c4bda79bb152afc,kb6g2g92o8,Nick_Dissertation_EX1,1,204,2020-07-08T15:06:51-07:00,1.0614199638367,2,versionA_stim.csv,READVersionB.csv,"Read Version B","Dissertation, read only version B",ARTERY,BRONZE,Study1,U,74,11,Study,User,-,,Study/JOL,"Study Phase2",697,,,-1,-1,,,,1
5ee28e445c4bda79bb152afc,kb6g2g92o8,Nick_Dissertation_EX1,1,205,2020-07-08T15:06:53-07:00,1.8373539447784,2,versionA_stim.csv,READVersionB.csv,"Read Version B","Dissertation, read only version B",DISCUSSION,TALK,Study1,F,21,81,Study,User,-,,Study/JOL,"Study Phase2",1463,,,-1,-1,,,,1
5ee28e445c4bda79bb152afc,kb6g2g92o8,Nick_Dissertation_EX1,1,206,2020-07-08T15:06:55-07:00,1.775279045105,2,versionA_stim.csv,READVersionB.csv,"Read Version B","Dissertation, read only version B",DRINK,SIP,Study1,B,27,51,Study,User,-,,Study/JOL,"Study Phase2",1409,,,-1,-1,,,,1
5ee28e445c4bda79bb152afc,kb6g2g92o8,Nick_Dissertation_EX1,1,207,2020-07-08T15:06:56-07:00,1.4864001274109,2,versionA_stim.csv,READVersionB.csv,"Read Version B","Dissertation, read only version B",BABY,CHILD,Study1,S,64,59,Study,User,-,,Study/JOL,"Study Phase2",1101,,,-1,-1,,,,1
5ee28e445c4bda79bb152afc,kb6g2g92o8,Nick_Dissertation_EX1,1,208,2020-07-08T15:07:00-07:00,3.7666749954224,2,versionA_stim.csv,READVersionB.csv,"Read Version B","Dissertation, read only version B",GRILL,BAR,Study1,S,52,66,Study,User,-,,Study/JOL,"Study Phase2",3274,,,-1,-1,,,,1
5ee28e445c4bda79bb152afc,kb6g2g92o8,Nick_Dissertation_EX1,1,209,2020-07-08T15:07:03-07:00,2.4521238803864,2,versionA_stim.csv,READVersionB.csv,"Read Version B","Dissertation, read only version B",STRONG,ACCIDENT,Study1,U,80,29,Study,User,-,,Study/JOL,"Study Phase2",1902,,,-1,-1,,,,1
5ee28e445c4bda79bb152afc,kb6g2g92o8,Nick_Dissertation_EX1,1,210,2020-07-08T15:07:05-07:00,2.5300550460815,2,versionA_stim.csv,READVersionB.csv,"Read Version B","Dissertation, read only version B",DISCOVER,FLOOR,Study1,U,71,75,Study,User,-,,Study/JOL,"Study Phase2",2063,,,-1,-1,,,,1
5ee28e445c4bda79bb152afc,kb6g2g92o8,Nick_Dissertation_EX1,1,211,2020-07-08T15:07:08-07:00,2.9982869625092,2,versionA_stim.csv,READVersionB.csv,"Read Version B","Dissertation, read only version B",BATHROOM,TOILET,Study1,S,58,20,Study,User,-,,Study/JOL,"Study Phase2",1559,,,-1,-1,,,,1
5ee28e445c4bda79bb152afc,kb6g2g92o8,Nick_Dissertation_EX1,1,212,2020-07-08T15:07:10-07:00,1.7839510440826,2,versionA_stim.csv,READVersionB.csv,"Read Version B","Dissertation, read only version B",PUSHER,CLUTTER,Study1,U,66,58,Study,User,-,,Study/JOL,"Study Phase2",1412,,,-1,-1,,,,1
5ee28e445c4bda79bb152afc,kb6g2g92o8,Nick_Dissertation_EX1,1,213,2020-07-08T15:07:12-07:00,1.6774671077728,2,versionA_stim.csv,READVersionB.csv,"Read Version B","Dissertation, read only version B",KING,VASE,Study1,U,85,76,Study,User,-,,Study/JOL,"Study Phase2",1303,,,-1,-1,,,,1
5ee28e445c4bda79bb152afc,kb6g2g92o8,Nick_Dissertation_EX1,1,214,2020-07-08T15:07:14-07:00,2.6297628879547,2,versionA_stim.csv,READVersionB.csv,"Read Version B","Dissertation, read only version B",HERD,COW,Study1,F,22,52,Study,User,-,,Study/JOL,"Study Phase2",2122,,,-1,-1,,,,1
5ee28e445c4bda79bb152afc,kb6g2g92o8,Nick_Dissertation_EX1,1,215,2020-07-08T15:07:16-07:00,1.8685491085052,2,versionA_stim.csv,READVersionB.csv,"Read Version B","Dissertation, read only version B",DEATH,BUSINESS,Study1,U,72,53,Study,User,-,,Study/JOL,"Study Phase2",1465,,,-1,-1,,,,1
5ee28e445c4bda79bb152afc,kb6g2g92o8,Nick_Dissertation_EX1,1,216,2020-07-08T15:07:18-07:00,2.4311678409576,2,versionA_stim.csv,READVersionB.csv,"Read Version B","Dissertation, read only version B",CIRCLE,ROUND,Study1,S,65,10,Study,User,-,,Study/JOL,"Study Phase2",1909,,,-1,-1,,,,1
5ee28e445c4bda79bb152afc,kb6g2g92o8,Nick_Dissertation_EX1,1,217,2020-07-08T15:07:21-07:00,2.0402250289917,2,versionA_stim.csv,READVersionB.csv,"Read Version B","Dissertation, read only version B",HORNET,STING,Study1,F,11,67,Study,User,-,,Study/JOL,"Study Phase2",1665,,,-1,-1,,,,1
5ee28e445c4bda79bb152afc,kb6g2g92o8,Nick_Dissertation_EX1,1,218,2020-07-08T15:07:23-07:00,2.1904211044312,2,versionA_stim.csv,READVersionB.csv,"Read Version B","Dissertation, read only version B",BRIDGE,WATER,Study1,F,18,8,Study,User,-,,Study/JOL,"Study Phase2",1817,,,-1,-1,,,,1
5ee28e445c4bda79bb152afc,kb6g2g92o8,Nick_Dissertation_EX1,1,219,2020-07-08T15:07:25-07:00,2.0442008972168,2,versionA_stim.csv,READVersionB.csv,"Read Version B","Dissertation, read only version B",HONEY,BEE,Study1,S,63,30,Study,User,-,,Study/JOL,"Study Phase2",1676,,,-1,-1,,,,1
5ee28e445c4bda79bb152afc,kb6g2g92o8,Nick_Dissertation_EX1,1,220,2020-07-08T15:07:26-07:00,1.6146759986877,2,versionA_stim.csv,READVersionB.csv,"Read Version B","Dissertation, read only version B",FIRE,BLAZE,Study1,B,45,79,Study,User,-,,Study/JOL,"Study Phase2",1253,,,-1,-1,,,,1
5ee28e445c4bda79bb152afc,kb6g2g92o8,Nick_Dissertation_EX1,1,221,2020-07-08T15:07:28-07:00,1.7647099494934,2,versionA_stim.csv,READVersionB.csv,"Read Version B","Dissertation, read only version B",PAST,FUTURE,Study1,S,61,21,Study,User,-,,Study/JOL,"Study Phase2",1397,,,-1,-1,,,,1
5ee28e445c4bda79bb152afc,kb6g2g92o8,Nick_Dissertation_EX1,1,222,2020-07-08T15:07:31-07:00,3.204313993454,2,versionA_stim.csv,READVersionB.csv,"Read Version B","Dissertation, read only version B",FIX,HAND,Study1,U,75,19,Study,User,-,,Study/JOL,"Study Phase2",2716,,,-1,-1,,,,1
5ee28e445c4bda79bb152afc,kb6g2g92o8,Nick_Dissertation_EX1,1,223,2020-07-08T15:07:34-07:00,3.12770819664,2,versionA_stim.csv,READVersionB.csv,"Read Version B","Dissertation, read only version B",ORCHID,FLOWER,Study1,F,24,78,Study,User,-,,Study/JOL,"Study Phase2",2626,,,-1,-1,,,,1
5ee28e445c4bda79bb152afc,kb6g2g92o8,Nick_Dissertation_EX1,1,224,2020-07-08T15:07:36-07:00,1.4731998443604,2,versionA_stim.csv,READVersionB.csv,"Read Version B","Dissertation, read only version B",CASH,WOULD,Study1,U,83,41,Study,User,-,,Study/JOL,"Study Phase2",1119,,,-1,-1,,,,1
5ee28e445c4bda79bb152afc,kb6g2g92o8,Nick_Dissertation_EX1,1,225,2020-07-08T15:07:38-07:00,1.6293411254883,2,versionA_stim.csv,READVersionB.csv,"Read Version B","Dissertation, read only version B",NUMBER,AMOUNT,Study1,S,47,31,Study,User,-,,Study/JOL,"Study Phase2",1257,,,-1,-1,,,,1
5ee28e445c4bda79bb152afc,kb6g2g92o8,Nick_Dissertation_EX1,1,226,2020-07-08T15:07:39-07:00,1.6284439563751,2,versionA_stim.csv,READVersionB.csv,"Read Version B","Dissertation, read only version B",BLOW,WIND,Study1,S,55,18,Study,User,-,,Study/JOL,"Study Phase2",1267,,,-1,-1,,,,1
5ee28e445c4bda79bb152afc,kb6g2g92o8,Nick_Dissertation_EX1,1,227,2020-07-08T15:07:41-07:00,1.4782719612122,2,versionA_stim.csv,READVersionB.csv,"Read Version B","Dissertation, read only version B",CLOTHES,ATTIRE,Study1,B,43,27,Study,User,-,,Study/JOL,"Study Phase2",1106,,,-1,-1,,,,1
5ee28e445c4bda79bb152afc,kb6g2g92o8,Nick_Dissertation_EX1,1,228,2020-07-08T15:07:42-07:00,1.288666009903,2,versionA_stim.csv,READVersionB.csv,"Read Version B","Dissertation, read only version B",KEY,LATCH,Study1,B,36,69,Study,User,-,,Study/JOL,"Study Phase2",919,,,-1,-1,,,,1
5ee28e445c4bda79bb152afc,kb6g2g92o8,Nick_Dissertation_EX1,1,229,2020-07-08T15:07:44-07:00,1.7245080471039,2,versionA_stim.csv,READVersionB.csv,"Read Version B","Dissertation, read only version B",GREAT,FANTASTIC,Study1,B,35,40,Study,User,-,,Study/JOL,"Study Phase2",1337,,,-1,-1,,,,1
5ee28e445c4bda79bb152afc,kb6g2g92o8,Nick_Dissertation_EX1,1,230,2020-07-08T15:07:45-07:00,1.6060080528259,2,versionA_stim.csv,READVersionB.csv,"Read Version B","Dissertation, read only version B",SLEEP,DROWSY,Study1,B,41,74,Study,User,-,,Study/JOL,"Study Phase2",1199,,,-1,-1,,,,1
5ee28e445c4bda79bb152afc,kb6g2g92o8,Nick_Dissertation_EX1,1,231,2020-07-08T15:07:47-07:00,1.8572518825531,2,versionA_stim.csv,READVersionB.csv,"Read Version B","Dissertation, read only version B",SUGAR,RIDDLE,Study1,U,81,60,Study,User,-,,Study/JOL,"Study Phase2",1486,,,-1,-1,,,,1
5ee28e445c4bda79bb152afc,kb6g2g92o8,Nick_Dissertation_EX1,1,232,2020-07-08T15:07:50-07:00,2.6354711055756,2,versionA_stim.csv,READVersionB.csv,"Read Version B","Dissertation, read only version B",SOON,BELT,Study1,U,70,26,Study,User,-,,Study/JOL,"Study Phase2",2135,,,-1,-1,,,,1
5ee28e445c4bda79bb152afc,kb6g2g92o8,Nick_Dissertation_EX1,1,233,2020-07-08T15:07:52-07:00,2.4427299499512,2,versionA_stim.csv,READVersionB.csv,"Read Version B","Dissertation, read only version B",DIETARY,SACKING,Study1,U,67,85,Study,User,-,,Study/JOL,"Study Phase2",1941,,,-1,-1,,,,1
5ee28e445c4bda79bb152afc,kb6g2g92o8,Nick_Dissertation_EX1,1,234,2020-07-08T15:07:54-07:00,1.5719828605652,2,versionA_stim.csv,READVersionB.csv,"Read Version B","Dissertation, read only version B",REVOLUTION,WAR,Study1,F,20,83,Study,User,-,,Study/JOL,"Study Phase2",1204,,,-1,-1,,,,1
5ee28e445c4bda79bb152afc,kb6g2g92o8,Nick_Dissertation_EX1,1,235,2020-07-08T15:07:56-07:00,1.9229810237885,2,versionA_stim.csv,READVersionB.csv,"Read Version B","Dissertation, read only version B",DEBATE,SIGHT,Study1,U,73,37,Study,User,-,,Study/JOL,"Study Phase2",1541,,,-1,-1,,,,1
5ee28e445c4bda79bb152afc,kb6g2g92o8,Nick_Dissertation_EX1,1,236,2020-07-08T15:07:57-07:00,1.4971570968628,2,versionA_stim.csv,READVersionB.csv,"Read Version B","Dissertation, read only version B",SENTENCE,WORD,Study1,B,31,71,Study,User,-,,Study/JOL,"Study Phase2",1090,,,-1,-1,,,,1
5ee28e445c4bda79bb152afc,kb6g2g92o8,Nick_Dissertation_EX1,1,237,2020-07-08T15:07:59-07:00,1.6120870113373,2,versionA_stim.csv,READVersionB.csv,"Read Version B","Dissertation, read only version B",BUG,WASP,Study1,B,32,16,Study,User,-,,Study/JOL,"Study Phase2",1186,,,-1,-1,,,,1
5ee28e445c4bda79bb152afc,kb6g2g92o8,Nick_Dissertation_EX1,1,238,2020-07-08T15:08:01-07:00,2.0130128860474,2,versionA_stim.csv,READVersionB.csv,"Read Version B","Dissertation, read only version B",DARK,CAVE,Study1,B,28,38,Study,User,-,,Study/JOL,"Study Phase2",1643,,,-1,-1,,,,1
5ee28e445c4bda79bb152afc,kb6g2g92o8,Nick_Dissertation_EX1,1,239,2020-07-08T15:08:03-07:00,1.7076790332794,2,versionA_stim.csv,READVersionB.csv,"Read Version B","Dissertation, read only version B",PAW,DOG,Study1,F,15,80,Study,User,-,,Study/JOL,"Study Phase2",1330,,,-1,-1,,,,1
5ee28e445c4bda79bb152afc,kb6g2g92o8,Nick_Dissertation_EX1,1,240,2020-07-08T15:08:05-07:00,2.7925341129303,2,versionA_stim.csv,READVersionB.csv,"Read Version B","Dissertation, read only version B",ART,LION,Study1,U,79,15,Study,User,-,,Study/JOL,"Study Phase2",1339,,,-1,-1,,,,1
5ee28e445c4bda79bb152afc,kb6g2g92o8,Nick_Dissertation_EX1,1,241,2020-07-08T15:08:07-07:00,1.5512180328369,2,versionA_stim.csv,READVersionB.csv,"Read Version B","Dissertation, read only version B",SWAN,BIRD,Study1,F,14,34,Study,User,-,,Study/JOL,"Study Phase2",1153,,,-1,-1,,,,1
5ee28e445c4bda79bb152afc,kb6g2g92o8,Nick_Dissertation_EX1,1,242,2020-07-08T15:08:08-07:00,1.4652078151703,2,versionA_stim.csv,READVersionB.csv,"Read Version B","Dissertation, read only version B",WAY,OUT,Study1,F,16,14,Study,User,-,,Study/JOL,"Study Phase2",1056,,,-1,-1,,,,1
5ee28e445c4bda79bb152afc,kb6g2g92o8,Nick_Dissertation_EX1,1,243,2020-07-08T15:08:10-07:00,1.737683057785,2,versionA_stim.csv,READVersionB.csv,"Read Version B","Dissertation, read only version B",EDITOR,NEWS,Study1,F,10,9,Study,User,-,,Study/JOL,"Study Phase2",1362,,,-1,-1,,,,1
5ee28e445c4bda79bb152afc,kb6g2g92o8,Nick_Dissertation_EX1,1,244,2020-07-08T15:08:12-07:00,1.7309551239014,2,versionA_stim.csv,READVersionB.csv,"Read Version B","Dissertation, read only version B",ARCHITECTURE,DESIGN,Study1,S,51,72,Study,User,-,,Study/JOL,"Study Phase2",1360,,,-1,-1,,,,1
5ee28e445c4bda79bb152afc,kb6g2g92o8,Nick_Dissertation_EX1,1,245,2020-07-08T15:08:14-07:00,1.9013788700104,2,versionA_stim.csv,READVersionB.csv,"Read Version B","Dissertation, read only version B",DUMP,WASTE,Study1,S,49,82,Study,User,-,,Study/JOL,"Study Phase2",1516,,,-1,-1,,,,1
5ee28e445c4bda79bb152afc,kb6g2g92o8,Nick_Dissertation_EX1,1,246,2020-07-08T15:08:15-07:00,1.385929107666,2,versionA_stim.csv,READVersionB.csv,"Read Version B","Dissertation, read only version B",PARK,HUNGRY,Study1,U,68,42,Study,User,-,,Study/JOL,"Study Phase2",1019,,,-1,-1,,,,1
5ee28e445c4bda79bb152afc,kb6g2g92o8,Nick_Dissertation_EX1,1,247,2020-07-08T15:08:17-07:00,1.4833099842072,2,versionA_stim.csv,READVersionB.csv,"Read Version B","Dissertation, read only version B",BEGIN,END,Study1,S,54,84,Study,User,-,,Study/JOL,"Study Phase2",1069,,,-1,-1,,,,1
5ee28e445c4bda79bb152afc,kb6g2g92o8,Nick_Dissertation_EX1,1,248,2020-07-08T15:08:18-07:00,1.5104479789734,2,versionA_stim.csv,READVersionB.csv,"Read Version B","Dissertation, read only version B",LAW,ATTORNEY,Study1,B,34,7,Study,User,-,,Study/JOL,"Study Phase2",1121,,,-1,-1,,,,1
5ee28e445c4bda79bb152afc,kb6g2g92o8,Nick_Dissertation_EX1,1,249,2020-07-08T15:08:20-07:00,1.4716148376465,2,versionA_stim.csv,READVersionB.csv,"Read Version B","Dissertation, read only version B",LOCATION,SITE,Study1,S,48,54,Study,User,-,,Study/JOL,"Study Phase2",1089,,,-1,-1,,,,1
5ee28e445c4bda79bb152afc,kb6g2g92o8,Nick_Dissertation_EX1,1,250,2020-07-08T15:08:21-07:00,1.3304090499878,2,versionA_stim.csv,READVersionB.csv,"Read Version B","Dissertation, read only version B",HUNGER,FAMINE,Study1,B,40,28,Study,User,-,,Study/JOL,"Study Phase2",966,,,-1,-1,,,,1
5ee28e445c4bda79bb152afc,kb6g2g92o8,Nick_Dissertation_EX1,1,251,2020-07-08T15:08:23-07:00,2.448606967926,2,versionA_stim.csv,READVersionB.csv,"Read Version B","Dissertation, read only version B",KIDNEY,LIVER,Study1,S,53,64,Study,User,-,,Study/JOL,"Study Phase2",1910,,,-1,-1,,,,1
5ee28e445c4bda79bb152afc,kb6g2g92o8,Nick_Dissertation_EX1,1,252,2020-07-08T15:08:25-07:00,1.4373590946198,2,versionA_stim.csv,READVersionB.csv,"Read Version B","Dissertation, read only version B",TAKE,SEIZE,Study1,B,29,47,Study,User,-,,Study/JOL,"Study Phase2",1066,,,-1,-1,,,,1
5ee28e445c4bda79bb152afc,kb6g2g92o8,Nick_Dissertation_EX1,1,253,2020-07-08T15:08:26-07:00,1.5096530914307,2,versionA_stim.csv,READVersionB.csv,"Read Version B","Dissertation, read only version B",HOT,CHILI,Study1,B,37,61,Study,User,-,,Study/JOL,"Study Phase2",1131,,,-1,-1,,,,1
5ee28e445c4bda79bb152afc,kb6g2g92o8,Nick_Dissertation_EX1,1,254,2020-07-08T15:08:28-07:00,1.5327370166779,2,versionA_stim.csv,READVersionB.csv,"Read Version B","Dissertation, read only version B",BITTER,COLD,Study1,F,12,57,Study,User,-,,Study/JOL,"Study Phase2",1157,,,-1,-1,,,,1
5ee28e445c4bda79bb152afc,kb6g2g92o8,Nick_Dissertation_EX1,1,255,2020-07-08T15:08:30-07:00,1.8009848594666,2,versionA_stim.csv,READVersionB.csv,"Read Version B","Dissertation, read only version B",CHISEL,HAMMER,Study1,F,9,86,Study,User,-,,Study/JOL,"Study Phase2",1397,,,-1,-1,,,,1
5ee28e445c4bda79bb152afc,kb6g2g92o8,Nick_Dissertation_EX1,1,256,2020-07-08T15:08:31-07:00,1.7649450302124,2,versionA_stim.csv,READVersionB.csv,"Read Version B","Dissertation, read only version B",MEANING,DEFINITION,Study1,S,62,44,Study,User,-,,Study/JOL,"Study Phase2",1324,,,-1,-1,,,,1
5ee28e445c4bda79bb152afc,kb6g2g92o8,Nick_Dissertation_EX1,1,257,2020-07-08T15:08:33-07:00,1.2478170394897,2,versionA_stim.csv,READVersionB.csv,"Read Version B","Dissertation, read only version B",GEOLOGY,ROCK,Study1,F,19,50,Study,User,-,,Study/JOL,"Study Phase2",888,,,-1,-1,,,,1
5ee28e445c4bda79bb152afc,kb6g2g92o8,Nick_Dissertation_EX1,1,258,2020-07-08T15:08:34-07:00,1.1355328559875,2,versionA_stim.csv,READVersionB.csv,"Read Version B","Dissertation, read only version B",LETTUCE,SALAD,Study1,S,59,39,Study,User,-,,Study/JOL,"Study Phase2",783,,,-1,-1,,,,1
5ee28e445c4bda79bb152afc,kb6g2g92o8,Nick_Dissertation_EX1,1,259,2020-07-08T15:08:35-07:00,1.219395160675,2,versionA_stim.csv,READVersionB.csv,"Read Version B","Dissertation, read only version B",HYGIENE,CLEAN,Study1,F,17,23,Study,User,-,,Study/JOL,"Study Phase2",802,,,-1,-1,,,,1
5ee28e445c4bda79bb152afc,kb6g2g92o8,Nick_Dissertation_EX1,1,260,2020-07-08T15:08:38-07:00,3.4639010429382,2,versionA_stim.csv,READVersionB.csv,"Read Version B","Dissertation, read only version B",SHOE,FOOT,Study1,S,60,32,Study,User,-,,Study/JOL,"Study Phase2",1941,,,-1,-1,,,,1
5ee28e445c4bda79bb152afc,kb6g2g92o8,Nick_Dissertation_EX1,1,261,2020-07-08T15:08:40-07:00,1.1978030204773,2,versionA_stim.csv,READVersionB.csv,"Read Version B","Dissertation, read only version B",SHERRIF,POLICE,BUFFER2,Buffer,87,91,Study,User,-,,Study/JOL,BUFFER4,829,,,-1,-1,,,,1
5ee28e445c4bda79bb152afc,kb6g2g92o8,Nick_Dissertation_EX1,1,262,2020-07-08T15:08:41-07:00,0.99974584579468,2,versionA_stim.csv,READVersionB.csv,"Read Version B","Dissertation, read only version B",MOON,SPACE,BUFFER2,Buffer,89,88,Study,User,-,,Study/JOL,BUFFER4,618,,,-1,-1,,,,1
5ee28e445c4bda79bb152afc,kb6g2g92o8,Nick_Dissertation_EX1,1,263,2020-07-08T15:08:42-07:00,1.7378270626068,2,versionA_stim.csv,READVersionB.csv,"Read Version B","Dissertation, read only version B",THING,STUFF,BUFFER2,Buffer,90,90,Study,User,-,,Study/JOL,BUFFER4,1357,,,-1,-1,,,,1
5ee28e445c4bda79bb152afc,kb6g2g92o8,Nick_Dissertation_EX1,1,264,2020-07-08T15:08:44-07:00,1.266105890274,2,versionA_stim.csv,READVersionB.csv,"Read Version B","Dissertation, read only version B",MALT,CHOCOLATE,BUFFER2,Buffer,88,89,Study,User,-,,Study/JOL,BUFFER4,896,,,-1,-1,,,,1
5ee28e445c4bda79bb152afc,kb6g2g92o8,Nick_Dissertation_EX1,1,265,2020-07-08T15:08:45-07:00,1.3350431919098,2,versionA_stim.csv,READVersionB.csv,"Read Version B","Dissertation, read only version B",GEESE,GOOSE,BUFFER2,Buffer,86,87,Study,User,-,,Study/JOL,BUFFER4,959,,,-1,-1,,,,1
5ee28e445c4bda79bb152afc,kb6g2g92o8,Nick_Dissertation_EX1,1,266,2020-07-08T15:08:47-07:00,2.034304857254,2,versionA_stim.csv,READVersionB.csv,"Read Version B","Dissertation, read only version B",,,,,,0,Instruct,User,-,"You have completed this section. Please press Enter.",Filler_Instruction,Instruct5,1676,,,-1,-1,,,,1
5ee28e445c4bda79bb152afc,kb6g2g92o8,Nick_Dissertation_EX1,1,267,2020-07-08T15:10:48-07:00,120.49853396416,2,versionA_stim.csv,READVersionB.csv,"Read Version B","Dissertation, read only version B",,,,,,0,FreeRecall,120,120,"Please list the 50 US states in reverse alphabetical order (z - a). The task will automatically advance to the next screen after two minutes.",,Filler2,120006,"wyoming, west virginia, washington, virginia, texas, ",0,29615,64901,0,0,,0.771
5ee28e445c4bda79bb152afc,kb6g2g92o8,Nick_Dissertation_EX1,1,268,2020-07-08T15:10:59-07:00,11.61298418045,2,versionA_stim.csv,READVersionB.csv,"Read Version B","Dissertation, read only version B",,,,,,0,Instruct,-,10,"You will now be presented with the first word from each of the previously studied item pairs. Please type the missing word. If you do not know the word, you may guess or press Enter to skip forward to the next pair.",,Instruct6,10588,,,-1,-1,,,,0.875
5ee28e445c4bda79bb152afc,kb6g2g92o8,Nick_Dissertation_EX1,1,269,2020-07-08T15:11:06-07:00,7.0970668792725,2,versionA_stim.csv,READVersionB.csv,"Read Version B","Dissertation, read only version B",DEBATE,SIGHT,Study1,U,73,37,Test,User,-,,Recall,Recall2,6553,TALK,22.222222222222,4211,5271,0,0,,1
5ee28e445c4bda79bb152afc,kb6g2g92o8,Nick_Dissertation_EX1,1,270,2020-07-08T15:11:09-07:00,2.5508539676666,2,versionA_stim.csv,READVersionB.csv,"Read Version B","Dissertation, read only version B",FIX,HAND,Study1,U,75,19,Test,User,-,,Recall,Recall2,1986,,0,-1,-1,0,0,,1
5ee28e445c4bda79bb152afc,kb6g2g92o8,Nick_Dissertation_EX1,1,271,2020-07-08T15:11:14-07:00,5.3696670532227,2,versionA_stim.csv,READVersionB.csv,"Read Version B","Dissertation, read only version B",SOON,BELT,Study1,U,70,26,Test,User,-,,Recall,Recall2,4880,,0,-1,-1,0,0,,1
5ee28e445c4bda79bb152afc,kb6g2g92o8,Nick_Dissertation_EX1,1,272,2020-07-08T15:11:33-07:00,18.433193922043,2,versionA_stim.csv,READVersionB.csv,"Read Version B","Dissertation, read only version B",MACHINE,POSITION,Study1,U,76,35,Test,User,-,,Recall,Recall2,17934,,0,-1,-1,0,0,,1
5ee28e445c4bda79bb152afc,kb6g2g92o8,Nick_Dissertation_EX1,1,273,2020-07-08T15:11:35-07:00,1.9576079845428,2,versionA_stim.csv,READVersionB.csv,"Read Version B","Dissertation, read only version B",BABY,CHILD,Study1,S,64,59,Test,User,-,,Recall,Recall2,1579,,0,-1,-1,0,0,,1
5ee28e445c4bda79bb152afc,kb6g2g92o8,Nick_Dissertation_EX1,1,274,2020-07-08T15:11:40-07:00,5.3479571342468,2,versionA_stim.csv,READVersionB.csv,"Read Version B","Dissertation, read only version B",ART,LION,Study1,U,79,15,Test,User,-,,Recall,Recall2,4849,Lion,100,2158,3287,1,1,,1
5ee28e445c4bda79bb152afc,kb6g2g92o8,Nick_Dissertation_EX1,1,275,2020-07-08T15:11:49-07:00,8.8148798942566,2,versionA_stim.csv,READVersionB.csv,"Read Version B","Dissertation, read only version B",FIRE,BLAZE,Study1,B,45,79,Test,User,-,,Recall,Recall2,8320,HOT,0,7211,7691,0,0,,1
5ee28e445c4bda79bb152afc,kb6g2g92o8,Nick_Dissertation_EX1,1,276,2020-07-08T15:11:52-07:00,3.1983880996704,2,versionA_stim.csv,READVersionB.csv,"Read Version B","Dissertation, read only version B",CASH,WOULD,Study1,U,83,41,Test,User,-,,Recall,Recall2,2701,,0,-1,-1,0,0,,1
5ee28e445c4bda79bb152afc,kb6g2g92o8,Nick_Dissertation_EX1,1,277,2020-07-08T15:11:59-07:00,6.6349160671234,2,versionA_stim.csv,READVersionB.csv,"Read Version B","Dissertation, read only version B",MATH,DIVISION,Study1,B,33,33,Test,User,-,,Recall,Recall2,6142,Numbers,13.333333333333,4501,5911,0,0,,1
5ee28e445c4bda79bb152afc,kb6g2g92o8,Nick_Dissertation_EX1,1,278,2020-07-08T15:12:06-07:00,7.0305907726288,2,versionA_stim.csv,READVersionB.csv,"Read Version B","Dissertation, read only version B",TRIAL,JURY,Study1,S,50,49,Test,User,-,,Recall,Recall2,6534,JURY,100,3879,5289,1,1,,1
5ee28e445c4bda79bb152afc,kb6g2g92o8,Nick_Dissertation_EX1,1,279,2020-07-08T15:12:09-07:00,3.6319150924683,2,versionA_stim.csv,READVersionB.csv,"Read Version B","Dissertation, read only version B",KING,VASE,Study1,U,85,76,Test,User,-,,Recall,Recall2,3141,,0,-1,-1,0,0,,1
5ee28e445c4bda79bb152afc,kb6g2g92o8,Nick_Dissertation_EX1,1,280,2020-07-08T15:12:11-07:00,1.5825550556183,2,versionA_stim.csv,READVersionB.csv,"Read Version B","Dissertation, read only version B",ARTERY,BRONZE,Study1,U,74,11,Test,User,-,,Recall,Recall2,1194,,0,-1,-1,0,0,,1
5ee28e445c4bda79bb152afc,kb6g2g92o8,Nick_Dissertation_EX1,1,281,2020-07-08T15:12:16-07:00,4.9601888656616,2,versionA_stim.csv,READVersionB.csv,"Read Version B","Dissertation, read only version B",HOT,CHILI,Study1,B,37,61,Test,User,-,,Recall,Recall2,4478,FIRE,22.222222222222,2698,3218,0,0,,1
5ee28e445c4bda79bb152afc,kb6g2g92o8,Nick_Dissertation_EX1,1,282,2020-07-08T15:12:18-07:00,2.1058371067047,2,versionA_stim.csv,READVersionB.csv,"Read Version B","Dissertation, read only version B",CREDIT,CARD,Study1,F,23,65,Test,User,-,,Recall,Recall2,1746,,0,-1,-1,0,0,,1
5ee28e445c4bda79bb152afc,kb6g2g92o8,Nick_Dissertation_EX1,1,283,2020-07-08T15:12:19-07:00,1.2339630126953,2,versionA_stim.csv,READVersionB.csv,"Read Version B","Dissertation, read only version B",BUG,WASP,Study1,B,32,16,Test,User,-,,Recall,Recall2,850,,0,-1,-1,0,0,,1
5ee28e445c4bda79bb152afc,kb6g2g92o8,Nick_Dissertation_EX1,1,284,2020-07-08T15:12:20-07:00,1.1909101009369,2,versionA_stim.csv,READVersionB.csv,"Read Version B","Dissertation, read only version B",ALLOW,TUCK,Study1,U,78,24,Test,User,-,,Recall,Recall2,813,,0,-1,-1,0,0,,1
5ee28e445c4bda79bb152afc,kb6g2g92o8,Nick_Dissertation_EX1,1,285,2020-07-08T15:12:22-07:00,1.5217587947845,2,versionA_stim.csv,READVersionB.csv,"Read Version B","Dissertation, read only version B",CHISEL,HAMMER,Study1,F,9,86,Test,User,-,,Recall,Recall2,1145,,0,-1,-1,0,0,,1
5ee28e445c4bda79bb152afc,kb6g2g92o8,Nick_Dissertation_EX1,1,286,2020-07-08T15:12:24-07:00,1.907634973526,2,versionA_stim.csv,READVersionB.csv,"Read Version B","Dissertation, read only version B",KEY,LATCH,Study1,B,36,69,Test,User,-,,Recall,Recall2,1536,,0,-1,-1,0,0,,1
5ee28e445c4bda79bb152afc,kb6g2g92o8,Nick_Dissertation_EX1,1,287,2020-07-08T15:12:26-07:00,2.6068902015686,2,versionA_stim.csv,READVersionB.csv,"Read Version B","Dissertation, read only version B",DRINK,SIP,Study1,B,27,51,Test,User,-,,Recall,Recall2,2091,,0,-1,-1,0,0,,1
5ee28e445c4bda79bb152afc,kb6g2g92o8,Nick_Dissertation_EX1,1,288,2020-07-08T15:12:32-07:00,5.2654309272766,2,versionA_stim.csv,READVersionB.csv,"Read Version B","Dissertation, read only version B",DUMP,WASTE,Study1,S,49,82,Test,User,-,,Recall,Recall2,4782,TRUCK,20,3275,4005,0,0,,1
5ee28e445c4bda79bb152afc,kb6g2g92o8,Nick_Dissertation_EX1,1,289,2020-07-08T15:12:36-07:00,4.8651509284973,2,versionA_stim.csv,READVersionB.csv,"Read Version B","Dissertation, read only version B",SHOE,FOOT,Study1,S,60,32,Test,User,-,,Recall,Recall2,4342,,0,-1,-1,0,0,,1
5ee28e445c4bda79bb152afc,kb6g2g92o8,Nick_Dissertation_EX1,1,290,2020-07-08T15:12:39-07:00,2.2097020149231,2,versionA_stim.csv,READVersionB.csv,"Read Version B","Dissertation, read only version B",DUE,ASSIGNMENT,Study1,S,46,62,Test,User,-,,Recall,Recall2,1792,,0,-1,-1,0,0,,1
5ee28e445c4bda79bb152afc,kb6g2g92o8,Nick_Dissertation_EX1,1,291,2020-07-08T15:12:43-07:00,4.2678499221802,2,versionA_stim.csv,READVersionB.csv,"Read Version B","Dissertation, read only version B",HIDE,SICK,Study1,U,84,55,Test,User,-,,Recall,Recall2,3764,,0,-1,-1,0,0,,1
5ee28e445c4bda79bb152afc,kb6g2g92o8,Nick_Dissertation_EX1,1,292,2020-07-08T15:12:45-07:00,2.1159431934357,2,versionA_stim.csv,READVersionB.csv,"Read Version B","Dissertation, read only version B",BEGIN,END,Study1,S,54,84,Test,User,-,,Recall,Recall2,1754,,0,-1,-1,0,0,,1
5ee28e445c4bda79bb152afc,kb6g2g92o8,Nick_Dissertation_EX1,1,293,2020-07-08T15:12:48-07:00,2.4826300144196,2,versionA_stim.csv,READVersionB.csv,"Read Version B","Dissertation, read only version B",HEIGHT,GROWTH,Study1,B,30,56,Test,User,-,,Recall,Recall2,1948,,0,-1,-1,0,0,,1
5ee28e445c4bda79bb152afc,kb6g2g92o8,Nick_Dissertation_EX1,1,294,2020-07-08T15:12:55-07:00,7.8644239902496,2,versionA_stim.csv,READVersionB.csv,"Read Version B","Dissertation, read only version B",PAST,FUTURE,Study1,S,61,21,Test,User,-,,Recall,Recall2,7371,PRESENT,30.769230769231,4031,6571,0,0,,1
5ee28e445c4bda79bb152afc,kb6g2g92o8,Nick_Dissertation_EX1,1,295,2020-07-08T15:12:59-07:00,3.4232828617096,2,versionA_stim.csv,READVersionB.csv,"Read Version B","Dissertation, read only version B",BATHROOM,TOILET,Study1,S,58,20,Test,User,-,,Recall,Recall2,2939,,0,-1,-1,0,0,,1
5ee28e445c4bda79bb152afc,kb6g2g92o8,Nick_Dissertation_EX1,1,296,2020-07-08T15:13:03-07:00,3.8449909687042,2,versionA_stim.csv,READVersionB.csv,"Read Version B","Dissertation, read only version B",DELINQUENT,BAD,Study1,F,6,48,Test,User,-,,Recall,Recall2,3358,BAD,100,2204,2414,1,1,,1
5ee28e445c4bda79bb152afc,kb6g2g92o8,Nick_Dissertation_EX1,1,297,2020-07-08T15:13:07-07:00,4.6224331855774,2,versionA_stim.csv,READVersionB.csv,"Read Version B","Dissertation, read only version B",HAPPY,CAR,Study1,U,77,43,Test,User,-,,Recall,Recall2,3093,,0,-1,-1,0,0,,1
5ee28e445c4bda79bb152afc,kb6g2g92o8,Nick_Dissertation_EX1,1,298,2020-07-08T15:13:10-07:00,2.502769947052,2,versionA_stim.csv,READVersionB.csv,"Read Version B","Dissertation, read only version B",REVOLUTION,WAR,Study1,F,20,83,Test,User,-,,Recall,Recall2,1977,WAR,100,1242,1562,1,1,,1
5ee28e445c4bda79bb152afc,kb6g2g92o8,Nick_Dissertation_EX1,1,299,2020-07-08T15:13:13-07:00,2.7007369995117,2,versionA_stim.csv,READVersionB.csv,"Read Version B","Dissertation, read only version B",BLOW,WIND,Study1,S,55,18,Test,User,-,,Recall,Recall2,2206,,0,-1,-1,0,0,,1
5ee28e445c4bda79bb152afc,kb6g2g92o8,Nick_Dissertation_EX1,1,300,2020-07-08T15:13:14-07:00,1.6738240718842,2,versionA_stim.csv,READVersionB.csv,"Read Version B","Dissertation, read only version B",LETTUCE,SALAD,Study1,S,59,39,Test,User,-,,Recall,Recall2,1304,,0,-1,-1,0,0,,1
5ee28e445c4bda79bb152afc,kb6g2g92o8,Nick_Dissertation_EX1,1,301,2020-07-08T15:13:17-07:00,2.8907308578491,2,versionA_stim.csv,READVersionB.csv,"Read Version B","Dissertation, read only version B",DISCUSSION,TALK,Study1,F,21,81,Test,User,-,,Recall,Recall2,2386,,0,-1,-1,0,0,,1
5ee28e445c4bda79bb152afc,kb6g2g92o8,Nick_Dissertation_EX1,1,302,2020-07-08T15:13:19-07:00,1.7056801319122,2,versionA_stim.csv,READVersionB.csv,"Read Version B","Dissertation, read only version B",CLOTHES,ATTIRE,Study1,B,43,27,Test,User,-,,Recall,Recall2,1324,,0,-1,-1,0,0,,1
5ee28e445c4bda79bb152afc,kb6g2g92o8,Nick_Dissertation_EX1,1,303,2020-07-08T15:13:20-07:00,1.6615178585052,2,versionA_stim.csv,READVersionB.csv,"Read Version B","Dissertation, read only version B",FULL,ENOUGH,Study1,B,26,63,Test,User,-,,Recall,Recall2,1286,,0,-1,-1,0,0,,1
5ee28e445c4bda79bb152afc,kb6g2g92o8,Nick_Dissertation_EX1,1,304,2020-07-08T15:13:26-07:00,5.1642689704895,2,versionA_stim.csv,READVersionB.csv,"Read Version B","Dissertation, read only version B",CIRCLE,ROUND,Study1,S,65,10,Test,User,-,,Recall,Recall2,4679,ROUND,100,2611,3431,1,1,,1
5ee28e445c4bda79bb152afc,kb6g2g92o8,Nick_Dissertation_EX1,1,305,2020-07-08T15:13:28-07:00,2.1056289672852,2,versionA_stim.csv,READVersionB.csv,"Read Version B","Dissertation, read only version B",SENTENCE,WORD,Study1,B,31,71,Test,User,-,,Recall,Recall2,1721,,0,-1,-1,0,0,,1
5ee28e445c4bda79bb152afc,kb6g2g92o8,Nick_Dissertation_EX1,1,306,2020-07-08T15:13:32-07:00,3.7761061191559,2,versionA_stim.csv,READVersionB.csv,"Read Version B","Dissertation, read only version B",ORCHID,FLOWER,Study1,F,24,78,Test,User,-,,Recall,Recall2,3297,FLOWER,100,1601,2540,1,1,,1
5ee28e445c4bda79bb152afc,kb6g2g92o8,Nick_Dissertation_EX1,1,307,2020-07-08T15:13:34-07:00,2.0228080749512,2,versionA_stim.csv,READVersionB.csv,"Read Version B","Dissertation, read only version B",POP,SODA,Study1,S,56,12,Test,User,-,,Recall,Recall2,1643,,0,-1,-1,0,0,,1
5ee28e445c4bda79bb152afc,kb6g2g92o8,Nick_Dissertation_EX1,1,308,2020-07-08T15:13:35-07:00,1.7842609882355,2,versionA_stim.csv,READVersionB.csv,"Read Version B","Dissertation, read only version B",WORK,CHORE,Study1,B,39,77,Test,User,-,,Recall,Recall2,1249,,0,-1,-1,0,0,,1
5ee28e445c4bda79bb152afc,kb6g2g92o8,Nick_Dissertation_EX1,1,309,2020-07-08T15:13:39-07:00,3.9377899169922,2,versionA_stim.csv,READVersionB.csv,"Read Version B","Dissertation, read only version B",TUNA,FISH,Study1,F,25,25,Test,User,-,,Recall,Recall2,3431,FISH,100,1942,2382,1,1,,1
5ee28e445c4bda79bb152afc,kb6g2g92o8,Nick_Dissertation_EX1,1,310,2020-07-08T15:13:41-07:00,1.5248770713806,2,versionA_stim.csv,READVersionB.csv,"Read Version B","Dissertation, read only version B",VALLEY,ADD,Study1,U,82,36,Test,User,-,,Recall,Recall2,1147,,0,-1,-1,0,0,,1
5ee28e445c4bda79bb152afc,kb6g2g92o8,Nick_Dissertation_EX1,1,311,2020-07-08T15:13:46-07:00,5.4121990203857,2,versionA_stim.csv,READVersionB.csv,"Read Version B","Dissertation, read only version B",ARCHITECTURE,DESIGN,Study1,S,51,72,Test,User,-,,Recall,Recall2,4907,DESIGN,100,1315,3885,1,1,,1
5ee28e445c4bda79bb152afc,kb6g2g92o8,Nick_Dissertation_EX1,1,312,2020-07-08T15:13:48-07:00,1.4621438980103,2,versionA_stim.csv,READVersionB.csv,"Read Version B","Dissertation, read only version B",DISCOVER,FLOOR,Study1,U,71,75,Test,User,-,,Recall,Recall2,1093,,0,-1,-1,0,0,,1
5ee28e445c4bda79bb152afc,kb6g2g92o8,Nick_Dissertation_EX1,1,313,2020-07-08T15:13:49-07:00,1.6867659091949,2,versionA_stim.csv,READVersionB.csv,"Read Version B","Dissertation, read only version B",HERD,COW,Study1,F,22,52,Test,User,-,,Recall,Recall2,1302,,0,-1,-1,0,0,,1
5ee28e445c4bda79bb152afc,kb6g2g92o8,Nick_Dissertation_EX1,1,314,2020-07-08T15:13:51-07:00,1.6398561000824,2,versionA_stim.csv,READVersionB.csv,"Read Version B","Dissertation, read only version B",HUNGER,FAMINE,Study1,B,40,28,Test,User,-,,Recall,Recall2,1266,,0,-1,-1,0,0,,1
5ee28e445c4bda79bb152afc,kb6g2g92o8,Nick_Dissertation_EX1,1,315,2020-07-08T15:13:53-07:00,1.7011539936066,2,versionA_stim.csv,READVersionB.csv,"Read Version B","Dissertation, read only version B",LOCATION,SITE,Study1,S,48,54,Test,User,-,,Recall,Recall2,1320,,0,-1,-1,0,0,,1
5ee28e445c4bda79bb152afc,kb6g2g92o8,Nick_Dissertation_EX1,1,316,2020-07-08T15:13:54-07:00,1.6236970424652,2,versionA_stim.csv,READVersionB.csv,"Read Version B","Dissertation, read only version B",WAGE,MONEY,Study1,F,8,45,Test,User,-,,Recall,Recall2,1250,,0,-1,-1,0,0,,1
5ee28e445c4bda79bb152afc,kb6g2g92o8,Nick_Dissertation_EX1,1,317,2020-07-08T15:13:57-07:00,2.6085770130157,2,versionA_stim.csv,READVersionB.csv,"Read Version B","Dissertation, read only version B",SUGAR,RIDDLE,Study1,U,81,60,Test,User,-,,Recall,Recall2,2102,,0,-1,-1,0,0,,1
5ee28e445c4bda79bb152afc,kb6g2g92o8,Nick_Dissertation_EX1,1,318,2020-07-08T15:14:12-07:00,15.417407035828,2,versionA_stim.csv,READVersionB.csv,"Read Version B","Dissertation, read only version B",EDITOR,NEWS,Study1,F,10,9,Test,User,-,,Recall,Recall2,14929,NEWS,100,13720,14150,1,1,,1
5ee28e445c4bda79bb152afc,kb6g2g92o8,Nick_Dissertation_EX1,1,319,2020-07-08T15:14:14-07:00,1.7186980247498,2,versionA_stim.csv,READVersionB.csv,"Read Version B","Dissertation, read only version B",LIFT,WOMAN,Study1,U,69,22,Test,User,-,,Recall,Recall2,1315,,0,-1,-1,0,0,,1
5ee28e445c4bda79bb152afc,kb6g2g92o8,Nick_Dissertation_EX1,1,320,2020-07-08T15:14:17-07:00,3.0340249538422,2,versionA_stim.csv,READVersionB.csv,"Read Version B","Dissertation, read only version B",WINE,CHEESE,Study1,S,57,73,Test,User,-,,Recall,Recall2,2517,RED,22.222222222222,1904,2144,0,0,,1
5ee28e445c4bda79bb152afc,kb6g2g92o8,Nick_Dissertation_EX1,1,321,2020-07-08T15:14:19-07:00,1.4970228672028,2,versionA_stim.csv,READVersionB.csv,"Read Version B","Dissertation, read only version B",DIGESTION,STOMACH,Study1,F,7,17,Test,User,-,,Recall,Recall2,1121,,0,-1,-1,0,0,,1
5ee28e445c4bda79bb152afc,kb6g2g92o8,Nick_Dissertation_EX1,1,322,2020-07-08T15:14:20-07:00,1.2618570327759,2,versionA_stim.csv,READVersionB.csv,"Read Version B","Dissertation, read only version B",PAW,DOG,Study1,F,15,80,Test,User,-,,Recall,Recall2,894,,0,-1,-1,0,0,,1
5ee28e445c4bda79bb152afc,kb6g2g92o8,Nick_Dissertation_EX1,1,323,2020-07-08T15:14:22-07:00,2.4144270420074,2,versionA_stim.csv,READVersionB.csv,"Read Version B","Dissertation, read only version B",TAKE,SEIZE,Study1,B,29,47,Test,User,-,,Recall,Recall2,1874,,0,-1,-1,0,0,,1
5ee28e445c4bda79bb152afc,kb6g2g92o8,Nick_Dissertation_EX1,1,324,2020-07-08T15:14:24-07:00,1.4933969974518,2,versionA_stim.csv,READVersionB.csv,"Read Version B","Dissertation, read only version B",BALL,RACKET,Study1,B,38,13,Test,User,-,,Recall,Recall2,1121,,0,-1,-1,0,0,,1
5ee28e445c4bda79bb152afc,kb6g2g92o8,Nick_Dissertation_EX1,1,325,2020-07-08T15:14:28-07:00,4.0813889503479,2,versionA_stim.csv,READVersionB.csv,"Read Version B","Dissertation, read only version B",PARK,HUNGRY,Study1,U,68,42,Test,User,-,,Recall,Recall2,3563,,0,-1,-1,0,0,,1
5ee28e445c4bda79bb152afc,kb6g2g92o8,Nick_Dissertation_EX1,1,326,2020-07-08T15:14:29-07:00,1.6046199798584,2,versionA_stim.csv,READVersionB.csv,"Read Version B","Dissertation, read only version B",GRILL,BAR,Study1,S,52,66,Test,User,-,,Recall,Recall2,1223,,0,-1,-1,0,0,,1
5ee28e445c4bda79bb152afc,kb6g2g92o8,Nick_Dissertation_EX1,1,327,2020-07-08T15:14:48-07:00,18.210798978806,2,versionA_stim.csv,READVersionB.csv,"Read Version B","Dissertation, read only version B",MEANING,DEFINITION,Study1,S,62,44,Test,User,-,,Recall,Recall2,17696,DEFINITION,100,14090,16620,1,1,,1
5ee28e445c4bda79bb152afc,kb6g2g92o8,Nick_Dissertation_EX1,1,328,2020-07-08T15:14:49-07:00,1.3144919872284,2,versionA_stim.csv,READVersionB.csv,"Read Version B","Dissertation, read only version B",SWAN,BIRD,Study1,F,14,34,Test,User,-,,Recall,Recall2,925,,0,-1,-1,0,0,,1
5ee28e445c4bda79bb152afc,kb6g2g92o8,Nick_Dissertation_EX1,1,329,2020-07-08T15:14:50-07:00,1.2598521709442,2,versionA_stim.csv,READVersionB.csv,"Read Version B","Dissertation, read only version B",GREAT,FANTASTIC,Study1,B,35,40,Test,User,-,,Recall,Recall2,887,,0,-1,-1,0,0,,1
5ee28e445c4bda79bb152afc,kb6g2g92o8,Nick_Dissertation_EX1,1,330,2020-07-08T15:15:02-07:00,11.487393856049,2,versionA_stim.csv,READVersionB.csv,"Read Version B","Dissertation, read only version B",DEATH,BUSINESS,Study1,U,72,53,Test,User,-,,Recall,Recall2,10977,WAR,0,10216,10577,0,0,,1
5ee28e445c4bda79bb152afc,kb6g2g92o8,Nick_Dissertation_EX1,1,331,2020-07-08T15:15:04-07:00,1.952721118927,2,versionA_stim.csv,READVersionB.csv,"Read Version B","Dissertation, read only version B",SLEEP,DROWSY,Study1,B,41,74,Test,User,-,,Recall,Recall2,1538,,0,-1,-1,0,0,,1
5ee28e445c4bda79bb152afc,kb6g2g92o8,Nick_Dissertation_EX1,1,332,2020-07-08T15:15:05-07:00,1.310142993927,2,versionA_stim.csv,READVersionB.csv,"Read Version B","Dissertation, read only version B",HONEY,BEE,Study1,S,63,30,Test,User,-,,Recall,Recall2,902,,0,-1,-1,0,0,,1
5ee28e445c4bda79bb152afc,kb6g2g92o8,Nick_Dissertation_EX1,1,333,2020-07-08T15:15:06-07:00,1.0721070766449,2,versionA_stim.csv,READVersionB.csv,"Read Version B","Dissertation, read only version B",KIDNEY,LIVER,Study1,S,53,64,Test,User,-,,Recall,Recall2,702,,0,-1,-1,0,0,,1
5ee28e445c4bda79bb152afc,kb6g2g92o8,Nick_Dissertation_EX1,1,334,2020-07-08T15:15:10-07:00,4.0015568733215,2,versionA_stim.csv,READVersionB.csv,"Read Version B","Dissertation, read only version B",HORNET,STING,Study1,F,11,67,Test,User,-,,Recall,Recall2,3504,STING,100,1530,2260,1,1,,1
5ee28e445c4bda79bb152afc,kb6g2g92o8,Nick_Dissertation_EX1,1,335,2020-07-08T15:15:12-07:00,1.4826879501343,2,versionA_stim.csv,READVersionB.csv,"Read Version B","Dissertation, read only version B",SMELL,STENCH,Study1,B,42,70,Test,User,-,,Recall,Recall2,1096,,0,-1,-1,0,0,,1
5ee28e445c4bda79bb152afc,kb6g2g92o8,Nick_Dissertation_EX1,1,336,2020-07-08T15:15:14-07:00,2.6904621124268,2,versionA_stim.csv,READVersionB.csv,"Read Version B","Dissertation, read only version B",NUMBER,AMOUNT,Study1,S,47,31,Test,User,-,,Recall,Recall2,2206,,0,-1,-1,0,0,,1
5ee28e445c4bda79bb152afc,kb6g2g92o8,Nick_Dissertation_EX1,1,337,2020-07-08T15:15:17-07:00,3.061940908432,2,versionA_stim.csv,READVersionB.csv,"Read Version B","Dissertation, read only version B",BITTER,COLD,Study1,F,12,57,Test,User,-,,Recall,Recall2,2576,,0,-1,-1,0,0,,1
5ee28e445c4bda79bb152afc,kb6g2g92o8,Nick_Dissertation_EX1,1,338,2020-07-08T15:15:19-07:00,1.9591479301453,2,versionA_stim.csv,READVersionB.csv,"Read Version B","Dissertation, read only version B",DARK,CAVE,Study1,B,28,38,Test,User,-,,Recall,Recall2,1562,,0,-1,-1,0,0,,1
5ee28e445c4bda79bb152afc,kb6g2g92o8,Nick_Dissertation_EX1,1,339,2020-07-08T15:15:21-07:00,1.8908271789551,2,versionA_stim.csv,READVersionB.csv,"Read Version B","Dissertation, read only version B",GEOLOGY,ROCK,Study1,F,19,50,Test,User,-,,Recall,Recall2,1509,,0,-1,-1,0,0,,1
5ee28e445c4bda79bb152afc,kb6g2g92o8,Nick_Dissertation_EX1,1,340,2020-07-08T15:15:23-07:00,1.8973619937897,2,versionA_stim.csv,READVersionB.csv,"Read Version B","Dissertation, read only version B",WAY,OUT,Study1,F,16,14,Test,User,-,,Recall,Recall2,1514,,0,-1,-1,0,0,,1
5ee28e445c4bda79bb152afc,kb6g2g92o8,Nick_Dissertation_EX1,1,341,2020-07-08T15:15:26-07:00,3.2119100093842,2,versionA_stim.csv,READVersionB.csv,"Read Version B","Dissertation, read only version B",HYGIENE,CLEAN,Study1,F,17,23,Test,User,-,,Recall,Recall2,2720,,0,-1,-1,0,0,,1
5ee28e445c4bda79bb152afc,kb6g2g92o8,Nick_Dissertation_EX1,1,342,2020-07-08T15:15:31-07:00,4.2730560302734,2,versionA_stim.csv,READVersionB.csv,"Read Version B","Dissertation, read only version B",STRONG,ACCIDENT,Study1,U,80,29,Test,User,-,,Recall,Recall2,3764,,0,-1,-1,0,0,,1
5ee28e445c4bda79bb152afc,kb6g2g92o8,Nick_Dissertation_EX1,1,343,2020-07-08T15:15:37-07:00,6.7643718719482,2,versionA_stim.csv,READVersionB.csv,"Read Version B","Dissertation, read only version B",DIETARY,SACKING,Study1,U,67,85,Test,User,-,,Recall,Recall2,6268,,0,-1,-1,0,0,,1
5ee28e445c4bda79bb152afc,kb6g2g92o8,Nick_Dissertation_EX1,1,344,2020-07-08T15:15:39-07:00,1.6271650791168,2,versionA_stim.csv,READVersionB.csv,"Read Version B","Dissertation, read only version B",PUSHER,CLUTTER,Study1,U,66,58,Test,User,-,,Recall,Recall2,1245,,0,-1,-1,0,0,,1
5ee28e445c4bda79bb152afc,kb6g2g92o8,Nick_Dissertation_EX1,1,345,2020-07-08T15:15:43-07:00,3.940328836441,2,versionA_stim.csv,READVersionB.csv,"Read Version B","Dissertation, read only version B",LAW,ATTORNEY,Study1,B,34,7,Test,User,-,,Recall,Recall2,3452,ORDER,46.153846153846,2210,2769,0,0,,1
5ee28e445c4bda79bb152afc,kb6g2g92o8,Nick_Dissertation_EX1,1,346,2020-07-08T15:15:44-07:00,1.3425040245056,2,versionA_stim.csv,READVersionB.csv,"Read Version B","Dissertation, read only version B",ROOT,PLANT,Study1,F,13,68,Test,User,-,,Recall,Recall2,963,,0,-1,-1,0,0,,1
5ee28e445c4bda79bb152afc,kb6g2g92o8,Nick_Dissertation_EX1,1,347,2020-07-08T15:15:49-07:00,4.4052979946136,2,versionA_stim.csv,READVersionB.csv,"Read Version B","Dissertation, read only version B",PLANE,PILOT,Study1,B,44,46,Test,User,-,,Recall,Recall2,3876,PILOT,100,1994,2874,1,1,,1
5ee28e445c4bda79bb152afc,kb6g2g92o8,Nick_Dissertation_EX1,1,348,2020-07-08T15:15:50-07:00,1.365375995636,2,versionA_stim.csv,READVersionB.csv,"Read Version B","Dissertation, read only version B",BRIDGE,WATER,Study1,F,18,8,Test,User,-,,Recall,Recall2,986,,0,-1,-1,0,0,,1
5ee28e445c4bda79bb152afc,kb6g2g92o8,Nick_Dissertation_EX1,1,349,2020-07-08T15:15:51-07:00,1.4322710037231,2,versionA_stim.csv,READVersionB.csv,"Read Version B","Dissertation, read only version B",,,,,,0,Instruct,User,-,"You have completed this section. Please press Enter.",,Instruct7,1040,,,-1,-1,,,,1
5ee28e445c4bda79bb152afc,kb6g2g92o8,Nick_Dissertation_EX1,1,350,2020-07-08T15:15:54-07:00,2.9535710811615,2,versionA_stim.csv,READVersionB.csv,"Read Version B","Dissertation, read only version B",,,,,,0,Instruct,User,-,"The following screen will ask you a few questions abour your experience today. You must complete these questions to receive credit.",,Instruct8,2473,,,-1,-1,,,,1
