Username,ID,ExperimentName,Session,Trial,Date,TimeDif,"Condition Number","Stimuli File","Order File","Condition Description","Condition Notes",Stimuli*Cue,Stimuli*Answer,Stimuli*Shuffle,"Stimuli*Stimuli Notes",Stimuli*Value,Procedure*Item,"Procedure*Trial Type","Procedure*Max Time","Procedure*Min Time",Procedure*Text,"Procedure*Procedure Notes",Procedure*Shuffle,Response*RT,Response*Response,Response*Accuracy,Response*RTfirst,Response*RTlast,Response*strictAcc,Response*lenientAcc,Response*focus,Response*Focus
5c707357011e2900019d3707,yxt5blo5e2,Nick_Dissertation_EX1,1,1,2020-07-08T14:54:18-07:00,16.964061975479,2,versionA_stim.csv,READVersionB.csv,"Read Version B","Dissertation, read only version B",,,,,,0,Instruct,-,10,"Please study each of the following word pairs. Remember that your memory will be tested! When finished, press Enter to move to the next pair.",Initial_Instruct,Instruct1,16736,,,-1,-1,,,,1
5c707357011e2900019d3707,yxt5blo5e2,Nick_Dissertation_EX1,1,2,2020-07-08T14:54:20-07:00,2.0399060249329,2,versionA_stim.csv,READVersionB.csv,"Read Version B","Dissertation, read only version B",SHRIMP,FISH,BUFFER3,Buffer,93,93,Study,User,-,,Study/JOL,BUFFER,1761,,,-1,-1,,,,1
5c707357011e2900019d3707,yxt5blo5e2,Nick_Dissertation_EX1,1,3,2020-07-08T14:54:23-07:00,2.6800758838654,2,versionA_stim.csv,READVersionB.csv,"Read Version B","Dissertation, read only version B",CAMP,ADVENTURE,BUFFER3,Buffer,95,96,Study,User,-,,Study/JOL,BUFFER,2346,,,-1,-1,,,,1
5c707357011e2900019d3707,yxt5blo5e2,Nick_Dissertation_EX1,1,4,2020-07-08T14:54:24-07:00,1.38214802742,2,versionA_stim.csv,READVersionB.csv,"Read Version B","Dissertation, read only version B",ICE,FROZEN,BUFFER3,Buffer,94,95,Study,User,-,,Study/JOL,BUFFER,1131,,,-1,-1,,,,1
5c707357011e2900019d3707,yxt5blo5e2,Nick_Dissertation_EX1,1,5,2020-07-08T14:54:26-07:00,1.5614900588989,2,versionA_stim.csv,READVersionB.csv,"Read Version B","Dissertation, read only version B",CARROT,POTATO,BUFFER3,Buffer,91,92,Study,User,-,,Study/JOL,BUFFER,1307,,,-1,-1,,,,1
5c707357011e2900019d3707,yxt5blo5e2,Nick_Dissertation_EX1,1,6,2020-07-08T14:54:27-07:00,1.0596539974213,2,versionA_stim.csv,READVersionB.csv,"Read Version B","Dissertation, read only version B",NOODLE,STRING,BUFFER3,Buffer,92,94,Study,User,-,,Study/JOL,BUFFER,803,,,-1,-1,,,,1
5c707357011e2900019d3707,yxt5blo5e2,Nick_Dissertation_EX1,1,7,2020-07-08T14:54:29-07:00,1.4006779193878,2,versionA_stim.csv,READVersionB.csv,"Read Version B","Dissertation, read only version B",TEMPERATURE,Morning,Study2,U,173,151,Study,User,-,,Study/JOL,"Study Phase",1140,,,-1,-1,,,,1
5c707357011e2900019d3707,yxt5blo5e2,Nick_Dissertation_EX1,1,8,2020-07-08T14:54:30-07:00,1.0525691509247,2,versionA_stim.csv,READVersionB.csv,"Read Version B","Dissertation, read only version B",MOAT,CLEAR,Study2,U,169,139,Study,User,-,,Study/JOL,"Study Phase",784,,,-1,-1,,,,1
5c707357011e2900019d3707,yxt5blo5e2,Nick_Dissertation_EX1,1,9,2020-07-08T14:54:31-07:00,1.1237428188324,2,versionA_stim.csv,READVersionB.csv,"Read Version B","Dissertation, read only version B",SAFETY,SEATBELT,Study2,S,147,109,Study,User,-,,Study/JOL,"Study Phase",867,,,-1,-1,,,,1
5c707357011e2900019d3707,yxt5blo5e2,Nick_Dissertation_EX1,1,10,2020-07-08T14:54:32-07:00,1.1022300720215,2,versionA_stim.csv,READVersionB.csv,"Read Version B","Dissertation, read only version B",FIGHT,BRAWL,Study2,B,135,162,Study,User,-,,Study/JOL,"Study Phase",850,,,-1,-1,,,,1
5c707357011e2900019d3707,yxt5blo5e2,Nick_Dissertation_EX1,1,11,2020-07-08T14:54:33-07:00,0.9439389705658,2,versionA_stim.csv,READVersionB.csv,"Read Version B","Dissertation, read only version B",DRY,WET,Study2,S,146,154,Study,User,-,,Study/JOL,"Study Phase",693,,,-1,-1,,,,1
5c707357011e2900019d3707,yxt5blo5e2,Nick_Dissertation_EX1,1,12,2020-07-08T14:54:34-07:00,1.0566239356995,2,versionA_stim.csv,READVersionB.csv,"Read Version B","Dissertation, read only version B",BIRD,PENGUIN,Study2,B,119,167,Study,User,-,,Study/JOL,"Study Phase",792,,,-1,-1,,,,1
5c707357011e2900019d3707,yxt5blo5e2,Nick_Dissertation_EX1,1,13,2020-07-08T14:54:35-07:00,1.0898280143738,2,versionA_stim.csv,READVersionB.csv,"Read Version B","Dissertation, read only version B",THREAD,THIMBLE,Study2,B,121,126,Study,User,-,,Study/JOL,"Study Phase",818,,,-1,-1,,,,1
5c707357011e2900019d3707,yxt5blo5e2,Nick_Dissertation_EX1,1,14,2020-07-08T14:54:36-07:00,1.297975063324,2,versionA_stim.csv,READVersionB.csv,"Read Version B","Dissertation, read only version B",GLASS,BREAKABLE,Study2,B,127,145,Study,User,-,,Study/JOL,"Study Phase",1036,,,-1,-1,,,,1
5c707357011e2900019d3707,yxt5blo5e2,Nick_Dissertation_EX1,1,15,2020-07-08T14:54:37-07:00,1.1456859111786,2,versionA_stim.csv,READVersionB.csv,"Read Version B","Dissertation, read only version B",WRIST,BRACELET,Study2,S,140,134,Study,User,-,,Study/JOL,"Study Phase",887,,,-1,-1,,,,1
5c707357011e2900019d3707,yxt5blo5e2,Nick_Dissertation_EX1,1,16,2020-07-08T14:54:39-07:00,1.2855100631714,2,versionA_stim.csv,READVersionB.csv,"Read Version B","Dissertation, read only version B",PLANE,AIRCRAFT,Study2,B,129,159,Study,User,-,,Study/JOL,"Study Phase",1031,,,-1,-1,,,,1
5c707357011e2900019d3707,yxt5blo5e2,Nick_Dissertation_EX1,1,17,2020-07-08T14:54:40-07:00,1.1195950508118,2,versionA_stim.csv,READVersionB.csv,"Read Version B","Dissertation, read only version B",FISH,SARDINE,Study2,B,130,99,Study,User,-,,Study/JOL,"Study Phase",864,,,-1,-1,,,,1
5c707357011e2900019d3707,yxt5blo5e2,Nick_Dissertation_EX1,1,18,2020-07-08T14:54:41-07:00,0.89068102836609,2,versionA_stim.csv,READVersionB.csv,"Read Version B","Dissertation, read only version B",BAD,VILLAIN,Study2,B,118,105,Study,User,-,,Study/JOL,"Study Phase",633,,,-1,-1,,,,1
5c707357011e2900019d3707,yxt5blo5e2,Nick_Dissertation_EX1,1,19,2020-07-08T14:54:42-07:00,0.91561985015869,2,versionA_stim.csv,READVersionB.csv,"Read Version B","Dissertation, read only version B",DOCUMENT,PAPER,Study2,F,109,98,Study,User,-,,Study/JOL,"Study Phase",657,,,-1,-1,,,,1
5c707357011e2900019d3707,yxt5blo5e2,Nick_Dissertation_EX1,1,20,2020-07-08T14:54:42-07:00,0.85084104537964,2,versionA_stim.csv,READVersionB.csv,"Read Version B","Dissertation, read only version B",SCALP,HEAD,Study2,F,105,175,Study,User,-,,Study/JOL,"Study Phase",585,,,-1,-1,,,,1
5c707357011e2900019d3707,yxt5blo5e2,Nick_Dissertation_EX1,1,21,2020-07-08T14:54:43-07:00,0.96457099914551,2,versionA_stim.csv,READVersionB.csv,"Read Version B","Dissertation, read only version B",INCENSE,SMELL,Study2,F,110,176,Study,User,-,,Study/JOL,"Study Phase",704,,,-1,-1,,,,1
5c707357011e2900019d3707,yxt5blo5e2,Nick_Dissertation_EX1,1,22,2020-07-08T14:54:44-07:00,0.87957096099854,2,versionA_stim.csv,READVersionB.csv,"Read Version B","Dissertation, read only version B",CHILL,COLD,Study2,F,114,173,Study,User,-,,Study/JOL,"Study Phase",626,,,-1,-1,,,,1
5c707357011e2900019d3707,yxt5blo5e2,Nick_Dissertation_EX1,1,23,2020-07-08T14:54:45-07:00,0.84094619750977,2,versionA_stim.csv,READVersionB.csv,"Read Version B","Dissertation, read only version B",WATER,DRINK,Study2,S,143,119,Study,User,-,,Study/JOL,"Study Phase",574,,,-1,-1,,,,1
5c707357011e2900019d3707,yxt5blo5e2,Nick_Dissertation_EX1,1,24,2020-07-08T14:54:46-07:00,1.0183370113373,2,versionA_stim.csv,READVersionB.csv,"Read Version B","Dissertation, read only version B",DEAD,COFFIN,Study2,B,128,137,Study,User,-,,Study/JOL,"Study Phase",764,,,-1,-1,,,,1
5c707357011e2900019d3707,yxt5blo5e2,Nick_Dissertation_EX1,1,25,2020-07-08T14:54:47-07:00,0.85237598419189,2,versionA_stim.csv,READVersionB.csv,"Read Version B","Dissertation, read only version B",BEST,FAVORITE,Study2,B,125,115,Study,User,-,,Study/JOL,"Study Phase",593,,,-1,-1,,,,1
5c707357011e2900019d3707,yxt5blo5e2,Nick_Dissertation_EX1,1,26,2020-07-08T14:54:48-07:00,1.0255398750305,2,versionA_stim.csv,READVersionB.csv,"Read Version B","Dissertation, read only version B",JUSTICE,MAROON,Study2,U,156,121,Study,User,-,,Study/JOL,"Study Phase",739,,,-1,-1,,,,1
5c707357011e2900019d3707,yxt5blo5e2,Nick_Dissertation_EX1,1,27,2020-07-08T14:54:49-07:00,1.0874350070953,2,versionA_stim.csv,READVersionB.csv,"Read Version B","Dissertation, read only version B",DETECTIVE,MYSTERY,Study2,F,100,163,Study,User,-,,Study/JOL,"Study Phase",830,,,-1,-1,,,,1
5c707357011e2900019d3707,yxt5blo5e2,Nick_Dissertation_EX1,1,28,2020-07-08T14:54:50-07:00,1.0341579914093,2,versionA_stim.csv,READVersionB.csv,"Read Version B","Dissertation, read only version B",LOAN,SIGN,Study2,U,171,169,Study,User,-,,Study/JOL,"Study Phase",778,,,-1,-1,,,,1
5c707357011e2900019d3707,yxt5blo5e2,Nick_Dissertation_EX1,1,29,2020-07-08T14:54:51-07:00,0.89377403259277,2,versionA_stim.csv,READVersionB.csv,"Read Version B","Dissertation, read only version B",ROD,REEL,Study2,S,150,157,Study,User,-,,Study/JOL,"Study Phase",640,,,-1,-1,,,,1
5c707357011e2900019d3707,yxt5blo5e2,Nick_Dissertation_EX1,1,30,2020-07-08T14:54:52-07:00,0.81031107902527,2,versionA_stim.csv,READVersionB.csv,"Read Version B","Dissertation, read only version B",DINE,EAT,Study2,F,111,117,Study,User,-,,Study/JOL,"Study Phase",540,,,-1,-1,,,,1
5c707357011e2900019d3707,yxt5blo5e2,Nick_Dissertation_EX1,1,31,2020-07-08T14:54:54-07:00,2.3929040431976,2,versionA_stim.csv,READVersionB.csv,"Read Version B","Dissertation, read only version B",RAZOR,SHAVE,Study2,S,136,142,Study,User,-,,Study/JOL,"Study Phase",1138,,,-1,-1,,,,1
5c707357011e2900019d3707,yxt5blo5e2,Nick_Dissertation_EX1,1,32,2020-07-08T14:54:56-07:00,1.4298958778381,2,versionA_stim.csv,READVersionB.csv,"Read Version B","Dissertation, read only version B",OWN,HAVE,Study2,S,153,118,Study,User,-,,Study/JOL,"Study Phase",1172,,,-1,-1,,,,1
5c707357011e2900019d3707,yxt5blo5e2,Nick_Dissertation_EX1,1,33,2020-07-08T14:54:57-07:00,1.5150129795074,2,versionA_stim.csv,READVersionB.csv,"Read Version B","Dissertation, read only version B",PHONE,COMMUNICATION,Study2,S,149,160,Study,User,-,,Study/JOL,"Study Phase",1257,,,-1,-1,,,,1
5c707357011e2900019d3707,yxt5blo5e2,Nick_Dissertation_EX1,1,34,2020-07-08T14:54:58-07:00,1.3106260299683,2,versionA_stim.csv,READVersionB.csv,"Read Version B","Dissertation, read only version B",Shell,SHAKE,Study2,U,163,102,Study,User,-,,Study/JOL,"Study Phase",1052,,,-1,-1,,,,1
5c707357011e2900019d3707,yxt5blo5e2,Nick_Dissertation_EX1,1,35,2020-07-08T14:55:00-07:00,1.1118531227112,2,versionA_stim.csv,READVersionB.csv,"Read Version B","Dissertation, read only version B",MASON,JAR,Study2,S,138,144,Study,User,-,,Study/JOL,"Study Phase",852,,,-1,-1,,,,1
5c707357011e2900019d3707,yxt5blo5e2,Nick_Dissertation_EX1,1,36,2020-07-08T14:55:01-07:00,1.1386277675629,2,versionA_stim.csv,READVersionB.csv,"Read Version B","Dissertation, read only version B",ALONE,LONELY,Study2,S,145,113,Study,User,-,,Study/JOL,"Study Phase",837,,,-1,-1,,,,1
5c707357011e2900019d3707,yxt5blo5e2,Nick_Dissertation_EX1,1,37,2020-07-08T14:55:02-07:00,1.1152122020721,2,versionA_stim.csv,READVersionB.csv,"Read Version B","Dissertation, read only version B",GONE,AWAY,Study2,S,142,103,Study,User,-,,Study/JOL,"Study Phase",861,,,-1,-1,,,,1
5c707357011e2900019d3707,yxt5blo5e2,Nick_Dissertation_EX1,1,38,2020-07-08T14:55:03-07:00,0.98342490196228,2,versionA_stim.csv,READVersionB.csv,"Read Version B","Dissertation, read only version B",MEAT,OBTAIN,Study2,U,161,147,Study,User,-,,Study/JOL,"Study Phase",725,,,-1,-1,,,,1
5c707357011e2900019d3707,yxt5blo5e2,Nick_Dissertation_EX1,1,39,2020-07-08T14:55:04-07:00,1.2617599964142,2,versionA_stim.csv,READVersionB.csv,"Read Version B","Dissertation, read only version B",FUZZY,BANG,Study2,U,168,158,Study,User,-,,Study/JOL,"Study Phase",971,,,-1,-1,,,,1
5c707357011e2900019d3707,yxt5blo5e2,Nick_Dissertation_EX1,1,40,2020-07-08T14:55:05-07:00,1.2048330307007,2,versionA_stim.csv,READVersionB.csv,"Read Version B","Dissertation, read only version B",CAR,WINDSHIELD,Study2,B,117,116,Study,User,-,,Study/JOL,"Study Phase",836,,,-1,-1,,,,1
5c707357011e2900019d3707,yxt5blo5e2,Nick_Dissertation_EX1,1,41,2020-07-08T14:55:06-07:00,0.98575091362,2,versionA_stim.csv,READVersionB.csv,"Read Version B","Dissertation, read only version B",KEYS,JOKE,Study2,U,165,108,Study,User,-,,Study/JOL,"Study Phase",662,,,-1,-1,,,,1
5c707357011e2900019d3707,yxt5blo5e2,Nick_Dissertation_EX1,1,42,2020-07-08T14:55:07-07:00,1.0651500225067,2,versionA_stim.csv,READVersionB.csv,"Read Version B","Dissertation, read only version B",LEASE,TOIL,Study2,U,170,138,Study,User,-,,Study/JOL,"Study Phase",754,,,-1,-1,,,,1
5c707357011e2900019d3707,yxt5blo5e2,Nick_Dissertation_EX1,1,43,2020-07-08T14:55:08-07:00,1.1149959564209,2,versionA_stim.csv,READVersionB.csv,"Read Version B","Dissertation, read only version B",MULE,DONKEY,Study2,F,108,97,Study,User,-,,Study/JOL,"Study Phase",705,,,-1,-1,,,,1
5c707357011e2900019d3707,yxt5blo5e2,Nick_Dissertation_EX1,1,44,2020-07-08T14:55:10-07:00,1.2449171543121,2,versionA_stim.csv,READVersionB.csv,"Read Version B","Dissertation, read only version B",CAT,PANTHER,Study2,B,126,174,Study,User,-,,Study/JOL,"Study Phase",841,,,-1,-1,,,,1
5c707357011e2900019d3707,yxt5blo5e2,Nick_Dissertation_EX1,1,45,2020-07-08T14:55:11-07:00,1.0101609230042,2,versionA_stim.csv,READVersionB.csv,"Read Version B","Dissertation, read only version B",FRUIT,STRAWBERRY,Study2,B,124,123,Study,User,-,,Study/JOL,"Study Phase",711,,,-1,-1,,,,1
5c707357011e2900019d3707,yxt5blo5e2,Nick_Dissertation_EX1,1,46,2020-07-08T14:55:12-07:00,1.4818980693817,2,versionA_stim.csv,READVersionB.csv,"Read Version B","Dissertation, read only version B",LISTEN,FICTION,Study2,U,164,146,Study,User,-,,Study/JOL,"Study Phase",1184,,,-1,-1,,,,1
5c707357011e2900019d3707,yxt5blo5e2,Nick_Dissertation_EX1,1,47,2020-07-08T14:55:14-07:00,1.4311249256134,2,versionA_stim.csv,READVersionB.csv,"Read Version B","Dissertation, read only version B",FURRY,DOG,Study2,F,102,120,Study,User,-,,Study/JOL,"Study Phase",1174,,,-1,-1,,,,1
5c707357011e2900019d3707,yxt5blo5e2,Nick_Dissertation_EX1,1,48,2020-07-08T14:55:15-07:00,1.3148610591888,2,versionA_stim.csv,READVersionB.csv,"Read Version B","Dissertation, read only version B",FLEA,TICK,Study2,S,151,170,Study,User,-,,Study/JOL,"Study Phase",1057,,,-1,-1,,,,1
5c707357011e2900019d3707,yxt5blo5e2,Nick_Dissertation_EX1,1,49,2020-07-08T14:55:16-07:00,1.2429099082947,2,versionA_stim.csv,READVersionB.csv,"Read Version B","Dissertation, read only version B",GIVE,STEAK,Study2,U,158,124,Study,User,-,,Study/JOL,"Study Phase",985,,,-1,-1,,,,1
5c707357011e2900019d3707,yxt5blo5e2,Nick_Dissertation_EX1,1,50,2020-07-08T14:55:17-07:00,0.90034794807434,2,versionA_stim.csv,READVersionB.csv,"Read Version B","Dissertation, read only version B",CHOP,CUT,Study2,F,107,166,Study,User,-,,Study/JOL,"Study Phase",645,,,-1,-1,,,,1
5c707357011e2900019d3707,yxt5blo5e2,Nick_Dissertation_EX1,1,51,2020-07-08T14:55:18-07:00,1.2805850505829,2,versionA_stim.csv,READVersionB.csv,"Read Version B","Dissertation, read only version B",SHOELACE,TIE,Study2,F,99,107,Study,User,-,,Study/JOL,"Study Phase",1021,,,-1,-1,,,,1
5c707357011e2900019d3707,yxt5blo5e2,Nick_Dissertation_EX1,1,52,2020-07-08T14:55:19-07:00,1.0359160900116,2,versionA_stim.csv,READVersionB.csv,"Read Version B","Dissertation, read only version B",TANTRUM,TEMPER,Study2,S,154,152,Study,User,-,,Study/JOL,"Study Phase",781,,,-1,-1,,,,1
5c707357011e2900019d3707,yxt5blo5e2,Nick_Dissertation_EX1,1,53,2020-07-08T14:55:20-07:00,1.0427689552307,2,versionA_stim.csv,READVersionB.csv,"Read Version B","Dissertation, read only version B",CANDLE,WAX,Study2,S,139,112,Study,User,-,,Study/JOL,"Study Phase",787,,,-1,-1,,,,1
5c707357011e2900019d3707,yxt5blo5e2,Nick_Dissertation_EX1,1,54,2020-07-08T14:55:22-07:00,1.268189907074,2,versionA_stim.csv,READVersionB.csv,"Read Version B","Dissertation, read only version B",MAZE,ELECTION,Study2,U,159,149,Study,User,-,,Study/JOL,"Study Phase",943,,,-1,-1,,,,1
5c707357011e2900019d3707,yxt5blo5e2,Nick_Dissertation_EX1,1,55,2020-07-08T14:55:23-07:00,1.2531781196594,2,versionA_stim.csv,READVersionB.csv,"Read Version B","Dissertation, read only version B",MIRROR,CHILDREN,Study2,U,174,104,Study,User,-,,Study/JOL,"Study Phase",994,,,-1,-1,,,,1
5c707357011e2900019d3707,yxt5blo5e2,Nick_Dissertation_EX1,1,56,2020-07-08T14:55:24-07:00,1.1241929531097,2,versionA_stim.csv,READVersionB.csv,"Read Version B","Dissertation, read only version B",MAIN,SCAR,Study2,U,175,143,Study,User,-,,Study/JOL,"Study Phase",871,,,-1,-1,,,,1
5c707357011e2900019d3707,yxt5blo5e2,Nick_Dissertation_EX1,1,57,2020-07-08T14:55:25-07:00,1.3001470565796,2,versionA_stim.csv,READVersionB.csv,"Read Version B","Dissertation, read only version B",FEUD,FIGHT,Study2,F,113,150,Study,User,-,,Study/JOL,"Study Phase",1046,,,-1,-1,,,,1
5c707357011e2900019d3707,yxt5blo5e2,Nick_Dissertation_EX1,1,58,2020-07-08T14:55:26-07:00,1.1384379863739,2,versionA_stim.csv,READVersionB.csv,"Read Version B","Dissertation, read only version B",SHEARS,SCISSORS,Study2,F,112,164,Study,User,-,,Study/JOL,"Study Phase",882,,,-1,-1,,,,1
5c707357011e2900019d3707,yxt5blo5e2,Nick_Dissertation_EX1,1,59,2020-07-08T14:55:28-07:00,1.1312389373779,2,versionA_stim.csv,READVersionB.csv,"Read Version B","Dissertation, read only version B",CRACKLE,ABLE,Study2,U,162,132,Study,User,-,,Study/JOL,"Study Phase",874,,,-1,-1,,,,1
5c707357011e2900019d3707,yxt5blo5e2,Nick_Dissertation_EX1,1,60,2020-07-08T14:55:29-07:00,1.4972360134125,2,versionA_stim.csv,READVersionB.csv,"Read Version B","Dissertation, read only version B",EARTH,GROUND,Study2,S,144,168,Study,User,-,,Study/JOL,"Study Phase",1221,,,-1,-1,,,,1
5c707357011e2900019d3707,yxt5blo5e2,Nick_Dissertation_EX1,1,61,2020-07-08T14:55:31-07:00,1.8519251346588,2,versionA_stim.csv,READVersionB.csv,"Read Version B","Dissertation, read only version B",TRUTH,LIE,Study2,S,148,141,Study,User,-,,Study/JOL,"Study Phase",585,,,-1,-1,,,,1
5c707357011e2900019d3707,yxt5blo5e2,Nick_Dissertation_EX1,1,62,2020-07-08T14:55:32-07:00,0.87633585929871,2,versionA_stim.csv,READVersionB.csv,"Read Version B","Dissertation, read only version B",STAR,ACTRESS,Study2,B,120,106,Study,User,-,,Study/JOL,"Study Phase",621,,,-1,-1,,,,1
5c707357011e2900019d3707,yxt5blo5e2,Nick_Dissertation_EX1,1,63,2020-07-08T14:55:33-07:00,0.98309993743896,2,versionA_stim.csv,READVersionB.csv,"Read Version B","Dissertation, read only version B",ELEMENT,CARBON,Study2,S,141,165,Study,User,-,,Study/JOL,"Study Phase",726,,,-1,-1,,,,1
5c707357011e2900019d3707,yxt5blo5e2,Nick_Dissertation_EX1,1,64,2020-07-08T14:55:34-07:00,1.026495218277,2,versionA_stim.csv,READVersionB.csv,"Read Version B","Dissertation, read only version B",LOUD,NOISE,Study2,S,152,125,Study,User,-,,Study/JOL,"Study Phase",767,,,-1,-1,,,,1
5c707357011e2900019d3707,yxt5blo5e2,Nick_Dissertation_EX1,1,65,2020-07-08T14:55:35-07:00,0.92616391181946,2,versionA_stim.csv,READVersionB.csv,"Read Version B","Dissertation, read only version B",ADJOURN,END,Study2,F,101,156,Study,User,-,,Study/JOL,"Study Phase",665,,,-1,-1,,,,1
5c707357011e2900019d3707,yxt5blo5e2,Nick_Dissertation_EX1,1,66,2020-07-08T14:55:36-07:00,1.0902369022369,2,versionA_stim.csv,READVersionB.csv,"Read Version B","Dissertation, read only version B",POP,BALLOON,Study2,B,123,155,Study,User,-,,Study/JOL,"Study Phase",832,,,-1,-1,,,,1
5c707357011e2900019d3707,yxt5blo5e2,Nick_Dissertation_EX1,1,67,2020-07-08T14:55:37-07:00,0.94453597068787,2,versionA_stim.csv,READVersionB.csv,"Read Version B","Dissertation, read only version B",DRIVER,CAR,Study2,F,106,100,Study,User,-,,Study/JOL,"Study Phase",685,,,-1,-1,,,,1
5c707357011e2900019d3707,yxt5blo5e2,Nick_Dissertation_EX1,1,68,2020-07-08T14:55:38-07:00,0.97616410255432,2,versionA_stim.csv,READVersionB.csv,"Read Version B","Dissertation, read only version B",SLEEP,NAP,Study2,B,134,136,Study,User,-,,Study/JOL,"Study Phase",722,,,-1,-1,,,,1
5c707357011e2900019d3707,yxt5blo5e2,Nick_Dissertation_EX1,1,69,2020-07-08T14:55:39-07:00,0.92531704902649,2,versionA_stim.csv,READVersionB.csv,"Read Version B","Dissertation, read only version B",TURN,FLIP,Study2,B,116,110,Study,User,-,,Study/JOL,"Study Phase",669,,,-1,-1,,,,1
5c707357011e2900019d3707,yxt5blo5e2,Nick_Dissertation_EX1,1,70,2020-07-08T14:55:40-07:00,0.92767906188965,2,versionA_stim.csv,READVersionB.csv,"Read Version B","Dissertation, read only version B",LITTER,TRASH,Study2,F,103,133,Study,User,-,,Study/JOL,"Study Phase",675,,,-1,-1,,,,1
5c707357011e2900019d3707,yxt5blo5e2,Nick_Dissertation_EX1,1,71,2020-07-08T14:55:41-07:00,0.89302682876587,2,versionA_stim.csv,READVersionB.csv,"Read Version B","Dissertation, read only version B",VEHICLE,CHARM,Study2,U,160,131,Study,User,-,,Study/JOL,"Study Phase",634,,,-1,-1,,,,1
5c707357011e2900019d3707,yxt5blo5e2,Nick_Dissertation_EX1,1,72,2020-07-08T14:55:41-07:00,0.93510603904724,2,versionA_stim.csv,READVersionB.csv,"Read Version B","Dissertation, read only version B",STRETCH,CLOTH,Study2,U,157,171,Study,User,-,,Study/JOL,"Study Phase",676,,,-1,-1,,,,1
5c707357011e2900019d3707,yxt5blo5e2,Nick_Dissertation_EX1,1,73,2020-07-08T14:55:42-07:00,0.97200512886047,2,versionA_stim.csv,READVersionB.csv,"Read Version B","Dissertation, read only version B",BASEBALL,LEAGUE,Study2,B,131,111,Study,User,-,,Study/JOL,"Study Phase",713,,,-1,-1,,,,1
5c707357011e2900019d3707,yxt5blo5e2,Nick_Dissertation_EX1,1,74,2020-07-08T14:55:43-07:00,0.84886884689331,2,versionA_stim.csv,READVersionB.csv,"Read Version B","Dissertation, read only version B",SUN,TAN,Study2,S,155,140,Study,User,-,,Study/JOL,"Study Phase",590,,,-1,-1,,,,1
5c707357011e2900019d3707,yxt5blo5e2,Nick_Dissertation_EX1,1,75,2020-07-08T14:55:44-07:00,1.0388770103455,2,versionA_stim.csv,READVersionB.csv,"Read Version B","Dissertation, read only version B",MONEY,BANKER,Study2,B,132,114,Study,User,-,,Study/JOL,"Study Phase",783,,,-1,-1,,,,1
5c707357011e2900019d3707,yxt5blo5e2,Nick_Dissertation_EX1,1,76,2020-07-08T14:55:45-07:00,0.80912804603577,2,versionA_stim.csv,READVersionB.csv,"Read Version B","Dissertation, read only version B",CLUE,GAME,Study2,F,97,161,Study,User,-,,Study/JOL,"Study Phase",544,,,-1,-1,,,,1
5c707357011e2900019d3707,yxt5blo5e2,Nick_Dissertation_EX1,1,77,2020-07-08T14:55:46-07:00,1.0405979156494,2,versionA_stim.csv,READVersionB.csv,"Read Version B","Dissertation, read only version B",CAKE,CLOTHES,Study2,U,166,148,Study,User,-,,Study/JOL,"Study Phase",781,,,-1,-1,,,,1
5c707357011e2900019d3707,yxt5blo5e2,Nick_Dissertation_EX1,1,78,2020-07-08T14:55:49-07:00,2.3678300380707,2,versionA_stim.csv,READVersionB.csv,"Read Version B","Dissertation, read only version B",AFFECTION,LOVE,Study2,F,115,153,Study,User,-,,Study/JOL,"Study Phase",1113,,,-1,-1,,,,1
5c707357011e2900019d3707,yxt5blo5e2,Nick_Dissertation_EX1,1,79,2020-07-08T14:55:49-07:00,0.77732110023499,2,versionA_stim.csv,READVersionB.csv,"Read Version B","Dissertation, read only version B",HONEST,TRUTHFUL,Study2,B,133,172,Study,User,-,,Study/JOL,"Study Phase",493,,,-1,-1,,,,1
5c707357011e2900019d3707,yxt5blo5e2,Nick_Dissertation_EX1,1,80,2020-07-08T14:55:51-07:00,1.3632700443268,2,versionA_stim.csv,READVersionB.csv,"Read Version B","Dissertation, read only version B",NAME,HATE,Study2,U,167,129,Study,User,-,,Study/JOL,"Study Phase",1109,,,-1,-1,,,,1
5c707357011e2900019d3707,yxt5blo5e2,Nick_Dissertation_EX1,1,81,2020-07-08T14:55:52-07:00,0.9351167678833,2,versionA_stim.csv,READVersionB.csv,"Read Version B","Dissertation, read only version B",CHERRY,RED,Study2,F,104,130,Study,User,-,,Study/JOL,"Study Phase",679,,,-1,-1,,,,1
5c707357011e2900019d3707,yxt5blo5e2,Nick_Dissertation_EX1,1,82,2020-07-08T14:55:53-07:00,1.0723600387573,2,versionA_stim.csv,READVersionB.csv,"Read Version B","Dissertation, read only version B",CACTUS,PLANT,Study2,F,98,135,Study,User,-,,Study/JOL,"Study Phase",823,,,-1,-1,,,,1
5c707357011e2900019d3707,yxt5blo5e2,Nick_Dissertation_EX1,1,83,2020-07-08T14:55:54-07:00,0.98707413673401,2,versionA_stim.csv,READVersionB.csv,"Read Version B","Dissertation, read only version B",RIGHTS,EQUAL,Study2,S,137,101,Study,User,-,,Study/JOL,"Study Phase",731,,,-1,-1,,,,1
5c707357011e2900019d3707,yxt5blo5e2,Nick_Dissertation_EX1,1,84,2020-07-08T14:55:55-07:00,1.1481668949127,2,versionA_stim.csv,READVersionB.csv,"Read Version B","Dissertation, read only version B",BOTH,OUNCE,Study2,U,172,128,Study,User,-,,Study/JOL,"Study Phase",888,,,-1,-1,,,,1
5c707357011e2900019d3707,yxt5blo5e2,Nick_Dissertation_EX1,1,85,2020-07-08T14:55:56-07:00,0.96613311767578,2,versionA_stim.csv,READVersionB.csv,"Read Version B","Dissertation, read only version B",EVEN,REVENGE,Study2,B,122,127,Study,User,-,,Study/JOL,"Study Phase",710,,,-1,-1,,,,1
5c707357011e2900019d3707,yxt5blo5e2,Nick_Dissertation_EX1,1,86,2020-07-08T14:55:57-07:00,1.0588438510895,2,versionA_stim.csv,READVersionB.csv,"Read Version B","Dissertation, read only version B",EXTENSION,LONG,Study2,F,96,122,Study,User,-,,Study/JOL,"Study Phase",803,,,-1,-1,,,,1
5c707357011e2900019d3707,yxt5blo5e2,Nick_Dissertation_EX1,1,87,2020-07-08T14:55:58-07:00,1.2505011558533,2,versionA_stim.csv,READVersionB.csv,"Read Version B","Dissertation, read only version B",OCTOBER,SPOOKY,BUFFER4,Buffer,180,177,Study,User,-,,Study/JOL,BUFFER2,995,,,-1,-1,,,,1
5c707357011e2900019d3707,yxt5blo5e2,Nick_Dissertation_EX1,1,88,2020-07-08T14:55:59-07:00,1.1502289772034,2,versionA_stim.csv,READVersionB.csv,"Read Version B","Dissertation, read only version B",MONTH,YEAR,BUFFER4,Buffer,177,181,Study,User,-,,Study/JOL,BUFFER2,888,,,-1,-1,,,,1
5c707357011e2900019d3707,yxt5blo5e2,Nick_Dissertation_EX1,1,89,2020-07-08T14:56:00-07:00,1.0386259555817,2,versionA_stim.csv,READVersionB.csv,"Read Version B","Dissertation, read only version B",SPRING,MARCH,BUFFER4,Buffer,179,179,Study,User,-,,Study/JOL,BUFFER2,766,,,-1,-1,,,,1
5c707357011e2900019d3707,yxt5blo5e2,Nick_Dissertation_EX1,1,90,2020-07-08T14:56:01-07:00,1.052670955658,2,versionA_stim.csv,READVersionB.csv,"Read Version B","Dissertation, read only version B",DAYS,WEAKS,BUFFER4,Buffer,176,180,Study,User,-,,Study/JOL,BUFFER2,675,,,-1,-1,,,,1
5c707357011e2900019d3707,yxt5blo5e2,Nick_Dissertation_EX1,1,91,2020-07-08T14:56:02-07:00,1.1284120082855,2,versionA_stim.csv,READVersionB.csv,"Read Version B","Dissertation, read only version B",TOOL,SHED,BUFFER4,Buffer,178,178,Study,User,-,,Study/JOL,BUFFER2,808,,,-1,-1,,,,1
5c707357011e2900019d3707,yxt5blo5e2,Nick_Dissertation_EX1,1,92,2020-07-08T14:56:05-07:00,2.3821399211884,2,versionA_stim.csv,READVersionB.csv,"Read Version B","Dissertation, read only version B",,,,,,0,Instruct,User,-,"You have completed this section. Please press Enter.",Filler_Instruction,Instruct2,2045,,,-1,-1,,,,1
5c707357011e2900019d3707,yxt5blo5e2,Nick_Dissertation_EX1,1,93,2020-07-08T14:58:05-07:00,120.36923122406,2,versionA_stim.csv,READVersionB.csv,"Read Version B","Dissertation, read only version B",,,,,,0,FreeRecall,120,120,"Please list the 50 US states in alphabetical order. The task will automatically advance to the next screen after two minutes.",,Filler1,120000,"Alabama Alaska Arizona Arkansas California Colorado Connecticut Delaware Florida Georgia Hawaii Idaho Illinois Indiana Iowa Kansas Kentucky Louisiana Maine Maryland Massachusetts Michigan Minnesota Mississippi Missouri Montana Nebraska Nevada New Hampshire New Jersey New Mexico New York North Carolina North Dakota Ohio Oklahoma Oregon Pennsylvania Rhode Island South Carolina South Dakota Tennessee Texas Utah Vermont Virginia Washington West Virginia Wisconsin Wyoming",0,-1,-1,0,0,,0.945
5c707357011e2900019d3707,yxt5blo5e2,Nick_Dissertation_EX1,1,94,2020-07-08T14:58:16-07:00,11.098476886749,2,versionA_stim.csv,READVersionB.csv,"Read Version B","Dissertation, read only version B",,,,,,0,Instruct,-,10,"You will now be presented with the first word from each of the previously studied item pairs. Please type the missing word. If you do not know the word, you may guess or press Enter to skip forward to the next pair.",,Instruct3,10755,,,-1,-1,,,,1
5c707357011e2900019d3707,yxt5blo5e2,Nick_Dissertation_EX1,1,95,2020-07-08T14:58:20-07:00,3.2629170417786,2,versionA_stim.csv,READVersionB.csv,"Read Version B","Dissertation, read only version B",SLEEP,NAP,Study2,B,134,136,Test,User,-,,Recall,Recall1,2911,sheep,25,2151,2654,0,0,,1
5c707357011e2900019d3707,yxt5blo5e2,Nick_Dissertation_EX1,1,96,2020-07-08T14:58:22-07:00,2.1229948997498,2,versionA_stim.csv,READVersionB.csv,"Read Version B","Dissertation, read only version B",DOCUMENT,PAPER,Study2,F,109,98,Test,User,-,,Recall,Recall1,1862,paper,100,1406,1781,1,1,,1
5c707357011e2900019d3707,yxt5blo5e2,Nick_Dissertation_EX1,1,97,2020-07-08T14:58:26-07:00,3.8933260440826,2,versionA_stim.csv,READVersionB.csv,"Read Version B","Dissertation, read only version B",BEST,FAVORITE,Study2,B,125,115,Test,User,-,,Recall,Recall1,3540,favorite,100,1476,2164,1,1,,1
5c707357011e2900019d3707,yxt5blo5e2,Nick_Dissertation_EX1,1,98,2020-07-08T14:58:28-07:00,2.8806169033051,2,versionA_stim.csv,READVersionB.csv,"Read Version B","Dissertation, read only version B",TEMPERATURE,Morning,Study2,U,173,151,Test,User,-,,Recall,Recall1,2541,hot,20,1772,1948,0,0,,1
5c707357011e2900019d3707,yxt5blo5e2,Nick_Dissertation_EX1,1,99,2020-07-08T14:58:31-07:00,2.1323330402374,2,versionA_stim.csv,READVersionB.csv,"Read Version B","Dissertation, read only version B",MOAT,CLEAR,Study2,U,169,139,Test,User,-,,Recall,Recall1,1868,boat,22.222222222222,1396,1611,0,0,,1
5c707357011e2900019d3707,yxt5blo5e2,Nick_Dissertation_EX1,1,100,2020-07-08T14:58:35-07:00,4.0986950397491,2,versionA_stim.csv,READVersionB.csv,"Read Version B","Dissertation, read only version B",TURN,FLIP,Study2,B,116,110,Test,User,-,,Recall,Recall1,3761,left,25,2441,3729,0,0,,1
5c707357011e2900019d3707,yxt5blo5e2,Nick_Dissertation_EX1,1,101,2020-07-08T14:58:36-07:00,1.7017920017242,2,versionA_stim.csv,READVersionB.csv,"Read Version B","Dissertation, read only version B",RAZOR,SHAVE,Study2,S,136,142,Test,User,-,,Recall,Recall1,1442,shave,100,873,1297,1,1,,1
5c707357011e2900019d3707,yxt5blo5e2,Nick_Dissertation_EX1,1,102,2020-07-08T14:58:41-07:00,4.5325820446014,2,versionA_stim.csv,READVersionB.csv,"Read Version B","Dissertation, read only version B",LEASE,TOIL,Study2,U,170,138,Test,User,-,,Recall,Recall1,4190,tile,75,2190,4038,0,1,,1
5c707357011e2900019d3707,yxt5blo5e2,Nick_Dissertation_EX1,1,103,2020-07-08T14:58:43-07:00,1.7129199504852,2,versionA_stim.csv,READVersionB.csv,"Read Version B","Dissertation, read only version B",OWN,HAVE,Study2,S,153,118,Test,User,-,,Recall,Recall1,1445,have,100,1045,1277,1,1,,1
5c707357011e2900019d3707,yxt5blo5e2,Nick_Dissertation_EX1,1,104,2020-07-08T14:58:52-07:00,9.3127379417419,2,versionA_stim.csv,READVersionB.csv,"Read Version B","Dissertation, read only version B",Shell,SHAKE,Study2,U,163,102,Test,User,-,,Recall,Recall1,8973,shock,60,7629,8805,0,0,,1
5c707357011e2900019d3707,yxt5blo5e2,Nick_Dissertation_EX1,1,105,2020-07-08T14:58:55-07:00,3.3062741756439,2,versionA_stim.csv,READVersionB.csv,"Read Version B","Dissertation, read only version B",FLEA,TICK,Study2,S,151,170,Test,User,-,,Recall,Recall1,1907,tick,100,1523,1826,1,1,,1
5c707357011e2900019d3707,yxt5blo5e2,Nick_Dissertation_EX1,1,106,2020-07-08T14:58:58-07:00,2.3040878772736,2,versionA_stim.csv,READVersionB.csv,"Read Version B","Dissertation, read only version B",SHOELACE,TIE,Study2,F,99,107,Test,User,-,,Recall,Recall1,1937,tie,100,1665,1889,1,1,,1
5c707357011e2900019d3707,yxt5blo5e2,Nick_Dissertation_EX1,1,107,2020-07-08T14:59:00-07:00,2.3408811092377,2,versionA_stim.csv,READVersionB.csv,"Read Version B","Dissertation, read only version B",STAR,ACTRESS,Study2,B,120,106,Test,User,-,,Recall,Recall1,2007,fish,18.181818181818,1207,1871,0,0,,1
5c707357011e2900019d3707,yxt5blo5e2,Nick_Dissertation_EX1,1,108,2020-07-08T14:59:04-07:00,3.5766358375549,2,versionA_stim.csv,READVersionB.csv,"Read Version B","Dissertation, read only version B",FISH,SARDINE,Study2,B,130,99,Test,User,-,,Recall,Recall1,3243,boat,18.181818181818,2706,3082,0,0,,1
5c707357011e2900019d3707,yxt5blo5e2,Nick_Dissertation_EX1,1,109,2020-07-08T14:59:06-07:00,2.3196771144867,2,versionA_stim.csv,READVersionB.csv,"Read Version B","Dissertation, read only version B",SUN,TAN,Study2,S,155,140,Test,User,-,,Recall,Recall1,1960,moon,28.571428571429,1544,1872,0,0,,1
5c707357011e2900019d3707,yxt5blo5e2,Nick_Dissertation_EX1,1,110,2020-07-08T14:59:09-07:00,3.4737060070038,2,versionA_stim.csv,READVersionB.csv,"Read Version B","Dissertation, read only version B",MAZE,ELECTION,Study2,U,159,149,Test,User,-,,Recall,Recall1,3140,,0,-1,-1,0,0,,1
5c707357011e2900019d3707,yxt5blo5e2,Nick_Dissertation_EX1,1,111,2020-07-08T14:59:13-07:00,3.9746968746185,2,versionA_stim.csv,READVersionB.csv,"Read Version B","Dissertation, read only version B",PLANE,AIRCRAFT,Study2,B,129,159,Test,User,-,,Recall,Recall1,3637,aircraft,100,1788,3276,1,1,,1
5c707357011e2900019d3707,yxt5blo5e2,Nick_Dissertation_EX1,1,112,2020-07-08T14:59:16-07:00,2.6578750610352,2,versionA_stim.csv,READVersionB.csv,"Read Version B","Dissertation, read only version B",SHEARS,SCISSORS,Study2,F,112,164,Test,User,-,,Recall,Recall1,2321,scissors,100,1185,2185,1,1,,1
5c707357011e2900019d3707,yxt5blo5e2,Nick_Dissertation_EX1,1,113,2020-07-08T14:59:19-07:00,2.5750410556793,2,versionA_stim.csv,READVersionB.csv,"Read Version B","Dissertation, read only version B",PHONE,COMMUNICATION,Study2,S,149,160,Test,User,-,,Recall,Recall1,2235,,0,-1,-1,0,0,,1
5c707357011e2900019d3707,yxt5blo5e2,Nick_Dissertation_EX1,1,114,2020-07-08T14:59:24-07:00,5.0018439292908,2,versionA_stim.csv,READVersionB.csv,"Read Version B","Dissertation, read only version B",BAD,VILLAIN,Study2,B,118,105,Test,User,-,,Recall,Recall1,4665,good,0,4225,4537,0,0,,1
5c707357011e2900019d3707,yxt5blo5e2,Nick_Dissertation_EX1,1,115,2020-07-08T14:59:26-07:00,2.9611849784851,2,versionA_stim.csv,READVersionB.csv,"Read Version B","Dissertation, read only version B",TRUTH,LIE,Study2,S,148,141,Test,User,-,,Recall,Recall1,2618,fiction,20,1850,2554,0,0,,1
5c707357011e2900019d3707,yxt5blo5e2,Nick_Dissertation_EX1,1,116,2020-07-08T14:59:29-07:00,2.3578951358795,2,versionA_stim.csv,READVersionB.csv,"Read Version B","Dissertation, read only version B",CHILL,COLD,Study2,F,114,173,Test,User,-,,Recall,Recall1,2022,,0,-1,-1,0,0,,1
5c707357011e2900019d3707,yxt5blo5e2,Nick_Dissertation_EX1,1,117,2020-07-08T14:59:33-07:00,3.806510925293,2,versionA_stim.csv,READVersionB.csv,"Read Version B","Dissertation, read only version B",LISTEN,FICTION,Study2,U,164,146,Test,User,-,,Recall,Recall1,3470,talk,18.181818181818,3038,3230,0,0,,1
5c707357011e2900019d3707,yxt5blo5e2,Nick_Dissertation_EX1,1,118,2020-07-08T14:59:35-07:00,1.9671199321747,2,versionA_stim.csv,READVersionB.csv,"Read Version B","Dissertation, read only version B",GONE,AWAY,Study2,S,142,103,Test,User,-,,Recall,Recall1,1703,away,100,1199,1599,1,1,,1
5c707357011e2900019d3707,yxt5blo5e2,Nick_Dissertation_EX1,1,119,2020-07-08T14:59:38-07:00,3.4232451915741,2,versionA_stim.csv,READVersionB.csv,"Read Version B","Dissertation, read only version B",FRUIT,STRAWBERRY,Study2,B,124,123,Test,User,-,,Recall,Recall1,3082,salad,26.666666666667,2418,2937,0,0,,1
5c707357011e2900019d3707,yxt5blo5e2,Nick_Dissertation_EX1,1,120,2020-07-08T14:59:42-07:00,3.7743978500366,2,versionA_stim.csv,READVersionB.csv,"Read Version B","Dissertation, read only version B",EARTH,GROUND,Study2,S,144,168,Test,User,-,,Recall,Recall1,3435,basket,0,2315,2787,0,0,,1
5c707357011e2900019d3707,yxt5blo5e2,Nick_Dissertation_EX1,1,121,2020-07-08T14:59:55-07:00,12.957373142242,2,versionA_stim.csv,READVersionB.csv,"Read Version B","Dissertation, read only version B",FUZZY,BANG,Study2,U,168,158,Test,User,-,,Recall,Recall1,12598,Peach,22.222222222222,9513,10433,0,0,,1
5c707357011e2900019d3707,yxt5blo5e2,Nick_Dissertation_EX1,1,122,2020-07-08T15:00:02-07:00,7.1097548007965,2,versionA_stim.csv,READVersionB.csv,"Read Version B","Dissertation, read only version B",LITTER,TRASH,Study2,F,103,133,Test,User,-,,Recall,Recall1,6736,trash,100,2607,6551,1,1,,1
5c707357011e2900019d3707,yxt5blo5e2,Nick_Dissertation_EX1,1,123,2020-07-08T15:00:05-07:00,2.7340700626373,2,versionA_stim.csv,READVersionB.csv,"Read Version B","Dissertation, read only version B",GIVE,STEAK,Study2,U,158,124,Test,User,-,,Recall,Recall1,2396,GET,25,1724,2003,0,0,,1
5c707357011e2900019d3707,yxt5blo5e2,Nick_Dissertation_EX1,1,124,2020-07-08T15:00:16-07:00,11.473906040192,2,versionA_stim.csv,READVersionB.csv,"Read Version B","Dissertation, read only version B",CHOP,CUT,Study2,F,107,166,Test,User,-,,Recall,Recall1,11134,CUT,100,6125,10790,1,1,,1
5c707357011e2900019d3707,yxt5blo5e2,Nick_Dissertation_EX1,1,125,2020-07-08T15:00:27-07:00,10.686244010925,2,versionA_stim.csv,READVersionB.csv,"Read Version B","Dissertation, read only version B",GLASS,BREAKABLE,Study2,B,127,145,Test,User,-,,Recall,Recall1,10344,breakable,100,1558,8583,1,1,,1
5c707357011e2900019d3707,yxt5blo5e2,Nick_Dissertation_EX1,1,126,2020-07-08T15:00:31-07:00,4.0299210548401,2,versionA_stim.csv,READVersionB.csv,"Read Version B","Dissertation, read only version B",JUSTICE,MAROON,Study2,U,156,121,Test,User,-,,Recall,Recall1,3611,punch,18.181818181818,2834,3322,0,0,,1
5c707357011e2900019d3707,yxt5blo5e2,Nick_Dissertation_EX1,1,127,2020-07-08T15:00:39-07:00,8.2637679576874,2,versionA_stim.csv,READVersionB.csv,"Read Version B","Dissertation, read only version B",VEHICLE,CHARM,Study2,U,160,131,Test,User,-,,Recall,Recall1,7922,DUI,0,6833,7473,0,0,,1
5c707357011e2900019d3707,yxt5blo5e2,Nick_Dissertation_EX1,1,128,2020-07-08T15:00:42-07:00,2.7760598659515,2,versionA_stim.csv,READVersionB.csv,"Read Version B","Dissertation, read only version B",CANDLE,WAX,Study2,S,139,112,Test,User,-,,Recall,Recall1,2435,wax,100,1619,2171,1,1,,1
5c707357011e2900019d3707,yxt5blo5e2,Nick_Dissertation_EX1,1,129,2020-07-08T15:00:46-07:00,4.0563840866089,2,versionA_stim.csv,READVersionB.csv,"Read Version B","Dissertation, read only version B",WRIST,BRACELET,Study2,S,140,134,Test,User,-,,Recall,Recall1,3711,bracelet,100,2646,3390,1,1,,1
5c707357011e2900019d3707,yxt5blo5e2,Nick_Dissertation_EX1,1,130,2020-07-08T15:00:57-07:00,10.737885951996,2,versionA_stim.csv,READVersionB.csv,"Read Version B","Dissertation, read only version B",DINE,EAT,Study2,F,111,117,Test,User,-,,Recall,Recall1,10401,O'Saur,22.222222222222,3695,9407,0,0,,1
5c707357011e2900019d3707,yxt5blo5e2,Nick_Dissertation_EX1,1,131,2020-07-08T15:01:09-07:00,12.496345043182,2,versionA_stim.csv,READVersionB.csv,"Read Version B","Dissertation, read only version B",FURRY,DOG,Study2,F,102,120,Test,User,-,,Recall,Recall1,12154,,0,5240,9856,0,0,,1
5c707357011e2900019d3707,yxt5blo5e2,Nick_Dissertation_EX1,1,132,2020-07-08T15:01:21-07:00,11.513503074646,2,versionA_stim.csv,READVersionB.csv,"Read Version B","Dissertation, read only version B",STRETCH,CLOTH,Study2,U,157,171,Test,User,-,,Recall,Recall1,11172,clothes,83.333333333333,9227,10931,0,1,,1
5c707357011e2900019d3707,yxt5blo5e2,Nick_Dissertation_EX1,1,133,2020-07-08T15:01:30-07:00,9.8331508636475,2,versionA_stim.csv,READVersionB.csv,"Read Version B","Dissertation, read only version B",SAFETY,SEATBELT,Study2,S,147,109,Test,User,-,,Recall,Recall1,9487,seatbelt,100,1358,9302,1,1,,1
5c707357011e2900019d3707,yxt5blo5e2,Nick_Dissertation_EX1,1,134,2020-07-08T15:01:34-07:00,3.0394191741943,2,versionA_stim.csv,READVersionB.csv,"Read Version B","Dissertation, read only version B",POP,BALLOON,Study2,B,123,155,Test,User,-,,Recall,Recall1,2655,soda,18.181818181818,1879,2303,0,0,,1
5c707357011e2900019d3707,yxt5blo5e2,Nick_Dissertation_EX1,1,135,2020-07-08T15:01:44-07:00,10.171782016754,2,versionA_stim.csv,READVersionB.csv,"Read Version B","Dissertation, read only version B",CRACKLE,ABLE,Study2,U,162,132,Test,User,-,,Recall,Recall1,9774,Snap,25,9086,9542,0,0,,1
5c707357011e2900019d3707,yxt5blo5e2,Nick_Dissertation_EX1,1,136,2020-07-08T15:01:51-07:00,7.0452618598938,2,versionA_stim.csv,READVersionB.csv,"Read Version B","Dissertation, read only version B",RIGHTS,EQUAL,Study2,S,137,101,Test,User,-,,Recall,Recall1,6691,Human,40,5331,6083,0,0,,1
5c707357011e2900019d3707,yxt5blo5e2,Nick_Dissertation_EX1,1,137,2020-07-08T15:02:01-07:00,10.515010118484,2,versionA_stim.csv,READVersionB.csv,"Read Version B","Dissertation, read only version B",CAR,WINDSHIELD,Study2,B,117,116,Test,User,-,,Recall,Recall1,10177,Road,14.285714285714,4456,10041,0,0,,1
5c707357011e2900019d3707,yxt5blo5e2,Nick_Dissertation_EX1,1,138,2020-07-08T15:02:13-07:00,11.403062820435,2,versionA_stim.csv,READVersionB.csv,"Read Version B","Dissertation, read only version B",WATER,DRINK,Study2,S,143,119,Test,User,-,,Recall,Recall1,11058,moist,20,7913,10401,0,0,,1
5c707357011e2900019d3707,yxt5blo5e2,Nick_Dissertation_EX1,1,139,2020-07-08T15:02:20-07:00,7.7312471866608,2,versionA_stim.csv,READVersionB.csv,"Read Version B","Dissertation, read only version B",NAME,HATE,Study2,U,167,129,Test,User,-,,Recall,Recall1,7377,place,44.444444444444,6360,6856,0,0,,1
5c707357011e2900019d3707,yxt5blo5e2,Nick_Dissertation_EX1,1,140,2020-07-08T15:02:24-07:00,3.1318848133087,2,versionA_stim.csv,READVersionB.csv,"Read Version B","Dissertation, read only version B",MASON,JAR,Study2,S,138,144,Test,User,-,,Recall,Recall1,2786,jar,100,2401,2577,1,1,,1
5c707357011e2900019d3707,yxt5blo5e2,Nick_Dissertation_EX1,1,141,2020-07-08T15:02:30-07:00,6.0099000930786,2,versionA_stim.csv,READVersionB.csv,"Read Version B","Dissertation, read only version B",BIRD,PENGUIN,Study2,B,119,167,Test,User,-,,Recall,Recall1,5651,Penguin,100,4274,5098,1,1,,1
5c707357011e2900019d3707,yxt5blo5e2,Nick_Dissertation_EX1,1,142,2020-07-08T15:02:32-07:00,2.6390850543976,2,versionA_stim.csv,READVersionB.csv,"Read Version B","Dissertation, read only version B",AFFECTION,LOVE,Study2,F,115,153,Test,User,-,,Recall,Recall1,2288,love,100,1345,2088,1,1,,1
5c707357011e2900019d3707,yxt5blo5e2,Nick_Dissertation_EX1,1,143,2020-07-08T15:02:37-07:00,4.3951380252838,2,versionA_stim.csv,READVersionB.csv,"Read Version B","Dissertation, read only version B",CAKE,CLOTHES,Study2,U,166,148,Test,User,-,,Recall,Recall1,4045,carrot,46.153846153846,2564,3652,0,0,,1
5c707357011e2900019d3707,yxt5blo5e2,Nick_Dissertation_EX1,1,144,2020-07-08T15:02:44-07:00,7.5829269886017,2,versionA_stim.csv,READVersionB.csv,"Read Version B","Dissertation, read only version B",MAIN,SCAR,Study2,U,175,143,Test,User,-,,Recall,Recall1,7238,Street,40,2670,7070,0,0,,1
5c707357011e2900019d3707,yxt5blo5e2,Nick_Dissertation_EX1,1,145,2020-07-08T15:02:53-07:00,9.251042842865,2,versionA_stim.csv,READVersionB.csv,"Read Version B","Dissertation, read only version B",MIRROR,CHILDREN,Study2,U,174,104,Test,User,-,,Recall,Recall1,8912,Table,30.769230769231,7472,8744,0,0,,1
5c707357011e2900019d3707,yxt5blo5e2,Nick_Dissertation_EX1,1,146,2020-07-08T15:02:59-07:00,5.5607361793518,2,versionA_stim.csv,READVersionB.csv,"Read Version B","Dissertation, read only version B",LOAN,SIGN,Study2,U,171,169,Test,User,-,,Recall,Recall1,5212,Shark,22.222222222222,3508,5060,0,0,,1
5c707357011e2900019d3707,yxt5blo5e2,Nick_Dissertation_EX1,1,147,2020-07-08T15:03:01-07:00,2.334832906723,2,versionA_stim.csv,READVersionB.csv,"Read Version B","Dissertation, read only version B",DRY,WET,Study2,S,146,154,Test,User,-,,Recall,Recall1,1992,WET,100,1408,1664,1,1,,1
5c707357011e2900019d3707,yxt5blo5e2,Nick_Dissertation_EX1,1,148,2020-07-08T15:03:08-07:00,6.8685350418091,2,versionA_stim.csv,READVersionB.csv,"Read Version B","Dissertation, read only version B",DETECTIVE,MYSTERY,Study2,F,100,163,Test,User,-,,Recall,Recall1,6525,CASE,36.363636363636,5917,6261,0,0,,1
5c707357011e2900019d3707,yxt5blo5e2,Nick_Dissertation_EX1,1,149,2020-07-08T15:03:10-07:00,2.0602960586548,2,versionA_stim.csv,READVersionB.csv,"Read Version B","Dissertation, read only version B",CACTUS,PLANT,Study2,F,98,135,Test,User,-,,Recall,Recall1,1781,PLANT,100,1101,1613,1,1,,1
5c707357011e2900019d3707,yxt5blo5e2,Nick_Dissertation_EX1,1,150,2020-07-08T15:03:13-07:00,2.7523319721222,2,versionA_stim.csv,READVersionB.csv,"Read Version B","Dissertation, read only version B",SCALP,HEAD,Study2,F,105,175,Test,User,-,,Recall,Recall1,2406,SHAVE,44.444444444444,1821,2205,0,0,,1
5c707357011e2900019d3707,yxt5blo5e2,Nick_Dissertation_EX1,1,151,2020-07-08T15:03:21-07:00,8.0157070159912,2,versionA_stim.csv,READVersionB.csv,"Read Version B","Dissertation, read only version B",MULE,DONKEY,Study2,F,108,97,Test,User,-,,Recall,Recall1,7677,donkey,100,3324,7460,1,1,,1
5c707357011e2900019d3707,yxt5blo5e2,Nick_Dissertation_EX1,1,152,2020-07-08T15:03:23-07:00,2.3683078289032,2,versionA_stim.csv,READVersionB.csv,"Read Version B","Dissertation, read only version B",FIGHT,BRAWL,Study2,B,135,162,Test,User,-,,Recall,Recall1,2031,brawl,100,1527,1895,1,1,,1
5c707357011e2900019d3707,yxt5blo5e2,Nick_Dissertation_EX1,1,153,2020-07-08T15:03:25-07:00,2.0532200336456,2,versionA_stim.csv,READVersionB.csv,"Read Version B","Dissertation, read only version B",CAT,PANTHER,Study2,B,126,174,Test,User,-,,Recall,Recall1,1783,dog,0,1079,1631,0,0,,1
5c707357011e2900019d3707,yxt5blo5e2,Nick_Dissertation_EX1,1,154,2020-07-08T15:03:35-07:00,9.8384411334991,2,versionA_stim.csv,READVersionB.csv,"Read Version B","Dissertation, read only version B",KEYS,JOKE,Study2,U,165,108,Test,User,-,,Recall,Recall1,9497,lock,50,7729,8280,0,0,,1
5c707357011e2900019d3707,yxt5blo5e2,Nick_Dissertation_EX1,1,155,2020-07-08T15:03:39-07:00,3.7450268268585,2,versionA_stim.csv,READVersionB.csv,"Read Version B","Dissertation, read only version B",ROD,REEL,Study2,S,150,157,Test,User,-,,Recall,Recall1,3395,fishing,0,2291,3163,0,0,,1
5c707357011e2900019d3707,yxt5blo5e2,Nick_Dissertation_EX1,1,156,2020-07-08T15:03:42-07:00,3.0713341236115,2,versionA_stim.csv,READVersionB.csv,"Read Version B","Dissertation, read only version B",THREAD,THIMBLE,Study2,B,121,126,Test,User,-,,Recall,Recall1,2729,needle,30.769230769231,1880,2584,0,0,,1
5c707357011e2900019d3707,yxt5blo5e2,Nick_Dissertation_EX1,1,157,2020-07-08T15:03:53-07:00,10.640505075455,2,versionA_stim.csv,READVersionB.csv,"Read Version B","Dissertation, read only version B",MONEY,BANKER,Study2,B,132,114,Test,User,-,,Recall,Recall1,10299,poor,20,1602,10130,0,0,,1
5c707357011e2900019d3707,yxt5blo5e2,Nick_Dissertation_EX1,1,158,2020-07-08T15:03:56-07:00,2.911602973938,2,versionA_stim.csv,READVersionB.csv,"Read Version B","Dissertation, read only version B",ADJOURN,END,Study2,F,101,156,Test,User,-,,Recall,Recall1,2567,open,57.142857142857,1727,2039,0,0,,1
5c707357011e2900019d3707,yxt5blo5e2,Nick_Dissertation_EX1,1,159,2020-07-08T15:04:00-07:00,4.2794709205627,2,versionA_stim.csv,READVersionB.csv,"Read Version B","Dissertation, read only version B",HONEST,TRUTHFUL,Study2,B,133,172,Test,User,-,,Recall,Recall1,3939,truth,76.923076923077,1218,3690,0,1,,1
5c707357011e2900019d3707,yxt5blo5e2,Nick_Dissertation_EX1,1,160,2020-07-08T15:04:05-07:00,5.0819239616394,2,versionA_stim.csv,READVersionB.csv,"Read Version B","Dissertation, read only version B",INCENSE,SMELL,Study2,F,110,176,Test,User,-,,Recall,Recall1,3657,smell,100,3121,3569,1,1,,1
5c707357011e2900019d3707,yxt5blo5e2,Nick_Dissertation_EX1,1,161,2020-07-08T15:04:12-07:00,7.4538700580597,2,versionA_stim.csv,READVersionB.csv,"Read Version B","Dissertation, read only version B",ALONE,LONELY,Study2,S,145,113,Test,User,-,,Recall,Recall1,6102,Lonely,100,3629,5181,1,1,,1
5c707357011e2900019d3707,yxt5blo5e2,Nick_Dissertation_EX1,1,162,2020-07-08T15:04:27-07:00,14.297282934189,2,versionA_stim.csv,READVersionB.csv,"Read Version B","Dissertation, read only version B",MEAT,OBTAIN,Study2,U,161,147,Test,User,-,,Recall,Recall1,13955,flavor,16.666666666667,2169,13794,0,0,,1
5c707357011e2900019d3707,yxt5blo5e2,Nick_Dissertation_EX1,1,163,2020-07-08T15:04:29-07:00,2.3795320987701,2,versionA_stim.csv,READVersionB.csv,"Read Version B","Dissertation, read only version B",DEAD,COFFIN,Study2,B,128,137,Test,User,-,,Recall,Recall1,2012,meat,0,1524,1764,0,0,,1
5c707357011e2900019d3707,yxt5blo5e2,Nick_Dissertation_EX1,1,164,2020-07-08T15:04:31-07:00,1.9564490318298,2,versionA_stim.csv,READVersionB.csv,"Read Version B","Dissertation, read only version B",BASEBALL,LEAGUE,Study2,B,131,111,Test,User,-,,Recall,Recall1,1690,game,40,1290,1562,0,0,,1
5c707357011e2900019d3707,yxt5blo5e2,Nick_Dissertation_EX1,1,165,2020-07-08T15:04:34-07:00,3.1413249969482,2,versionA_stim.csv,READVersionB.csv,"Read Version B","Dissertation, read only version B",EVEN,REVENGE,Study2,B,122,127,Test,User,-,,Recall,Recall1,2803,,0,-1,-1,0,0,,1
5c707357011e2900019d3707,yxt5blo5e2,Nick_Dissertation_EX1,1,166,2020-07-08T15:04:36-07:00,2.1081500053406,2,versionA_stim.csv,READVersionB.csv,"Read Version B","Dissertation, read only version B",EXTENSION,LONG,Study2,F,96,122,Test,User,-,,Recall,Recall1,1844,,0,-1,-1,0,0,,1
5c707357011e2900019d3707,yxt5blo5e2,Nick_Dissertation_EX1,1,167,2020-07-08T15:04:38-07:00,2.1222109794617,2,versionA_stim.csv,READVersionB.csv,"Read Version B","Dissertation, read only version B",LOUD,NOISE,Study2,S,152,125,Test,User,-,,Recall,Recall1,1849,qiuet,40,1361,1721,0,0,,1
5c707357011e2900019d3707,yxt5blo5e2,Nick_Dissertation_EX1,1,168,2020-07-08T15:04:48-07:00,9.4032878875732,2,versionA_stim.csv,READVersionB.csv,"Read Version B","Dissertation, read only version B",CHERRY,RED,Study2,F,104,130,Test,User,-,,Recall,Recall1,9061,pop,0,6845,8709,0,0,,1
5c707357011e2900019d3707,yxt5blo5e2,Nick_Dissertation_EX1,1,169,2020-07-08T15:04:50-07:00,1.973405122757,2,versionA_stim.csv,READVersionB.csv,"Read Version B","Dissertation, read only version B",CLUE,GAME,Study2,F,97,161,Test,User,-,,Recall,Recall1,1705,GAME,100,1176,1520,1,1,,1
5c707357011e2900019d3707,yxt5blo5e2,Nick_Dissertation_EX1,1,170,2020-07-08T15:04:53-07:00,3.6108148097992,2,versionA_stim.csv,READVersionB.csv,"Read Version B","Dissertation, read only version B",FEUD,FIGHT,Study2,F,113,150,Test,User,-,,Recall,Recall1,3266,family,36.363636363636,1842,3010,0,0,,1
5c707357011e2900019d3707,yxt5blo5e2,Nick_Dissertation_EX1,1,171,2020-07-08T15:04:56-07:00,2.5756130218506,2,versionA_stim.csv,READVersionB.csv,"Read Version B","Dissertation, read only version B",BOTH,OUNCE,Study2,U,172,128,Test,User,-,,Recall,Recall1,2231,neither,33.333333333333,1399,2103,0,0,,1
5c707357011e2900019d3707,yxt5blo5e2,Nick_Dissertation_EX1,1,172,2020-07-08T15:05:00-07:00,3.5530600547791,2,versionA_stim.csv,READVersionB.csv,"Read Version B","Dissertation, read only version B",TANTRUM,TEMPER,Study2,S,154,152,Test,User,-,,Recall,Recall1,3182,,0,1685,1949,0,0,,1
5c707357011e2900019d3707,yxt5blo5e2,Nick_Dissertation_EX1,1,173,2020-07-08T15:05:23-07:00,23.059203147888,2,versionA_stim.csv,READVersionB.csv,"Read Version B","Dissertation, read only version B",ELEMENT,CARBON,Study2,S,141,165,Test,User,-,,Recall,Recall1,22712,,0,-1,-1,0,0,,1
5c707357011e2900019d3707,yxt5blo5e2,Nick_Dissertation_EX1,1,174,2020-07-08T15:05:25-07:00,2.5205907821655,2,versionA_stim.csv,READVersionB.csv,"Read Version B","Dissertation, read only version B",DRIVER,CAR,Study2,F,106,100,Test,User,-,,Recall,Recall1,2180,,0,-1,-1,0,0,,1
5c707357011e2900019d3707,yxt5blo5e2,Nick_Dissertation_EX1,1,175,2020-07-08T15:05:37-07:00,11.650928020477,2,versionA_stim.csv,READVersionB.csv,"Read Version B","Dissertation, read only version B",,,,,,0,Instruct,-,10,"You will now be presented with a new set of word pairs. Please study each pair. Remember that your memory will be tested! When finished, press Enter to move to the next pair.",Initial_Instruct,Instruct4,11303,,,-1,-1,,,,1
5c707357011e2900019d3707,yxt5blo5e2,Nick_Dissertation_EX1,1,176,2020-07-08T15:05:39-07:00,2.0571479797363,2,versionA_stim.csv,READVersionB.csv,"Read Version B","Dissertation, read only version B",TREES,GREEN,BUFFER1,Buffer,1,6,Study,User,-,,Study/JOL,BUFFER3,1791,,,-1,-1,,,,1
5c707357011e2900019d3707,yxt5blo5e2,Nick_Dissertation_EX1,1,177,2020-07-08T15:05:40-07:00,1.0491251945496,2,versionA_stim.csv,READVersionB.csv,"Read Version B","Dissertation, read only version B",PEANUT,BUTTER,BUFFER1,Buffer,3,5,Study,User,-,,Study/JOL,BUFFER3,786,,,-1,-1,,,,1
5c707357011e2900019d3707,yxt5blo5e2,Nick_Dissertation_EX1,1,178,2020-07-08T15:05:41-07:00,1.2556889057159,2,versionA_stim.csv,READVersionB.csv,"Read Version B","Dissertation, read only version B",SPACE,JAM,BUFFER1,Buffer,5,2,Study,User,-,,Study/JOL,BUFFER3,993,,,-1,-1,,,,1
5c707357011e2900019d3707,yxt5blo5e2,Nick_Dissertation_EX1,1,179,2020-07-08T15:05:43-07:00,2.3101370334625,2,versionA_stim.csv,READVersionB.csv,"Read Version B","Dissertation, read only version B",BASEBALL,CATCHER,BUFFER1,Buffer,2,4,Study,User,-,,Study/JOL,BUFFER3,1950,,,-1,-1,,,,1
5c707357011e2900019d3707,yxt5blo5e2,Nick_Dissertation_EX1,1,180,2020-07-08T15:05:45-07:00,1.1227760314941,2,versionA_stim.csv,READVersionB.csv,"Read Version B","Dissertation, read only version B",SCARE,HIDE,BUFFER1,Buffer,4,3,Study,User,-,,Study/JOL,BUFFER3,856,,,-1,-1,,,,1
5c707357011e2900019d3707,yxt5blo5e2,Nick_Dissertation_EX1,1,181,2020-07-08T15:05:46-07:00,1.2199289798737,2,versionA_stim.csv,READVersionB.csv,"Read Version B","Dissertation, read only version B",SMELL,STENCH,Study1,B,42,35,Study,User,-,,Study/JOL,"Study Phase2",915,,,-1,-1,,,,1
5c707357011e2900019d3707,yxt5blo5e2,Nick_Dissertation_EX1,1,182,2020-07-08T15:05:47-07:00,1.5971210002899,2,versionA_stim.csv,READVersionB.csv,"Read Version B","Dissertation, read only version B",FIX,HAND,Study1,U,75,20,Study,User,-,,Study/JOL,"Study Phase2",1299,,,-1,-1,,,,1
5c707357011e2900019d3707,yxt5blo5e2,Nick_Dissertation_EX1,1,183,2020-07-08T15:05:49-07:00,1.1497058868408,2,versionA_stim.csv,READVersionB.csv,"Read Version B","Dissertation, read only version B",DARK,CAVE,Study1,B,28,55,Study,User,-,,Study/JOL,"Study Phase2",850,,,-1,-1,,,,1
5c707357011e2900019d3707,yxt5blo5e2,Nick_Dissertation_EX1,1,184,2020-07-08T15:05:50-07:00,1.3114521503448,2,versionA_stim.csv,READVersionB.csv,"Read Version B","Dissertation, read only version B",BABY,CHILD,Study1,S,64,36,Study,User,-,,Study/JOL,"Study Phase2",1015,,,-1,-1,,,,1
5c707357011e2900019d3707,yxt5blo5e2,Nick_Dissertation_EX1,1,185,2020-07-08T15:05:51-07:00,1.0653610229492,2,versionA_stim.csv,READVersionB.csv,"Read Version B","Dissertation, read only version B",ART,LION,Study1,U,79,15,Study,User,-,,Study/JOL,"Study Phase2",800,,,-1,-1,,,,1
5c707357011e2900019d3707,yxt5blo5e2,Nick_Dissertation_EX1,1,186,2020-07-08T15:05:52-07:00,1.1042709350586,2,versionA_stim.csv,READVersionB.csv,"Read Version B","Dissertation, read only version B",ALLOW,TUCK,Study1,U,78,76,Study,User,-,,Study/JOL,"Study Phase2",844,,,-1,-1,,,,1
5c707357011e2900019d3707,yxt5blo5e2,Nick_Dissertation_EX1,1,187,2020-07-08T15:05:53-07:00,1.185350894928,2,versionA_stim.csv,READVersionB.csv,"Read Version B","Dissertation, read only version B",DUE,ASSIGNMENT,Study1,S,46,70,Study,User,-,,Study/JOL,"Study Phase2",921,,,-1,-1,,,,1
5c707357011e2900019d3707,yxt5blo5e2,Nick_Dissertation_EX1,1,188,2020-07-08T15:05:54-07:00,1.0553660392761,2,versionA_stim.csv,READVersionB.csv,"Read Version B","Dissertation, read only version B",BATHROOM,TOILET,Study1,S,58,7,Study,User,-,,Study/JOL,"Study Phase2",788,,,-1,-1,,,,1
5c707357011e2900019d3707,yxt5blo5e2,Nick_Dissertation_EX1,1,189,2020-07-08T15:05:55-07:00,1.1354191303253,2,versionA_stim.csv,READVersionB.csv,"Read Version B","Dissertation, read only version B",POP,SODA,Study1,S,56,81,Study,User,-,,Study/JOL,"Study Phase2",867,,,-1,-1,,,,1
5c707357011e2900019d3707,yxt5blo5e2,Nick_Dissertation_EX1,1,190,2020-07-08T15:05:57-07:00,1.2088799476624,2,versionA_stim.csv,READVersionB.csv,"Read Version B","Dissertation, read only version B",DISCUSSION,TALK,Study1,F,21,29,Study,User,-,,Study/JOL,"Study Phase2",943,,,-1,-1,,,,1
5c707357011e2900019d3707,yxt5blo5e2,Nick_Dissertation_EX1,1,191,2020-07-08T15:05:58-07:00,1.1931219100952,2,versionA_stim.csv,READVersionB.csv,"Read Version B","Dissertation, read only version B",BLOW,WIND,Study1,S,55,67,Study,User,-,,Study/JOL,"Study Phase2",927,,,-1,-1,,,,1
5c707357011e2900019d3707,yxt5blo5e2,Nick_Dissertation_EX1,1,192,2020-07-08T15:05:59-07:00,1.2672231197357,2,versionA_stim.csv,READVersionB.csv,"Read Version B","Dissertation, read only version B",ARTERY,BRONZE,Study1,U,74,66,Study,User,-,,Study/JOL,"Study Phase2",997,,,-1,-1,,,,1
5c707357011e2900019d3707,yxt5blo5e2,Nick_Dissertation_EX1,1,193,2020-07-08T15:06:00-07:00,1.3653228282928,2,versionA_stim.csv,READVersionB.csv,"Read Version B","Dissertation, read only version B",PUSHER,CLUTTER,Study1,U,66,54,Study,User,-,,Study/JOL,"Study Phase2",1094,,,-1,-1,,,,1
5c707357011e2900019d3707,yxt5blo5e2,Nick_Dissertation_EX1,1,194,2020-07-08T15:06:02-07:00,1.3514750003815,2,versionA_stim.csv,READVersionB.csv,"Read Version B","Dissertation, read only version B",GRILL,BAR,Study1,S,52,8,Study,User,-,,Study/JOL,"Study Phase2",1082,,,-1,-1,,,,1
5c707357011e2900019d3707,yxt5blo5e2,Nick_Dissertation_EX1,1,195,2020-07-08T15:06:03-07:00,1.2466330528259,2,versionA_stim.csv,READVersionB.csv,"Read Version B","Dissertation, read only version B",NUMBER,AMOUNT,Study1,S,47,72,Study,User,-,,Study/JOL,"Study Phase2",979,,,-1,-1,,,,1
5c707357011e2900019d3707,yxt5blo5e2,Nick_Dissertation_EX1,1,196,2020-07-08T15:06:04-07:00,1.0638840198517,2,versionA_stim.csv,READVersionB.csv,"Read Version B","Dissertation, read only version B",SWAN,BIRD,Study1,F,14,25,Study,User,-,,Study/JOL,"Study Phase2",798,,,-1,-1,,,,1
5c707357011e2900019d3707,yxt5blo5e2,Nick_Dissertation_EX1,1,197,2020-07-08T15:06:05-07:00,1.1398420333862,2,versionA_stim.csv,READVersionB.csv,"Read Version B","Dissertation, read only version B",WORK,CHORE,Study1,B,39,24,Study,User,-,,Study/JOL,"Study Phase2",873,,,-1,-1,,,,1
5c707357011e2900019d3707,yxt5blo5e2,Nick_Dissertation_EX1,1,198,2020-07-08T15:06:06-07:00,1.173495054245,2,versionA_stim.csv,READVersionB.csv,"Read Version B","Dissertation, read only version B",REVOLUTION,WAR,Study1,F,20,49,Study,User,-,,Study/JOL,"Study Phase2",902,,,-1,-1,,,,1
5c707357011e2900019d3707,yxt5blo5e2,Nick_Dissertation_EX1,1,199,2020-07-08T15:06:08-07:00,1.6397109031677,2,versionA_stim.csv,READVersionB.csv,"Read Version B","Dissertation, read only version B",BRIDGE,WATER,Study1,F,18,60,Study,User,-,,Study/JOL,"Study Phase2",1369,,,-1,-1,,,,1
5c707357011e2900019d3707,yxt5blo5e2,Nick_Dissertation_EX1,1,200,2020-07-08T15:06:09-07:00,1.4178130626678,2,versionA_stim.csv,READVersionB.csv,"Read Version B","Dissertation, read only version B",DELINQUENT,BAD,Study1,F,6,23,Study,User,-,,Study/JOL,"Study Phase2",1150,,,-1,-1,,,,1
5c707357011e2900019d3707,yxt5blo5e2,Nick_Dissertation_EX1,1,201,2020-07-08T15:06:11-07:00,1.2721328735352,2,versionA_stim.csv,READVersionB.csv,"Read Version B","Dissertation, read only version B",HONEY,BEE,Study1,S,63,51,Study,User,-,,Study/JOL,"Study Phase2",1002,,,-1,-1,,,,1
5c707357011e2900019d3707,yxt5blo5e2,Nick_Dissertation_EX1,1,202,2020-07-08T15:06:12-07:00,1.4229071140289,2,versionA_stim.csv,READVersionB.csv,"Read Version B","Dissertation, read only version B",CASH,WOULD,Study1,U,83,74,Study,User,-,,Study/JOL,"Study Phase2",1152,,,-1,-1,,,,1
5c707357011e2900019d3707,yxt5blo5e2,Nick_Dissertation_EX1,1,203,2020-07-08T15:06:15-07:00,2.708869934082,2,versionA_stim.csv,READVersionB.csv,"Read Version B","Dissertation, read only version B",SENTENCE,WORD,Study1,B,31,16,Study,User,-,,Study/JOL,"Study Phase2",2363,,,-1,-1,,,,1
5c707357011e2900019d3707,yxt5blo5e2,Nick_Dissertation_EX1,1,204,2020-07-08T15:06:16-07:00,1.1882040500641,2,versionA_stim.csv,READVersionB.csv,"Read Version B","Dissertation, read only version B",DUMP,WASTE,Study1,S,49,37,Study,User,-,,Study/JOL,"Study Phase2",924,,,-1,-1,,,,1
5c707357011e2900019d3707,yxt5blo5e2,Nick_Dissertation_EX1,1,205,2020-07-08T15:06:17-07:00,1.3444979190826,2,versionA_stim.csv,READVersionB.csv,"Read Version B","Dissertation, read only version B",PAST,FUTURE,Study1,S,61,68,Study,User,-,,Study/JOL,"Study Phase2",1074,,,-1,-1,,,,1
5c707357011e2900019d3707,yxt5blo5e2,Nick_Dissertation_EX1,1,206,2020-07-08T15:06:19-07:00,1.607696056366,2,versionA_stim.csv,READVersionB.csv,"Read Version B","Dissertation, read only version B",CIRCLE,ROUND,Study1,S,65,10,Study,User,-,,Study/JOL,"Study Phase2",1342,,,-1,-1,,,,1
5c707357011e2900019d3707,yxt5blo5e2,Nick_Dissertation_EX1,1,207,2020-07-08T15:06:20-07:00,1.2882969379425,2,versionA_stim.csv,READVersionB.csv,"Read Version B","Dissertation, read only version B",PARK,HUNGRY,Study1,U,68,59,Study,User,-,,Study/JOL,"Study Phase2",1021,,,-1,-1,,,,1
5c707357011e2900019d3707,yxt5blo5e2,Nick_Dissertation_EX1,1,208,2020-07-08T15:06:22-07:00,1.2886581420898,2,versionA_stim.csv,READVersionB.csv,"Read Version B","Dissertation, read only version B",DIGESTION,STOMACH,Study1,F,7,27,Study,User,-,,Study/JOL,"Study Phase2",1022,,,-1,-1,,,,1
5c707357011e2900019d3707,yxt5blo5e2,Nick_Dissertation_EX1,1,209,2020-07-08T15:06:23-07:00,1.4400329589844,2,versionA_stim.csv,READVersionB.csv,"Read Version B","Dissertation, read only version B",GEOLOGY,ROCK,Study1,F,19,22,Study,User,-,,Study/JOL,"Study Phase2",1170,,,-1,-1,,,,1
5c707357011e2900019d3707,yxt5blo5e2,Nick_Dissertation_EX1,1,210,2020-07-08T15:06:24-07:00,1.2854690551758,2,versionA_stim.csv,READVersionB.csv,"Read Version B","Dissertation, read only version B",TAKE,SEIZE,Study1,B,29,14,Study,User,-,,Study/JOL,"Study Phase2",1011,,,-1,-1,,,,1
5c707357011e2900019d3707,yxt5blo5e2,Nick_Dissertation_EX1,1,211,2020-07-08T15:06:26-07:00,1.2602488994598,2,versionA_stim.csv,READVersionB.csv,"Read Version B","Dissertation, read only version B",HORNET,STING,Study1,F,11,50,Study,User,-,,Study/JOL,"Study Phase2",991,,,-1,-1,,,,1
5c707357011e2900019d3707,yxt5blo5e2,Nick_Dissertation_EX1,1,212,2020-07-08T15:06:27-07:00,1.1330170631409,2,versionA_stim.csv,READVersionB.csv,"Read Version B","Dissertation, read only version B",SHOE,FOOT,Study1,S,60,86,Study,User,-,,Study/JOL,"Study Phase2",866,,,-1,-1,,,,1
5c707357011e2900019d3707,yxt5blo5e2,Nick_Dissertation_EX1,1,213,2020-07-08T15:06:28-07:00,1.1124579906464,2,versionA_stim.csv,READVersionB.csv,"Read Version B","Dissertation, read only version B",BUG,WASP,Study1,B,32,73,Study,User,-,,Study/JOL,"Study Phase2",847,,,-1,-1,,,,1
5c707357011e2900019d3707,yxt5blo5e2,Nick_Dissertation_EX1,1,214,2020-07-08T15:06:29-07:00,1.0246338844299,2,versionA_stim.csv,READVersionB.csv,"Read Version B","Dissertation, read only version B",WAY,OUT,Study1,F,16,48,Study,User,-,,Study/JOL,"Study Phase2",757,,,-1,-1,,,,1
5c707357011e2900019d3707,yxt5blo5e2,Nick_Dissertation_EX1,1,215,2020-07-08T15:06:31-07:00,1.9606900215149,2,versionA_stim.csv,READVersionB.csv,"Read Version B","Dissertation, read only version B",KIDNEY,LIVER,Study1,S,53,83,Study,User,-,,Study/JOL,"Study Phase2",691,,,-1,-1,,,,1
5c707357011e2900019d3707,yxt5blo5e2,Nick_Dissertation_EX1,1,216,2020-07-08T15:06:32-07:00,0.92721915245056,2,versionA_stim.csv,READVersionB.csv,"Read Version B","Dissertation, read only version B",WINE,CHEESE,Study1,S,57,62,Study,User,-,,Study/JOL,"Study Phase2",643,,,-1,-1,,,,1
5c707357011e2900019d3707,yxt5blo5e2,Nick_Dissertation_EX1,1,217,2020-07-08T15:06:33-07:00,0.90369892120361,2,versionA_stim.csv,READVersionB.csv,"Read Version B","Dissertation, read only version B",EDITOR,NEWS,Study1,F,10,69,Study,User,-,,Study/JOL,"Study Phase2",634,,,-1,-1,,,,1
5c707357011e2900019d3707,yxt5blo5e2,Nick_Dissertation_EX1,1,218,2020-07-08T15:06:35-07:00,1.964910030365,2,versionA_stim.csv,READVersionB.csv,"Read Version B","Dissertation, read only version B",LAW,ATTORNEY,Study1,B,34,64,Study,User,-,,Study/JOL,"Study Phase2",691,,,-1,-1,,,,1
5c707357011e2900019d3707,yxt5blo5e2,Nick_Dissertation_EX1,1,219,2020-07-08T15:06:35-07:00,0.84470391273499,2,versionA_stim.csv,READVersionB.csv,"Read Version B","Dissertation, read only version B",DEATH,BUSINESS,Study1,U,72,9,Study,User,-,,Study/JOL,"Study Phase2",580,,,-1,-1,,,,1
5c707357011e2900019d3707,yxt5blo5e2,Nick_Dissertation_EX1,1,220,2020-07-08T15:06:36-07:00,0.99008703231812,2,versionA_stim.csv,READVersionB.csv,"Read Version B","Dissertation, read only version B",STRONG,ACCIDENT,Study1,U,80,46,Study,User,-,,Study/JOL,"Study Phase2",722,,,-1,-1,,,,1
5c707357011e2900019d3707,yxt5blo5e2,Nick_Dissertation_EX1,1,221,2020-07-08T15:06:37-07:00,0.840989112854,2,versionA_stim.csv,READVersionB.csv,"Read Version B","Dissertation, read only version B",HIDE,SICK,Study1,U,84,82,Study,User,-,,Study/JOL,"Study Phase2",572,,,-1,-1,,,,1
5c707357011e2900019d3707,yxt5blo5e2,Nick_Dissertation_EX1,1,222,2020-07-08T15:06:38-07:00,0.816969871521,2,versionA_stim.csv,READVersionB.csv,"Read Version B","Dissertation, read only version B",KEY,LATCH,Study1,B,36,56,Study,User,-,,Study/JOL,"Study Phase2",550,,,-1,-1,,,,1
5c707357011e2900019d3707,yxt5blo5e2,Nick_Dissertation_EX1,1,223,2020-07-08T15:06:39-07:00,0.79973411560059,2,versionA_stim.csv,READVersionB.csv,"Read Version B","Dissertation, read only version B",CLOTHES,ATTIRE,Study1,B,43,77,Study,User,-,,Study/JOL,"Study Phase2",529,,,-1,-1,,,,1
5c707357011e2900019d3707,yxt5blo5e2,Nick_Dissertation_EX1,1,224,2020-07-08T15:06:40-07:00,0.92289400100708,2,versionA_stim.csv,READVersionB.csv,"Read Version B","Dissertation, read only version B",HYGIENE,CLEAN,Study1,F,17,32,Study,User,-,,Study/JOL,"Study Phase2",652,,,644,644,,,,1
5c707357011e2900019d3707,yxt5blo5e2,Nick_Dissertation_EX1,1,225,2020-07-08T15:06:41-07:00,1.0198168754578,2,versionA_stim.csv,READVersionB.csv,"Read Version B","Dissertation, read only version B",ARCHITECTURE,DESIGN,Study1,S,51,12,Study,User,-,,Study/JOL,"Study Phase2",751,,,-1,-1,,,,1
5c707357011e2900019d3707,yxt5blo5e2,Nick_Dissertation_EX1,1,226,2020-07-08T15:06:42-07:00,1.108001947403,2,versionA_stim.csv,READVersionB.csv,"Read Version B","Dissertation, read only version B",MACHINE,POSITION,Study1,U,76,44,Study,User,-,,Study/JOL,"Study Phase2",836,,,-1,-1,,,,1
5c707357011e2900019d3707,yxt5blo5e2,Nick_Dissertation_EX1,1,227,2020-07-08T15:06:43-07:00,0.95101404190063,2,versionA_stim.csv,READVersionB.csv,"Read Version B","Dissertation, read only version B",DEBATE,SIGHT,Study1,U,73,58,Study,User,-,,Study/JOL,"Study Phase2",679,,,-1,-1,,,,1
5c707357011e2900019d3707,yxt5blo5e2,Nick_Dissertation_EX1,1,228,2020-07-08T15:06:43-07:00,0.32679414749146,2,versionA_stim.csv,READVersionB.csv,"Read Version B","Dissertation, read only version B",LOCATION,SITE,Study1,S,48,13,Study,User,-,,Study/JOL,"Study Phase2",59,,,-1,-1,,,,1
5c707357011e2900019d3707,yxt5blo5e2,Nick_Dissertation_EX1,1,229,2020-07-08T15:06:45-07:00,2.1283838748932,2,versionA_stim.csv,READVersionB.csv,"Read Version B","Dissertation, read only version B",VALLEY,ADD,Study1,U,82,39,Study,User,-,,Study/JOL,"Study Phase2",1861,,,-1,-1,,,,1
5c707357011e2900019d3707,yxt5blo5e2,Nick_Dissertation_EX1,1,230,2020-07-08T15:06:47-07:00,1.5472300052643,2,versionA_stim.csv,READVersionB.csv,"Read Version B","Dissertation, read only version B",KING,VASE,Study1,U,85,52,Study,User,-,,Study/JOL,"Study Phase2",1274,,,-1,-1,,,,1
5c707357011e2900019d3707,yxt5blo5e2,Nick_Dissertation_EX1,1,231,2020-07-08T15:06:50-07:00,3.0252480506897,2,versionA_stim.csv,READVersionB.csv,"Read Version B","Dissertation, read only version B",DIETARY,SACKING,Study1,U,67,78,Study,User,-,,Study/JOL,"Study Phase2",2683,,,-1,-1,,,,1
5c707357011e2900019d3707,yxt5blo5e2,Nick_Dissertation_EX1,1,232,2020-07-08T15:06:51-07:00,1.2133929729462,2,versionA_stim.csv,READVersionB.csv,"Read Version B","Dissertation, read only version B",HERD,COW,Study1,F,22,11,Study,User,-,,Study/JOL,"Study Phase2",940,,,-1,-1,,,,1
5c707357011e2900019d3707,yxt5blo5e2,Nick_Dissertation_EX1,1,233,2020-07-08T15:06:52-07:00,1.2153120040894,2,versionA_stim.csv,READVersionB.csv,"Read Version B","Dissertation, read only version B",GREAT,FANTASTIC,Study1,B,35,43,Study,User,-,,Study/JOL,"Study Phase2",947,,,-1,-1,,,,1
5c707357011e2900019d3707,yxt5blo5e2,Nick_Dissertation_EX1,1,234,2020-07-08T15:06:54-07:00,1.344789981842,2,versionA_stim.csv,READVersionB.csv,"Read Version B","Dissertation, read only version B",LIFT,WOMAN,Study1,U,69,84,Study,User,-,,Study/JOL,"Study Phase2",1075,,,-1,-1,,,,1
5c707357011e2900019d3707,yxt5blo5e2,Nick_Dissertation_EX1,1,235,2020-07-08T15:06:57-07:00,2.9928119182587,2,versionA_stim.csv,READVersionB.csv,"Read Version B","Dissertation, read only version B",ROOT,PLANT,Study1,F,13,26,Study,User,-,,Study/JOL,"Study Phase2",1720,,,-1,-1,,,,1
5c707357011e2900019d3707,yxt5blo5e2,Nick_Dissertation_EX1,1,236,2020-07-08T15:06:58-07:00,1.3508741855621,2,versionA_stim.csv,READVersionB.csv,"Read Version B","Dissertation, read only version B",WAGE,MONEY,Study1,F,8,75,Study,User,-,,Study/JOL,"Study Phase2",1078,,,-1,-1,,,,1
5c707357011e2900019d3707,yxt5blo5e2,Nick_Dissertation_EX1,1,237,2020-07-08T15:07:00-07:00,1.6163938045502,2,versionA_stim.csv,READVersionB.csv,"Read Version B","Dissertation, read only version B",SLEEP,DROWSY,Study1,B,41,40,Study,User,-,,Study/JOL,"Study Phase2",1346,,,-1,-1,,,,1
5c707357011e2900019d3707,yxt5blo5e2,Nick_Dissertation_EX1,1,238,2020-07-08T15:07:01-07:00,1.0177299976349,2,versionA_stim.csv,READVersionB.csv,"Read Version B","Dissertation, read only version B",BEGIN,END,Study1,S,54,38,Study,User,-,,Study/JOL,"Study Phase2",747,,,-1,-1,,,,1
5c707357011e2900019d3707,yxt5blo5e2,Nick_Dissertation_EX1,1,239,2020-07-08T15:07:02-07:00,1.2603580951691,2,versionA_stim.csv,READVersionB.csv,"Read Version B","Dissertation, read only version B",CHISEL,HAMMER,Study1,F,9,61,Study,User,-,,Study/JOL,"Study Phase2",979,,,-1,-1,,,,1
5c707357011e2900019d3707,yxt5blo5e2,Nick_Dissertation_EX1,1,240,2020-07-08T15:07:04-07:00,2.0821690559387,2,versionA_stim.csv,READVersionB.csv,"Read Version B","Dissertation, read only version B",ORCHID,FLOWER,Study1,F,24,31,Study,User,-,,Study/JOL,"Study Phase2",800,,,-1,-1,,,,1
5c707357011e2900019d3707,yxt5blo5e2,Nick_Dissertation_EX1,1,241,2020-07-08T15:07:05-07:00,0.96300196647644,2,versionA_stim.csv,READVersionB.csv,"Read Version B","Dissertation, read only version B",MATH,DIVISION,Study1,B,33,17,Study,User,-,,Study/JOL,"Study Phase2",685,,,-1,-1,,,,1
5c707357011e2900019d3707,yxt5blo5e2,Nick_Dissertation_EX1,1,242,2020-07-08T15:07:07-07:00,2.3028390407562,2,versionA_stim.csv,READVersionB.csv,"Read Version B","Dissertation, read only version B",TRIAL,JURY,Study1,S,50,79,Study,User,-,,Study/JOL,"Study Phase2",1020,,,-1,-1,,,,1
5c707357011e2900019d3707,yxt5blo5e2,Nick_Dissertation_EX1,1,243,2020-07-08T15:07:08-07:00,0.89370083808899,2,versionA_stim.csv,READVersionB.csv,"Read Version B","Dissertation, read only version B",HUNGER,FAMINE,Study1,B,40,57,Study,User,-,,Study/JOL,"Study Phase2",624,,,-1,-1,,,,1
5c707357011e2900019d3707,yxt5blo5e2,Nick_Dissertation_EX1,1,244,2020-07-08T15:07:09-07:00,0.94449615478516,2,versionA_stim.csv,READVersionB.csv,"Read Version B","Dissertation, read only version B",SOON,BELT,Study1,U,70,34,Study,User,-,,Study/JOL,"Study Phase2",672,,,-1,-1,,,,1
5c707357011e2900019d3707,yxt5blo5e2,Nick_Dissertation_EX1,1,245,2020-07-08T15:07:10-07:00,0.99293398857117,2,versionA_stim.csv,READVersionB.csv,"Read Version B","Dissertation, read only version B",CREDIT,CARD,Study1,F,23,28,Study,User,-,,Study/JOL,"Study Phase2",721,,,-1,-1,,,,1
5c707357011e2900019d3707,yxt5blo5e2,Nick_Dissertation_EX1,1,246,2020-07-08T15:07:12-07:00,1.8569340705872,2,versionA_stim.csv,READVersionB.csv,"Read Version B","Dissertation, read only version B",DRINK,SIP,Study1,B,27,41,Study,User,-,,Study/JOL,"Study Phase2",575,,,-1,-1,,,,1
5c707357011e2900019d3707,yxt5blo5e2,Nick_Dissertation_EX1,1,247,2020-07-08T15:07:13-07:00,0.91164088249207,2,versionA_stim.csv,READVersionB.csv,"Read Version B","Dissertation, read only version B",HAPPY,CAR,Study1,U,77,45,Study,User,-,,Study/JOL,"Study Phase2",633,,,-1,-1,,,,1
5c707357011e2900019d3707,yxt5blo5e2,Nick_Dissertation_EX1,1,248,2020-07-08T15:07:14-07:00,1.4161880016327,2,versionA_stim.csv,READVersionB.csv,"Read Version B","Dissertation, read only version B",FIRE,BLAZE,Study1,B,45,47,Study,User,-,,Study/JOL,"Study Phase2",1141,,,-1,-1,,,,1
5c707357011e2900019d3707,yxt5blo5e2,Nick_Dissertation_EX1,1,249,2020-07-08T15:07:16-07:00,1.8791379928589,2,versionA_stim.csv,READVersionB.csv,"Read Version B","Dissertation, read only version B",BITTER,COLD,Study1,F,12,30,Study,User,-,,Study/JOL,"Study Phase2",1596,,,-1,-1,,,,1
5c707357011e2900019d3707,yxt5blo5e2,Nick_Dissertation_EX1,1,250,2020-07-08T15:07:17-07:00,1.0091750621796,2,versionA_stim.csv,READVersionB.csv,"Read Version B","Dissertation, read only version B",LETTUCE,SALAD,Study1,S,59,19,Study,User,-,,Study/JOL,"Study Phase2",741,,,-1,-1,,,,1
5c707357011e2900019d3707,yxt5blo5e2,Nick_Dissertation_EX1,1,251,2020-07-08T15:07:20-07:00,2.4013378620148,2,versionA_stim.csv,READVersionB.csv,"Read Version B","Dissertation, read only version B",BALL,RACKET,Study1,B,38,33,Study,User,-,,Study/JOL,"Study Phase2",2057,,,-1,-1,,,,1
5c707357011e2900019d3707,yxt5blo5e2,Nick_Dissertation_EX1,1,252,2020-07-08T15:07:21-07:00,1.1659760475159,2,versionA_stim.csv,READVersionB.csv,"Read Version B","Dissertation, read only version B",HOT,CHILI,Study1,B,37,71,Study,User,-,,Study/JOL,"Study Phase2",891,,,-1,-1,,,,1
5c707357011e2900019d3707,yxt5blo5e2,Nick_Dissertation_EX1,1,253,2020-07-08T15:07:22-07:00,1.0792059898376,2,versionA_stim.csv,READVersionB.csv,"Read Version B","Dissertation, read only version B",SUGAR,RIDDLE,Study1,U,81,85,Study,User,-,,Study/JOL,"Study Phase2",811,,,-1,-1,,,,1
5c707357011e2900019d3707,yxt5blo5e2,Nick_Dissertation_EX1,1,254,2020-07-08T15:07:23-07:00,1.0822739601135,2,versionA_stim.csv,READVersionB.csv,"Read Version B","Dissertation, read only version B",PLANE,PILOT,Study1,B,44,65,Study,User,-,,Study/JOL,"Study Phase2",812,,,-1,-1,,,,1
5c707357011e2900019d3707,yxt5blo5e2,Nick_Dissertation_EX1,1,255,2020-07-08T15:07:24-07:00,0.95283102989197,2,versionA_stim.csv,READVersionB.csv,"Read Version B","Dissertation, read only version B",PAW,DOG,Study1,F,15,42,Study,User,-,,Study/JOL,"Study Phase2",677,,,-1,-1,,,,1
5c707357011e2900019d3707,yxt5blo5e2,Nick_Dissertation_EX1,1,256,2020-07-08T15:07:25-07:00,0.84672117233276,2,versionA_stim.csv,READVersionB.csv,"Read Version B","Dissertation, read only version B",TUNA,FISH,Study1,F,25,80,Study,User,-,,Study/JOL,"Study Phase2",582,,,-1,-1,,,,1
5c707357011e2900019d3707,yxt5blo5e2,Nick_Dissertation_EX1,1,257,2020-07-08T15:07:26-07:00,1.0646507740021,2,versionA_stim.csv,READVersionB.csv,"Read Version B","Dissertation, read only version B",MEANING,DEFINITION,Study1,S,62,18,Study,User,-,,Study/JOL,"Study Phase2",796,,,-1,-1,,,,1
5c707357011e2900019d3707,yxt5blo5e2,Nick_Dissertation_EX1,1,258,2020-07-08T15:07:27-07:00,0.99255919456482,2,versionA_stim.csv,READVersionB.csv,"Read Version B","Dissertation, read only version B",HEIGHT,GROWTH,Study1,B,30,21,Study,User,-,,Study/JOL,"Study Phase2",694,,,-1,-1,,,,1
5c707357011e2900019d3707,yxt5blo5e2,Nick_Dissertation_EX1,1,259,2020-07-08T15:07:28-07:00,0.90422487258911,2,versionA_stim.csv,READVersionB.csv,"Read Version B","Dissertation, read only version B",DISCOVER,FLOOR,Study1,U,71,63,Study,User,-,,Study/JOL,"Study Phase2",634,,,-1,-1,,,,1
5c707357011e2900019d3707,yxt5blo5e2,Nick_Dissertation_EX1,1,260,2020-07-08T15:07:29-07:00,0.89622807502747,2,versionA_stim.csv,READVersionB.csv,"Read Version B","Dissertation, read only version B",FULL,ENOUGH,Study1,B,26,53,Study,User,-,,Study/JOL,"Study Phase2",588,,,-1,-1,,,,1
5c707357011e2900019d3707,yxt5blo5e2,Nick_Dissertation_EX1,1,261,2020-07-08T15:07:30-07:00,1.127053976059,2,versionA_stim.csv,READVersionB.csv,"Read Version B","Dissertation, read only version B",GEESE,GOOSE,BUFFER2,Buffer,86,90,Study,User,-,,Study/JOL,BUFFER4,855,,,-1,-1,,,,1
5c707357011e2900019d3707,yxt5blo5e2,Nick_Dissertation_EX1,1,262,2020-07-08T15:07:31-07:00,0.9951229095459,2,versionA_stim.csv,READVersionB.csv,"Read Version B","Dissertation, read only version B",SHERRIF,POLICE,BUFFER2,Buffer,87,91,Study,User,-,,Study/JOL,BUFFER4,720,,,-1,-1,,,,1
5c707357011e2900019d3707,yxt5blo5e2,Nick_Dissertation_EX1,1,263,2020-07-08T15:07:32-07:00,1.2460491657257,2,versionA_stim.csv,READVersionB.csv,"Read Version B","Dissertation, read only version B",MOON,SPACE,BUFFER2,Buffer,89,87,Study,User,-,,Study/JOL,BUFFER4,975,,,-1,-1,,,,1
5c707357011e2900019d3707,yxt5blo5e2,Nick_Dissertation_EX1,1,264,2020-07-08T15:07:33-07:00,1.4484529495239,2,versionA_stim.csv,READVersionB.csv,"Read Version B","Dissertation, read only version B",MALT,CHOCOLATE,BUFFER2,Buffer,88,89,Study,User,-,,Study/JOL,BUFFER4,1183,,,-1,-1,,,,1
5c707357011e2900019d3707,yxt5blo5e2,Nick_Dissertation_EX1,1,265,2020-07-08T15:07:35-07:00,1.1515350341797,2,versionA_stim.csv,READVersionB.csv,"Read Version B","Dissertation, read only version B",THING,STUFF,BUFFER2,Buffer,90,88,Study,User,-,,Study/JOL,BUFFER4,887,,,-1,-1,,,,1
5c707357011e2900019d3707,yxt5blo5e2,Nick_Dissertation_EX1,1,266,2020-07-08T15:07:36-07:00,1.6058919429779,2,versionA_stim.csv,READVersionB.csv,"Read Version B","Dissertation, read only version B",,,,,,0,Instruct,User,-,"You have completed this section. Please press Enter.",Filler_Instruction,Instruct5,1342,,,-1,-1,,,,1
5c707357011e2900019d3707,yxt5blo5e2,Nick_Dissertation_EX1,1,267,2020-07-08T15:09:36-07:00,120.35527205467,2,versionA_stim.csv,READVersionB.csv,"Read Version B","Dissertation, read only version B",,,,,,0,FreeRecall,120,120,"Please list the 50 US states in reverse alphabetical order (z - a). The task will automatically advance to the next screen after two minutes.",,Filler2,120002,"Wyoming wisconsin west virginia Washington Virginia Vermont Utah Texas Tennessee South Dakota South Carolina Rhode Island Pennsylvania Oregon Oklahoma Ohio North Dakota N",0,39394,119979,0,0,,0.922
5c707357011e2900019d3707,yxt5blo5e2,Nick_Dissertation_EX1,1,268,2020-07-08T15:09:49-07:00,12.577183008194,2,versionA_stim.csv,READVersionB.csv,"Read Version B","Dissertation, read only version B",,,,,,0,Instruct,-,10,"You will now be presented with the first word from each of the previously studied item pairs. Please type the missing word. If you do not know the word, you may guess or press Enter to skip forward to the next pair.",,Instruct6,12229,,,-1,-1,,,,1
5c707357011e2900019d3707,yxt5blo5e2,Nick_Dissertation_EX1,1,269,2020-07-08T15:09:53-07:00,3.7074790000916,2,versionA_stim.csv,READVersionB.csv,"Read Version B","Dissertation, read only version B",WORK,CHORE,Study1,B,39,24,Test,User,-,,Recall,Recall2,3348,job,25,2804,3003,0,0,,1
5c707357011e2900019d3707,yxt5blo5e2,Nick_Dissertation_EX1,1,270,2020-07-08T15:09:56-07:00,3.1350858211517,2,versionA_stim.csv,READVersionB.csv,"Read Version B","Dissertation, read only version B",DEATH,BUSINESS,Study1,U,72,9,Test,User,-,,Recall,Recall2,2787,stamp,15.384615384615,1939,2306,0,0,,1
5c707357011e2900019d3707,yxt5blo5e2,Nick_Dissertation_EX1,1,271,2020-07-08T15:09:58-07:00,2.1399641036987,2,versionA_stim.csv,READVersionB.csv,"Read Version B","Dissertation, read only version B",EDITOR,NEWS,Study1,F,10,69,Test,User,-,,Recall,Recall2,1841,write,22.222222222222,1337,1721,0,0,,1
5c707357011e2900019d3707,yxt5blo5e2,Nick_Dissertation_EX1,1,272,2020-07-08T15:10:01-07:00,2.9477488994598,2,versionA_stim.csv,READVersionB.csv,"Read Version B","Dissertation, read only version B",GRILL,BAR,Study1,S,52,8,Test,User,-,,Recall,Recall2,2598,cook,0,1302,2582,0,0,,1
5c707357011e2900019d3707,yxt5blo5e2,Nick_Dissertation_EX1,1,273,2020-07-08T15:10:04-07:00,2.5305860042572,2,versionA_stim.csv,READVersionB.csv,"Read Version B","Dissertation, read only version B",KIDNEY,LIVER,Study1,S,53,83,Test,User,-,,Recall,Recall2,2179,stone,20,1683,2098,0,0,,1
5c707357011e2900019d3707,yxt5blo5e2,Nick_Dissertation_EX1,1,274,2020-07-08T15:10:06-07:00,2.3172850608826,2,versionA_stim.csv,READVersionB.csv,"Read Version B","Dissertation, read only version B",PUSHER,CLUTTER,Study1,U,66,54,Test,User,-,,Recall,Recall2,1903,grill,16.666666666667,1415,1839,0,0,,1
5c707357011e2900019d3707,yxt5blo5e2,Nick_Dissertation_EX1,1,275,2020-07-08T15:10:07-07:00,1.5236871242523,2,versionA_stim.csv,READVersionB.csv,"Read Version B","Dissertation, read only version B",CIRCLE,ROUND,Study1,S,65,10,Test,User,-,,Recall,Recall2,1253,,0,-1,-1,0,0,,1
5c707357011e2900019d3707,yxt5blo5e2,Nick_Dissertation_EX1,1,276,2020-07-08T15:10:09-07:00,1.8329448699951,2,versionA_stim.csv,READVersionB.csv,"Read Version B","Dissertation, read only version B",GEOLOGY,ROCK,Study1,F,19,22,Test,User,-,,Recall,Recall2,1560,rock,100,967,1407,1,1,,1
5c707357011e2900019d3707,yxt5blo5e2,Nick_Dissertation_EX1,1,277,2020-07-08T15:10:11-07:00,1.8171899318695,2,versionA_stim.csv,READVersionB.csv,"Read Version B","Dissertation, read only version B",KING,VASE,Study1,U,85,52,Test,User,-,,Recall,Recall2,1543,queen,22.222222222222,927,1446,0,0,,1
5c707357011e2900019d3707,yxt5blo5e2,Nick_Dissertation_EX1,1,278,2020-07-08T15:10:13-07:00,1.8163650035858,2,versionA_stim.csv,READVersionB.csv,"Read Version B","Dissertation, read only version B",WAGE,MONEY,Study1,F,8,75,Test,User,-,,Recall,Recall2,1541,cash,0,973,1437,0,0,,1
5c707357011e2900019d3707,yxt5blo5e2,Nick_Dissertation_EX1,1,279,2020-07-08T15:10:17-07:00,4.285530090332,2,versionA_stim.csv,READVersionB.csv,"Read Version B","Dissertation, read only version B",TAKE,SEIZE,Study1,B,29,14,Test,User,-,,Recall,Recall2,3931,seize,100,3019,3715,1,1,,1
5c707357011e2900019d3707,yxt5blo5e2,Nick_Dissertation_EX1,1,280,2020-07-08T15:10:19-07:00,1.4806299209595,2,versionA_stim.csv,READVersionB.csv,"Read Version B","Dissertation, read only version B",HONEY,BEE,Study1,S,63,51,Test,User,-,,Recall,Recall2,1205,bee,100,804,1132,1,1,,1
5c707357011e2900019d3707,yxt5blo5e2,Nick_Dissertation_EX1,1,281,2020-07-08T15:10:22-07:00,3.8145020008087,2,versionA_stim.csv,READVersionB.csv,"Read Version B","Dissertation, read only version B",BLOW,WIND,Study1,S,55,67,Test,User,-,,Recall,Recall2,3463,wind,100,3167,3374,1,1,,1
5c707357011e2900019d3707,yxt5blo5e2,Nick_Dissertation_EX1,1,282,2020-07-08T15:10:24-07:00,1.3714921474457,2,versionA_stim.csv,READVersionB.csv,"Read Version B","Dissertation, read only version B",NUMBER,AMOUNT,Study1,S,47,72,Test,User,-,,Recall,Recall2,1099,,0,-1,-1,0,0,,1
5c707357011e2900019d3707,yxt5blo5e2,Nick_Dissertation_EX1,1,283,2020-07-08T15:10:29-07:00,5.5334899425507,2,versionA_stim.csv,READVersionB.csv,"Read Version B","Dissertation, read only version B",PLANE,PILOT,Study1,B,44,65,Test,User,-,,Recall,Recall2,5186,aircraft,30.769230769231,2594,5113,0,0,,1
5c707357011e2900019d3707,yxt5blo5e2,Nick_Dissertation_EX1,1,284,2020-07-08T15:10:31-07:00,1.6058790683746,2,versionA_stim.csv,READVersionB.csv,"Read Version B","Dissertation, read only version B",BEGIN,END,Study1,S,54,38,Test,User,-,,Recall,Recall2,1331,,0,-1,-1,0,0,,1
5c707357011e2900019d3707,yxt5blo5e2,Nick_Dissertation_EX1,1,285,2020-07-08T15:10:34-07:00,3.125058889389,2,versionA_stim.csv,READVersionB.csv,"Read Version B","Dissertation, read only version B",DIGESTION,STOMACH,Study1,F,7,27,Test,User,-,,Recall,Recall2,2767,food,18.181818181818,1487,1871,0,0,,1
5c707357011e2900019d3707,yxt5blo5e2,Nick_Dissertation_EX1,1,286,2020-07-08T15:10:37-07:00,2.5898001194,2,versionA_stim.csv,READVersionB.csv,"Read Version B","Dissertation, read only version B",KEY,LATCH,Study1,B,36,56,Test,User,-,,Recall,Recall2,2230,,0,1493,1493,0,0,,1
5c707357011e2900019d3707,yxt5blo5e2,Nick_Dissertation_EX1,1,287,2020-07-08T15:10:39-07:00,2.8152689933777,2,versionA_stim.csv,READVersionB.csv,"Read Version B","Dissertation, read only version B",WINE,CHEESE,Study1,S,57,62,Test,User,-,,Recall,Recall2,2463,cheese,100,1191,2335,1,1,,1
5c707357011e2900019d3707,yxt5blo5e2,Nick_Dissertation_EX1,1,288,2020-07-08T15:10:41-07:00,1.8107218742371,2,versionA_stim.csv,READVersionB.csv,"Read Version B","Dissertation, read only version B",CREDIT,CARD,Study1,F,23,28,Test,User,-,,Recall,Recall2,1534,card,100,742,1358,1,1,,1
5c707357011e2900019d3707,yxt5blo5e2,Nick_Dissertation_EX1,1,289,2020-07-08T15:10:45-07:00,3.5189321041107,2,versionA_stim.csv,READVersionB.csv,"Read Version B","Dissertation, read only version B",GREAT,FANTASTIC,Study1,B,35,43,Test,User,-,,Recall,Recall2,3154,amazing,37.5,2105,2857,0,0,,1
5c707357011e2900019d3707,yxt5blo5e2,Nick_Dissertation_EX1,1,290,2020-07-08T15:10:48-07:00,3.3449840545654,2,versionA_stim.csv,READVersionB.csv,"Read Version B","Dissertation, read only version B",HORNET,STING,Study1,F,11,50,Test,User,-,,Recall,Recall2,2995,sting,100,1571,2891,1,1,,1
5c707357011e2900019d3707,yxt5blo5e2,Nick_Dissertation_EX1,1,291,2020-07-08T15:10:57-07:00,8.6152079105377,2,versionA_stim.csv,READVersionB.csv,"Read Version B","Dissertation, read only version B",BITTER,COLD,Study1,F,12,30,Test,User,-,,Recall,Recall2,8262,taste,0,5205,8150,0,0,,1
5c707357011e2900019d3707,yxt5blo5e2,Nick_Dissertation_EX1,1,292,2020-07-08T15:11:02-07:00,5.1775710582733,2,versionA_stim.csv,READVersionB.csv,"Read Version B","Dissertation, read only version B",DISCOVER,FLOOR,Study1,U,71,63,Test,User,-,,Recall,Recall2,4827,hide,0,1938,4714,0,0,,1
5c707357011e2900019d3707,yxt5blo5e2,Nick_Dissertation_EX1,1,293,2020-07-08T15:11:05-07:00,3.1613750457764,2,versionA_stim.csv,READVersionB.csv,"Read Version B","Dissertation, read only version B",LAW,ATTORNEY,Study1,B,34,64,Test,User,-,,Recall,Recall2,1793,order,46.153846153846,1289,1704,0,0,,1
5c707357011e2900019d3707,yxt5blo5e2,Nick_Dissertation_EX1,1,294,2020-07-08T15:11:12-07:00,7.0646870136261,2,versionA_stim.csv,READVersionB.csv,"Read Version B","Dissertation, read only version B",HUNGER,FAMINE,Study1,B,40,57,Test,User,-,,Recall,Recall2,6711,stomach,15.384615384615,5495,6590,0,0,,1
5c707357011e2900019d3707,yxt5blo5e2,Nick_Dissertation_EX1,1,295,2020-07-08T15:11:16-07:00,4.3044619560242,2,versionA_stim.csv,READVersionB.csv,"Read Version B","Dissertation, read only version B",HEIGHT,GROWTH,Study1,B,30,21,Test,User,-,,Recall,Recall2,3948,age,22.222222222222,1716,3780,0,0,,1
5c707357011e2900019d3707,yxt5blo5e2,Nick_Dissertation_EX1,1,296,2020-07-08T15:11:22-07:00,5.2953808307648,2,versionA_stim.csv,READVersionB.csv,"Read Version B","Dissertation, read only version B",DELINQUENT,BAD,Study1,F,6,23,Test,User,-,,Recall,Recall2,4942,,0,3934,4117,0,0,,1
5c707357011e2900019d3707,yxt5blo5e2,Nick_Dissertation_EX1,1,297,2020-07-08T15:11:25-07:00,3.2808291912079,2,versionA_stim.csv,READVersionB.csv,"Read Version B","Dissertation, read only version B",MEANING,DEFINITION,Study1,S,62,18,Test,User,-,,Recall,Recall2,2927,word,14.285714285714,1871,2831,0,0,,1
5c707357011e2900019d3707,yxt5blo5e2,Nick_Dissertation_EX1,1,298,2020-07-08T15:11:29-07:00,4.0425748825073,2,versionA_stim.csv,READVersionB.csv,"Read Version B","Dissertation, read only version B",SMELL,STENCH,Study1,B,42,35,Test,User,-,,Recall,Recall2,3680,odor,0,2335,3583,0,0,,1
5c707357011e2900019d3707,yxt5blo5e2,Nick_Dissertation_EX1,1,299,2020-07-08T15:11:31-07:00,1.7983329296112,2,versionA_stim.csv,READVersionB.csv,"Read Version B","Dissertation, read only version B",VALLEY,ADD,Study1,U,82,39,Test,User,-,,Recall,Recall2,1489,,0,-1,-1,0,0,,1
5c707357011e2900019d3707,yxt5blo5e2,Nick_Dissertation_EX1,1,300,2020-07-08T15:11:34-07:00,2.9841260910034,2,versionA_stim.csv,READVersionB.csv,"Read Version B","Dissertation, read only version B",ARCHITECTURE,DESIGN,Study1,S,51,12,Test,User,-,,Recall,Recall2,2594,,0,-1,-1,0,0,,1
5c707357011e2900019d3707,yxt5blo5e2,Nick_Dissertation_EX1,1,301,2020-07-08T15:11:35-07:00,1.1884410381317,2,versionA_stim.csv,READVersionB.csv,"Read Version B","Dissertation, read only version B",DEBATE,SIGHT,Study1,U,73,58,Test,User,-,,Recall,Recall2,911,,0,-1,-1,0,0,,1
5c707357011e2900019d3707,yxt5blo5e2,Nick_Dissertation_EX1,1,302,2020-07-08T15:11:37-07:00,2.1599810123444,2,versionA_stim.csv,READVersionB.csv,"Read Version B","Dissertation, read only version B",ORCHID,FLOWER,Study1,F,24,31,Test,User,-,,Recall,Recall2,1889,flower,100,1017,1649,1,1,,1
5c707357011e2900019d3707,yxt5blo5e2,Nick_Dissertation_EX1,1,303,2020-07-08T15:11:40-07:00,2.8478579521179,2,versionA_stim.csv,READVersionB.csv,"Read Version B","Dissertation, read only version B",STRONG,ACCIDENT,Study1,U,80,46,Test,User,-,,Recall,Recall2,2489,weak,16.666666666667,2017,2313,0,0,,1
5c707357011e2900019d3707,yxt5blo5e2,Nick_Dissertation_EX1,1,304,2020-07-08T15:11:42-07:00,1.5291039943695,2,versionA_stim.csv,READVersionB.csv,"Read Version B","Dissertation, read only version B",WAY,OUT,Study1,F,16,48,Test,User,-,,Recall,Recall2,1241,,0,-1,-1,0,0,,1
5c707357011e2900019d3707,yxt5blo5e2,Nick_Dissertation_EX1,1,305,2020-07-08T15:11:44-07:00,2.8718149662018,2,versionA_stim.csv,READVersionB.csv,"Read Version B","Dissertation, read only version B",HERD,COW,Study1,F,22,11,Test,User,-,,Recall,Recall2,1598,cow,100,1126,1502,1,1,,1
5c707357011e2900019d3707,yxt5blo5e2,Nick_Dissertation_EX1,1,306,2020-07-08T15:11:49-07:00,4.1725730895996,2,versionA_stim.csv,READVersionB.csv,"Read Version B","Dissertation, read only version B",DUMP,WASTE,Study1,S,49,37,Test,User,-,,Recall,Recall2,3813,garbage,33.333333333333,1148,3028,0,0,,1
5c707357011e2900019d3707,yxt5blo5e2,Nick_Dissertation_EX1,1,307,2020-07-08T15:11:53-07:00,3.890261888504,2,versionA_stim.csv,READVersionB.csv,"Read Version B","Dissertation, read only version B",HIDE,SICK,Study1,U,84,82,Test,User,-,,Recall,Recall2,2423,find,25,2007,2230,0,0,,1
5c707357011e2900019d3707,yxt5blo5e2,Nick_Dissertation_EX1,1,308,2020-07-08T15:11:55-07:00,2.4663491249084,2,versionA_stim.csv,READVersionB.csv,"Read Version B","Dissertation, read only version B",HAPPY,CAR,Study1,U,77,45,Test,User,-,,Recall,Recall2,2109,SAD,33.333333333333,1557,1877,0,0,,1
5c707357011e2900019d3707,yxt5blo5e2,Nick_Dissertation_EX1,1,309,2020-07-08T15:11:57-07:00,1.713042974472,2,versionA_stim.csv,READVersionB.csv,"Read Version B","Dissertation, read only version B",REVOLUTION,WAR,Study1,F,20,49,Test,User,-,,Recall,Recall2,1430,war,100,1029,1221,1,1,,1
5c707357011e2900019d3707,yxt5blo5e2,Nick_Dissertation_EX1,1,310,2020-07-08T15:11:59-07:00,1.9393930435181,2,versionA_stim.csv,READVersionB.csv,"Read Version B","Dissertation, read only version B",PAST,FUTURE,Study1,S,61,68,Test,User,-,,Recall,Recall2,1660,future,100,995,1611,1,1,,1
5c707357011e2900019d3707,yxt5blo5e2,Nick_Dissertation_EX1,1,311,2020-07-08T15:12:01-07:00,2.1087260246277,2,versionA_stim.csv,READVersionB.csv,"Read Version B","Dissertation, read only version B",DARK,CAVE,Study1,B,28,55,Test,User,-,,Recall,Recall2,1805,light,0,1237,1701,0,0,,1
5c707357011e2900019d3707,yxt5blo5e2,Nick_Dissertation_EX1,1,312,2020-07-08T15:12:04-07:00,3.1323239803314,2,versionA_stim.csv,READVersionB.csv,"Read Version B","Dissertation, read only version B",CHISEL,HAMMER,Study1,F,9,61,Test,User,-,,Recall,Recall2,2778,carve,36.363636363636,2258,2706,0,0,,1
5c707357011e2900019d3707,yxt5blo5e2,Nick_Dissertation_EX1,1,313,2020-07-08T15:12:06-07:00,2.1005439758301,2,versionA_stim.csv,READVersionB.csv,"Read Version B","Dissertation, read only version B",HYGIENE,CLEAN,Study1,F,17,32,Test,User,-,,Recall,Recall2,1812,wash,22.222222222222,1348,1644,0,0,,1
5c707357011e2900019d3707,yxt5blo5e2,Nick_Dissertation_EX1,1,314,2020-07-08T15:12:16-07:00,9.6764390468597,2,versionA_stim.csv,READVersionB.csv,"Read Version B","Dissertation, read only version B",DIETARY,SACKING,Study1,U,67,78,Test,User,-,,Recall,Recall2,9320,,0,-1,-1,0,0,,1
5c707357011e2900019d3707,yxt5blo5e2,Nick_Dissertation_EX1,1,315,2020-07-08T15:12:21-07:00,5.1289958953857,2,versionA_stim.csv,READVersionB.csv,"Read Version B","Dissertation, read only version B",ARTERY,BRONZE,Study1,U,74,66,Test,User,-,,Recall,Recall2,4779,copper,33.333333333333,3459,4179,0,0,,1
5c707357011e2900019d3707,yxt5blo5e2,Nick_Dissertation_EX1,1,316,2020-07-08T15:12:37-07:00,16.346618890762,2,versionA_stim.csv,READVersionB.csv,"Read Version B","Dissertation, read only version B",SOON,BELT,Study1,U,70,34,Test,User,-,,Recall,Recall2,15992,,0,-1,-1,0,0,,1
5c707357011e2900019d3707,yxt5blo5e2,Nick_Dissertation_EX1,1,317,2020-07-08T15:12:39-07:00,1.4213531017303,2,versionA_stim.csv,READVersionB.csv,"Read Version B","Dissertation, read only version B",BABY,CHILD,Study1,S,64,36,Test,User,-,,Recall,Recall2,1133,,0,-1,-1,0,0,,1
5c707357011e2900019d3707,yxt5blo5e2,Nick_Dissertation_EX1,1,318,2020-07-08T15:12:41-07:00,2.6750988960266,2,versionA_stim.csv,READVersionB.csv,"Read Version B","Dissertation, read only version B",SUGAR,RIDDLE,Study1,U,81,85,Test,User,-,,Recall,Recall2,2323,sweet,18.181818181818,1211,1707,0,0,,1
5c707357011e2900019d3707,yxt5blo5e2,Nick_Dissertation_EX1,1,319,2020-07-08T15:12:43-07:00,1.5816450119019,2,versionA_stim.csv,READVersionB.csv,"Read Version B","Dissertation, read only version B",BRIDGE,WATER,Study1,F,18,60,Test,User,-,,Recall,Recall2,1304,water,100,912,1248,1,1,,1
5c707357011e2900019d3707,yxt5blo5e2,Nick_Dissertation_EX1,1,320,2020-07-08T15:12:45-07:00,2.4721829891205,2,versionA_stim.csv,READVersionB.csv,"Read Version B","Dissertation, read only version B",ART,LION,Study1,U,79,15,Test,User,-,,Recall,Recall2,2115,,0,1106,1178,0,0,,1
5c707357011e2900019d3707,yxt5blo5e2,Nick_Dissertation_EX1,1,321,2020-07-08T15:12:47-07:00,1.9508540630341,2,versionA_stim.csv,READVersionB.csv,"Read Version B","Dissertation, read only version B",SLEEP,DROWSY,Study1,B,41,40,Test,User,-,,Recall,Recall2,1678,wake,20,1094,1493,0,0,,1
5c707357011e2900019d3707,yxt5blo5e2,Nick_Dissertation_EX1,1,322,2020-07-08T15:12:50-07:00,2.9153499603271,2,versionA_stim.csv,READVersionB.csv,"Read Version B","Dissertation, read only version B",MACHINE,POSITION,Study1,U,76,44,Test,User,-,,Recall,Recall2,2558,,0,-1,-1,0,0,,1
5c707357011e2900019d3707,yxt5blo5e2,Nick_Dissertation_EX1,1,323,2020-07-08T15:12:52-07:00,2.1327731609344,2,versionA_stim.csv,READVersionB.csv,"Read Version B","Dissertation, read only version B",BALL,RACKET,Study1,B,38,33,Test,User,-,,Recall,Recall2,1859,game,40,1499,1731,0,0,,1
5c707357011e2900019d3707,yxt5blo5e2,Nick_Dissertation_EX1,1,324,2020-07-08T15:12:54-07:00,1.8870058059692,2,versionA_stim.csv,READVersionB.csv,"Read Version B","Dissertation, read only version B",POP,SODA,Study1,S,56,81,Test,User,-,,Recall,Recall2,1610,soda,100,1057,1361,1,1,,1
5c707357011e2900019d3707,yxt5blo5e2,Nick_Dissertation_EX1,1,325,2020-07-08T15:12:57-07:00,2.9958801269531,2,versionA_stim.csv,READVersionB.csv,"Read Version B","Dissertation, read only version B",PARK,HUNGRY,Study1,U,68,59,Test,User,-,,Recall,Recall2,2648,play,20,1264,2544,0,0,,1
5c707357011e2900019d3707,yxt5blo5e2,Nick_Dissertation_EX1,1,326,2020-07-08T15:12:59-07:00,1.6680619716644,2,versionA_stim.csv,READVersionB.csv,"Read Version B","Dissertation, read only version B",TUNA,FISH,Study1,F,25,80,Test,User,-,,Recall,Recall2,1390,fish,100,798,1262,1,1,,1
5c707357011e2900019d3707,yxt5blo5e2,Nick_Dissertation_EX1,1,327,2020-07-08T15:13:01-07:00,2.461569070816,2,versionA_stim.csv,READVersionB.csv,"Read Version B","Dissertation, read only version B",LIFT,WOMAN,Study1,U,69,84,Test,User,-,,Recall,Recall2,2108,woman,100,1652,1996,1,1,,1
5c707357011e2900019d3707,yxt5blo5e2,Nick_Dissertation_EX1,1,328,2020-07-08T15:13:03-07:00,1.7675800323486,2,versionA_stim.csv,READVersionB.csv,"Read Version B","Dissertation, read only version B",ALLOW,TUCK,Study1,U,78,76,Test,User,-,,Recall,Recall2,1489,me,0,1216,1304,0,0,,1
5c707357011e2900019d3707,yxt5blo5e2,Nick_Dissertation_EX1,1,329,2020-07-08T15:13:05-07:00,1.7334878444672,2,versionA_stim.csv,READVersionB.csv,"Read Version B","Dissertation, read only version B",HOT,CHILI,Study1,B,37,71,Test,User,-,,Recall,Recall2,1450,cold,44.444444444444,1065,1441,0,0,,1
5c707357011e2900019d3707,yxt5blo5e2,Nick_Dissertation_EX1,1,330,2020-07-08T15:13:07-07:00,2.0892109870911,2,versionA_stim.csv,READVersionB.csv,"Read Version B","Dissertation, read only version B",SHOE,FOOT,Study1,S,60,86,Test,User,-,,Recall,Recall2,1811,lace,0,755,1755,0,0,,1
5c707357011e2900019d3707,yxt5blo5e2,Nick_Dissertation_EX1,1,331,2020-07-08T15:13:11-07:00,4.378790140152,2,versionA_stim.csv,READVersionB.csv,"Read Version B","Dissertation, read only version B",CASH,WOULD,Study1,U,83,74,Test,User,-,,Recall,Recall2,4018,wage,22.222222222222,2810,3914,0,0,,1
5c707357011e2900019d3707,yxt5blo5e2,Nick_Dissertation_EX1,1,332,2020-07-08T15:13:13-07:00,1.9810140132904,2,versionA_stim.csv,READVersionB.csv,"Read Version B","Dissertation, read only version B",TRIAL,JURY,Study1,S,50,79,Test,User,-,,Recall,Recall2,1699,,0,-1,-1,0,0,,1
5c707357011e2900019d3707,yxt5blo5e2,Nick_Dissertation_EX1,1,333,2020-07-08T15:13:18-07:00,4.8679208755493,2,versionA_stim.csv,READVersionB.csv,"Read Version B","Dissertation, read only version B",FIRE,BLAZE,Study1,B,45,47,Test,User,-,,Recall,Recall2,4520,water,40,2560,4408,0,0,,1
5c707357011e2900019d3707,yxt5blo5e2,Nick_Dissertation_EX1,1,334,2020-07-08T15:13:21-07:00,3.1392059326172,2,versionA_stim.csv,READVersionB.csv,"Read Version B","Dissertation, read only version B",LETTUCE,SALAD,Study1,S,59,19,Test,User,-,,Recall,Recall2,2784,salad,100,1327,2623,1,1,,1
5c707357011e2900019d3707,yxt5blo5e2,Nick_Dissertation_EX1,1,335,2020-07-08T15:13:23-07:00,1.8989260196686,2,versionA_stim.csv,READVersionB.csv,"Read Version B","Dissertation, read only version B",DUE,ASSIGNMENT,Study1,S,46,70,Test,User,-,,Recall,Recall2,1603,date,28.571428571429,1131,1474,0,0,,1
5c707357011e2900019d3707,yxt5blo5e2,Nick_Dissertation_EX1,1,336,2020-07-08T15:13:26-07:00,2.4033951759338,2,versionA_stim.csv,READVersionB.csv,"Read Version B","Dissertation, read only version B",MATH,DIVISION,Study1,B,33,17,Test,User,-,,Recall,Recall2,2040,,0,1400,1400,0,0,,1
5c707357011e2900019d3707,yxt5blo5e2,Nick_Dissertation_EX1,1,337,2020-07-08T15:13:28-07:00,2.0918028354645,2,versionA_stim.csv,READVersionB.csv,"Read Version B","Dissertation, read only version B",LOCATION,SITE,Study1,S,48,13,Test,User,-,,Recall,Recall2,1815,place,22.222222222222,1271,1735,0,0,,1
5c707357011e2900019d3707,yxt5blo5e2,Nick_Dissertation_EX1,1,338,2020-07-08T15:13:29-07:00,1.3124010562897,2,versionA_stim.csv,READVersionB.csv,"Read Version B","Dissertation, read only version B",FIX,HAND,Study1,U,75,20,Test,User,-,,Recall,Recall2,1035,,0,-1,-1,0,0,,1
5c707357011e2900019d3707,yxt5blo5e2,Nick_Dissertation_EX1,1,339,2020-07-08T15:13:32-07:00,2.5426709651947,2,versionA_stim.csv,READVersionB.csv,"Read Version B","Dissertation, read only version B",SWAN,BIRD,Study1,F,14,25,Test,User,-,,Recall,Recall2,2192,bird,100,1776,2015,1,1,,1
5c707357011e2900019d3707,yxt5blo5e2,Nick_Dissertation_EX1,1,340,2020-07-08T15:13:34-07:00,2.31751704216,2,versionA_stim.csv,READVersionB.csv,"Read Version B","Dissertation, read only version B",SENTENCE,WORD,Study1,B,31,16,Test,User,-,,Recall,Recall2,1948,word,100,1332,1628,1,1,,1
5c707357011e2900019d3707,yxt5blo5e2,Nick_Dissertation_EX1,1,341,2020-07-08T15:13:38-07:00,4.328675031662,2,versionA_stim.csv,READVersionB.csv,"Read Version B","Dissertation, read only version B",ROOT,PLANT,Study1,F,13,26,Test,User,-,,Recall,Recall2,3975,plants,90.909090909091,1342,3014,0,1,,1
5c707357011e2900019d3707,yxt5blo5e2,Nick_Dissertation_EX1,1,342,2020-07-08T15:13:40-07:00,2.0848309993744,2,versionA_stim.csv,READVersionB.csv,"Read Version B","Dissertation, read only version B",PAW,DOG,Study1,F,15,42,Test,User,-,,Recall,Recall2,1805,pad,33.333333333333,1373,1540,0,0,,1
5c707357011e2900019d3707,yxt5blo5e2,Nick_Dissertation_EX1,1,343,2020-07-08T15:13:42-07:00,1.4562299251556,2,versionA_stim.csv,READVersionB.csv,"Read Version B","Dissertation, read only version B",DISCUSSION,TALK,Study1,F,21,29,Test,User,-,,Recall,Recall2,1163,,0,-1,-1,0,0,,1
5c707357011e2900019d3707,yxt5blo5e2,Nick_Dissertation_EX1,1,344,2020-07-08T15:13:44-07:00,2.0156471729279,2,versionA_stim.csv,READVersionB.csv,"Read Version B","Dissertation, read only version B",BATHROOM,TOILET,Study1,S,58,7,Test,User,-,,Recall,Recall2,1740,toilet,100,1164,1636,1,1,,1
5c707357011e2900019d3707,yxt5blo5e2,Nick_Dissertation_EX1,1,345,2020-07-08T15:13:45-07:00,1.1691148281097,2,versionA_stim.csv,READVersionB.csv,"Read Version B","Dissertation, read only version B",FULL,ENOUGH,Study1,B,26,53,Test,User,-,,Recall,Recall2,895,,0,-1,-1,0,0,,1
5c707357011e2900019d3707,yxt5blo5e2,Nick_Dissertation_EX1,1,346,2020-07-08T15:13:46-07:00,1.4952299594879,2,versionA_stim.csv,READVersionB.csv,"Read Version B","Dissertation, read only version B",CLOTHES,ATTIRE,Study1,B,43,77,Test,User,-,,Recall,Recall2,1217,,0,-1,-1,0,0,,1
