Username,ID,ExperimentName,Session,Trial,Date,TimeDif,"Condition Number","Stimuli File","Order File","Condition Description","Condition Notes",Stimuli*Cue,Stimuli*Answer,Stimuli*Shuffle,"Stimuli*Stimuli Notes",Stimuli*Value,Procedure*Item,"Procedure*Trial Type","Procedure*Max Time","Procedure*Min Time",Procedure*Text,"Procedure*Procedure Notes",Procedure*Shuffle,Response*RT,Response*Response,Response*Accuracy,Response*RTfirst,Response*RTlast,Response*strictAcc,Response*lenientAcc,Response*focus,Response*JOL,Response*Focus
5dfc05fa36711f000b2b603e,scxmfl3ig4,"Deep vs Shallow",1,1,2020-07-08T14:27:26-07:00,5.563661813736,6,versionA_stim.csv,VC_VersionB.csv,"Version B","VC Version B",,,,,,0,Instruct,-,5,"In this section, you will be presented with a series of word pairs.",Initial_Instruct,Instruct1,5034,,,-1,-1,,,,,1
5dfc05fa36711f000b2b603e,scxmfl3ig4,"Deep vs Shallow",1,2,2020-07-08T14:27:33-07:00,7.1472380161285,6,versionA_stim.csv,VC_VersionB.csv,"Version B","VC Version B",,,,,,0,Instruct,-,5,"As you study, you will be asked to count the total number of vowels (a, e, i, o, u) within the two words. Please note that y is not considered a vowel.",,Instruct13,6356,,,-1,-1,,,,,1
5dfc05fa36711f000b2b603e,scxmfl3ig4,"Deep vs Shallow",1,3,2020-07-08T14:27:44-07:00,11.616636991501,6,versionA_stim.csv,VC_VersionB.csv,"Version B","VC Version B",,,,,,0,Instruct,-,10,"For example, if you are given the pair CAT - DOG, CAT has one vowel and DOG has one vowel. The correct response would be 2 (1 + 1 = 2). After typing the number, you will press ENTER to move to the next pair.",,Instruct14,10835,,,-1,-1,,,,,1
5dfc05fa36711f000b2b603e,scxmfl3ig4,"Deep vs Shallow",1,4,2020-07-08T14:27:47-07:00,2.8199100494385,6,versionA_stim.csv,VC_VersionB.csv,"Version B","VC Version B",,,,,,0,Instruct,User,-,"You will now begin the study. Press Enter when you are ready to begin.",,Instruct16,2031,,,-1,-1,,,,,1
5dfc05fa36711f000b2b603e,scxmfl3ig4,"Deep vs Shallow",1,5,2020-07-08T14:27:53-07:00,5.3553321361542,6,versionA_stim.csv,VC_VersionB.csv,"Version B","VC Version B",ICE,FROZEN,BUFFER3,Buffer,94,96,VC,User,-,"How many vowels are the two words combined?|Type your response below and then press Enter.",Study/JOL,BUFFER,4554,,,4364,4364,,,,3,1
5dfc05fa36711f000b2b603e,scxmfl3ig4,"Deep vs Shallow",1,6,2020-07-08T14:28:00-07:00,6.9271659851074,6,versionA_stim.csv,VC_VersionB.csv,"Version B","VC Version B",CARROT,POTATO,BUFFER3,Buffer,91,93,VC,User,-,"How many vowels are the two words combined?|Type your response below and then press Enter.",Study/JOL,BUFFER,6119,,,5189,5189,,,,5,1
5dfc05fa36711f000b2b603e,scxmfl3ig4,"Deep vs Shallow",1,7,2020-07-08T14:28:03-07:00,3.5926418304443,6,versionA_stim.csv,VC_VersionB.csv,"Version B","VC Version B",SHRIMP,FISH,BUFFER3,Buffer,93,92,VC,User,-,"How many vowels are the two words combined?|Type your response below and then press Enter.",Study/JOL,BUFFER,2781,,,2294,2294,,,,2,1
5dfc05fa36711f000b2b603e,scxmfl3ig4,"Deep vs Shallow",1,8,2020-07-08T14:28:08-07:00,4.7446331977844,6,versionA_stim.csv,VC_VersionB.csv,"Version B","VC Version B",CAMP,ADVENTURE,BUFFER3,Buffer,95,95,VC,User,-,"How many vowels are the two words combined?|Type your response below and then press Enter.",Study/JOL,BUFFER,3937,,,3559,3559,,,,4,1
5dfc05fa36711f000b2b603e,scxmfl3ig4,"Deep vs Shallow",1,9,2020-07-08T14:28:13-07:00,5.1677429676056,6,versionA_stim.csv,VC_VersionB.csv,"Version B","VC Version B",NOODLE,STRING,BUFFER3,Buffer,92,94,VC,User,-,"How many vowels are the two words combined?|Type your response below and then press Enter.",Study/JOL,BUFFER,4367,,,3832,3832,,,,3,1
5dfc05fa36711f000b2b603e,scxmfl3ig4,"Deep vs Shallow",1,10,2020-07-08T14:28:16-07:00,3.0341339111328,6,versionA_stim.csv,VC_VersionB.csv,"Version B","VC Version B",CHOP,CUT,Study2,F,107,164,VC,User,-,"How many vowels are the two words combined?|Type your response below and then press Enter.",Study/JOL,"Study Phase",2241,,,1969,1969,,,,2,1
5dfc05fa36711f000b2b603e,scxmfl3ig4,"Deep vs Shallow",1,11,2020-07-08T14:28:20-07:00,4.2030429840088,6,versionA_stim.csv,VC_VersionB.csv,"Version B","VC Version B",HONEST,TRUTHFUL,Study2,B,133,166,VC,User,-,"How many vowels are the two words combined?|Type your response below and then press Enter.",Study/JOL,"Study Phase",3406,,,2825,2825,,,,4,1
5dfc05fa36711f000b2b603e,scxmfl3ig4,"Deep vs Shallow",1,12,2020-07-08T14:28:24-07:00,3.254203081131,6,versionA_stim.csv,VC_VersionB.csv,"Version B","VC Version B",SLEEP,NAP,Study2,B,134,138,VC,User,-,"How many vowels are the two words combined?|Type your response below and then press Enter.",Study/JOL,"Study Phase",2471,,,2071,2071,,,,2,1
5dfc05fa36711f000b2b603e,scxmfl3ig4,"Deep vs Shallow",1,13,2020-07-08T14:28:28-07:00,4.3994040489197,6,versionA_stim.csv,VC_VersionB.csv,"Version B","VC Version B",LITTER,TRASH,Study2,F,103,146,VC,User,-,"How many vowels are the two words combined?|Type your response below and then press Enter.",Study/JOL,"Study Phase",3600,,,3310,3310,,,,3,1
5dfc05fa36711f000b2b603e,scxmfl3ig4,"Deep vs Shallow",1,14,2020-07-08T14:28:31-07:00,3.5651078224182,6,versionA_stim.csv,VC_VersionB.csv,"Version B","VC Version B",STRETCH,CLOTH,Study2,U,157,144,VC,User,-,"How many vowels are the two words combined?|Type your response below and then press Enter.",Study/JOL,"Study Phase",2773,,,2646,2646,,,,2,1
5dfc05fa36711f000b2b603e,scxmfl3ig4,"Deep vs Shallow",1,15,2020-07-08T14:28:36-07:00,4.1546521186829,6,versionA_stim.csv,VC_VersionB.csv,"Version B","VC Version B",ADJOURN,END,Study2,F,101,152,VC,User,-,"How many vowels are the two words combined?|Type your response below and then press Enter.",Study/JOL,"Study Phase",3348,,,2403,2403,,,,3,1
5dfc05fa36711f000b2b603e,scxmfl3ig4,"Deep vs Shallow",1,16,2020-07-08T14:28:44-07:00,8.4072749614716,6,versionA_stim.csv,VC_VersionB.csv,"Version B","VC Version B",EXTENSION,LONG,Study2,F,96,169,VC,User,-,"How many vowels are the two words combined?|Type your response below and then press Enter.",Study/JOL,"Study Phase",7611,,,7393,7393,,,,4,0.564
5dfc05fa36711f000b2b603e,scxmfl3ig4,"Deep vs Shallow",1,17,2020-07-08T14:28:50-07:00,6.2005410194397,6,versionA_stim.csv,VC_VersionB.csv,"Version B","VC Version B",TEMPERATURE,Morning,Study2,U,173,171,VC,User,-,"How many vowels are the two words combined?|Type your response below and then press Enter.",Study/JOL,"Study Phase",5409,,,5105,5105,,,,6,1
5dfc05fa36711f000b2b603e,scxmfl3ig4,"Deep vs Shallow",1,18,2020-07-08T14:28:55-07:00,4.3222460746765,6,versionA_stim.csv,VC_VersionB.csv,"Version B","VC Version B",CRACKLE,ABLE,Study2,U,162,167,VC,User,-,"How many vowels are the two words combined?|Type your response below and then press Enter.",Study/JOL,"Study Phase",3517,,,2643,2643,,,,4,1
5dfc05fa36711f000b2b603e,scxmfl3ig4,"Deep vs Shallow",1,19,2020-07-08T14:28:59-07:00,4.4098169803619,6,versionA_stim.csv,VC_VersionB.csv,"Version B","VC Version B",VEHICLE,CHARM,Study2,U,160,115,VC,User,-,"How many vowels are the two words combined?|Type your response below and then press Enter.",Study/JOL,"Study Phase",3618,,,3226,3226,,,,4,1
5dfc05fa36711f000b2b603e,scxmfl3ig4,"Deep vs Shallow",1,20,2020-07-08T14:29:03-07:00,3.5818228721619,6,versionA_stim.csv,VC_VersionB.csv,"Version B","VC Version B",AFFECTION,LOVE,Study2,F,115,139,VC,User,-,"How many vowels are the two words combined?|Type your response below and then press Enter.",Study/JOL,"Study Phase",2783,,,2584,2584,,,,4,1
5dfc05fa36711f000b2b603e,scxmfl3ig4,"Deep vs Shallow",1,21,2020-07-08T14:29:05-07:00,2.8699901103973,6,versionA_stim.csv,VC_VersionB.csv,"Version B","VC Version B",DINE,EAT,Study2,F,111,136,VC,User,-,"How many vowels are the two words combined?|Type your response below and then press Enter.",Study/JOL,"Study Phase",2073,,,1889,1889,,,,2,1
5dfc05fa36711f000b2b603e,scxmfl3ig4,"Deep vs Shallow",1,22,2020-07-08T14:29:09-07:00,3.3158528804779,6,versionA_stim.csv,VC_VersionB.csv,"Version B","VC Version B",CAT,PANTHER,Study2,B,126,119,VC,User,-,"How many vowels are the two words combined?|Type your response below and then press Enter.",Study/JOL,"Study Phase",2510,,,2262,2262,,,,3,1
5dfc05fa36711f000b2b603e,scxmfl3ig4,"Deep vs Shallow",1,23,2020-07-08T14:29:15-07:00,6.249382019043,6,versionA_stim.csv,VC_VersionB.csv,"Version B","VC Version B",PHONE,COMMUNICATION,Study2,S,149,100,VC,User,-,"How many vowels are the two words combined?|Type your response below and then press Enter.",Study/JOL,"Study Phase",5452,,,5041,5041,,,,6,1
5dfc05fa36711f000b2b603e,scxmfl3ig4,"Deep vs Shallow",1,24,2020-07-08T14:29:18-07:00,3.4739689826965,6,versionA_stim.csv,VC_VersionB.csv,"Version B","VC Version B",EARTH,GROUND,Study2,S,144,110,VC,User,-,"How many vowels are the two words combined?|Type your response below and then press Enter.",Study/JOL,"Study Phase",2686,,,2367,2367,,,,2,1
5dfc05fa36711f000b2b603e,scxmfl3ig4,"Deep vs Shallow",1,25,2020-07-08T14:29:21-07:00,3.0264029502869,6,versionA_stim.csv,VC_VersionB.csv,"Version B","VC Version B",CHERRY,RED,Study2,F,104,105,VC,User,-,"How many vowels are the two words combined?|Type your response below and then press Enter.",Study/JOL,"Study Phase",2234,,,2055,2055,,,,3,1
5dfc05fa36711f000b2b603e,scxmfl3ig4,"Deep vs Shallow",1,26,2020-07-08T14:29:24-07:00,2.8191061019897,6,versionA_stim.csv,VC_VersionB.csv,"Version B","VC Version B",SCALP,HEAD,Study2,F,105,116,VC,User,-,"How many vowels are the two words combined?|Type your response below and then press Enter.",Study/JOL,"Study Phase",2038,,,1867,1867,,,,2,1
5dfc05fa36711f000b2b603e,scxmfl3ig4,"Deep vs Shallow",1,27,2020-07-08T14:29:28-07:00,3.9359569549561,6,versionA_stim.csv,VC_VersionB.csv,"Version B","VC Version B",LISTEN,FICTION,Study2,U,164,140,VC,User,-,"How many vowels are the two words combined?|Type your response below and then press Enter.",Study/JOL,"Study Phase",3143,,,3036,3036,,,,4,1
5dfc05fa36711f000b2b603e,scxmfl3ig4,"Deep vs Shallow",1,28,2020-07-08T14:29:35-07:00,7.1314671039581,6,versionA_stim.csv,VC_VersionB.csv,"Version B","VC Version B",FRUIT,STRAWBERRY,Study2,B,124,97,VC,User,-,"How many vowels are the two words combined?|Type your response below and then press Enter.",Study/JOL,"Study Phase",6345,,,5830,5830,,,,4,1
5dfc05fa36711f000b2b603e,scxmfl3ig4,"Deep vs Shallow",1,29,2020-07-08T14:29:40-07:00,4.3592219352722,6,versionA_stim.csv,VC_VersionB.csv,"Version B","VC Version B",RIGHTS,EQUAL,Study2,S,137,149,VC,User,-,"How many vowels are the two words combined?|Type your response below and then press Enter.",Study/JOL,"Study Phase",3568,,,3273,3273,,,,3,1
5dfc05fa36711f000b2b603e,scxmfl3ig4,"Deep vs Shallow",1,30,2020-07-08T14:29:44-07:00,4.1004610061646,6,versionA_stim.csv,VC_VersionB.csv,"Version B","VC Version B",WRIST,BRACELET,Study2,S,140,151,VC,User,-,"How many vowels are the two words combined?|Type your response below and then press Enter.",Study/JOL,"Study Phase",3317,,,3240,3240,,,,3,1
5dfc05fa36711f000b2b603e,scxmfl3ig4,"Deep vs Shallow",1,31,2020-07-08T14:29:49-07:00,4.7389309406281,6,versionA_stim.csv,VC_VersionB.csv,"Version B","VC Version B",BASEBALL,LEAGUE,Study2,B,131,156,VC,User,-,"How many vowels are the two words combined?|Type your response below and then press Enter.",Study/JOL,"Study Phase",3951,,,2327,2327,,,,3,1
5dfc05fa36711f000b2b603e,scxmfl3ig4,"Deep vs Shallow",1,32,2020-07-08T14:29:52-07:00,3.0599000453949,6,versionA_stim.csv,VC_VersionB.csv,"Version B","VC Version B",FURRY,DOG,Study2,F,102,108,VC,User,-,"How many vowels are the two words combined?|Type your response below and then press Enter.",Study/JOL,"Study Phase",2260,,,2050,2050,,,,3,1
5dfc05fa36711f000b2b603e,scxmfl3ig4,"Deep vs Shallow",1,33,2020-07-08T14:29:55-07:00,2.9999101161957,6,versionA_stim.csv,VC_VersionB.csv,"Version B","VC Version B",DRY,WET,Study2,S,146,128,VC,User,-,"How many vowels are the two words combined?|Type your response below and then press Enter.",Study/JOL,"Study Phase",2157,,,1391,1391,,,,2,1
5dfc05fa36711f000b2b603e,scxmfl3ig4,"Deep vs Shallow",1,34,2020-07-08T14:30:08-07:00,13.845700025558,6,versionA_stim.csv,VC_VersionB.csv,"Version B","VC Version B",SHEARS,SCISSORS,Study2,F,112,111,VC,User,-,"How many vowels are the two words combined?|Type your response below and then press Enter.",Study/JOL,"Study Phase",13018,,,12411,12411,,,,3,0.882
5dfc05fa36711f000b2b603e,scxmfl3ig4,"Deep vs Shallow",1,35,2020-07-08T14:30:13-07:00,4.2168889045715,6,versionA_stim.csv,VC_VersionB.csv,"Version B","VC Version B",DEAD,COFFIN,Study2,B,128,114,VC,User,-,"How many vowels are the two words combined?|Type your response below and then press Enter.",Study/JOL,"Study Phase",3410,,,3100,3100,,,,3,1
5dfc05fa36711f000b2b603e,scxmfl3ig4,"Deep vs Shallow",1,36,2020-07-08T14:30:17-07:00,4.370521068573,6,versionA_stim.csv,VC_VersionB.csv,"Version B","VC Version B",RAZOR,SHAVE,Study2,S,136,165,VC,User,-,"How many vowels are the two words combined?|Type your response below and then press Enter.",Study/JOL,"Study Phase",2568,,,2341,2341,,,,3,1
5dfc05fa36711f000b2b603e,scxmfl3ig4,"Deep vs Shallow",1,37,2020-07-08T14:30:21-07:00,4.0111668109894,6,versionA_stim.csv,VC_VersionB.csv,"Version B","VC Version B",TANTRUM,TEMPER,Study2,S,154,175,VC,User,-,"How many vowels are the two words combined?|Type your response below and then press Enter.",Study/JOL,"Study Phase",3205,,,2929,2929,,,,4,1
5dfc05fa36711f000b2b603e,scxmfl3ig4,"Deep vs Shallow",1,38,2020-07-08T14:30:24-07:00,3.3958261013031,6,versionA_stim.csv,VC_VersionB.csv,"Version B","VC Version B",MULE,DONKEY,Study2,F,108,124,VC,User,-,"How many vowels are the two words combined?|Type your response below and then press Enter.",Study/JOL,"Study Phase",2590,,,2423,2423,,,,3,1
5dfc05fa36711f000b2b603e,scxmfl3ig4,"Deep vs Shallow",1,39,2020-07-08T14:30:28-07:00,3.9092490673065,6,versionA_stim.csv,VC_VersionB.csv,"Version B","VC Version B",BAD,VILLAIN,Study2,B,118,106,VC,User,-,"How many vowels are the two words combined?|Type your response below and then press Enter.",Study/JOL,"Study Phase",3106,,,2690,2690,,,,3,1
5dfc05fa36711f000b2b603e,scxmfl3ig4,"Deep vs Shallow",1,40,2020-07-08T14:30:32-07:00,3.2104170322418,6,versionA_stim.csv,VC_VersionB.csv,"Version B","VC Version B",MEAT,OBTAIN,Study2,U,161,126,VC,User,-,"How many vowels are the two words combined?|Type your response below and then press Enter.",Study/JOL,"Study Phase",2423,,,2067,2067,,,,3,1
5dfc05fa36711f000b2b603e,scxmfl3ig4,"Deep vs Shallow",1,41,2020-07-08T14:30:35-07:00,3.3231489658356,6,versionA_stim.csv,VC_VersionB.csv,"Version B","VC Version B",SHOELACE,TIE,Study2,F,99,162,VC,User,-,"How many vowels are the two words combined?|Type your response below and then press Enter.",Study/JOL,"Study Phase",2518,,,2328,2328,,,,3,1
5dfc05fa36711f000b2b603e,scxmfl3ig4,"Deep vs Shallow",1,42,2020-07-08T14:30:42-07:00,7.3386590480804,6,versionA_stim.csv,VC_VersionB.csv,"Version B","VC Version B",DOCUMENT,PAPER,Study2,F,109,121,VC,User,-,"How many vowels are the two words combined?|Type your response below and then press Enter.",Study/JOL,"Study Phase",6540,,,6269,6269,,,,5,1
5dfc05fa36711f000b2b603e,scxmfl3ig4,"Deep vs Shallow",1,43,2020-07-08T14:30:45-07:00,2.9785559177399,6,versionA_stim.csv,VC_VersionB.csv,"Version B","VC Version B",FEUD,FIGHT,Study2,F,113,135,VC,User,-,"How many vowels are the two words combined?|Type your response below and then press Enter.",Study/JOL,"Study Phase",2173,,,1801,1801,,,,2,1
5dfc05fa36711f000b2b603e,scxmfl3ig4,"Deep vs Shallow",1,44,2020-07-08T14:30:48-07:00,3.1078848838806,6,versionA_stim.csv,VC_VersionB.csv,"Version B","VC Version B",LOUD,NOISE,Study2,S,152,159,VC,User,-,"How many vowels are the two words combined?|Type your response below and then press Enter.",Study/JOL,"Study Phase",2321,,,1843,1843,,,,2,1
5dfc05fa36711f000b2b603e,scxmfl3ig4,"Deep vs Shallow",1,45,2020-07-08T14:30:52-07:00,3.770336151123,6,versionA_stim.csv,VC_VersionB.csv,"Version B","VC Version B",DRIVER,CAR,Study2,F,106,168,VC,User,-,"How many vowels are the two words combined?|Type your response below and then press Enter.",Study/JOL,"Study Phase",2981,,,2526,2526,,,,3,1
5dfc05fa36711f000b2b603e,scxmfl3ig4,"Deep vs Shallow",1,46,2020-07-08T14:30:57-07:00,4.9183559417725,6,versionA_stim.csv,VC_VersionB.csv,"Version B","VC Version B",MAZE,ELECTION,Study2,U,159,163,VC,User,-,"How many vowels are the two words combined?|Type your response below and then press Enter.",Study/JOL,"Study Phase",4094,,,2779,2779,,,,4,1
5dfc05fa36711f000b2b603e,scxmfl3ig4,"Deep vs Shallow",1,47,2020-07-08T14:31:02-07:00,4.7526459693909,6,versionA_stim.csv,VC_VersionB.csv,"Version B","VC Version B",TURN,FLIP,Study2,B,116,133,VC,User,-,"How many vowels are the two words combined?|Type your response below and then press Enter.",Study/JOL,"Study Phase",3928,,,3540,3540,,,,2,1
5dfc05fa36711f000b2b603e,scxmfl3ig4,"Deep vs Shallow",1,48,2020-07-08T14:31:08-07:00,5.9064619541168,6,versionA_stim.csv,VC_VersionB.csv,"Version B","VC Version B",ALONE,LONELY,Study2,S,145,118,VC,User,-,"How many vowels are the two words combined?|Type your response below and then press Enter.",Study/JOL,"Study Phase",5097,,,4730,4730,,,,4,1
5dfc05fa36711f000b2b603e,scxmfl3ig4,"Deep vs Shallow",1,49,2020-07-08T14:31:12-07:00,3.8950130939484,6,versionA_stim.csv,VC_VersionB.csv,"Version B","VC Version B",SUN,TAN,Study2,S,155,129,VC,User,-,"How many vowels are the two words combined?|Type your response below and then press Enter.",Study/JOL,"Study Phase",3093,,,2757,2757,,,,2,1
5dfc05fa36711f000b2b603e,scxmfl3ig4,"Deep vs Shallow",1,50,2020-07-08T14:31:16-07:00,3.9251279830933,6,versionA_stim.csv,VC_VersionB.csv,"Version B","VC Version B",CLUE,GAME,Study2,F,97,160,VC,User,-,"How many vowels are the two words combined?|Type your response below and then press Enter.",Study/JOL,"Study Phase",3117,,,2841,2841,,,,2,1
5dfc05fa36711f000b2b603e,scxmfl3ig4,"Deep vs Shallow",1,51,2020-07-08T14:31:22-07:00,6.6589488983154,6,versionA_stim.csv,VC_VersionB.csv,"Version B","VC Version B",CHILL,COLD,Study2,F,114,98,VC,User,-,"How many vowels are the two words combined?|Type your response below and then press Enter.",Study/JOL,"Study Phase",5862,,,5586,5586,,,,2,1
5dfc05fa36711f000b2b603e,scxmfl3ig4,"Deep vs Shallow",1,52,2020-07-08T14:31:26-07:00,3.5295782089233,6,versionA_stim.csv,VC_VersionB.csv,"Version B","VC Version B",PLANE,AIRCRAFT,Study2,B,129,113,VC,User,-,"How many vowels are the two words combined?|Type your response below and then press Enter.",Study/JOL,"Study Phase",2734,,,2517,2517,,,,3,1
5dfc05fa36711f000b2b603e,scxmfl3ig4,"Deep vs Shallow",1,53,2020-07-08T14:31:29-07:00,3.2688639163971,6,versionA_stim.csv,VC_VersionB.csv,"Version B","VC Version B",FUZZY,BANG,Study2,U,168,112,VC,User,-,"How many vowels are the two words combined?|Type your response below and then press Enter.",Study/JOL,"Study Phase",2440,,,2129,2129,,,,3,1
5dfc05fa36711f000b2b603e,scxmfl3ig4,"Deep vs Shallow",1,54,2020-07-08T14:31:32-07:00,2.9870269298553,6,versionA_stim.csv,VC_VersionB.csv,"Version B","VC Version B",NAME,HATE,Study2,U,167,120,VC,User,-,"How many vowels are the two words combined?|Type your response below and then press Enter.",Study/JOL,"Study Phase",2382,,,1878,1879,,,,2,1
5dfc05fa36711f000b2b603e,scxmfl3ig4,"Deep vs Shallow",1,55,2020-07-08T14:31:37-07:00,4.8707370758057,6,versionA_stim.csv,VC_VersionB.csv,"Version B","VC Version B",ELEMENT,CARBON,Study2,S,141,99,VC,User,-,"How many vowels are the two words combined?|Type your response below and then press Enter.",Study/JOL,"Study Phase",4079,,,3801,3801,,,,5,1
5dfc05fa36711f000b2b603e,scxmfl3ig4,"Deep vs Shallow",1,56,2020-07-08T14:31:40-07:00,3.1941938400269,6,versionA_stim.csv,VC_VersionB.csv,"Version B","VC Version B",OWN,HAVE,Study2,S,153,155,VC,User,-,"How many vowels are the two words combined?|Type your response below and then press Enter.",Study/JOL,"Study Phase",2398,,,2085,2085,,,,2,1
5dfc05fa36711f000b2b603e,scxmfl3ig4,"Deep vs Shallow",1,57,2020-07-08T14:31:44-07:00,4.2978601455688,6,versionA_stim.csv,VC_VersionB.csv,"Version B","VC Version B",MIRROR,CHILDREN,Study2,U,174,101,VC,User,-,"How many vowels are the two words combined?|Type your response below and then press Enter.",Study/JOL,"Study Phase",3465,,,3166,3167,,,,4,1
5dfc05fa36711f000b2b603e,scxmfl3ig4,"Deep vs Shallow",1,58,2020-07-08T14:31:48-07:00,3.5495178699493,6,versionA_stim.csv,VC_VersionB.csv,"Version B","VC Version B",INCENSE,SMELL,Study2,F,110,170,VC,User,-,"How many vowels are the two words combined?|Type your response below and then press Enter.",Study/JOL,"Study Phase",2742,,,2536,2536,,,,3,1
5dfc05fa36711f000b2b603e,scxmfl3ig4,"Deep vs Shallow",1,59,2020-07-08T14:31:52-07:00,4.1263220310211,6,versionA_stim.csv,VC_VersionB.csv,"Version B","VC Version B",BIRD,PENGUIN,Study2,B,119,107,VC,User,-,"How many vowels are the two words combined?|Type your response below and then press Enter.",Study/JOL,"Study Phase",3332,,,3038,3038,,,,3,1
5dfc05fa36711f000b2b603e,scxmfl3ig4,"Deep vs Shallow",1,60,2020-07-08T14:31:56-07:00,4.0299890041351,6,versionA_stim.csv,VC_VersionB.csv,"Version B","VC Version B",MONEY,BANKER,Study2,B,132,104,VC,User,-,"How many vowels are the two words combined?|Type your response below and then press Enter.",Study/JOL,"Study Phase",3224,,,2991,2991,,,,4,1
5dfc05fa36711f000b2b603e,scxmfl3ig4,"Deep vs Shallow",1,61,2020-07-08T14:32:00-07:00,3.6035289764404,6,versionA_stim.csv,VC_VersionB.csv,"Version B","VC Version B",CAR,WINDSHIELD,Study2,B,117,102,VC,User,-,"How many vowels are the two words combined?|Type your response below and then press Enter.",Study/JOL,"Study Phase",2760,,,2568,2568,,,,3,1
5dfc05fa36711f000b2b603e,scxmfl3ig4,"Deep vs Shallow",1,62,2020-07-08T14:32:03-07:00,3.6685190200806,6,versionA_stim.csv,VC_VersionB.csv,"Version B","VC Version B",WATER,DRINK,Study2,S,143,109,VC,User,-,"How many vowels are the two words combined?|Type your response below and then press Enter.",Study/JOL,"Study Phase",2862,,,2681,2681,,,,3,1
5dfc05fa36711f000b2b603e,scxmfl3ig4,"Deep vs Shallow",1,63,2020-07-08T14:32:08-07:00,4.2369170188904,6,versionA_stim.csv,VC_VersionB.csv,"Version B","VC Version B",LEASE,TOIL,Study2,U,170,154,VC,User,-,"How many vowels are the two words combined?|Type your response below and then press Enter.",Study/JOL,"Study Phase",3421,,,2369,2369,,,,2,1
5dfc05fa36711f000b2b603e,scxmfl3ig4,"Deep vs Shallow",1,64,2020-07-08T14:32:11-07:00,3.0394451618195,6,versionA_stim.csv,VC_VersionB.csv,"Version B","VC Version B",LOAN,SIGN,Study2,U,171,103,VC,User,-,"How many vowels are the two words combined?|Type your response below and then press Enter.",Study/JOL,"Study Phase",2249,,,2086,2086,,,,2,1
5dfc05fa36711f000b2b603e,scxmfl3ig4,"Deep vs Shallow",1,65,2020-07-08T14:32:14-07:00,3.0446038246155,6,versionA_stim.csv,VC_VersionB.csv,"Version B","VC Version B",TRUTH,LIE,Study2,S,148,141,VC,User,-,"How many vowels are the two words combined?|Type your response below and then press Enter.",Study/JOL,"Study Phase",2256,,,2082,2082,,,,2,1
5dfc05fa36711f000b2b603e,scxmfl3ig4,"Deep vs Shallow",1,66,2020-07-08T14:32:16-07:00,2.8732681274414,6,versionA_stim.csv,VC_VersionB.csv,"Version B","VC Version B",MASON,JAR,Study2,S,138,173,VC,User,-,"How many vowels are the two words combined?|Type your response below and then press Enter.",Study/JOL,"Study Phase",2085,,,1840,1840,,,,3,1
5dfc05fa36711f000b2b603e,scxmfl3ig4,"Deep vs Shallow",1,67,2020-07-08T14:32:23-07:00,6.033303976059,6,versionA_stim.csv,VC_VersionB.csv,"Version B","VC Version B",Shell,SHAKE,Study2,U,163,142,VC,User,-,"How many vowels are the two words combined?|Type your response below and then press Enter.",Study/JOL,"Study Phase",5231,,,1922,4411,,,,2,1
5dfc05fa36711f000b2b603e,scxmfl3ig4,"Deep vs Shallow",1,68,2020-07-08T14:32:28-07:00,5.7027339935303,6,versionA_stim.csv,VC_VersionB.csv,"Version B","VC Version B",SAFETY,SEATBELT,Study2,S,147,145,VC,User,-,"How many vowels are the two words combined?|Type your response below and then press Enter.",Study/JOL,"Study Phase",3888,,,3514,3515,,,,4,1
5dfc05fa36711f000b2b603e,scxmfl3ig4,"Deep vs Shallow",1,69,2020-07-08T14:32:31-07:00,3.2445549964905,6,versionA_stim.csv,VC_VersionB.csv,"Version B","VC Version B",STAR,ACTRESS,Study2,B,120,143,VC,User,-,"How many vowels are the two words combined?|Type your response below and then press Enter.",Study/JOL,"Study Phase",2449,,,2235,2235,,,,3,1
5dfc05fa36711f000b2b603e,scxmfl3ig4,"Deep vs Shallow",1,70,2020-07-08T14:32:35-07:00,3.1809389591217,6,versionA_stim.csv,VC_VersionB.csv,"Version B","VC Version B",KEYS,JOKE,Study2,U,165,131,VC,User,-,"How many vowels are the two words combined?|Type your response below and then press Enter.",Study/JOL,"Study Phase",2394,,,2211,2211,,,,2,1
5dfc05fa36711f000b2b603e,scxmfl3ig4,"Deep vs Shallow",1,71,2020-07-08T14:32:38-07:00,3.4050838947296,6,versionA_stim.csv,VC_VersionB.csv,"Version B","VC Version B",CANDLE,WAX,Study2,S,139,117,VC,User,-,"How many vowels are the two words combined?|Type your response below and then press Enter.",Study/JOL,"Study Phase",2593,,,2351,2351,,,,3,1
5dfc05fa36711f000b2b603e,scxmfl3ig4,"Deep vs Shallow",1,72,2020-07-08T14:32:41-07:00,2.8928871154785,6,versionA_stim.csv,VC_VersionB.csv,"Version B","VC Version B",ROD,REEL,Study2,S,150,123,VC,User,-,"How many vowels are the two words combined?|Type your response below and then press Enter.",Study/JOL,"Study Phase",2092,,,1963,1963,,,,2,1
5dfc05fa36711f000b2b603e,scxmfl3ig4,"Deep vs Shallow",1,73,2020-07-08T14:32:44-07:00,3.4564559459686,6,versionA_stim.csv,VC_VersionB.csv,"Version B","VC Version B",JUSTICE,MAROON,Study2,U,156,147,VC,User,-,"How many vowels are the two words combined?|Type your response below and then press Enter.",Study/JOL,"Study Phase",2648,,,2434,2434,,,,4,1
5dfc05fa36711f000b2b603e,scxmfl3ig4,"Deep vs Shallow",1,74,2020-07-08T14:32:47-07:00,2.8065249919891,6,versionA_stim.csv,VC_VersionB.csv,"Version B","VC Version B",FLEA,TICK,Study2,S,151,153,VC,User,-,"How many vowels are the two words combined?|Type your response below and then press Enter.",Study/JOL,"Study Phase",1985,,,1785,1785,,,,2,1
5dfc05fa36711f000b2b603e,scxmfl3ig4,"Deep vs Shallow",1,75,2020-07-08T14:32:50-07:00,3.0118980407715,6,versionA_stim.csv,VC_VersionB.csv,"Version B","VC Version B",FISH,SARDINE,Study2,B,130,148,VC,User,-,"How many vowels are the two words combined?|Type your response below and then press Enter.",Study/JOL,"Study Phase",2185,,,2039,2039,,,,3,1
5dfc05fa36711f000b2b603e,scxmfl3ig4,"Deep vs Shallow",1,76,2020-07-08T14:32:53-07:00,2.762305021286,6,versionA_stim.csv,VC_VersionB.csv,"Version B","VC Version B",GIVE,STEAK,Study2,U,158,125,VC,User,-,"How many vowels are the two words combined?|Type your response below and then press Enter.",Study/JOL,"Study Phase",1803,,,1608,1608,,,,2,1
5dfc05fa36711f000b2b603e,scxmfl3ig4,"Deep vs Shallow",1,77,2020-07-08T14:32:57-07:00,3.8003900051117,6,versionA_stim.csv,VC_VersionB.csv,"Version B","VC Version B",GLASS,BREAKABLE,Study2,B,127,161,VC,User,-,"How many vowels are the two words combined?|Type your response below and then press Enter.",Study/JOL,"Study Phase",2991,,,2633,2633,,,,4,1
5dfc05fa36711f000b2b603e,scxmfl3ig4,"Deep vs Shallow",1,78,2020-07-08T14:33:01-07:00,4.3469979763031,6,versionA_stim.csv,VC_VersionB.csv,"Version B","VC Version B",EVEN,REVENGE,Study2,B,122,150,VC,User,-,"How many vowels are the two words combined?|Type your response below and then press Enter.",Study/JOL,"Study Phase",3549,,,3331,3331,,,,4,1
5dfc05fa36711f000b2b603e,scxmfl3ig4,"Deep vs Shallow",1,79,2020-07-08T14:33:04-07:00,3.1597099304199,6,versionA_stim.csv,VC_VersionB.csv,"Version B","VC Version B",MOAT,CLEAR,Study2,U,169,132,VC,User,-,"How many vowels are the two words combined?|Type your response below and then press Enter.",Study/JOL,"Study Phase",2366,,,2113,2113,,,,2,1
5dfc05fa36711f000b2b603e,scxmfl3ig4,"Deep vs Shallow",1,80,2020-07-08T14:33:07-07:00,2.9267520904541,6,versionA_stim.csv,VC_VersionB.csv,"Version B","VC Version B",FIGHT,BRAWL,Study2,B,135,127,VC,User,-,"How many vowels are the two words combined?|Type your response below and then press Enter.",Study/JOL,"Study Phase",2136,,,1960,1960,,,,2,1
5dfc05fa36711f000b2b603e,scxmfl3ig4,"Deep vs Shallow",1,81,2020-07-08T14:33:13-07:00,5.3669691085815,6,versionA_stim.csv,VC_VersionB.csv,"Version B","VC Version B",BOTH,OUNCE,Study2,U,172,157,VC,User,-,"How many vowels are the two words combined?|Type your response below and then press Enter.",Study/JOL,"Study Phase",2568,,,2362,2362,,,,2,1
5dfc05fa36711f000b2b603e,scxmfl3ig4,"Deep vs Shallow",1,82,2020-07-08T14:33:17-07:00,4.1435008049011,6,versionA_stim.csv,VC_VersionB.csv,"Version B","VC Version B",GONE,AWAY,Study2,S,142,134,VC,User,-,"How many vowels are the two words combined?|Type your response below and then press Enter.",Study/JOL,"Study Phase",2341,,,2127,2127,,,,3,1
5dfc05fa36711f000b2b603e,scxmfl3ig4,"Deep vs Shallow",1,83,2020-07-08T14:33:26-07:00,8.8648061752319,6,versionA_stim.csv,VC_VersionB.csv,"Version B","VC Version B",BEST,FAVORITE,Study2,B,125,174,VC,User,-,"How many vowels are the two words combined?|Type your response below and then press Enter.",Study/JOL,"Study Phase",8067,,,7685,7685,,,,4,0.732
5dfc05fa36711f000b2b603e,scxmfl3ig4,"Deep vs Shallow",1,84,2020-07-08T14:33:30-07:00,4.0623610019684,6,versionA_stim.csv,VC_VersionB.csv,"Version B","VC Version B",POP,BALLOON,Study2,B,123,158,VC,User,-,"How many vowels are the two words combined?|Type your response below and then press Enter.",Study/JOL,"Study Phase",3267,,,2858,2858,,,,3,1
5dfc05fa36711f000b2b603e,scxmfl3ig4,"Deep vs Shallow",1,85,2020-07-08T14:33:33-07:00,3.5556099414825,6,versionA_stim.csv,VC_VersionB.csv,"Version B","VC Version B",CACTUS,PLANT,Study2,F,98,176,VC,User,-,"How many vowels are the two words combined?|Type your response below and then press Enter.",Study/JOL,"Study Phase",2768,,,2302,2302,,,,3,1
5dfc05fa36711f000b2b603e,scxmfl3ig4,"Deep vs Shallow",1,86,2020-07-08T14:33:36-07:00,3.0034070014954,6,versionA_stim.csv,VC_VersionB.csv,"Version B","VC Version B",MAIN,SCAR,Study2,U,175,137,VC,User,-,"How many vowels are the two words combined?|Type your response below and then press Enter.",Study/JOL,"Study Phase",2212,,,1993,1993,,,,2,1
5dfc05fa36711f000b2b603e,scxmfl3ig4,"Deep vs Shallow",1,87,2020-07-08T14:33:44-07:00,7.5431258678436,6,versionA_stim.csv,VC_VersionB.csv,"Version B","VC Version B",DETECTIVE,MYSTERY,Study2,F,100,122,VC,User,-,"How many vowels are the two words combined?|Type your response below and then press Enter.",Study/JOL,"Study Phase",6731,,,6312,6312,,,,6,1
5dfc05fa36711f000b2b603e,scxmfl3ig4,"Deep vs Shallow",1,88,2020-07-08T14:33:47-07:00,3.205304145813,6,versionA_stim.csv,VC_VersionB.csv,"Version B","VC Version B",THREAD,THIMBLE,Study2,B,121,172,VC,User,-,"How many vowels are the two words combined?|Type your response below and then press Enter.",Study/JOL,"Study Phase",2402,,,2146,2146,,,,3,1
5dfc05fa36711f000b2b603e,scxmfl3ig4,"Deep vs Shallow",1,89,2020-07-08T14:33:50-07:00,3.2653059959412,6,versionA_stim.csv,VC_VersionB.csv,"Version B","VC Version B",CAKE,CLOTHES,Study2,U,166,130,VC,User,-,"How many vowels are the two words combined?|Type your response below and then press Enter.",Study/JOL,"Study Phase",2446,,,2193,2193,,,,2,1
5dfc05fa36711f000b2b603e,scxmfl3ig4,"Deep vs Shallow",1,90,2020-07-08T14:33:54-07:00,3.414538860321,6,versionA_stim.csv,VC_VersionB.csv,"Version B","VC Version B",TOOL,SHED,BUFFER4,Buffer,178,177,VC,User,-,"How many vowels are the two words combined?|Type your response below and then press Enter.",Study/JOL,BUFFER2,2611,,,2167,2167,,,,2,1
5dfc05fa36711f000b2b603e,scxmfl3ig4,"Deep vs Shallow",1,91,2020-07-08T14:33:58-07:00,3.8919839859009,6,versionA_stim.csv,VC_VersionB.csv,"Version B","VC Version B",SPRING,MARCH,BUFFER4,Buffer,179,180,VC,User,-,"How many vowels are the two words combined?|Type your response below and then press Enter.",Study/JOL,BUFFER2,3091,,,2710,2710,,,,2,1
5dfc05fa36711f000b2b603e,scxmfl3ig4,"Deep vs Shallow",1,92,2020-07-08T14:34:01-07:00,3.1053910255432,6,versionA_stim.csv,VC_VersionB.csv,"Version B","VC Version B",MONTH,YEAR,BUFFER4,Buffer,177,179,VC,User,-,"How many vowels are the two words combined?|Type your response below and then press Enter.",Study/JOL,BUFFER2,2301,,,1789,1789,,,,2,1
5dfc05fa36711f000b2b603e,scxmfl3ig4,"Deep vs Shallow",1,93,2020-07-08T14:34:04-07:00,3.2500641345978,6,versionA_stim.csv,VC_VersionB.csv,"Version B","VC Version B",DAYS,WEAKS,BUFFER4,Buffer,176,178,VC,User,-,"How many vowels are the two words combined?|Type your response below and then press Enter.",Study/JOL,BUFFER2,2450,,,1666,1666,,,,2,1
5dfc05fa36711f000b2b603e,scxmfl3ig4,"Deep vs Shallow",1,94,2020-07-08T14:34:08-07:00,4.5998990535736,6,versionA_stim.csv,VC_VersionB.csv,"Version B","VC Version B",OCTOBER,SPOOKY,BUFFER4,Buffer,180,181,VC,User,-,"How many vowels are the two words combined?|Type your response below and then press Enter.",Study/JOL,BUFFER2,3815,,,3539,3539,,,,5,1
5dfc05fa36711f000b2b603e,scxmfl3ig4,"Deep vs Shallow",1,95,2020-07-08T14:34:12-07:00,3.5866630077362,6,versionA_stim.csv,VC_VersionB.csv,"Version B","VC Version B",,,,,,0,Instruct,User,-,"You have completed this section. Please press Enter.",Filler_Instruction,Instruct2,2791,,,-1,-1,,,,,1
5dfc05fa36711f000b2b603e,scxmfl3ig4,"Deep vs Shallow",1,96,2020-07-08T14:36:13-07:00,120.8012650013,6,versionA_stim.csv,VC_VersionB.csv,"Version B","VC Version B",,,,,,0,FreeRecall,120,120,"Please list the 50 US states in alphabetical order. The task will automatically advance to the next screen after two minutes.",,Filler1,120001,"Alabama Alaska Arizona Arkansas California Colorado Connecticut Delaware Florida Georgia Hawaii Idaho Illinois Indiana Iowa Kansas Kentucky Louisiana Maine Maryland Massachusetts Michigan Minnesota Mississippi Missouri Montana Nebraska Nevada New Hampshire New Jersey New Mexico New York North Carolina North Dakota Ohio Oklahoma Oregon Pennsylvania Rhode Island South Carolina South Dakota Tennessee Texas Utah Vermont Virginia Washington West Virginia Wisconsin Wyoming",0,-1,-1,0,0,,,0.605
5dfc05fa36711f000b2b603e,scxmfl3ig4,"Deep vs Shallow",1,97,2020-07-08T14:36:34-07:00,20.654820919037,6,versionA_stim.csv,VC_VersionB.csv,"Version B","VC Version B",,,,,,0,Instruct,-,10,"You will now be presented with the first word from each of the previously studied item pairs. Please type the missing word. If you do not know the word, you may guess or press Enter to skip forward to the next pair.",,Instruct3,19845,,,-1,-1,,,,,0.9
5dfc05fa36711f000b2b603e,scxmfl3ig4,"Deep vs Shallow",1,98,2020-07-08T14:36:39-07:00,5.9594969749451,6,versionA_stim.csv,VC_VersionB.csv,"Version B","VC Version B",DEAD,COFFIN,Study2,B,128,114,Test,User,-,,Recall,Recall1,5158,,0,-1,-1,0,0,,,1
5dfc05fa36711f000b2b603e,scxmfl3ig4,"Deep vs Shallow",1,99,2020-07-08T14:36:42-07:00,2.2269940376282,6,versionA_stim.csv,VC_VersionB.csv,"Version B","VC Version B",SLEEP,NAP,Study2,B,134,138,Test,User,-,,Recall,Recall1,1657,,0,-1,-1,0,0,,,1
5dfc05fa36711f000b2b603e,scxmfl3ig4,"Deep vs Shallow",1,100,2020-07-08T14:36:43-07:00,1.6020920276642,6,versionA_stim.csv,VC_VersionB.csv,"Version B","VC Version B",SAFETY,SEATBELT,Study2,S,147,145,Test,User,-,,Recall,Recall1,1027,,0,-1,-1,0,0,,,1
5dfc05fa36711f000b2b603e,scxmfl3ig4,"Deep vs Shallow",1,101,2020-07-08T14:36:45-07:00,2.165953874588,6,versionA_stim.csv,VC_VersionB.csv,"Version B","VC Version B",CRACKLE,ABLE,Study2,U,162,167,Test,User,-,,Recall,Recall1,1590,,0,-1,-1,0,0,,,1
5dfc05fa36711f000b2b603e,scxmfl3ig4,"Deep vs Shallow",1,102,2020-07-08T14:36:47-07:00,1.3957560062408,6,versionA_stim.csv,VC_VersionB.csv,"Version B","VC Version B",DETECTIVE,MYSTERY,Study2,F,100,122,Test,User,-,,Recall,Recall1,823,,0,-1,-1,0,0,,,1
5dfc05fa36711f000b2b603e,scxmfl3ig4,"Deep vs Shallow",1,103,2020-07-08T14:36:49-07:00,2.1721150875092,6,versionA_stim.csv,VC_VersionB.csv,"Version B","VC Version B",BEST,FAVORITE,Study2,B,125,174,Test,User,-,,Recall,Recall1,1592,,0,-1,-1,0,0,,,1
5dfc05fa36711f000b2b603e,scxmfl3ig4,"Deep vs Shallow",1,104,2020-07-08T14:36:53-07:00,3.5020258426666,6,versionA_stim.csv,VC_VersionB.csv,"Version B","VC Version B",BASEBALL,LEAGUE,Study2,B,131,156,Test,User,-,,Recall,Recall1,2702,,0,-1,-1,0,0,,,1
5dfc05fa36711f000b2b603e,scxmfl3ig4,"Deep vs Shallow",1,105,2020-07-08T14:37:00-07:00,7.2240052223206,6,versionA_stim.csv,VC_VersionB.csv,"Version B","VC Version B",MASON,JAR,Study2,S,138,173,Test,User,-,,Recall,Recall1,6421,crackle,20,3051,5590,0,0,,,1
5dfc05fa36711f000b2b603e,scxmfl3ig4,"Deep vs Shallow",1,106,2020-07-08T14:37:03-07:00,3.2869408130646,6,versionA_stim.csv,VC_VersionB.csv,"Version B","VC Version B",FUZZY,BANG,Study2,U,168,112,Test,User,-,,Recall,Recall1,2496,,0,-1,-1,0,0,,,1
5dfc05fa36711f000b2b603e,scxmfl3ig4,"Deep vs Shallow",1,107,2020-07-08T14:37:06-07:00,2.819981098175,6,versionA_stim.csv,VC_VersionB.csv,"Version B","VC Version B",FLEA,TICK,Study2,S,151,153,Test,User,-,,Recall,Recall1,1235,,0,-1,-1,0,0,,,1
5dfc05fa36711f000b2b603e,scxmfl3ig4,"Deep vs Shallow",1,108,2020-07-08T14:37:09-07:00,2.62508893013,6,versionA_stim.csv,VC_VersionB.csv,"Version B","VC Version B",ADJOURN,END,Study2,F,101,152,Test,User,-,,Recall,Recall1,1051,,0,-1,-1,0,0,,,1
5dfc05fa36711f000b2b603e,scxmfl3ig4,"Deep vs Shallow",1,109,2020-07-08T14:37:10-07:00,1.4919581413269,6,versionA_stim.csv,VC_VersionB.csv,"Version B","VC Version B",MOAT,CLEAR,Study2,U,169,132,Test,User,-,,Recall,Recall1,918,,0,-1,-1,0,0,,,1
5dfc05fa36711f000b2b603e,scxmfl3ig4,"Deep vs Shallow",1,110,2020-07-08T14:37:12-07:00,2.1148238182068,6,versionA_stim.csv,VC_VersionB.csv,"Version B","VC Version B",VEHICLE,CHARM,Study2,U,160,115,Test,User,-,,Recall,Recall1,1530,,0,-1,-1,0,0,,,1
5dfc05fa36711f000b2b603e,scxmfl3ig4,"Deep vs Shallow",1,111,2020-07-08T14:37:14-07:00,1.4791259765625,6,versionA_stim.csv,VC_VersionB.csv,"Version B","VC Version B",DRY,WET,Study2,S,146,128,Test,User,-,,Recall,Recall1,895,,0,-1,-1,0,0,,,1
5dfc05fa36711f000b2b603e,scxmfl3ig4,"Deep vs Shallow",1,112,2020-07-08T14:37:15-07:00,1.3741240501404,6,versionA_stim.csv,VC_VersionB.csv,"Version B","VC Version B",JUSTICE,MAROON,Study2,U,156,147,Test,User,-,,Recall,Recall1,787,,0,-1,-1,0,0,,,1
5dfc05fa36711f000b2b603e,scxmfl3ig4,"Deep vs Shallow",1,113,2020-07-08T14:37:16-07:00,1.1487901210785,6,versionA_stim.csv,VC_VersionB.csv,"Version B","VC Version B",CAT,PANTHER,Study2,B,126,119,Test,User,-,,Recall,Recall1,579,,0,-1,-1,0,0,,,1
5dfc05fa36711f000b2b603e,scxmfl3ig4,"Deep vs Shallow",1,114,2020-07-08T14:37:17-07:00,1.0096218585968,6,versionA_stim.csv,VC_VersionB.csv,"Version B","VC Version B",MAZE,ELECTION,Study2,U,159,163,Test,User,-,,Recall,Recall1,440,,0,-1,-1,0,0,,,1
5dfc05fa36711f000b2b603e,scxmfl3ig4,"Deep vs Shallow",1,115,2020-07-08T14:37:18-07:00,0.98270297050476,6,versionA_stim.csv,VC_VersionB.csv,"Version B","VC Version B",SHOELACE,TIE,Study2,F,99,162,Test,User,-,,Recall,Recall1,410,,0,-1,-1,0,0,,,1
5dfc05fa36711f000b2b603e,scxmfl3ig4,"Deep vs Shallow",1,116,2020-07-08T14:37:22-07:00,3.4124472141266,6,versionA_stim.csv,VC_VersionB.csv,"Version B","VC Version B",FIGHT,BRAWL,Study2,B,135,127,Test,User,-,,Recall,Recall1,2581,,0,-1,-1,0,0,,,1
5dfc05fa36711f000b2b603e,scxmfl3ig4,"Deep vs Shallow",1,117,2020-07-08T14:37:25-07:00,3.0171148777008,6,versionA_stim.csv,VC_VersionB.csv,"Version B","VC Version B",NAME,HATE,Study2,U,167,120,Test,User,-,,Recall,Recall1,1443,,0,-1,-1,0,0,,,1
5dfc05fa36711f000b2b603e,scxmfl3ig4,"Deep vs Shallow",1,118,2020-07-08T14:37:26-07:00,1.4434161186218,6,versionA_stim.csv,VC_VersionB.csv,"Version B","VC Version B",ELEMENT,CARBON,Study2,S,141,99,Test,User,-,,Recall,Recall1,845,,0,-1,-1,0,0,,,1
5dfc05fa36711f000b2b603e,scxmfl3ig4,"Deep vs Shallow",1,119,2020-07-08T14:37:27-07:00,1.1596767902374,6,versionA_stim.csv,VC_VersionB.csv,"Version B","VC Version B",POP,BALLOON,Study2,B,123,158,Test,User,-,,Recall,Recall1,583,,0,-1,-1,0,0,,,1
5dfc05fa36711f000b2b603e,scxmfl3ig4,"Deep vs Shallow",1,120,2020-07-08T14:37:28-07:00,1.0683581829071,6,versionA_stim.csv,VC_VersionB.csv,"Version B","VC Version B",MEAT,OBTAIN,Study2,U,161,126,Test,User,-,,Recall,Recall1,485,,0,-1,-1,0,0,,,1
5dfc05fa36711f000b2b603e,scxmfl3ig4,"Deep vs Shallow",1,121,2020-07-08T14:37:30-07:00,1.3892178535461,6,versionA_stim.csv,VC_VersionB.csv,"Version B","VC Version B",EARTH,GROUND,Study2,S,144,110,Test,User,-,,Recall,Recall1,801,,0,-1,-1,0,0,,,1
5dfc05fa36711f000b2b603e,scxmfl3ig4,"Deep vs Shallow",1,122,2020-07-08T14:37:31-07:00,0.94844603538513,6,versionA_stim.csv,VC_VersionB.csv,"Version B","VC Version B",BOTH,OUNCE,Study2,U,172,157,Test,User,-,,Recall,Recall1,369,,0,-1,-1,0,0,,,1
5dfc05fa36711f000b2b603e,scxmfl3ig4,"Deep vs Shallow",1,123,2020-07-08T14:37:32-07:00,0.96903109550476,6,versionA_stim.csv,VC_VersionB.csv,"Version B","VC Version B",CLUE,GAME,Study2,F,97,160,Test,User,-,,Recall,Recall1,397,,0,-1,-1,0,0,,,1
5dfc05fa36711f000b2b603e,scxmfl3ig4,"Deep vs Shallow",1,124,2020-07-08T14:37:33-07:00,1.1765329837799,6,versionA_stim.csv,VC_VersionB.csv,"Version B","VC Version B",WATER,DRINK,Study2,S,143,109,Test,User,-,,Recall,Recall1,601,,0,-1,-1,0,0,,,1
5dfc05fa36711f000b2b603e,scxmfl3ig4,"Deep vs Shallow",1,125,2020-07-08T14:37:34-07:00,1.0429320335388,6,versionA_stim.csv,VC_VersionB.csv,"Version B","VC Version B",CHOP,CUT,Study2,F,107,164,Test,User,-,,Recall,Recall1,462,,0,-1,-1,0,0,,,1
5dfc05fa36711f000b2b603e,scxmfl3ig4,"Deep vs Shallow",1,126,2020-07-08T14:37:35-07:00,0.96518182754517,6,versionA_stim.csv,VC_VersionB.csv,"Version B","VC Version B",TRUTH,LIE,Study2,S,148,141,Test,User,-,,Recall,Recall1,357,,0,-1,-1,0,0,,,1
5dfc05fa36711f000b2b603e,scxmfl3ig4,"Deep vs Shallow",1,127,2020-07-08T14:37:36-07:00,0.98094916343689,6,versionA_stim.csv,VC_VersionB.csv,"Version B","VC Version B",ROD,REEL,Study2,S,150,123,Test,User,-,,Recall,Recall1,390,,0,-1,-1,0,0,,,1
5dfc05fa36711f000b2b603e,scxmfl3ig4,"Deep vs Shallow",1,128,2020-07-08T14:37:37-07:00,0.93360686302185,6,versionA_stim.csv,VC_VersionB.csv,"Version B","VC Version B",CAR,WINDSHIELD,Study2,B,117,102,Test,User,-,,Recall,Recall1,357,,0,-1,-1,0,0,,,1
5dfc05fa36711f000b2b603e,scxmfl3ig4,"Deep vs Shallow",1,129,2020-07-08T14:37:38-07:00,0.9156551361084,6,versionA_stim.csv,VC_VersionB.csv,"Version B","VC Version B",KEYS,JOKE,Study2,U,165,131,Test,User,-,,Recall,Recall1,342,,0,-1,-1,0,0,,,1
5dfc05fa36711f000b2b603e,scxmfl3ig4,"Deep vs Shallow",1,130,2020-07-08T14:37:39-07:00,0.98397088050842,6,versionA_stim.csv,VC_VersionB.csv,"Version B","VC Version B",STRETCH,CLOTH,Study2,U,157,144,Test,User,-,,Recall,Recall1,408,,0,-1,-1,0,0,,,1
5dfc05fa36711f000b2b603e,scxmfl3ig4,"Deep vs Shallow",1,131,2020-07-08T14:37:39-07:00,0.92826414108276,6,versionA_stim.csv,VC_VersionB.csv,"Version B","VC Version B",CHILL,COLD,Study2,F,114,98,Test,User,-,,Recall,Recall1,352,,0,-1,-1,0,0,,,1
5dfc05fa36711f000b2b603e,scxmfl3ig4,"Deep vs Shallow",1,132,2020-07-08T14:37:40-07:00,1.0069370269775,6,versionA_stim.csv,VC_VersionB.csv,"Version B","VC Version B",CANDLE,WAX,Study2,S,139,117,Test,User,-,,Recall,Recall1,421,,0,-1,-1,0,0,,,1
5dfc05fa36711f000b2b603e,scxmfl3ig4,"Deep vs Shallow",1,133,2020-07-08T14:37:42-07:00,1.0572609901428,6,versionA_stim.csv,VC_VersionB.csv,"Version B","VC Version B",ALONE,LONELY,Study2,S,145,118,Test,User,-,,Recall,Recall1,473,,0,-1,-1,0,0,,,1
5dfc05fa36711f000b2b603e,scxmfl3ig4,"Deep vs Shallow",1,134,2020-07-08T14:37:44-07:00,2.1475458145142,6,versionA_stim.csv,VC_VersionB.csv,"Version B","VC Version B",TURN,FLIP,Study2,B,116,133,Test,User,-,,Recall,Recall1,1552,,0,-1,-1,0,0,,,1
5dfc05fa36711f000b2b603e,scxmfl3ig4,"Deep vs Shallow",1,135,2020-07-08T14:37:48-07:00,4.3577990531921,6,versionA_stim.csv,VC_VersionB.csv,"Version B","VC Version B",SUN,TAN,Study2,S,155,129,Test,User,-,,Recall,Recall1,3551,,0,-1,-1,0,0,,,1
5dfc05fa36711f000b2b603e,scxmfl3ig4,"Deep vs Shallow",1,136,2020-07-08T14:37:51-07:00,3.0956189632416,6,versionA_stim.csv,VC_VersionB.csv,"Version B","VC Version B",OWN,HAVE,Study2,S,153,155,Test,User,-,,Recall,Recall1,2279,,0,-1,-1,0,0,,,1
5dfc05fa36711f000b2b603e,scxmfl3ig4,"Deep vs Shallow",1,137,2020-07-08T14:37:53-07:00,1.8407220840454,6,versionA_stim.csv,VC_VersionB.csv,"Version B","VC Version B",LEASE,TOIL,Study2,U,170,154,Test,User,-,,Recall,Recall1,1229,,0,-1,-1,0,0,,,1
5dfc05fa36711f000b2b603e,scxmfl3ig4,"Deep vs Shallow",1,138,2020-07-08T14:37:55-07:00,1.6793758869171,6,versionA_stim.csv,VC_VersionB.csv,"Version B","VC Version B",DRIVER,CAR,Study2,F,106,168,Test,User,-,,Recall,Recall1,1096,,0,-1,-1,0,0,,,1
5dfc05fa36711f000b2b603e,scxmfl3ig4,"Deep vs Shallow",1,139,2020-07-08T14:37:57-07:00,2.7673511505127,6,versionA_stim.csv,VC_VersionB.csv,"Version B","VC Version B",FEUD,FIGHT,Study2,F,113,135,Test,User,-,,Recall,Recall1,1960,,0,-1,-1,0,0,,,1
5dfc05fa36711f000b2b603e,scxmfl3ig4,"Deep vs Shallow",1,140,2020-07-08T14:38:01-07:00,3.5672900676727,6,versionA_stim.csv,VC_VersionB.csv,"Version B","VC Version B",BAD,VILLAIN,Study2,B,118,106,Test,User,-,,Recall,Recall1,2762,,0,-1,-1,0,0,,,1
5dfc05fa36711f000b2b603e,scxmfl3ig4,"Deep vs Shallow",1,141,2020-07-08T14:38:03-07:00,1.9488899707794,6,versionA_stim.csv,VC_VersionB.csv,"Version B","VC Version B",HONEST,TRUTHFUL,Study2,B,133,166,Test,User,-,,Recall,Recall1,1353,,0,-1,-1,0,0,,,1
5dfc05fa36711f000b2b603e,scxmfl3ig4,"Deep vs Shallow",1,142,2020-07-08T14:38:11-07:00,8.2040269374847,6,versionA_stim.csv,VC_VersionB.csv,"Version B","VC Version B",THREAD,THIMBLE,Study2,B,121,172,Test,User,-,,Recall,Recall1,7407,needle,30.769230769231,3445,6368,0,0,,,1
5dfc05fa36711f000b2b603e,scxmfl3ig4,"Deep vs Shallow",1,143,2020-07-08T14:38:13-07:00,1.6831970214844,6,versionA_stim.csv,VC_VersionB.csv,"Version B","VC Version B",FISH,SARDINE,Study2,B,130,148,Test,User,-,,Recall,Recall1,1095,,0,-1,-1,0,0,,,1
5dfc05fa36711f000b2b603e,scxmfl3ig4,"Deep vs Shallow",1,144,2020-07-08T14:38:14-07:00,1.4747159481049,6,versionA_stim.csv,VC_VersionB.csv,"Version B","VC Version B",DOCUMENT,PAPER,Study2,F,109,121,Test,User,-,,Recall,Recall1,898,,0,-1,-1,0,0,,,1
5dfc05fa36711f000b2b603e,scxmfl3ig4,"Deep vs Shallow",1,145,2020-07-08T14:38:16-07:00,1.4765810966492,6,versionA_stim.csv,VC_VersionB.csv,"Version B","VC Version B",LOAN,SIGN,Study2,U,171,103,Test,User,-,,Recall,Recall1,892,,0,-1,-1,0,0,,,1
5dfc05fa36711f000b2b603e,scxmfl3ig4,"Deep vs Shallow",1,146,2020-07-08T14:38:17-07:00,1.4547998905182,6,versionA_stim.csv,VC_VersionB.csv,"Version B","VC Version B",DINE,EAT,Study2,F,111,136,Test,User,-,,Recall,Recall1,877,,0,-1,-1,0,0,,,1
5dfc05fa36711f000b2b603e,scxmfl3ig4,"Deep vs Shallow",1,147,2020-07-08T14:38:22-07:00,4.8491399288177,6,versionA_stim.csv,VC_VersionB.csv,"Version B","VC Version B",INCENSE,SMELL,Study2,F,110,170,Test,User,-,,Recall,Recall1,4045,,0,-1,-1,0,0,,,1
5dfc05fa36711f000b2b603e,scxmfl3ig4,"Deep vs Shallow",1,148,2020-07-08T14:38:27-07:00,4.4949460029602,6,versionA_stim.csv,VC_VersionB.csv,"Version B","VC Version B",TEMPERATURE,Morning,Study2,U,173,171,Test,User,-,,Recall,Recall1,3661,,0,-1,-1,0,0,,,1
5dfc05fa36711f000b2b603e,scxmfl3ig4,"Deep vs Shallow",1,149,2020-07-08T14:38:28-07:00,1.6040320396423,6,versionA_stim.csv,VC_VersionB.csv,"Version B","VC Version B",GIVE,STEAK,Study2,U,158,125,Test,User,-,,Recall,Recall1,1020,,0,-1,-1,0,0,,,1
5dfc05fa36711f000b2b603e,scxmfl3ig4,"Deep vs Shallow",1,150,2020-07-08T14:38:29-07:00,1.2744300365448,6,versionA_stim.csv,VC_VersionB.csv,"Version B","VC Version B",RIGHTS,EQUAL,Study2,S,137,149,Test,User,-,,Recall,Recall1,695,,0,-1,-1,0,0,,,1
5dfc05fa36711f000b2b603e,scxmfl3ig4,"Deep vs Shallow",1,151,2020-07-08T14:38:34-07:00,4.3568160533905,6,versionA_stim.csv,VC_VersionB.csv,"Version B","VC Version B",SHEARS,SCISSORS,Study2,F,112,111,Test,User,-,,Recall,Recall1,3545,,0,-1,-1,0,0,,,1
5dfc05fa36711f000b2b603e,scxmfl3ig4,"Deep vs Shallow",1,152,2020-07-08T14:38:35-07:00,1.4955458641052,6,versionA_stim.csv,VC_VersionB.csv,"Version B","VC Version B",MIRROR,CHILDREN,Study2,U,174,101,Test,User,-,,Recall,Recall1,899,,0,-1,-1,0,0,,,1
5dfc05fa36711f000b2b603e,scxmfl3ig4,"Deep vs Shallow",1,153,2020-07-08T14:38:36-07:00,0.95305204391479,6,versionA_stim.csv,VC_VersionB.csv,"Version B","VC Version B",FRUIT,STRAWBERRY,Study2,B,124,97,Test,User,-,,Recall,Recall1,356,,0,-1,-1,0,0,,,1
5dfc05fa36711f000b2b603e,scxmfl3ig4,"Deep vs Shallow",1,154,2020-07-08T14:38:40-07:00,4.1035799980164,6,versionA_stim.csv,VC_VersionB.csv,"Version B","VC Version B",EXTENSION,LONG,Study2,F,96,169,Test,User,-,,Recall,Recall1,3274,,0,-1,-1,0,0,,,1
5dfc05fa36711f000b2b603e,scxmfl3ig4,"Deep vs Shallow",1,155,2020-07-08T14:38:45-07:00,4.889102935791,6,versionA_stim.csv,VC_VersionB.csv,"Version B","VC Version B",RAZOR,SHAVE,Study2,S,136,165,Test,User,-,,Recall,Recall1,4079,,0,-1,-1,0,0,,,1
5dfc05fa36711f000b2b603e,scxmfl3ig4,"Deep vs Shallow",1,156,2020-07-08T14:38:52-07:00,6.5821180343628,6,versionA_stim.csv,VC_VersionB.csv,"Version B","VC Version B",FURRY,DOG,Study2,F,102,108,Test,User,-,,Recall,Recall1,5777,dogs,85.714285714286,2855,3524,0,1,,,1
5dfc05fa36711f000b2b603e,scxmfl3ig4,"Deep vs Shallow",1,157,2020-07-08T14:38:54-07:00,1.9233059883118,6,versionA_stim.csv,VC_VersionB.csv,"Version B","VC Version B",WRIST,BRACELET,Study2,S,140,151,Test,User,-,,Recall,Recall1,1335,,0,-1,-1,0,0,,,1
5dfc05fa36711f000b2b603e,scxmfl3ig4,"Deep vs Shallow",1,158,2020-07-08T14:38:55-07:00,1.5955290794373,6,versionA_stim.csv,VC_VersionB.csv,"Version B","VC Version B",AFFECTION,LOVE,Study2,F,115,139,Test,User,-,,Recall,Recall1,1000,,0,-1,-1,0,0,,,1
5dfc05fa36711f000b2b603e,scxmfl3ig4,"Deep vs Shallow",1,159,2020-07-08T14:38:57-07:00,1.2749121189117,6,versionA_stim.csv,VC_VersionB.csv,"Version B","VC Version B",CHERRY,RED,Study2,F,104,105,Test,User,-,,Recall,Recall1,683,,0,-1,-1,0,0,,,1
5dfc05fa36711f000b2b603e,scxmfl3ig4,"Deep vs Shallow",1,160,2020-07-08T14:39:13-07:00,16.593423843384,6,versionA_stim.csv,VC_VersionB.csv,"Version B","VC Version B",GLASS,BREAKABLE,Study2,B,127,161,Test,User,-,,Recall,Recall1,15784,,0,-1,-1,0,0,,,1
5dfc05fa36711f000b2b603e,scxmfl3ig4,"Deep vs Shallow",1,161,2020-07-08T14:39:16-07:00,3.0840821266174,6,versionA_stim.csv,VC_VersionB.csv,"Version B","VC Version B",GONE,AWAY,Study2,S,142,134,Test,User,-,,Recall,Recall1,2277,,0,-1,-1,0,0,,,1
5dfc05fa36711f000b2b603e,scxmfl3ig4,"Deep vs Shallow",1,162,2020-07-08T14:39:18-07:00,1.287348985672,6,versionA_stim.csv,VC_VersionB.csv,"Version B","VC Version B",PHONE,COMMUNICATION,Study2,S,149,100,Test,User,-,,Recall,Recall1,692,,0,-1,-1,0,0,,,1
5dfc05fa36711f000b2b603e,scxmfl3ig4,"Deep vs Shallow",1,163,2020-07-08T14:39:19-07:00,1.4531788825989,6,versionA_stim.csv,VC_VersionB.csv,"Version B","VC Version B",LITTER,TRASH,Study2,F,103,146,Test,User,-,,Recall,Recall1,877,,0,-1,-1,0,0,,,1
5dfc05fa36711f000b2b603e,scxmfl3ig4,"Deep vs Shallow",1,164,2020-07-08T14:39:22-07:00,2.5677289962769,6,versionA_stim.csv,VC_VersionB.csv,"Version B","VC Version B",CACTUS,PLANT,Study2,F,98,176,Test,User,-,,Recall,Recall1,907,,0,-1,-1,0,0,,,1
5dfc05fa36711f000b2b603e,scxmfl3ig4,"Deep vs Shallow",1,165,2020-07-08T14:39:24-07:00,2.1174371242523,6,versionA_stim.csv,VC_VersionB.csv,"Version B","VC Version B",BIRD,PENGUIN,Study2,B,119,107,Test,User,-,,Recall,Recall1,1531,,0,-1,-1,0,0,,,1
5dfc05fa36711f000b2b603e,scxmfl3ig4,"Deep vs Shallow",1,166,2020-07-08T14:39:25-07:00,1.5566508769989,6,versionA_stim.csv,VC_VersionB.csv,"Version B","VC Version B",CAKE,CLOTHES,Study2,U,166,130,Test,User,-,,Recall,Recall1,971,,0,-1,-1,0,0,,,1
5dfc05fa36711f000b2b603e,scxmfl3ig4,"Deep vs Shallow",1,167,2020-07-08T14:39:32-07:00,6.6818690299988,6,versionA_stim.csv,VC_VersionB.csv,"Version B","VC Version B",MULE,DONKEY,Study2,F,108,124,Test,User,-,,Recall,Recall1,5879,donkey,100,3841,4719,1,1,,,1
5dfc05fa36711f000b2b603e,scxmfl3ig4,"Deep vs Shallow",1,168,2020-07-08T14:39:34-07:00,1.7326619625092,6,versionA_stim.csv,VC_VersionB.csv,"Version B","VC Version B",LISTEN,FICTION,Study2,U,164,140,Test,User,-,,Recall,Recall1,1154,,0,-1,-1,0,0,,,1
5dfc05fa36711f000b2b603e,scxmfl3ig4,"Deep vs Shallow",1,169,2020-07-08T14:39:35-07:00,1.7042031288147,6,versionA_stim.csv,VC_VersionB.csv,"Version B","VC Version B",EVEN,REVENGE,Study2,B,122,150,Test,User,-,,Recall,Recall1,1130,,0,-1,-1,0,0,,,1
5dfc05fa36711f000b2b603e,scxmfl3ig4,"Deep vs Shallow",1,170,2020-07-08T14:39:38-07:00,2.1328959465027,6,versionA_stim.csv,VC_VersionB.csv,"Version B","VC Version B",MAIN,SCAR,Study2,U,175,137,Test,User,-,,Recall,Recall1,1556,,0,-1,-1,0,0,,,1
5dfc05fa36711f000b2b603e,scxmfl3ig4,"Deep vs Shallow",1,171,2020-07-08T14:39:39-07:00,1.3451309204102,6,versionA_stim.csv,VC_VersionB.csv,"Version B","VC Version B",Shell,SHAKE,Study2,U,163,142,Test,User,-,,Recall,Recall1,766,,0,-1,-1,0,0,,,1
5dfc05fa36711f000b2b603e,scxmfl3ig4,"Deep vs Shallow",1,172,2020-07-08T14:39:40-07:00,1.5209541320801,6,versionA_stim.csv,VC_VersionB.csv,"Version B","VC Version B",MONEY,BANKER,Study2,B,132,104,Test,User,-,,Recall,Recall1,931,,0,-1,-1,0,0,,,1
5dfc05fa36711f000b2b603e,scxmfl3ig4,"Deep vs Shallow",1,173,2020-07-08T14:39:42-07:00,1.4667928218842,6,versionA_stim.csv,VC_VersionB.csv,"Version B","VC Version B",PLANE,AIRCRAFT,Study2,B,129,113,Test,User,-,,Recall,Recall1,878,,0,-1,-1,0,0,,,1
5dfc05fa36711f000b2b603e,scxmfl3ig4,"Deep vs Shallow",1,174,2020-07-08T14:39:43-07:00,1.3243570327759,6,versionA_stim.csv,VC_VersionB.csv,"Version B","VC Version B",LOUD,NOISE,Study2,S,152,159,Test,User,-,,Recall,Recall1,733,,0,-1,-1,0,0,,,1
5dfc05fa36711f000b2b603e,scxmfl3ig4,"Deep vs Shallow",1,175,2020-07-08T14:39:44-07:00,1.2917561531067,6,versionA_stim.csv,VC_VersionB.csv,"Version B","VC Version B",STAR,ACTRESS,Study2,B,120,143,Test,User,-,,Recall,Recall1,709,,0,-1,-1,0,0,,,1
5dfc05fa36711f000b2b603e,scxmfl3ig4,"Deep vs Shallow",1,176,2020-07-08T14:39:46-07:00,1.4851830005646,6,versionA_stim.csv,VC_VersionB.csv,"Version B","VC Version B",TANTRUM,TEMPER,Study2,S,154,175,Test,User,-,,Recall,Recall1,908,,0,-1,-1,0,0,,,1
5dfc05fa36711f000b2b603e,scxmfl3ig4,"Deep vs Shallow",1,177,2020-07-08T14:39:47-07:00,1.248123884201,6,versionA_stim.csv,VC_VersionB.csv,"Version B","VC Version B",SCALP,HEAD,Study2,F,105,116,Test,User,-,,Recall,Recall1,675,,0,-1,-1,0,0,,,1
5dfc05fa36711f000b2b603e,scxmfl3ig4,"Deep vs Shallow",1,178,2020-07-08T14:40:01-07:00,14.085175991058,6,versionA_stim.csv,VC_VersionB.csv,"Version B","VC Version B",,,,,,0,Instruct,-,10,"You will now be presented with a new set of word pairs. Please study each pair. Remember that your memory will be tested! When finished, press Enter to move to the next pair.",Initial_Instruct,Instruct4,13274,,,-1,-1,,,,,1
5dfc05fa36711f000b2b603e,scxmfl3ig4,"Deep vs Shallow",1,179,2020-07-08T14:41:16-07:00,74.54881310463,6,versionA_stim.csv,VC_VersionB.csv,"Version B","VC Version B",,,,,,0,Instruct,,10,"You will again be asked to count how many vowels the two words contain. Please remember to type this number in the space below each pair.",,Instruct10,73732,,,-1,-1,,,,,1
5dfc05fa36711f000b2b603e,scxmfl3ig4,"Deep vs Shallow",1,180,2020-07-08T14:41:19-07:00,3.4336750507355,6,versionA_stim.csv,VC_VersionB.csv,"Version B","VC Version B",,,,,,0,Instruct,User,-,"Press Enter when you are readty to begin",,Instruct11,2591,,,-1,-1,,,,,1
5dfc05fa36711f000b2b603e,scxmfl3ig4,"Deep vs Shallow",1,181,2020-07-08T14:41:25-07:00,5.8740518093109,6,versionA_stim.csv,VC_VersionB.csv,"Version B","VC Version B",PEANUT,BUTTER,BUFFER1,Buffer,3,3,VC,User,-,"How many vowels are the two words combined?|Type your response below and then press Enter.",Study/JOL,BUFFER3,5047,,,3751,3751,,,,4,1
5dfc05fa36711f000b2b603e,scxmfl3ig4,"Deep vs Shallow",1,182,2020-07-08T14:41:29-07:00,4.1531231403351,6,versionA_stim.csv,VC_VersionB.csv,"Version B","VC Version B",SPACE,JAM,BUFFER1,Buffer,5,4,VC,User,-,"How many vowels are the two words combined?|Type your response below and then press Enter.",Study/JOL,BUFFER3,3334,,,2377,2377,,,,2,1
5dfc05fa36711f000b2b603e,scxmfl3ig4,"Deep vs Shallow",1,183,2020-07-08T14:41:32-07:00,2.9249968528748,6,versionA_stim.csv,VC_VersionB.csv,"Version B","VC Version B",TREES,GREEN,BUFFER1,Buffer,1,2,VC,User,-,"How many vowels are the two words combined?|Type your response below and then press Enter.",Study/JOL,BUFFER3,2113,,,1657,1657,,,,2,1
5dfc05fa36711f000b2b603e,scxmfl3ig4,"Deep vs Shallow",1,184,2020-07-08T14:41:36-07:00,3.5852570533752,6,versionA_stim.csv,VC_VersionB.csv,"Version B","VC Version B",SCARE,HIDE,BUFFER1,Buffer,4,5,VC,User,-,"How many vowels are the two words combined?|Type your response below and then press Enter.",Study/JOL,BUFFER3,2771,,,2073,2073,,,,2,1
5dfc05fa36711f000b2b603e,scxmfl3ig4,"Deep vs Shallow",1,185,2020-07-08T14:41:43-07:00,6.8942790031433,6,versionA_stim.csv,VC_VersionB.csv,"Version B","VC Version B",BASEBALL,CATCHER,BUFFER1,Buffer,2,6,VC,User,-,"How many vowels are the two words combined?|Type your response below and then press Enter.",Study/JOL,BUFFER3,6092,,,4727,4727,,,,4,1
5dfc05fa36711f000b2b603e,scxmfl3ig4,"Deep vs Shallow",1,186,2020-07-08T14:41:46-07:00,3.1631469726562,6,versionA_stim.csv,VC_VersionB.csv,"Version B","VC Version B",FULL,ENOUGH,Study1,B,26,49,VC,User,-,"How many vowels are the two words combined?|Type your response below and then press Enter.",Study/JOL,"Study Phase2",2356,,,1577,1578,,,,2,1
5dfc05fa36711f000b2b603e,scxmfl3ig4,"Deep vs Shallow",1,187,2020-07-08T14:41:50-07:00,4.4210751056671,6,versionA_stim.csv,VC_VersionB.csv,"Version B","VC Version B",WAGE,MONEY,Study1,F,8,79,VC,User,-,"How many vowels are the two words combined?|Type your response below and then press Enter.",Study/JOL,"Study Phase2",3609,,,2554,2554,,,,3,1
5dfc05fa36711f000b2b603e,scxmfl3ig4,"Deep vs Shallow",1,188,2020-07-08T14:41:55-07:00,4.7206649780273,6,versionA_stim.csv,VC_VersionB.csv,"Version B","VC Version B",PLANE,PILOT,Study1,B,44,51,VC,User,-,"How many vowels are the two words combined?|Type your response below and then press Enter.",Study/JOL,"Study Phase2",3911,,,2160,2160,,,,3,1
5dfc05fa36711f000b2b603e,scxmfl3ig4,"Deep vs Shallow",1,189,2020-07-08T14:41:59-07:00,3.5493130683899,6,versionA_stim.csv,VC_VersionB.csv,"Version B","VC Version B",HERD,COW,Study1,F,22,31,VC,User,-,"How many vowels are the two words combined?|Type your response below and then press Enter.",Study/JOL,"Study Phase2",2743,,,1805,1805,,,,2,1
5dfc05fa36711f000b2b603e,scxmfl3ig4,"Deep vs Shallow",1,190,2020-07-08T14:42:04-07:00,5.2365908622742,6,versionA_stim.csv,VC_VersionB.csv,"Version B","VC Version B",HORNET,STING,Study1,F,11,19,VC,User,-,"How many vowels are the two words combined?|Type your response below and then press Enter.",Study/JOL,"Study Phase2",4428,,,2827,2827,,,,3,1
5dfc05fa36711f000b2b603e,scxmfl3ig4,"Deep vs Shallow",1,191,2020-07-08T14:42:08-07:00,4.3615021705627,6,versionA_stim.csv,VC_VersionB.csv,"Version B","VC Version B",DEBATE,SIGHT,Study1,U,73,85,VC,User,-,"How many vowels are the two words combined?|Type your response below and then press Enter.",Study/JOL,"Study Phase2",3553,,,2492,2492,,,,3,1
5dfc05fa36711f000b2b603e,scxmfl3ig4,"Deep vs Shallow",1,192,2020-07-08T14:42:12-07:00,3.7079818248749,6,versionA_stim.csv,VC_VersionB.csv,"Version B","VC Version B",SOON,BELT,Study1,U,70,73,VC,User,-,"How many vowels are the two words combined?|Type your response below and then press Enter.",Study/JOL,"Study Phase2",2887,,,2360,2360,,,,2,1
5dfc05fa36711f000b2b603e,scxmfl3ig4,"Deep vs Shallow",1,193,2020-07-08T14:42:16-07:00,4.3538110256195,6,versionA_stim.csv,VC_VersionB.csv,"Version B","VC Version B",MATH,DIVISION,Study1,B,33,33,VC,User,-,"How many vowels are the two words combined?|Type your response below and then press Enter.",Study/JOL,"Study Phase2",3554,,,2537,2537,,,,4,1
5dfc05fa36711f000b2b603e,scxmfl3ig4,"Deep vs Shallow",1,194,2020-07-08T14:42:22-07:00,5.8468539714813,6,versionA_stim.csv,VC_VersionB.csv,"Version B","VC Version B",FIRE,BLAZE,Study1,B,45,35,VC,User,-,"How many vowels are the two words combined?|Type your response below and then press Enter.",Study/JOL,"Study Phase2",5036,,,4549,4549,,,,3,1
5dfc05fa36711f000b2b603e,scxmfl3ig4,"Deep vs Shallow",1,195,2020-07-08T14:42:29-07:00,6.9258680343628,6,versionA_stim.csv,VC_VersionB.csv,"Version B","VC Version B",GREAT,FANTASTIC,Study1,B,35,60,VC,User,-,"How many vowels are the two words combined?|Type your response below and then press Enter.",Study/JOL,"Study Phase2",6108,,,5593,5593,,,,4,1
5dfc05fa36711f000b2b603e,scxmfl3ig4,"Deep vs Shallow",1,196,2020-07-08T14:42:35-07:00,5.7788169384003,6,versionA_stim.csv,VC_VersionB.csv,"Version B","VC Version B",SLEEP,DROWSY,Study1,B,41,53,VC,User,-,"How many vowels are the two words combined?|Type your response below and then press Enter.",Study/JOL,"Study Phase2",4972,,,4680,4681,,,,3,1
5dfc05fa36711f000b2b603e,scxmfl3ig4,"Deep vs Shallow",1,197,2020-07-08T14:42:38-07:00,3.6369211673737,6,versionA_stim.csv,VC_VersionB.csv,"Version B","VC Version B",HONEY,BEE,Study1,S,63,55,VC,User,-,"How many vowels are the two words combined?|Type your response below and then press Enter.",Study/JOL,"Study Phase2",2830,,,1946,1946,,,,3,1
5dfc05fa36711f000b2b603e,scxmfl3ig4,"Deep vs Shallow",1,198,2020-07-08T14:42:42-07:00,3.5390188694,6,versionA_stim.csv,VC_VersionB.csv,"Version B","VC Version B",CIRCLE,ROUND,Study1,S,65,84,VC,User,-,"How many vowels are the two words combined?|Type your response below and then press Enter.",Study/JOL,"Study Phase2",2728,,,2171,2171,,,,3,1
5dfc05fa36711f000b2b603e,scxmfl3ig4,"Deep vs Shallow",1,199,2020-07-08T14:42:46-07:00,3.9424929618835,6,versionA_stim.csv,VC_VersionB.csv,"Version B","VC Version B",TAKE,SEIZE,Study1,B,29,43,VC,User,-,"How many vowels are the two words combined?|Type your response below and then press Enter.",Study/JOL,"Study Phase2",3130,,,2726,2726,,,,2,1
5dfc05fa36711f000b2b603e,scxmfl3ig4,"Deep vs Shallow",1,200,2020-07-08T14:42:50-07:00,4.2252700328827,6,versionA_stim.csv,VC_VersionB.csv,"Version B","VC Version B",ARCHITECTURE,DESIGN,Study1,S,51,39,VC,User,-,"How many vowels are the two words combined?|Type your response below and then press Enter.",Study/JOL,"Study Phase2",3405,,,2726,2726,,,,3,1
5dfc05fa36711f000b2b603e,scxmfl3ig4,"Deep vs Shallow",1,201,2020-07-08T14:42:57-07:00,6.4054310321808,6,versionA_stim.csv,VC_VersionB.csv,"Version B","VC Version B",SMELL,STENCH,Study1,B,42,11,VC,User,-,"How many vowels are the two words combined?|Type your response below and then press Enter.",Study/JOL,"Study Phase2",5593,,,5172,5172,,,,2,1
5dfc05fa36711f000b2b603e,scxmfl3ig4,"Deep vs Shallow",1,202,2020-07-08T14:43:00-07:00,3.4805200099945,6,versionA_stim.csv,VC_VersionB.csv,"Version B","VC Version B",HAPPY,CAR,Study1,U,77,45,VC,User,-,"How many vowels are the two words combined?|Type your response below and then press Enter.",Study/JOL,"Study Phase2",2661,,,2100,2101,,,,3,1
5dfc05fa36711f000b2b603e,scxmfl3ig4,"Deep vs Shallow",1,203,2020-07-08T14:43:05-07:00,5.3841369152069,6,versionA_stim.csv,VC_VersionB.csv,"Version B","VC Version B",LAW,ATTORNEY,Study1,B,34,80,VC,User,-,"How many vowels are the two words combined?|Type your response below and then press Enter.",Study/JOL,"Study Phase2",4575,,,3727,3727,,,,4,1
5dfc05fa36711f000b2b603e,scxmfl3ig4,"Deep vs Shallow",1,204,2020-07-08T14:43:12-07:00,6.7405531406403,6,versionA_stim.csv,VC_VersionB.csv,"Version B","VC Version B",MEANING,DEFINITION,Study1,S,62,9,VC,User,-,"How many vowels are the two words combined?|Type your response below and then press Enter.",Study/JOL,"Study Phase2",5934,,,5379,5379,,,,6,1
5dfc05fa36711f000b2b603e,scxmfl3ig4,"Deep vs Shallow",1,205,2020-07-08T14:43:17-07:00,4.5240068435669,6,versionA_stim.csv,VC_VersionB.csv,"Version B","VC Version B",DELINQUENT,BAD,Study1,F,6,28,VC,User,-,"How many vowels are the two words combined?|Type your response below and then press Enter.",Study/JOL,"Study Phase2",3711,,,3376,3376,,,,4,1
5dfc05fa36711f000b2b603e,scxmfl3ig4,"Deep vs Shallow",1,206,2020-07-08T14:43:20-07:00,3.7467091083527,6,versionA_stim.csv,VC_VersionB.csv,"Version B","VC Version B",BLOW,WIND,Study1,S,55,56,VC,User,-,"How many vowels are the two words combined?|Type your response below and then press Enter.",Study/JOL,"Study Phase2",2943,,,2576,2576,,,,2,1
5dfc05fa36711f000b2b603e,scxmfl3ig4,"Deep vs Shallow",1,207,2020-07-08T14:43:24-07:00,3.4094429016113,6,versionA_stim.csv,VC_VersionB.csv,"Version B","VC Version B",GRILL,BAR,Study1,S,52,32,VC,User,-,"How many vowels are the two words combined?|Type your response below and then press Enter.",Study/JOL,"Study Phase2",2588,,,1612,1612,,,,2,1
5dfc05fa36711f000b2b603e,scxmfl3ig4,"Deep vs Shallow",1,208,2020-07-08T14:43:34-07:00,10.369948148727,6,versionA_stim.csv,VC_VersionB.csv,"Version B","VC Version B",STRONG,ACCIDENT,Study1,U,80,83,VC,User,-,"How many vowels are the two words combined?|Type your response below and then press Enter.",Study/JOL,"Study Phase2",8476,,,7907,7907,,,,4,1
5dfc05fa36711f000b2b603e,scxmfl3ig4,"Deep vs Shallow",1,209,2020-07-08T14:43:41-07:00,6.9604599475861,6,versionA_stim.csv,VC_VersionB.csv,"Version B","VC Version B",GEOLOGY,ROCK,Study1,F,19,7,VC,User,-,"How many vowels are the two words combined?|Type your response below and then press Enter.",Study/JOL,"Study Phase2",6144,,,5130,5130,,,,3,1
5dfc05fa36711f000b2b603e,scxmfl3ig4,"Deep vs Shallow",1,210,2020-07-08T14:43:46-07:00,4.4363150596619,6,versionA_stim.csv,VC_VersionB.csv,"Version B","VC Version B",TRIAL,JURY,Study1,S,50,25,VC,User,-,"How many vowels are the two words combined?|Type your response below and then press Enter.",Study/JOL,"Study Phase2",3500,,,2957,2957,,,,3,1
5dfc05fa36711f000b2b603e,scxmfl3ig4,"Deep vs Shallow",1,211,2020-07-08T14:43:50-07:00,4.0512528419495,6,versionA_stim.csv,VC_VersionB.csv,"Version B","VC Version B",KING,VASE,Study1,U,85,50,VC,User,-,"How many vowels are the two words combined?|Type your response below and then press Enter.",Study/JOL,"Study Phase2",3244,,,2481,2482,,,,2,1
5dfc05fa36711f000b2b603e,scxmfl3ig4,"Deep vs Shallow",1,212,2020-07-08T14:43:53-07:00,3.4573581218719,6,versionA_stim.csv,VC_VersionB.csv,"Version B","VC Version B",DUMP,WASTE,Study1,S,49,41,VC,User,-,"How many vowels are the two words combined?|Type your response below and then press Enter.",Study/JOL,"Study Phase2",2642,,,2017,2017,,,,2,1
5dfc05fa36711f000b2b603e,scxmfl3ig4,"Deep vs Shallow",1,213,2020-07-08T14:43:57-07:00,3.9223229885101,6,versionA_stim.csv,VC_VersionB.csv,"Version B","VC Version B",WINE,CHEESE,Study1,S,57,40,VC,User,-,"How many vowels are the two words combined?|Type your response below and then press Enter.",Study/JOL,"Study Phase2",3120,,,2623,2624,,,,2,1
5dfc05fa36711f000b2b603e,scxmfl3ig4,"Deep vs Shallow",1,214,2020-07-08T14:44:01-07:00,3.7245709896088,6,versionA_stim.csv,VC_VersionB.csv,"Version B","VC Version B",ALLOW,TUCK,Study1,U,78,54,VC,User,-,"How many vowels are the two words combined?|Type your response below and then press Enter.",Study/JOL,"Study Phase2",2919,,,2444,2444,,,,3,1
5dfc05fa36711f000b2b603e,scxmfl3ig4,"Deep vs Shallow",1,215,2020-07-08T14:44:05-07:00,3.8979959487915,6,versionA_stim.csv,VC_VersionB.csv,"Version B","VC Version B",KIDNEY,LIVER,Study1,S,53,18,VC,User,-,"How many vowels are the two words combined?|Type your response below and then press Enter.",Study/JOL,"Study Phase2",3096,,,2554,2555,,,,4,1
5dfc05fa36711f000b2b603e,scxmfl3ig4,"Deep vs Shallow",1,216,2020-07-08T14:44:08-07:00,3.8085520267487,6,versionA_stim.csv,VC_VersionB.csv,"Version B","VC Version B",ART,LION,Study1,U,79,30,VC,User,-,"How many vowels are the two words combined?|Type your response below and then press Enter.",Study/JOL,"Study Phase2",3005,,,2463,2463,,,,3,1
5dfc05fa36711f000b2b603e,scxmfl3ig4,"Deep vs Shallow",1,217,2020-07-08T14:44:12-07:00,3.9036900997162,6,versionA_stim.csv,VC_VersionB.csv,"Version B","VC Version B",DISCUSSION,TALK,Study1,F,21,34,VC,User,-,"How many vowels are the two words combined?|Type your response below and then press Enter.",Study/JOL,"Study Phase2",3070,,,2714,2714,,,,4,1
5dfc05fa36711f000b2b603e,scxmfl3ig4,"Deep vs Shallow",1,218,2020-07-08T14:44:17-07:00,4.8164060115814,6,versionA_stim.csv,VC_VersionB.csv,"Version B","VC Version B",ARTERY,BRONZE,Study1,U,74,21,VC,User,-,"How many vowels are the two words combined?|Type your response below and then press Enter.",Study/JOL,"Study Phase2",4216,,,3773,3773,,,,4,1
5dfc05fa36711f000b2b603e,scxmfl3ig4,"Deep vs Shallow",1,219,2020-07-08T14:44:21-07:00,3.6803579330444,6,versionA_stim.csv,VC_VersionB.csv,"Version B","VC Version B",LOCATION,SITE,Study1,S,48,77,VC,User,-,"How many vowels are the two words combined?|Type your response below and then press Enter.",Study/JOL,"Study Phase2",2865,,,2445,2445,,,,4,1
5dfc05fa36711f000b2b603e,scxmfl3ig4,"Deep vs Shallow",1,220,2020-07-08T14:44:24-07:00,3.515282869339,6,versionA_stim.csv,VC_VersionB.csv,"Version B","VC Version B",CASH,WOULD,Study1,U,83,71,VC,User,-,"How many vowels are the two words combined?|Type your response below and then press Enter.",Study/JOL,"Study Phase2",2697,,,1892,1892,,,,2,1
5dfc05fa36711f000b2b603e,scxmfl3ig4,"Deep vs Shallow",1,221,2020-07-08T14:44:30-07:00,6.1060700416565,6,versionA_stim.csv,VC_VersionB.csv,"Version B","VC Version B",CLOTHES,ATTIRE,Study1,B,43,74,VC,User,-,"How many vowels are the two words combined?|Type your response below and then press Enter.",Study/JOL,"Study Phase2",5290,,,4671,4671,,,,3,1
5dfc05fa36711f000b2b603e,scxmfl3ig4,"Deep vs Shallow",1,222,2020-07-08T14:44:34-07:00,4.0062220096588,6,versionA_stim.csv,VC_VersionB.csv,"Version B","VC Version B",HOT,CHILI,Study1,B,37,8,VC,User,-,"How many vowels are the two words combined?|Type your response below and then press Enter.",Study/JOL,"Study Phase2",3182,,,2775,2775,,,,3,1
5dfc05fa36711f000b2b603e,scxmfl3ig4,"Deep vs Shallow",1,223,2020-07-08T14:44:39-07:00,4.149934053421,6,versionA_stim.csv,VC_VersionB.csv,"Version B","VC Version B",REVOLUTION,WAR,Study1,F,20,44,VC,User,-,"How many vowels are the two words combined?|Type your response below and then press Enter.",Study/JOL,"Study Phase2",3339,,,2969,2969,,,,5,1
5dfc05fa36711f000b2b603e,scxmfl3ig4,"Deep vs Shallow",1,224,2020-07-08T14:44:43-07:00,4.1226689815521,6,versionA_stim.csv,VC_VersionB.csv,"Version B","VC Version B",HYGIENE,CLEAN,Study1,F,17,26,VC,User,-,"How many vowels are the two words combined?|Type your response below and then press Enter.",Study/JOL,"Study Phase2",3292,,,2787,2787,,,,3,1
5dfc05fa36711f000b2b603e,scxmfl3ig4,"Deep vs Shallow",1,225,2020-07-08T14:44:47-07:00,4.0719840526581,6,versionA_stim.csv,VC_VersionB.csv,"Version B","VC Version B",CHISEL,HAMMER,Study1,F,9,46,VC,User,-,"How many vowels are the two words combined?|Type your response below and then press Enter.",Study/JOL,"Study Phase2",3262,,,3022,3022,,,,4,1
5dfc05fa36711f000b2b603e,scxmfl3ig4,"Deep vs Shallow",1,226,2020-07-08T14:44:50-07:00,3.298465013504,6,versionA_stim.csv,VC_VersionB.csv,"Version B","VC Version B",BABY,CHILD,Study1,S,64,17,VC,User,-,"How many vowels are the two words combined?|Type your response below and then press Enter.",Study/JOL,"Study Phase2",2494,,,2092,2092,,,,3,1
5dfc05fa36711f000b2b603e,scxmfl3ig4,"Deep vs Shallow",1,227,2020-07-08T14:44:54-07:00,3.8682548999786,6,versionA_stim.csv,VC_VersionB.csv,"Version B","VC Version B",PARK,HUNGRY,Study1,U,68,86,VC,User,-,"How many vowels are the two words combined?|Type your response below and then press Enter.",Study/JOL,"Study Phase2",3062,,,2610,2610,,,,3,1
5dfc05fa36711f000b2b603e,scxmfl3ig4,"Deep vs Shallow",1,228,2020-07-08T14:44:57-07:00,2.8569011688232,6,versionA_stim.csv,VC_VersionB.csv,"Version B","VC Version B",SHOE,FOOT,Study1,S,60,65,VC,User,-,"How many vowels are the two words combined?|Type your response below and then press Enter.",Study/JOL,"Study Phase2",2056,,,1758,1758,,,,2,1
5dfc05fa36711f000b2b603e,scxmfl3ig4,"Deep vs Shallow",1,229,2020-07-08T14:45:00-07:00,3.4740419387817,6,versionA_stim.csv,VC_VersionB.csv,"Version B","VC Version B",EDITOR,NEWS,Study1,F,10,68,VC,User,-,"How many vowels are the two words combined?|Type your response below and then press Enter.",Study/JOL,"Study Phase2",2656,,,2286,2286,,,,4,1
5dfc05fa36711f000b2b603e,scxmfl3ig4,"Deep vs Shallow",1,230,2020-07-08T14:45:04-07:00,4.0848560333252,6,versionA_stim.csv,VC_VersionB.csv,"Version B","VC Version B",MACHINE,POSITION,Study1,U,76,16,VC,User,-,"How many vowels are the two words combined?|Type your response below and then press Enter.",Study/JOL,"Study Phase2",3268,,,2803,2803,,,,5,1
5dfc05fa36711f000b2b603e,scxmfl3ig4,"Deep vs Shallow",1,231,2020-07-08T14:45:07-07:00,2.8791220188141,6,versionA_stim.csv,VC_VersionB.csv,"Version B","VC Version B",DRINK,SIP,Study1,B,27,42,VC,User,-,"How many vowels are the two words combined?|Type your response below and then press Enter.",Study/JOL,"Study Phase2",2060,,,1523,1523,,,,2,1
5dfc05fa36711f000b2b603e,scxmfl3ig4,"Deep vs Shallow",1,232,2020-07-08T14:45:10-07:00,3.0593509674072,6,versionA_stim.csv,VC_VersionB.csv,"Version B","VC Version B",ROOT,PLANT,Study1,F,13,62,VC,User,-,"How many vowels are the two words combined?|Type your response below and then press Enter.",Study/JOL,"Study Phase2",2251,,,2012,2012,,,,2,1
5dfc05fa36711f000b2b603e,scxmfl3ig4,"Deep vs Shallow",1,233,2020-07-08T14:45:14-07:00,3.5477678775787,6,versionA_stim.csv,VC_VersionB.csv,"Version B","VC Version B",BATHROOM,TOILET,Study1,S,58,76,VC,User,-,"How many vowels are the two words combined?|Type your response below and then press Enter.",Study/JOL,"Study Phase2",2747,,,2509,2509,,,,4,1
5dfc05fa36711f000b2b603e,scxmfl3ig4,"Deep vs Shallow",1,234,2020-07-08T14:45:17-07:00,3.4311611652374,6,versionA_stim.csv,VC_VersionB.csv,"Version B","VC Version B",LIFT,WOMAN,Study1,U,69,15,VC,User,-,"How many vowels are the two words combined?|Type your response below and then press Enter.",Study/JOL,"Study Phase2",2621,,,2345,2345,,,,3,1
5dfc05fa36711f000b2b603e,scxmfl3ig4,"Deep vs Shallow",1,235,2020-07-08T14:45:21-07:00,3.6817629337311,6,versionA_stim.csv,VC_VersionB.csv,"Version B","VC Version B",TUNA,FISH,Study1,F,25,67,VC,User,-,"How many vowels are the two words combined?|Type your response below and then press Enter.",Study/JOL,"Study Phase2",2871,,,2167,2167,,,,3,1
5dfc05fa36711f000b2b603e,scxmfl3ig4,"Deep vs Shallow",1,236,2020-07-08T14:45:24-07:00,2.8906400203705,6,versionA_stim.csv,VC_VersionB.csv,"Version B","VC Version B",DARK,CAVE,Study1,B,28,38,VC,User,-,"How many vowels are the two words combined?|Type your response below and then press Enter.",Study/JOL,"Study Phase2",2071,,,1586,1586,,,,2,1
5dfc05fa36711f000b2b603e,scxmfl3ig4,"Deep vs Shallow",1,237,2020-07-08T14:45:28-07:00,4.1450500488281,6,versionA_stim.csv,VC_VersionB.csv,"Version B","VC Version B",HEIGHT,GROWTH,Study1,B,30,75,VC,User,-,"How many vowels are the two words combined?|Type your response below and then press Enter.",Study/JOL,"Study Phase2",3270,,,2795,2795,,,,2,1
5dfc05fa36711f000b2b603e,scxmfl3ig4,"Deep vs Shallow",1,238,2020-07-08T14:45:32-07:00,3.4944689273834,6,versionA_stim.csv,VC_VersionB.csv,"Version B","VC Version B",CREDIT,CARD,Study1,F,23,59,VC,User,-,"How many vowels are the two words combined?|Type your response below and then press Enter.",Study/JOL,"Study Phase2",2631,,,1748,1748,,,,3,1
5dfc05fa36711f000b2b603e,scxmfl3ig4,"Deep vs Shallow",1,239,2020-07-08T14:45:35-07:00,3.5241420269012,6,versionA_stim.csv,VC_VersionB.csv,"Version B","VC Version B",BITTER,COLD,Study1,F,12,64,VC,User,-,"How many vowels are the two words combined?|Type your response below and then press Enter.",Study/JOL,"Study Phase2",2720,,,2165,2165,,,,3,1
5dfc05fa36711f000b2b603e,scxmfl3ig4,"Deep vs Shallow",1,240,2020-07-08T14:45:39-07:00,3.5336079597473,6,versionA_stim.csv,VC_VersionB.csv,"Version B","VC Version B",WORK,CHORE,Study1,B,39,14,VC,User,-,"How many vowels are the two words combined?|Type your response below and then press Enter.",Study/JOL,"Study Phase2",2696,,,1886,1886,,,,2,1
5dfc05fa36711f000b2b603e,scxmfl3ig4,"Deep vs Shallow",1,241,2020-07-08T14:45:44-07:00,5.5618329048157,6,versionA_stim.csv,VC_VersionB.csv,"Version B","VC Version B",DIETARY,SACKING,Study1,U,67,82,VC,User,-,"How many vowels are the two words combined?|Type your response below and then press Enter.",Study/JOL,"Study Phase2",4736,,,4131,4131,,,,6,1
5dfc05fa36711f000b2b603e,scxmfl3ig4,"Deep vs Shallow",1,242,2020-07-08T14:45:48-07:00,3.8469431400299,6,versionA_stim.csv,VC_VersionB.csv,"Version B","VC Version B",POP,SODA,Study1,S,56,27,VC,User,-,"How many vowels are the two words combined?|Type your response below and then press Enter.",Study/JOL,"Study Phase2",3029,,,2778,2778,,,,3,1
5dfc05fa36711f000b2b603e,scxmfl3ig4,"Deep vs Shallow",1,243,2020-07-08T14:45:53-07:00,4.9171049594879,6,versionA_stim.csv,VC_VersionB.csv,"Version B","VC Version B",NUMBER,AMOUNT,Study1,S,47,36,VC,User,-,"How many vowels are the two words combined?|Type your response below and then press Enter.",Study/JOL,"Study Phase2",4101,,,3414,3414,,,,4,1
5dfc05fa36711f000b2b603e,scxmfl3ig4,"Deep vs Shallow",1,244,2020-07-08T14:45:57-07:00,3.8233158588409,6,versionA_stim.csv,VC_VersionB.csv,"Version B","VC Version B",ORCHID,FLOWER,Study1,F,24,58,VC,User,-,"How many vowels are the two words combined?|Type your response below and then press Enter.",Study/JOL,"Study Phase2",3013,,,2698,2698,,,,4,1
5dfc05fa36711f000b2b603e,scxmfl3ig4,"Deep vs Shallow",1,245,2020-07-08T14:46:00-07:00,3.4593300819397,6,versionA_stim.csv,VC_VersionB.csv,"Version B","VC Version B",HUNGER,FAMINE,Study1,B,40,70,VC,User,-,"How many vowels are the two words combined?|Type your response below and then press Enter.",Study/JOL,"Study Phase2",2637,,,2278,2278,,,,4,1
5dfc05fa36711f000b2b603e,scxmfl3ig4,"Deep vs Shallow",1,246,2020-07-08T14:46:14-07:00,13.827418088913,6,versionA_stim.csv,VC_VersionB.csv,"Version B","VC Version B",DUE,ASSIGNMENT,Study1,S,46,63,VC,User,-,"How many vowels are the two words combined?|Type your response below and then press Enter.",Study/JOL,"Study Phase2",13008,,,5412,11890,,,,4,1
5dfc05fa36711f000b2b603e,scxmfl3ig4,"Deep vs Shallow",1,247,2020-07-08T14:46:18-07:00,3.6079230308533,6,versionA_stim.csv,VC_VersionB.csv,"Version B","VC Version B",BRIDGE,WATER,Study1,F,18,22,VC,User,-,"How many vowels are the two words combined?|Type your response below and then press Enter.",Study/JOL,"Study Phase2",2781,,,2335,2335,,,,2,1
5dfc05fa36711f000b2b603e,scxmfl3ig4,"Deep vs Shallow",1,248,2020-07-08T14:46:23-07:00,5.0495698451996,6,versionA_stim.csv,VC_VersionB.csv,"Version B","VC Version B",LETTUCE,SALAD,Study1,S,59,69,VC,User,-,"How many vowels are the two words combined?|Type your response below and then press Enter.",Study/JOL,"Study Phase2",4217,,,3458,3459,,,,4,1
5dfc05fa36711f000b2b603e,scxmfl3ig4,"Deep vs Shallow",1,249,2020-07-08T14:46:26-07:00,3.0863161087036,6,versionA_stim.csv,VC_VersionB.csv,"Version B","VC Version B",PAW,DOG,Study1,F,15,29,VC,User,-,"How many vowels are the two words combined?|Type your response below and then press Enter.",Study/JOL,"Study Phase2",2277,,,1446,1446,,,,2,1
5dfc05fa36711f000b2b603e,scxmfl3ig4,"Deep vs Shallow",1,250,2020-07-08T14:46:31-07:00,5.5297169685364,6,versionA_stim.csv,VC_VersionB.csv,"Version B","VC Version B",PUSHER,CLUTTER,Study1,U,66,37,VC,User,-,"How many vowels are the two words combined?|Type your response below and then press Enter.",Study/JOL,"Study Phase2",4708,,,3264,3264,,,,4,1
5dfc05fa36711f000b2b603e,scxmfl3ig4,"Deep vs Shallow",1,251,2020-07-08T14:46:35-07:00,4.1187191009521,6,versionA_stim.csv,VC_VersionB.csv,"Version B","VC Version B",BUG,WASP,Study1,B,32,66,VC,User,-,"How many vowels are the two words combined?|Type your response below and then press Enter.",Study/JOL,"Study Phase2",2236,,,1305,1305,,,,2,1
5dfc05fa36711f000b2b603e,scxmfl3ig4,"Deep vs Shallow",1,252,2020-07-08T14:46:43-07:00,7.5179147720337,6,versionA_stim.csv,VC_VersionB.csv,"Version B","VC Version B",DIGESTION,STOMACH,Study1,F,7,47,VC,User,-,"How many vowels are the two words combined?|Type your response below and then press Enter.",Study/JOL,"Study Phase2",6644,,,6021,6021,,,,5,1
5dfc05fa36711f000b2b603e,scxmfl3ig4,"Deep vs Shallow",1,253,2020-07-08T14:46:46-07:00,3.099014043808,6,versionA_stim.csv,VC_VersionB.csv,"Version B","VC Version B",SWAN,BIRD,Study1,F,14,10,VC,User,-,"How many vowels are the two words combined?|Type your response below and then press Enter.",Study/JOL,"Study Phase2",2290,,,1454,1455,,,,2,1
5dfc05fa36711f000b2b603e,scxmfl3ig4,"Deep vs Shallow",1,254,2020-07-08T14:46:49-07:00,2.8231370449066,6,versionA_stim.csv,VC_VersionB.csv,"Version B","VC Version B",WAY,OUT,Study1,F,16,57,VC,User,-,"How many vowels are the two words combined?|Type your response below and then press Enter.",Study/JOL,"Study Phase2",2004,,,1392,1392,,,,2,1
5dfc05fa36711f000b2b603e,scxmfl3ig4,"Deep vs Shallow",1,255,2020-07-08T14:46:53-07:00,4.4546489715576,6,versionA_stim.csv,VC_VersionB.csv,"Version B","VC Version B",DEATH,BUSINESS,Study1,U,72,13,VC,User,-,"How many vowels are the two words combined?|Type your response below and then press Enter.",Study/JOL,"Study Phase2",3651,,,3045,3045,,,,3,1
5dfc05fa36711f000b2b603e,scxmfl3ig4,"Deep vs Shallow",1,256,2020-07-08T14:46:56-07:00,3.1504900455475,6,versionA_stim.csv,VC_VersionB.csv,"Version B","VC Version B",FIX,HAND,Study1,U,75,81,VC,User,-,"How many vowels are the two words combined?|Type your response below and then press Enter.",Study/JOL,"Study Phase2",2338,,,1464,1464,,,,2,1
5dfc05fa36711f000b2b603e,scxmfl3ig4,"Deep vs Shallow",1,257,2020-07-08T14:46:59-07:00,3.0181450843811,6,versionA_stim.csv,VC_VersionB.csv,"Version B","VC Version B",KEY,LATCH,Study1,B,36,72,VC,User,-,"How many vowels are the two words combined?|Type your response below and then press Enter.",Study/JOL,"Study Phase2",2201,,,1149,1149,,,,2,1
5dfc05fa36711f000b2b603e,scxmfl3ig4,"Deep vs Shallow",1,258,2020-07-08T14:47:05-07:00,5.5117328166962,6,versionA_stim.csv,VC_VersionB.csv,"Version B","VC Version B",PAST,FUTURE,Study1,S,61,20,VC,User,-,"How many vowels are the two words combined?|Type your response below and then press Enter.",Study/JOL,"Study Phase2",4690,,,2259,3209,,,,3,1
5dfc05fa36711f000b2b603e,scxmfl3ig4,"Deep vs Shallow",1,259,2020-07-08T14:47:09-07:00,3.550644159317,6,versionA_stim.csv,VC_VersionB.csv,"Version B","VC Version B",SENTENCE,WORD,Study1,B,31,78,VC,User,-,"How many vowels are the two words combined?|Type your response below and then press Enter.",Study/JOL,"Study Phase2",2729,,,2263,2263,,,,3,1
5dfc05fa36711f000b2b603e,scxmfl3ig4,"Deep vs Shallow",1,260,2020-07-08T14:47:13-07:00,4.3390629291534,6,versionA_stim.csv,VC_VersionB.csv,"Version B","VC Version B",DISCOVER,FLOOR,Study1,U,71,24,VC,User,-,"How many vowels are the two words combined?|Type your response below and then press Enter.",Study/JOL,"Study Phase2",3513,,,2897,2897,,,,4,1
5dfc05fa36711f000b2b603e,scxmfl3ig4,"Deep vs Shallow",1,261,2020-07-08T14:47:17-07:00,4.2209329605103,6,versionA_stim.csv,VC_VersionB.csv,"Version B","VC Version B",BEGIN,END,Study1,S,54,12,VC,User,-,"How many vowels are the two words combined?|Type your response below and then press Enter.",Study/JOL,"Study Phase2",3412,,,3022,3022,,,,3,1
5dfc05fa36711f000b2b603e,scxmfl3ig4,"Deep vs Shallow",1,262,2020-07-08T14:47:21-07:00,4.3869481086731,6,versionA_stim.csv,VC_VersionB.csv,"Version B","VC Version B",SUGAR,RIDDLE,Study1,U,81,52,VC,User,-,"How many vowels are the two words combined?|Type your response below and then press Enter.",Study/JOL,"Study Phase2",3572,,,2686,2686,,,,4,1
5dfc05fa36711f000b2b603e,scxmfl3ig4,"Deep vs Shallow",1,263,2020-07-08T14:47:26-07:00,4.1491088867188,6,versionA_stim.csv,VC_VersionB.csv,"Version B","VC Version B",BALL,RACKET,Study1,B,38,61,VC,User,-,"How many vowels are the two words combined?|Type your response below and then press Enter.",Study/JOL,"Study Phase2",3328,,,2784,2784,,,,3,1
5dfc05fa36711f000b2b603e,scxmfl3ig4,"Deep vs Shallow",1,264,2020-07-08T14:47:30-07:00,4.0217661857605,6,versionA_stim.csv,VC_VersionB.csv,"Version B","VC Version B",HIDE,SICK,Study1,U,84,48,VC,User,-,"How many vowels are the two words combined?|Type your response below and then press Enter.",Study/JOL,"Study Phase2",3189,,,2573,2573,,,,2,1
5dfc05fa36711f000b2b603e,scxmfl3ig4,"Deep vs Shallow",1,265,2020-07-08T14:47:34-07:00,4.5676529407501,6,versionA_stim.csv,VC_VersionB.csv,"Version B","VC Version B",VALLEY,ADD,Study1,U,82,23,VC,User,-,"How many vowels are the two words combined?|Type your response below and then press Enter.",Study/JOL,"Study Phase2",3720,,,3132,3132,,,,3,1
5dfc05fa36711f000b2b603e,scxmfl3ig4,"Deep vs Shallow",1,266,2020-07-08T14:47:41-07:00,7.0596439838409,6,versionA_stim.csv,VC_VersionB.csv,"Version B","VC Version B",MALT,CHOCOLATE,BUFFER2,Buffer,88,87,VC,User,-,"How many vowels are the two words combined?|Type your response below and then press Enter.",Study/JOL,BUFFER4,5196,,,4431,4431,,,,4,1
5dfc05fa36711f000b2b603e,scxmfl3ig4,"Deep vs Shallow",1,267,2020-07-08T14:47:45-07:00,3.3340458869934,6,versionA_stim.csv,VC_VersionB.csv,"Version B","VC Version B",THING,STUFF,BUFFER2,Buffer,90,88,VC,User,-,"How many vowels are the two words combined?|Type your response below and then press Enter.",Study/JOL,BUFFER4,2519,,,2041,2041,,,,2,1
5dfc05fa36711f000b2b603e,scxmfl3ig4,"Deep vs Shallow",1,268,2020-07-08T14:47:48-07:00,3.67484998703,6,versionA_stim.csv,VC_VersionB.csv,"Version B","VC Version B",SHERRIF,POLICE,BUFFER2,Buffer,87,91,VC,User,-,"How many vowels are the two words combined?|Type your response below and then press Enter.",Study/JOL,BUFFER4,2815,,,2347,2347,,,,4,1
5dfc05fa36711f000b2b603e,scxmfl3ig4,"Deep vs Shallow",1,269,2020-07-08T14:47:52-07:00,3.7220020294189,6,versionA_stim.csv,VC_VersionB.csv,"Version B","VC Version B",GEESE,GOOSE,BUFFER2,Buffer,86,90,VC,User,-,"How many vowels are the two words combined?|Type your response below and then press Enter.",Study/JOL,BUFFER4,3131,,,2539,2539,,,,2,1
5dfc05fa36711f000b2b603e,scxmfl3ig4,"Deep vs Shallow",1,270,2020-07-08T14:47:56-07:00,4.2895331382751,6,versionA_stim.csv,VC_VersionB.csv,"Version B","VC Version B",MOON,SPACE,BUFFER2,Buffer,89,89,VC,User,-,"How many vowels are the two words combined?|Type your response below and then press Enter.",Study/JOL,BUFFER4,3466,,,3195,3195,,,,2,1
5dfc05fa36711f000b2b603e,scxmfl3ig4,"Deep vs Shallow",1,271,2020-07-08T14:48:00-07:00,3.2455749511719,6,versionA_stim.csv,VC_VersionB.csv,"Version B","VC Version B",,,,,,0,Instruct,User,-,"You have completed this section. Please press Enter.",Filler_Instruction,Instruct5,2419,,,-1,-1,,,,,1
5dfc05fa36711f000b2b603e,scxmfl3ig4,"Deep vs Shallow",1,272,2020-07-08T14:50:00-07:00,120.83473587036,6,versionA_stim.csv,VC_VersionB.csv,"Version B","VC Version B",,,,,,0,FreeRecall,120,120,"Please list the 50 US states in reverse alphabetical order (z - a). The task will automatically advance to the next screen after two minutes.",,Filler2,120001,"Alabama Alaska Arizona Arkansas California Colorado Connecticut Delaware Florida Georgia Hawaii Idaho Illinois Indiana Iowa Kansas Kentucky Louisiana Maine Maryland Massachusetts Michigan Minnesota Mississippi Missouri Montana Nebraska Nevada New Hampshire New Jersey New Mexico New York North Carolina North Dakota Ohio Oklahoma Oregon Pennsylvania Rhode Island South Carolina South Dakota Tennessee Texas Utah Vermont Virginia Washington West Virginia Wisconsin Wyoming",0,-1,-1,0,0,,,0.097
5dfc05fa36711f000b2b603e,scxmfl3ig4,"Deep vs Shallow",1,273,2020-07-08T14:50:34-07:00,33.398482084274,6,versionA_stim.csv,VC_VersionB.csv,"Version B","VC Version B",,,,,,0,Instruct,-,10,"You will now be presented with the first word from each of the previously studied item pairs. Please type the missing word. If you do not know the word, you may guess or press Enter to skip forward to the next pair.",,Instruct6,32567,,,-1,-1,,,,,0.319
5dfc05fa36711f000b2b603e,scxmfl3ig4,"Deep vs Shallow",1,274,2020-07-08T14:50:39-07:00,5.2552099227905,6,versionA_stim.csv,VC_VersionB.csv,"Version B","VC Version B",PAW,DOG,Study1,F,15,29,Test,User,-,,Recall,Recall2,4421,dog,100,3267,3802,1,1,,,1
5dfc05fa36711f000b2b603e,scxmfl3ig4,"Deep vs Shallow",1,275,2020-07-08T14:50:45-07:00,5.8346381187439,6,versionA_stim.csv,VC_VersionB.csv,"Version B","VC Version B",DARK,CAVE,Study1,B,28,38,Test,User,-,,Recall,Recall2,5021,scary,44.444444444444,2502,4634,0,0,,,1
5dfc05fa36711f000b2b603e,scxmfl3ig4,"Deep vs Shallow",1,276,2020-07-08T14:50:49-07:00,4.557443857193,6,versionA_stim.csv,VC_VersionB.csv,"Version B","VC Version B",DEATH,BUSINESS,Study1,U,72,13,Test,User,-,,Recall,Recall2,2729,,0,-1,-1,0,0,,,1
5dfc05fa36711f000b2b603e,scxmfl3ig4,"Deep vs Shallow",1,277,2020-07-08T14:50:54-07:00,4.8943002223969,6,versionA_stim.csv,VC_VersionB.csv,"Version B","VC Version B",SLEEP,DROWSY,Study1,B,41,53,Test,User,-,,Recall,Recall2,4080,drowsy,100,1683,3670,1,1,,,1
5dfc05fa36711f000b2b603e,scxmfl3ig4,"Deep vs Shallow",1,278,2020-07-08T14:50:57-07:00,2.2370100021362,6,versionA_stim.csv,VC_VersionB.csv,"Version B","VC Version B",WORK,CHORE,Study1,B,39,14,Test,User,-,,Recall,Recall2,1644,,0,-1,-1,0,0,,,1
5dfc05fa36711f000b2b603e,scxmfl3ig4,"Deep vs Shallow",1,279,2020-07-08T14:51:01-07:00,3.9867389202118,6,versionA_stim.csv,VC_VersionB.csv,"Version B","VC Version B",SOON,BELT,Study1,U,70,73,Test,User,-,,Recall,Recall2,3161,,0,-1,-1,0,0,,,1
5dfc05fa36711f000b2b603e,scxmfl3ig4,"Deep vs Shallow",1,280,2020-07-08T14:51:04-07:00,3.8549230098724,6,versionA_stim.csv,VC_VersionB.csv,"Version B","VC Version B",WAY,OUT,Study1,F,16,57,Test,User,-,,Recall,Recall2,3020,out,100,1299,2033,1,1,,,1
5dfc05fa36711f000b2b603e,scxmfl3ig4,"Deep vs Shallow",1,281,2020-07-08T14:51:17-07:00,12.706176042557,6,versionA_stim.csv,VC_VersionB.csv,"Version B","VC Version B",LIFT,WOMAN,Study1,U,69,15,Test,User,-,,Recall,Recall2,11678,,0,-1,-1,0,0,,,0.339
5dfc05fa36711f000b2b603e,scxmfl3ig4,"Deep vs Shallow",1,282,2020-07-08T14:51:22-07:00,5.0830938816071,6,versionA_stim.csv,VC_VersionB.csv,"Version B","VC Version B",ALLOW,TUCK,Study1,U,78,54,Test,User,-,,Recall,Recall2,4250,tuck,100,2414,2978,1,1,,,0.682
5dfc05fa36711f000b2b603e,scxmfl3ig4,"Deep vs Shallow",1,283,2020-07-08T14:51:30-07:00,8.2955050468445,6,versionA_stim.csv,VC_VersionB.csv,"Version B","VC Version B",TAKE,SEIZE,Study1,B,29,43,Test,User,-,,Recall,Recall2,7487,away,0,5194,5812,0,0,,,0.5
5dfc05fa36711f000b2b603e,scxmfl3ig4,"Deep vs Shallow",1,284,2020-07-08T14:51:55-07:00,24.828876018524,6,versionA_stim.csv,VC_VersionB.csv,"Version B","VC Version B",REVOLUTION,WAR,Study1,F,20,44,Test,User,-,,Recall,Recall2,24007,war,100,22908,23204,1,1,,,0.133
5dfc05fa36711f000b2b603e,scxmfl3ig4,"Deep vs Shallow",1,285,2020-07-08T14:52:00-07:00,4.4215819835663,6,versionA_stim.csv,VC_VersionB.csv,"Version B","VC Version B",STRONG,ACCIDENT,Study1,U,80,83,Test,User,-,,Recall,Recall2,3602,,0,-1,-1,0,0,,,0.056
5dfc05fa36711f000b2b603e,scxmfl3ig4,"Deep vs Shallow",1,286,2020-07-08T14:52:04-07:00,4.0549440383911,6,versionA_stim.csv,VC_VersionB.csv,"Version B","VC Version B",PLANE,PILOT,Study1,B,44,51,Test,User,-,,Recall,Recall2,3211,,0,-1,-1,0,0,,,0.059
5dfc05fa36711f000b2b603e,scxmfl3ig4,"Deep vs Shallow",1,287,2020-07-08T14:52:11-07:00,7.488893032074,6,versionA_stim.csv,VC_VersionB.csv,"Version B","VC Version B",HAPPY,CAR,Study1,U,77,45,Test,User,-,,Recall,Recall2,6663,,0,-1,-1,0,0,,,0.029
5dfc05fa36711f000b2b603e,scxmfl3ig4,"Deep vs Shallow",1,288,2020-07-08T14:52:19-07:00,7.616082906723,6,versionA_stim.csv,VC_VersionB.csv,"Version B","VC Version B",HORNET,STING,Study1,F,11,19,Test,User,-,,Recall,Recall2,6804,bee,0,1660,3579,0,0,,,1
5dfc05fa36711f000b2b603e,scxmfl3ig4,"Deep vs Shallow",1,289,2020-07-08T14:52:24-07:00,5.3771910667419,6,versionA_stim.csv,VC_VersionB.csv,"Version B","VC Version B",HOT,CHILI,Study1,B,37,8,Test,User,-,,Recall,Recall2,4539,chilli,90.909090909091,1996,3351,0,1,,,1
5dfc05fa36711f000b2b603e,scxmfl3ig4,"Deep vs Shallow",1,290,2020-07-08T14:52:31-07:00,6.3576109409332,6,versionA_stim.csv,VC_VersionB.csv,"Version B","VC Version B",PARK,HUNGRY,Study1,U,68,86,Test,User,-,,Recall,Recall2,5534,ranger,50,3536,4438,0,0,,,1
5dfc05fa36711f000b2b603e,scxmfl3ig4,"Deep vs Shallow",1,291,2020-07-08T14:52:32-07:00,1.8211588859558,6,versionA_stim.csv,VC_VersionB.csv,"Version B","VC Version B",BUG,WASP,Study1,B,32,66,Test,User,-,,Recall,Recall2,1211,,0,-1,-1,0,0,,,1
5dfc05fa36711f000b2b603e,scxmfl3ig4,"Deep vs Shallow",1,292,2020-07-08T14:52:34-07:00,1.4535040855408,6,versionA_stim.csv,VC_VersionB.csv,"Version B","VC Version B",HEIGHT,GROWTH,Study1,B,30,75,Test,User,-,,Recall,Recall2,866,,0,-1,-1,0,0,,,1
5dfc05fa36711f000b2b603e,scxmfl3ig4,"Deep vs Shallow",1,293,2020-07-08T14:52:35-07:00,1.5049130916595,6,versionA_stim.csv,VC_VersionB.csv,"Version B","VC Version B",GREAT,FANTASTIC,Study1,B,35,60,Test,User,-,,Recall,Recall2,898,,0,-1,-1,0,0,,,1
5dfc05fa36711f000b2b603e,scxmfl3ig4,"Deep vs Shallow",1,294,2020-07-08T14:52:38-07:00,2.2478699684143,6,versionA_stim.csv,VC_VersionB.csv,"Version B","VC Version B",ARTERY,BRONZE,Study1,U,74,21,Test,User,-,,Recall,Recall2,1596,,0,-1,-1,0,0,,,1
5dfc05fa36711f000b2b603e,scxmfl3ig4,"Deep vs Shallow",1,295,2020-07-08T14:52:43-07:00,5.7125859260559,6,versionA_stim.csv,VC_VersionB.csv,"Version B","VC Version B",WINE,CHEESE,Study1,S,57,40,Test,User,-,,Recall,Recall2,4891,cheese,100,2306,3472,1,1,,,1
5dfc05fa36711f000b2b603e,scxmfl3ig4,"Deep vs Shallow",1,296,2020-07-08T14:52:46-07:00,2.7630970478058,6,versionA_stim.csv,VC_VersionB.csv,"Version B","VC Version B",MATH,DIVISION,Study1,B,33,33,Test,User,-,,Recall,Recall2,1826,,0,-1,-1,0,0,,,1
5dfc05fa36711f000b2b603e,scxmfl3ig4,"Deep vs Shallow",1,297,2020-07-08T14:52:52-07:00,5.9663479328156,6,versionA_stim.csv,VC_VersionB.csv,"Version B","VC Version B",SUGAR,RIDDLE,Study1,U,81,52,Test,User,-,,Recall,Recall2,5155,,0,-1,-1,0,0,,,0.115
5dfc05fa36711f000b2b603e,scxmfl3ig4,"Deep vs Shallow",1,298,2020-07-08T14:53:01-07:00,9.4042301177979,6,versionA_stim.csv,VC_VersionB.csv,"Version B","VC Version B",NUMBER,AMOUNT,Study1,S,47,36,Test,User,-,,Recall,Recall2,8577,,0,-1,-1,0,0,,,0.023
5dfc05fa36711f000b2b603e,scxmfl3ig4,"Deep vs Shallow",1,299,2020-07-08T14:53:09-07:00,7.2535338401794,6,versionA_stim.csv,VC_VersionB.csv,"Version B","VC Version B",BALL,RACKET,Study1,B,38,61,Test,User,-,,Recall,Recall2,6428,,0,-1,-1,0,0,,,0.121
5dfc05fa36711f000b2b603e,scxmfl3ig4,"Deep vs Shallow",1,300,2020-07-08T14:53:14-07:00,5.1227560043335,6,versionA_stim.csv,VC_VersionB.csv,"Version B","VC Version B",DRINK,SIP,Study1,B,27,42,Test,User,-,,Recall,Recall2,4299,water,0,3126,3919,0,0,,,1
5dfc05fa36711f000b2b603e,scxmfl3ig4,"Deep vs Shallow",1,301,2020-07-08T14:53:20-07:00,5.7464940547943,6,versionA_stim.csv,VC_VersionB.csv,"Version B","VC Version B",HYGIENE,CLEAN,Study1,F,17,26,Test,User,-,,Recall,Recall2,4646,clean,100,2752,3463,1,1,,,1
5dfc05fa36711f000b2b603e,scxmfl3ig4,"Deep vs Shallow",1,302,2020-07-08T14:53:23-07:00,3.2471361160278,6,versionA_stim.csv,VC_VersionB.csv,"Version B","VC Version B",VALLEY,ADD,Study1,U,82,23,Test,User,-,,Recall,Recall2,2376,,0,-1,-1,0,0,,,1
5dfc05fa36711f000b2b603e,scxmfl3ig4,"Deep vs Shallow",1,303,2020-07-08T14:53:29-07:00,5.7036979198456,6,versionA_stim.csv,VC_VersionB.csv,"Version B","VC Version B",SWAN,BIRD,Study1,F,14,10,Test,User,-,,Recall,Recall2,4864,duck,25,2736,3283,0,0,,,1
5dfc05fa36711f000b2b603e,scxmfl3ig4,"Deep vs Shallow",1,304,2020-07-08T14:53:50-07:00,21.912996053696,6,versionA_stim.csv,VC_VersionB.csv,"Version B","VC Version B",PUSHER,CLUTTER,Study1,U,66,37,Test,User,-,,Recall,Recall2,21040,clutter,100,18395,20321,1,1,,,0.33
5dfc05fa36711f000b2b603e,scxmfl3ig4,"Deep vs Shallow",1,305,2020-07-08T14:53:56-07:00,5.2406439781189,6,versionA_stim.csv,VC_VersionB.csv,"Version B","VC Version B",TUNA,FISH,Study1,F,25,67,Test,User,-,,Recall,Recall2,4405,fish,100,2766,3321,1,1,,,0.696
5dfc05fa36711f000b2b603e,scxmfl3ig4,"Deep vs Shallow",1,306,2020-07-08T14:54:01-07:00,4.9076900482178,6,versionA_stim.csv,VC_VersionB.csv,"Version B","VC Version B",HONEY,BEE,Study1,S,63,55,Test,User,-,,Recall,Recall2,4085,bee,100,2659,3561,1,1,,,1
5dfc05fa36711f000b2b603e,scxmfl3ig4,"Deep vs Shallow",1,307,2020-07-08T14:54:02-07:00,1.5108180046082,6,versionA_stim.csv,VC_VersionB.csv,"Version B","VC Version B",EDITOR,NEWS,Study1,F,10,68,Test,User,-,,Recall,Recall2,909,,0,-1,-1,0,0,,,1
5dfc05fa36711f000b2b603e,scxmfl3ig4,"Deep vs Shallow",1,308,2020-07-08T14:54:08-07:00,6.3385949134827,6,versionA_stim.csv,VC_VersionB.csv,"Version B","VC Version B",GRILL,BAR,Study1,S,52,32,Test,User,-,,Recall,Recall2,5502,bar,100,3387,4432,1,1,,,1
5dfc05fa36711f000b2b603e,scxmfl3ig4,"Deep vs Shallow",1,309,2020-07-08T14:54:15-07:00,6.7606151103973,6,versionA_stim.csv,VC_VersionB.csv,"Version B","VC Version B",DIGESTION,STOMACH,Study1,F,7,47,Test,User,-,,Recall,Recall2,5935,stomach,100,2304,4831,1,1,,,1
5dfc05fa36711f000b2b603e,scxmfl3ig4,"Deep vs Shallow",1,310,2020-07-08T14:54:21-07:00,5.4149777889252,6,versionA_stim.csv,VC_VersionB.csv,"Version B","VC Version B",GEOLOGY,ROCK,Study1,F,19,7,Test,User,-,,Recall,Recall2,4604,rock,100,2318,2856,1,1,,,1
5dfc05fa36711f000b2b603e,scxmfl3ig4,"Deep vs Shallow",1,311,2020-07-08T14:54:24-07:00,2.8594341278076,6,versionA_stim.csv,VC_VersionB.csv,"Version B","VC Version B",SHOE,FOOT,Study1,S,60,65,Test,User,-,,Recall,Recall2,2040,,0,-1,-1,0,0,,,1
5dfc05fa36711f000b2b603e,scxmfl3ig4,"Deep vs Shallow",1,312,2020-07-08T14:54:40-07:00,16.847538948059,6,versionA_stim.csv,VC_VersionB.csv,"Version B","VC Version B",LAW,ATTORNEY,Study1,B,34,80,Test,User,-,,Recall,Recall2,16006,attorney,100,12581,14942,1,1,,,0.463
5dfc05fa36711f000b2b603e,scxmfl3ig4,"Deep vs Shallow",1,313,2020-07-08T14:54:47-07:00,6.7746450901031,6,versionA_stim.csv,VC_VersionB.csv,"Version B","VC Version B",DELINQUENT,BAD,Study1,F,6,28,Test,User,-,,Recall,Recall2,5940,,0,3448,3770,0,0,,,1
5dfc05fa36711f000b2b603e,scxmfl3ig4,"Deep vs Shallow",1,314,2020-07-08T14:54:58-07:00,10.995395898819,6,versionA_stim.csv,VC_VersionB.csv,"Version B","VC Version B",HIDE,SICK,Study1,U,84,48,Test,User,-,,Recall,Recall2,10180,scare,44.444444444444,7169,8697,0,0,,,1
5dfc05fa36711f000b2b603e,scxmfl3ig4,"Deep vs Shallow",1,315,2020-07-08T14:55:02-07:00,4.2462770938873,6,versionA_stim.csv,VC_VersionB.csv,"Version B","VC Version B",CASH,WOULD,Study1,U,83,71,Test,User,-,,Recall,Recall2,3422,money,20,1930,2460,0,0,,,1
5dfc05fa36711f000b2b603e,scxmfl3ig4,"Deep vs Shallow",1,316,2020-07-08T14:55:04-07:00,1.5139410495758,6,versionA_stim.csv,VC_VersionB.csv,"Version B","VC Version B",ORCHID,FLOWER,Study1,F,24,58,Test,User,-,,Recall,Recall2,881,,0,-1,-1,0,0,,,1
5dfc05fa36711f000b2b603e,scxmfl3ig4,"Deep vs Shallow",1,317,2020-07-08T14:55:07-07:00,3.0919740200043,6,versionA_stim.csv,VC_VersionB.csv,"Version B","VC Version B",DUMP,WASTE,Study1,S,49,41,Test,User,-,,Recall,Recall2,2184,,0,-1,-1,0,0,,,1
5dfc05fa36711f000b2b603e,scxmfl3ig4,"Deep vs Shallow",1,318,2020-07-08T14:55:09-07:00,1.5835828781128,6,versionA_stim.csv,VC_VersionB.csv,"Version B","VC Version B",KIDNEY,LIVER,Study1,S,53,18,Test,User,-,,Recall,Recall2,854,,0,-1,-1,0,0,,,1
5dfc05fa36711f000b2b603e,scxmfl3ig4,"Deep vs Shallow",1,319,2020-07-08T14:55:10-07:00,1.6166710853577,6,versionA_stim.csv,VC_VersionB.csv,"Version B","VC Version B",BABY,CHILD,Study1,S,64,17,Test,User,-,,Recall,Recall2,797,,0,-1,-1,0,0,,,1
5dfc05fa36711f000b2b603e,scxmfl3ig4,"Deep vs Shallow",1,320,2020-07-08T14:55:28-07:00,18.236634016037,6,versionA_stim.csv,VC_VersionB.csv,"Version B","VC Version B",MACHINE,POSITION,Study1,U,76,16,Test,User,-,,Recall,Recall2,17290,,0,-1,-1,0,0,,,0.126
5dfc05fa36711f000b2b603e,scxmfl3ig4,"Deep vs Shallow",1,321,2020-07-08T14:55:36-07:00,7.3353710174561,6,versionA_stim.csv,VC_VersionB.csv,"Version B","VC Version B",TRIAL,JURY,Study1,S,50,25,Test,User,-,,Recall,Recall2,6482,jury,100,3647,4822,1,1,,,0.788
5dfc05fa36711f000b2b603e,scxmfl3ig4,"Deep vs Shallow",1,322,2020-07-08T14:55:39-07:00,3.71302485466,6,versionA_stim.csv,VC_VersionB.csv,"Version B","VC Version B",KING,VASE,Study1,U,85,50,Test,User,-,,Recall,Recall2,2882,,0,-1,-1,0,0,,,0.333
