Username,ID,ExperimentName,Session,Trial,Date,TimeDif,"Condition Number","Stimuli File","Order File","Condition Description","Condition Notes",Stimuli*Cue,Stimuli*Answer,Stimuli*Shuffle,"Stimuli*Stimuli Notes",Stimuli*Value,Procedure*Item,"Procedure*Trial Type","Procedure*Max Time","Procedure*Min Time",Procedure*Text,"Procedure*Procedure Notes",Procedure*Shuffle,Response*RT,Response*Response,Response*Accuracy,Response*RTfirst,Response*RTlast,Response*strictAcc,Response*lenientAcc,Response*focus,Response*JOL,Response*Focus
5c09273b81c2ad00019d1dcc,wji7834siw,"Deep vs Shallow",1,1,2020-07-08T14:29:58-07:00,7.3141701221466,6,versionA_stim.csv,VC_VersionB.csv,"Version B","VC Version B",,,,,,0,Instruct,-,5,"In this section, you will be presented with a series of word pairs.",Initial_Instruct,Instruct1,6506,,,-1,-1,,,,,1
5c09273b81c2ad00019d1dcc,wji7834siw,"Deep vs Shallow",1,2,2020-07-08T14:30:20-07:00,22.061671972275,6,versionA_stim.csv,VC_VersionB.csv,"Version B","VC Version B",,,,,,0,Instruct,-,5,"As you study, you will be asked to count the total number of vowels (a, e, i, o, u) within the two words. Please note that y is not considered a vowel.",,Instruct13,21459,,,-1,-1,,,,,0.676
5c09273b81c2ad00019d1dcc,wji7834siw,"Deep vs Shallow",1,3,2020-07-08T14:30:32-07:00,12.193123102188,6,versionA_stim.csv,VC_VersionB.csv,"Version B","VC Version B",,,,,,0,Instruct,-,10,"For example, if you are given the pair CAT - DOG, CAT has one vowel and DOG has one vowel. The correct response would be 2 (1 + 1 = 2). After typing the number, you will press ENTER to move to the next pair.",,Instruct14,11383,,,-1,-1,,,,,1
5c09273b81c2ad00019d1dcc,wji7834siw,"Deep vs Shallow",1,4,2020-07-08T14:30:36-07:00,4.4282147884369,6,versionA_stim.csv,VC_VersionB.csv,"Version B","VC Version B",,,,,,0,Instruct,User,-,"You will now begin the study. Press Enter when you are ready to begin.",,Instruct16,3579,,,-1,-1,,,,,1
5c09273b81c2ad00019d1dcc,wji7834siw,"Deep vs Shallow",1,5,2020-07-08T14:31:05-07:00,28.336705207825,6,versionA_stim.csv,VC_VersionB.csv,"Version B","VC Version B",ICE,FROZEN,BUFFER3,Buffer,94,96,VC,User,-,"How many vowels are the two words combined?|Type your response below and then press Enter.",Study/JOL,BUFFER,27706,,,17493,17493,,,,4,1
5c09273b81c2ad00019d1dcc,wji7834siw,"Deep vs Shallow",1,6,2020-07-08T14:31:19-07:00,14.377112865448,6,versionA_stim.csv,VC_VersionB.csv,"Version B","VC Version B",SHRIMP,FISH,BUFFER3,Buffer,93,92,VC,User,-,"How many vowels are the two words combined?|Type your response below and then press Enter.",Study/JOL,BUFFER,13503,,,12908,12908,,,,2,1
5c09273b81c2ad00019d1dcc,wji7834siw,"Deep vs Shallow",1,7,2020-07-08T14:31:45-07:00,26.257560968399,6,versionA_stim.csv,VC_VersionB.csv,"Version B","VC Version B",NOODLE,STRING,BUFFER3,Buffer,92,95,VC,User,-,"How many vowels are the two words combined?|Type your response below and then press Enter.",Study/JOL,BUFFER,25446,,,15005,15005,,,,4,1
5c09273b81c2ad00019d1dcc,wji7834siw,"Deep vs Shallow",1,8,2020-07-08T14:32:00-07:00,14.924731016159,6,versionA_stim.csv,VC_VersionB.csv,"Version B","VC Version B",CARROT,POTATO,BUFFER3,Buffer,91,94,VC,User,-,"How many vowels are the two words combined?|Type your response below and then press Enter.",Study/JOL,BUFFER,14061,,,13558,13558,,,,5,1
5c09273b81c2ad00019d1dcc,wji7834siw,"Deep vs Shallow",1,9,2020-07-08T14:32:19-07:00,18.552471160889,6,versionA_stim.csv,VC_VersionB.csv,"Version B","VC Version B",CAMP,ADVENTURE,BUFFER3,Buffer,95,93,VC,User,-,"How many vowels are the two words combined?|Type your response below and then press Enter.",Study/JOL,BUFFER,17419,,,17078,17078,,,,5,1
5c09273b81c2ad00019d1dcc,wji7834siw,"Deep vs Shallow",1,10,2020-07-08T14:32:33-07:00,14.256390810013,6,versionA_stim.csv,VC_VersionB.csv,"Version B","VC Version B",CAT,PANTHER,Study2,B,126,134,VC,User,-,"How many vowels are the two words combined?|Type your response below and then press Enter.",Study/JOL,"Study Phase",13392,,,13047,13047,,,,3,1
5c09273b81c2ad00019d1dcc,wji7834siw,"Deep vs Shallow",1,11,2020-07-08T14:32:49-07:00,15.71903014183,6,versionA_stim.csv,VC_VersionB.csv,"Version B","VC Version B",BEST,FAVORITE,Study2,B,125,118,VC,User,-,"How many vowels are the two words combined?|Type your response below and then press Enter.",Study/JOL,"Study Phase",14892,,,14418,14418,,,,4,1
5c09273b81c2ad00019d1dcc,wji7834siw,"Deep vs Shallow",1,12,2020-07-08T14:33:03-07:00,14.619129896164,6,versionA_stim.csv,VC_VersionB.csv,"Version B","VC Version B",MIRROR,CHILDREN,Study2,U,174,163,VC,User,-,"How many vowels are the two words combined?|Type your response below and then press Enter.",Study/JOL,"Study Phase",13743,,,13314,13314,,,,4,1
5c09273b81c2ad00019d1dcc,wji7834siw,"Deep vs Shallow",1,13,2020-07-08T14:33:18-07:00,14.942107915878,6,versionA_stim.csv,VC_VersionB.csv,"Version B","VC Version B",CAR,WINDSHIELD,Study2,B,117,116,VC,User,-,"How many vowels are the two words combined?|Type your response below and then press Enter.",Study/JOL,"Study Phase",14088,,,12695,12696,,,,4,1
5c09273b81c2ad00019d1dcc,wji7834siw,"Deep vs Shallow",1,14,2020-07-08T14:33:31-07:00,13.190623044968,6,versionA_stim.csv,VC_VersionB.csv,"Version B","VC Version B",POP,BALLOON,Study2,B,123,176,VC,User,-,"How many vowels are the two words combined?|Type your response below and then press Enter.",Study/JOL,"Study Phase",12338,,,11812,11812,,,,4,1
5c09273b81c2ad00019d1dcc,wji7834siw,"Deep vs Shallow",1,15,2020-07-08T14:33:47-07:00,15.743908166885,6,versionA_stim.csv,VC_VersionB.csv,"Version B","VC Version B",DOCUMENT,PAPER,Study2,F,109,160,VC,User,-,"How many vowels are the two words combined?|Type your response below and then press Enter.",Study/JOL,"Study Phase",13919,,,13599,13599,,,,5,1
5c09273b81c2ad00019d1dcc,wji7834siw,"Deep vs Shallow",1,16,2020-07-08T14:33:56-07:00,9.126984834671,6,versionA_stim.csv,VC_VersionB.csv,"Version B","VC Version B",SLEEP,NAP,Study2,B,134,117,VC,User,-,"How many vowels are the two words combined?|Type your response below and then press Enter.",Study/JOL,"Study Phase",8286,,,8072,8072,,,,3,1
5c09273b81c2ad00019d1dcc,wji7834siw,"Deep vs Shallow",1,17,2020-07-08T14:34:06-07:00,9.3550181388855,6,versionA_stim.csv,VC_VersionB.csv,"Version B","VC Version B",FRUIT,STRAWBERRY,Study2,B,124,151,VC,User,-,"How many vowels are the two words combined?|Type your response below and then press Enter.",Study/JOL,"Study Phase",8733,,,8356,8356,,,,4,1
5c09273b81c2ad00019d1dcc,wji7834siw,"Deep vs Shallow",1,18,2020-07-08T14:34:15-07:00,9.2147679328918,6,versionA_stim.csv,VC_VersionB.csv,"Version B","VC Version B",MEAT,OBTAIN,Study2,U,161,142,VC,User,-,"How many vowels are the two words combined?|Type your response below and then press Enter.",Study/JOL,"Study Phase",8580,,,7648,7649,,,,5,1
5c09273b81c2ad00019d1dcc,wji7834siw,"Deep vs Shallow",1,19,2020-07-08T14:34:26-07:00,10.976999044418,6,versionA_stim.csv,VC_VersionB.csv,"Version B","VC Version B",EXTENSION,LONG,Study2,F,96,137,VC,User,-,"How many vowels are the two words combined?|Type your response below and then press Enter.",Study/JOL,"Study Phase",10317,,,9901,9901,,,,5,1
5c09273b81c2ad00019d1dcc,wji7834siw,"Deep vs Shallow",1,20,2020-07-08T14:34:37-07:00,11.527032852173,6,versionA_stim.csv,VC_VersionB.csv,"Version B","VC Version B",THREAD,THIMBLE,Study2,B,121,132,VC,User,-,"How many vowels are the two words combined?|Type your response below and then press Enter.",Study/JOL,"Study Phase",10624,,,10193,10194,,,,4,1
5c09273b81c2ad00019d1dcc,wji7834siw,"Deep vs Shallow",1,21,2020-07-08T14:34:43-07:00,5.9809010028839,6,versionA_stim.csv,VC_VersionB.csv,"Version B","VC Version B",DINE,EAT,Study2,F,111,155,VC,User,-,"How many vowels are the two words combined?|Type your response below and then press Enter.",Study/JOL,"Study Phase",5063,,,4537,4537,,,,4,1
5c09273b81c2ad00019d1dcc,wji7834siw,"Deep vs Shallow",1,22,2020-07-08T14:34:51-07:00,7.3348660469055,6,versionA_stim.csv,VC_VersionB.csv,"Version B","VC Version B",MOAT,CLEAR,Study2,U,169,145,VC,User,-,"How many vowels are the two words combined?|Type your response below and then press Enter.",Study/JOL,"Study Phase",6689,,,6277,6277,,,,4,1
5c09273b81c2ad00019d1dcc,wji7834siw,"Deep vs Shallow",1,23,2020-07-08T14:34:58-07:00,7.3419091701508,6,versionA_stim.csv,VC_VersionB.csv,"Version B","VC Version B",CLUE,GAME,Study2,F,97,135,VC,User,-,"How many vowels are the two words combined?|Type your response below and then press Enter.",Study/JOL,"Study Phase",6690,,,5800,5800,,,,4,1
5c09273b81c2ad00019d1dcc,wji7834siw,"Deep vs Shallow",1,24,2020-07-08T14:35:06-07:00,8.430675983429,6,versionA_stim.csv,VC_VersionB.csv,"Version B","VC Version B",SCALP,HEAD,Study2,F,105,143,VC,User,-,"How many vowels are the two words combined?|Type your response below and then press Enter.",Study/JOL,"Study Phase",7800,,,5658,5658,,,,3,1
5c09273b81c2ad00019d1dcc,wji7834siw,"Deep vs Shallow",1,25,2020-07-08T14:35:17-07:00,10.267603874207,6,versionA_stim.csv,VC_VersionB.csv,"Version B","VC Version B",EVEN,REVENGE,Study2,B,122,157,VC,User,-,"How many vowels are the two words combined?|Type your response below and then press Enter.",Study/JOL,"Study Phase",9632,,,9212,9212,,,,5,1
5c09273b81c2ad00019d1dcc,wji7834siw,"Deep vs Shallow",1,26,2020-07-08T14:35:23-07:00,6.2447991371155,6,versionA_stim.csv,VC_VersionB.csv,"Version B","VC Version B",OWN,HAVE,Study2,S,153,173,VC,User,-,"How many vowels are the two words combined?|Type your response below and then press Enter.",Study/JOL,"Study Phase",5359,,,4895,4895,,,,3,1
5c09273b81c2ad00019d1dcc,wji7834siw,"Deep vs Shallow",1,27,2020-07-08T14:35:30-07:00,7.2284607887268,6,versionA_stim.csv,VC_VersionB.csv,"Version B","VC Version B",LITTER,TRASH,Study2,F,103,164,VC,User,-,"How many vowels are the two words combined?|Type your response below and then press Enter.",Study/JOL,"Study Phase",6550,,,6136,6136,,,,3,1
5c09273b81c2ad00019d1dcc,wji7834siw,"Deep vs Shallow",1,28,2020-07-08T14:35:36-07:00,5.8893082141876,6,versionA_stim.csv,VC_VersionB.csv,"Version B","VC Version B",CHOP,CUT,Study2,F,107,109,VC,User,-,"How many vowels are the two words combined?|Type your response below and then press Enter.",Study/JOL,"Study Phase",5225,,,4761,4761,,,,2,1
5c09273b81c2ad00019d1dcc,wji7834siw,"Deep vs Shallow",1,29,2020-07-08T14:35:42-07:00,5.4189138412476,6,versionA_stim.csv,VC_VersionB.csv,"Version B","VC Version B",FUZZY,BANG,Study2,U,168,141,VC,User,-,"How many vowels are the two words combined?|Type your response below and then press Enter.",Study/JOL,"Study Phase",4766,,,4282,4282,,,,2,1
5c09273b81c2ad00019d1dcc,wji7834siw,"Deep vs Shallow",1,30,2020-07-08T14:35:47-07:00,5.9388360977173,6,versionA_stim.csv,VC_VersionB.csv,"Version B","VC Version B",FLEA,TICK,Study2,S,151,169,VC,User,-,"How many vowels are the two words combined?|Type your response below and then press Enter.",Study/JOL,"Study Phase",5276,,,4642,4642,,,,3,1
5c09273b81c2ad00019d1dcc,wji7834siw,"Deep vs Shallow",1,31,2020-07-08T14:35:57-07:00,9.712620973587,6,versionA_stim.csv,VC_VersionB.csv,"Version B","VC Version B",BOTH,OUNCE,Study2,U,172,146,VC,User,-,"How many vowels are the two words combined?|Type your response below and then press Enter.",Study/JOL,"Study Phase",9081,,,8650,8650,,,,4,1
5c09273b81c2ad00019d1dcc,wji7834siw,"Deep vs Shallow",1,32,2020-07-08T14:36:03-07:00,5.7557799816132,6,versionA_stim.csv,VC_VersionB.csv,"Version B","VC Version B",FISH,SARDINE,Study2,B,130,139,VC,User,-,"How many vowels are the two words combined?|Type your response below and then press Enter.",Study/JOL,"Study Phase",5023,,,4676,4676,,,,4,1
5c09273b81c2ad00019d1dcc,wji7834siw,"Deep vs Shallow",1,33,2020-07-08T14:36:13-07:00,10.237750053406,6,versionA_stim.csv,VC_VersionB.csv,"Version B","VC Version B",Shell,SHAKE,Study2,U,163,104,VC,User,-,"How many vowels are the two words combined?|Type your response below and then press Enter.",Study/JOL,"Study Phase",9591,,,6995,8430,,,,3,1
5c09273b81c2ad00019d1dcc,wji7834siw,"Deep vs Shallow",1,34,2020-07-08T14:36:22-07:00,9.0783710479736,6,versionA_stim.csv,VC_VersionB.csv,"Version B","VC Version B",RIGHTS,EQUAL,Study2,S,137,124,VC,User,-,"How many vowels are the two words combined?|Type your response below and then press Enter.",Study/JOL,"Study Phase",8163,,,6744,6744,,,,4,1
5c09273b81c2ad00019d1dcc,wji7834siw,"Deep vs Shallow",1,35,2020-07-08T14:36:33-07:00,11.134491920471,6,versionA_stim.csv,VC_VersionB.csv,"Version B","VC Version B",PHONE,COMMUNICATION,Study2,S,149,147,VC,User,-,"How many vowels are the two words combined?|Type your response below and then press Enter.",Study/JOL,"Study Phase",10473,,,10007,10007,,,,8,1
5c09273b81c2ad00019d1dcc,wji7834siw,"Deep vs Shallow",1,36,2020-07-08T14:36:38-07:00,4.9530110359192,6,versionA_stim.csv,VC_VersionB.csv,"Version B","VC Version B",SUN,TAN,Study2,S,155,107,VC,User,-,"How many vowels are the two words combined?|Type your response below and then press Enter.",Study/JOL,"Study Phase",4067,,,3747,3747,,,,2,1
5c09273b81c2ad00019d1dcc,wji7834siw,"Deep vs Shallow",1,37,2020-07-08T14:36:45-07:00,6.7144908905029,6,versionA_stim.csv,VC_VersionB.csv,"Version B","VC Version B",HONEST,TRUTHFUL,Study2,B,133,140,VC,User,-,"How many vowels are the two words combined?|Type your response below and then press Enter.",Study/JOL,"Study Phase",6089,,,5749,5749,,,,4,1
5c09273b81c2ad00019d1dcc,wji7834siw,"Deep vs Shallow",1,38,2020-07-08T14:36:51-07:00,6.3511590957642,6,versionA_stim.csv,VC_VersionB.csv,"Version B","VC Version B",STAR,ACTRESS,Study2,B,120,99,VC,User,-,"How many vowels are the two words combined?|Type your response below and then press Enter.",Study/JOL,"Study Phase",5735,,,5283,5283,,,,3,1
5c09273b81c2ad00019d1dcc,wji7834siw,"Deep vs Shallow",1,39,2020-07-08T14:36:57-07:00,5.2005400657654,6,versionA_stim.csv,VC_VersionB.csv,"Version B","VC Version B",FIGHT,BRAWL,Study2,B,135,156,VC,User,-,"How many vowels are the two words combined?|Type your response below and then press Enter.",Study/JOL,"Study Phase",4567,,,4067,4068,,,,2,1
5c09273b81c2ad00019d1dcc,wji7834siw,"Deep vs Shallow",1,40,2020-07-08T14:37:01-07:00,4.6815547943115,6,versionA_stim.csv,VC_VersionB.csv,"Version B","VC Version B",GONE,AWAY,Study2,S,142,144,VC,User,-,"How many vowels are the two words combined?|Type your response below and then press Enter.",Study/JOL,"Study Phase",4025,,,3324,3324,,,,4,1
5c09273b81c2ad00019d1dcc,wji7834siw,"Deep vs Shallow",1,41,2020-07-08T14:37:11-07:00,9.3809881210327,6,versionA_stim.csv,VC_VersionB.csv,"Version B","VC Version B",EARTH,GROUND,Study2,S,144,126,VC,User,-,"How many vowels are the two words combined?|Type your response below and then press Enter.",Study/JOL,"Study Phase",8710,,,7877,7877,,,,4,1
5c09273b81c2ad00019d1dcc,wji7834siw,"Deep vs Shallow",1,42,2020-07-08T14:37:20-07:00,8.8597800731659,6,versionA_stim.csv,VC_VersionB.csv,"Version B","VC Version B",CRACKLE,ABLE,Study2,U,162,148,VC,User,-,"How many vowels are the two words combined?|Type your response below and then press Enter.",Study/JOL,"Study Phase",8177,,,7760,7761,,,,4,1
5c09273b81c2ad00019d1dcc,wji7834siw,"Deep vs Shallow",1,43,2020-07-08T14:37:26-07:00,6.0248219966888,6,versionA_stim.csv,VC_VersionB.csv,"Version B","VC Version B",SHOELACE,TIE,Study2,F,99,111,VC,User,-,"How many vowels are the two words combined?|Type your response below and then press Enter.",Study/JOL,"Study Phase",5374,,,4935,4935,,,,6,1
5c09273b81c2ad00019d1dcc,wji7834siw,"Deep vs Shallow",1,44,2020-07-08T14:37:32-07:00,6.7438349723816,6,versionA_stim.csv,VC_VersionB.csv,"Version B","VC Version B",SAFETY,SEATBELT,Study2,S,147,129,VC,User,-,"How many vowels are the two words combined?|Type your response below and then press Enter.",Study/JOL,"Study Phase",6063,,,5593,5593,,,,5,1
5c09273b81c2ad00019d1dcc,wji7834siw,"Deep vs Shallow",1,45,2020-07-08T14:37:38-07:00,5.3750038146973,6,versionA_stim.csv,VC_VersionB.csv,"Version B","VC Version B",LEASE,TOIL,Study2,U,170,125,VC,User,-,"How many vowels are the two words combined?|Type your response below and then press Enter.",Study/JOL,"Study Phase",4679,,,4318,4318,,,,5,1
5c09273b81c2ad00019d1dcc,wji7834siw,"Deep vs Shallow",1,46,2020-07-08T14:37:43-07:00,5.3401210308075,6,versionA_stim.csv,VC_VersionB.csv,"Version B","VC Version B",RAZOR,SHAVE,Study2,S,136,112,VC,User,-,"How many vowels are the two words combined?|Type your response below and then press Enter.",Study/JOL,"Study Phase",4694,,,4321,4322,,,,4,1
5c09273b81c2ad00019d1dcc,wji7834siw,"Deep vs Shallow",1,47,2020-07-08T14:37:47-07:00,4.3797791004181,6,versionA_stim.csv,VC_VersionB.csv,"Version B","VC Version B",KEYS,JOKE,Study2,U,165,122,VC,User,-,"How many vowels are the two words combined?|Type your response below and then press Enter.",Study/JOL,"Study Phase",3742,,,3282,3282,,,,3,1
5c09273b81c2ad00019d1dcc,wji7834siw,"Deep vs Shallow",1,48,2020-07-08T14:37:51-07:00,4.0603289604187,6,versionA_stim.csv,VC_VersionB.csv,"Version B","VC Version B",ROD,REEL,Study2,S,150,165,VC,User,-,"How many vowels are the two words combined?|Type your response below and then press Enter.",Study/JOL,"Study Phase",3415,,,2938,2939,,,,3,1
5c09273b81c2ad00019d1dcc,wji7834siw,"Deep vs Shallow",1,49,2020-07-08T14:37:56-07:00,4.0374290943146,6,versionA_stim.csv,VC_VersionB.csv,"Version B","VC Version B",LOAN,SIGN,Study2,U,171,102,VC,User,-,"How many vowels are the two words combined?|Type your response below and then press Enter.",Study/JOL,"Study Phase",3388,,,3004,3004,,,,3,1
5c09273b81c2ad00019d1dcc,wji7834siw,"Deep vs Shallow",1,50,2020-07-08T14:38:06-07:00,10.368192911148,6,versionA_stim.csv,VC_VersionB.csv,"Version B","VC Version B",BASEBALL,LEAGUE,Study2,B,131,108,VC,User,-,"How many vowels are the two words combined?|Type your response below and then press Enter.",Study/JOL,"Study Phase",9757,,,9370,9370,,,,7,1
5c09273b81c2ad00019d1dcc,wji7834siw,"Deep vs Shallow",1,51,2020-07-08T14:38:13-07:00,7.5211470127106,6,versionA_stim.csv,VC_VersionB.csv,"Version B","VC Version B",WRIST,BRACELET,Study2,S,140,162,VC,User,-,"How many vowels are the two words combined?|Type your response below and then press Enter.",Study/JOL,"Study Phase",5663,,,5346,5346,,,,4,1
5c09273b81c2ad00019d1dcc,wji7834siw,"Deep vs Shallow",1,52,2020-07-08T14:38:27-07:00,13.530736923218,6,versionA_stim.csv,VC_VersionB.csv,"Version B","VC Version B",TEMPERATURE,Morning,Study2,U,173,136,VC,User,-,"How many vowels are the two words combined?|Type your response below and then press Enter.",Study/JOL,"Study Phase",12885,,,12582,12582,,,,7,1
5c09273b81c2ad00019d1dcc,wji7834siw,"Deep vs Shallow",1,53,2020-07-08T14:38:33-07:00,6.5406820774078,6,versionA_stim.csv,VC_VersionB.csv,"Version B","VC Version B",STRETCH,CLOTH,Study2,U,157,130,VC,User,-,"How many vowels are the two words combined?|Type your response below and then press Enter.",Study/JOL,"Study Phase",5637,,,4973,4973,,,,2,1
5c09273b81c2ad00019d1dcc,wji7834siw,"Deep vs Shallow",1,54,2020-07-08T14:38:45-07:00,11.534199953079,6,versionA_stim.csv,VC_VersionB.csv,"Version B","VC Version B",CACTUS,PLANT,Study2,F,98,119,VC,User,-,"How many vowels are the two words combined?|Type your response below and then press Enter.",Study/JOL,"Study Phase",9878,,,7669,7669,,,,3,1
5c09273b81c2ad00019d1dcc,wji7834siw,"Deep vs Shallow",1,55,2020-07-08T14:39:35-07:00,50.106153011322,6,versionA_stim.csv,VC_VersionB.csv,"Version B","VC Version B",LOUD,NOISE,Study2,S,152,138,VC,User,-,"How many vowels are the two words combined?|Type your response below and then press Enter.",Study/JOL,"Study Phase",49170,,,48721,48721,,,,5,1
5c09273b81c2ad00019d1dcc,wji7834siw,"Deep vs Shallow",1,56,2020-07-08T14:39:42-07:00,6.7552270889282,6,versionA_stim.csv,VC_VersionB.csv,"Version B","VC Version B",INCENSE,SMELL,Study2,F,110,110,VC,User,-,"How many vowels are the two words combined?|Type your response below and then press Enter.",Study/JOL,"Study Phase",5880,,,5358,5358,,,,4,1
5c09273b81c2ad00019d1dcc,wji7834siw,"Deep vs Shallow",1,57,2020-07-08T14:39:47-07:00,5.014613866806,6,versionA_stim.csv,VC_VersionB.csv,"Version B","VC Version B",BIRD,PENGUIN,Study2,B,119,153,VC,User,-,"How many vowels are the two words combined?|Type your response below and then press Enter.",Study/JOL,"Study Phase",4359,,,4003,4003,,,,4,1
5c09273b81c2ad00019d1dcc,wji7834siw,"Deep vs Shallow",1,58,2020-07-08T14:39:52-07:00,5.2541341781616,6,versionA_stim.csv,VC_VersionB.csv,"Version B","VC Version B",TURN,FLIP,Study2,B,116,150,VC,User,-,"How many vowels are the two words combined?|Type your response below and then press Enter.",Study/JOL,"Study Phase",4592,,,4334,4334,,,,2,1
5c09273b81c2ad00019d1dcc,wji7834siw,"Deep vs Shallow",1,59,2020-07-08T14:39:57-07:00,5.2168757915497,6,versionA_stim.csv,VC_VersionB.csv,"Version B","VC Version B",CHILL,COLD,Study2,F,114,127,VC,User,-,"How many vowels are the two words combined?|Type your response below and then press Enter.",Study/JOL,"Study Phase",4395,,,4108,4108,,,,2,1
5c09273b81c2ad00019d1dcc,wji7834siw,"Deep vs Shallow",1,60,2020-07-08T14:40:04-07:00,7.1404051780701,6,versionA_stim.csv,VC_VersionB.csv,"Version B","VC Version B",GLASS,BREAKABLE,Study2,B,127,98,VC,User,-,"How many vowels are the two words combined?|Type your response below and then press Enter.",Study/JOL,"Study Phase",6513,,,6183,6183,,,,5,1
5c09273b81c2ad00019d1dcc,wji7834siw,"Deep vs Shallow",1,61,2020-07-08T14:40:14-07:00,9.684898853302,6,versionA_stim.csv,VC_VersionB.csv,"Version B","VC Version B",AFFECTION,LOVE,Study2,F,115,121,VC,User,-,"How many vowels are the two words combined?|Type your response below and then press Enter.",Study/JOL,"Study Phase",9033,,,8417,8417,,,,6,1
5c09273b81c2ad00019d1dcc,wji7834siw,"Deep vs Shallow",1,62,2020-07-08T14:40:22-07:00,7.6362330913544,6,versionA_stim.csv,VC_VersionB.csv,"Version B","VC Version B",DETECTIVE,MYSTERY,Study2,F,100,120,VC,User,-,"How many vowels are the two words combined?|Type your response below and then press Enter.",Study/JOL,"Study Phase",6912,,,6352,6352,,,,5,1
5c09273b81c2ad00019d1dcc,wji7834siw,"Deep vs Shallow",1,63,2020-07-08T14:40:29-07:00,6.9618310928345,6,versionA_stim.csv,VC_VersionB.csv,"Version B","VC Version B",FURRY,DOG,Study2,F,102,105,VC,User,-,"How many vowels are the two words combined?|Type your response below and then press Enter.",Study/JOL,"Study Phase",6349,,,5588,5588,,,,2,1
5c09273b81c2ad00019d1dcc,wji7834siw,"Deep vs Shallow",1,64,2020-07-08T14:40:36-07:00,6.7606868743896,6,versionA_stim.csv,VC_VersionB.csv,"Version B","VC Version B",ELEMENT,CARBON,Study2,S,141,175,VC,User,-,"How many vowels are the two words combined?|Type your response below and then press Enter.",Study/JOL,"Study Phase",6125,,,5675,5675,,,,5,1
5c09273b81c2ad00019d1dcc,wji7834siw,"Deep vs Shallow",1,65,2020-07-08T14:40:43-07:00,7.4574971199036,6,versionA_stim.csv,VC_VersionB.csv,"Version B","VC Version B",PLANE,AIRCRAFT,Study2,B,129,100,VC,User,-,"How many vowels are the two words combined?|Type your response below and then press Enter.",Study/JOL,"Study Phase",6804,,,6336,6336,,,,5,1
5c09273b81c2ad00019d1dcc,wji7834siw,"Deep vs Shallow",1,66,2020-07-08T14:40:49-07:00,5.7026319503784,6,versionA_stim.csv,VC_VersionB.csv,"Version B","VC Version B",MONEY,BANKER,Study2,B,132,161,VC,User,-,"How many vowels are the two words combined?|Type your response below and then press Enter.",Study/JOL,"Study Phase",4748,,,4428,4428,,,,4,1
5c09273b81c2ad00019d1dcc,wji7834siw,"Deep vs Shallow",1,67,2020-07-08T14:40:54-07:00,4.8905718326569,6,versionA_stim.csv,VC_VersionB.csv,"Version B","VC Version B",BAD,VILLAIN,Study2,B,118,101,VC,User,-,"How many vowels are the two words combined?|Type your response below and then press Enter.",Study/JOL,"Study Phase",4268,,,3900,3900,,,,4,1
5c09273b81c2ad00019d1dcc,wji7834siw,"Deep vs Shallow",1,68,2020-07-08T14:40:58-07:00,4.7496731281281,6,versionA_stim.csv,VC_VersionB.csv,"Version B","VC Version B",DRY,WET,Study2,S,146,128,VC,User,-,"How many vowels are the two words combined?|Type your response below and then press Enter.",Study/JOL,"Study Phase",4111,,,3204,3204,,,,1,1
5c09273b81c2ad00019d1dcc,wji7834siw,"Deep vs Shallow",1,69,2020-07-08T14:41:04-07:00,5.9383840560913,6,versionA_stim.csv,VC_VersionB.csv,"Version B","VC Version B",MASON,JAR,Study2,S,138,106,VC,User,-,"How many vowels are the two words combined?|Type your response below and then press Enter.",Study/JOL,"Study Phase",5301,,,4863,4863,,,,3,1
5c09273b81c2ad00019d1dcc,wji7834siw,"Deep vs Shallow",1,70,2020-07-08T14:41:12-07:00,7.2334539890289,6,versionA_stim.csv,VC_VersionB.csv,"Version B","VC Version B",ALONE,LONELY,Study2,S,145,131,VC,User,-,"How many vowels are the two words combined?|Type your response below and then press Enter.",Study/JOL,"Study Phase",6609,,,6116,6116,,,,5,1
5c09273b81c2ad00019d1dcc,wji7834siw,"Deep vs Shallow",1,71,2020-07-08T14:41:17-07:00,5.3992619514465,6,versionA_stim.csv,VC_VersionB.csv,"Version B","VC Version B",MULE,DONKEY,Study2,F,108,168,VC,User,-,"How many vowels are the two words combined?|Type your response below and then press Enter.",Study/JOL,"Study Phase",4733,,,3956,3956,,,,4,1
5c09273b81c2ad00019d1dcc,wji7834siw,"Deep vs Shallow",1,72,2020-07-08T14:41:23-07:00,5.9831960201263,6,versionA_stim.csv,VC_VersionB.csv,"Version B","VC Version B",NAME,HATE,Study2,U,167,158,VC,User,-,"How many vowels are the two words combined?|Type your response below and then press Enter.",Study/JOL,"Study Phase",4113,,,3612,3612,,,,4,1
5c09273b81c2ad00019d1dcc,wji7834siw,"Deep vs Shallow",1,73,2020-07-08T14:41:29-07:00,6.5505089759827,6,versionA_stim.csv,VC_VersionB.csv,"Version B","VC Version B",DRIVER,CAR,Study2,F,106,159,VC,User,-,"How many vowels are the two words combined?|Type your response below and then press Enter.",Study/JOL,"Study Phase",5905,,,5319,5319,,,,3,1
5c09273b81c2ad00019d1dcc,wji7834siw,"Deep vs Shallow",1,74,2020-07-08T14:41:34-07:00,4.4425859451294,6,versionA_stim.csv,VC_VersionB.csv,"Version B","VC Version B",GIVE,STEAK,Study2,U,158,170,VC,User,-,"How many vowels are the two words combined?|Type your response below and then press Enter.",Study/JOL,"Study Phase",3778,,,3438,3438,,,,4,1
5c09273b81c2ad00019d1dcc,wji7834siw,"Deep vs Shallow",1,75,2020-07-08T14:41:41-07:00,7.3155701160431,6,versionA_stim.csv,VC_VersionB.csv,"Version B","VC Version B",TANTRUM,TEMPER,Study2,S,154,115,VC,User,-,"How many vowels are the two words combined?|Type your response below and then press Enter.",Study/JOL,"Study Phase",6628,,,6073,6073,,,,5,1
5c09273b81c2ad00019d1dcc,wji7834siw,"Deep vs Shallow",1,76,2020-07-08T14:41:49-07:00,7.413391828537,6,versionA_stim.csv,VC_VersionB.csv,"Version B","VC Version B",JUSTICE,MAROON,Study2,U,156,103,VC,User,-,"How many vowels are the two words combined?|Type your response below and then press Enter.",Study/JOL,"Study Phase",6793,,,6351,6351,,,,6,1
5c09273b81c2ad00019d1dcc,wji7834siw,"Deep vs Shallow",1,77,2020-07-08T14:41:55-07:00,6.0037481784821,6,versionA_stim.csv,VC_VersionB.csv,"Version B","VC Version B",MAIN,SCAR,Study2,U,175,114,VC,User,-,"How many vowels are the two words combined?|Type your response below and then press Enter.",Study/JOL,"Study Phase",5344,,,4880,4880,,,,3,1
5c09273b81c2ad00019d1dcc,wji7834siw,"Deep vs Shallow",1,78,2020-07-08T14:42:01-07:00,6.3635468482971,6,versionA_stim.csv,VC_VersionB.csv,"Version B","VC Version B",FEUD,FIGHT,Study2,F,113,123,VC,User,-,"How many vowels are the two words combined?|Type your response below and then press Enter.",Study/JOL,"Study Phase",5722,,,3667,4786,,,,3,1
5c09273b81c2ad00019d1dcc,wji7834siw,"Deep vs Shallow",1,79,2020-07-08T14:42:08-07:00,6.6344120502472,6,versionA_stim.csv,VC_VersionB.csv,"Version B","VC Version B",VEHICLE,CHARM,Study2,U,160,167,VC,User,-,"How many vowels are the two words combined?|Type your response below and then press Enter.",Study/JOL,"Study Phase",5973,,,5561,5561,,,,4,1
5c09273b81c2ad00019d1dcc,wji7834siw,"Deep vs Shallow",1,80,2020-07-08T14:42:16-07:00,8.7683610916138,6,versionA_stim.csv,VC_VersionB.csv,"Version B","VC Version B",CHERRY,RED,Study2,F,104,113,VC,User,-,"How many vowels are the two words combined?|Type your response below and then press Enter.",Study/JOL,"Study Phase",8130,,,6072,7167,,,,2,1
5c09273b81c2ad00019d1dcc,wji7834siw,"Deep vs Shallow",1,81,2020-07-08T14:42:22-07:00,5.7850589752197,6,versionA_stim.csv,VC_VersionB.csv,"Version B","VC Version B",WATER,DRINK,Study2,S,143,171,VC,User,-,"How many vowels are the two words combined?|Type your response below and then press Enter.",Study/JOL,"Study Phase",5096,,,4574,4574,,,,3,1
5c09273b81c2ad00019d1dcc,wji7834siw,"Deep vs Shallow",1,82,2020-07-08T14:42:27-07:00,4.7410349845886,6,versionA_stim.csv,VC_VersionB.csv,"Version B","VC Version B",DEAD,COFFIN,Study2,B,128,166,VC,User,-,"How many vowels are the two words combined?|Type your response below and then press Enter.",Study/JOL,"Study Phase",4125,,,3635,3635,,,,4,1
5c09273b81c2ad00019d1dcc,wji7834siw,"Deep vs Shallow",1,83,2020-07-08T14:42:33-07:00,6.5462760925293,6,versionA_stim.csv,VC_VersionB.csv,"Version B","VC Version B",ADJOURN,END,Study2,F,101,97,VC,User,-,"How many vowels are the two words combined?|Type your response below and then press Enter.",Study/JOL,"Study Phase",5877,,,5294,5295,,,,4,1
5c09273b81c2ad00019d1dcc,wji7834siw,"Deep vs Shallow",1,84,2020-07-08T14:42:39-07:00,5.6870038509369,6,versionA_stim.csv,VC_VersionB.csv,"Version B","VC Version B",MAZE,ELECTION,Study2,U,159,172,VC,User,-,"How many vowels are the two words combined?|Type your response below and then press Enter.",Study/JOL,"Study Phase",5013,,,4715,4715,,,,6,1
5c09273b81c2ad00019d1dcc,wji7834siw,"Deep vs Shallow",1,85,2020-07-08T14:42:45-07:00,5.5965669155121,6,versionA_stim.csv,VC_VersionB.csv,"Version B","VC Version B",CANDLE,WAX,Study2,S,139,133,VC,User,-,"How many vowels are the two words combined?|Type your response below and then press Enter.",Study/JOL,"Study Phase",4956,,,4377,4377,,,,3,1
5c09273b81c2ad00019d1dcc,wji7834siw,"Deep vs Shallow",1,86,2020-07-08T14:42:51-07:00,6.3407580852509,6,versionA_stim.csv,VC_VersionB.csv,"Version B","VC Version B",SHEARS,SCISSORS,Study2,F,112,154,VC,User,-,"How many vowels are the two words combined?|Type your response below and then press Enter.",Study/JOL,"Study Phase",5686,,,5197,5197,,,,4,1
5c09273b81c2ad00019d1dcc,wji7834siw,"Deep vs Shallow",1,87,2020-07-08T14:42:56-07:00,4.5177569389343,6,versionA_stim.csv,VC_VersionB.csv,"Version B","VC Version B",CAKE,CLOTHES,Study2,U,166,149,VC,User,-,"How many vowels are the two words combined?|Type your response below and then press Enter.",Study/JOL,"Study Phase",3847,,,3326,3326,,,,4,1
5c09273b81c2ad00019d1dcc,wji7834siw,"Deep vs Shallow",1,88,2020-07-08T14:43:03-07:00,7.0068972110748,6,versionA_stim.csv,VC_VersionB.csv,"Version B","VC Version B",LISTEN,FICTION,Study2,U,164,174,VC,User,-,"How many vowels are the two words combined?|Type your response below and then press Enter.",Study/JOL,"Study Phase",6359,,,5909,5909,,,,5,1
5c09273b81c2ad00019d1dcc,wji7834siw,"Deep vs Shallow",1,89,2020-07-08T14:43:09-07:00,6.3396999835968,6,versionA_stim.csv,VC_VersionB.csv,"Version B","VC Version B",TRUTH,LIE,Study2,S,148,152,VC,User,-,"How many vowels are the two words combined?|Type your response below and then press Enter.",Study/JOL,"Study Phase",5678,,,3636,4807,,,,3,1
5c09273b81c2ad00019d1dcc,wji7834siw,"Deep vs Shallow",1,90,2020-07-08T14:43:17-07:00,7.8703680038452,6,versionA_stim.csv,VC_VersionB.csv,"Version B","VC Version B",MONTH,YEAR,BUFFER4,Buffer,177,177,VC,User,-,"How many vowels are the two words combined?|Type your response below and then press Enter.",Study/JOL,BUFFER2,7164,,,6646,6647,,,,3,1
5c09273b81c2ad00019d1dcc,wji7834siw,"Deep vs Shallow",1,91,2020-07-08T14:43:23-07:00,5.7715389728546,6,versionA_stim.csv,VC_VersionB.csv,"Version B","VC Version B",DAYS,WEAKS,BUFFER4,Buffer,176,178,VC,User,-,"How many vowels are the two words combined?|Type your response below and then press Enter.",Study/JOL,BUFFER2,4092,,,3581,3581,,,,3,1
5c09273b81c2ad00019d1dcc,wji7834siw,"Deep vs Shallow",1,92,2020-07-08T14:43:30-07:00,7.4461348056793,6,versionA_stim.csv,VC_VersionB.csv,"Version B","VC Version B",OCTOBER,SPOOKY,BUFFER4,Buffer,180,181,VC,User,-,"How many vowels are the two words combined?|Type your response below and then press Enter.",Study/JOL,BUFFER2,6819,,,6510,6510,,,,5,1
5c09273b81c2ad00019d1dcc,wji7834siw,"Deep vs Shallow",1,93,2020-07-08T14:43:36-07:00,5.5889902114868,6,versionA_stim.csv,VC_VersionB.csv,"Version B","VC Version B",TOOL,SHED,BUFFER4,Buffer,178,180,VC,User,-,"How many vowels are the two words combined?|Type your response below and then press Enter.",Study/JOL,BUFFER2,4943,,,4534,4534,,,,3,1
5c09273b81c2ad00019d1dcc,wji7834siw,"Deep vs Shallow",1,94,2020-07-08T14:43:40-07:00,4.824432849884,6,versionA_stim.csv,VC_VersionB.csv,"Version B","VC Version B",SPRING,MARCH,BUFFER4,Buffer,179,179,VC,User,-,"How many vowels are the two words combined?|Type your response below and then press Enter.",Study/JOL,BUFFER2,4186,,,3762,3762,,,,2,1
5c09273b81c2ad00019d1dcc,wji7834siw,"Deep vs Shallow",1,95,2020-07-08T14:43:44-07:00,3.8488121032715,6,versionA_stim.csv,VC_VersionB.csv,"Version B","VC Version B",,,,,,0,Instruct,User,-,"You have completed this section. Please press Enter.",Filler_Instruction,Instruct2,3210,,,-1,-1,,,,,1
5c09273b81c2ad00019d1dcc,wji7834siw,"Deep vs Shallow",1,96,2020-07-08T14:45:45-07:00,120.82664489746,6,versionA_stim.csv,VC_VersionB.csv,"Version B","VC Version B",,,,,,0,FreeRecall,120,120,"Please list the 50 US states in alphabetical order. The task will automatically advance to the next screen after two minutes.",,Filler1,120002,"alabama, alaska, arizona, arkansas, california,colorado,connecticut,delaware, florrida,georgia,hawaii,idaho,illinois,indiana,iowa,kansas,kentucky,louisiana,maine,maryland ,massachusetts,michigan,m",0,25883,119370,0,0,,,0.873
5c09273b81c2ad00019d1dcc,wji7834siw,"Deep vs Shallow",1,97,2020-07-08T14:45:57-07:00,12.275805950165,6,versionA_stim.csv,VC_VersionB.csv,"Version B","VC Version B",,,,,,0,Instruct,-,10,"You will now be presented with the first word from each of the previously studied item pairs. Please type the missing word. If you do not know the word, you may guess or press Enter to skip forward to the next pair.",,Instruct3,11447,,,-1,-1,,,,,1
5c09273b81c2ad00019d1dcc,wji7834siw,"Deep vs Shallow",1,98,2020-07-08T14:46:12-07:00,14.40741610527,6,versionA_stim.csv,VC_VersionB.csv,"Version B","VC Version B",MEAT,OBTAIN,Study2,U,161,142,Test,User,-,,Recall,Recall1,13525,great,18.181818181818,10667,12686,0,0,,,1
5c09273b81c2ad00019d1dcc,wji7834siw,"Deep vs Shallow",1,99,2020-07-08T14:46:20-07:00,7.7302660942078,6,versionA_stim.csv,VC_VersionB.csv,"Version B","VC Version B",STRETCH,CLOTH,Study2,U,157,130,Test,User,-,,Recall,Recall1,6894,now,25,6442,6732,0,0,,,1
5c09273b81c2ad00019d1dcc,wji7834siw,"Deep vs Shallow",1,100,2020-07-08T14:46:23-07:00,3.4729177951813,6,versionA_stim.csv,VC_VersionB.csv,"Version B","VC Version B",MAZE,ELECTION,Study2,U,159,172,Test,User,-,,Recall,Recall1,2820,,0,-1,-1,0,0,,,1
5c09273b81c2ad00019d1dcc,wji7834siw,"Deep vs Shallow",1,101,2020-07-08T14:46:29-07:00,5.5350182056427,6,versionA_stim.csv,VC_VersionB.csv,"Version B","VC Version B",NAME,HATE,Study2,U,167,158,Test,User,-,,Recall,Recall1,4930,two,28.571428571429,4344,4668,0,0,,,1
5c09273b81c2ad00019d1dcc,wji7834siw,"Deep vs Shallow",1,102,2020-07-08T14:46:34-07:00,5.88227891922,6,versionA_stim.csv,VC_VersionB.csv,"Version B","VC Version B",KEYS,JOKE,Study2,U,165,122,Test,User,-,,Recall,Recall1,5238,low,28.571428571429,4804,5064,0,0,,,1
5c09273b81c2ad00019d1dcc,wji7834siw,"Deep vs Shallow",1,103,2020-07-08T14:46:42-07:00,7.966325044632,6,versionA_stim.csv,VC_VersionB.csv,"Version B","VC Version B",MONEY,BANKER,Study2,B,132,161,Test,User,-,,Recall,Recall1,7361,famous,16.666666666667,5811,7202,0,0,,,1
5c09273b81c2ad00019d1dcc,wji7834siw,"Deep vs Shallow",1,104,2020-07-08T14:46:46-07:00,3.9160089492798,6,versionA_stim.csv,VC_VersionB.csv,"Version B","VC Version B",MULE,DONKEY,Study2,F,108,168,Test,User,-,,Recall,Recall1,3307,horse,36.363636363636,2252,3167,0,0,,,1
5c09273b81c2ad00019d1dcc,wji7834siw,"Deep vs Shallow",1,105,2020-07-08T14:46:51-07:00,4.2611520290375,6,versionA_stim.csv,VC_VersionB.csv,"Version B","VC Version B",EVEN,REVENGE,Study2,B,122,157,Test,User,-,,Recall,Recall1,3645,seven,66.666666666667,2659,3422,0,0,,,1
5c09273b81c2ad00019d1dcc,wji7834siw,"Deep vs Shallow",1,106,2020-07-08T14:46:53-07:00,2.6175708770752,6,versionA_stim.csv,VC_VersionB.csv,"Version B","VC Version B",SAFETY,SEATBELT,Study2,S,147,129,Test,User,-,,Recall,Recall1,1988,first,30.769230769231,1337,1889,0,0,,,1
5c09273b81c2ad00019d1dcc,wji7834siw,"Deep vs Shallow",1,107,2020-07-08T14:46:57-07:00,3.6057829856873,6,versionA_stim.csv,VC_VersionB.csv,"Version B","VC Version B",CANDLE,WAX,Study2,S,139,133,Test,User,-,,Recall,Recall1,3003,light,0,1500,2767,0,0,,,1
5c09273b81c2ad00019d1dcc,wji7834siw,"Deep vs Shallow",1,108,2020-07-08T14:47:00-07:00,2.8518462181091,6,versionA_stim.csv,VC_VersionB.csv,"Version B","VC Version B",FEUD,FIGHT,Study2,F,113,123,Test,User,-,,Recall,Recall1,2229,,0,-1,-1,0,0,,,1
5c09273b81c2ad00019d1dcc,wji7834siw,"Deep vs Shallow",1,109,2020-07-08T14:47:06-07:00,6.0832669734955,6,versionA_stim.csv,VC_VersionB.csv,"Version B","VC Version B",GLASS,BREAKABLE,Study2,B,127,98,Test,User,-,,Recall,Recall1,5483,mason,14.285714285714,4085,4592,0,0,,,1
5c09273b81c2ad00019d1dcc,wji7834siw,"Deep vs Shallow",1,110,2020-07-08T14:47:08-07:00,2.6361258029938,6,versionA_stim.csv,VC_VersionB.csv,"Version B","VC Version B",CHILL,COLD,Study2,F,114,127,Test,User,-,,Recall,Recall1,2014,night,0,1463,1866,0,0,,,1
5c09273b81c2ad00019d1dcc,wji7834siw,"Deep vs Shallow",1,111,2020-07-08T14:47:16-07:00,8.1184110641479,6,versionA_stim.csv,VC_VersionB.csv,"Version B","VC Version B",OWN,HAVE,Study2,S,153,173,Test,User,-,,Recall,Recall1,7492,talk,25,6631,7046,0,0,,,1
5c09273b81c2ad00019d1dcc,wji7834siw,"Deep vs Shallow",1,112,2020-07-08T14:47:19-07:00,2.328047990799,6,versionA_stim.csv,VC_VersionB.csv,"Version B","VC Version B",TURN,FLIP,Study2,B,116,150,Test,User,-,,Recall,Recall1,1699,left,25,1213,1612,0,0,,,1
5c09273b81c2ad00019d1dcc,wji7834siw,"Deep vs Shallow",1,113,2020-07-08T14:47:24-07:00,5.489490032196,6,versionA_stim.csv,VC_VersionB.csv,"Version B","VC Version B",TRUTH,LIE,Study2,S,148,152,Test,User,-,,Recall,Recall1,4862,hurts,0,4132,4727,0,0,,,1
5c09273b81c2ad00019d1dcc,wji7834siw,"Deep vs Shallow",1,114,2020-07-08T14:47:30-07:00,5.671816110611,6,versionA_stim.csv,VC_VersionB.csv,"Version B","VC Version B",DETECTIVE,MYSTERY,Study2,F,100,120,Test,User,-,,Recall,Recall1,4066,,0,-1,-1,0,0,,,1
5c09273b81c2ad00019d1dcc,wji7834siw,"Deep vs Shallow",1,115,2020-07-08T14:47:37-07:00,6.5729370117188,6,versionA_stim.csv,VC_VersionB.csv,"Version B","VC Version B",FLEA,TICK,Study2,S,151,169,Test,User,-,,Recall,Recall1,5946,,0,2265,2464,0,0,,,1
5c09273b81c2ad00019d1dcc,wji7834siw,"Deep vs Shallow",1,116,2020-07-08T14:47:40-07:00,3.5610778331757,6,versionA_stim.csv,VC_VersionB.csv,"Version B","VC Version B",LOUD,NOISE,Study2,S,152,138,Test,User,-,,Recall,Recall1,2918,shout,20,1716,2351,0,0,,,1
5c09273b81c2ad00019d1dcc,wji7834siw,"Deep vs Shallow",1,117,2020-07-08T14:47:44-07:00,3.4729580879211,6,versionA_stim.csv,VC_VersionB.csv,"Version B","VC Version B",GONE,AWAY,Study2,S,142,144,Test,User,-,,Recall,Recall1,2843,forever,0,1860,2715,0,0,,,1
5c09273b81c2ad00019d1dcc,wji7834siw,"Deep vs Shallow",1,118,2020-07-08T14:47:47-07:00,3.0611510276794,6,versionA_stim.csv,VC_VersionB.csv,"Version B","VC Version B",LOAN,SIGN,Study2,U,171,102,Test,User,-,,Recall,Recall1,2429,money,22.222222222222,1631,2198,0,0,,,1
5c09273b81c2ad00019d1dcc,wji7834siw,"Deep vs Shallow",1,119,2020-07-08T14:47:50-07:00,2.9446849822998,6,versionA_stim.csv,VC_VersionB.csv,"Version B","VC Version B",BEST,FAVORITE,Study2,B,125,118,Test,User,-,,Recall,Recall1,2339,friend,57.142857142857,1665,2188,0,0,,,1
5c09273b81c2ad00019d1dcc,wji7834siw,"Deep vs Shallow",1,120,2020-07-08T14:47:52-07:00,2.347776889801,6,versionA_stim.csv,VC_VersionB.csv,"Version B","VC Version B",ALONE,LONELY,Study2,S,145,131,Test,User,-,,Recall,Recall1,1701,time,20,1163,1483,0,0,,,1
5c09273b81c2ad00019d1dcc,wji7834siw,"Deep vs Shallow",1,121,2020-07-08T14:47:55-07:00,3.2476091384888,6,versionA_stim.csv,VC_VersionB.csv,"Version B","VC Version B",ELEMENT,CARBON,Study2,S,141,175,Test,User,-,,Recall,Recall1,2629,force,18.181818181818,2003,2491,0,0,,,1
5c09273b81c2ad00019d1dcc,wji7834siw,"Deep vs Shallow",1,122,2020-07-08T14:48:02-07:00,6.3663020133972,6,versionA_stim.csv,VC_VersionB.csv,"Version B","VC Version B",BAD,VILLAIN,Study2,B,118,101,Test,User,-,,Recall,Recall1,5759,behavior,26.666666666667,1776,5275,0,0,,,1
5c09273b81c2ad00019d1dcc,wji7834siw,"Deep vs Shallow",1,123,2020-07-08T14:48:03-07:00,1.8262958526611,6,versionA_stim.csv,VC_VersionB.csv,"Version B","VC Version B",LEASE,TOIL,Study2,U,170,125,Test,User,-,,Recall,Recall1,1192,,0,-1,-1,0,0,,,1
5c09273b81c2ad00019d1dcc,wji7834siw,"Deep vs Shallow",1,124,2020-07-08T14:48:08-07:00,4.4252171516418,6,versionA_stim.csv,VC_VersionB.csv,"Version B","VC Version B",WATER,DRINK,Study2,S,143,171,Test,User,-,,Recall,Recall1,3798,glass,0,2098,3617,0,0,,,1
5c09273b81c2ad00019d1dcc,wji7834siw,"Deep vs Shallow",1,125,2020-07-08T14:48:14-07:00,5.7545499801636,6,versionA_stim.csv,VC_VersionB.csv,"Version B","VC Version B",POP,BALLOON,Study2,B,123,176,Test,User,-,,Recall,Recall1,5122,culture,14.285714285714,2737,4903,0,0,,,1
5c09273b81c2ad00019d1dcc,wji7834siw,"Deep vs Shallow",1,126,2020-07-08T14:48:16-07:00,1.9666018486023,6,versionA_stim.csv,VC_VersionB.csv,"Version B","VC Version B",SHEARS,SCISSORS,Study2,F,112,154,Test,User,-,,Recall,Recall1,1371,,0,-1,-1,0,0,,,1
5c09273b81c2ad00019d1dcc,wji7834siw,"Deep vs Shallow",1,127,2020-07-08T14:48:25-07:00,9.0370810031891,6,versionA_stim.csv,VC_VersionB.csv,"Version B","VC Version B",FURRY,DOG,Study2,F,102,105,Test,User,-,,Recall,Recall1,8423,animal,0,1784,8197,0,0,,,1
5c09273b81c2ad00019d1dcc,wji7834siw,"Deep vs Shallow",1,128,2020-07-08T14:48:26-07:00,1.5414130687714,6,versionA_stim.csv,VC_VersionB.csv,"Version B","VC Version B",MOAT,CLEAR,Study2,U,169,145,Test,User,-,,Recall,Recall1,940,,0,-1,-1,0,0,,,1
5c09273b81c2ad00019d1dcc,wji7834siw,"Deep vs Shallow",1,129,2020-07-08T14:48:29-07:00,2.5443329811096,6,versionA_stim.csv,VC_VersionB.csv,"Version B","VC Version B",STAR,ACTRESS,Study2,B,120,99,Test,User,-,,Recall,Recall1,1949,,0,-1,-1,0,0,,,1
5c09273b81c2ad00019d1dcc,wji7834siw,"Deep vs Shallow",1,130,2020-07-08T14:48:33-07:00,4.378112077713,6,versionA_stim.csv,VC_VersionB.csv,"Version B","VC Version B",PHONE,COMMUNICATION,Study2,S,149,147,Test,User,-,,Recall,Recall1,3770,call,23.529411764706,1200,3600,0,0,,,1
5c09273b81c2ad00019d1dcc,wji7834siw,"Deep vs Shallow",1,131,2020-07-08T14:48:38-07:00,4.7449629306793,6,versionA_stim.csv,VC_VersionB.csv,"Version B","VC Version B",DOCUMENT,PAPER,Study2,F,109,160,Test,User,-,,Recall,Recall1,4139,information,12.5,2152,3884,0,0,,,1
5c09273b81c2ad00019d1dcc,wji7834siw,"Deep vs Shallow",1,132,2020-07-08T14:48:41-07:00,2.9288759231567,6,versionA_stim.csv,VC_VersionB.csv,"Version B","VC Version B",CACTUS,PLANT,Study2,F,98,119,Test,User,-,,Recall,Recall1,2284,plant,100,1657,2125,1,1,,,1
5c09273b81c2ad00019d1dcc,wji7834siw,"Deep vs Shallow",1,133,2020-07-08T14:48:44-07:00,3.6388511657715,6,versionA_stim.csv,VC_VersionB.csv,"Version B","VC Version B",LISTEN,FICTION,Study2,U,164,174,Test,User,-,,Recall,Recall1,3039,carefully,12.5,1513,2924,0,0,,,1
5c09273b81c2ad00019d1dcc,wji7834siw,"Deep vs Shallow",1,134,2020-07-08T14:48:48-07:00,3.4740538597107,6,versionA_stim.csv,VC_VersionB.csv,"Version B","VC Version B",GIVE,STEAK,Study2,U,158,170,Test,User,-,,Recall,Recall1,2858,advise,18.181818181818,1160,2435,0,0,,,1
5c09273b81c2ad00019d1dcc,wji7834siw,"Deep vs Shallow",1,135,2020-07-08T14:48:50-07:00,2.3546071052551,6,versionA_stim.csv,VC_VersionB.csv,"Version B","VC Version B",CRACKLE,ABLE,Study2,U,162,148,Test,User,-,,Recall,Recall1,1730,,0,-1,-1,0,0,,,1
5c09273b81c2ad00019d1dcc,wji7834siw,"Deep vs Shallow",1,136,2020-07-08T14:48:53-07:00,2.5881788730621,6,versionA_stim.csv,VC_VersionB.csv,"Version B","VC Version B",RAZOR,SHAVE,Study2,S,136,112,Test,User,-,,Recall,Recall1,1954,sharp,60,1156,1760,0,0,,,1
5c09273b81c2ad00019d1dcc,wji7834siw,"Deep vs Shallow",1,137,2020-07-08T14:48:55-07:00,2.1469111442566,6,versionA_stim.csv,VC_VersionB.csv,"Version B","VC Version B",DEAD,COFFIN,Study2,B,128,166,Test,User,-,,Recall,Recall1,1555,,0,-1,-1,0,0,,,1
5c09273b81c2ad00019d1dcc,wji7834siw,"Deep vs Shallow",1,138,2020-07-08T14:48:58-07:00,2.8822438716888,6,versionA_stim.csv,VC_VersionB.csv,"Version B","VC Version B",SCALP,HEAD,Study2,F,105,143,Test,User,-,,Recall,Recall1,2245,head,100,1839,2162,1,1,,,1
5c09273b81c2ad00019d1dcc,wji7834siw,"Deep vs Shallow",1,139,2020-07-08T14:49:02-07:00,4.1440529823303,6,versionA_stim.csv,VC_VersionB.csv,"Version B","VC Version B",JUSTICE,MAROON,Study2,U,156,103,Test,User,-,,Recall,Recall1,3523,league,16.666666666667,2292,3151,0,0,,,1
5c09273b81c2ad00019d1dcc,wji7834siw,"Deep vs Shallow",1,140,2020-07-08T14:49:04-07:00,2.3304030895233,6,versionA_stim.csv,VC_VersionB.csv,"Version B","VC Version B",CAT,PANTHER,Study2,B,126,134,Test,User,-,,Recall,Recall1,1654,dog,0,1259,1523,0,0,,,1
5c09273b81c2ad00019d1dcc,wji7834siw,"Deep vs Shallow",1,141,2020-07-08T14:49:07-07:00,2.7909429073334,6,versionA_stim.csv,VC_VersionB.csv,"Version B","VC Version B",VEHICLE,CHARM,Study2,U,160,167,Test,User,-,,Recall,Recall1,2065,car,75,1643,1918,0,1,,,1
5c09273b81c2ad00019d1dcc,wji7834siw,"Deep vs Shallow",1,142,2020-07-08T14:49:09-07:00,1.7200200557709,6,versionA_stim.csv,VC_VersionB.csv,"Version B","VC Version B",EXTENSION,LONG,Study2,F,96,137,Test,User,-,,Recall,Recall1,1121,,0,-1,-1,0,0,,,1
5c09273b81c2ad00019d1dcc,wji7834siw,"Deep vs Shallow",1,143,2020-07-08T14:49:11-07:00,2.5774590969086,6,versionA_stim.csv,VC_VersionB.csv,"Version B","VC Version B",HONEST,TRUTHFUL,Study2,B,133,140,Test,User,-,,Recall,Recall1,1975,,0,-1,-1,0,0,,,1
5c09273b81c2ad00019d1dcc,wji7834siw,"Deep vs Shallow",1,144,2020-07-08T14:49:18-07:00,6.1899709701538,6,versionA_stim.csv,VC_VersionB.csv,"Version B","VC Version B",ADJOURN,END,Study2,F,101,97,Test,User,-,,Recall,Recall1,5582,attendance,46.153846153846,3603,5187,0,0,,,1
5c09273b81c2ad00019d1dcc,wji7834siw,"Deep vs Shallow",1,145,2020-07-08T14:49:22-07:00,4.8320009708405,6,versionA_stim.csv,VC_VersionB.csv,"Version B","VC Version B",FIGHT,BRAWL,Study2,B,135,156,Test,User,-,,Recall,Recall1,4224,club,22.222222222222,3558,4009,0,0,,,1
5c09273b81c2ad00019d1dcc,wji7834siw,"Deep vs Shallow",1,146,2020-07-08T14:49:25-07:00,2.684268951416,6,versionA_stim.csv,VC_VersionB.csv,"Version B","VC Version B",BIRD,PENGUIN,Study2,B,119,153,Test,User,-,,Recall,Recall1,2046,song,36.363636363636,1540,1855,0,0,,,1
5c09273b81c2ad00019d1dcc,wji7834siw,"Deep vs Shallow",1,147,2020-07-08T14:49:30-07:00,4.7380881309509,6,versionA_stim.csv,VC_VersionB.csv,"Version B","VC Version B",TANTRUM,TEMPER,Study2,S,154,115,Test,User,-,,Recall,Recall1,4136,kid,0,2564,3980,0,0,,,1
5c09273b81c2ad00019d1dcc,wji7834siw,"Deep vs Shallow",1,148,2020-07-08T14:49:31-07:00,1.4826998710632,6,versionA_stim.csv,VC_VersionB.csv,"Version B","VC Version B",SHOELACE,TIE,Study2,F,99,111,Test,User,-,,Recall,Recall1,877,,0,-1,-1,0,0,,,1
5c09273b81c2ad00019d1dcc,wji7834siw,"Deep vs Shallow",1,149,2020-07-08T14:49:36-07:00,4.5283970832825,6,versionA_stim.csv,VC_VersionB.csv,"Version B","VC Version B",TEMPERATURE,Morning,Study2,U,173,136,Test,User,-,,Recall,Recall1,3935,weather,14.285714285714,3096,3843,0,0,,,1
5c09273b81c2ad00019d1dcc,wji7834siw,"Deep vs Shallow",1,150,2020-07-08T14:49:39-07:00,3.2712528705597,6,versionA_stim.csv,VC_VersionB.csv,"Version B","VC Version B",FISH,SARDINE,Study2,B,130,139,Test,User,-,,Recall,Recall1,2639,pond,18.181818181818,1648,2415,0,0,,,1
5c09273b81c2ad00019d1dcc,wji7834siw,"Deep vs Shallow",1,151,2020-07-08T14:49:41-07:00,1.5273711681366,6,versionA_stim.csv,VC_VersionB.csv,"Version B","VC Version B",DRIVER,CAR,Study2,F,106,159,Test,User,-,,Recall,Recall1,910,,0,-1,-1,0,0,,,1
5c09273b81c2ad00019d1dcc,wji7834siw,"Deep vs Shallow",1,152,2020-07-08T14:49:44-07:00,3.2115669250488,6,versionA_stim.csv,VC_VersionB.csv,"Version B","VC Version B",FRUIT,STRAWBERRY,Study2,B,124,151,Test,User,-,,Recall,Recall1,2179,,0,-1,-1,0,0,,,1
5c09273b81c2ad00019d1dcc,wji7834siw,"Deep vs Shallow",1,153,2020-07-08T14:49:49-07:00,4.735897064209,6,versionA_stim.csv,VC_VersionB.csv,"Version B","VC Version B",MAIN,SCAR,Study2,U,175,114,Test,User,-,,Recall,Recall1,4123,meal,25,3605,3888,0,0,,,1
5c09273b81c2ad00019d1dcc,wji7834siw,"Deep vs Shallow",1,154,2020-07-08T14:49:51-07:00,2.0070989131927,6,versionA_stim.csv,VC_VersionB.csv,"Version B","VC Version B",PLANE,AIRCRAFT,Study2,B,129,100,Test,User,-,,Recall,Recall1,1373,,0,-1,-1,0,0,,,1
5c09273b81c2ad00019d1dcc,wji7834siw,"Deep vs Shallow",1,155,2020-07-08T14:49:52-07:00,1.6672060489655,6,versionA_stim.csv,VC_VersionB.csv,"Version B","VC Version B",CHOP,CUT,Study2,F,107,109,Test,User,-,,Recall,Recall1,1059,,0,-1,-1,0,0,,,1
5c09273b81c2ad00019d1dcc,wji7834siw,"Deep vs Shallow",1,156,2020-07-08T14:49:57-07:00,4.7323760986328,6,versionA_stim.csv,VC_VersionB.csv,"Version B","VC Version B",FUZZY,BANG,Study2,U,168,141,Test,User,-,,Recall,Recall1,3104,dog,28.571428571429,2725,2964,0,0,,,1
5c09273b81c2ad00019d1dcc,wji7834siw,"Deep vs Shallow",1,157,2020-07-08T14:50:01-07:00,3.9620628356934,6,versionA_stim.csv,VC_VersionB.csv,"Version B","VC Version B",SLEEP,NAP,Study2,B,134,117,Test,User,-,,Recall,Recall1,3347,bed,0,2993,3216,0,0,,,1
5c09273b81c2ad00019d1dcc,wji7834siw,"Deep vs Shallow",1,158,2020-07-08T14:50:04-07:00,2.9350049495697,6,versionA_stim.csv,VC_VersionB.csv,"Version B","VC Version B",CAKE,CLOTHES,Study2,U,166,149,Test,User,-,,Recall,Recall1,2320,eat,20,1579,1894,0,0,,,1
5c09273b81c2ad00019d1dcc,wji7834siw,"Deep vs Shallow",1,159,2020-07-08T14:50:07-07:00,3.177855014801,6,versionA_stim.csv,VC_VersionB.csv,"Version B","VC Version B",MIRROR,CHILDREN,Study2,U,174,163,Test,User,-,,Recall,Recall1,2582,effect,14.285714285714,1543,2434,0,0,,,1
5c09273b81c2ad00019d1dcc,wji7834siw,"Deep vs Shallow",1,160,2020-07-08T14:50:09-07:00,1.5629191398621,6,versionA_stim.csv,VC_VersionB.csv,"Version B","VC Version B",RIGHTS,EQUAL,Study2,S,137,124,Test,User,-,,Recall,Recall1,956,,0,-1,-1,0,0,,,1
5c09273b81c2ad00019d1dcc,wji7834siw,"Deep vs Shallow",1,161,2020-07-08T14:50:12-07:00,3.6445598602295,6,versionA_stim.csv,VC_VersionB.csv,"Version B","VC Version B",DINE,EAT,Study2,F,111,155,Test,User,-,,Recall,Recall1,3050,dinner,22.222222222222,2328,2959,0,0,,,1
5c09273b81c2ad00019d1dcc,wji7834siw,"Deep vs Shallow",1,162,2020-07-08T14:50:15-07:00,2.3013961315155,6,versionA_stim.csv,VC_VersionB.csv,"Version B","VC Version B",MASON,JAR,Study2,S,138,106,Test,User,-,,Recall,Recall1,1599,jar,100,1279,1454,1,1,,,1
5c09273b81c2ad00019d1dcc,wji7834siw,"Deep vs Shallow",1,163,2020-07-08T14:50:18-07:00,3.4373948574066,6,versionA_stim.csv,VC_VersionB.csv,"Version B","VC Version B",INCENSE,SMELL,Study2,F,110,110,Test,User,-,,Recall,Recall1,2699,cadle,20,1961,2565,0,0,,,1
5c09273b81c2ad00019d1dcc,wji7834siw,"Deep vs Shallow",1,164,2020-07-08T14:50:24-07:00,6.2319431304932,6,versionA_stim.csv,VC_VersionB.csv,"Version B","VC Version B",Shell,SHAKE,Study2,U,163,104,Test,User,-,,Recall,Recall1,4600,seaside,33.333333333333,3225,4336,0,0,,,1
5c09273b81c2ad00019d1dcc,wji7834siw,"Deep vs Shallow",1,165,2020-07-08T14:50:29-07:00,4.4642989635468,6,versionA_stim.csv,VC_VersionB.csv,"Version B","VC Version B",DRY,WET,Study2,S,146,128,Test,User,-,,Recall,Recall1,3848,,0,-1,-1,0,0,,,1
5c09273b81c2ad00019d1dcc,wji7834siw,"Deep vs Shallow",1,166,2020-07-08T14:50:38-07:00,9.5358738899231,6,versionA_stim.csv,VC_VersionB.csv,"Version B","VC Version B",EARTH,GROUND,Study2,S,144,126,Test,User,-,,Recall,Recall1,8884,world,36.363636363636,8102,8658,0,0,,,0.644
5c09273b81c2ad00019d1dcc,wji7834siw,"Deep vs Shallow",1,167,2020-07-08T14:50:43-07:00,4.5420660972595,6,versionA_stim.csv,VC_VersionB.csv,"Version B","VC Version B",CHERRY,RED,Study2,F,104,113,Test,User,-,,Recall,Recall1,3927,tree,57.142857142857,2210,3633,0,0,,,1
5c09273b81c2ad00019d1dcc,wji7834siw,"Deep vs Shallow",1,168,2020-07-08T14:50:45-07:00,2.1624829769135,6,versionA_stim.csv,VC_VersionB.csv,"Version B","VC Version B",CLUE,GAME,Study2,F,97,135,Test,User,-,,Recall,Recall1,1536,,0,-1,-1,0,0,,,1
5c09273b81c2ad00019d1dcc,wji7834siw,"Deep vs Shallow",1,169,2020-07-08T14:50:48-07:00,3.442852973938,6,versionA_stim.csv,VC_VersionB.csv,"Version B","VC Version B",SUN,TAN,Study2,S,155,107,Test,User,-,,Recall,Recall1,2824,moon,28.571428571429,1942,2606,0,0,,,1
5c09273b81c2ad00019d1dcc,wji7834siw,"Deep vs Shallow",1,170,2020-07-08T14:50:51-07:00,3.0351209640503,6,versionA_stim.csv,VC_VersionB.csv,"Version B","VC Version B",CAR,WINDSHIELD,Study2,B,117,116,Test,User,-,,Recall,Recall1,2458,bike,28.571428571429,1640,2079,0,0,,,1
5c09273b81c2ad00019d1dcc,wji7834siw,"Deep vs Shallow",1,171,2020-07-08T14:50:55-07:00,3.832316160202,6,versionA_stim.csv,VC_VersionB.csv,"Version B","VC Version B",LITTER,TRASH,Study2,F,103,164,Test,User,-,,Recall,Recall1,3258,cat,25,2597,3051,0,0,,,1
5c09273b81c2ad00019d1dcc,wji7834siw,"Deep vs Shallow",1,172,2020-07-08T14:50:57-07:00,2.1237168312073,6,versionA_stim.csv,VC_VersionB.csv,"Version B","VC Version B",WRIST,BRACELET,Study2,S,140,162,Test,User,-,,Recall,Recall1,1558,,0,-1,-1,0,0,,,1
5c09273b81c2ad00019d1dcc,wji7834siw,"Deep vs Shallow",1,173,2020-07-08T14:50:59-07:00,1.2429811954498,6,versionA_stim.csv,VC_VersionB.csv,"Version B","VC Version B",THREAD,THIMBLE,Study2,B,121,132,Test,User,-,,Recall,Recall1,667,,0,-1,-1,0,0,,,1
5c09273b81c2ad00019d1dcc,wji7834siw,"Deep vs Shallow",1,174,2020-07-08T14:51:01-07:00,2.1426029205322,6,versionA_stim.csv,VC_VersionB.csv,"Version B","VC Version B",ROD,REEL,Study2,S,150,165,Test,User,-,,Recall,Recall1,1545,,0,-1,-1,0,0,,,1
5c09273b81c2ad00019d1dcc,wji7834siw,"Deep vs Shallow",1,175,2020-07-08T14:51:03-07:00,2.7406148910522,6,versionA_stim.csv,VC_VersionB.csv,"Version B","VC Version B",BOTH,OUNCE,Study2,U,172,146,Test,User,-,,Recall,Recall1,2162,us,28.571428571429,1630,1851,0,0,,,1
5c09273b81c2ad00019d1dcc,wji7834siw,"Deep vs Shallow",1,176,2020-07-08T14:51:07-07:00,3.4385130405426,6,versionA_stim.csv,VC_VersionB.csv,"Version B","VC Version B",BASEBALL,LEAGUE,Study2,B,131,108,Test,User,-,,Recall,Recall1,2867,team,40,1793,2476,0,0,,,1
5c09273b81c2ad00019d1dcc,wji7834siw,"Deep vs Shallow",1,177,2020-07-08T14:51:09-07:00,2.4878671169281,6,versionA_stim.csv,VC_VersionB.csv,"Version B","VC Version B",AFFECTION,LOVE,Study2,F,115,121,Test,User,-,,Recall,Recall1,1913,,0,-1,-1,0,0,,,1
5c09273b81c2ad00019d1dcc,wji7834siw,"Deep vs Shallow",1,178,2020-07-08T14:51:21-07:00,11.37602186203,6,versionA_stim.csv,VC_VersionB.csv,"Version B","VC Version B",,,,,,0,Instruct,-,10,"You will now be presented with a new set of word pairs. Please study each pair. Remember that your memory will be tested! When finished, press Enter to move to the next pair.",Initial_Instruct,Instruct4,10787,,,-1,-1,,,,,1
5c09273b81c2ad00019d1dcc,wji7834siw,"Deep vs Shallow",1,179,2020-07-08T14:51:38-07:00,17.467972993851,6,versionA_stim.csv,VC_VersionB.csv,"Version B","VC Version B",,,,,,0,Instruct,,10,"You will again be asked to count how many vowels the two words contain. Please remember to type this number in the space below each pair.",,Instruct10,16707,,,-1,-1,,,,,0.286
5c09273b81c2ad00019d1dcc,wji7834siw,"Deep vs Shallow",1,180,2020-07-08T14:51:42-07:00,3.6793920993805,6,versionA_stim.csv,VC_VersionB.csv,"Version B","VC Version B",,,,,,0,Instruct,User,-,"Press Enter when you are readty to begin",,Instruct11,2899,,,-1,-1,,,,,1
5c09273b81c2ad00019d1dcc,wji7834siw,"Deep vs Shallow",1,181,2020-07-08T14:51:55-07:00,13.007533073425,6,versionA_stim.csv,VC_VersionB.csv,"Version B","VC Version B",BASEBALL,CATCHER,BUFFER1,Buffer,2,2,VC,User,-,"How many vowels are the two words combined?|Type your response below and then press Enter.",Study/JOL,BUFFER3,12416,,,11503,11503,,,,5,1
5c09273b81c2ad00019d1dcc,wji7834siw,"Deep vs Shallow",1,182,2020-07-08T14:52:01-07:00,6.0350320339203,6,versionA_stim.csv,VC_VersionB.csv,"Version B","VC Version B",SPACE,JAM,BUFFER1,Buffer,5,5,VC,User,-,"How many vowels are the two words combined?|Type your response below and then press Enter.",Study/JOL,BUFFER3,5254,,,4707,4707,,,,3,1
5c09273b81c2ad00019d1dcc,wji7834siw,"Deep vs Shallow",1,183,2020-07-08T14:52:10-07:00,8.8618547916412,6,versionA_stim.csv,VC_VersionB.csv,"Version B","VC Version B",SCARE,HIDE,BUFFER1,Buffer,4,3,VC,User,-,"How many vowels are the two words combined?|Type your response below and then press Enter.",Study/JOL,BUFFER3,8276,,,7892,7892,,,,4,1
5c09273b81c2ad00019d1dcc,wji7834siw,"Deep vs Shallow",1,184,2020-07-08T14:52:18-07:00,8.0348811149597,6,versionA_stim.csv,VC_VersionB.csv,"Version B","VC Version B",PEANUT,BUTTER,BUFFER1,Buffer,3,6,VC,User,-,"How many vowels are the two words combined?|Type your response below and then press Enter.",Study/JOL,BUFFER3,6415,,,5924,5924,,,,5,1
5c09273b81c2ad00019d1dcc,wji7834siw,"Deep vs Shallow",1,185,2020-07-08T14:52:25-07:00,7.3082180023193,6,versionA_stim.csv,VC_VersionB.csv,"Version B","VC Version B",TREES,GREEN,BUFFER1,Buffer,1,4,VC,User,-,"How many vowels are the two words combined?|Type your response below and then press Enter.",Study/JOL,BUFFER3,6543,,,6237,6238,,,,4,1
5c09273b81c2ad00019d1dcc,wji7834siw,"Deep vs Shallow",1,186,2020-07-08T14:52:33-07:00,8.2412960529327,6,versionA_stim.csv,VC_VersionB.csv,"Version B","VC Version B",ORCHID,FLOWER,Study1,F,24,83,VC,User,-,"How many vowels are the two words combined?|Type your response below and then press Enter.",Study/JOL,"Study Phase2",7519,,,6963,6963,,,,4,1
5c09273b81c2ad00019d1dcc,wji7834siw,"Deep vs Shallow",1,187,2020-07-08T14:52:40-07:00,6.6533389091492,6,versionA_stim.csv,VC_VersionB.csv,"Version B","VC Version B",LETTUCE,SALAD,Study1,S,59,79,VC,User,-,"How many vowels are the two words combined?|Type your response below and then press Enter.",Study/JOL,"Study Phase2",6065,,,5660,5660,,,,5,1
5c09273b81c2ad00019d1dcc,wji7834siw,"Deep vs Shallow",1,188,2020-07-08T14:52:48-07:00,8.2545289993286,6,versionA_stim.csv,VC_VersionB.csv,"Version B","VC Version B",LOCATION,SITE,Study1,S,48,64,VC,User,-,"How many vowels are the two words combined?|Type your response below and then press Enter.",Study/JOL,"Study Phase2",7665,,,7122,7122,,,,6,1
5c09273b81c2ad00019d1dcc,wji7834siw,"Deep vs Shallow",1,189,2020-07-08T14:52:56-07:00,7.2232999801636,6,versionA_stim.csv,VC_VersionB.csv,"Version B","VC Version B",CIRCLE,ROUND,Study1,S,65,35,VC,User,-,"How many vowels are the two words combined?|Type your response below and then press Enter.",Study/JOL,"Study Phase2",6621,,,5601,5602,,,,4,1
5c09273b81c2ad00019d1dcc,wji7834siw,"Deep vs Shallow",1,190,2020-07-08T14:53:02-07:00,6.2002639770508,6,versionA_stim.csv,VC_VersionB.csv,"Version B","VC Version B",CHISEL,HAMMER,Study1,F,9,33,VC,User,-,"How many vowels are the two words combined?|Type your response below and then press Enter.",Study/JOL,"Study Phase2",5419,,,5013,5013,,,,4,1
5c09273b81c2ad00019d1dcc,wji7834siw,"Deep vs Shallow",1,191,2020-07-08T14:53:10-07:00,8.5845639705658,6,versionA_stim.csv,VC_VersionB.csv,"Version B","VC Version B",HORNET,STING,Study1,F,11,28,VC,User,-,"How many vowels are the two words combined?|Type your response below and then press Enter.",Study/JOL,"Study Phase2",7956,,,7479,7479,,,,3,1
5c09273b81c2ad00019d1dcc,wji7834siw,"Deep vs Shallow",1,192,2020-07-08T14:53:16-07:00,5.8278110027313,6,versionA_stim.csv,VC_VersionB.csv,"Version B","VC Version B",LAW,ATTORNEY,Study1,B,34,12,VC,User,-,"How many vowels are the two words combined?|Type your response below and then press Enter.",Study/JOL,"Study Phase2",5217,,,4773,4774,,,,4,1
5c09273b81c2ad00019d1dcc,wji7834siw,"Deep vs Shallow",1,193,2020-07-08T14:53:23-07:00,6.3609731197357,6,versionA_stim.csv,VC_VersionB.csv,"Version B","VC Version B",GRILL,BAR,Study1,S,52,63,VC,User,-,"How many vowels are the two words combined?|Type your response below and then press Enter.",Study/JOL,"Study Phase2",5776,,,3670,4707,,,,2,1
5c09273b81c2ad00019d1dcc,wji7834siw,"Deep vs Shallow",1,194,2020-07-08T14:53:33-07:00,10.895258903503,6,versionA_stim.csv,VC_VersionB.csv,"Version B","VC Version B",NUMBER,AMOUNT,Study1,S,47,26,VC,User,-,"How many vowels are the two words combined?|Type your response below and then press Enter.",Study/JOL,"Study Phase2",10293,,,9287,9287,,,,5,1
5c09273b81c2ad00019d1dcc,wji7834siw,"Deep vs Shallow",1,195,2020-07-08T14:53:41-07:00,7.651782989502,6,versionA_stim.csv,VC_VersionB.csv,"Version B","VC Version B",DIGESTION,STOMACH,Study1,F,7,34,VC,User,-,"How many vowels are the two words combined?|Type your response below and then press Enter.",Study/JOL,"Study Phase2",7051,,,6636,6636,,,,6,1
5c09273b81c2ad00019d1dcc,wji7834siw,"Deep vs Shallow",1,196,2020-07-08T14:53:46-07:00,5.1055791378021,6,versionA_stim.csv,VC_VersionB.csv,"Version B","VC Version B",HERD,COW,Study1,F,22,19,VC,User,-,"How many vowels are the two words combined?|Type your response below and then press Enter.",Study/JOL,"Study Phase2",4523,,,4082,4082,,,,2,1
5c09273b81c2ad00019d1dcc,wji7834siw,"Deep vs Shallow",1,197,2020-07-08T14:53:52-07:00,5.7614858150482,6,versionA_stim.csv,VC_VersionB.csv,"Version B","VC Version B",DARK,CAVE,Study1,B,28,86,VC,User,-,"How many vowels are the two words combined?|Type your response below and then press Enter.",Study/JOL,"Study Phase2",5202,,,4872,4872,,,,3,1
5c09273b81c2ad00019d1dcc,wji7834siw,"Deep vs Shallow",1,198,2020-07-08T14:53:59-07:00,7.5500240325928,6,versionA_stim.csv,VC_VersionB.csv,"Version B","VC Version B",MEANING,DEFINITION,Study1,S,62,62,VC,User,-,"How many vowels are the two words combined?|Type your response below and then press Enter.",Study/JOL,"Study Phase2",6941,,,5970,5970,,,,8,1
5c09273b81c2ad00019d1dcc,wji7834siw,"Deep vs Shallow",1,199,2020-07-08T14:54:05-07:00,5.726683139801,6,versionA_stim.csv,VC_VersionB.csv,"Version B","VC Version B",BITTER,COLD,Study1,F,12,49,VC,User,-,"How many vowels are the two words combined?|Type your response below and then press Enter.",Study/JOL,"Study Phase2",5119,,,4747,4747,,,,3,1
5c09273b81c2ad00019d1dcc,wji7834siw,"Deep vs Shallow",1,200,2020-07-08T14:54:11-07:00,5.8792870044708,6,versionA_stim.csv,VC_VersionB.csv,"Version B","VC Version B",PAST,FUTURE,Study1,S,61,10,VC,User,-,"How many vowels are the two words combined?|Type your response below and then press Enter.",Study/JOL,"Study Phase2",5250,,,4553,4553,,,,4,1
5c09273b81c2ad00019d1dcc,wji7834siw,"Deep vs Shallow",1,201,2020-07-08T14:54:18-07:00,6.5581548213959,6,versionA_stim.csv,VC_VersionB.csv,"Version B","VC Version B",TRIAL,JURY,Study1,S,50,24,VC,User,-,"How many vowels are the two words combined?|Type your response below and then press Enter.",Study/JOL,"Study Phase2",5942,,,5336,5336,,,,3,1
5c09273b81c2ad00019d1dcc,wji7834siw,"Deep vs Shallow",1,202,2020-07-08T14:54:23-07:00,5.0306482315063,6,versionA_stim.csv,VC_VersionB.csv,"Version B","VC Version B",KEY,LATCH,Study1,B,36,8,VC,User,-,"How many vowels are the two words combined?|Type your response below and then press Enter.",Study/JOL,"Study Phase2",4399,,,2197,2197,,,,2,1
5c09273b81c2ad00019d1dcc,wji7834siw,"Deep vs Shallow",1,203,2020-07-08T14:54:29-07:00,6.2225298881531,6,versionA_stim.csv,VC_VersionB.csv,"Version B","VC Version B",HEIGHT,GROWTH,Study1,B,30,72,VC,User,-,"How many vowels are the two words combined?|Type your response below and then press Enter.",Study/JOL,"Study Phase2",5640,,,5224,5224,,,,3,1
5c09273b81c2ad00019d1dcc,wji7834siw,"Deep vs Shallow",1,204,2020-07-08T14:54:36-07:00,6.703085899353,6,versionA_stim.csv,VC_VersionB.csv,"Version B","VC Version B",HONEY,BEE,Study1,S,63,66,VC,User,-,"How many vowels are the two words combined?|Type your response below and then press Enter.",Study/JOL,"Study Phase2",6079,,,5717,5717,,,,4,1
5c09273b81c2ad00019d1dcc,wji7834siw,"Deep vs Shallow",1,205,2020-07-08T14:54:41-07:00,5.7726562023163,6,versionA_stim.csv,VC_VersionB.csv,"Version B","VC Version B",HAPPY,CAR,Study1,U,77,45,VC,User,-,"How many vowels are the two words combined?|Type your response below and then press Enter.",Study/JOL,"Study Phase2",5180,,,4728,4728,,,,2,1
5c09273b81c2ad00019d1dcc,wji7834siw,"Deep vs Shallow",1,206,2020-07-08T14:54:54-07:00,12.774448871613,6,versionA_stim.csv,VC_VersionB.csv,"Version B","VC Version B",ARCHITECTURE,DESIGN,Study1,S,51,15,VC,User,-,"How many vowels are the two words combined?|Type your response below and then press Enter.",Study/JOL,"Study Phase2",12105,,,11758,11758,,,,7,1
5c09273b81c2ad00019d1dcc,wji7834siw,"Deep vs Shallow",1,207,2020-07-08T14:55:01-07:00,6.7911379337311,6,versionA_stim.csv,VC_VersionB.csv,"Version B","VC Version B",SMELL,STENCH,Study1,B,42,57,VC,User,-,"How many vowels are the two words combined?|Type your response below and then press Enter.",Study/JOL,"Study Phase2",5977,,,5480,5480,,,,2,1
5c09273b81c2ad00019d1dcc,wji7834siw,"Deep vs Shallow",1,208,2020-07-08T14:55:07-07:00,6.5598030090332,6,versionA_stim.csv,VC_VersionB.csv,"Version B","VC Version B",FULL,ENOUGH,Study1,B,26,39,VC,User,-,"How many vowels are the two words combined?|Type your response below and then press Enter.",Study/JOL,"Study Phase2",5948,,,5548,5549,,,,4,1
5c09273b81c2ad00019d1dcc,wji7834siw,"Deep vs Shallow",1,209,2020-07-08T14:55:17-07:00,9.0317850112915,6,versionA_stim.csv,VC_VersionB.csv,"Version B","VC Version B",PARK,HUNGRY,Study1,U,68,11,VC,User,-,"How many vowels are the two words combined?|Type your response below and then press Enter.",Study/JOL,"Study Phase2",8287,,,7820,7820,,,,2,1
5c09273b81c2ad00019d1dcc,wji7834siw,"Deep vs Shallow",1,210,2020-07-08T14:55:20-07:00,3.8075940608978,6,versionA_stim.csv,VC_VersionB.csv,"Version B","VC Version B",DRINK,SIP,Study1,B,27,84,VC,User,-,"How many vowels are the two words combined?|Type your response below and then press Enter.",Study/JOL,"Study Phase2",3189,,,2746,2747,,,,2,1
5c09273b81c2ad00019d1dcc,wji7834siw,"Deep vs Shallow",1,211,2020-07-08T14:55:29-07:00,8.8930439949036,6,versionA_stim.csv,VC_VersionB.csv,"Version B","VC Version B",FIRE,BLAZE,Study1,B,45,7,VC,User,-,"How many vowels are the two words combined?|Type your response below and then press Enter.",Study/JOL,"Study Phase2",8265,,,7235,7235,,,,4,1
5c09273b81c2ad00019d1dcc,wji7834siw,"Deep vs Shallow",1,212,2020-07-08T14:55:35-07:00,5.721687078476,6,versionA_stim.csv,VC_VersionB.csv,"Version B","VC Version B",PAW,DOG,Study1,F,15,20,VC,User,-,"How many vowels are the two words combined?|Type your response below and then press Enter.",Study/JOL,"Study Phase2",5111,,,4250,4250,,,,2,1
5c09273b81c2ad00019d1dcc,wji7834siw,"Deep vs Shallow",1,213,2020-07-08T14:55:40-07:00,4.6432168483734,6,versionA_stim.csv,VC_VersionB.csv,"Version B","VC Version B",HOT,CHILI,Study1,B,37,54,VC,User,-,"How many vowels are the two words combined?|Type your response below and then press Enter.",Study/JOL,"Study Phase2",4047,,,3660,3660,,,,3,1
5c09273b81c2ad00019d1dcc,wji7834siw,"Deep vs Shallow",1,214,2020-07-08T14:55:47-07:00,6.9285590648651,6,versionA_stim.csv,VC_VersionB.csv,"Version B","VC Version B",DEBATE,SIGHT,Study1,U,73,68,VC,User,-,"How many vowels are the two words combined?|Type your response below and then press Enter.",Study/JOL,"Study Phase2",6321,,,5740,5740,,,,4,1
5c09273b81c2ad00019d1dcc,wji7834siw,"Deep vs Shallow",1,215,2020-07-08T14:55:57-07:00,10.037665128708,6,versionA_stim.csv,VC_VersionB.csv,"Version B","VC Version B",LIFT,WOMAN,Study1,U,69,13,VC,User,-,"How many vowels are the two words combined?|Type your response below and then press Enter.",Study/JOL,"Study Phase2",8975,,,7296,7296,,,,3,1
5c09273b81c2ad00019d1dcc,wji7834siw,"Deep vs Shallow",1,216,2020-07-08T14:56:05-07:00,8.7194747924805,6,versionA_stim.csv,VC_VersionB.csv,"Version B","VC Version B",STRONG,ACCIDENT,Study1,U,80,85,VC,User,-,"How many vowels are the two words combined?|Type your response below and then press Enter.",Study/JOL,"Study Phase2",8109,,,7711,7711,,,,4,1
5c09273b81c2ad00019d1dcc,wji7834siw,"Deep vs Shallow",1,217,2020-07-08T14:56:16-07:00,10.784929037094,6,versionA_stim.csv,VC_VersionB.csv,"Version B","VC Version B",HUNGER,FAMINE,Study1,B,40,55,VC,User,-,"How many vowels are the two words combined?|Type your response below and then press Enter.",Study/JOL,"Study Phase2",10171,,,9369,9369,,,,5,1
5c09273b81c2ad00019d1dcc,wji7834siw,"Deep vs Shallow",1,218,2020-07-08T14:56:26-07:00,10.020797014236,6,versionA_stim.csv,VC_VersionB.csv,"Version B","VC Version B",GREAT,FANTASTIC,Study1,B,35,17,VC,User,-,"How many vowels are the two words combined?|Type your response below and then press Enter.",Study/JOL,"Study Phase2",9224,,,8833,8833,,,,5,1
5c09273b81c2ad00019d1dcc,wji7834siw,"Deep vs Shallow",1,219,2020-07-08T14:56:32-07:00,5.9480111598969,6,versionA_stim.csv,VC_VersionB.csv,"Version B","VC Version B",KIDNEY,LIVER,Study1,S,53,67,VC,User,-,"How many vowels are the two words combined?|Type your response below and then press Enter.",Study/JOL,"Study Phase2",5327,,,4592,4592,,,,4,1
5c09273b81c2ad00019d1dcc,wji7834siw,"Deep vs Shallow",1,220,2020-07-08T14:56:38-07:00,6.1556677818298,6,versionA_stim.csv,VC_VersionB.csv,"Version B","VC Version B",SHOE,FOOT,Study1,S,60,76,VC,User,-,"How many vowels are the two words combined?|Type your response below and then press Enter.",Study/JOL,"Study Phase2",5535,,,4069,4069,,,,4,1
5c09273b81c2ad00019d1dcc,wji7834siw,"Deep vs Shallow",1,221,2020-07-08T14:56:47-07:00,8.4354591369629,6,versionA_stim.csv,VC_VersionB.csv,"Version B","VC Version B",REVOLUTION,WAR,Study1,F,20,80,VC,User,-,"How many vowels are the two words combined?|Type your response below and then press Enter.",Study/JOL,"Study Phase2",7836,,,7258,7258,,,,6,1
5c09273b81c2ad00019d1dcc,wji7834siw,"Deep vs Shallow",1,222,2020-07-08T14:56:54-07:00,7.0248329639435,6,versionA_stim.csv,VC_VersionB.csv,"Version B","VC Version B",BATHROOM,TOILET,Study1,S,58,9,VC,User,-,"How many vowels are the two words combined?|Type your response below and then press Enter.",Study/JOL,"Study Phase2",6417,,,6009,6009,,,,6,1
5c09273b81c2ad00019d1dcc,wji7834siw,"Deep vs Shallow",1,223,2020-07-08T14:56:59-07:00,5.3516380786896,6,versionA_stim.csv,VC_VersionB.csv,"Version B","VC Version B",BABY,CHILD,Study1,S,64,70,VC,User,-,"How many vowels are the two words combined?|Type your response below and then press Enter.",Study/JOL,"Study Phase2",4726,,,3795,3795,,,,2,1
5c09273b81c2ad00019d1dcc,wji7834siw,"Deep vs Shallow",1,224,2020-07-08T14:57:07-07:00,8.1583359241486,6,versionA_stim.csv,VC_VersionB.csv,"Version B","VC Version B",DUE,ASSIGNMENT,Study1,S,46,46,VC,User,-,"How many vowels are the two words combined?|Type your response below and then press Enter.",Study/JOL,"Study Phase2",7516,,,7173,7173,,,,5,1
5c09273b81c2ad00019d1dcc,wji7834siw,"Deep vs Shallow",1,225,2020-07-08T14:57:13-07:00,5.484335899353,6,versionA_stim.csv,VC_VersionB.csv,"Version B","VC Version B",WAY,OUT,Study1,F,16,82,VC,User,-,"How many vowels are the two words combined?|Type your response below and then press Enter.",Study/JOL,"Study Phase2",4843,,,4280,4280,,,,3,1
5c09273b81c2ad00019d1dcc,wji7834siw,"Deep vs Shallow",1,226,2020-07-08T14:57:19-07:00,5.9654362201691,6,versionA_stim.csv,VC_VersionB.csv,"Version B","VC Version B",BALL,RACKET,Study1,B,38,22,VC,User,-,"How many vowels are the two words combined?|Type your response below and then press Enter.",Study/JOL,"Study Phase2",5344,,,5017,5017,,,,3,1
5c09273b81c2ad00019d1dcc,wji7834siw,"Deep vs Shallow",1,227,2020-07-08T14:57:26-07:00,7.5972769260406,6,versionA_stim.csv,VC_VersionB.csv,"Version B","VC Version B",DEATH,BUSINESS,Study1,U,72,65,VC,User,-,"How many vowels are the two words combined?|Type your response below and then press Enter.",Study/JOL,"Study Phase2",6986,,,6649,6649,,,,5,1
5c09273b81c2ad00019d1dcc,wji7834siw,"Deep vs Shallow",1,228,2020-07-08T14:57:32-07:00,6.2871239185333,6,versionA_stim.csv,VC_VersionB.csv,"Version B","VC Version B",CREDIT,CARD,Study1,F,23,69,VC,User,-,"How many vowels are the two words combined?|Type your response below and then press Enter.",Study/JOL,"Study Phase2",5633,,,5246,5246,,,,3,1
5c09273b81c2ad00019d1dcc,wji7834siw,"Deep vs Shallow",1,229,2020-07-08T14:57:38-07:00,5.9221620559692,6,versionA_stim.csv,VC_VersionB.csv,"Version B","VC Version B",BLOW,WIND,Study1,S,55,42,VC,User,-,"How many vowels are the two words combined?|Type your response below and then press Enter.",Study/JOL,"Study Phase2",5320,,,4976,4976,,,,2,1
5c09273b81c2ad00019d1dcc,wji7834siw,"Deep vs Shallow",1,230,2020-07-08T14:57:44-07:00,5.6835720539093,6,versionA_stim.csv,VC_VersionB.csv,"Version B","VC Version B",WORK,CHORE,Study1,B,39,14,VC,User,-,"How many vowels are the two words combined?|Type your response below and then press Enter.",Study/JOL,"Study Phase2",5061,,,4672,4673,,,,3,1
5c09273b81c2ad00019d1dcc,wji7834siw,"Deep vs Shallow",1,231,2020-07-08T14:57:55-07:00,10.863749980927,6,versionA_stim.csv,VC_VersionB.csv,"Version B","VC Version B",ARTERY,BRONZE,Study1,U,74,56,VC,User,-,"How many vowels are the two words combined?|Type your response below and then press Enter.",Study/JOL,"Study Phase2",10235,,,9530,9530,,,,4,1
5c09273b81c2ad00019d1dcc,wji7834siw,"Deep vs Shallow",1,232,2020-07-08T14:58:03-07:00,7.7895050048828,6,versionA_stim.csv,VC_VersionB.csv,"Version B","VC Version B",CLOTHES,ATTIRE,Study1,B,43,30,VC,User,-,"How many vowels are the two words combined?|Type your response below and then press Enter.",Study/JOL,"Study Phase2",6967,,,6227,6227,,,,5,1
5c09273b81c2ad00019d1dcc,wji7834siw,"Deep vs Shallow",1,233,2020-07-08T14:58:20-07:00,17.094642877579,6,versionA_stim.csv,VC_VersionB.csv,"Version B","VC Version B",MACHINE,POSITION,Study1,U,76,43,VC,User,-,"How many vowels are the two words combined?|Type your response below and then press Enter.",Study/JOL,"Study Phase2",16403,,,15923,15923,,,,7,1
5c09273b81c2ad00019d1dcc,wji7834siw,"Deep vs Shallow",1,234,2020-07-08T14:58:26-07:00,6.4320151805878,6,versionA_stim.csv,VC_VersionB.csv,"Version B","VC Version B",TUNA,FISH,Study1,F,25,37,VC,User,-,"How many vowels are the two words combined?|Type your response below and then press Enter.",Study/JOL,"Study Phase2",5610,,,352,4902,,,,3,1
5c09273b81c2ad00019d1dcc,wji7834siw,"Deep vs Shallow",1,235,2020-07-08T14:58:33-07:00,6.8031799793243,6,versionA_stim.csv,VC_VersionB.csv,"Version B","VC Version B",DISCOVER,FLOOR,Study1,U,71,16,VC,User,-,"How many vowels are the two words combined?|Type your response below and then press Enter.",Study/JOL,"Study Phase2",6200,,,5914,5914,,,,5,1
5c09273b81c2ad00019d1dcc,wji7834siw,"Deep vs Shallow",1,236,2020-07-08T14:58:38-07:00,5.3780388832092,6,versionA_stim.csv,VC_VersionB.csv,"Version B","VC Version B",SLEEP,DROWSY,Study1,B,41,51,VC,User,-,"How many vowels are the two words combined?|Type your response below and then press Enter.",Study/JOL,"Study Phase2",4748,,,4417,4417,,,,3,1
5c09273b81c2ad00019d1dcc,wji7834siw,"Deep vs Shallow",1,237,2020-07-08T14:58:45-07:00,6.0543339252472,6,versionA_stim.csv,VC_VersionB.csv,"Version B","VC Version B",WAGE,MONEY,Study1,F,8,18,VC,User,-,"How many vowels are the two words combined?|Type your response below and then press Enter.",Study/JOL,"Study Phase2",5422,,,4808,4808,,,,4,1
5c09273b81c2ad00019d1dcc,wji7834siw,"Deep vs Shallow",1,238,2020-07-08T14:58:52-07:00,7.2772631645203,6,versionA_stim.csv,VC_VersionB.csv,"Version B","VC Version B",ART,LION,Study1,U,79,25,VC,User,-,"How many vowels are the two words combined?|Type your response below and then press Enter.",Study/JOL,"Study Phase2",6665,,,6395,6395,,,,3,1
5c09273b81c2ad00019d1dcc,wji7834siw,"Deep vs Shallow",1,239,2020-07-08T14:58:58-07:00,6.1083929538727,6,versionA_stim.csv,VC_VersionB.csv,"Version B","VC Version B",ALLOW,TUCK,Study1,U,78,32,VC,User,-,"How many vowels are the two words combined?|Type your response below and then press Enter.",Study/JOL,"Study Phase2",5479,,,4877,4877,,,,3,1
5c09273b81c2ad00019d1dcc,wji7834siw,"Deep vs Shallow",1,240,2020-07-08T14:59:06-07:00,7.8746159076691,6,versionA_stim.csv,VC_VersionB.csv,"Version B","VC Version B",GEOLOGY,ROCK,Study1,F,19,71,VC,User,-,"How many vowels are the two words combined?|Type your response below and then press Enter.",Study/JOL,"Study Phase2",7248,,,6968,6968,,,,4,1
5c09273b81c2ad00019d1dcc,wji7834siw,"Deep vs Shallow",1,241,2020-07-08T14:59:14-07:00,8.2641251087189,6,versionA_stim.csv,VC_VersionB.csv,"Version B","VC Version B",KING,VASE,Study1,U,85,58,VC,User,-,"How many vowels are the two words combined?|Type your response below and then press Enter.",Study/JOL,"Study Phase2",6647,,,6405,6405,,,,3,1
5c09273b81c2ad00019d1dcc,wji7834siw,"Deep vs Shallow",1,242,2020-07-08T14:59:19-07:00,4.8769550323486,6,versionA_stim.csv,VC_VersionB.csv,"Version B","VC Version B",FIX,HAND,Study1,U,75,27,VC,User,-,"How many vowels are the two words combined?|Type your response below and then press Enter.",Study/JOL,"Study Phase2",4068,,,3707,3707,,,,2,1
5c09273b81c2ad00019d1dcc,wji7834siw,"Deep vs Shallow",1,243,2020-07-08T14:59:27-07:00,8.1953320503235,6,versionA_stim.csv,VC_VersionB.csv,"Version B","VC Version B",SENTENCE,WORD,Study1,B,31,75,VC,User,-,"How many vowels are the two words combined?|Type your response below and then press Enter.",Study/JOL,"Study Phase2",7566,,,7256,7256,,,,4,1
5c09273b81c2ad00019d1dcc,wji7834siw,"Deep vs Shallow",1,244,2020-07-08T14:59:35-07:00,7.4117178916931,6,versionA_stim.csv,VC_VersionB.csv,"Version B","VC Version B",DIETARY,SACKING,Study1,U,67,40,VC,User,-,"How many vowels are the two words combined?|Type your response below and then press Enter.",Study/JOL,"Study Phase2",6789,,,5817,5817,,,,5,1
5c09273b81c2ad00019d1dcc,wji7834siw,"Deep vs Shallow",1,245,2020-07-08T14:59:41-07:00,6.4149661064148,6,versionA_stim.csv,VC_VersionB.csv,"Version B","VC Version B",CASH,WOULD,Study1,U,83,48,VC,User,-,"How many vowels are the two words combined?|Type your response below and then press Enter.",Study/JOL,"Study Phase2",5780,,,5438,5438,,,,3,1
5c09273b81c2ad00019d1dcc,wji7834siw,"Deep vs Shallow",1,246,2020-07-08T14:59:50-07:00,8.967132806778,6,versionA_stim.csv,VC_VersionB.csv,"Version B","VC Version B",PUSHER,CLUTTER,Study1,U,66,61,VC,User,-,"How many vowels are the two words combined?|Type your response below and then press Enter.",Study/JOL,"Study Phase2",8328,,,7935,7935,,,,4,1
5c09273b81c2ad00019d1dcc,wji7834siw,"Deep vs Shallow",1,247,2020-07-08T14:59:58-07:00,8.4242160320282,6,versionA_stim.csv,VC_VersionB.csv,"Version B","VC Version B",VALLEY,ADD,Study1,U,82,59,VC,User,-,"How many vowels are the two words combined?|Type your response below and then press Enter.",Study/JOL,"Study Phase2",7751,,,6010,6010,,,,3,1
5c09273b81c2ad00019d1dcc,wji7834siw,"Deep vs Shallow",1,248,2020-07-08T15:00:05-07:00,6.8666019439697,6,versionA_stim.csv,VC_VersionB.csv,"Version B","VC Version B",BEGIN,END,Study1,S,54,41,VC,User,-,"How many vowels are the two words combined?|Type your response below and then press Enter.",Study/JOL,"Study Phase2",6238,,,5917,5917,,,,3,1
5c09273b81c2ad00019d1dcc,wji7834siw,"Deep vs Shallow",1,249,2020-07-08T15:00:12-07:00,6.7542591094971,6,versionA_stim.csv,VC_VersionB.csv,"Version B","VC Version B",ROOT,PLANT,Study1,F,13,77,VC,User,-,"How many vowels are the two words combined?|Type your response below and then press Enter.",Study/JOL,"Study Phase2",6108,,,4742,4742,,,,3,1
5c09273b81c2ad00019d1dcc,wji7834siw,"Deep vs Shallow",1,250,2020-07-08T15:00:23-07:00,11.02330994606,6,versionA_stim.csv,VC_VersionB.csv,"Version B","VC Version B",HIDE,SICK,Study1,U,84,44,VC,User,-,"How many vowels are the two words combined?|Type your response below and then press Enter.",Study/JOL,"Study Phase2",10424,,,9897,9897,,,,3,1
5c09273b81c2ad00019d1dcc,wji7834siw,"Deep vs Shallow",1,251,2020-07-08T15:00:31-07:00,7.9029519557953,6,versionA_stim.csv,VC_VersionB.csv,"Version B","VC Version B",MATH,DIVISION,Study1,B,33,60,VC,User,-,"How many vowels are the two words combined?|Type your response below and then press Enter.",Study/JOL,"Study Phase2",7093,,,6522,6522,,,,5,1
5c09273b81c2ad00019d1dcc,wji7834siw,"Deep vs Shallow",1,252,2020-07-08T15:00:39-07:00,8.3723750114441,6,versionA_stim.csv,VC_VersionB.csv,"Version B","VC Version B",DELINQUENT,BAD,Study1,F,6,21,VC,User,-,"How many vowels are the two words combined?|Type your response below and then press Enter.",Study/JOL,"Study Phase2",7741,,,7396,7396,,,,5,1
5c09273b81c2ad00019d1dcc,wji7834siw,"Deep vs Shallow",1,253,2020-07-08T15:00:45-07:00,5.6734621524811,6,versionA_stim.csv,VC_VersionB.csv,"Version B","VC Version B",TAKE,SEIZE,Study1,B,29,81,VC,User,-,"How many vowels are the two words combined?|Type your response below and then press Enter.",Study/JOL,"Study Phase2",5039,,,4438,4438,,,,5,1
5c09273b81c2ad00019d1dcc,wji7834siw,"Deep vs Shallow",1,254,2020-07-08T15:00:52-07:00,7.4711098670959,6,versionA_stim.csv,VC_VersionB.csv,"Version B","VC Version B",DISCUSSION,TALK,Study1,F,21,23,VC,User,-,"How many vowels are the two words combined?|Type your response below and then press Enter.",Study/JOL,"Study Phase2",6631,,,6094,6094,,,,5,1
5c09273b81c2ad00019d1dcc,wji7834siw,"Deep vs Shallow",1,255,2020-07-08T15:00:59-07:00,6.8474340438843,6,versionA_stim.csv,VC_VersionB.csv,"Version B","VC Version B",BUG,WASP,Study1,B,32,73,VC,User,-,"How many vowels are the two words combined?|Type your response below and then press Enter.",Study/JOL,"Study Phase2",6198,,,5687,5687,,,,2,1
5c09273b81c2ad00019d1dcc,wji7834siw,"Deep vs Shallow",1,256,2020-07-08T15:01:06-07:00,6.8084659576416,6,versionA_stim.csv,VC_VersionB.csv,"Version B","VC Version B",SOON,BELT,Study1,U,70,74,VC,User,-,"How many vowels are the two words combined?|Type your response below and then press Enter.",Study/JOL,"Study Phase2",6155,,,3800,5232,,,,3,1
5c09273b81c2ad00019d1dcc,wji7834siw,"Deep vs Shallow",1,257,2020-07-08T15:01:15-07:00,8.7363240718842,6,versionA_stim.csv,VC_VersionB.csv,"Version B","VC Version B",SUGAR,RIDDLE,Study1,U,81,47,VC,User,-,"How many vowels are the two words combined?|Type your response below and then press Enter.",Study/JOL,"Study Phase2",7062,,,6698,6698,,,,4,1
5c09273b81c2ad00019d1dcc,wji7834siw,"Deep vs Shallow",1,258,2020-07-08T15:01:23-07:00,7.8631589412689,6,versionA_stim.csv,VC_VersionB.csv,"Version B","VC Version B",POP,SODA,Study1,S,56,53,VC,User,-,"How many vowels are the two words combined?|Type your response below and then press Enter.",Study/JOL,"Study Phase2",7074,,,6525,6525,,,,3,1
5c09273b81c2ad00019d1dcc,wji7834siw,"Deep vs Shallow",1,259,2020-07-08T15:01:30-07:00,7.3742890357971,6,versionA_stim.csv,VC_VersionB.csv,"Version B","VC Version B",EDITOR,NEWS,Study1,F,10,50,VC,User,-,"How many vowels are the two words combined?|Type your response below and then press Enter.",Study/JOL,"Study Phase2",6545,,,6149,6149,,,,4,1
5c09273b81c2ad00019d1dcc,wji7834siw,"Deep vs Shallow",1,260,2020-07-08T15:01:36-07:00,6.1585628986359,6,versionA_stim.csv,VC_VersionB.csv,"Version B","VC Version B",BRIDGE,WATER,Study1,F,18,29,VC,User,-,"How many vowels are the two words combined?|Type your response below and then press Enter.",Study/JOL,"Study Phase2",5464,,,4965,4965,,,,4,1
5c09273b81c2ad00019d1dcc,wji7834siw,"Deep vs Shallow",1,261,2020-07-08T15:01:43-07:00,6.4556851387024,6,versionA_stim.csv,VC_VersionB.csv,"Version B","VC Version B",PLANE,PILOT,Study1,B,44,36,VC,User,-,"How many vowels are the two words combined?|Type your response below and then press Enter.",Study/JOL,"Study Phase2",5832,,,5482,5482,,,,4,1
5c09273b81c2ad00019d1dcc,wji7834siw,"Deep vs Shallow",1,262,2020-07-08T15:01:47-07:00,4.8027360439301,6,versionA_stim.csv,VC_VersionB.csv,"Version B","VC Version B",DUMP,WASTE,Study1,S,49,52,VC,User,-,"How many vowels are the two words combined?|Type your response below and then press Enter.",Study/JOL,"Study Phase2",4192,,,3487,3487,,,,3,1
5c09273b81c2ad00019d1dcc,wji7834siw,"Deep vs Shallow",1,263,2020-07-08T15:01:56-07:00,8.4357209205627,6,versionA_stim.csv,VC_VersionB.csv,"Version B","VC Version B",WINE,CHEESE,Study1,S,57,31,VC,User,-,"How many vowels are the two words combined?|Type your response below and then press Enter.",Study/JOL,"Study Phase2",7794,,,7105,7105,,,,5,1
5c09273b81c2ad00019d1dcc,wji7834siw,"Deep vs Shallow",1,264,2020-07-08T15:02:05-07:00,8.7070560455322,6,versionA_stim.csv,VC_VersionB.csv,"Version B","VC Version B",HYGIENE,CLEAN,Study1,F,17,78,VC,User,-,"How many vowels are the two words combined?|Type your response below and then press Enter.",Study/JOL,"Study Phase2",8060,,,7021,7021,,,,5,1
5c09273b81c2ad00019d1dcc,wji7834siw,"Deep vs Shallow",1,265,2020-07-08T15:02:10-07:00,5.2787170410156,6,versionA_stim.csv,VC_VersionB.csv,"Version B","VC Version B",SWAN,BIRD,Study1,F,14,38,VC,User,-,"How many vowels are the two words combined?|Type your response below and then press Enter.",Study/JOL,"Study Phase2",4410,,,3905,3905,,,,2,1
5c09273b81c2ad00019d1dcc,wji7834siw,"Deep vs Shallow",1,266,2020-07-08T15:02:16-07:00,6.6193408966064,6,versionA_stim.csv,VC_VersionB.csv,"Version B","VC Version B",GEESE,GOOSE,BUFFER2,Buffer,86,89,VC,User,-,"How many vowels are the two words combined?|Type your response below and then press Enter.",Study/JOL,BUFFER4,5994,,,5549,5549,,,,6,1
5c09273b81c2ad00019d1dcc,wji7834siw,"Deep vs Shallow",1,267,2020-07-08T15:02:23-07:00,6.6181950569153,6,versionA_stim.csv,VC_VersionB.csv,"Version B","VC Version B",SHERRIF,POLICE,BUFFER2,Buffer,87,88,VC,User,-,"How many vowels are the two words combined?|Type your response below and then press Enter.",Study/JOL,BUFFER4,5989,,,5718,5718,,,,5,1
5c09273b81c2ad00019d1dcc,wji7834siw,"Deep vs Shallow",1,268,2020-07-08T15:02:31-07:00,7.8832740783691,6,versionA_stim.csv,VC_VersionB.csv,"Version B","VC Version B",MALT,CHOCOLATE,BUFFER2,Buffer,88,90,VC,User,-,"How many vowels are the two words combined?|Type your response below and then press Enter.",Study/JOL,BUFFER4,7274,,,6712,6712,,,,5,1
5c09273b81c2ad00019d1dcc,wji7834siw,"Deep vs Shallow",1,269,2020-07-08T15:02:36-07:00,5.2970669269562,6,versionA_stim.csv,VC_VersionB.csv,"Version B","VC Version B",MOON,SPACE,BUFFER2,Buffer,89,91,VC,User,-,"How many vowels are the two words combined?|Type your response below and then press Enter.",Study/JOL,BUFFER4,3650,,,3091,3091,,,,4,1
5c09273b81c2ad00019d1dcc,wji7834siw,"Deep vs Shallow",1,270,2020-07-08T15:02:52-07:00,15.764275074005,6,versionA_stim.csv,VC_VersionB.csv,"Version B","VC Version B",THING,STUFF,BUFFER2,Buffer,90,87,VC,User,-,"How many vowels are the two words combined?|Type your response below and then press Enter.",Study/JOL,BUFFER4,15161,,,14602,14602,,,,2,1
5c09273b81c2ad00019d1dcc,wji7834siw,"Deep vs Shallow",1,271,2020-07-08T15:02:55-07:00,2.6403799057007,6,versionA_stim.csv,VC_VersionB.csv,"Version B","VC Version B",,,,,,0,Instruct,User,-,"You have completed this section. Please press Enter.",Filler_Instruction,Instruct5,1826,,,-1,-1,,,,,1
5c09273b81c2ad00019d1dcc,wji7834siw,"Deep vs Shallow",1,272,2020-07-08T15:04:55-07:00,120.76788401604,6,versionA_stim.csv,VC_VersionB.csv,"Version B","VC Version B",,,,,,0,FreeRecall,120,120,"Please list the 50 US states in reverse alphabetical order (z - a). The task will automatically advance to the next screen after two minutes.",,Filler2,120003,"wyoming,wisconsin,west verginia,washington,virginia,vermont,utah,texas,tennessee,south dakota,south carolina,rhode island,pennsylvania,oregon,oklahoma,ohia,north dakota,north carolina,new york, new mexico,new jersey,new hampshire,nevada,n",0,15245,119889,0,0,,,0.93
5c09273b81c2ad00019d1dcc,wji7834siw,"Deep vs Shallow",1,273,2020-07-08T15:05:08-07:00,12.166423082352,6,versionA_stim.csv,VC_VersionB.csv,"Version B","VC Version B",,,,,,0,Instruct,-,10,"You will now be presented with the first word from each of the previously studied item pairs. Please type the missing word. If you do not know the word, you may guess or press Enter to skip forward to the next pair.",,Instruct6,11368,,,-1,-1,,,,,1
5c09273b81c2ad00019d1dcc,wji7834siw,"Deep vs Shallow",1,274,2020-07-08T15:05:23-07:00,15.22919678688,6,versionA_stim.csv,VC_VersionB.csv,"Version B","VC Version B",BALL,RACKET,Study1,B,38,22,Test,User,-,,Recall,Recall2,14473,toy,22.222222222222,9015,14297,0,0,,,1
5c09273b81c2ad00019d1dcc,wji7834siw,"Deep vs Shallow",1,275,2020-07-08T15:05:26-07:00,3.3654861450195,6,versionA_stim.csv,VC_VersionB.csv,"Version B","VC Version B",HERD,COW,Study1,F,22,19,Test,User,-,,Recall,Recall2,2596,sheep,0,1790,2325,0,0,,,1
5c09273b81c2ad00019d1dcc,wji7834siw,"Deep vs Shallow",1,276,2020-07-08T15:05:30-07:00,4.0280058383942,6,versionA_stim.csv,VC_VersionB.csv,"Version B","VC Version B",ALLOW,TUCK,Study1,U,78,32,Test,User,-,,Recall,Recall2,3445,deny,0,2392,2831,0,0,,,1
5c09273b81c2ad00019d1dcc,wji7834siw,"Deep vs Shallow",1,277,2020-07-08T15:05:40-07:00,10.136135101318,6,versionA_stim.csv,VC_VersionB.csv,"Version B","VC Version B",DISCOVER,FLOOR,Study1,U,71,16,Test,User,-,,Recall,Recall2,9549,information,37.5,6550,9266,0,0,,,1
5c09273b81c2ad00019d1dcc,wji7834siw,"Deep vs Shallow",1,278,2020-07-08T15:05:44-07:00,3.5358600616455,6,versionA_stim.csv,VC_VersionB.csv,"Version B","VC Version B",DIGESTION,STOMACH,Study1,F,7,34,Test,User,-,,Recall,Recall2,2778,stomach,100,1611,2501,1,1,,,1
5c09273b81c2ad00019d1dcc,wji7834siw,"Deep vs Shallow",1,279,2020-07-08T15:05:47-07:00,2.8724930286407,6,versionA_stim.csv,VC_VersionB.csv,"Version B","VC Version B",DARK,CAVE,Study1,B,28,86,Test,User,-,,Recall,Recall2,2284,light,0,1695,2121,0,0,,,1
5c09273b81c2ad00019d1dcc,wji7834siw,"Deep vs Shallow",1,280,2020-07-08T15:05:54-07:00,7.4155268669128,6,versionA_stim.csv,VC_VersionB.csv,"Version B","VC Version B",SUGAR,RIDDLE,Study1,U,81,47,Test,User,-,,Recall,Recall2,6822,honey,18.181818181818,4388,6583,0,0,,,1
5c09273b81c2ad00019d1dcc,wji7834siw,"Deep vs Shallow",1,281,2020-07-08T15:06:05-07:00,10.62149310112,6,versionA_stim.csv,VC_VersionB.csv,"Version B","VC Version B",HORNET,STING,Study1,F,11,28,Test,User,-,,Recall,Recall2,10020,wasp,22.222222222222,5155,9810,0,0,,,1
5c09273b81c2ad00019d1dcc,wji7834siw,"Deep vs Shallow",1,282,2020-07-08T15:06:10-07:00,5.2839210033417,6,versionA_stim.csv,VC_VersionB.csv,"Version B","VC Version B",DEBATE,SIGHT,Study1,U,73,68,Test,User,-,,Recall,Recall2,4660,,0,-1,-1,0,0,,,1
5c09273b81c2ad00019d1dcc,wji7834siw,"Deep vs Shallow",1,283,2020-07-08T15:06:14-07:00,3.8068499565125,6,versionA_stim.csv,VC_VersionB.csv,"Version B","VC Version B",CHISEL,HAMMER,Study1,F,9,33,Test,User,-,,Recall,Recall2,3196,hammer,100,2498,3102,1,1,,,1
5c09273b81c2ad00019d1dcc,wji7834siw,"Deep vs Shallow",1,284,2020-07-08T15:06:22-07:00,7.9683299064636,6,versionA_stim.csv,VC_VersionB.csv,"Version B","VC Version B",DELINQUENT,BAD,Study1,F,6,21,Test,User,-,,Recall,Recall2,7357,bad,100,6740,7178,1,1,,,1
5c09273b81c2ad00019d1dcc,wji7834siw,"Deep vs Shallow",1,285,2020-07-08T15:06:26-07:00,4.0350170135498,6,versionA_stim.csv,VC_VersionB.csv,"Version B","VC Version B",CREDIT,CARD,Study1,F,23,69,Test,User,-,,Recall,Recall2,2424,score,44.444444444444,1490,2285,0,0,,,1
5c09273b81c2ad00019d1dcc,wji7834siw,"Deep vs Shallow",1,286,2020-07-08T15:06:32-07:00,6.3126480579376,6,versionA_stim.csv,VC_VersionB.csv,"Version B","VC Version B",PARK,HUNGRY,Study1,U,68,11,Test,User,-,,Recall,Recall2,5546,green,36.363636363636,3493,5199,0,0,,,1
5c09273b81c2ad00019d1dcc,wji7834siw,"Deep vs Shallow",1,287,2020-07-08T15:06:38-07:00,6.1581130027771,6,versionA_stim.csv,VC_VersionB.csv,"Version B","VC Version B",MACHINE,POSITION,Study1,U,76,43,Test,User,-,,Recall,Recall2,5542,,0,-1,-1,0,0,,,1
5c09273b81c2ad00019d1dcc,wji7834siw,"Deep vs Shallow",1,288,2020-07-08T15:06:44-07:00,5.5189819335938,6,versionA_stim.csv,VC_VersionB.csv,"Version B","VC Version B",DIETARY,SACKING,Study1,U,67,40,Test,User,-,,Recall,Recall2,4923,,0,-1,-1,0,0,,,1
5c09273b81c2ad00019d1dcc,wji7834siw,"Deep vs Shallow",1,289,2020-07-08T15:07:05-07:00,20.811365127563,6,versionA_stim.csv,VC_VersionB.csv,"Version B","VC Version B",BITTER,COLD,Study1,F,12,49,Test,User,-,,Recall,Recall2,20204,chocolate,46.153846153846,6038,19665,0,0,,,1
5c09273b81c2ad00019d1dcc,wji7834siw,"Deep vs Shallow",1,290,2020-07-08T15:07:16-07:00,11.754169940948,6,versionA_stim.csv,VC_VersionB.csv,"Version B","VC Version B",DUE,ASSIGNMENT,Study1,S,46,46,Test,User,-,,Recall,Recall2,9942,,0,-1,-1,0,0,,,1
5c09273b81c2ad00019d1dcc,wji7834siw,"Deep vs Shallow",1,291,2020-07-08T15:07:26-07:00,9.2110810279846,6,versionA_stim.csv,VC_VersionB.csv,"Version B","VC Version B",DRINK,SIP,Study1,B,27,84,Test,User,-,,Recall,Recall2,8415,thirst,22.222222222222,6383,7906,0,0,,,1
5c09273b81c2ad00019d1dcc,wji7834siw,"Deep vs Shallow",1,292,2020-07-08T15:07:32-07:00,6.6871709823608,6,versionA_stim.csv,VC_VersionB.csv,"Version B","VC Version B",HUNGER,FAMINE,Study1,B,40,55,Test,User,-,,Recall,Recall2,6072,food,20,3760,4242,0,0,,,1
5c09273b81c2ad00019d1dcc,wji7834siw,"Deep vs Shallow",1,293,2020-07-08T15:07:37-07:00,5.0769279003143,6,versionA_stim.csv,VC_VersionB.csv,"Version B","VC Version B",SOON,BELT,Study1,U,70,74,Test,User,-,,Recall,Recall2,4296,gone,25,3248,4101,0,0,,,1
5c09273b81c2ad00019d1dcc,wji7834siw,"Deep vs Shallow",1,294,2020-07-08T15:07:43-07:00,5.5628252029419,6,versionA_stim.csv,VC_VersionB.csv,"Version B","VC Version B",CIRCLE,ROUND,Study1,S,65,35,Test,User,-,,Recall,Recall2,4944,round,100,3887,4769,1,1,,,1
5c09273b81c2ad00019d1dcc,wji7834siw,"Deep vs Shallow",1,295,2020-07-08T15:07:46-07:00,2.7884228229523,6,versionA_stim.csv,VC_VersionB.csv,"Version B","VC Version B",BLOW,WIND,Study1,S,55,42,Test,User,-,,Recall,Recall2,2187,wind,100,1406,1960,1,1,,,1
5c09273b81c2ad00019d1dcc,wji7834siw,"Deep vs Shallow",1,296,2020-07-08T15:07:56-07:00,10.260054111481,6,versionA_stim.csv,VC_VersionB.csv,"Version B","VC Version B",CLOTHES,ATTIRE,Study1,B,43,30,Test,User,-,,Recall,Recall2,9662,jumper,16.666666666667,8135,9511,0,0,,,1
5c09273b81c2ad00019d1dcc,wji7834siw,"Deep vs Shallow",1,297,2020-07-08T15:08:03-07:00,6.9791579246521,6,versionA_stim.csv,VC_VersionB.csv,"Version B","VC Version B",KIDNEY,LIVER,Study1,S,53,67,Test,User,-,,Recall,Recall2,6198,body,0,3942,4845,0,0,,,1
5c09273b81c2ad00019d1dcc,wji7834siw,"Deep vs Shallow",1,298,2020-07-08T15:08:06-07:00,2.7349801063538,6,versionA_stim.csv,VC_VersionB.csv,"Version B","VC Version B",TUNA,FISH,Study1,F,25,37,Test,User,-,,Recall,Recall2,2140,fish,100,1439,1813,1,1,,,1
5c09273b81c2ad00019d1dcc,wji7834siw,"Deep vs Shallow",1,299,2020-07-08T15:08:13-07:00,7.0468158721924,6,versionA_stim.csv,VC_VersionB.csv,"Version B","VC Version B",SENTENCE,WORD,Study1,B,31,75,Test,User,-,,Recall,Recall2,6466,write,44.444444444444,5121,6004,0,0,,,1
5c09273b81c2ad00019d1dcc,wji7834siw,"Deep vs Shallow",1,300,2020-07-08T15:08:21-07:00,7.7030391693115,6,versionA_stim.csv,VC_VersionB.csv,"Version B","VC Version B",BABY,CHILD,Study1,S,64,70,Test,User,-,,Recall,Recall2,7088,child,100,5645,6885,1,1,,,1
5c09273b81c2ad00019d1dcc,wji7834siw,"Deep vs Shallow",1,301,2020-07-08T15:08:25-07:00,4.354877948761,6,versionA_stim.csv,VC_VersionB.csv,"Version B","VC Version B",GREAT,FANTASTIC,Study1,B,35,17,Test,User,-,,Recall,Recall2,3764,fantastic,100,2146,3401,1,1,,,1
5c09273b81c2ad00019d1dcc,wji7834siw,"Deep vs Shallow",1,302,2020-07-08T15:08:35-07:00,10.450105905533,6,versionA_stim.csv,VC_VersionB.csv,"Version B","VC Version B",MATH,DIVISION,Study1,B,33,60,Test,User,-,,Recall,Recall2,9836,divide,57.142857142857,8450,9377,0,0,,,1
5c09273b81c2ad00019d1dcc,wji7834siw,"Deep vs Shallow",1,303,2020-07-08T15:08:41-07:00,5.8093481063843,6,versionA_stim.csv,VC_VersionB.csv,"Version B","VC Version B",ROOT,PLANT,Study1,F,13,77,Test,User,-,,Recall,Recall2,5041,trees,20,3446,4813,0,0,,,1
5c09273b81c2ad00019d1dcc,wji7834siw,"Deep vs Shallow",1,304,2020-07-08T15:08:44-07:00,3.0023629665375,6,versionA_stim.csv,VC_VersionB.csv,"Version B","VC Version B",HOT,CHILI,Study1,B,37,54,Test,User,-,,Recall,Recall2,2417,cold,44.444444444444,1578,2237,0,0,,,1
5c09273b81c2ad00019d1dcc,wji7834siw,"Deep vs Shallow",1,305,2020-07-08T15:08:48-07:00,3.929162979126,6,versionA_stim.csv,VC_VersionB.csv,"Version B","VC Version B",BEGIN,END,Study1,S,54,41,Test,User,-,,Recall,Recall2,3346,end,100,2712,2940,1,1,,,1
5c09273b81c2ad00019d1dcc,wji7834siw,"Deep vs Shallow",1,306,2020-07-08T15:08:53-07:00,5.3469820022583,6,versionA_stim.csv,VC_VersionB.csv,"Version B","VC Version B",ARTERY,BRONZE,Study1,U,74,56,Test,User,-,,Recall,Recall2,4718,body,40,3925,4461,0,0,,,1
5c09273b81c2ad00019d1dcc,wji7834siw,"Deep vs Shallow",1,307,2020-07-08T15:08:57-07:00,3.2701330184937,6,versionA_stim.csv,VC_VersionB.csv,"Version B","VC Version B",WAGE,MONEY,Study1,F,8,18,Test,User,-,,Recall,Recall2,2674,money,100,1804,2390,1,1,,,1
5c09273b81c2ad00019d1dcc,wji7834siw,"Deep vs Shallow",1,308,2020-07-08T15:08:59-07:00,2.7585928440094,6,versionA_stim.csv,VC_VersionB.csv,"Version B","VC Version B",TAKE,SEIZE,Study1,B,29,81,Test,User,-,,Recall,Recall2,2162,give,44.444444444444,1549,1999,0,0,,,1
5c09273b81c2ad00019d1dcc,wji7834siw,"Deep vs Shallow",1,309,2020-07-08T15:09:11-07:00,12.044282197952,6,versionA_stim.csv,VC_VersionB.csv,"Version B","VC Version B",LOCATION,SITE,Study1,S,48,64,Test,User,-,,Recall,Recall2,11441,holiday,18.181818181818,7276,11102,0,0,,,1
5c09273b81c2ad00019d1dcc,wji7834siw,"Deep vs Shallow",1,310,2020-07-08T15:09:27-07:00,15.557502985001,6,versionA_stim.csv,VC_VersionB.csv,"Version B","VC Version B",TRIAL,JURY,Study1,S,50,24,Test,User,-,,Recall,Recall2,14785,jury,100,2081,4558,1,1,,,0.676
5c09273b81c2ad00019d1dcc,wji7834siw,"Deep vs Shallow",1,311,2020-07-08T15:09:33-07:00,6.184562921524,6,versionA_stim.csv,VC_VersionB.csv,"Version B","VC Version B",WINE,CHEESE,Study1,S,57,31,Test,User,-,,Recall,Recall2,5312,drink,0,4061,4836,0,0,,,0.852
5c09273b81c2ad00019d1dcc,wji7834siw,"Deep vs Shallow",1,312,2020-07-08T15:09:36-07:00,2.8999779224396,6,versionA_stim.csv,VC_VersionB.csv,"Version B","VC Version B",REVOLUTION,WAR,Study1,F,20,80,Test,User,-,,Recall,Recall2,2319,,0,-1,-1,0,0,,,1
5c09273b81c2ad00019d1dcc,wji7834siw,"Deep vs Shallow",1,313,2020-07-08T15:09:42-07:00,5.6895360946655,6,versionA_stim.csv,VC_VersionB.csv,"Version B","VC Version B",VALLEY,ADD,Study1,U,82,59,Test,User,-,,Recall,Recall2,5099,green,0,2853,4397,0,0,,,1
5c09273b81c2ad00019d1dcc,wji7834siw,"Deep vs Shallow",1,314,2020-07-08T15:09:49-07:00,7.2639570236206,6,versionA_stim.csv,VC_VersionB.csv,"Version B","VC Version B",HAPPY,CAR,Study1,U,77,45,Test,User,-,,Recall,Recall2,6658,dog,0,5829,6275,0,0,,,1
5c09273b81c2ad00019d1dcc,wji7834siw,"Deep vs Shallow",1,315,2020-07-08T15:10:03-07:00,13.759707927704,6,versionA_stim.csv,VC_VersionB.csv,"Version B","VC Version B",DISCUSSION,TALK,Study1,F,21,23,Test,User,-,,Recall,Recall2,13171,advice,20,8513,12668,0,0,,,1
5c09273b81c2ad00019d1dcc,wji7834siw,"Deep vs Shallow",1,316,2020-07-08T15:10:07-07:00,4.2663569450378,6,versionA_stim.csv,VC_VersionB.csv,"Version B","VC Version B",FIX,HAND,Study1,U,75,27,Test,User,-,,Recall,Recall2,3476,break,22.222222222222,2701,3207,0,0,,,1
5c09273b81c2ad00019d1dcc,wji7834siw,"Deep vs Shallow",1,317,2020-07-08T15:10:11-07:00,4.243684053421,6,versionA_stim.csv,VC_VersionB.csv,"Version B","VC Version B",PAW,DOG,Study1,F,15,20,Test,User,-,,Recall,Recall2,3652,dog,100,2829,3177,1,1,,,1
5c09273b81c2ad00019d1dcc,wji7834siw,"Deep vs Shallow",1,318,2020-07-08T15:10:19-07:00,7.6348600387573,6,versionA_stim.csv,VC_VersionB.csv,"Version B","VC Version B",EDITOR,NEWS,Study1,F,10,50,Test,User,-,,Recall,Recall2,7062,create,20,5700,6730,0,0,,,1
5c09273b81c2ad00019d1dcc,wji7834siw,"Deep vs Shallow",1,319,2020-07-08T15:10:26-07:00,6.8753759860992,6,versionA_stim.csv,VC_VersionB.csv,"Version B","VC Version B",BATHROOM,TOILET,Study1,S,58,9,Test,User,-,,Recall,Recall2,6280,sink,20,5604,6082,0,0,,,1
