Username,ID,ExperimentName,Session,Trial,Date,TimeDif,"Condition Number","Stimuli File","Order File","Condition Description","Condition Notes",Stimuli*Cue,Stimuli*Answer,Stimuli*Shuffle,"Stimuli*Stimuli Notes",Stimuli*Value,Procedure*Item,"Procedure*Trial Type","Procedure*Max Time","Procedure*Min Time",Procedure*Text,"Procedure*Procedure Notes",Procedure*Shuffle,Response*RT,Response*Response,Response*Accuracy,Response*RTfirst,Response*RTlast,Response*strictAcc,Response*lenientAcc,Response*focus,Response*JOL,Response*Focus
5e8cb90b7ddf6e04e6ca57f2,zqep8lcam8,"Deep vs Shallow",1,1,2020-07-08T14:16:34-07:00,7.4377818107605,6,versionA_stim.csv,VC_VersionB.csv,"Version B","VC Version B",,,,,,0,Instruct,-,5,"In this section, you will be presented with a series of word pairs.",Initial_Instruct,Instruct1,7079,,,-1,-1,,,,,1
5e8cb90b7ddf6e04e6ca57f2,zqep8lcam8,"Deep vs Shallow",1,2,2020-07-08T14:16:42-07:00,7.5860660076141,6,versionA_stim.csv,VC_VersionB.csv,"Version B","VC Version B",,,,,,0,Instruct,-,5,"As you study, you will be asked to count the total number of vowels (a, e, i, o, u) within the two words. Please note that y is not considered a vowel.",,Instruct13,6988,,,-1,-1,,,,,1
5e8cb90b7ddf6e04e6ca57f2,zqep8lcam8,"Deep vs Shallow",1,3,2020-07-08T14:16:54-07:00,12.28401517868,6,versionA_stim.csv,VC_VersionB.csv,"Version B","VC Version B",,,,,,0,Instruct,-,10,"For example, if you are given the pair CAT - DOG, CAT has one vowel and DOG has one vowel. The correct response would be 2 (1 + 1 = 2). After typing the number, you will press ENTER to move to the next pair.",,Instruct14,11529,,,-1,-1,,,,,1
5e8cb90b7ddf6e04e6ca57f2,zqep8lcam8,"Deep vs Shallow",1,4,2020-07-08T14:16:58-07:00,4.2118678092957,6,versionA_stim.csv,VC_VersionB.csv,"Version B","VC Version B",,,,,,0,Instruct,User,-,"You will now begin the study. Press Enter when you are ready to begin.",,Instruct16,3607,,,-1,-1,,,,,1
5e8cb90b7ddf6e04e6ca57f2,zqep8lcam8,"Deep vs Shallow",1,5,2020-07-08T14:17:14-07:00,15.652224063873,6,versionA_stim.csv,VC_VersionB.csv,"Version B","VC Version B",NOODLE,STRING,BUFFER3,Buffer,92,93,VC,User,-,"How many vowels are the two words combined?|Type your response below and then press Enter.",Study/JOL,BUFFER,15016,,,12165,12166,,,,4,1
5e8cb90b7ddf6e04e6ca57f2,zqep8lcam8,"Deep vs Shallow",1,6,2020-07-08T14:17:28-07:00,13.743377923965,6,versionA_stim.csv,VC_VersionB.csv,"Version B","VC Version B",ICE,FROZEN,BUFFER3,Buffer,94,95,VC,User,-,"How many vowels are the two words combined?|Type your response below and then press Enter.",Study/JOL,BUFFER,13189,,,10804,10804,,,,3,1
5e8cb90b7ddf6e04e6ca57f2,zqep8lcam8,"Deep vs Shallow",1,7,2020-07-08T14:17:39-07:00,11.240092992783,6,versionA_stim.csv,VC_VersionB.csv,"Version B","VC Version B",SHRIMP,FISH,BUFFER3,Buffer,93,92,VC,User,-,"How many vowels are the two words combined?|Type your response below and then press Enter.",Study/JOL,BUFFER,10673,,,9431,9431,,,,2,1
5e8cb90b7ddf6e04e6ca57f2,zqep8lcam8,"Deep vs Shallow",1,8,2020-07-08T14:17:47-07:00,8.0890262126923,6,versionA_stim.csv,VC_VersionB.csv,"Version B","VC Version B",CARROT,POTATO,BUFFER3,Buffer,91,96,VC,User,-,"How many vowels are the two words combined?|Type your response below and then press Enter.",Study/JOL,BUFFER,7557,,,6555,6555,,,,5,1
5e8cb90b7ddf6e04e6ca57f2,zqep8lcam8,"Deep vs Shallow",1,9,2020-07-08T14:17:54-07:00,7.3722388744354,6,versionA_stim.csv,VC_VersionB.csv,"Version B","VC Version B",CAMP,ADVENTURE,BUFFER3,Buffer,95,94,VC,User,-,"How many vowels are the two words combined?|Type your response below and then press Enter.",Study/JOL,BUFFER,6890,,,5871,5872,,,,5,1
5e8cb90b7ddf6e04e6ca57f2,zqep8lcam8,"Deep vs Shallow",1,10,2020-07-08T14:18:04-07:00,9.2188549041748,6,versionA_stim.csv,VC_VersionB.csv,"Version B","VC Version B",BAD,VILLAIN,Study2,B,118,157,VC,User,-,"How many vowels are the two words combined?|Type your response below and then press Enter.",Study/JOL,"Study Phase",8588,,,7475,7475,,,,4,1
5e8cb90b7ddf6e04e6ca57f2,zqep8lcam8,"Deep vs Shallow",1,11,2020-07-08T14:18:13-07:00,9.2133460044861,6,versionA_stim.csv,VC_VersionB.csv,"Version B","VC Version B",ADJOURN,END,Study2,F,101,147,VC,User,-,"How many vowels are the two words combined?|Type your response below and then press Enter.",Study/JOL,"Study Phase",8662,,,6346,6346,,,,3,1
5e8cb90b7ddf6e04e6ca57f2,zqep8lcam8,"Deep vs Shallow",1,12,2020-07-08T14:18:21-07:00,7.9881641864777,6,versionA_stim.csv,VC_VersionB.csv,"Version B","VC Version B",FIGHT,BRAWL,Study2,B,135,160,VC,User,-,"How many vowels are the two words combined?|Type your response below and then press Enter.",Study/JOL,"Study Phase",7361,,,6444,6445,,,,2,1
5e8cb90b7ddf6e04e6ca57f2,zqep8lcam8,"Deep vs Shallow",1,13,2020-07-08T14:18:27-07:00,5.7353458404541,6,versionA_stim.csv,VC_VersionB.csv,"Version B","VC Version B",MAIN,SCAR,Study2,U,175,120,VC,User,-,"How many vowels are the two words combined?|Type your response below and then press Enter.",Study/JOL,"Study Phase",5074,,,4233,4234,,,,3,1
5e8cb90b7ddf6e04e6ca57f2,zqep8lcam8,"Deep vs Shallow",1,14,2020-07-08T14:18:33-07:00,6.3470990657806,6,versionA_stim.csv,VC_VersionB.csv,"Version B","VC Version B",KEYS,JOKE,Study2,U,165,141,VC,User,-,"How many vowels are the two words combined?|Type your response below and then press Enter.",Study/JOL,"Study Phase",5729,,,4872,4872,,,,3,1
5e8cb90b7ddf6e04e6ca57f2,zqep8lcam8,"Deep vs Shallow",1,15,2020-07-08T14:18:39-07:00,6.3502790927887,6,versionA_stim.csv,VC_VersionB.csv,"Version B","VC Version B",LITTER,TRASH,Study2,F,103,119,VC,User,-,"How many vowels are the two words combined?|Type your response below and then press Enter.",Study/JOL,"Study Phase",5862,,,5058,5059,,,,3,1
5e8cb90b7ddf6e04e6ca57f2,zqep8lcam8,"Deep vs Shallow",1,16,2020-07-08T14:18:47-07:00,7.4786198139191,6,versionA_stim.csv,VC_VersionB.csv,"Version B","VC Version B",ROD,REEL,Study2,S,150,159,VC,User,-,"How many vowels are the two words combined?|Type your response below and then press Enter.",Study/JOL,"Study Phase",6904,,,4111,4111,,,,3,1
5e8cb90b7ddf6e04e6ca57f2,zqep8lcam8,"Deep vs Shallow",1,17,2020-07-08T14:18:53-07:00,6.6553370952606,6,versionA_stim.csv,VC_VersionB.csv,"Version B","VC Version B",SLEEP,NAP,Study2,B,134,171,VC,User,-,"How many vowels are the two words combined?|Type your response below and then press Enter.",Study/JOL,"Study Phase",6043,,,4426,4426,,,,3,1
5e8cb90b7ddf6e04e6ca57f2,zqep8lcam8,"Deep vs Shallow",1,18,2020-07-08T14:19:01-07:00,7.2685351371765,6,versionA_stim.csv,VC_VersionB.csv,"Version B","VC Version B",BASEBALL,LEAGUE,Study2,B,131,121,VC,User,-,"How many vowels are the two words combined?|Type your response below and then press Enter.",Study/JOL,"Study Phase",6686,,,5820,5820,,,,7,1
5e8cb90b7ddf6e04e6ca57f2,zqep8lcam8,"Deep vs Shallow",1,19,2020-07-08T14:19:07-07:00,5.9392819404602,6,versionA_stim.csv,VC_VersionB.csv,"Version B","VC Version B",CHERRY,RED,Study2,F,104,146,VC,User,-,"How many vowels are the two words combined?|Type your response below and then press Enter.",Study/JOL,"Study Phase",5381,,,4448,4448,,,,2,1
5e8cb90b7ddf6e04e6ca57f2,zqep8lcam8,"Deep vs Shallow",1,20,2020-07-08T14:19:13-07:00,6.5522198677063,6,versionA_stim.csv,VC_VersionB.csv,"Version B","VC Version B",POP,BALLOON,Study2,B,123,158,VC,User,-,"How many vowels are the two words combined?|Type your response below and then press Enter.",Study/JOL,"Study Phase",5971,,,5095,5096,,,,4,1
5e8cb90b7ddf6e04e6ca57f2,zqep8lcam8,"Deep vs Shallow",1,21,2020-07-08T14:19:19-07:00,5.3362991809845,6,versionA_stim.csv,VC_VersionB.csv,"Version B","VC Version B",TURN,FLIP,Study2,B,116,100,VC,User,-,"How many vowels are the two words combined?|Type your response below and then press Enter.",Study/JOL,"Study Phase",4676,,,3700,3700,,,,2,1
5e8cb90b7ddf6e04e6ca57f2,zqep8lcam8,"Deep vs Shallow",1,22,2020-07-08T14:19:27-07:00,7.9753878116608,6,versionA_stim.csv,VC_VersionB.csv,"Version B","VC Version B",AFFECTION,LOVE,Study2,F,115,110,VC,User,-,"How many vowels are the two words combined?|Type your response below and then press Enter.",Study/JOL,"Study Phase",7350,,,6382,6383,,,,6,1
5e8cb90b7ddf6e04e6ca57f2,zqep8lcam8,"Deep vs Shallow",1,23,2020-07-08T14:19:33-07:00,6.144504070282,6,versionA_stim.csv,VC_VersionB.csv,"Version B","VC Version B",Shell,SHAKE,Study2,U,163,114,VC,User,-,"How many vowels are the two words combined?|Type your response below and then press Enter.",Study/JOL,"Study Phase",5442,,,4682,4682,,,,3,1
5e8cb90b7ddf6e04e6ca57f2,zqep8lcam8,"Deep vs Shallow",1,24,2020-07-08T14:19:41-07:00,7.9891591072083,6,versionA_stim.csv,VC_VersionB.csv,"Version B","VC Version B",HONEST,TRUTHFUL,Study2,B,133,165,VC,User,-,"How many vowels are the two words combined?|Type your response below and then press Enter.",Study/JOL,"Study Phase",7347,,,6529,6530,,,,4,1
5e8cb90b7ddf6e04e6ca57f2,zqep8lcam8,"Deep vs Shallow",1,25,2020-07-08T14:19:48-07:00,7.7811958789825,6,versionA_stim.csv,VC_VersionB.csv,"Version B","VC Version B",CLUE,GAME,Study2,F,97,156,VC,User,-,"How many vowels are the two words combined?|Type your response below and then press Enter.",Study/JOL,"Study Phase",7130,,,6155,6155,,,,4,1
5e8cb90b7ddf6e04e6ca57f2,zqep8lcam8,"Deep vs Shallow",1,26,2020-07-08T14:19:54-07:00,5.6322550773621,6,versionA_stim.csv,VC_VersionB.csv,"Version B","VC Version B",FLEA,TICK,Study2,S,151,143,VC,User,-,"How many vowels are the two words combined?|Type your response below and then press Enter.",Study/JOL,"Study Phase",5026,,,4201,4201,,,,3,1
5e8cb90b7ddf6e04e6ca57f2,zqep8lcam8,"Deep vs Shallow",1,27,2020-07-08T14:20:00-07:00,6.1423809528351,6,versionA_stim.csv,VC_VersionB.csv,"Version B","VC Version B",CANDLE,WAX,Study2,S,139,103,VC,User,-,"How many vowels are the two words combined?|Type your response below and then press Enter.",Study/JOL,"Study Phase",5453,,,4599,4599,,,,3,1
5e8cb90b7ddf6e04e6ca57f2,zqep8lcam8,"Deep vs Shallow",1,28,2020-07-08T14:20:06-07:00,5.9407711029053,6,versionA_stim.csv,VC_VersionB.csv,"Version B","VC Version B",DINE,EAT,Study2,F,111,108,VC,User,-,"How many vowels are the two words combined?|Type your response below and then press Enter.",Study/JOL,"Study Phase",5340,,,4481,4482,,,,4,1
5e8cb90b7ddf6e04e6ca57f2,zqep8lcam8,"Deep vs Shallow",1,29,2020-07-08T14:20:13-07:00,7.0659699440002,6,versionA_stim.csv,VC_VersionB.csv,"Version B","VC Version B",LEASE,TOIL,Study2,U,170,115,VC,User,-,"How many vowels are the two words combined?|Type your response below and then press Enter.",Study/JOL,"Study Phase",6455,,,5563,5563,,,,5,1
5e8cb90b7ddf6e04e6ca57f2,zqep8lcam8,"Deep vs Shallow",1,30,2020-07-08T14:20:20-07:00,6.3471920490265,6,versionA_stim.csv,VC_VersionB.csv,"Version B","VC Version B",STRETCH,CLOTH,Study2,U,157,132,VC,User,-,"How many vowels are the two words combined?|Type your response below and then press Enter.",Study/JOL,"Study Phase",5775,,,4841,4841,,,,2,1
5e8cb90b7ddf6e04e6ca57f2,zqep8lcam8,"Deep vs Shallow",1,31,2020-07-08T14:20:26-07:00,5.9422888755798,6,versionA_stim.csv,VC_VersionB.csv,"Version B","VC Version B",MULE,DONKEY,Study2,F,108,166,VC,User,-,"How many vowels are the two words combined?|Type your response below and then press Enter.",Study/JOL,"Study Phase",5290,,,4458,4458,,,,4,1
5e8cb90b7ddf6e04e6ca57f2,zqep8lcam8,"Deep vs Shallow",1,32,2020-07-08T14:20:32-07:00,6.3464050292969,6,versionA_stim.csv,VC_VersionB.csv,"Version B","VC Version B",FEUD,FIGHT,Study2,F,113,131,VC,User,-,"How many vowels are the two words combined?|Type your response below and then press Enter.",Study/JOL,"Study Phase",5749,,,4930,4930,,,,3,1
5e8cb90b7ddf6e04e6ca57f2,zqep8lcam8,"Deep vs Shallow",1,33,2020-07-08T14:20:38-07:00,6.1443309783936,6,versionA_stim.csv,VC_VersionB.csv,"Version B","VC Version B",ELEMENT,CARBON,Study2,S,141,130,VC,User,-,"How many vowels are the two words combined?|Type your response below and then press Enter.",Study/JOL,"Study Phase",5539,,,4723,4724,,,,5,1
5e8cb90b7ddf6e04e6ca57f2,zqep8lcam8,"Deep vs Shallow",1,34,2020-07-08T14:20:44-07:00,6.4523959159851,6,versionA_stim.csv,VC_VersionB.csv,"Version B","VC Version B",CAT,PANTHER,Study2,B,126,118,VC,User,-,"How many vowels are the two words combined?|Type your response below and then press Enter.",Study/JOL,"Study Phase",5831,,,4952,4952,,,,3,1
5e8cb90b7ddf6e04e6ca57f2,zqep8lcam8,"Deep vs Shallow",1,35,2020-07-08T14:20:53-07:00,8.2929971218109,6,versionA_stim.csv,VC_VersionB.csv,"Version B","VC Version B",EVEN,REVENGE,Study2,B,122,140,VC,User,-,"How many vowels are the two words combined?|Type your response below and then press Enter.",Study/JOL,"Study Phase",7736,,,5548,5549,,,,5,1
5e8cb90b7ddf6e04e6ca57f2,zqep8lcam8,"Deep vs Shallow",1,36,2020-07-08T14:21:02-07:00,9.3284809589386,6,versionA_stim.csv,VC_VersionB.csv,"Version B","VC Version B",BEST,FAVORITE,Study2,B,125,117,VC,User,-,"How many vowels are the two words combined?|Type your response below and then press Enter.",Study/JOL,"Study Phase",8663,,,7835,7835,,,,5,1
5e8cb90b7ddf6e04e6ca57f2,zqep8lcam8,"Deep vs Shallow",1,37,2020-07-08T14:21:10-07:00,7.5668759346008,6,versionA_stim.csv,VC_VersionB.csv,"Version B","VC Version B",INCENSE,SMELL,Study2,F,110,102,VC,User,-,"How many vowels are the two words combined?|Type your response below and then press Enter.",Study/JOL,"Study Phase",6969,,,5486,5486,,,,4,1
5e8cb90b7ddf6e04e6ca57f2,zqep8lcam8,"Deep vs Shallow",1,38,2020-07-08T14:21:15-07:00,5.2251381874084,6,versionA_stim.csv,VC_VersionB.csv,"Version B","VC Version B",NAME,HATE,Study2,U,167,122,VC,User,-,"How many vowels are the two words combined?|Type your response below and then press Enter.",Study/JOL,"Study Phase",4635,,,3826,3826,,,,4,1
5e8cb90b7ddf6e04e6ca57f2,zqep8lcam8,"Deep vs Shallow",1,39,2020-07-08T14:21:24-07:00,9.1124379634857,6,versionA_stim.csv,VC_VersionB.csv,"Version B","VC Version B",CACTUS,PLANT,Study2,F,98,127,VC,User,-,"How many vowels are the two words combined?|Type your response below and then press Enter.",Study/JOL,"Study Phase",8564,,,7336,7337,,,,3,1
5e8cb90b7ddf6e04e6ca57f2,zqep8lcam8,"Deep vs Shallow",1,40,2020-07-08T14:21:34-07:00,9.9322829246521,6,versionA_stim.csv,VC_VersionB.csv,"Version B","VC Version B",CAR,WINDSHIELD,Study2,B,117,142,VC,User,-,"How many vowels are the two words combined?|Type your response below and then press Enter.",Study/JOL,"Study Phase",9265,,,7889,7890,,,,4,1
5e8cb90b7ddf6e04e6ca57f2,zqep8lcam8,"Deep vs Shallow",1,41,2020-07-08T14:21:39-07:00,5.3281021118164,6,versionA_stim.csv,VC_VersionB.csv,"Version B","VC Version B",TRUTH,LIE,Study2,S,148,97,VC,User,-,"How many vowels are the two words combined?|Type your response below and then press Enter.",Study/JOL,"Study Phase",4702,,,3819,3819,,,,3,1
5e8cb90b7ddf6e04e6ca57f2,zqep8lcam8,"Deep vs Shallow",1,42,2020-07-08T14:21:48-07:00,8.50008893013,6,versionA_stim.csv,VC_VersionB.csv,"Version B","VC Version B",DETECTIVE,MYSTERY,Study2,F,100,153,VC,User,-,"How many vowels are the two words combined?|Type your response below and then press Enter.",Study/JOL,"Study Phase",7948,,,7148,7148,,,,5,1
5e8cb90b7ddf6e04e6ca57f2,zqep8lcam8,"Deep vs Shallow",1,43,2020-07-08T14:21:54-07:00,6.3441479206085,6,versionA_stim.csv,VC_VersionB.csv,"Version B","VC Version B",WRIST,BRACELET,Study2,S,140,129,VC,User,-,"How many vowels are the two words combined?|Type your response below and then press Enter.",Study/JOL,"Study Phase",5780,,,4900,4901,,,,4,1
5e8cb90b7ddf6e04e6ca57f2,zqep8lcam8,"Deep vs Shallow",1,44,2020-07-08T14:22:04-07:00,9.5238490104675,6,versionA_stim.csv,VC_VersionB.csv,"Version B","VC Version B",TEMPERATURE,Morning,Study2,U,173,144,VC,User,-,"How many vowels are the two words combined?|Type your response below and then press Enter.",Study/JOL,"Study Phase",8923,,,8003,8003,,,,7,1
5e8cb90b7ddf6e04e6ca57f2,zqep8lcam8,"Deep vs Shallow",1,45,2020-07-08T14:22:10-07:00,6.1455731391907,6,versionA_stim.csv,VC_VersionB.csv,"Version B","VC Version B",OWN,HAVE,Study2,S,153,109,VC,User,-,"How many vowels are the two words combined?|Type your response below and then press Enter.",Study/JOL,"Study Phase",5506,,,4282,4282,,,,3,1
5e8cb90b7ddf6e04e6ca57f2,zqep8lcam8,"Deep vs Shallow",1,46,2020-07-08T14:22:16-07:00,6.0562789440155,6,versionA_stim.csv,VC_VersionB.csv,"Version B","VC Version B",MAZE,ELECTION,Study2,U,159,124,VC,User,-,"How many vowels are the two words combined?|Type your response below and then press Enter.",Study/JOL,"Study Phase",5317,,,4526,4526,,,,6,1
5e8cb90b7ddf6e04e6ca57f2,zqep8lcam8,"Deep vs Shallow",1,47,2020-07-08T14:22:22-07:00,6.2321438789368,6,versionA_stim.csv,VC_VersionB.csv,"Version B","VC Version B",STAR,ACTRESS,Study2,B,120,101,VC,User,-,"How many vowels are the two words combined?|Type your response below and then press Enter.",Study/JOL,"Study Phase",5633,,,4557,4558,,,,3,1
5e8cb90b7ddf6e04e6ca57f2,zqep8lcam8,"Deep vs Shallow",1,48,2020-07-08T14:22:28-07:00,5.5296800136566,6,versionA_stim.csv,VC_VersionB.csv,"Version B","VC Version B",MONEY,BANKER,Study2,B,132,126,VC,User,-,"How many vowels are the two words combined?|Type your response below and then press Enter.",Study/JOL,"Study Phase",4816,,,3976,3976,,,,4,1
5e8cb90b7ddf6e04e6ca57f2,zqep8lcam8,"Deep vs Shallow",1,49,2020-07-08T14:22:33-07:00,5.7353849411011,6,versionA_stim.csv,VC_VersionB.csv,"Version B","VC Version B",MIRROR,CHILDREN,Study2,U,174,134,VC,User,-,"How many vowels are the two words combined?|Type your response below and then press Enter.",Study/JOL,"Study Phase",5141,,,4355,4356,,,,4,1
5e8cb90b7ddf6e04e6ca57f2,zqep8lcam8,"Deep vs Shallow",1,50,2020-07-08T14:22:40-07:00,7.172003030777,6,versionA_stim.csv,VC_VersionB.csv,"Version B","VC Version B",SHOELACE,TIE,Study2,F,99,148,VC,User,-,"How many vowels are the two words combined?|Type your response below and then press Enter.",Study/JOL,"Study Phase",6530,,,5746,5746,,,,6,1
5e8cb90b7ddf6e04e6ca57f2,zqep8lcam8,"Deep vs Shallow",1,51,2020-07-08T14:22:50-07:00,9.8237431049347,6,versionA_stim.csv,VC_VersionB.csv,"Version B","VC Version B",RAZOR,SHAVE,Study2,S,136,139,VC,User,-,"How many vowels are the two words combined?|Type your response below and then press Enter.",Study/JOL,"Study Phase",9212,,,8418,8418,,,,4,1
5e8cb90b7ddf6e04e6ca57f2,zqep8lcam8,"Deep vs Shallow",1,52,2020-07-08T14:22:56-07:00,5.4293320178986,6,versionA_stim.csv,VC_VersionB.csv,"Version B","VC Version B",EARTH,GROUND,Study2,S,144,169,VC,User,-,"How many vowels are the two words combined?|Type your response below and then press Enter.",Study/JOL,"Study Phase",4818,,,4034,4034,,,,4,1
5e8cb90b7ddf6e04e6ca57f2,zqep8lcam8,"Deep vs Shallow",1,53,2020-07-08T14:23:01-07:00,5.733766078949,6,versionA_stim.csv,VC_VersionB.csv,"Version B","VC Version B",LISTEN,FICTION,Study2,U,164,133,VC,User,-,"How many vowels are the two words combined?|Type your response below and then press Enter.",Study/JOL,"Study Phase",5175,,,4309,4309,,,,5,1
5e8cb90b7ddf6e04e6ca57f2,zqep8lcam8,"Deep vs Shallow",1,54,2020-07-08T14:23:09-07:00,7.5769619941711,6,versionA_stim.csv,VC_VersionB.csv,"Version B","VC Version B",EXTENSION,LONG,Study2,F,96,161,VC,User,-,"How many vowels are the two words combined?|Type your response below and then press Enter.",Study/JOL,"Study Phase",7004,,,6148,6148,,,,5,1
5e8cb90b7ddf6e04e6ca57f2,zqep8lcam8,"Deep vs Shallow",1,55,2020-07-08T14:23:16-07:00,7.3014249801636,6,versionA_stim.csv,VC_VersionB.csv,"Version B","VC Version B",SHEARS,SCISSORS,Study2,F,112,104,VC,User,-,"How many vowels are the two words combined?|Type your response below and then press Enter.",Study/JOL,"Study Phase",6705,,,5877,5877,,,,4,1
5e8cb90b7ddf6e04e6ca57f2,zqep8lcam8,"Deep vs Shallow",1,56,2020-07-08T14:23:25-07:00,8.5760698318481,6,versionA_stim.csv,VC_VersionB.csv,"Version B","VC Version B",SAFETY,SEATBELT,Study2,S,147,164,VC,User,-,"How many vowels are the two words combined?|Type your response below and then press Enter.",Study/JOL,"Study Phase",8029,,,7148,7149,,,,5,1
5e8cb90b7ddf6e04e6ca57f2,zqep8lcam8,"Deep vs Shallow",1,57,2020-07-08T14:23:31-07:00,5.7309880256653,6,versionA_stim.csv,VC_VersionB.csv,"Version B","VC Version B",SUN,TAN,Study2,S,155,162,VC,User,-,"How many vowels are the two words combined?|Type your response below and then press Enter.",Study/JOL,"Study Phase",5095,,,3945,3945,,,,2,1
5e8cb90b7ddf6e04e6ca57f2,zqep8lcam8,"Deep vs Shallow",1,58,2020-07-08T14:23:39-07:00,8.5004680156708,6,versionA_stim.csv,VC_VersionB.csv,"Version B","VC Version B",PLANE,AIRCRAFT,Study2,B,129,136,VC,User,-,"How many vowels are the two words combined?|Type your response below and then press Enter.",Study/JOL,"Study Phase",7823,,,6936,6936,,,,5,1
5e8cb90b7ddf6e04e6ca57f2,zqep8lcam8,"Deep vs Shallow",1,59,2020-07-08T14:23:47-07:00,7.4734590053558,6,versionA_stim.csv,VC_VersionB.csv,"Version B","VC Version B",THREAD,THIMBLE,Study2,B,121,154,VC,User,-,"How many vowels are the two words combined?|Type your response below and then press Enter.",Study/JOL,"Study Phase",6888,,,6109,6109,,,,4,1
5e8cb90b7ddf6e04e6ca57f2,zqep8lcam8,"Deep vs Shallow",1,60,2020-07-08T14:23:53-07:00,6.5510809421539,6,versionA_stim.csv,VC_VersionB.csv,"Version B","VC Version B",GONE,AWAY,Study2,S,142,123,VC,User,-,"How many vowels are the two words combined?|Type your response below and then press Enter.",Study/JOL,"Study Phase",5942,,,5090,5090,,,,4,1
5e8cb90b7ddf6e04e6ca57f2,zqep8lcam8,"Deep vs Shallow",1,61,2020-07-08T14:23:59-07:00,6.0420961380005,6,versionA_stim.csv,VC_VersionB.csv,"Version B","VC Version B",CAKE,CLOTHES,Study2,U,166,137,VC,User,-,"How many vowels are the two words combined?|Type your response below and then press Enter.",Study/JOL,"Study Phase",5387,,,4337,4337,,,,4,1
5e8cb90b7ddf6e04e6ca57f2,zqep8lcam8,"Deep vs Shallow",1,62,2020-07-08T14:24:06-07:00,7.2702000141144,6,versionA_stim.csv,VC_VersionB.csv,"Version B","VC Version B",JUSTICE,MAROON,Study2,U,156,175,VC,User,-,"How many vowels are the two words combined?|Type your response below and then press Enter.",Study/JOL,"Study Phase",6561,,,5727,5727,,,,6,1
5e8cb90b7ddf6e04e6ca57f2,zqep8lcam8,"Deep vs Shallow",1,63,2020-07-08T14:24:12-07:00,5.7468228340149,6,versionA_stim.csv,VC_VersionB.csv,"Version B","VC Version B",LOAN,SIGN,Study2,U,171,168,VC,User,-,"How many vowels are the two words combined?|Type your response below and then press Enter.",Study/JOL,"Study Phase",5029,,,4239,4239,,,,3,1
5e8cb90b7ddf6e04e6ca57f2,zqep8lcam8,"Deep vs Shallow",1,64,2020-07-08T14:24:18-07:00,5.6306161880493,6,versionA_stim.csv,VC_VersionB.csv,"Version B","VC Version B",DRIVER,CAR,Study2,F,106,99,VC,User,-,"How many vowels are the two words combined?|Type your response below and then press Enter.",Study/JOL,"Study Phase",5075,,,4230,4230,,,,3,1
5e8cb90b7ddf6e04e6ca57f2,zqep8lcam8,"Deep vs Shallow",1,65,2020-07-08T14:24:25-07:00,6.9519708156586,6,versionA_stim.csv,VC_VersionB.csv,"Version B","VC Version B",MASON,JAR,Study2,S,138,163,VC,User,-,"How many vowels are the two words combined?|Type your response below and then press Enter.",Study/JOL,"Study Phase",6333,,,5514,5515,,,,3,1
5e8cb90b7ddf6e04e6ca57f2,zqep8lcam8,"Deep vs Shallow",1,66,2020-07-08T14:24:30-07:00,5.5319972038269,6,versionA_stim.csv,VC_VersionB.csv,"Version B","VC Version B",ALONE,LONELY,Study2,S,145,116,VC,User,-,"How many vowels are the two words combined?|Type your response below and then press Enter.",Study/JOL,"Study Phase",4899,,,4083,4083,,,,4,1
5e8cb90b7ddf6e04e6ca57f2,zqep8lcam8,"Deep vs Shallow",1,67,2020-07-08T14:24:37-07:00,6.554575920105,6,versionA_stim.csv,VC_VersionB.csv,"Version B","VC Version B",WATER,DRINK,Study2,S,143,173,VC,User,-,"How many vowels are the two words combined?|Type your response below and then press Enter.",Study/JOL,"Study Phase",5959,,,4509,4509,,,,3,1
5e8cb90b7ddf6e04e6ca57f2,zqep8lcam8,"Deep vs Shallow",1,68,2020-07-08T14:24:45-07:00,7.9864070415497,6,versionA_stim.csv,VC_VersionB.csv,"Version B","VC Version B",LOUD,NOISE,Study2,S,152,152,VC,User,-,"How many vowels are the two words combined?|Type your response below and then press Enter.",Study/JOL,"Study Phase",7369,,,6247,6247,,,,5,1
5e8cb90b7ddf6e04e6ca57f2,zqep8lcam8,"Deep vs Shallow",1,69,2020-07-08T14:24:52-07:00,7.0649099349976,6,versionA_stim.csv,VC_VersionB.csv,"Version B","VC Version B",DOCUMENT,PAPER,Study2,F,109,149,VC,User,-,"How many vowels are the two words combined?|Type your response below and then press Enter.",Study/JOL,"Study Phase",6437,,,5617,5617,,,,5,1
5e8cb90b7ddf6e04e6ca57f2,zqep8lcam8,"Deep vs Shallow",1,70,2020-07-08T14:24:59-07:00,6.7645349502563,6,versionA_stim.csv,VC_VersionB.csv,"Version B","VC Version B",FISH,SARDINE,Study2,B,130,170,VC,User,-,"How many vowels are the two words combined?|Type your response below and then press Enter.",Study/JOL,"Study Phase",6162,,,5345,5346,,,,4,1
5e8cb90b7ddf6e04e6ca57f2,zqep8lcam8,"Deep vs Shallow",1,71,2020-07-08T14:25:08-07:00,9.6190111637115,6,versionA_stim.csv,VC_VersionB.csv,"Version B","VC Version B",CHILL,COLD,Study2,F,114,113,VC,User,-,"How many vowels are the two words combined?|Type your response below and then press Enter.",Study/JOL,"Study Phase",9065,,,8241,8241,,,,2,1
5e8cb90b7ddf6e04e6ca57f2,zqep8lcam8,"Deep vs Shallow",1,72,2020-07-08T14:25:16-07:00,7.3759298324585,6,versionA_stim.csv,VC_VersionB.csv,"Version B","VC Version B",TANTRUM,TEMPER,Study2,S,154,145,VC,User,-,"How many vowels are the two words combined?|Type your response below and then press Enter.",Study/JOL,"Study Phase",6696,,,5853,5853,,,,4,1
5e8cb90b7ddf6e04e6ca57f2,zqep8lcam8,"Deep vs Shallow",1,73,2020-07-08T14:25:22-07:00,6.5511770248413,6,versionA_stim.csv,VC_VersionB.csv,"Version B","VC Version B",MEAT,OBTAIN,Study2,U,161,167,VC,User,-,"How many vowels are the two words combined?|Type your response below and then press Enter.",Study/JOL,"Study Phase",5987,,,5072,5073,,,,5,1
5e8cb90b7ddf6e04e6ca57f2,zqep8lcam8,"Deep vs Shallow",1,74,2020-07-08T14:25:30-07:00,7.3863780498505,6,versionA_stim.csv,VC_VersionB.csv,"Version B","VC Version B",SCALP,HEAD,Study2,F,105,111,VC,User,-,"How many vowels are the two words combined?|Type your response below and then press Enter.",Study/JOL,"Study Phase",6712,,,5903,5903,,,,3,1
5e8cb90b7ddf6e04e6ca57f2,zqep8lcam8,"Deep vs Shallow",1,75,2020-07-08T14:25:35-07:00,5.6183230876923,6,versionA_stim.csv,VC_VersionB.csv,"Version B","VC Version B",DEAD,COFFIN,Study2,B,128,172,VC,User,-,"How many vowels are the two words combined?|Type your response below and then press Enter.",Study/JOL,"Study Phase",5018,,,4232,4232,,,,4,1
5e8cb90b7ddf6e04e6ca57f2,zqep8lcam8,"Deep vs Shallow",1,76,2020-07-08T14:25:42-07:00,6.3500168323517,6,versionA_stim.csv,VC_VersionB.csv,"Version B","VC Version B",FUZZY,BANG,Study2,U,168,174,VC,User,-,"How many vowels are the two words combined?|Type your response below and then press Enter.",Study/JOL,"Study Phase",5784,,,4125,4125,,,,2,1
5e8cb90b7ddf6e04e6ca57f2,zqep8lcam8,"Deep vs Shallow",1,77,2020-07-08T14:25:46-07:00,4.403706073761,6,versionA_stim.csv,VC_VersionB.csv,"Version B","VC Version B",FURRY,DOG,Study2,F,102,151,VC,User,-,"How many vowels are the two words combined?|Type your response below and then press Enter.",Study/JOL,"Study Phase",3768,,,2993,2993,,,,2,1
5e8cb90b7ddf6e04e6ca57f2,zqep8lcam8,"Deep vs Shallow",1,78,2020-07-08T14:25:50-07:00,4.2986829280853,6,versionA_stim.csv,VC_VersionB.csv,"Version B","VC Version B",MOAT,CLEAR,Study2,U,169,105,VC,User,-,"How many vowels are the two words combined?|Type your response below and then press Enter.",Study/JOL,"Study Phase",3648,,,2853,2853,,,,4,1
5e8cb90b7ddf6e04e6ca57f2,zqep8lcam8,"Deep vs Shallow",1,79,2020-07-08T14:25:56-07:00,5.7373371124268,6,versionA_stim.csv,VC_VersionB.csv,"Version B","VC Version B",GIVE,STEAK,Study2,U,158,176,VC,User,-,"How many vowels are the two words combined?|Type your response below and then press Enter.",Study/JOL,"Study Phase",4992,,,4183,4184,,,,4,1
5e8cb90b7ddf6e04e6ca57f2,zqep8lcam8,"Deep vs Shallow",1,80,2020-07-08T14:26:01-07:00,5.42711186409,6,versionA_stim.csv,VC_VersionB.csv,"Version B","VC Version B",BIRD,PENGUIN,Study2,B,119,112,VC,User,-,"How many vowels are the two words combined?|Type your response below and then press Enter.",Study/JOL,"Study Phase",4783,,,3975,3975,,,,4,1
5e8cb90b7ddf6e04e6ca57f2,zqep8lcam8,"Deep vs Shallow",1,81,2020-07-08T14:26:08-07:00,6.7557141780853,6,versionA_stim.csv,VC_VersionB.csv,"Version B","VC Version B",FRUIT,STRAWBERRY,Study2,B,124,107,VC,User,-,"How many vowels are the two words combined?|Type your response below and then press Enter.",Study/JOL,"Study Phase",6117,,,5310,5310,,,,4,1
5e8cb90b7ddf6e04e6ca57f2,zqep8lcam8,"Deep vs Shallow",1,82,2020-07-08T14:26:13-07:00,4.4051358699799,6,versionA_stim.csv,VC_VersionB.csv,"Version B","VC Version B",CHOP,CUT,Study2,F,107,128,VC,User,-,"How many vowels are the two words combined?|Type your response below and then press Enter.",Study/JOL,"Study Phase",3759,,,2759,2759,,,,2,1
5e8cb90b7ddf6e04e6ca57f2,zqep8lcam8,"Deep vs Shallow",1,83,2020-07-08T14:26:19-07:00,6.448616027832,6,versionA_stim.csv,VC_VersionB.csv,"Version B","VC Version B",CRACKLE,ABLE,Study2,U,162,138,VC,User,-,"How many vowels are the two words combined?|Type your response below and then press Enter.",Study/JOL,"Study Phase",5838,,,5060,5061,,,,4,1
5e8cb90b7ddf6e04e6ca57f2,zqep8lcam8,"Deep vs Shallow",1,84,2020-07-08T14:26:26-07:00,6.5530960559845,6,versionA_stim.csv,VC_VersionB.csv,"Version B","VC Version B",RIGHTS,EQUAL,Study2,S,137,155,VC,User,-,"How many vowels are the two words combined?|Type your response below and then press Enter.",Study/JOL,"Study Phase",5853,,,5043,5043,,,,3,1
5e8cb90b7ddf6e04e6ca57f2,zqep8lcam8,"Deep vs Shallow",1,85,2020-07-08T14:26:40-07:00,14.649457931519,6,versionA_stim.csv,VC_VersionB.csv,"Version B","VC Version B",VEHICLE,CHARM,Study2,U,160,106,VC,User,-,"How many vowels are the two words combined?|Type your response below and then press Enter.",Study/JOL,"Study Phase",13990,,,13165,13166,,,,4,1
5e8cb90b7ddf6e04e6ca57f2,zqep8lcam8,"Deep vs Shallow",1,86,2020-07-08T14:26:47-07:00,6.6532590389252,6,versionA_stim.csv,VC_VersionB.csv,"Version B","VC Version B",GLASS,BREAKABLE,Study2,B,127,125,VC,User,-,"How many vowels are the two words combined?|Type your response below and then press Enter.",Study/JOL,"Study Phase",5974,,,5118,5118,,,,5,1
5e8cb90b7ddf6e04e6ca57f2,zqep8lcam8,"Deep vs Shallow",1,87,2020-07-08T14:26:53-07:00,6.1890640258789,6,versionA_stim.csv,VC_VersionB.csv,"Version B","VC Version B",DRY,WET,Study2,S,146,135,VC,User,-,"How many vowels are the two words combined?|Type your response below and then press Enter.",Study/JOL,"Study Phase",5631,,,3682,3683,,,,1,1
5e8cb90b7ddf6e04e6ca57f2,zqep8lcam8,"Deep vs Shallow",1,88,2020-07-08T14:27:01-07:00,8.1502358913422,6,versionA_stim.csv,VC_VersionB.csv,"Version B","VC Version B",BOTH,OUNCE,Study2,U,172,150,VC,User,-,"How many vowels are the two words combined?|Type your response below and then press Enter.",Study/JOL,"Study Phase",7559,,,6157,6158,,,,4,1
5e8cb90b7ddf6e04e6ca57f2,zqep8lcam8,"Deep vs Shallow",1,89,2020-07-08T14:27:10-07:00,8.9040200710297,6,versionA_stim.csv,VC_VersionB.csv,"Version B","VC Version B",PHONE,COMMUNICATION,Study2,S,149,98,VC,User,-,"How many vowels are the two words combined?|Type your response below and then press Enter.",Study/JOL,"Study Phase",8325,,,7401,7401,,,,8,1
5e8cb90b7ddf6e04e6ca57f2,zqep8lcam8,"Deep vs Shallow",1,90,2020-07-08T14:27:16-07:00,5.3270230293274,6,versionA_stim.csv,VC_VersionB.csv,"Version B","VC Version B",MONTH,YEAR,BUFFER4,Buffer,177,179,VC,User,-,"How many vowels are the two words combined?|Type your response below and then press Enter.",Study/JOL,BUFFER2,4711,,,3510,3510,,,,3,1
5e8cb90b7ddf6e04e6ca57f2,zqep8lcam8,"Deep vs Shallow",1,91,2020-07-08T14:27:22-07:00,6.451122045517,6,versionA_stim.csv,VC_VersionB.csv,"Version B","VC Version B",SPRING,MARCH,BUFFER4,Buffer,179,178,VC,User,-,"How many vowels are the two words combined?|Type your response below and then press Enter.",Study/JOL,BUFFER2,5741,,,3749,3749,,,,2,1
5e8cb90b7ddf6e04e6ca57f2,zqep8lcam8,"Deep vs Shallow",1,92,2020-07-08T14:27:31-07:00,9.1129519939423,6,versionA_stim.csv,VC_VersionB.csv,"Version B","VC Version B",OCTOBER,SPOOKY,BUFFER4,Buffer,180,180,VC,User,-,"How many vowels are the two words combined?|Type your response below and then press Enter.",Study/JOL,BUFFER2,8481,,,7545,7545,,,,5,1
5e8cb90b7ddf6e04e6ca57f2,zqep8lcam8,"Deep vs Shallow",1,93,2020-07-08T14:27:39-07:00,7.9868459701538,6,versionA_stim.csv,VC_VersionB.csv,"Version B","VC Version B",DAYS,WEAKS,BUFFER4,Buffer,176,177,VC,User,-,"How many vowels are the two words combined?|Type your response below and then press Enter.",Study/JOL,BUFFER2,7370,,,5709,5709,,,,3,1
5e8cb90b7ddf6e04e6ca57f2,zqep8lcam8,"Deep vs Shallow",1,94,2020-07-08T14:27:44-07:00,5.3253910541534,6,versionA_stim.csv,VC_VersionB.csv,"Version B","VC Version B",TOOL,SHED,BUFFER4,Buffer,178,181,VC,User,-,"How many vowels are the two words combined?|Type your response below and then press Enter.",Study/JOL,BUFFER2,4738,,,3874,3874,,,,3,1
5e8cb90b7ddf6e04e6ca57f2,zqep8lcam8,"Deep vs Shallow",1,95,2020-07-08T14:27:47-07:00,2.256639957428,6,versionA_stim.csv,VC_VersionB.csv,"Version B","VC Version B",,,,,,0,Instruct,User,-,"You have completed this section. Please press Enter.",Filler_Instruction,Instruct2,1699,,,-1,-1,,,,,1
5e8cb90b7ddf6e04e6ca57f2,zqep8lcam8,"Deep vs Shallow",1,96,2020-07-08T14:29:47-07:00,120.62480282784,6,versionA_stim.csv,VC_VersionB.csv,"Version B","VC Version B",,,,,,0,FreeRecall,120,120,"Please list the 50 US states in alphabetical order. The task will automatically advance to the next screen after two minutes.",,Filler1,120026,"Alabama Alaska Arizona Arkansas California Colorado Connecticut Delaware Florida Georgia Hawaii Idaho Illinois Indiana Iowa Kansas Kentucky Louisiana Maine Maryland Massachusetts Michigan Minnesota Mississippi Missouri Montana Nebraska Nevada New Hampshire New Jersey New Mexico New York North Carolina North Dakota Ohio Oklahoma Oregon Pennsylvania Rhode Island South Carolina South Dakota Tennessee Texas Utah Vermont Virginia Washington West Virginia Wisconsin Wyoming ",0,74520,74520,0,0,,,0.984
5e8cb90b7ddf6e04e6ca57f2,zqep8lcam8,"Deep vs Shallow",1,97,2020-07-08T14:29:59-07:00,11.878619194031,6,versionA_stim.csv,VC_VersionB.csv,"Version B","VC Version B",,,,,,0,Instruct,-,10,"You will now be presented with the first word from each of the previously studied item pairs. Please type the missing word. If you do not know the word, you may guess or press Enter to skip forward to the next pair.",,Instruct3,11275,,,-1,-1,,,,,1
5e8cb90b7ddf6e04e6ca57f2,zqep8lcam8,"Deep vs Shallow",1,98,2020-07-08T14:30:15-07:00,16.05447101593,6,versionA_stim.csv,VC_VersionB.csv,"Version B","VC Version B",FLEA,TICK,Study2,S,151,143,Test,User,-,,Recall,Recall1,15493,,0,-1,-1,0,0,,,1
5e8cb90b7ddf6e04e6ca57f2,zqep8lcam8,"Deep vs Shallow",1,99,2020-07-08T14:30:26-07:00,10.953347921371,6,versionA_stim.csv,VC_VersionB.csv,"Version B","VC Version B",MASON,JAR,Study2,S,138,163,Test,User,-,,Recall,Recall1,10448,Name,28.571428571429,7454,7904,0,0,,,1
5e8cb90b7ddf6e04e6ca57f2,zqep8lcam8,"Deep vs Shallow",1,100,2020-07-08T14:30:34-07:00,7.4891889095306,6,versionA_stim.csv,VC_VersionB.csv,"Version B","VC Version B",CAKE,CLOTHES,Study2,U,166,137,Test,User,-,,Recall,Recall1,5920,Celebration,22.222222222222,3302,5003,0,0,,,1
5e8cb90b7ddf6e04e6ca57f2,zqep8lcam8,"Deep vs Shallow",1,101,2020-07-08T14:30:41-07:00,6.8794121742249,6,versionA_stim.csv,VC_VersionB.csv,"Version B","VC Version B",GIVE,STEAK,Study2,U,158,176,Test,User,-,,Recall,Recall1,6233,Got,25,4845,5163,0,0,,,1
5e8cb90b7ddf6e04e6ca57f2,zqep8lcam8,"Deep vs Shallow",1,102,2020-07-08T14:30:56-07:00,15.763148784637,6,versionA_stim.csv,VC_VersionB.csv,"Version B","VC Version B",CRACKLE,ABLE,Study2,U,162,138,Test,User,-,,Recall,Recall1,15194,Crunch,0,11031,14061,0,0,,,1
5e8cb90b7ddf6e04e6ca57f2,zqep8lcam8,"Deep vs Shallow",1,103,2020-07-08T14:31:11-07:00,14.543155193329,6,versionA_stim.csv,VC_VersionB.csv,"Version B","VC Version B",CHILL,COLD,Study2,F,114,113,Test,User,-,,Recall,Recall1,13777,Sleep,22.222222222222,12135,12724,0,0,,,1
5e8cb90b7ddf6e04e6ca57f2,zqep8lcam8,"Deep vs Shallow",1,104,2020-07-08T14:31:26-07:00,15.362818002701,6,versionA_stim.csv,VC_VersionB.csv,"Version B","VC Version B",STRETCH,CLOTH,Study2,U,157,132,Test,User,-,,Recall,Recall1,14795,,0,-1,-1,0,0,,,1
5e8cb90b7ddf6e04e6ca57f2,zqep8lcam8,"Deep vs Shallow",1,105,2020-07-08T14:31:31-07:00,4.8219368457794,6,versionA_stim.csv,VC_VersionB.csv,"Version B","VC Version B",CAT,PANTHER,Study2,B,126,118,Test,User,-,,Recall,Recall1,4131,Dog,0,2912,3163,0,0,,,1
5e8cb90b7ddf6e04e6ca57f2,zqep8lcam8,"Deep vs Shallow",1,106,2020-07-08T14:31:39-07:00,8.1852641105652,6,versionA_stim.csv,VC_VersionB.csv,"Version B","VC Version B",FRUIT,STRAWBERRY,Study2,B,124,107,Test,User,-,,Recall,Recall1,7651,Strawberry,100,4405,6562,1,1,,,1
5e8cb90b7ddf6e04e6ca57f2,zqep8lcam8,"Deep vs Shallow",1,107,2020-07-08T14:31:45-07:00,5.5295898914337,6,versionA_stim.csv,VC_VersionB.csv,"Version B","VC Version B",SUN,TAN,Study2,S,155,162,Test,User,-,,Recall,Recall1,4889,Sunset,22.222222222222,3181,3929,0,0,,,1
5e8cb90b7ddf6e04e6ca57f2,zqep8lcam8,"Deep vs Shallow",1,108,2020-07-08T14:31:52-07:00,7.1651320457458,6,versionA_stim.csv,VC_VersionB.csv,"Version B","VC Version B",SLEEP,NAP,Study2,B,134,171,Test,User,-,,Recall,Recall1,6563,Chill,0,4930,5804,0,0,,,1
5e8cb90b7ddf6e04e6ca57f2,zqep8lcam8,"Deep vs Shallow",1,109,2020-07-08T14:31:58-07:00,5.8366329669952,6,versionA_stim.csv,VC_VersionB.csv,"Version B","VC Version B",LOAN,SIGN,Study2,U,171,168,Test,User,-,,Recall,Recall1,5132,,0,-1,-1,0,0,,,1
5e8cb90b7ddf6e04e6ca57f2,zqep8lcam8,"Deep vs Shallow",1,110,2020-07-08T14:32:03-07:00,5.1285610198975,6,versionA_stim.csv,VC_VersionB.csv,"Version B","VC Version B",CAR,WINDSHIELD,Study2,B,117,142,Test,User,-,,Recall,Recall1,4559,Vehicle,35.294117647059,2790,3616,0,0,,,1
5e8cb90b7ddf6e04e6ca57f2,zqep8lcam8,"Deep vs Shallow",1,111,2020-07-08T14:32:10-07:00,7.3621139526367,6,versionA_stim.csv,VC_VersionB.csv,"Version B","VC Version B",INCENSE,SMELL,Study2,F,110,102,Test,User,-,,Recall,Recall1,6752,,0,-1,-1,0,0,,,1
5e8cb90b7ddf6e04e6ca57f2,zqep8lcam8,"Deep vs Shallow",1,112,2020-07-08T14:32:16-07:00,5.5701341629028,6,versionA_stim.csv,VC_VersionB.csv,"Version B","VC Version B",DETECTIVE,MYSTERY,Study2,F,100,153,Test,User,-,,Recall,Recall1,5033,,0,-1,-1,0,0,,,1
5e8cb90b7ddf6e04e6ca57f2,zqep8lcam8,"Deep vs Shallow",1,113,2020-07-08T14:32:25-07:00,9.3859679698944,6,versionA_stim.csv,VC_VersionB.csv,"Version B","VC Version B",EXTENSION,LONG,Study2,F,96,161,Test,User,-,,Recall,Recall1,8822,Long,100,7405,7905,1,1,,,1
5e8cb90b7ddf6e04e6ca57f2,zqep8lcam8,"Deep vs Shallow",1,114,2020-07-08T14:32:30-07:00,4.5023849010468,6,versionA_stim.csv,VC_VersionB.csv,"Version B","VC Version B",ROD,REEL,Study2,S,150,159,Test,User,-,,Recall,Recall1,3892,Fishing,0,2249,2967,0,0,,,1
5e8cb90b7ddf6e04e6ca57f2,zqep8lcam8,"Deep vs Shallow",1,115,2020-07-08T14:32:33-07:00,3.6842830181122,6,versionA_stim.csv,VC_VersionB.csv,"Version B","VC Version B",SCALP,HEAD,Study2,F,105,111,Test,User,-,,Recall,Recall1,3077,Head,100,1742,2202,1,1,,,1
5e8cb90b7ddf6e04e6ca57f2,zqep8lcam8,"Deep vs Shallow",1,116,2020-07-08T14:32:42-07:00,8.2936749458313,6,versionA_stim.csv,VC_VersionB.csv,"Version B","VC Version B",RIGHTS,EQUAL,Study2,S,137,155,Test,User,-,,Recall,Recall1,7666,Wrongs,0,5373,6733,0,0,,,1
5e8cb90b7ddf6e04e6ca57f2,zqep8lcam8,"Deep vs Shallow",1,117,2020-07-08T14:32:50-07:00,8.729150056839,6,versionA_stim.csv,VC_VersionB.csv,"Version B","VC Version B",MONEY,BANKER,Study2,B,132,126,Test,User,-,,Recall,Recall1,8103,Finance,46.153846153846,5596,6506,0,0,,,1
5e8cb90b7ddf6e04e6ca57f2,zqep8lcam8,"Deep vs Shallow",1,118,2020-07-08T14:33:01-07:00,11.036030054092,6,versionA_stim.csv,VC_VersionB.csv,"Version B","VC Version B",BASEBALL,LEAGUE,Study2,B,131,121,Test,User,-,,Recall,Recall1,10457,Sports,0,1983,9357,0,0,,,1
5e8cb90b7ddf6e04e6ca57f2,zqep8lcam8,"Deep vs Shallow",1,119,2020-07-08T14:33:13-07:00,11.179836034775,6,versionA_stim.csv,VC_VersionB.csv,"Version B","VC Version B",ADJOURN,END,Study2,F,101,147,Test,User,-,,Recall,Recall1,10557,Delay,25,7354,7931,0,0,,,1
5e8cb90b7ddf6e04e6ca57f2,zqep8lcam8,"Deep vs Shallow",1,120,2020-07-08T14:33:20-07:00,6.9443500041962,6,versionA_stim.csv,VC_VersionB.csv,"Version B","VC Version B",Shell,SHAKE,Study2,U,163,114,Test,User,-,,Recall,Recall1,6334,Shore,60,3190,5462,0,0,,,1
5e8cb90b7ddf6e04e6ca57f2,zqep8lcam8,"Deep vs Shallow",1,121,2020-07-08T14:33:24-07:00,4.7094328403473,6,versionA_stim.csv,VC_VersionB.csv,"Version B","VC Version B",GLASS,BREAKABLE,Study2,B,127,125,Test,User,-,,Recall,Recall1,4128,Crackle,62.5,1781,3022,0,0,,,1
5e8cb90b7ddf6e04e6ca57f2,zqep8lcam8,"Deep vs Shallow",1,122,2020-07-08T14:33:30-07:00,5.6353499889374,6,versionA_stim.csv,VC_VersionB.csv,"Version B","VC Version B",FURRY,DOG,Study2,F,102,151,Test,User,-,,Recall,Recall1,5055,,0,-1,-1,0,0,,,1
5e8cb90b7ddf6e04e6ca57f2,zqep8lcam8,"Deep vs Shallow",1,123,2020-07-08T14:33:39-07:00,9.441358089447,6,versionA_stim.csv,VC_VersionB.csv,"Version B","VC Version B",SAFETY,SEATBELT,Study2,S,147,164,Test,User,-,,Recall,Recall1,8827,Seatbelt,100,6482,7934,1,1,,,1
5e8cb90b7ddf6e04e6ca57f2,zqep8lcam8,"Deep vs Shallow",1,124,2020-07-08T14:33:45-07:00,5.4017879962921,6,versionA_stim.csv,VC_VersionB.csv,"Version B","VC Version B",CACTUS,PLANT,Study2,F,98,127,Test,User,-,,Recall,Recall1,4808,Plant,100,2757,3356,1,1,,,1
5e8cb90b7ddf6e04e6ca57f2,zqep8lcam8,"Deep vs Shallow",1,125,2020-07-08T14:33:54-07:00,9.1145310401917,6,versionA_stim.csv,VC_VersionB.csv,"Version B","VC Version B",LITTER,TRASH,Study2,F,103,119,Test,User,-,,Recall,Recall1,8448,Scrap,40,4143,4784,0,0,,,1
5e8cb90b7ddf6e04e6ca57f2,zqep8lcam8,"Deep vs Shallow",1,126,2020-07-08T14:33:58-07:00,4.6070230007172,6,versionA_stim.csv,VC_VersionB.csv,"Version B","VC Version B",LOUD,NOISE,Study2,S,152,152,Test,User,-,,Recall,Recall1,3975,Noise,100,2415,3096,1,1,,,1
5e8cb90b7ddf6e04e6ca57f2,zqep8lcam8,"Deep vs Shallow",1,127,2020-07-08T14:34:03-07:00,4.6100108623505,6,versionA_stim.csv,VC_VersionB.csv,"Version B","VC Version B",CHOP,CUT,Study2,F,107,128,Test,User,-,,Recall,Recall1,4010,Cut,100,2784,3045,1,1,,,1
5e8cb90b7ddf6e04e6ca57f2,zqep8lcam8,"Deep vs Shallow",1,128,2020-07-08T14:34:07-07:00,3.7846720218658,6,versionA_stim.csv,VC_VersionB.csv,"Version B","VC Version B",RAZOR,SHAVE,Study2,S,136,139,Test,User,-,,Recall,Recall1,3214,Sharp,60,1735,2330,0,0,,,1
5e8cb90b7ddf6e04e6ca57f2,zqep8lcam8,"Deep vs Shallow",1,129,2020-07-08T14:34:26-07:00,19.361196041107,6,versionA_stim.csv,VC_VersionB.csv,"Version B","VC Version B",TURN,FLIP,Study2,B,116,100,Test,User,-,,Recall,Recall1,18784,Forward,18.181818181818,16795,17839,0,0,,,1
5e8cb90b7ddf6e04e6ca57f2,zqep8lcam8,"Deep vs Shallow",1,130,2020-07-08T14:34:31-07:00,4.2997670173645,6,versionA_stim.csv,VC_VersionB.csv,"Version B","VC Version B",WATER,DRINK,Study2,S,143,173,Test,User,-,,Recall,Recall1,3672,Wet,0,2329,2764,0,0,,,1
5e8cb90b7ddf6e04e6ca57f2,zqep8lcam8,"Deep vs Shallow",1,131,2020-07-08T14:34:44-07:00,13.207311153412,6,versionA_stim.csv,VC_VersionB.csv,"Version B","VC Version B",TRUTH,LIE,Study2,S,148,97,Test,User,-,,Recall,Recall1,12606,,0,-1,-1,0,0,,,1
5e8cb90b7ddf6e04e6ca57f2,zqep8lcam8,"Deep vs Shallow",1,132,2020-07-08T14:34:48-07:00,3.8918550014496,6,versionA_stim.csv,VC_VersionB.csv,"Version B","VC Version B",FEUD,FIGHT,Study2,F,113,131,Test,User,-,,Recall,Recall1,3344,Fight,100,1791,2440,1,1,,,1
5e8cb90b7ddf6e04e6ca57f2,zqep8lcam8,"Deep vs Shallow",1,133,2020-07-08T14:34:57-07:00,9.0111269950867,6,versionA_stim.csv,VC_VersionB.csv,"Version B","VC Version B",FUZZY,BANG,Study2,U,168,174,Test,User,-,,Recall,Recall1,8437,Bear,50,6662,7187,0,0,,,1
5e8cb90b7ddf6e04e6ca57f2,zqep8lcam8,"Deep vs Shallow",1,134,2020-07-08T14:35:11-07:00,14.040239810944,6,versionA_stim.csv,VC_VersionB.csv,"Version B","VC Version B",CHERRY,RED,Study2,F,104,146,Test,User,-,,Recall,Recall1,13377,,0,3925,11534,0,0,,,1
5e8cb90b7ddf6e04e6ca57f2,zqep8lcam8,"Deep vs Shallow",1,135,2020-07-08T14:35:16-07:00,5.2552750110626,6,versionA_stim.csv,VC_VersionB.csv,"Version B","VC Version B",DRIVER,CAR,Study2,F,106,99,Test,User,-,,Recall,Recall1,4733,Safety,22.222222222222,2183,3159,0,0,,,1
5e8cb90b7ddf6e04e6ca57f2,zqep8lcam8,"Deep vs Shallow",1,136,2020-07-08T14:35:27-07:00,10.931822061539,6,versionA_stim.csv,VC_VersionB.csv,"Version B","VC Version B",DEAD,COFFIN,Study2,B,128,172,Test,User,-,,Recall,Recall1,10354,Alive,18.181818181818,8753,9480,0,0,,,1
5e8cb90b7ddf6e04e6ca57f2,zqep8lcam8,"Deep vs Shallow",1,137,2020-07-08T14:35:31-07:00,3.8853890895844,6,versionA_stim.csv,VC_VersionB.csv,"Version B","VC Version B",TEMPERATURE,Morning,Study2,U,173,144,Test,User,-,,Recall,Recall1,3306,Hot,20,1771,2081,0,0,,,1
5e8cb90b7ddf6e04e6ca57f2,zqep8lcam8,"Deep vs Shallow",1,138,2020-07-08T14:35:39-07:00,8.1780250072479,6,versionA_stim.csv,VC_VersionB.csv,"Version B","VC Version B",MAIN,SCAR,Study2,U,175,120,Test,User,-,,Recall,Recall1,7578,Side,25,6282,6718,0,0,,,1
5e8cb90b7ddf6e04e6ca57f2,zqep8lcam8,"Deep vs Shallow",1,139,2020-07-08T14:35:42-07:00,2.7695508003235,6,versionA_stim.csv,VC_VersionB.csv,"Version B","VC Version B",MULE,DONKEY,Study2,F,108,166,Test,User,-,,Recall,Recall1,2175,,0,-1,-1,0,0,,,1
5e8cb90b7ddf6e04e6ca57f2,zqep8lcam8,"Deep vs Shallow",1,140,2020-07-08T14:35:55-07:00,13.307227134705,6,versionA_stim.csv,VC_VersionB.csv,"Version B","VC Version B",LEASE,TOIL,Study2,U,170,115,Test,User,-,,Recall,Recall1,12579,Money,22.222222222222,11081,11755,0,0,,,1
5e8cb90b7ddf6e04e6ca57f2,zqep8lcam8,"Deep vs Shallow",1,141,2020-07-08T14:36:04-07:00,9.4250729084015,6,versionA_stim.csv,VC_VersionB.csv,"Version B","VC Version B",VEHICLE,CHARM,Study2,U,160,106,Test,User,-,,Recall,Recall1,8893,Car,75,3143,4806,0,1,,,1
5e8cb90b7ddf6e04e6ca57f2,zqep8lcam8,"Deep vs Shallow",1,142,2020-07-08T14:36:09-07:00,4.7085471153259,6,versionA_stim.csv,VC_VersionB.csv,"Version B","VC Version B",EVEN,REVENGE,Study2,B,122,140,Test,User,-,,Recall,Recall1,4136,Odd,0,1821,2079,0,0,,,1
5e8cb90b7ddf6e04e6ca57f2,zqep8lcam8,"Deep vs Shallow",1,143,2020-07-08T14:36:16-07:00,7.2699198722839,6,versionA_stim.csv,VC_VersionB.csv,"Version B","VC Version B",MOAT,CLEAR,Study2,U,169,105,Test,User,-,,Recall,Recall1,6617,Meat,44.444444444444,4417,4877,0,0,,,1
5e8cb90b7ddf6e04e6ca57f2,zqep8lcam8,"Deep vs Shallow",1,144,2020-07-08T14:36:24-07:00,7.9882431030273,6,versionA_stim.csv,VC_VersionB.csv,"Version B","VC Version B",LISTEN,FICTION,Study2,U,164,133,Test,User,-,,Recall,Recall1,7354,,0,-1,-1,0,0,,,1
5e8cb90b7ddf6e04e6ca57f2,zqep8lcam8,"Deep vs Shallow",1,145,2020-07-08T14:36:29-07:00,4.8198499679565,6,versionA_stim.csv,VC_VersionB.csv,"Version B","VC Version B",BOTH,OUNCE,Study2,U,172,150,Test,User,-,,Recall,Recall1,4219,Either,18.181818181818,2642,3338,0,0,,,1
5e8cb90b7ddf6e04e6ca57f2,zqep8lcam8,"Deep vs Shallow",1,146,2020-07-08T14:36:34-07:00,5.1261179447174,6,versionA_stim.csv,VC_VersionB.csv,"Version B","VC Version B",TANTRUM,TEMPER,Study2,S,154,145,Test,User,-,,Recall,Recall1,4489,Cry,22.222222222222,2316,2646,0,0,,,1
5e8cb90b7ddf6e04e6ca57f2,zqep8lcam8,"Deep vs Shallow",1,147,2020-07-08T14:36:38-07:00,3.6503901481628,6,versionA_stim.csv,VC_VersionB.csv,"Version B","VC Version B",BAD,VILLAIN,Study2,B,118,157,Test,User,-,,Recall,Recall1,3109,Good,0,1774,2243,0,0,,,1
5e8cb90b7ddf6e04e6ca57f2,zqep8lcam8,"Deep vs Shallow",1,148,2020-07-08T14:36:44-07:00,5.5481019020081,6,versionA_stim.csv,VC_VersionB.csv,"Version B","VC Version B",EARTH,GROUND,Study2,S,144,169,Test,User,-,,Recall,Recall1,4996,Plants,16.666666666667,2794,3877,0,0,,,1
5e8cb90b7ddf6e04e6ca57f2,zqep8lcam8,"Deep vs Shallow",1,149,2020-07-08T14:36:52-07:00,8.6034109592438,6,versionA_stim.csv,VC_VersionB.csv,"Version B","VC Version B",THREAD,THIMBLE,Study2,B,121,154,Test,User,-,,Recall,Recall1,7965,Through,28.571428571429,6354,7321,0,0,,,1
5e8cb90b7ddf6e04e6ca57f2,zqep8lcam8,"Deep vs Shallow",1,150,2020-07-08T14:36:59-07:00,6.8612990379333,6,versionA_stim.csv,VC_VersionB.csv,"Version B","VC Version B",SHOELACE,TIE,Study2,F,99,148,Test,User,-,,Recall,Recall1,6111,Tie,100,2407,5255,1,1,,,1
5e8cb90b7ddf6e04e6ca57f2,zqep8lcam8,"Deep vs Shallow",1,151,2020-07-08T14:37:07-07:00,7.883367061615,6,versionA_stim.csv,VC_VersionB.csv,"Version B","VC Version B",AFFECTION,LOVE,Study2,F,115,110,Test,User,-,,Recall,Recall1,7209,Care,25,5938,6401,0,0,,,1
5e8cb90b7ddf6e04e6ca57f2,zqep8lcam8,"Deep vs Shallow",1,152,2020-07-08T14:37:16-07:00,9.0111858844757,6,versionA_stim.csv,VC_VersionB.csv,"Version B","VC Version B",JUSTICE,MAROON,Study2,U,156,175,Test,User,-,,Recall,Recall1,8393,Solicitor,26.666666666667,3959,6269,0,0,,,1
5e8cb90b7ddf6e04e6ca57f2,zqep8lcam8,"Deep vs Shallow",1,153,2020-07-08T14:37:21-07:00,5.2245621681213,6,versionA_stim.csv,VC_VersionB.csv,"Version B","VC Version B",CLUE,GAME,Study2,F,97,156,Test,User,-,,Recall,Recall1,4630,Detective,15.384615384615,2419,3760,0,0,,,1
5e8cb90b7ddf6e04e6ca57f2,zqep8lcam8,"Deep vs Shallow",1,154,2020-07-08T14:37:26-07:00,5.0147089958191,6,versionA_stim.csv,VC_VersionB.csv,"Version B","VC Version B",BEST,FAVORITE,Study2,B,125,117,Test,User,-,,Recall,Recall1,4346,,0,-1,-1,0,0,,,1
5e8cb90b7ddf6e04e6ca57f2,zqep8lcam8,"Deep vs Shallow",1,155,2020-07-08T14:37:33-07:00,6.5621249675751,6,versionA_stim.csv,VC_VersionB.csv,"Version B","VC Version B",HONEST,TRUTHFUL,Study2,B,133,165,Test,User,-,,Recall,Recall1,5894,Positivity,22.222222222222,1967,5094,0,0,,,1
5e8cb90b7ddf6e04e6ca57f2,zqep8lcam8,"Deep vs Shallow",1,156,2020-07-08T14:37:40-07:00,7.3453259468079,6,versionA_stim.csv,VC_VersionB.csv,"Version B","VC Version B",OWN,HAVE,Study2,S,153,109,Test,User,-,,Recall,Recall1,4651,Build,0,2929,3579,0,0,,,1
5e8cb90b7ddf6e04e6ca57f2,zqep8lcam8,"Deep vs Shallow",1,157,2020-07-08T14:37:48-07:00,7.6022589206696,6,versionA_stim.csv,VC_VersionB.csv,"Version B","VC Version B",STAR,ACTRESS,Study2,B,120,101,Test,User,-,,Recall,Recall1,6961,Bright,15.384615384615,3929,4582,0,0,,,1
5e8cb90b7ddf6e04e6ca57f2,zqep8lcam8,"Deep vs Shallow",1,158,2020-07-08T14:37:56-07:00,8.7026741504669,6,versionA_stim.csv,VC_VersionB.csv,"Version B","VC Version B",DRY,WET,Study2,S,146,135,Test,User,-,,Recall,Recall1,8067,Weather,60,6298,7193,0,0,,,1
5e8cb90b7ddf6e04e6ca57f2,zqep8lcam8,"Deep vs Shallow",1,159,2020-07-08T14:38:08-07:00,11.263689994812,6,versionA_stim.csv,VC_VersionB.csv,"Version B","VC Version B",MIRROR,CHILDREN,Study2,U,174,134,Test,User,-,,Recall,Recall1,10634,Reflection,33.333333333333,2229,9899,0,0,,,1
5e8cb90b7ddf6e04e6ca57f2,zqep8lcam8,"Deep vs Shallow",1,160,2020-07-08T14:38:12-07:00,4.1973879337311,6,versionA_stim.csv,VC_VersionB.csv,"Version B","VC Version B",SHEARS,SCISSORS,Study2,F,112,104,Test,User,-,,Recall,Recall1,3618,Sow,36.363636363636,2540,2773,0,0,,,1
5e8cb90b7ddf6e04e6ca57f2,zqep8lcam8,"Deep vs Shallow",1,161,2020-07-08T14:38:18-07:00,6.1439259052277,6,versionA_stim.csv,VC_VersionB.csv,"Version B","VC Version B",MAZE,ELECTION,Study2,U,159,124,Test,User,-,,Recall,Recall1,5538,,0,3511,3821,0,0,,,1
5e8cb90b7ddf6e04e6ca57f2,zqep8lcam8,"Deep vs Shallow",1,162,2020-07-08T14:38:24-07:00,5.6326501369476,6,versionA_stim.csv,VC_VersionB.csv,"Version B","VC Version B",CANDLE,WAX,Study2,S,139,103,Test,User,-,,Recall,Recall1,5022,Shining,0,3320,4147,0,0,,,1
5e8cb90b7ddf6e04e6ca57f2,zqep8lcam8,"Deep vs Shallow",1,163,2020-07-08T14:38:32-07:00,8.1939990520477,6,versionA_stim.csv,VC_VersionB.csv,"Version B","VC Version B",POP,BALLOON,Study2,B,123,158,Test,User,-,,Recall,Recall1,7596,Hit,0,6445,6727,0,0,,,1
5e8cb90b7ddf6e04e6ca57f2,zqep8lcam8,"Deep vs Shallow",1,164,2020-07-08T14:38:36-07:00,3.9941189289093,6,versionA_stim.csv,VC_VersionB.csv,"Version B","VC Version B",DINE,EAT,Study2,F,111,108,Test,User,-,,Recall,Recall1,3382,,0,-1,-1,0,0,,,1
5e8cb90b7ddf6e04e6ca57f2,zqep8lcam8,"Deep vs Shallow",1,165,2020-07-08T14:38:47-07:00,11.371953964233,6,versionA_stim.csv,VC_VersionB.csv,"Version B","VC Version B",PLANE,AIRCRAFT,Study2,B,129,136,Test,User,-,,Recall,Recall1,10766,Travel,28.571428571429,9306,10035,0,0,,,1
5e8cb90b7ddf6e04e6ca57f2,zqep8lcam8,"Deep vs Shallow",1,166,2020-07-08T14:38:53-07:00,6.1445279121399,6,versionA_stim.csv,VC_VersionB.csv,"Version B","VC Version B",ELEMENT,CARBON,Study2,S,141,130,Test,User,-,,Recall,Recall1,5586,,0,-1,-1,0,0,,,1
5e8cb90b7ddf6e04e6ca57f2,zqep8lcam8,"Deep vs Shallow",1,167,2020-07-08T14:38:58-07:00,4.9399859905243,6,versionA_stim.csv,VC_VersionB.csv,"Version B","VC Version B",KEYS,JOKE,Study2,U,165,141,Test,User,-,,Recall,Recall1,4319,,0,-1,-1,0,0,,,1
5e8cb90b7ddf6e04e6ca57f2,zqep8lcam8,"Deep vs Shallow",1,168,2020-07-08T14:39:12-07:00,14.098383188248,6,versionA_stim.csv,VC_VersionB.csv,"Version B","VC Version B",FIGHT,BRAWL,Study2,B,135,160,Test,User,-,,Recall,Recall1,13547,,0,-1,-1,0,0,,,1
5e8cb90b7ddf6e04e6ca57f2,zqep8lcam8,"Deep vs Shallow",1,169,2020-07-08T14:39:22-07:00,9.6258859634399,6,versionA_stim.csv,VC_VersionB.csv,"Version B","VC Version B",NAME,HATE,Study2,U,167,122,Test,User,-,,Recall,Recall1,8031,Number,20,6370,7222,0,0,,,1
5e8cb90b7ddf6e04e6ca57f2,zqep8lcam8,"Deep vs Shallow",1,170,2020-07-08T14:39:29-07:00,7.066232919693,6,versionA_stim.csv,VC_VersionB.csv,"Version B","VC Version B",FISH,SARDINE,Study2,B,130,170,Test,User,-,,Recall,Recall1,6393,Rod,40,5342,5567,0,0,,,1
5e8cb90b7ddf6e04e6ca57f2,zqep8lcam8,"Deep vs Shallow",1,171,2020-07-08T14:39:38-07:00,9.0079929828644,6,versionA_stim.csv,VC_VersionB.csv,"Version B","VC Version B",ALONE,LONELY,Study2,S,145,116,Test,User,-,,Recall,Recall1,8413,Own,44.444444444444,7353,7640,0,0,,,1
5e8cb90b7ddf6e04e6ca57f2,zqep8lcam8,"Deep vs Shallow",1,172,2020-07-08T14:39:42-07:00,4.4150080680847,6,versionA_stim.csv,VC_VersionB.csv,"Version B","VC Version B",WRIST,BRACELET,Study2,S,140,129,Test,User,-,,Recall,Recall1,3793,,0,-1,-1,0,0,,,1
5e8cb90b7ddf6e04e6ca57f2,zqep8lcam8,"Deep vs Shallow",1,173,2020-07-08T14:39:48-07:00,5.7237548828125,6,versionA_stim.csv,VC_VersionB.csv,"Version B","VC Version B",DOCUMENT,PAPER,Study2,F,109,149,Test,User,-,,Recall,Recall1,4965,File,22.222222222222,3697,4189,0,0,,,1
5e8cb90b7ddf6e04e6ca57f2,zqep8lcam8,"Deep vs Shallow",1,174,2020-07-08T14:40:03-07:00,14.760718107224,6,versionA_stim.csv,VC_VersionB.csv,"Version B","VC Version B",BIRD,PENGUIN,Study2,B,119,112,Test,User,-,,Recall,Recall1,14123,Animal,30.769230769231,11009,13334,0,0,,,1
5e8cb90b7ddf6e04e6ca57f2,zqep8lcam8,"Deep vs Shallow",1,175,2020-07-08T14:40:07-07:00,3.6851439476013,6,versionA_stim.csv,VC_VersionB.csv,"Version B","VC Version B",PHONE,COMMUNICATION,Study2,S,149,98,Test,User,-,,Recall,Recall1,3023,Name,23.529411764706,1867,2184,0,0,,,1
5e8cb90b7ddf6e04e6ca57f2,zqep8lcam8,"Deep vs Shallow",1,176,2020-07-08T14:40:13-07:00,6.5393919944763,6,versionA_stim.csv,VC_VersionB.csv,"Version B","VC Version B",MEAT,OBTAIN,Study2,U,161,167,Test,User,-,,Recall,Recall1,5986,,0,2287,2287,0,0,,,1
5e8cb90b7ddf6e04e6ca57f2,zqep8lcam8,"Deep vs Shallow",1,177,2020-07-08T14:40:17-07:00,4.1293699741364,6,versionA_stim.csv,VC_VersionB.csv,"Version B","VC Version B",GONE,AWAY,Study2,S,142,123,Test,User,-,,Recall,Recall1,3615,Missing,0,2045,2812,0,0,,,1
5e8cb90b7ddf6e04e6ca57f2,zqep8lcam8,"Deep vs Shallow",1,178,2020-07-08T14:40:29-07:00,11.94637799263,6,versionA_stim.csv,VC_VersionB.csv,"Version B","VC Version B",,,,,,0,Instruct,-,10,"You will now be presented with a new set of word pairs. Please study each pair. Remember that your memory will be tested! When finished, press Enter to move to the next pair.",Initial_Instruct,Instruct4,11448,,,-1,-1,,,,,1
5e8cb90b7ddf6e04e6ca57f2,zqep8lcam8,"Deep vs Shallow",1,179,2020-07-08T14:40:41-07:00,11.674899101257,6,versionA_stim.csv,VC_VersionB.csv,"Version B","VC Version B",,,,,,0,Instruct,,10,"You will again be asked to count how many vowels the two words contain. Please remember to type this number in the space below each pair.",,Instruct10,11065,,,-1,-1,,,,,1
5e8cb90b7ddf6e04e6ca57f2,zqep8lcam8,"Deep vs Shallow",1,180,2020-07-08T14:40:44-07:00,2.6643760204315,6,versionA_stim.csv,VC_VersionB.csv,"Version B","VC Version B",,,,,,0,Instruct,User,-,"Press Enter when you are readty to begin",,Instruct11,2085,,,-1,-1,,,,,1
5e8cb90b7ddf6e04e6ca57f2,zqep8lcam8,"Deep vs Shallow",1,181,2020-07-08T14:40:49-07:00,5.8367309570312,6,versionA_stim.csv,VC_VersionB.csv,"Version B","VC Version B",TREES,GREEN,BUFFER1,Buffer,1,4,VC,User,-,"How many vowels are the two words combined?|Type your response below and then press Enter.",Study/JOL,BUFFER3,5154,,,4179,4179,,,,4,1
5e8cb90b7ddf6e04e6ca57f2,zqep8lcam8,"Deep vs Shallow",1,182,2020-07-08T14:40:56-07:00,6.449315071106,6,versionA_stim.csv,VC_VersionB.csv,"Version B","VC Version B",SPACE,JAM,BUFFER1,Buffer,5,5,VC,User,-,"How many vowels are the two words combined?|Type your response below and then press Enter.",Study/JOL,BUFFER3,5827,,,4919,4919,,,,3,1
5e8cb90b7ddf6e04e6ca57f2,zqep8lcam8,"Deep vs Shallow",1,183,2020-07-08T14:41:02-07:00,5.936066865921,6,versionA_stim.csv,VC_VersionB.csv,"Version B","VC Version B",SCARE,HIDE,BUFFER1,Buffer,4,2,VC,User,-,"How many vowels are the two words combined?|Type your response below and then press Enter.",Study/JOL,BUFFER3,5263,,,4454,4454,,,,4,1
5e8cb90b7ddf6e04e6ca57f2,zqep8lcam8,"Deep vs Shallow",1,184,2020-07-08T14:41:12-07:00,10.347366094589,6,versionA_stim.csv,VC_VersionB.csv,"Version B","VC Version B",BASEBALL,CATCHER,BUFFER1,Buffer,2,6,VC,User,-,"How many vowels are the two words combined?|Type your response below and then press Enter.",Study/JOL,BUFFER3,9749,,,8806,8806,,,,5,1
5e8cb90b7ddf6e04e6ca57f2,zqep8lcam8,"Deep vs Shallow",1,185,2020-07-08T14:41:19-07:00,7.1623060703278,6,versionA_stim.csv,VC_VersionB.csv,"Version B","VC Version B",PEANUT,BUTTER,BUFFER1,Buffer,3,3,VC,User,-,"How many vowels are the two words combined?|Type your response below and then press Enter.",Study/JOL,BUFFER3,6612,,,5336,5336,,,,5,1
5e8cb90b7ddf6e04e6ca57f2,zqep8lcam8,"Deep vs Shallow",1,186,2020-07-08T14:41:27-07:00,7.4809529781342,6,versionA_stim.csv,VC_VersionB.csv,"Version B","VC Version B",REVOLUTION,WAR,Study1,F,20,22,VC,User,-,"How many vowels are the two words combined?|Type your response below and then press Enter.",Study/JOL,"Study Phase2",6818,,,5595,5595,,,,6,1
5e8cb90b7ddf6e04e6ca57f2,zqep8lcam8,"Deep vs Shallow",1,187,2020-07-08T14:41:36-07:00,8.9065368175507,6,versionA_stim.csv,VC_VersionB.csv,"Version B","VC Version B",NUMBER,AMOUNT,Study1,S,47,9,VC,User,-,"How many vowels are the two words combined?|Type your response below and then press Enter.",Study/JOL,"Study Phase2",8347,,,7515,7515,,,,5,1
5e8cb90b7ddf6e04e6ca57f2,zqep8lcam8,"Deep vs Shallow",1,188,2020-07-08T14:41:45-07:00,9.1138579845428,6,versionA_stim.csv,VC_VersionB.csv,"Version B","VC Version B",MATH,DIVISION,Study1,B,33,54,VC,User,-,"How many vowels are the two words combined?|Type your response below and then press Enter.",Study/JOL,"Study Phase2",8497,,,7563,7563,,,,5,1
5e8cb90b7ddf6e04e6ca57f2,zqep8lcam8,"Deep vs Shallow",1,189,2020-07-08T14:41:51-07:00,6.152663230896,6,versionA_stim.csv,VC_VersionB.csv,"Version B","VC Version B",PAW,DOG,Study1,F,15,47,VC,User,-,"How many vowels are the two words combined?|Type your response below and then press Enter.",Study/JOL,"Study Phase2",5521,,,4688,4689,,,,2,1
5e8cb90b7ddf6e04e6ca57f2,zqep8lcam8,"Deep vs Shallow",1,190,2020-07-08T14:41:56-07:00,5.2158119678497,6,versionA_stim.csv,VC_VersionB.csv,"Version B","VC Version B",FIRE,BLAZE,Study1,B,45,63,VC,User,-,"How many vowels are the two words combined?|Type your response below and then press Enter.",Study/JOL,"Study Phase2",4621,,,3746,3746,,,,4,1
5e8cb90b7ddf6e04e6ca57f2,zqep8lcam8,"Deep vs Shallow",1,191,2020-07-08T14:42:26-07:00,29.592504024506,6,versionA_stim.csv,VC_VersionB.csv,"Version B","VC Version B",ALLOW,TUCK,Study1,U,78,43,VC,User,-,"How many vowels are the two words combined?|Type your response below and then press Enter.",Study/JOL,"Study Phase2",28953,,,5951,5951,,,,3,1
5e8cb90b7ddf6e04e6ca57f2,zqep8lcam8,"Deep vs Shallow",1,192,2020-07-08T14:42:35-07:00,9.3199059963226,6,versionA_stim.csv,VC_VersionB.csv,"Version B","VC Version B",DUE,ASSIGNMENT,Study1,S,46,76,VC,User,-,"How many vowels are the two words combined?|Type your response below and then press Enter.",Study/JOL,"Study Phase2",8752,,,7776,7776,,,,5,1
5e8cb90b7ddf6e04e6ca57f2,zqep8lcam8,"Deep vs Shallow",1,193,2020-07-08T14:42:40-07:00,4.611802816391,6,versionA_stim.csv,VC_VersionB.csv,"Version B","VC Version B",BLOW,WIND,Study1,S,55,38,VC,User,-,"How many vowels are the two words combined?|Type your response below and then press Enter.",Study/JOL,"Study Phase2",3899,,,2867,2867,,,,2,1
5e8cb90b7ddf6e04e6ca57f2,zqep8lcam8,"Deep vs Shallow",1,194,2020-07-08T14:43:00-07:00,20.064798116684,6,versionA_stim.csv,VC_VersionB.csv,"Version B","VC Version B",CASH,WOULD,Study1,U,83,81,VC,User,-,"How many vowels are the two words combined?|Type your response below and then press Enter.",Study/JOL,"Study Phase2",19495,,,4857,4857,,,,3,1
5e8cb90b7ddf6e04e6ca57f2,zqep8lcam8,"Deep vs Shallow",1,195,2020-07-08T14:43:15-07:00,14.747397899628,6,versionA_stim.csv,VC_VersionB.csv,"Version B","VC Version B",DEBATE,SIGHT,Study1,U,73,17,VC,User,-,"How many vowels are the two words combined?|Type your response below and then press Enter.",Study/JOL,"Study Phase2",13088,,,4590,4590,,,,4,1
5e8cb90b7ddf6e04e6ca57f2,zqep8lcam8,"Deep vs Shallow",1,196,2020-07-08T14:43:19-07:00,4.9134700298309,6,versionA_stim.csv,VC_VersionB.csv,"Version B","VC Version B",TUNA,FISH,Study1,F,25,30,VC,User,-,"How many vowels are the two words combined?|Type your response below and then press Enter.",Study/JOL,"Study Phase2",4343,,,3286,3286,,,,3,1
5e8cb90b7ddf6e04e6ca57f2,zqep8lcam8,"Deep vs Shallow",1,197,2020-07-08T14:43:27-07:00,7.3742060661316,6,versionA_stim.csv,VC_VersionB.csv,"Version B","VC Version B",HEIGHT,GROWTH,Study1,B,30,8,VC,User,-,"How many vowels are the two words combined?|Type your response below and then press Enter.",Study/JOL,"Study Phase2",6697,,,5888,5889,,,,3,1
5e8cb90b7ddf6e04e6ca57f2,zqep8lcam8,"Deep vs Shallow",1,198,2020-07-08T14:43:42-07:00,15.259469032288,6,versionA_stim.csv,VC_VersionB.csv,"Version B","VC Version B",SMELL,STENCH,Study1,B,42,85,VC,User,-,"How many vowels are the two words combined?|Type your response below and then press Enter.",Study/JOL,"Study Phase2",14648,,,13839,13839,,,,2,1
5e8cb90b7ddf6e04e6ca57f2,zqep8lcam8,"Deep vs Shallow",1,199,2020-07-08T14:43:47-07:00,4.9208648204803,6,versionA_stim.csv,VC_VersionB.csv,"Version B","VC Version B",CREDIT,CARD,Study1,F,23,49,VC,User,-,"How many vowels are the two words combined?|Type your response below and then press Enter.",Study/JOL,"Study Phase2",4322,,,3104,3104,,,,3,1
5e8cb90b7ddf6e04e6ca57f2,zqep8lcam8,"Deep vs Shallow",1,200,2020-07-08T14:43:58-07:00,10.546575069427,6,versionA_stim.csv,VC_VersionB.csv,"Version B","VC Version B",DIGESTION,STOMACH,Study1,F,7,55,VC,User,-,"How many vowels are the two words combined?|Type your response below and then press Enter.",Study/JOL,"Study Phase2",9997,,,8884,8885,,,,5,1
5e8cb90b7ddf6e04e6ca57f2,zqep8lcam8,"Deep vs Shallow",1,201,2020-07-08T14:44:14-07:00,16.068187952042,6,versionA_stim.csv,VC_VersionB.csv,"Version B","VC Version B",LIFT,WOMAN,Study1,U,69,40,VC,User,-,"How many vowels are the two words combined?|Type your response below and then press Enter.",Study/JOL,"Study Phase2",15377,,,13977,13978,,,,3,1
5e8cb90b7ddf6e04e6ca57f2,zqep8lcam8,"Deep vs Shallow",1,202,2020-07-08T14:44:20-07:00,6.0409061908722,6,versionA_stim.csv,VC_VersionB.csv,"Version B","VC Version B",ORCHID,FLOWER,Study1,F,24,67,VC,User,-,"How many vowels are the two words combined?|Type your response below and then press Enter.",Study/JOL,"Study Phase2",5416,,,4617,4618,,,,4,1
5e8cb90b7ddf6e04e6ca57f2,zqep8lcam8,"Deep vs Shallow",1,203,2020-07-08T14:44:36-07:00,16.795054912567,6,versionA_stim.csv,VC_VersionB.csv,"Version B","VC Version B",DEATH,BUSINESS,Study1,U,72,59,VC,User,-,"How many vowels are the two words combined?|Type your response below and then press Enter.",Study/JOL,"Study Phase2",16089,,,14746,14747,,,,5,1
5e8cb90b7ddf6e04e6ca57f2,zqep8lcam8,"Deep vs Shallow",1,204,2020-07-08T14:44:43-07:00,6.4535880088806,6,versionA_stim.csv,VC_VersionB.csv,"Version B","VC Version B",DISCUSSION,TALK,Study1,F,21,73,VC,User,-,"How many vowels are the two words combined?|Type your response below and then press Enter.",Study/JOL,"Study Phase2",5844,,,4943,4943,,,,5,1
5e8cb90b7ddf6e04e6ca57f2,zqep8lcam8,"Deep vs Shallow",1,205,2020-07-08T14:44:58-07:00,15.358695030212,6,versionA_stim.csv,VC_VersionB.csv,"Version B","VC Version B",CLOTHES,ATTIRE,Study1,B,43,65,VC,User,-,"How many vowels are the two words combined?|Type your response below and then press Enter.",Study/JOL,"Study Phase2",14783,,,5910,5910,,,,5,1
5e8cb90b7ddf6e04e6ca57f2,zqep8lcam8,"Deep vs Shallow",1,206,2020-07-08T14:45:13-07:00,14.742562055588,6,versionA_stim.csv,VC_VersionB.csv,"Version B","VC Version B",MACHINE,POSITION,Study1,U,76,58,VC,User,-,"How many vowels are the two words combined?|Type your response below and then press Enter.",Study/JOL,"Study Phase2",14187,,,6346,6346,,,,7,1
5e8cb90b7ddf6e04e6ca57f2,zqep8lcam8,"Deep vs Shallow",1,207,2020-07-08T14:45:20-07:00,6.8158659934998,6,versionA_stim.csv,VC_VersionB.csv,"Version B","VC Version B",WAY,OUT,Study1,F,16,39,VC,User,-,"How many vowels are the two words combined?|Type your response below and then press Enter.",Study/JOL,"Study Phase2",6225,,,3947,5071,,,,3,1
5e8cb90b7ddf6e04e6ca57f2,zqep8lcam8,"Deep vs Shallow",1,208,2020-07-08T14:45:32-07:00,12.437416791916,6,versionA_stim.csv,VC_VersionB.csv,"Version B","VC Version B",SUGAR,RIDDLE,Study1,U,81,66,VC,User,-,"How many vowels are the two words combined?|Type your response below and then press Enter.",Study/JOL,"Study Phase2",11891,,,11027,11028,,,,4,1
5e8cb90b7ddf6e04e6ca57f2,zqep8lcam8,"Deep vs Shallow",1,209,2020-07-08T14:45:38-07:00,5.4270620346069,6,versionA_stim.csv,VC_VersionB.csv,"Version B","VC Version B",BEGIN,END,Study1,S,54,19,VC,User,-,"How many vowels are the two words combined?|Type your response below and then press Enter.",Study/JOL,"Study Phase2",4783,,,3898,3898,,,,3,1
5e8cb90b7ddf6e04e6ca57f2,zqep8lcam8,"Deep vs Shallow",1,210,2020-07-08T14:45:42-07:00,4.8122501373291,6,versionA_stim.csv,VC_VersionB.csv,"Version B","VC Version B",SHOE,FOOT,Study1,S,60,23,VC,User,-,"How many vowels are the two words combined?|Type your response below and then press Enter.",Study/JOL,"Study Phase2",4235,,,3252,3252,,,,4,1
5e8cb90b7ddf6e04e6ca57f2,zqep8lcam8,"Deep vs Shallow",1,211,2020-07-08T14:45:49-07:00,6.6601669788361,6,versionA_stim.csv,VC_VersionB.csv,"Version B","VC Version B",HONEY,BEE,Study1,S,63,13,VC,User,-,"How many vowels are the two words combined?|Type your response below and then press Enter.",Study/JOL,"Study Phase2",6079,,,4976,4976,,,,4,1
5e8cb90b7ddf6e04e6ca57f2,zqep8lcam8,"Deep vs Shallow",1,212,2020-07-08T14:46:04-07:00,15.035779953003,6,versionA_stim.csv,VC_VersionB.csv,"Version B","VC Version B",CIRCLE,ROUND,Study1,S,65,80,VC,User,-,"How many vowels are the two words combined?|Type your response below and then press Enter.",Study/JOL,"Study Phase2",13423,,,12205,12206,,,,4,1
5e8cb90b7ddf6e04e6ca57f2,zqep8lcam8,"Deep vs Shallow",1,213,2020-07-08T14:46:20-07:00,16.093590974808,6,versionA_stim.csv,VC_VersionB.csv,"Version B","VC Version B",ARCHITECTURE,DESIGN,Study1,S,51,42,VC,User,-,"How many vowels are the two words combined?|Type your response below and then press Enter.",Study/JOL,"Study Phase2",15466,,,15072,15073,,,,7,1
5e8cb90b7ddf6e04e6ca57f2,zqep8lcam8,"Deep vs Shallow",1,214,2020-07-08T14:46:29-07:00,8.9128711223602,6,versionA_stim.csv,VC_VersionB.csv,"Version B","VC Version B",ART,LION,Study1,U,79,28,VC,User,-,"How many vowels are the two words combined?|Type your response below and then press Enter.",Study/JOL,"Study Phase2",8303,,,7860,7860,,,,3,1
5e8cb90b7ddf6e04e6ca57f2,zqep8lcam8,"Deep vs Shallow",1,215,2020-07-08T14:46:41-07:00,11.464038848877,6,versionA_stim.csv,VC_VersionB.csv,"Version B","VC Version B",WORK,CHORE,Study1,B,39,7,VC,User,-,"How many vowels are the two words combined?|Type your response below and then press Enter.",Study/JOL,"Study Phase2",10797,,,8709,8710,,,,3,1
5e8cb90b7ddf6e04e6ca57f2,zqep8lcam8,"Deep vs Shallow",1,216,2020-07-08T14:46:53-07:00,12.393434047699,6,versionA_stim.csv,VC_VersionB.csv,"Version B","VC Version B",WAGE,MONEY,Study1,F,8,86,VC,User,-,"How many vowels are the two words combined?|Type your response below and then press Enter.",Study/JOL,"Study Phase2",11763,,,11393,11394,,,,4,1
5e8cb90b7ddf6e04e6ca57f2,zqep8lcam8,"Deep vs Shallow",1,217,2020-07-08T14:47:04-07:00,10.934906005859,6,versionA_stim.csv,VC_VersionB.csv,"Version B","VC Version B",HAPPY,CAR,Study1,U,77,60,VC,User,-,"How many vowels are the two words combined?|Type your response below and then press Enter.",Study/JOL,"Study Phase2",9244,,,7973,7974,,,,2,1
5e8cb90b7ddf6e04e6ca57f2,zqep8lcam8,"Deep vs Shallow",1,218,2020-07-08T14:47:12-07:00,7.7042310237885,6,versionA_stim.csv,VC_VersionB.csv,"Version B","VC Version B",KING,VASE,Study1,U,85,15,VC,User,-,"How many vowels are the two words combined?|Type your response below and then press Enter.",Study/JOL,"Study Phase2",7055,,,6653,6653,,,,3,1
5e8cb90b7ddf6e04e6ca57f2,zqep8lcam8,"Deep vs Shallow",1,219,2020-07-08T14:47:18-07:00,6.5308759212494,6,versionA_stim.csv,VC_VersionB.csv,"Version B","VC Version B",HYGIENE,CLEAN,Study1,F,17,51,VC,User,-,"How many vowels are the two words combined?|Type your response below and then press Enter.",Study/JOL,"Study Phase2",5986,,,5600,5600,,,,5,1
5e8cb90b7ddf6e04e6ca57f2,zqep8lcam8,"Deep vs Shallow",1,220,2020-07-08T14:47:34-07:00,15.997127056122,6,versionA_stim.csv,VC_VersionB.csv,"Version B","VC Version B",LAW,ATTORNEY,Study1,B,34,56,VC,User,-,"How many vowels are the two words combined?|Type your response below and then press Enter.",Study/JOL,"Study Phase2",15477,,,14378,14379,,,,4,1
5e8cb90b7ddf6e04e6ca57f2,zqep8lcam8,"Deep vs Shallow",1,221,2020-07-08T14:47:45-07:00,10.541846990585,6,versionA_stim.csv,VC_VersionB.csv,"Version B","VC Version B",CHISEL,HAMMER,Study1,F,9,16,VC,User,-,"How many vowels are the two words combined?|Type your response below and then press Enter.",Study/JOL,"Study Phase2",9957,,,9611,9611,,,,4,1
5e8cb90b7ddf6e04e6ca57f2,zqep8lcam8,"Deep vs Shallow",1,222,2020-07-08T14:47:57-07:00,12.602909088135,6,versionA_stim.csv,VC_VersionB.csv,"Version B","VC Version B",EDITOR,NEWS,Study1,F,10,37,VC,User,-,"How many vowels are the two words combined?|Type your response below and then press Enter.",Study/JOL,"Study Phase2",11968,,,4518,4518,,,,4,1
5e8cb90b7ddf6e04e6ca57f2,zqep8lcam8,"Deep vs Shallow",1,223,2020-07-08T14:48:06-07:00,8.7009060382843,6,versionA_stim.csv,VC_VersionB.csv,"Version B","VC Version B",BATHROOM,TOILET,Study1,S,58,62,VC,User,-,"How many vowels are the two words combined?|Type your response below and then press Enter.",Study/JOL,"Study Phase2",8067,,,5521,5521,,,,6,1
5e8cb90b7ddf6e04e6ca57f2,zqep8lcam8,"Deep vs Shallow",1,224,2020-07-08T14:48:17-07:00,11.057816982269,6,versionA_stim.csv,VC_VersionB.csv,"Version B","VC Version B",PARK,HUNGRY,Study1,U,68,33,VC,User,-,"How many vowels are the two words combined?|Type your response below and then press Enter.",Study/JOL,"Study Phase2",10475,,,8930,8930,,,,2,1
5e8cb90b7ddf6e04e6ca57f2,zqep8lcam8,"Deep vs Shallow",1,225,2020-07-08T14:48:27-07:00,9.9372959136963,6,versionA_stim.csv,VC_VersionB.csv,"Version B","VC Version B",HIDE,SICK,Study1,U,84,41,VC,User,-,"How many vowels are the two words combined?|Type your response below and then press Enter.",Study/JOL,"Study Phase2",9277,,,3405,4346,,,,3,1
5e8cb90b7ddf6e04e6ca57f2,zqep8lcam8,"Deep vs Shallow",1,226,2020-07-08T14:48:40-07:00,13.101283073425,6,versionA_stim.csv,VC_VersionB.csv,"Version B","VC Version B",HOT,CHILI,Study1,B,37,10,VC,User,-,"How many vowels are the two words combined?|Type your response below and then press Enter.",Study/JOL,"Study Phase2",12535,,,12157,12157,,,,3,1
5e8cb90b7ddf6e04e6ca57f2,zqep8lcam8,"Deep vs Shallow",1,227,2020-07-08T14:48:49-07:00,9.1143088340759,6,versionA_stim.csv,VC_VersionB.csv,"Version B","VC Version B",ROOT,PLANT,Study1,F,13,50,VC,User,-,"How many vowels are the two words combined?|Type your response below and then press Enter.",Study/JOL,"Study Phase2",8431,,,8055,8055,,,,3,1
5e8cb90b7ddf6e04e6ca57f2,zqep8lcam8,"Deep vs Shallow",1,228,2020-07-08T14:49:01-07:00,11.571308135986,6,versionA_stim.csv,VC_VersionB.csv,"Version B","VC Version B",HERD,COW,Study1,F,22,53,VC,User,-,"How many vowels are the two words combined?|Type your response below and then press Enter.",Study/JOL,"Study Phase2",10910,,,3301,4950,,,,2,1
5e8cb90b7ddf6e04e6ca57f2,zqep8lcam8,"Deep vs Shallow",1,229,2020-07-08T14:49:11-07:00,9.9314930438995,6,versionA_stim.csv,VC_VersionB.csv,"Version B","VC Version B",LETTUCE,SALAD,Study1,S,59,74,VC,User,-,"How many vowels are the two words combined?|Type your response below and then press Enter.",Study/JOL,"Study Phase2",9292,,,8953,8953,,,,5,1
5e8cb90b7ddf6e04e6ca57f2,zqep8lcam8,"Deep vs Shallow",1,230,2020-07-08T14:49:24-07:00,12.902884960175,6,versionA_stim.csv,VC_VersionB.csv,"Version B","VC Version B",HUNGER,FAMINE,Study1,B,40,21,VC,User,-,"How many vowels are the two words combined?|Type your response below and then press Enter.",Study/JOL,"Study Phase2",12211,,,11383,11384,,,,5,1
5e8cb90b7ddf6e04e6ca57f2,zqep8lcam8,"Deep vs Shallow",1,231,2020-07-08T14:49:36-07:00,11.984935045242,6,versionA_stim.csv,VC_VersionB.csv,"Version B","VC Version B",LOCATION,SITE,Study1,S,48,27,VC,User,-,"How many vowels are the two words combined?|Type your response below and then press Enter.",Study/JOL,"Study Phase2",11352,,,10706,10706,,,,6,1
5e8cb90b7ddf6e04e6ca57f2,zqep8lcam8,"Deep vs Shallow",1,232,2020-07-08T14:49:49-07:00,12.917021989822,6,versionA_stim.csv,VC_VersionB.csv,"Version B","VC Version B",ARTERY,BRONZE,Study1,U,74,20,VC,User,-,"How many vowels are the two words combined?|Type your response below and then press Enter.",Study/JOL,"Study Phase2",12305,,,11951,11951,,,,4,1
5e8cb90b7ddf6e04e6ca57f2,zqep8lcam8,"Deep vs Shallow",1,233,2020-07-08T14:49:58-07:00,9.4044709205627,6,versionA_stim.csv,VC_VersionB.csv,"Version B","VC Version B",PAST,FUTURE,Study1,S,61,24,VC,User,-,"How many vowels are the two words combined?|Type your response below and then press Enter.",Study/JOL,"Study Phase2",8879,,,8536,8536,,,,4,1
5e8cb90b7ddf6e04e6ca57f2,zqep8lcam8,"Deep vs Shallow",1,234,2020-07-08T14:50:07-07:00,9.2160460948944,6,versionA_stim.csv,VC_VersionB.csv,"Version B","VC Version B",BRIDGE,WATER,Study1,F,18,29,VC,User,-,"How many vowels are the two words combined?|Type your response below and then press Enter.",Study/JOL,"Study Phase2",8568,,,8226,8226,,,,4,1
5e8cb90b7ddf6e04e6ca57f2,zqep8lcam8,"Deep vs Shallow",1,235,2020-07-08T14:50:20-07:00,12.696621894836,6,versionA_stim.csv,VC_VersionB.csv,"Version B","VC Version B",BALL,RACKET,Study1,B,38,18,VC,User,-,"How many vowels are the two words combined?|Type your response below and then press Enter.",Study/JOL,"Study Phase2",12075,,,9715,10597,,,,3,1
5e8cb90b7ddf6e04e6ca57f2,zqep8lcam8,"Deep vs Shallow",1,236,2020-07-08T14:50:31-07:00,11.059777975082,6,versionA_stim.csv,VC_VersionB.csv,"Version B","VC Version B",BUG,WASP,Study1,B,32,75,VC,User,-,"How many vowels are the two words combined?|Type your response below and then press Enter.",Study/JOL,"Study Phase2",10455,,,9237,9237,,,,2,1
5e8cb90b7ddf6e04e6ca57f2,zqep8lcam8,"Deep vs Shallow",1,237,2020-07-08T14:50:49-07:00,18.446079969406,6,versionA_stim.csv,VC_VersionB.csv,"Version B","VC Version B",SENTENCE,WORD,Study1,B,31,25,VC,User,-,"How many vowels are the two words combined?|Type your response below and then press Enter.",Study/JOL,"Study Phase2",17813,,,17405,17406,,,,4,1
5e8cb90b7ddf6e04e6ca57f2,zqep8lcam8,"Deep vs Shallow",1,238,2020-07-08T14:51:05-07:00,15.249218940735,6,versionA_stim.csv,VC_VersionB.csv,"Version B","VC Version B",HORNET,STING,Study1,F,11,78,VC,User,-,"How many vowels are the two words combined?|Type your response below and then press Enter.",Study/JOL,"Study Phase2",14613,,,14262,14262,,,,3,1
5e8cb90b7ddf6e04e6ca57f2,zqep8lcam8,"Deep vs Shallow",1,239,2020-07-08T14:51:14-07:00,9.6304800510406,6,versionA_stim.csv,VC_VersionB.csv,"Version B","VC Version B",TRIAL,JURY,Study1,S,50,32,VC,User,-,"How many vowels are the two words combined?|Type your response below and then press Enter.",Study/JOL,"Study Phase2",9055,,,8638,8639,,,,3,1
5e8cb90b7ddf6e04e6ca57f2,zqep8lcam8,"Deep vs Shallow",1,240,2020-07-08T14:51:30-07:00,15.244850158691,6,versionA_stim.csv,VC_VersionB.csv,"Version B","VC Version B",DIETARY,SACKING,Study1,U,67,84,VC,User,-,"How many vowels are the two words combined?|Type your response below and then press Enter.",Study/JOL,"Study Phase2",14681,,,14325,14325,,,,5,1
5e8cb90b7ddf6e04e6ca57f2,zqep8lcam8,"Deep vs Shallow",1,241,2020-07-08T14:51:42-07:00,12.714909791946,6,versionA_stim.csv,VC_VersionB.csv,"Version B","VC Version B",GEOLOGY,ROCK,Study1,F,19,26,VC,User,-,"How many vowels are the two words combined?|Type your response below and then press Enter.",Study/JOL,"Study Phase2",12099,,,11400,11400,,,,4,1
5e8cb90b7ddf6e04e6ca57f2,zqep8lcam8,"Deep vs Shallow",1,242,2020-07-08T14:51:53-07:00,11.146287202835,6,versionA_stim.csv,VC_VersionB.csv,"Version B","VC Version B",DARK,CAVE,Study1,B,28,34,VC,User,-,"How many vowels are the two words combined?|Type your response below and then press Enter.",Study/JOL,"Study Phase2",10509,,,3368,3368,,,,3,1
5e8cb90b7ddf6e04e6ca57f2,zqep8lcam8,"Deep vs Shallow",1,243,2020-07-08T14:52:09-07:00,15.805145025253,6,versionA_stim.csv,VC_VersionB.csv,"Version B","VC Version B",GREAT,FANTASTIC,Study1,B,35,31,VC,User,-,"How many vowels are the two words combined?|Type your response below and then press Enter.",Study/JOL,"Study Phase2",15260,,,14901,14902,,,,5,1
5e8cb90b7ddf6e04e6ca57f2,zqep8lcam8,"Deep vs Shallow",1,244,2020-07-08T14:52:19-07:00,9.7918238639832,6,versionA_stim.csv,VC_VersionB.csv,"Version B","VC Version B",SWAN,BIRD,Study1,F,14,12,VC,User,-,"How many vowels are the two words combined?|Type your response below and then press Enter.",Study/JOL,"Study Phase2",9300,,,8471,8471,,,,2,1
5e8cb90b7ddf6e04e6ca57f2,zqep8lcam8,"Deep vs Shallow",1,245,2020-07-08T14:52:30-07:00,11.071120023727,6,versionA_stim.csv,VC_VersionB.csv,"Version B","VC Version B",WINE,CHEESE,Study1,S,57,82,VC,User,-,"How many vowels are the two words combined?|Type your response below and then press Enter.",Study/JOL,"Study Phase2",10502,,,4474,4474,,,,5,1
5e8cb90b7ddf6e04e6ca57f2,zqep8lcam8,"Deep vs Shallow",1,246,2020-07-08T14:52:39-07:00,8.8996529579163,6,versionA_stim.csv,VC_VersionB.csv,"Version B","VC Version B",KIDNEY,LIVER,Study1,S,53,52,VC,User,-,"How many vowels are the two words combined?|Type your response below and then press Enter.",Study/JOL,"Study Phase2",8308,,,7879,7879,,,,4,1
5e8cb90b7ddf6e04e6ca57f2,zqep8lcam8,"Deep vs Shallow",1,247,2020-07-08T14:52:51-07:00,11.573895931244,6,versionA_stim.csv,VC_VersionB.csv,"Version B","VC Version B",BITTER,COLD,Study1,F,12,57,VC,User,-,"How many vowels are the two words combined?|Type your response below and then press Enter.",Study/JOL,"Study Phase2",10938,,,10577,10577,,,,3,1
5e8cb90b7ddf6e04e6ca57f2,zqep8lcam8,"Deep vs Shallow",1,248,2020-07-08T14:53:02-07:00,11.671787023544,6,versionA_stim.csv,VC_VersionB.csv,"Version B","VC Version B",DRINK,SIP,Study1,B,27,35,VC,User,-,"How many vowels are the two words combined?|Type your response below and then press Enter.",Study/JOL,"Study Phase2",11119,,,10417,10417,,,,2,1
5e8cb90b7ddf6e04e6ca57f2,zqep8lcam8,"Deep vs Shallow",1,249,2020-07-08T14:53:16-07:00,13.516308069229,6,versionA_stim.csv,VC_VersionB.csv,"Version B","VC Version B",SLEEP,DROWSY,Study1,B,41,70,VC,User,-,"How many vowels are the two words combined?|Type your response below and then press Enter.",Study/JOL,"Study Phase2",12912,,,12075,12076,,,,3,1
5e8cb90b7ddf6e04e6ca57f2,zqep8lcam8,"Deep vs Shallow",1,250,2020-07-08T14:53:26-07:00,10.525465011597,6,versionA_stim.csv,VC_VersionB.csv,"Version B","VC Version B",GRILL,BAR,Study1,S,52,46,VC,User,-,"How many vowels are the two words combined?|Type your response below and then press Enter.",Study/JOL,"Study Phase2",8951,,,2910,2910,,,,2,1
5e8cb90b7ddf6e04e6ca57f2,zqep8lcam8,"Deep vs Shallow",1,251,2020-07-08T14:53:35-07:00,8.6229240894318,6,versionA_stim.csv,VC_VersionB.csv,"Version B","VC Version B",KEY,LATCH,Study1,B,36,61,VC,User,-,"How many vowels are the two words combined?|Type your response below and then press Enter.",Study/JOL,"Study Phase2",7941,,,7558,7558,,,,2,1
5e8cb90b7ddf6e04e6ca57f2,zqep8lcam8,"Deep vs Shallow",1,252,2020-07-08T14:53:48-07:00,13.000895023346,6,versionA_stim.csv,VC_VersionB.csv,"Version B","VC Version B",STRONG,ACCIDENT,Study1,U,80,45,VC,User,-,"How many vowels are the two words combined?|Type your response below and then press Enter.",Study/JOL,"Study Phase2",12435,,,12006,12006,,,,4,1
5e8cb90b7ddf6e04e6ca57f2,zqep8lcam8,"Deep vs Shallow",1,253,2020-07-08T14:53:59-07:00,10.678534984589,6,versionA_stim.csv,VC_VersionB.csv,"Version B","VC Version B",PLANE,PILOT,Study1,B,44,72,VC,User,-,"How many vowels are the two words combined?|Type your response below and then press Enter.",Study/JOL,"Study Phase2",10061,,,3910,3910,,,,4,1
5e8cb90b7ddf6e04e6ca57f2,zqep8lcam8,"Deep vs Shallow",1,254,2020-07-08T14:54:09-07:00,10.831157922745,6,versionA_stim.csv,VC_VersionB.csv,"Version B","VC Version B",PUSHER,CLUTTER,Study1,U,66,36,VC,User,-,"How many vowels are the two words combined?|Type your response below and then press Enter.",Study/JOL,"Study Phase2",10236,,,9871,9871,,,,4,1
5e8cb90b7ddf6e04e6ca57f2,zqep8lcam8,"Deep vs Shallow",1,255,2020-07-08T14:54:23-07:00,13.936681032181,6,versionA_stim.csv,VC_VersionB.csv,"Version B","VC Version B",MEANING,DEFINITION,Study1,S,62,48,VC,User,-,"How many vowels are the two words combined?|Type your response below and then press Enter.",Study/JOL,"Study Phase2",13265,,,5664,5665,,,,8,1
5e8cb90b7ddf6e04e6ca57f2,zqep8lcam8,"Deep vs Shallow",1,256,2020-07-08T14:54:33-07:00,9.4101409912109,6,versionA_stim.csv,VC_VersionB.csv,"Version B","VC Version B",TAKE,SEIZE,Study1,B,29,44,VC,User,-,"How many vowels are the two words combined?|Type your response below and then press Enter.",Study/JOL,"Study Phase2",8837,,,7651,8358,,,,5,1
5e8cb90b7ddf6e04e6ca57f2,zqep8lcam8,"Deep vs Shallow",1,257,2020-07-08T14:54:46-07:00,13.727068901062,6,versionA_stim.csv,VC_VersionB.csv,"Version B","VC Version B",DELINQUENT,BAD,Study1,F,6,77,VC,User,-,"How many vowels are the two words combined?|Type your response below and then press Enter.",Study/JOL,"Study Phase2",12977,,,12673,12673,,,,5,1
5e8cb90b7ddf6e04e6ca57f2,zqep8lcam8,"Deep vs Shallow",1,258,2020-07-08T14:54:58-07:00,11.770841121674,6,versionA_stim.csv,VC_VersionB.csv,"Version B","VC Version B",DISCOVER,FLOOR,Study1,U,71,64,VC,User,-,"How many vowels are the two words combined?|Type your response below and then press Enter.",Study/JOL,"Study Phase2",11128,,,10813,10813,,,,5,1
5e8cb90b7ddf6e04e6ca57f2,zqep8lcam8,"Deep vs Shallow",1,259,2020-07-08T14:55:06-07:00,8.2110788822174,6,versionA_stim.csv,VC_VersionB.csv,"Version B","VC Version B",FIX,HAND,Study1,U,75,71,VC,User,-,"How many vowels are the two words combined?|Type your response below and then press Enter.",Study/JOL,"Study Phase2",7579,,,7180,7180,,,,2,1
5e8cb90b7ddf6e04e6ca57f2,zqep8lcam8,"Deep vs Shallow",1,260,2020-07-08T14:55:16-07:00,9.8308000564575,6,versionA_stim.csv,VC_VersionB.csv,"Version B","VC Version B",VALLEY,ADD,Study1,U,82,69,VC,User,-,"How many vowels are the two words combined?|Type your response below and then press Enter.",Study/JOL,"Study Phase2",9277,,,8841,8841,,,,3,1
5e8cb90b7ddf6e04e6ca57f2,zqep8lcam8,"Deep vs Shallow",1,261,2020-07-08T14:55:25-07:00,9.1945750713348,6,versionA_stim.csv,VC_VersionB.csv,"Version B","VC Version B",POP,SODA,Study1,S,56,79,VC,User,-,"How many vowels are the two words combined?|Type your response below and then press Enter.",Study/JOL,"Study Phase2",8609,,,8228,8228,,,,3,1
5e8cb90b7ddf6e04e6ca57f2,zqep8lcam8,"Deep vs Shallow",1,262,2020-07-08T14:55:34-07:00,8.401468038559,6,versionA_stim.csv,VC_VersionB.csv,"Version B","VC Version B",DUMP,WASTE,Study1,S,49,83,VC,User,-,"How many vowels are the two words combined?|Type your response below and then press Enter.",Study/JOL,"Study Phase2",7780,,,7361,7362,,,,3,1
5e8cb90b7ddf6e04e6ca57f2,zqep8lcam8,"Deep vs Shallow",1,263,2020-07-08T14:55:44-07:00,10.651482820511,6,versionA_stim.csv,VC_VersionB.csv,"Version B","VC Version B",SOON,BELT,Study1,U,70,11,VC,User,-,"How many vowels are the two words combined?|Type your response below and then press Enter.",Study/JOL,"Study Phase2",10015,,,9575,9575,,,,3,1
5e8cb90b7ddf6e04e6ca57f2,zqep8lcam8,"Deep vs Shallow",1,264,2020-07-08T14:55:54-07:00,9.4174041748047,6,versionA_stim.csv,VC_VersionB.csv,"Version B","VC Version B",FULL,ENOUGH,Study1,B,26,68,VC,User,-,"How many vowels are the two words combined?|Type your response below and then press Enter.",Study/JOL,"Study Phase2",8858,,,8512,8513,,,,4,1
5e8cb90b7ddf6e04e6ca57f2,zqep8lcam8,"Deep vs Shallow",1,265,2020-07-08T14:56:02-07:00,8.2910959720612,6,versionA_stim.csv,VC_VersionB.csv,"Version B","VC Version B",BABY,CHILD,Study1,S,64,14,VC,User,-,"How many vowels are the two words combined?|Type your response below and then press Enter.",Study/JOL,"Study Phase2",7755,,,7185,7185,,,,2,1
5e8cb90b7ddf6e04e6ca57f2,zqep8lcam8,"Deep vs Shallow",1,266,2020-07-08T14:56:15-07:00,12.804108858109,6,versionA_stim.csv,VC_VersionB.csv,"Version B","VC Version B",MALT,CHOCOLATE,BUFFER2,Buffer,88,89,VC,User,-,"How many vowels are the two words combined?|Type your response below and then press Enter.",Study/JOL,BUFFER4,12272,,,11903,11903,,,,5,1
5e8cb90b7ddf6e04e6ca57f2,zqep8lcam8,"Deep vs Shallow",1,267,2020-07-08T14:56:26-07:00,10.756423950195,6,versionA_stim.csv,VC_VersionB.csv,"Version B","VC Version B",GEESE,GOOSE,BUFFER2,Buffer,86,91,VC,User,-,"How many vowels are the two words combined?|Type your response below and then press Enter.",Study/JOL,BUFFER4,10213,,,8237,9177,,,,6,1
5e8cb90b7ddf6e04e6ca57f2,zqep8lcam8,"Deep vs Shallow",1,268,2020-07-08T14:56:36-07:00,10.034898042679,6,versionA_stim.csv,VC_VersionB.csv,"Version B","VC Version B",THING,STUFF,BUFFER2,Buffer,90,87,VC,User,-,"How many vowels are the two words combined?|Type your response below and then press Enter.",Study/JOL,BUFFER4,9443,,,9056,9056,,,,2,1
5e8cb90b7ddf6e04e6ca57f2,zqep8lcam8,"Deep vs Shallow",1,269,2020-07-08T14:56:47-07:00,11.182970046997,6,versionA_stim.csv,VC_VersionB.csv,"Version B","VC Version B",MOON,SPACE,BUFFER2,Buffer,89,88,VC,User,-,"How many vowels are the two words combined?|Type your response below and then press Enter.",Study/JOL,BUFFER4,10601,,,8764,8764,,,,4,1
5e8cb90b7ddf6e04e6ca57f2,zqep8lcam8,"Deep vs Shallow",1,270,2020-07-08T14:56:54-07:00,7.0515720844269,6,versionA_stim.csv,VC_VersionB.csv,"Version B","VC Version B",SHERRIF,POLICE,BUFFER2,Buffer,87,90,VC,User,-,"How many vowels are the two words combined?|Type your response below and then press Enter.",Study/JOL,BUFFER4,6463,,,6115,6115,,,,5,1
5e8cb90b7ddf6e04e6ca57f2,zqep8lcam8,"Deep vs Shallow",1,271,2020-07-08T14:56:56-07:00,2.2434959411621,6,versionA_stim.csv,VC_VersionB.csv,"Version B","VC Version B",,,,,,0,Instruct,User,-,"You have completed this section. Please press Enter.",Filler_Instruction,Instruct5,1689,,,-1,-1,,,,,1
5e8cb90b7ddf6e04e6ca57f2,zqep8lcam8,"Deep vs Shallow",1,272,2020-07-08T14:58:57-07:00,120.5617609024,6,versionA_stim.csv,VC_VersionB.csv,"Version B","VC Version B",,,,,,0,FreeRecall,120,120,"Please list the 50 US states in reverse alphabetical order (z - a). The task will automatically advance to the next screen after two minutes.",,Filler2,120034,,0,-1,-1,0,0,,,0.902
5e8cb90b7ddf6e04e6ca57f2,zqep8lcam8,"Deep vs Shallow",1,273,2020-07-08T14:59:10-07:00,13.574673175812,6,versionA_stim.csv,VC_VersionB.csv,"Version B","VC Version B",,,,,,0,Instruct,-,10,"You will now be presented with the first word from each of the previously studied item pairs. Please type the missing word. If you do not know the word, you may guess or press Enter to skip forward to the next pair.",,Instruct6,13056,,,-1,-1,,,,,1
5e8cb90b7ddf6e04e6ca57f2,zqep8lcam8,"Deep vs Shallow",1,274,2020-07-08T14:59:18-07:00,7.1894099712372,6,versionA_stim.csv,VC_VersionB.csv,"Version B","VC Version B",DUMP,WASTE,Study1,S,49,83,Test,User,-,,Recall,Recall2,6672,Waste,100,5847,6392,1,1,,,1
5e8cb90b7ddf6e04e6ca57f2,zqep8lcam8,"Deep vs Shallow",1,275,2020-07-08T14:59:39-07:00,21.389363050461,6,versionA_stim.csv,VC_VersionB.csv,"Version B","VC Version B",LAW,ATTORNEY,Study1,B,34,56,Test,User,-,,Recall,Recall2,20809,Enforce,40,18671,19640,0,0,,,1
5e8cb90b7ddf6e04e6ca57f2,zqep8lcam8,"Deep vs Shallow",1,276,2020-07-08T15:00:01-07:00,22.320267915726,6,versionA_stim.csv,VC_VersionB.csv,"Version B","VC Version B",ORCHID,FLOWER,Study1,F,24,67,Test,User,-,,Recall,Recall2,21655,Flower,100,2412,3229,1,1,,,1
5e8cb90b7ddf6e04e6ca57f2,zqep8lcam8,"Deep vs Shallow",1,277,2020-07-08T15:00:24-07:00,22.429229974747,6,versionA_stim.csv,VC_VersionB.csv,"Version B","VC Version B",SENTENCE,WORD,Study1,B,31,25,Test,User,-,,Recall,Recall2,20798,Word,100,20233,20596,1,1,,,1
5e8cb90b7ddf6e04e6ca57f2,zqep8lcam8,"Deep vs Shallow",1,278,2020-07-08T15:00:29-07:00,5.1204009056091,6,versionA_stim.csv,VC_VersionB.csv,"Version B","VC Version B",DIGESTION,STOMACH,Study1,F,7,55,Test,User,-,,Recall,Recall2,4551,Stomach,100,2865,3608,1,1,,,1
5e8cb90b7ddf6e04e6ca57f2,zqep8lcam8,"Deep vs Shallow",1,279,2020-07-08T15:00:42-07:00,12.903452157974,6,versionA_stim.csv,VC_VersionB.csv,"Version B","VC Version B",TAKE,SEIZE,Study1,B,29,44,Test,User,-,,Recall,Recall2,12269,Seize,100,11400,12035,1,1,,,1
5e8cb90b7ddf6e04e6ca57f2,zqep8lcam8,"Deep vs Shallow",1,280,2020-07-08T15:00:53-07:00,11.38001704216,6,versionA_stim.csv,VC_VersionB.csv,"Version B","VC Version B",SLEEP,DROWSY,Study1,B,41,70,Test,User,-,,Recall,Recall2,10768,"Drowsey ",92.307692307692,6571,8275,0,1,,,1
5e8cb90b7ddf6e04e6ca57f2,zqep8lcam8,"Deep vs Shallow",1,281,2020-07-08T15:01:17-07:00,24.046060800552,6,versionA_stim.csv,VC_VersionB.csv,"Version B","VC Version B",HERD,COW,Study1,F,22,53,Test,User,-,,Recall,Recall2,23303,Cow,100,22750,23018,1,1,,,1
5e8cb90b7ddf6e04e6ca57f2,zqep8lcam8,"Deep vs Shallow",1,282,2020-07-08T15:01:34-07:00,16.50297999382,6,versionA_stim.csv,VC_VersionB.csv,"Version B","VC Version B",HOT,CHILI,Study1,B,37,10,Test,User,-,,Recall,Recall2,15862,"Chili ",100,13313,14070,1,1,,,1
5e8cb90b7ddf6e04e6ca57f2,zqep8lcam8,"Deep vs Shallow",1,283,2020-07-08T15:01:47-07:00,13.194094181061,6,versionA_stim.csv,VC_VersionB.csv,"Version B","VC Version B",HORNET,STING,Study1,F,11,78,Test,User,-,,Recall,Recall2,12512,Sting,100,11652,12231,1,1,,,1
5e8cb90b7ddf6e04e6ca57f2,zqep8lcam8,"Deep vs Shallow",1,284,2020-07-08T15:01:51-07:00,3.9927890300751,6,versionA_stim.csv,VC_VersionB.csv,"Version B","VC Version B",ARCHITECTURE,DESIGN,Study1,S,51,42,Test,User,-,,Recall,Recall2,3405,Design,100,2256,3082,1,1,,,1
5e8cb90b7ddf6e04e6ca57f2,zqep8lcam8,"Deep vs Shallow",1,285,2020-07-08T15:01:59-07:00,8.5002369880676,6,versionA_stim.csv,VC_VersionB.csv,"Version B","VC Version B",PLANE,PILOT,Study1,B,44,72,Test,User,-,,Recall,Recall2,7847,Pilot,100,6931,7549,1,1,,,1
5e8cb90b7ddf6e04e6ca57f2,zqep8lcam8,"Deep vs Shallow",1,286,2020-07-08T15:02:12-07:00,12.500074863434,6,versionA_stim.csv,VC_VersionB.csv,"Version B","VC Version B",ROOT,PLANT,Study1,F,13,50,Test,User,-,,Recall,Recall2,11895,Plant,100,10941,11428,1,1,,,1
5e8cb90b7ddf6e04e6ca57f2,zqep8lcam8,"Deep vs Shallow",1,287,2020-07-08T15:02:46-07:00,34.197564125061,6,versionA_stim.csv,VC_VersionB.csv,"Version B","VC Version B",NUMBER,AMOUNT,Study1,S,47,9,Test,User,-,,Recall,Recall2,33598,,0,-1,-1,0,0,,,1
5e8cb90b7ddf6e04e6ca57f2,zqep8lcam8,"Deep vs Shallow",1,288,2020-07-08T15:03:21-07:00,35.157663822174,6,versionA_stim.csv,VC_VersionB.csv,"Version B","VC Version B",HYGIENE,CLEAN,Study1,F,17,51,Test,User,-,,Recall,Recall2,34625,Personal,30.769230769231,26355,27533,0,0,,,1
5e8cb90b7ddf6e04e6ca57f2,zqep8lcam8,"Deep vs Shallow",1,289,2020-07-08T15:03:28-07:00,6.6185021400452,6,versionA_stim.csv,VC_VersionB.csv,"Version B","VC Version B",MEANING,DEFINITION,Study1,S,62,48,Test,User,-,,Recall,Recall2,6022,Definition,100,4478,5753,1,1,,,1
5e8cb90b7ddf6e04e6ca57f2,zqep8lcam8,"Deep vs Shallow",1,290,2020-07-08T15:03:39-07:00,11.168912887573,6,versionA_stim.csv,VC_VersionB.csv,"Version B","VC Version B",PAW,DOG,Study1,F,15,47,Test,User,-,,Recall,Recall2,10537,Dog,100,9841,10258,1,1,,,1
5e8cb90b7ddf6e04e6ca57f2,zqep8lcam8,"Deep vs Shallow",1,291,2020-07-08T15:03:54-07:00,15.049705982208,6,versionA_stim.csv,VC_VersionB.csv,"Version B","VC Version B",BABY,CHILD,Study1,S,64,14,Test,User,-,,Recall,Recall2,14484,Child,100,13546,14161,1,1,,,1
5e8cb90b7ddf6e04e6ca57f2,zqep8lcam8,"Deep vs Shallow",1,292,2020-07-08T15:04:05-07:00,11.260402202606,6,versionA_stim.csv,VC_VersionB.csv,"Version B","VC Version B",DRINK,SIP,Study1,B,27,35,Test,User,-,,Recall,Recall2,10573,Sip,100,9904,10274,1,1,,,1
5e8cb90b7ddf6e04e6ca57f2,zqep8lcam8,"Deep vs Shallow",1,293,2020-07-08T15:04:23-07:00,17.818710803986,6,versionA_stim.csv,VC_VersionB.csv,"Version B","VC Version B",DIETARY,SACKING,Study1,U,67,84,Test,User,-,,Recall,Recall2,17194,Sacking,100,16088,16911,1,1,,,1
5e8cb90b7ddf6e04e6ca57f2,zqep8lcam8,"Deep vs Shallow",1,294,2020-07-08T15:04:58-07:00,34.40642619133,6,versionA_stim.csv,VC_VersionB.csv,"Version B","VC Version B",BITTER,COLD,Study1,F,12,57,Test,User,-,,Recall,Recall2,33754,Cold,100,33132,33512,1,1,,,1
5e8cb90b7ddf6e04e6ca57f2,zqep8lcam8,"Deep vs Shallow",1,295,2020-07-08T15:05:13-07:00,15.10315489769,6,versionA_stim.csv,VC_VersionB.csv,"Version B","VC Version B",HUNGER,FAMINE,Study1,B,40,21,Test,User,-,,Recall,Recall2,14471,Famine,100,13542,14212,1,1,,,1
5e8cb90b7ddf6e04e6ca57f2,zqep8lcam8,"Deep vs Shallow",1,296,2020-07-08T15:05:19-07:00,6.7072930335999,6,versionA_stim.csv,VC_VersionB.csv,"Version B","VC Version B",ALLOW,TUCK,Study1,U,78,43,Test,User,-,,Recall,Recall2,6125,Tuck,100,5433,5859,1,1,,,1
5e8cb90b7ddf6e04e6ca57f2,zqep8lcam8,"Deep vs Shallow",1,297,2020-07-08T15:05:24-07:00,4.5077378749847,6,versionA_stim.csv,VC_VersionB.csv,"Version B","VC Version B",MACHINE,POSITION,Study1,U,76,58,Test,User,-,,Recall,Recall2,3901,Position,100,2731,3653,1,1,,,1
5e8cb90b7ddf6e04e6ca57f2,zqep8lcam8,"Deep vs Shallow",1,298,2020-07-08T15:05:27-07:00,2.8748819828033,6,versionA_stim.csv,VC_VersionB.csv,"Version B","VC Version B",BRIDGE,WATER,Study1,F,18,29,Test,User,-,,Recall,Recall2,2265,Water,100,1625,2162,1,1,,,1
5e8cb90b7ddf6e04e6ca57f2,zqep8lcam8,"Deep vs Shallow",1,299,2020-07-08T15:05:37-07:00,10.045179128647,6,versionA_stim.csv,VC_VersionB.csv,"Version B","VC Version B",MATH,DIVISION,Study1,B,33,54,Test,User,-,,Recall,Recall2,9358,Subtract,12.5,8083,9103,0,0,,,1
5e8cb90b7ddf6e04e6ca57f2,zqep8lcam8,"Deep vs Shallow",1,300,2020-07-08T15:06:04-07:00,26.708436012268,6,versionA_stim.csv,VC_VersionB.csv,"Version B","VC Version B",WAY,OUT,Study1,F,16,39,Test,User,-,,Recall,Recall2,26113,,0,-1,-1,0,0,,,1
5e8cb90b7ddf6e04e6ca57f2,zqep8lcam8,"Deep vs Shallow",1,301,2020-07-08T15:06:10-07:00,6.4590420722961,6,versionA_stim.csv,VC_VersionB.csv,"Version B","VC Version B",DISCOVER,FLOOR,Study1,U,71,64,Test,User,-,,Recall,Recall2,5862,Floor,100,4855,5365,1,1,,,1
5e8cb90b7ddf6e04e6ca57f2,zqep8lcam8,"Deep vs Shallow",1,302,2020-07-08T15:06:25-07:00,15.151825904846,6,versionA_stim.csv,VC_VersionB.csv,"Version B","VC Version B",PAST,FUTURE,Study1,S,61,24,Test,User,-,,Recall,Recall2,14522,Future,100,13673,14324,1,1,,,1
5e8cb90b7ddf6e04e6ca57f2,zqep8lcam8,"Deep vs Shallow",1,303,2020-07-08T15:06:29-07:00,3.885390996933,6,versionA_stim.csv,VC_VersionB.csv,"Version B","VC Version B",CREDIT,CARD,Study1,F,23,49,Test,User,-,,Recall,Recall2,3248,Card,100,2777,3180,1,1,,,1
5e8cb90b7ddf6e04e6ca57f2,zqep8lcam8,"Deep vs Shallow",1,304,2020-07-08T15:06:36-07:00,7.0497899055481,6,versionA_stim.csv,VC_VersionB.csv,"Version B","VC Version B",VALLEY,ADD,Study1,U,82,69,Test,User,-,,Recall,Recall2,5429,Add,100,4934,5276,1,1,,,1
5e8cb90b7ddf6e04e6ca57f2,zqep8lcam8,"Deep vs Shallow",1,305,2020-07-08T15:06:46-07:00,10.050178050995,6,versionA_stim.csv,VC_VersionB.csv,"Version B","VC Version B",ARTERY,BRONZE,Study1,U,74,20,Test,User,-,,Recall,Recall2,9362,"Bronze ",100,7830,8871,1,1,,,1
5e8cb90b7ddf6e04e6ca57f2,zqep8lcam8,"Deep vs Shallow",1,306,2020-07-08T15:06:59-07:00,13.256902933121,6,versionA_stim.csv,VC_VersionB.csv,"Version B","VC Version B",LIFT,WOMAN,Study1,U,69,40,Test,User,-,,Recall,Recall2,12661,Woman,100,11864,12292,1,1,,,1
5e8cb90b7ddf6e04e6ca57f2,zqep8lcam8,"Deep vs Shallow",1,307,2020-07-08T15:07:30-07:00,30.894870996475,6,versionA_stim.csv,VC_VersionB.csv,"Version B","VC Version B",SHOE,FOOT,Study1,S,60,23,Test,User,-,,Recall,Recall2,30376,Foot,100,28568,29777,1,1,,,1
5e8cb90b7ddf6e04e6ca57f2,zqep8lcam8,"Deep vs Shallow",1,308,2020-07-08T15:07:35-07:00,5.0044231414795,6,versionA_stim.csv,VC_VersionB.csv,"Version B","VC Version B",DEATH,BUSINESS,Study1,U,72,59,Test,User,-,,Recall,Recall2,4366,Business,100,3212,4219,1,1,,,1
5e8cb90b7ddf6e04e6ca57f2,zqep8lcam8,"Deep vs Shallow",1,309,2020-07-08T15:07:39-07:00,3.9947979450226,6,versionA_stim.csv,VC_VersionB.csv,"Version B","VC Version B",DISCUSSION,TALK,Study1,F,21,73,Test,User,-,,Recall,Recall2,3442,Talk,100,2698,3164,1,1,,,1
5e8cb90b7ddf6e04e6ca57f2,zqep8lcam8,"Deep vs Shallow",1,310,2020-07-08T15:07:49-07:00,9.3156299591064,6,versionA_stim.csv,VC_VersionB.csv,"Version B","VC Version B",HONEY,BEE,Study1,S,63,13,Test,User,-,,Recall,Recall2,8661,Bee,100,2201,2584,1,1,,,1
5e8cb90b7ddf6e04e6ca57f2,zqep8lcam8,"Deep vs Shallow",1,311,2020-07-08T15:07:54-07:00,4.929633140564,6,versionA_stim.csv,VC_VersionB.csv,"Version B","VC Version B",TUNA,FISH,Study1,F,25,30,Test,User,-,,Recall,Recall2,4313,Fish,100,2994,3309,1,1,,,1
5e8cb90b7ddf6e04e6ca57f2,zqep8lcam8,"Deep vs Shallow",1,312,2020-07-08T15:08:06-07:00,12.865649938583,6,versionA_stim.csv,VC_VersionB.csv,"Version B","VC Version B",POP,SODA,Study1,S,56,79,Test,User,-,,Recall,Recall2,11291,Soda,100,10648,11032,1,1,,,1
5e8cb90b7ddf6e04e6ca57f2,zqep8lcam8,"Deep vs Shallow",1,313,2020-07-08T15:08:16-07:00,9.6615378856659,6,versionA_stim.csv,VC_VersionB.csv,"Version B","VC Version B",CASH,WOULD,Study1,U,83,81,Test,User,-,,Recall,Recall2,8969,Would,100,8211,8768,1,1,,,1
5e8cb90b7ddf6e04e6ca57f2,zqep8lcam8,"Deep vs Shallow",1,314,2020-07-08T15:08:24-07:00,8.0747671127319,6,versionA_stim.csv,VC_VersionB.csv,"Version B","VC Version B",KING,VASE,Study1,U,85,15,Test,User,-,,Recall,Recall2,7482,Vase,100,3182,7229,1,1,,,1
5e8cb90b7ddf6e04e6ca57f2,zqep8lcam8,"Deep vs Shallow",1,315,2020-07-08T15:08:35-07:00,10.771672010422,6,versionA_stim.csv,VC_VersionB.csv,"Version B","VC Version B",KIDNEY,LIVER,Study1,S,53,52,Test,User,-,,Recall,Recall2,10110,Liver,100,9122,9758,1,1,,,1
5e8cb90b7ddf6e04e6ca57f2,zqep8lcam8,"Deep vs Shallow",1,316,2020-07-08T15:08:43-07:00,8.3808679580688,6,versionA_stim.csv,VC_VersionB.csv,"Version B","VC Version B",GEOLOGY,ROCK,Study1,F,19,26,Test,User,-,,Recall,Recall2,7740,Rock,100,6363,7124,1,1,,,1
5e8cb90b7ddf6e04e6ca57f2,zqep8lcam8,"Deep vs Shallow",1,317,2020-07-08T15:08:49-07:00,5.5311141014099,6,versionA_stim.csv,VC_VersionB.csv,"Version B","VC Version B",FIX,HAND,Study1,U,75,71,Test,User,-,,Recall,Recall2,4955,Hand,100,4234,4540,1,1,,,1
5e8cb90b7ddf6e04e6ca57f2,zqep8lcam8,"Deep vs Shallow",1,318,2020-07-08T15:08:54-07:00,5.6324548721313,6,versionA_stim.csv,VC_VersionB.csv,"Version B","VC Version B",DELINQUENT,BAD,Study1,F,6,77,Test,User,-,,Recall,Recall2,4993,Bad,100,4596,4874,1,1,,,1
5e8cb90b7ddf6e04e6ca57f2,zqep8lcam8,"Deep vs Shallow",1,319,2020-07-08T15:09:02-07:00,7.5924680233002,6,versionA_stim.csv,VC_VersionB.csv,"Version B","VC Version B",EDITOR,NEWS,Study1,F,10,37,Test,User,-,,Recall,Recall2,6903,News,100,6115,6554,1,1,,,1
