Username,ID,ExperimentName,Session,Trial,Date,TimeDif,"Condition Number","Stimuli File","Order File","Condition Description","Condition Notes",Stimuli*Cue,Stimuli*Answer,Stimuli*Shuffle,"Stimuli*Stimuli Notes",Stimuli*Value,Procedure*Item,"Procedure*Trial Type","Procedure*Max Time","Procedure*Min Time",Procedure*Text,"Procedure*Procedure Notes",Procedure*Shuffle,Response*RT,Response*Response,Response*Accuracy,Response*RTfirst,Response*RTlast,Response*strictAcc,Response*lenientAcc,Response*focus,Response*JOL,Response*Focus
5c34e402b96e660001cb5ce6,gby4oli74z,"Deep vs Shallow",1,1,2020-07-08T14:29:39-07:00,72.113920927048,7,versionC_stim.csv,VC_VersionC.csv,"Version C","VC Version C",,,,,,0,Instruct,-,5,"In this section, you will be presented with a series of word pairs.",Initial_Instruct,Instruct1,71138,,,-1,-1,,,,,0.961
5c34e402b96e660001cb5ce6,gby4oli74z,"Deep vs Shallow",1,2,2020-07-08T14:29:54-07:00,14.560562849045,7,versionC_stim.csv,VC_VersionC.csv,"Version C","VC Version C",,,,,,0,Instruct,-,5,"As you study, you will be asked to count the total number of vowels (a, e, i, o, u) within the two words. Please note that y is not considered a vowel.",,Instruct13,13985,,,-1,-1,,,,,1
5c34e402b96e660001cb5ce6,gby4oli74z,"Deep vs Shallow",1,3,2020-07-08T14:30:07-07:00,13.184127092361,7,versionC_stim.csv,VC_VersionC.csv,"Version C","VC Version C",,,,,,0,Instruct,-,10,"For example, if you are given the pair CAT - DOG, CAT has one vowel and DOG has one vowel. The correct response would be 2 (1 + 1 = 2). After typing the number, you will press ENTER to move to the next pair.",,Instruct14,12713,,,-1,-1,,,,,1
5c34e402b96e660001cb5ce6,gby4oli74z,"Deep vs Shallow",1,4,2020-07-08T14:30:11-07:00,3.5883719921112,7,versionC_stim.csv,VC_VersionC.csv,"Version C","VC Version C",,,,,,0,Instruct,User,-,"You will now begin the study. Press Enter when you are ready to begin.",,Instruct16,2962,,,-1,-1,,,,,1
5c34e402b96e660001cb5ce6,gby4oli74z,"Deep vs Shallow",1,5,2020-07-08T14:30:18-07:00,7.0813181400299,7,versionC_stim.csv,VC_VersionC.csv,"Version C","VC Version C",BUTTER,PEANUT,BUFFER1,Buffer,3,5,VC,User,-,"How many vowels are the two words combined?|Type your response below and then press Enter.",Study/JOL,BUFFER,6525,,,5314,5314,,,,5,1
5c34e402b96e660001cb5ce6,gby4oli74z,"Deep vs Shallow",1,6,2020-07-08T14:30:25-07:00,6.8656988143921,7,versionC_stim.csv,VC_VersionC.csv,"Version C","VC Version C",JAM,SPACE,BUFFER1,Buffer,5,2,VC,User,-,"How many vowels are the two words combined?|Type your response below and then press Enter.",Study/JOL,BUFFER,6224,,,5046,5046,,,,3,1
5c34e402b96e660001cb5ce6,gby4oli74z,"Deep vs Shallow",1,7,2020-07-08T14:30:35-07:00,10.029092073441,7,versionC_stim.csv,VC_VersionC.csv,"Version C","VC Version C",HIDE,SCARE,BUFFER1,Buffer,4,6,VC,User,-,"How many vowels are the two words combined?|Type your response below and then press Enter.",Study/JOL,BUFFER,9434,,,6419,6420,,,,4,1
5c34e402b96e660001cb5ce6,gby4oli74z,"Deep vs Shallow",1,8,2020-07-08T14:31:17-07:00,42.395903110504,7,versionC_stim.csv,VC_VersionC.csv,"Version C","VC Version C",CATCHER,BASEBALL,BUFFER1,Buffer,2,4,VC,User,-,"How many vowels are the two words combined?|Type your response below and then press Enter.",Study/JOL,BUFFER,41738,,,39557,39793,,,,5,0.98
5c34e402b96e660001cb5ce6,gby4oli74z,"Deep vs Shallow",1,9,2020-07-08T14:31:23-07:00,5.8379909992218,7,versionC_stim.csv,VC_VersionC.csv,"Version C","VC Version C",GREEN,TREES,BUFFER1,Buffer,1,3,VC,User,-,"How many vowels are the two words combined?|Type your response below and then press Enter.",Study/JOL,BUFFER,5230,,,4122,4122,,,,4,1
5c34e402b96e660001cb5ce6,gby4oli74z,"Deep vs Shallow",1,10,2020-07-08T14:31:29-07:00,5.837996006012,7,versionC_stim.csv,VC_VersionC.csv,"Version C","VC Version C",CHILI,HOT,Study1,F,37,27,VC,User,-,"How many vowels are the two words combined?|Type your response below and then press Enter.",Study/JOL,"Study Phase",5194,,,3960,3960,,,,3,1
5c34e402b96e660001cb5ce6,gby4oli74z,"Deep vs Shallow",1,11,2020-07-08T14:31:34-07:00,5.1204288005829,7,versionC_stim.csv,VC_VersionC.csv,"Version C","VC Version C",FOOT,SHOE,Study1,S,60,11,VC,User,-,"How many vowels are the two words combined?|Type your response below and then press Enter.",Study/JOL,"Study Phase",4472,,,3360,3360,,,,4,1
5c34e402b96e660001cb5ce6,gby4oli74z,"Deep vs Shallow",1,12,2020-07-08T14:31:40-07:00,5.7312769889832,7,versionC_stim.csv,VC_VersionC.csv,"Version C","VC Version C",STENCH,SMELL,Study1,F,42,49,VC,User,-,"How many vowels are the two words combined?|Type your response below and then press Enter.",Study/JOL,"Study Phase",5231,,,4198,4199,,,,2,1
5c34e402b96e660001cb5ce6,gby4oli74z,"Deep vs Shallow",1,13,2020-07-08T14:31:46-07:00,6.1476130485535,7,versionC_stim.csv,VC_VersionC.csv,"Version C","VC Version C",AMOUNT,NUMBER,Study1,S,47,77,VC,User,-,"How many vowels are the two words combined?|Type your response below and then press Enter.",Study/JOL,"Study Phase",5567,,,4437,4437,,,,4,1
5c34e402b96e660001cb5ce6,gby4oli74z,"Deep vs Shallow",1,14,2020-07-08T14:31:50-07:00,4.6067569255829,7,versionC_stim.csv,VC_VersionC.csv,"Version C","VC Version C",FISH,TUNA,Study1,B,25,57,VC,User,-,"How many vowels are the two words combined?|Type your response below and then press Enter.",Study/JOL,"Study Phase",3969,,,2911,2911,,,,3,1
5c34e402b96e660001cb5ce6,gby4oli74z,"Deep vs Shallow",1,15,2020-07-08T14:31:57-07:00,6.6522860527039,7,versionC_stim.csv,VC_VersionC.csv,"Version C","VC Version C",ATTIRE,CLOTHES,Study1,F,43,68,VC,User,-,"How many vowels are the two words combined?|Type your response below and then press Enter.",Study/JOL,"Study Phase",5815,,,4479,4480,,,,5,1
5c34e402b96e660001cb5ce6,gby4oli74z,"Deep vs Shallow",1,16,2020-07-08T14:32:02-07:00,4.7108361721039,7,versionC_stim.csv,VC_VersionC.csv,"Version C","VC Version C",BAR,GRILL,Study1,S,52,9,VC,User,-,"How many vowels are the two words combined?|Type your response below and then press Enter.",Study/JOL,"Study Phase",4034,,,2960,2961,,,,2,1
5c34e402b96e660001cb5ce6,gby4oli74z,"Deep vs Shallow",1,17,2020-07-08T14:32:08-07:00,6.7642929553986,7,versionC_stim.csv,VC_VersionC.csv,"Version C","VC Version C",ATTORNEY,LAW,Study1,F,34,70,VC,User,-,"How many vowels are the two words combined?|Type your response below and then press Enter.",Study/JOL,"Study Phase",6253,,,5194,5194,,,,4,1
5c34e402b96e660001cb5ce6,gby4oli74z,"Deep vs Shallow",1,18,2020-07-08T14:32:54-07:00,45.536659955978,7,versionC_stim.csv,VC_VersionC.csv,"Version C","VC Version C",WIND,BLOW,Study1,S,55,80,VC,User,-,"How many vowels are the two words combined?|Type your response below and then press Enter.",Study/JOL,"Study Phase",44893,,,42597,42597,,,,2,0.962
5c34e402b96e660001cb5ce6,gby4oli74z,"Deep vs Shallow",1,19,2020-07-08T14:33:03-07:00,8.5272719860077,7,versionC_stim.csv,VC_VersionC.csv,"Version C","VC Version C",WORD,SENTENCE,Study1,F,31,10,VC,User,-,"How many vowels are the two words combined?|Type your response below and then press Enter.",Study/JOL,"Study Phase",7993,,,5972,5973,,,,4,1
5c34e402b96e660001cb5ce6,gby4oli74z,"Deep vs Shallow",1,20,2020-07-08T14:33:09-07:00,6.5542409420013,7,versionC_stim.csv,VC_VersionC.csv,"Version C","VC Version C",SODA,POP,Study1,S,56,39,VC,User,-,"How many vowels are the two words combined?|Type your response below and then press Enter.",Study/JOL,"Study Phase",6062,,,4401,4401,,,,3,1
5c34e402b96e660001cb5ce6,gby4oli74z,"Deep vs Shallow",1,21,2020-07-08T14:33:14-07:00,4.5055060386658,7,versionC_stim.csv,VC_VersionC.csv,"Version C","VC Version C",CHILD,BABY,Study1,S,64,22,VC,User,-,"How many vowels are the two words combined?|Type your response below and then press Enter.",Study/JOL,"Study Phase",3921,,,2904,2904,,,,2,1
5c34e402b96e660001cb5ce6,gby4oli74z,"Deep vs Shallow",1,22,2020-07-08T14:33:20-07:00,6.157557964325,7,versionC_stim.csv,VC_VersionC.csv,"Version C","VC Version C",ROCK,GEOLOGY,Study1,B,19,29,VC,User,-,"How many vowels are the two words combined?|Type your response below and then press Enter.",Study/JOL,"Study Phase",5577,,,4585,4585,,,,4,1
5c34e402b96e660001cb5ce6,gby4oli74z,"Deep vs Shallow",1,23,2020-07-08T14:33:26-07:00,5.9268660545349,7,versionC_stim.csv,VC_VersionC.csv,"Version C","VC Version C",NEWS,EDITOR,Study1,B,10,62,VC,User,-,"How many vowels are the two words combined?|Type your response below and then press Enter.",Study/JOL,"Study Phase",5249,,,4055,4055,,,,4,1
5c34e402b96e660001cb5ce6,gby4oli74z,"Deep vs Shallow",1,24,2020-07-08T14:33:33-07:00,7.3747758865356,7,versionC_stim.csv,VC_VersionC.csv,"Version C","VC Version C",PILOT,PLANE,Study1,F,44,71,VC,User,-,"How many vowels are the two words combined?|Type your response below and then press Enter.",Study/JOL,"Study Phase",6799,,,3800,3800,,,,4,1
5c34e402b96e660001cb5ce6,gby4oli74z,"Deep vs Shallow",1,25,2020-07-08T14:33:38-07:00,5.4197602272034,7,versionC_stim.csv,VC_VersionC.csv,"Version C","VC Version C",FLOWER,ORCHID,Study1,B,24,51,VC,User,-,"How many vowels are the two words combined?|Type your response below and then press Enter.",Study/JOL,"Study Phase",4804,,,3703,3703,,,,4,1
5c34e402b96e660001cb5ce6,gby4oli74z,"Deep vs Shallow",1,26,2020-07-08T14:33:46-07:00,7.2753078937531,7,versionC_stim.csv,VC_VersionC.csv,"Version C","VC Version C",WATER,BRIDGE,Study1,B,18,63,VC,User,-,"How many vowels are the two words combined?|Type your response below and then press Enter.",Study/JOL,"Study Phase",6603,,,5779,5779,,,,4,1
5c34e402b96e660001cb5ce6,gby4oli74z,"Deep vs Shallow",1,27,2020-07-08T14:33:51-07:00,4.8119320869446,7,versionC_stim.csv,VC_VersionC.csv,"Version C","VC Version C",SICK,HIDE,Study1,U,84,66,VC,User,-,"How many vowels are the two words combined?|Type your response below and then press Enter.",Study/JOL,"Study Phase",4225,,,3392,3392,,,,3,1
5c34e402b96e660001cb5ce6,gby4oli74z,"Deep vs Shallow",1,28,2020-07-08T14:33:55-07:00,4.5330398082733,7,versionC_stim.csv,VC_VersionC.csv,"Version C","VC Version C",VASE,KING,Study1,U,85,45,VC,User,-,"How many vowels are the two words combined?|Type your response below and then press Enter.",Study/JOL,"Study Phase",3770,,,2877,2877,,,,3,1
5c34e402b96e660001cb5ce6,gby4oli74z,"Deep vs Shallow",1,29,2020-07-08T14:33:59-07:00,4.0707290172577,7,versionC_stim.csv,VC_VersionC.csv,"Version C","VC Version C",OUT,WAY,Study1,B,16,37,VC,User,-,"How many vowels are the two words combined?|Type your response below and then press Enter.",Study/JOL,"Study Phase",3452,,,2566,2566,,,,3,1
5c34e402b96e660001cb5ce6,gby4oli74z,"Deep vs Shallow",1,30,2020-07-08T14:34:04-07:00,4.6096801757812,7,versionC_stim.csv,VC_VersionC.csv,"Version C","VC Version C",SEIZE,TAKE,Study1,F,29,72,VC,User,-,"How many vowels are the two words combined?|Type your response below and then press Enter.",Study/JOL,"Study Phase",3970,,,3084,3084,,,,5,1
5c34e402b96e660001cb5ce6,gby4oli74z,"Deep vs Shallow",1,31,2020-07-08T14:34:08-07:00,4.1943118572235,7,versionC_stim.csv,VC_VersionC.csv,"Version C","VC Version C",LION,ART,Study1,U,79,25,VC,User,-,"How many vowels are the two words combined?|Type your response below and then press Enter.",Study/JOL,"Study Phase",3566,,,2666,2666,,,,3,1
5c34e402b96e660001cb5ce6,gby4oli74z,"Deep vs Shallow",1,32,2020-07-08T14:34:12-07:00,4.5094511508942,7,versionC_stim.csv,VC_VersionC.csv,"Version C","VC Version C",CHORE,WORK,Study1,F,39,86,VC,User,-,"How many vowels are the two words combined?|Type your response below and then press Enter.",Study/JOL,"Study Phase",3892,,,2959,2959,,,,3,1
5c34e402b96e660001cb5ce6,gby4oli74z,"Deep vs Shallow",1,33,2020-07-08T14:34:18-07:00,5.7419369220734,7,versionC_stim.csv,VC_VersionC.csv,"Version C","VC Version C",SIGHT,DEBATE,Study1,U,73,79,VC,User,-,"How many vowels are the two words combined?|Type your response below and then press Enter.",Study/JOL,"Study Phase",4964,,,4076,4076,,,,4,1
5c34e402b96e660001cb5ce6,gby4oli74z,"Deep vs Shallow",1,34,2020-07-08T14:34:23-07:00,5.0244159698486,7,versionC_stim.csv,VC_VersionC.csv,"Version C","VC Version C",SIP,DRINK,Study1,F,27,36,VC,User,-,"How many vowels are the two words combined?|Type your response below and then press Enter.",Study/JOL,"Study Phase",4464,,,2798,3624,,,,2,1
5c34e402b96e660001cb5ce6,gby4oli74z,"Deep vs Shallow",1,35,2020-07-08T14:34:29-07:00,5.5057768821716,7,versionC_stim.csv,VC_VersionC.csv,"Version C","VC Version C",HAMMER,CHISEL,Study1,B,9,38,VC,User,-,"How many vowels are the two words combined?|Type your response below and then press Enter.",Study/JOL,"Study Phase",4654,,,3701,3701,,,,4,1
5c34e402b96e660001cb5ce6,gby4oli74z,"Deep vs Shallow",1,36,2020-07-08T14:34:34-07:00,4.8187510967255,7,versionC_stim.csv,VC_VersionC.csv,"Version C","VC Version C",WOULD,CASH,Study1,U,83,28,VC,User,-,"How many vowels are the two words combined?|Type your response below and then press Enter.",Study/JOL,"Study Phase",4119,,,3297,3298,,,,3,1
5c34e402b96e660001cb5ce6,gby4oli74z,"Deep vs Shallow",1,37,2020-07-08T14:34:37-07:00,3.689285993576,7,versionC_stim.csv,VC_VersionC.csv,"Version C","VC Version C",HAND,FIX,Study1,U,75,84,VC,User,-,"How many vowels are the two words combined?|Type your response below and then press Enter.",Study/JOL,"Study Phase",3058,,,2342,2342,,,,2,1
5c34e402b96e660001cb5ce6,gby4oli74z,"Deep vs Shallow",1,38,2020-07-08T14:34:47-07:00,9.8304479122162,7,versionC_stim.csv,VC_VersionC.csv,"Version C","VC Version C",STOMACH,DIGESTION,Study1,B,7,8,VC,User,-,"How many vowels are the two words combined?|Type your response below and then press Enter.",Study/JOL,"Study Phase",8065,,,5524,7228,,,,6,1
5c34e402b96e660001cb5ce6,gby4oli74z,"Deep vs Shallow",1,39,2020-07-08T14:34:54-07:00,7.2956480979919,7,versionC_stim.csv,VC_VersionC.csv,"Version C","VC Version C",ROUND,CIRCLE,Study1,S,65,21,VC,User,-,"How many vowels are the two words combined?|Type your response below and then press Enter.",Study/JOL,"Study Phase",6692,,,5742,5743,,,,4,1
5c34e402b96e660001cb5ce6,gby4oli74z,"Deep vs Shallow",1,40,2020-07-08T14:35:00-07:00,5.9131920337677,7,versionC_stim.csv,VC_VersionC.csv,"Version C","VC Version C",FUTURE,PAST,Study1,S,61,50,VC,User,-,"How many vowels are the two words combined?|Type your response below and then press Enter.",Study/JOL,"Study Phase",5166,,,4407,4407,,,,4,1
5c34e402b96e660001cb5ce6,gby4oli74z,"Deep vs Shallow",1,41,2020-07-08T14:35:07-07:00,6.3528919219971,7,versionC_stim.csv,VC_VersionC.csv,"Version C","VC Version C",STING,HORNET,Study1,B,11,42,VC,User,-,"How many vowels are the two words combined?|Type your response below and then press Enter.",Study/JOL,"Study Phase",5710,,,4846,4846,,,,3,1
5c34e402b96e660001cb5ce6,gby4oli74z,"Deep vs Shallow",1,42,2020-07-08T14:35:11-07:00,4.4073481559753,7,versionC_stim.csv,VC_VersionC.csv,"Version C","VC Version C",JURY,TRIAL,Study1,S,50,64,VC,User,-,"How many vowels are the two words combined?|Type your response below and then press Enter.",Study/JOL,"Study Phase",3817,,,3087,3087,,,,3,1
5c34e402b96e660001cb5ce6,gby4oli74z,"Deep vs Shallow",1,43,2020-07-08T14:35:16-07:00,5.3159987926483,7,versionC_stim.csv,VC_VersionC.csv,"Version C","VC Version C",CHEESE,WINE,Study1,S,57,17,VC,User,-,"How many vowels are the two words combined?|Type your response below and then press Enter.",Study/JOL,"Study Phase",4746,,,3907,3907,,,,5,1
5c34e402b96e660001cb5ce6,gby4oli74z,"Deep vs Shallow",1,44,2020-07-08T14:35:22-07:00,5.6323511600494,7,versionC_stim.csv,VC_VersionC.csv,"Version C","VC Version C",BLAZE,FIRE,Study1,F,45,35,VC,User,-,"How many vowels are the two words combined?|Type your response below and then press Enter.",Study/JOL,"Study Phase",4814,,,4009,4009,,,,4,1
5c34e402b96e660001cb5ce6,gby4oli74z,"Deep vs Shallow",1,45,2020-07-08T14:35:28-07:00,6.4512660503387,7,versionC_stim.csv,VC_VersionC.csv,"Version C","VC Version C",WASTE,DUMP,Study1,S,49,59,VC,User,-,"How many vowels are the two words combined?|Type your response below and then press Enter.",Study/JOL,"Study Phase",5846,,,3916,3916,,,,3,1
5c34e402b96e660001cb5ce6,gby4oli74z,"Deep vs Shallow",1,46,2020-07-08T14:35:33-07:00,4.0947887897491,7,versionC_stim.csv,VC_VersionC.csv,"Version C","VC Version C",COW,HERD,Study1,B,22,15,VC,User,-,"How many vowels are the two words combined?|Type your response below and then press Enter.",Study/JOL,"Study Phase",3321,,,2617,2618,,,,2,1
5c34e402b96e660001cb5ce6,gby4oli74z,"Deep vs Shallow",1,47,2020-07-08T14:35:37-07:00,4.4995100498199,7,versionC_stim.csv,VC_VersionC.csv,"Version C","VC Version C",LATCH,KEY,Study1,F,36,55,VC,User,-,"How many vowels are the two words combined?|Type your response below and then press Enter.",Study/JOL,"Study Phase",3820,,,3019,3020,,,,2,1
5c34e402b96e660001cb5ce6,gby4oli74z,"Deep vs Shallow",1,48,2020-07-08T14:35:42-07:00,5.1261789798737,7,versionC_stim.csv,VC_VersionC.csv,"Version C","VC Version C",ENOUGH,FULL,Study1,F,26,73,VC,User,-,"How many vowels are the two words combined?|Type your response below and then press Enter.",Study/JOL,"Study Phase",4612,,,3879,3879,,,,4,1
5c34e402b96e660001cb5ce6,gby4oli74z,"Deep vs Shallow",1,49,2020-07-08T14:35:48-07:00,5.9384410381317,7,versionC_stim.csv,VC_VersionC.csv,"Version C","VC Version C",DIVISION,MATH,Study1,F,33,61,VC,User,-,"How many vowels are the two words combined?|Type your response below and then press Enter.",Study/JOL,"Study Phase",5391,,,4672,4672,,,,5,1
5c34e402b96e660001cb5ce6,gby4oli74z,"Deep vs Shallow",1,50,2020-07-08T14:35:52-07:00,3.6920750141144,7,versionC_stim.csv,VC_VersionC.csv,"Version C","VC Version C",DOG,PAW,Study1,B,15,54,VC,User,-,"How many vowels are the two words combined?|Type your response below and then press Enter.",Study/JOL,"Study Phase",2852,,,2156,2157,,,,2,1
5c34e402b96e660001cb5ce6,gby4oli74z,"Deep vs Shallow",1,51,2020-07-08T14:35:57-07:00,4.8082499504089,7,versionC_stim.csv,VC_VersionC.csv,"Version C","VC Version C",DROWSY,SLEEP,Study1,F,41,76,VC,User,-,"How many vowels are the two words combined?|Type your response below and then press Enter.",Study/JOL,"Study Phase",4078,,,3336,3337,,,,3,1
5c34e402b96e660001cb5ce6,gby4oli74z,"Deep vs Shallow",1,52,2020-07-08T14:36:03-07:00,6.0427041053772,7,versionC_stim.csv,VC_VersionC.csv,"Version C","VC Version C",TALK,DISCUSSION,Study1,B,21,19,VC,User,-,"How many vowels are the two words combined?|Type your response below and then press Enter.",Study/JOL,"Study Phase",5350,,,4468,4468,,,,5,1
5c34e402b96e660001cb5ce6,gby4oli74z,"Deep vs Shallow",1,53,2020-07-08T14:36:09-07:00,6.7286009788513,7,versionC_stim.csv,VC_VersionC.csv,"Version C","VC Version C",SITE,LOCATION,Study1,S,48,83,VC,User,-,"How many vowels are the two words combined?|Type your response below and then press Enter.",Study/JOL,"Study Phase",5947,,,5122,5122,,,,6,1
5c34e402b96e660001cb5ce6,gby4oli74z,"Deep vs Shallow",1,54,2020-07-08T14:36:16-07:00,6.37668800354,7,versionC_stim.csv,VC_VersionC.csv,"Version C","VC Version C",ADD,VALLEY,Study1,U,82,16,VC,User,-,"How many vowels are the two words combined?|Type your response below and then press Enter.",Study/JOL,"Study Phase",4557,,,3675,3675,,,,3,1
5c34e402b96e660001cb5ce6,gby4oli74z,"Deep vs Shallow",1,55,2020-07-08T14:36:23-07:00,7.0710959434509,7,versionC_stim.csv,VC_VersionC.csv,"Version C","VC Version C",POSITION,MACHINE,Study1,U,76,24,VC,User,-,"How many vowels are the two words combined?|Type your response below and then press Enter.",Study/JOL,"Study Phase",6418,,,5636,5636,,,,7,1
5c34e402b96e660001cb5ce6,gby4oli74z,"Deep vs Shallow",1,56,2020-07-08T14:36:29-07:00,6.6519250869751,7,versionC_stim.csv,VC_VersionC.csv,"Version C","VC Version C",BAD,DELINQUENT,Study1,B,6,53,VC,User,-,"How many vowels are the two words combined?|Type your response below and then press Enter.",Study/JOL,"Study Phase",5969,,,4890,4890,,,,5,1
5c34e402b96e660001cb5ce6,gby4oli74z,"Deep vs Shallow",1,57,2020-07-08T14:36:36-07:00,6.0707290172577,7,versionC_stim.csv,VC_VersionC.csv,"Version C","VC Version C",BRONZE,ARTERY,Study1,U,74,41,VC,User,-,"How many vowels are the two words combined?|Type your response below and then press Enter.",Study/JOL,"Study Phase",5376,,,4285,4285,,,,4,1
5c34e402b96e660001cb5ce6,gby4oli74z,"Deep vs Shallow",1,58,2020-07-08T14:36:42-07:00,6.2199828624725,7,versionC_stim.csv,VC_VersionC.csv,"Version C","VC Version C",WAR,REVOLUTION,Study1,B,20,48,VC,User,-,"How many vowels are the two words combined?|Type your response below and then press Enter.",Study/JOL,"Study Phase",5681,,,4835,4835,,,,6,1
5c34e402b96e660001cb5ce6,gby4oli74z,"Deep vs Shallow",1,59,2020-07-08T14:36:47-07:00,5.4268441200256,7,versionC_stim.csv,VC_VersionC.csv,"Version C","VC Version C",SALAD,LETTUCE,Study1,S,59,69,VC,User,-,"How many vowels are the two words combined?|Type your response below and then press Enter.",Study/JOL,"Study Phase",4704,,,3852,3852,,,,5,1
5c34e402b96e660001cb5ce6,gby4oli74z,"Deep vs Shallow",1,60,2020-07-08T14:36:54-07:00,6.9303789138794,7,versionC_stim.csv,VC_VersionC.csv,"Version C","VC Version C",FLOOR,DISCOVER,Study1,U,71,30,VC,User,-,"How many vowels are the two words combined?|Type your response below and then press Enter.",Study/JOL,"Study Phase",5587,,,4802,4802,,,,5,1
5c34e402b96e660001cb5ce6,gby4oli74z,"Deep vs Shallow",1,61,2020-07-08T14:37:01-07:00,6.8927879333496,7,versionC_stim.csv,VC_VersionC.csv,"Version C","VC Version C",SACKING,DIETARY,Study1,U,67,34,VC,User,-,"How many vowels are the two words combined?|Type your response below and then press Enter.",Study/JOL,"Study Phase",5974,,,5182,5182,,,,5,1
5c34e402b96e660001cb5ce6,gby4oli74z,"Deep vs Shallow",1,62,2020-07-08T14:37:06-07:00,5.0367341041565,7,versionC_stim.csv,VC_VersionC.csv,"Version C","VC Version C",PLANT,ROOT,Study1,B,13,20,VC,User,-,"How many vowels are the two words combined?|Type your response below and then press Enter.",Study/JOL,"Study Phase",4331,,,3493,3493,,,,3,1
5c34e402b96e660001cb5ce6,gby4oli74z,"Deep vs Shallow",1,63,2020-07-08T14:37:12-07:00,5.6326930522919,7,versionC_stim.csv,VC_VersionC.csv,"Version C","VC Version C",CAVE,DARK,Study1,F,28,12,VC,User,-,"How many vowels are the two words combined?|Type your response below and then press Enter.",Study/JOL,"Study Phase",3841,,,3026,3026,,,,3,1
5c34e402b96e660001cb5ce6,gby4oli74z,"Deep vs Shallow",1,64,2020-07-08T14:37:18-07:00,6.3286049365997,7,versionC_stim.csv,VC_VersionC.csv,"Version C","VC Version C",CLEAN,HYGIENE,Study1,B,17,58,VC,User,-,"How many vowels are the two words combined?|Type your response below and then press Enter.",Study/JOL,"Study Phase",5692,,,4825,4825,,,,5,1
5c34e402b96e660001cb5ce6,gby4oli74z,"Deep vs Shallow",1,65,2020-07-08T14:37:22-07:00,3.9985740184784,7,versionC_stim.csv,VC_VersionC.csv,"Version C","VC Version C",CAR,HAPPY,Study1,U,77,56,VC,User,-,"How many vowels are the two words combined?|Type your response below and then press Enter.",Study/JOL,"Study Phase",3183,,,2528,2528,,,,2,1
5c34e402b96e660001cb5ce6,gby4oli74z,"Deep vs Shallow",1,66,2020-07-08T14:37:29-07:00,7.2646350860596,7,versionC_stim.csv,VC_VersionC.csv,"Version C","VC Version C",FANTASTIC,GREAT,Study1,F,35,32,VC,User,-,"How many vowels are the two words combined?|Type your response below and then press Enter.",Study/JOL,"Study Phase",6536,,,5701,5702,,,,5,1
5c34e402b96e660001cb5ce6,gby4oli74z,"Deep vs Shallow",1,67,2020-07-08T14:37:35-07:00,5.6227889060974,7,versionC_stim.csv,VC_VersionC.csv,"Version C","VC Version C",MONEY,WAGE,Study1,B,8,23,VC,User,-,"How many vowels are the two words combined?|Type your response below and then press Enter.",Study/JOL,"Study Phase",3983,,,3184,3184,,,,4,1
5c34e402b96e660001cb5ce6,gby4oli74z,"Deep vs Shallow",1,68,2020-07-08T14:37:39-07:00,4.4157009124756,7,versionC_stim.csv,VC_VersionC.csv,"Version C","VC Version C",BIRD,SWAN,Study1,B,14,52,VC,User,-,"How many vowels are the two words combined?|Type your response below and then press Enter.",Study/JOL,"Study Phase",3563,,,2906,2906,,,,2,1
5c34e402b96e660001cb5ce6,gby4oli74z,"Deep vs Shallow",1,69,2020-07-08T14:37:43-07:00,4.0958940982819,7,versionC_stim.csv,VC_VersionC.csv,"Version C","VC Version C",RIDDLE,SUGAR,Study1,U,81,46,VC,User,-,"How many vowels are the two words combined?|Type your response below and then press Enter.",Study/JOL,"Study Phase",3558,,,2817,2817,,,,3,1
5c34e402b96e660001cb5ce6,gby4oli74z,"Deep vs Shallow",1,70,2020-07-08T14:37:50-07:00,6.4483330249786,7,versionC_stim.csv,VC_VersionC.csv,"Version C","VC Version C",BUSINESS,DEATH,Study1,U,72,7,VC,User,-,"How many vowels are the two words combined?|Type your response below and then press Enter.",Study/JOL,"Study Phase",5857,,,5033,5033,,,,5,1
5c34e402b96e660001cb5ce6,gby4oli74z,"Deep vs Shallow",1,71,2020-07-08T14:37:56-07:00,5.7339220046997,7,versionC_stim.csv,VC_VersionC.csv,"Version C","VC Version C",CLUTTER,PUSHER,Study1,U,66,78,VC,User,-,"How many vowels are the two words combined?|Type your response below and then press Enter.",Study/JOL,"Study Phase",5118,,,4317,4317,,,,4,1
5c34e402b96e660001cb5ce6,gby4oli74z,"Deep vs Shallow",1,72,2020-07-08T14:38:00-07:00,4.5073940753937,7,versionC_stim.csv,VC_VersionC.csv,"Version C","VC Version C",CARD,CREDIT,Study1,B,23,82,VC,User,-,"How many vowels are the two words combined?|Type your response below and then press Enter.",Study/JOL,"Study Phase",3887,,,3178,3178,,,,3,1
5c34e402b96e660001cb5ce6,gby4oli74z,"Deep vs Shallow",1,73,2020-07-08T14:38:06-07:00,6.2360308170319,7,versionC_stim.csv,VC_VersionC.csv,"Version C","VC Version C",WASP,BUG,Study1,F,32,14,VC,User,-,"How many vowels are the two words combined?|Type your response below and then press Enter.",Study/JOL,"Study Phase",5438,,,4711,4711,,,,2,1
5c34e402b96e660001cb5ce6,gby4oli74z,"Deep vs Shallow",1,74,2020-07-08T14:38:16-07:00,9.6485831737518,7,versionC_stim.csv,VC_VersionC.csv,"Version C","VC Version C",DESIGN,ARCHITECTURE,Study1,S,51,13,VC,User,-,"How many vowels are the two words combined?|Type your response below and then press Enter.",Study/JOL,"Study Phase",8935,,,8052,8052,,,,7,1
5c34e402b96e660001cb5ce6,gby4oli74z,"Deep vs Shallow",1,75,2020-07-08T14:38:22-07:00,6.0290257930756,7,versionC_stim.csv,VC_VersionC.csv,"Version C","VC Version C",ASSIGNMENT,DUE,Study1,S,46,60,VC,User,-,"How many vowels are the two words combined?|Type your response below and then press Enter.",Study/JOL,"Study Phase",5355,,,4595,4595,,,,5,1
5c34e402b96e660001cb5ce6,gby4oli74z,"Deep vs Shallow",1,76,2020-07-08T14:38:27-07:00,5.4245221614838,7,versionC_stim.csv,VC_VersionC.csv,"Version C","VC Version C",GROWTH,HEIGHT,Study1,F,30,40,VC,User,-,"How many vowels are the two words combined?|Type your response below and then press Enter.",Study/JOL,"Study Phase",4746,,,3960,3960,,,,3,1
5c34e402b96e660001cb5ce6,gby4oli74z,"Deep vs Shallow",1,77,2020-07-08T14:38:34-07:00,6.6597819328308,7,versionC_stim.csv,VC_VersionC.csv,"Version C","VC Version C",TOILET,BATHROOM,Study1,S,58,43,VC,User,-,"How many vowels are the two words combined?|Type your response below and then press Enter.",Study/JOL,"Study Phase",6019,,,5108,5108,,,,6,1
5c34e402b96e660001cb5ce6,gby4oli74z,"Deep vs Shallow",1,78,2020-07-08T14:38:40-07:00,5.5446100234985,7,versionC_stim.csv,VC_VersionC.csv,"Version C","VC Version C",HUNGRY,PARK,Study1,U,68,18,VC,User,-,"How many vowels are the two words combined?|Type your response below and then press Enter.",Study/JOL,"Study Phase",4697,,,3920,3920,,,,2,1
5c34e402b96e660001cb5ce6,gby4oli74z,"Deep vs Shallow",1,79,2020-07-08T14:38:46-07:00,6.1254858970642,7,versionC_stim.csv,VC_VersionC.csv,"Version C","VC Version C",ACCIDENT,STRONG,Study1,U,80,67,VC,User,-,"How many vowels are the two words combined?|Type your response below and then press Enter.",Study/JOL,"Study Phase",5491,,,4728,4728,,,,4,1
5c34e402b96e660001cb5ce6,gby4oli74z,"Deep vs Shallow",1,80,2020-07-08T14:38:54-07:00,8.6157941818237,7,versionC_stim.csv,VC_VersionC.csv,"Version C","VC Version C",DEFINITION,MEANING,Study1,S,62,33,VC,User,-,"How many vowels are the two words combined?|Type your response below and then press Enter.",Study/JOL,"Study Phase",7868,,,6826,6826,,,,8,1
5c34e402b96e660001cb5ce6,gby4oli74z,"Deep vs Shallow",1,81,2020-07-08T14:39:00-07:00,5.5189688205719,7,versionC_stim.csv,VC_VersionC.csv,"Version C","VC Version C",LIVER,KIDNEY,Study1,S,53,74,VC,User,-,"How many vowels are the two words combined?|Type your response below and then press Enter.",Study/JOL,"Study Phase",4676,,,3933,3933,,,,4,1
5c34e402b96e660001cb5ce6,gby4oli74z,"Deep vs Shallow",1,82,2020-07-08T14:39:05-07:00,4.8122870922089,7,versionC_stim.csv,VC_VersionC.csv,"Version C","VC Version C",BEE,HONEY,Study1,S,63,65,VC,User,-,"How many vowels are the two words combined?|Type your response below and then press Enter.",Study/JOL,"Study Phase",3922,,,3191,3191,,,,4,1
5c34e402b96e660001cb5ce6,gby4oli74z,"Deep vs Shallow",1,83,2020-07-08T14:39:10-07:00,4.8123159408569,7,versionC_stim.csv,VC_VersionC.csv,"Version C","VC Version C",COLD,BITTER,Study1,B,12,81,VC,User,-,"How many vowels are the two words combined?|Type your response below and then press Enter.",Study/JOL,"Study Phase",4103,,,3410,3410,,,,3,1
5c34e402b96e660001cb5ce6,gby4oli74z,"Deep vs Shallow",1,84,2020-07-08T14:39:14-07:00,4.4256091117859,7,versionC_stim.csv,VC_VersionC.csv,"Version C","VC Version C",TUCK,ALLOW,Study1,U,78,75,VC,User,-,"How many vowels are the two words combined?|Type your response below and then press Enter.",Study/JOL,"Study Phase",3843,,,3072,3072,,,,3,1
5c34e402b96e660001cb5ce6,gby4oli74z,"Deep vs Shallow",1,85,2020-07-08T14:39:21-07:00,7.1550679206848,7,versionC_stim.csv,VC_VersionC.csv,"Version C","VC Version C",FAMINE,HUNGER,Study1,F,40,44,VC,User,-,"How many vowels are the two words combined?|Type your response below and then press Enter.",Study/JOL,"Study Phase",5363,,,4650,4650,,,,5,1
5c34e402b96e660001cb5ce6,gby4oli74z,"Deep vs Shallow",1,86,2020-07-08T14:39:25-07:00,3.986006975174,7,versionC_stim.csv,VC_VersionC.csv,"Version C","VC Version C",BELT,SOON,Study1,U,70,47,VC,User,-,"How many vowels are the two words combined?|Type your response below and then press Enter.",Study/JOL,"Study Phase",3358,,,2661,2661,,,,3,1
5c34e402b96e660001cb5ce6,gby4oli74z,"Deep vs Shallow",1,87,2020-07-08T14:39:29-07:00,3.7878229618073,7,versionC_stim.csv,VC_VersionC.csv,"Version C","VC Version C",WOMAN,LIFT,Study1,U,69,85,VC,User,-,"How many vowels are the two words combined?|Type your response below and then press Enter.",Study/JOL,"Study Phase",3136,,,2441,2441,,,,3,1
5c34e402b96e660001cb5ce6,gby4oli74z,"Deep vs Shallow",1,88,2020-07-08T14:39:33-07:00,4.0972580909729,7,versionC_stim.csv,VC_VersionC.csv,"Version C","VC Version C",RACKET,BALL,Study1,F,38,26,VC,User,-,"How many vowels are the two words combined?|Type your response below and then press Enter.",Study/JOL,"Study Phase",3160,,,2416,2417,,,,3,1
5c34e402b96e660001cb5ce6,gby4oli74z,"Deep vs Shallow",1,89,2020-07-08T14:39:38-07:00,4.9289491176605,7,versionC_stim.csv,VC_VersionC.csv,"Version C","VC Version C",END,BEGIN,Study1,S,54,31,VC,User,-,"How many vowels are the two words combined?|Type your response below and then press Enter.",Study/JOL,"Study Phase",4340,,,3623,3623,,,,3,1
5c34e402b96e660001cb5ce6,gby4oli74z,"Deep vs Shallow",1,90,2020-07-08T14:39:44-07:00,5.7157847881317,7,versionC_stim.csv,VC_VersionC.csv,"Version C","VC Version C",SPACE,MOON,BUFFER2,Buffer,89,91,VC,User,-,"How many vowels are the two words combined?|Type your response below and then press Enter.",Study/JOL,BUFFER2,4867,,,4174,4175,,,,4,1
5c34e402b96e660001cb5ce6,gby4oli74z,"Deep vs Shallow",1,91,2020-07-08T14:39:51-07:00,7.6678931713104,7,versionC_stim.csv,VC_VersionC.csv,"Version C","VC Version C",CHOCOLATE,MALT,BUFFER2,Buffer,88,88,VC,User,-,"How many vowels are the two words combined?|Type your response below and then press Enter.",Study/JOL,BUFFER2,6852,,,4679,4679,,,,5,1
5c34e402b96e660001cb5ce6,gby4oli74z,"Deep vs Shallow",1,92,2020-07-08T14:39:55-07:00,3.6073179244995,7,versionC_stim.csv,VC_VersionC.csv,"Version C","VC Version C",STUFF,THING,BUFFER2,Buffer,90,87,VC,User,-,"How many vowels are the two words combined?|Type your response below and then press Enter.",Study/JOL,BUFFER2,2984,,,2303,2303,,,,2,1
5c34e402b96e660001cb5ce6,gby4oli74z,"Deep vs Shallow",1,93,2020-07-08T14:40:02-07:00,7.1559820175171,7,versionC_stim.csv,VC_VersionC.csv,"Version C","VC Version C",POLICE,SHERRIF,BUFFER2,Buffer,87,90,VC,User,-,"How many vowels are the two words combined?|Type your response below and then press Enter.",Study/JOL,BUFFER2,6344,,,5583,5584,,,,5,1
5c34e402b96e660001cb5ce6,gby4oli74z,"Deep vs Shallow",1,94,2020-07-08T14:40:07-07:00,4.6114330291748,7,versionC_stim.csv,VC_VersionC.csv,"Version C","VC Version C",GOOSE,GEESE,BUFFER2,Buffer,86,89,VC,User,-,"How many vowels are the two words combined?|Type your response below and then press Enter.",Study/JOL,BUFFER2,4004,,,3170,3170,,,,6,1
5c34e402b96e660001cb5ce6,gby4oli74z,"Deep vs Shallow",1,95,2020-07-08T14:40:09-07:00,2.5603430271149,7,versionC_stim.csv,VC_VersionC.csv,"Version C","VC Version C",,,,,,0,Instruct,User,-,"You have completed this section. Please press Enter.",Filler_Instruction,Instruct2,1933,,,-1,-1,,,,,1
5c34e402b96e660001cb5ce6,gby4oli74z,"Deep vs Shallow",1,96,2020-07-08T14:42:10-07:00,120.63058495522,7,versionC_stim.csv,VC_VersionC.csv,"Version C","VC Version C",,,,,,0,FreeRecall,120,120,"Please list the 50 US states in alphabetical order. The task will automatically advance to the next screen after two minutes.",,Filler1,120004,"Alabama, Arizona, Arkansas, Boston, California, Florida, New York, Texas, ",0,5688,118208,0,0,,,1
5c34e402b96e660001cb5ce6,gby4oli74z,"Deep vs Shallow",1,97,2020-07-08T14:42:22-07:00,11.93169093132,7,versionC_stim.csv,VC_VersionC.csv,"Version C","VC Version C",,,,,,0,Instruct,-,10,"You will now be presented with the first word from each of the previously studied item pairs. Please type the missing word. If you do not know the word, you may guess or press Enter to skip forward to the next pair.",,Instruct3,11166,,,-1,-1,,,,,1
5c34e402b96e660001cb5ce6,gby4oli74z,"Deep vs Shallow",1,98,2020-07-08T14:42:27-07:00,5.3702521324158,7,versionC_stim.csv,VC_VersionC.csv,"Version C","VC Version C",WATER,BRIDGE,Study1,B,18,63,Test,User,-,,Recall,Recall1,4678,Glass,18.181818181818,2492,3728,0,0,,,1
5c34e402b96e660001cb5ce6,gby4oli74z,"Deep vs Shallow",1,99,2020-07-08T14:42:32-07:00,4.4303200244904,7,versionC_stim.csv,VC_VersionC.csv,"Version C","VC Version C",CHEESE,WINE,Study1,S,57,17,Test,User,-,,Recall,Recall1,3765,Board,0,2124,2870,0,0,,,1
5c34e402b96e660001cb5ce6,gby4oli74z,"Deep vs Shallow",1,100,2020-07-08T14:42:36-07:00,3.9695179462433,7,versionC_stim.csv,VC_VersionC.csv,"Version C","VC Version C",HAMMER,CHISEL,Study1,B,9,38,Test,User,-,,Recall,Recall1,3264,Time,40,1842,2399,0,0,,,1
5c34e402b96e660001cb5ce6,gby4oli74z,"Deep vs Shallow",1,101,2020-07-08T14:42:42-07:00,6.667093038559,7,versionC_stim.csv,VC_VersionC.csv,"Version C","VC Version C",POSITION,MACHINE,Study1,U,76,24,Test,User,-,,Recall,Recall1,5992,Up,0,4877,5097,0,0,,,1
5c34e402b96e660001cb5ce6,gby4oli74z,"Deep vs Shallow",1,102,2020-07-08T14:42:48-07:00,5.727746963501,7,versionC_stim.csv,VC_VersionC.csv,"Version C","VC Version C",TALK,DISCUSSION,Study1,B,21,19,Test,User,-,,Recall,Recall1,5081,Phone,26.666666666667,3477,4218,0,0,,,1
5c34e402b96e660001cb5ce6,gby4oli74z,"Deep vs Shallow",1,103,2020-07-08T14:42:52-07:00,4.3100519180298,7,versionC_stim.csv,VC_VersionC.csv,"Version C","VC Version C",CLEAN,HYGIENE,Study1,B,17,58,Test,User,-,,Recall,Recall1,3587,Dirty,16.666666666667,1843,2784,0,0,,,1
5c34e402b96e660001cb5ce6,gby4oli74z,"Deep vs Shallow",1,104,2020-07-08T14:42:56-07:00,4.1787869930267,7,versionC_stim.csv,VC_VersionC.csv,"Version C","VC Version C",BLAZE,FIRE,Study1,F,45,35,Test,User,-,,Recall,Recall1,3229,Fire,100,1794,2424,1,1,,,1
5c34e402b96e660001cb5ce6,gby4oli74z,"Deep vs Shallow",1,105,2020-07-08T14:43:00-07:00,3.5204150676727,7,versionC_stim.csv,VC_VersionC.csv,"Version C","VC Version C",ASSIGNMENT,DUE,Study1,S,46,60,Test,User,-,,Recall,Recall1,2966,Due,100,1871,2207,1,1,,,1
5c34e402b96e660001cb5ce6,gby4oli74z,"Deep vs Shallow",1,106,2020-07-08T14:43:05-07:00,5.1990299224854,7,versionC_stim.csv,VC_VersionC.csv,"Version C","VC Version C",SACKING,DIETARY,Study1,U,67,34,Test,User,-,,Recall,Recall1,4695,Potato,30.769230769231,2932,3790,0,0,,,1
5c34e402b96e660001cb5ce6,gby4oli74z,"Deep vs Shallow",1,107,2020-07-08T14:43:12-07:00,6.3226430416107,7,versionC_stim.csv,VC_VersionC.csv,"Version C","VC Version C",ENOUGH,FULL,Study1,F,26,73,Test,User,-,,Recall,Recall1,5558,Total,22.222222222222,4063,4741,0,0,,,1
5c34e402b96e660001cb5ce6,gby4oli74z,"Deep vs Shallow",1,108,2020-07-08T14:43:15-07:00,3.5123469829559,7,versionC_stim.csv,VC_VersionC.csv,"Version C","VC Version C",STOMACH,DIGESTION,Study1,B,7,8,Test,User,-,,Recall,Recall1,2904,Ache,15.384615384615,1540,2120,0,0,,,1
5c34e402b96e660001cb5ce6,gby4oli74z,"Deep vs Shallow",1,109,2020-07-08T14:43:23-07:00,8.4803340435028,7,versionC_stim.csv,VC_VersionC.csv,"Version C","VC Version C",ACCIDENT,STRONG,Study1,U,80,67,Test,User,-,,Recall,Recall1,7886,Boat,20,4749,7102,0,0,,,1
5c34e402b96e660001cb5ce6,gby4oli74z,"Deep vs Shallow",1,110,2020-07-08T14:43:28-07:00,4.9022948741913,7,versionC_stim.csv,VC_VersionC.csv,"Version C","VC Version C",TOILET,BATHROOM,Study1,S,58,43,Test,User,-,,Recall,Recall1,4238,Bathroom,100,2251,3396,1,1,,,1
5c34e402b96e660001cb5ce6,gby4oli74z,"Deep vs Shallow",1,111,2020-07-08T14:43:32-07:00,3.8105549812317,7,versionC_stim.csv,VC_VersionC.csv,"Version C","VC Version C",SEIZE,TAKE,Study1,F,29,72,Test,User,-,,Recall,Recall1,3272,Day,28.571428571429,2049,2374,0,0,,,1
5c34e402b96e660001cb5ce6,gby4oli74z,"Deep vs Shallow",1,112,2020-07-08T14:43:36-07:00,3.783527135849,7,versionC_stim.csv,VC_VersionC.csv,"Version C","VC Version C",FOOT,SHOE,Study1,S,60,11,Test,User,-,,Recall,Recall1,2949,Leg,28.571428571429,1774,2112,0,0,,,1
5c34e402b96e660001cb5ce6,gby4oli74z,"Deep vs Shallow",1,113,2020-07-08T14:43:40-07:00,4.4105770587921,7,versionC_stim.csv,VC_VersionC.csv,"Version C","VC Version C",FANTASTIC,GREAT,Study1,F,35,32,Test,User,-,,Recall,Recall1,3600,Fox,0,1994,2473,0,0,,,1
5c34e402b96e660001cb5ce6,gby4oli74z,"Deep vs Shallow",1,114,2020-07-08T14:43:47-07:00,6.2571048736572,7,versionC_stim.csv,VC_VersionC.csv,"Version C","VC Version C",MONEY,WAGE,Study1,B,8,23,Test,User,-,,Recall,Recall1,5477,Time,25,2442,4600,0,0,,,1
5c34e402b96e660001cb5ce6,gby4oli74z,"Deep vs Shallow",1,115,2020-07-08T14:43:50-07:00,3.3632600307465,7,versionC_stim.csv,VC_VersionC.csv,"Version C","VC Version C",CAVE,DARK,Study1,F,28,12,Test,User,-,,Recall,Recall1,2662,Man,28.571428571429,1610,1800,0,0,,,1
5c34e402b96e660001cb5ce6,gby4oli74z,"Deep vs Shallow",1,116,2020-07-08T14:43:55-07:00,4.6044690608978,7,versionC_stim.csv,VC_VersionC.csv,"Version C","VC Version C",STING,HORNET,Study1,B,11,42,Test,User,-,,Recall,Recall1,3778,Nettle,50,2070,2991,0,0,,,1
5c34e402b96e660001cb5ce6,gby4oli74z,"Deep vs Shallow",1,117,2020-07-08T14:43:58-07:00,3.4954469203949,7,versionC_stim.csv,VC_VersionC.csv,"Version C","VC Version C",WOMAN,LIFT,Study1,U,69,85,Test,User,-,,Recall,Recall1,2732,Man,0,1709,1880,0,0,,,1
5c34e402b96e660001cb5ce6,gby4oli74z,"Deep vs Shallow",1,118,2020-07-08T14:44:02-07:00,3.5563759803772,7,versionC_stim.csv,VC_VersionC.csv,"Version C","VC Version C",CAR,HAPPY,Study1,U,77,56,Test,User,-,,Recall,Recall1,2923,Park,22.222222222222,1638,2097,0,0,,,1
5c34e402b96e660001cb5ce6,gby4oli74z,"Deep vs Shallow",1,119,2020-07-08T14:44:05-07:00,3.3940560817719,7,versionC_stim.csv,VC_VersionC.csv,"Version C","VC Version C",SODA,POP,Study1,S,56,39,Test,User,-,,Recall,Recall1,2864,Can,0,1751,1998,0,0,,,1
5c34e402b96e660001cb5ce6,gby4oli74z,"Deep vs Shallow",1,120,2020-07-08T14:44:09-07:00,3.8933019638062,7,versionC_stim.csv,VC_VersionC.csv,"Version C","VC Version C",WASP,BUG,Study1,F,32,14,Test,User,-,,Recall,Recall1,3235,Sting,25,1580,2393,0,0,,,1
5c34e402b96e660001cb5ce6,gby4oli74z,"Deep vs Shallow",1,121,2020-07-08T14:44:13-07:00,4.1962270736694,7,versionC_stim.csv,VC_VersionC.csv,"Version C","VC Version C",WORD,SENTENCE,Study1,F,31,10,Test,User,-,,Recall,Recall1,3456,Party,15.384615384615,1902,2628,0,0,,,1
5c34e402b96e660001cb5ce6,gby4oli74z,"Deep vs Shallow",1,122,2020-07-08T14:44:17-07:00,3.7863109111786,7,versionC_stim.csv,VC_VersionC.csv,"Version C","VC Version C",PILOT,PLANE,Study1,F,44,71,Test,User,-,,Recall,Recall1,3110,Plane,100,1785,2325,1,1,,,1
5c34e402b96e660001cb5ce6,gby4oli74z,"Deep vs Shallow",1,123,2020-07-08T14:44:22-07:00,4.6073091030121,7,versionC_stim.csv,VC_VersionC.csv,"Version C","VC Version C",RACKET,BALL,Study1,F,38,26,Test,User,-,,Recall,Recall1,4081,"Sport ",0,1708,2382,0,0,,,1
5c34e402b96e660001cb5ce6,gby4oli74z,"Deep vs Shallow",1,124,2020-07-08T14:44:27-07:00,5.8375158309937,7,versionC_stim.csv,VC_VersionC.csv,"Version C","VC Version C",ATTORNEY,LAW,Study1,F,34,70,Test,User,-,,Recall,Recall1,4983,"Trial ",25,2407,3135,0,0,,,1
5c34e402b96e660001cb5ce6,gby4oli74z,"Deep vs Shallow",1,125,2020-07-08T14:44:31-07:00,3.6911602020264,7,versionC_stim.csv,VC_VersionC.csv,"Version C","VC Version C",PLANT,ROOT,Study1,B,13,20,Test,User,-,,Recall,Recall1,2933,Pot,57.142857142857,1739,2162,0,0,,,1
5c34e402b96e660001cb5ce6,gby4oli74z,"Deep vs Shallow",1,126,2020-07-08T14:44:36-07:00,5.2980577945709,7,versionC_stim.csv,VC_VersionC.csv,"Version C","VC Version C",VASE,KING,Study1,U,85,45,Test,User,-,,Recall,Recall1,3706,Flower,0,1922,2970,0,0,,,1
5c34e402b96e660001cb5ce6,gby4oli74z,"Deep vs Shallow",1,127,2020-07-08T14:44:42-07:00,5.2470700740814,7,versionC_stim.csv,VC_VersionC.csv,"Version C","VC Version C",GROWTH,HEIGHT,Study1,F,30,40,Test,User,-,,Recall,Recall1,4618,"Spurt ",18.181818181818,2198,3150,0,0,,,1
5c34e402b96e660001cb5ce6,gby4oli74z,"Deep vs Shallow",1,128,2020-07-08T14:44:46-07:00,3.9936361312866,7,versionC_stim.csv,VC_VersionC.csv,"Version C","VC Version C",DROWSY,SLEEP,Study1,F,41,76,Test,User,-,,Recall,Recall1,3417,Sleep,100,1722,2340,1,1,,,1
5c34e402b96e660001cb5ce6,gby4oli74z,"Deep vs Shallow",1,129,2020-07-08T14:44:50-07:00,4.8114957809448,7,versionC_stim.csv,VC_VersionC.csv,"Version C","VC Version C",SITE,LOCATION,Study1,S,48,83,Test,User,-,,Recall,Recall1,4005,Man,36.363636363636,2964,3163,0,0,,,1
5c34e402b96e660001cb5ce6,gby4oli74z,"Deep vs Shallow",1,130,2020-07-08T14:44:54-07:00,3.8969650268555,7,versionC_stim.csv,VC_VersionC.csv,"Version C","VC Version C",LION,ART,Study1,U,79,25,Test,User,-,,Recall,Recall1,3347,Roar,57.142857142857,1916,2540,0,0,,,1
5c34e402b96e660001cb5ce6,gby4oli74z,"Deep vs Shallow",1,131,2020-07-08T14:45:00-07:00,5.6278891563416,7,versionC_stim.csv,VC_VersionC.csv,"Version C","VC Version C",ADD,VALLEY,Study1,U,82,16,Test,User,-,,Recall,Recall1,4994,Subtract,14.285714285714,1740,3076,0,0,,,1
5c34e402b96e660001cb5ce6,gby4oli74z,"Deep vs Shallow",1,132,2020-07-08T14:45:06-07:00,6.2444818019867,7,versionC_stim.csv,VC_VersionC.csv,"Version C","VC Version C",FLOOR,DISCOVER,Study1,U,71,30,Test,User,-,,Recall,Recall1,5263,Ceiling,26.666666666667,3342,4430,0,0,,,1
5c34e402b96e660001cb5ce6,gby4oli74z,"Deep vs Shallow",1,133,2020-07-08T14:45:20-07:00,13.931932210922,7,versionC_stim.csv,VC_VersionC.csv,"Version C","VC Version C",LIVER,KIDNEY,Study1,S,53,74,Test,User,-,,Recall,Recall1,13285,Disease,30.769230769231,11260,12496,0,0,,,0.867
5c34e402b96e660001cb5ce6,gby4oli74z,"Deep vs Shallow",1,134,2020-07-08T14:45:24-07:00,4.2345218658447,7,versionC_stim.csv,VC_VersionC.csv,"Version C","VC Version C",WASTE,DUMP,Study1,S,49,59,Test,User,-,,Recall,Recall1,3375,Bin,0,2119,2476,0,0,,,1
5c34e402b96e660001cb5ce6,gby4oli74z,"Deep vs Shallow",1,135,2020-07-08T14:45:30-07:00,5.3863141536713,7,versionC_stim.csv,VC_VersionC.csv,"Version C","VC Version C",TUCK,ALLOW,Study1,U,78,75,Test,User,-,,Recall,Recall1,4554,Shop,22.222222222222,1961,3736,0,0,,,1
5c34e402b96e660001cb5ce6,gby4oli74z,"Deep vs Shallow",1,136,2020-07-08T14:45:34-07:00,3.8903830051422,7,versionC_stim.csv,VC_VersionC.csv,"Version C","VC Version C",FLOWER,ORCHID,Study1,B,24,51,Test,User,-,,Recall,Recall1,3185,Pot,22.222222222222,1785,2197,0,0,,,1
5c34e402b96e660001cb5ce6,gby4oli74z,"Deep vs Shallow",1,137,2020-07-08T14:45:38-07:00,4.1988039016724,7,versionC_stim.csv,VC_VersionC.csv,"Version C","VC Version C",WOULD,CASH,Study1,U,83,28,Test,User,-,,Recall,Recall1,3443,Not,0,2239,2637,0,0,,,1
5c34e402b96e660001cb5ce6,gby4oli74z,"Deep vs Shallow",1,138,2020-07-08T14:45:42-07:00,4.0790379047394,7,versionC_stim.csv,VC_VersionC.csv,"Version C","VC Version C",ROUND,CIRCLE,Study1,S,65,21,Test,User,-,,Recall,Recall1,3287,Pound,0,1752,2503,0,0,,,1
5c34e402b96e660001cb5ce6,gby4oli74z,"Deep vs Shallow",1,139,2020-07-08T14:45:47-07:00,4.9307169914246,7,versionC_stim.csv,VC_VersionC.csv,"Version C","VC Version C",COLD,BITTER,Study1,B,12,81,Test,User,-,,Recall,Recall1,4292,Hot,22.222222222222,1594,3461,0,0,,,1
5c34e402b96e660001cb5ce6,gby4oli74z,"Deep vs Shallow",1,140,2020-07-08T14:45:51-07:00,3.7759740352631,7,versionC_stim.csv,VC_VersionC.csv,"Version C","VC Version C",LATCH,KEY,Study1,F,36,55,Test,User,-,,Recall,Recall1,2810,Key,100,1641,1969,1,1,,,1
5c34e402b96e660001cb5ce6,gby4oli74z,"Deep vs Shallow",1,141,2020-07-08T14:45:55-07:00,4.2119319438934,7,versionC_stim.csv,VC_VersionC.csv,"Version C","VC Version C",DIVISION,MATH,Study1,F,33,61,Test,User,-,,Recall,Recall1,3597,Math,100,2023,2634,1,1,,,1
5c34e402b96e660001cb5ce6,gby4oli74z,"Deep vs Shallow",1,142,2020-07-08T14:45:59-07:00,4.4079830646515,7,versionC_stim.csv,VC_VersionC.csv,"Version C","VC Version C",DEFINITION,MEANING,Study1,S,62,33,Test,User,-,,Recall,Recall1,3737,Word,0,2511,2952,0,0,,,1
5c34e402b96e660001cb5ce6,gby4oli74z,"Deep vs Shallow",1,143,2020-07-08T14:46:05-07:00,5.3225290775299,7,versionC_stim.csv,VC_VersionC.csv,"Version C","VC Version C",WIND,BLOW,Study1,S,55,80,Test,User,-,,Recall,Recall1,4732,Vane,0,3185,3562,0,0,,,1
5c34e402b96e660001cb5ce6,gby4oli74z,"Deep vs Shallow",1,144,2020-07-08T14:46:09-07:00,4.1015589237213,7,versionC_stim.csv,VC_VersionC.csv,"Version C","VC Version C",SICK,HIDE,Study1,U,84,66,Test,User,-,,Recall,Recall1,3393,Ill,28.571428571429,2168,2552,0,0,,,1
5c34e402b96e660001cb5ce6,gby4oli74z,"Deep vs Shallow",1,145,2020-07-08T14:46:13-07:00,4.1998651027679,7,versionC_stim.csv,VC_VersionC.csv,"Version C","VC Version C",BELT,SOON,Study1,U,70,47,Test,User,-,,Recall,Recall1,3532,Buckle,0,1787,2646,0,0,,,1
5c34e402b96e660001cb5ce6,gby4oli74z,"Deep vs Shallow",1,146,2020-07-08T14:46:19-07:00,5.8298709392548,7,versionC_stim.csv,VC_VersionC.csv,"Version C","VC Version C",SALAD,LETTUCE,Study1,S,59,69,Test,User,-,,Recall,Recall1,5200,"Potato ",30.769230769231,1820,3302,0,0,,,1
5c34e402b96e660001cb5ce6,gby4oli74z,"Deep vs Shallow",1,147,2020-07-08T14:46:23-07:00,4.3021440505981,7,versionC_stim.csv,VC_VersionC.csv,"Version C","VC Version C",SIP,DRINK,Study1,F,27,36,Test,User,-,,Recall,Recall1,3575,Drink,100,1946,2652,1,1,,,1
5c34e402b96e660001cb5ce6,gby4oli74z,"Deep vs Shallow",1,148,2020-07-08T14:46:27-07:00,3.8941869735718,7,versionC_stim.csv,VC_VersionC.csv,"Version C","VC Version C",WAR,REVOLUTION,Study1,B,20,48,Test,User,-,,Recall,Recall1,3257,Peace,13.333333333333,1715,2425,0,0,,,1
5c34e402b96e660001cb5ce6,gby4oli74z,"Deep vs Shallow",1,149,2020-07-08T14:46:30-07:00,3.577173948288,7,versionC_stim.csv,VC_VersionC.csv,"Version C","VC Version C",CLUTTER,PUSHER,Study1,U,66,78,Test,User,-,,Recall,Recall1,2945,Bug,22.222222222222,1701,2047,0,0,,,1
5c34e402b96e660001cb5ce6,gby4oli74z,"Deep vs Shallow",1,150,2020-07-08T14:46:34-07:00,3.7985389232635,7,versionC_stim.csv,VC_VersionC.csv,"Version C","VC Version C",FISH,TUNA,Study1,B,25,57,Test,User,-,,Recall,Recall1,3124,Pet,28.571428571429,1716,2269,0,0,,,1
5c34e402b96e660001cb5ce6,gby4oli74z,"Deep vs Shallow",1,151,2020-07-08T14:46:39-07:00,4.894543170929,7,versionC_stim.csv,VC_VersionC.csv,"Version C","VC Version C",OUT,WAY,Study1,B,16,37,Test,User,-,,Recall,Recall1,4413,In,0,2243,2425,0,0,,,1
5c34e402b96e660001cb5ce6,gby4oli74z,"Deep vs Shallow",1,152,2020-07-08T14:46:44-07:00,4.8342468738556,7,versionC_stim.csv,VC_VersionC.csv,"Version C","VC Version C",NEWS,EDITOR,Study1,B,10,62,Test,User,-,,Recall,Recall1,4195,Report,50,2540,3433,0,0,,,1
5c34e402b96e660001cb5ce6,gby4oli74z,"Deep vs Shallow",1,153,2020-07-08T14:46:48-07:00,4.3962211608887,7,versionC_stim.csv,VC_VersionC.csv,"Version C","VC Version C",ROCK,GEOLOGY,Study1,B,19,29,Test,User,-,,Recall,Recall1,3601,Paper,16.666666666667,1900,2687,0,0,,,1
5c34e402b96e660001cb5ce6,gby4oli74z,"Deep vs Shallow",1,154,2020-07-08T14:46:52-07:00,3.386216878891,7,versionC_stim.csv,VC_VersionC.csv,"Version C","VC Version C",DOG,PAW,Study1,B,15,54,Test,User,-,,Recall,Recall1,2792,Cat,33.333333333333,1723,1980,0,0,,,1
5c34e402b96e660001cb5ce6,gby4oli74z,"Deep vs Shallow",1,155,2020-07-08T14:46:58-07:00,6.0392880439758,7,versionC_stim.csv,VC_VersionC.csv,"Version C","VC Version C",END,BEGIN,Study1,S,54,31,Test,User,-,,Recall,Recall1,5289,World,0,1936,2447,0,0,,,1
5c34e402b96e660001cb5ce6,gby4oli74z,"Deep vs Shallow",1,156,2020-07-08T14:47:03-07:00,4.9102098941803,7,versionC_stim.csv,VC_VersionC.csv,"Version C","VC Version C",CHILD,BABY,Study1,S,64,22,Test,User,-,,Recall,Recall1,4299,Man,28.571428571429,3200,3419,0,0,,,1
5c34e402b96e660001cb5ce6,gby4oli74z,"Deep vs Shallow",1,157,2020-07-08T14:47:07-07:00,4.5086381435394,7,versionC_stim.csv,VC_VersionC.csv,"Version C","VC Version C",BRONZE,ARTERY,Study1,U,74,41,Test,User,-,,Recall,Recall1,3805,Medal,18.181818181818,2189,2926,0,0,,,1
5c34e402b96e660001cb5ce6,gby4oli74z,"Deep vs Shallow",1,158,2020-07-08T14:47:12-07:00,5.0165908336639,7,versionC_stim.csv,VC_VersionC.csv,"Version C","VC Version C",BAD,DELINQUENT,Study1,B,6,53,Test,User,-,,Recall,Recall1,4175,Good,14.285714285714,1974,2466,0,0,,,1
5c34e402b96e660001cb5ce6,gby4oli74z,"Deep vs Shallow",1,159,2020-07-08T14:47:16-07:00,4.0967061519623,7,versionC_stim.csv,VC_VersionC.csv,"Version C","VC Version C",BEE,HONEY,Study1,S,63,65,Test,User,-,,Recall,Recall1,3260,Hive,44.444444444444,1822,2381,0,0,,,1
5c34e402b96e660001cb5ce6,gby4oli74z,"Deep vs Shallow",1,160,2020-07-08T14:47:21-07:00,4.6091380119324,7,versionC_stim.csv,VC_VersionC.csv,"Version C","VC Version C",STENCH,SMELL,Study1,F,42,49,Test,User,-,,Recall,Recall1,3934,Stink,20,2272,3043,0,0,,,1
5c34e402b96e660001cb5ce6,gby4oli74z,"Deep vs Shallow",1,161,2020-07-08T14:47:26-07:00,5.1201529502869,7,versionC_stim.csv,VC_VersionC.csv,"Version C","VC Version C",CHILI,HOT,Study1,F,37,27,Test,User,-,,Recall,Recall1,4396,Plant,25,2921,3510,0,0,,,1
5c34e402b96e660001cb5ce6,gby4oli74z,"Deep vs Shallow",1,162,2020-07-08T14:47:32-07:00,5.7335760593414,7,versionC_stim.csv,VC_VersionC.csv,"Version C","VC Version C",AMOUNT,NUMBER,Study1,S,47,77,Test,User,-,,Recall,Recall1,5000,Money,36.363636363636,3434,4062,0,0,,,1
5c34e402b96e660001cb5ce6,gby4oli74z,"Deep vs Shallow",1,163,2020-07-08T14:47:37-07:00,4.9097998142242,7,versionC_stim.csv,VC_VersionC.csv,"Version C","VC Version C",FUTURE,PAST,Study1,S,61,50,Test,User,-,,Recall,Recall1,3859,Bright,20,2074,2978,0,0,,,1
5c34e402b96e660001cb5ce6,gby4oli74z,"Deep vs Shallow",1,164,2020-07-08T14:47:43-07:00,6.1271030902863,7,versionC_stim.csv,VC_VersionC.csv,"Version C","VC Version C",FAMINE,HUNGER,Study1,F,40,44,Test,User,-,,Recall,Recall1,5406,Poverty,30.769230769231,3410,4576,0,0,,,1
5c34e402b96e660001cb5ce6,gby4oli74z,"Deep vs Shallow",1,165,2020-07-08T14:47:46-07:00,3.3016331195831,7,versionC_stim.csv,VC_VersionC.csv,"Version C","VC Version C",COW,HERD,Study1,B,22,15,Test,User,-,,Recall,Recall1,2749,Moo,0,1581,1926,0,0,,,1
5c34e402b96e660001cb5ce6,gby4oli74z,"Deep vs Shallow",1,166,2020-07-08T14:47:50-07:00,3.863098859787,7,versionC_stim.csv,VC_VersionC.csv,"Version C","VC Version C",CHORE,WORK,Study1,F,39,86,Test,User,-,,Recall,Recall1,3096,Work,100,1926,2225,1,1,,,1
5c34e402b96e660001cb5ce6,gby4oli74z,"Deep vs Shallow",1,167,2020-07-08T14:47:55-07:00,4.6142649650574,7,versionC_stim.csv,VC_VersionC.csv,"Version C","VC Version C",DESIGN,ARCHITECTURE,Study1,S,51,13,Test,User,-,,Recall,Recall1,3765,Fault,23.529411764706,2118,2866,0,0,,,1
5c34e402b96e660001cb5ce6,gby4oli74z,"Deep vs Shallow",1,168,2020-07-08T14:47:58-07:00,3.8047800064087,7,versionC_stim.csv,VC_VersionC.csv,"Version C","VC Version C",RIDDLE,SUGAR,Study1,U,81,46,Test,User,-,,Recall,Recall1,3186,Joke,0,1837,2313,0,0,,,1
5c34e402b96e660001cb5ce6,gby4oli74z,"Deep vs Shallow",1,169,2020-07-08T14:48:04-07:00,5.738340139389,7,versionC_stim.csv,VC_VersionC.csv,"Version C","VC Version C",ATTIRE,CLOTHES,Study1,F,43,68,Test,User,-,,Recall,Recall1,3996,Wear,18.181818181818,2473,3102,0,0,,,1
5c34e402b96e660001cb5ce6,gby4oli74z,"Deep vs Shallow",1,170,2020-07-08T14:48:08-07:00,3.5799958705902,7,versionC_stim.csv,VC_VersionC.csv,"Version C","VC Version C",BUSINESS,DEATH,Study1,U,72,7,Test,User,-,,Recall,Recall1,3012,Card,22.222222222222,1681,2143,0,0,,,1
5c34e402b96e660001cb5ce6,gby4oli74z,"Deep vs Shallow",1,171,2020-07-08T14:48:14-07:00,6.3927521705627,7,versionC_stim.csv,VC_VersionC.csv,"Version C","VC Version C",SIGHT,DEBATE,Study1,U,73,79,Test,User,-,,Recall,Recall1,5743,Glasses,30.769230769231,3792,5020,0,0,,,1
5c34e402b96e660001cb5ce6,gby4oli74z,"Deep vs Shallow",1,172,2020-07-08T14:48:19-07:00,4.9741418361664,7,versionC_stim.csv,VC_VersionC.csv,"Version C","VC Version C",CARD,CREDIT,Study1,B,23,82,Test,User,-,,Recall,Recall1,4425,Present,46.153846153846,2525,3603,0,0,,,1
5c34e402b96e660001cb5ce6,gby4oli74z,"Deep vs Shallow",1,173,2020-07-08T14:48:23-07:00,3.8925681114197,7,versionC_stim.csv,VC_VersionC.csv,"Version C","VC Version C",JURY,TRIAL,Study1,S,50,64,Test,User,-,,Recall,Recall1,3253,Trial,100,1689,2357,1,1,,,1
5c34e402b96e660001cb5ce6,gby4oli74z,"Deep vs Shallow",1,174,2020-07-08T14:48:27-07:00,3.8565728664398,7,versionC_stim.csv,VC_VersionC.csv,"Version C","VC Version C",HAND,FIX,Study1,U,75,84,Test,User,-,,Recall,Recall1,3280,Foot,28.571428571429,2099,2495,0,0,,,1
5c34e402b96e660001cb5ce6,gby4oli74z,"Deep vs Shallow",1,175,2020-07-08T14:48:32-07:00,5.4628760814667,7,versionC_stim.csv,VC_VersionC.csv,"Version C","VC Version C",HUNGRY,PARK,Study1,U,68,18,Test,User,-,,Recall,Recall1,3724,Famine,20,2006,2802,0,0,,,1
5c34e402b96e660001cb5ce6,gby4oli74z,"Deep vs Shallow",1,176,2020-07-08T14:48:37-07:00,4.3020849227905,7,versionC_stim.csv,VC_VersionC.csv,"Version C","VC Version C",BAR,GRILL,Study1,S,52,9,Test,User,-,,Recall,Recall1,3642,Tender,18.181818181818,1682,2768,0,0,,,1
5c34e402b96e660001cb5ce6,gby4oli74z,"Deep vs Shallow",1,177,2020-07-08T14:48:41-07:00,3.8650810718536,7,versionC_stim.csv,VC_VersionC.csv,"Version C","VC Version C",BIRD,SWAN,Study1,B,14,52,Test,User,-,,Recall,Recall1,3064,Watch,44.444444444444,1535,2239,0,0,,,1
5c34e402b96e660001cb5ce6,gby4oli74z,"Deep vs Shallow",1,178,2020-07-08T14:48:52-07:00,11.591099977493,7,versionC_stim.csv,VC_VersionC.csv,"Version C","VC Version C",,,,,,0,Instruct,-,10,"You will now be presented with a new set of word pairs. Please study each pair. Remember that your memory will be tested! When finished, press Enter to move to the next pair.",Initial_Instruct,Instruct4,11058,,,-1,-1,,,,,1
5c34e402b96e660001cb5ce6,gby4oli74z,"Deep vs Shallow",1,179,2020-07-08T14:49:04-07:00,11.476218938828,7,versionC_stim.csv,VC_VersionC.csv,"Version C","VC Version C",,,,,,0,Instruct,,10,"You will again be asked to count how many vowels the two words contain. Please remember to type this number in the space below each pair.",,Instruct10,10893,,,-1,-1,,,,,1
5c34e402b96e660001cb5ce6,gby4oli74z,"Deep vs Shallow",1,180,2020-07-08T14:49:06-07:00,2.0547649860382,7,versionC_stim.csv,VC_VersionC.csv,"Version C","VC Version C",,,,,,0,Instruct,User,-,"Press Enter when you are readty to begin",,Instruct11,1449,,,-1,-1,,,,,1
5c34e402b96e660001cb5ce6,gby4oli74z,"Deep vs Shallow",1,181,2020-07-08T14:49:13-07:00,7.2581841945648,7,versionC_stim.csv,VC_VersionC.csv,"Version C","VC Version C",ADVENTURE,CAMP,BUFFER3,Buffer,95,96,VC,User,-,"How many vowels are the two words combined?|Type your response below and then press Enter.",Study/JOL,BUFFER3,6540,,,5701,5701,,,,5,1
5c34e402b96e660001cb5ce6,gby4oli74z,"Deep vs Shallow",1,182,2020-07-08T14:49:19-07:00,5.6310648918152,7,versionC_stim.csv,VC_VersionC.csv,"Version C","VC Version C",FROZEN,ICE,BUFFER3,Buffer,94,93,VC,User,-,"How many vowels are the two words combined?|Type your response below and then press Enter.",Study/JOL,BUFFER3,4811,,,3899,3900,,,,4,1
5c34e402b96e660001cb5ce6,gby4oli74z,"Deep vs Shallow",1,183,2020-07-08T14:49:24-07:00,5.9417068958282,7,versionC_stim.csv,VC_VersionC.csv,"Version C","VC Version C",POTATO,CARROT,BUFFER3,Buffer,91,94,VC,User,-,"How many vowels are the two words combined?|Type your response below and then press Enter.",Study/JOL,BUFFER3,5372,,,4526,4527,,,,5,1
5c34e402b96e660001cb5ce6,gby4oli74z,"Deep vs Shallow",1,184,2020-07-08T14:49:31-07:00,6.4564690589905,7,versionC_stim.csv,VC_VersionC.csv,"Version C","VC Version C",FISH,SHRIMP,BUFFER3,Buffer,93,95,VC,User,-,"How many vowels are the two words combined?|Type your response below and then press Enter.",Study/JOL,BUFFER3,5726,,,3769,3770,,,,2,1
5c34e402b96e660001cb5ce6,gby4oli74z,"Deep vs Shallow",1,185,2020-07-08T14:49:38-07:00,6.6664550304413,7,versionC_stim.csv,VC_VersionC.csv,"Version C","VC Version C",STRING,NOODLE,BUFFER3,Buffer,92,92,VC,User,-,"How many vowels are the two words combined?|Type your response below and then press Enter.",Study/JOL,BUFFER3,5875,,,5018,5018,,,,4,1
5c34e402b96e660001cb5ce6,gby4oli74z,"Deep vs Shallow",1,186,2020-07-08T14:49:41-07:00,3.6813180446625,7,versionC_stim.csv,VC_VersionC.csv,"Version C","VC Version C",TAN,SUN,Study2,S,155,111,VC,User,-,"How many vowels are the two words combined?|Type your response below and then press Enter.",Study/JOL,"Study Phase2",2907,,,2086,2086,,,,2,1
5c34e402b96e660001cb5ce6,gby4oli74z,"Deep vs Shallow",1,187,2020-07-08T14:49:49-07:00,7.5519959926605,7,versionC_stim.csv,VC_VersionC.csv,"Version C","VC Version C",WAX,CANDLE,Study2,S,139,151,VC,User,-,"How many vowels are the two words combined?|Type your response below and then press Enter.",Study/JOL,"Study Phase2",5671,,,4664,4664,,,,3,1
5c34e402b96e660001cb5ce6,gby4oli74z,"Deep vs Shallow",1,188,2020-07-08T14:49:56-07:00,7.569550037384,7,versionC_stim.csv,VC_VersionC.csv,"Version C","VC Version C",TEMPER,TANTRUM,Study2,S,154,119,VC,User,-,"How many vowels are the two words combined?|Type your response below and then press Enter.",Study/JOL,"Study Phase2",5731,,,4931,4931,,,,4,1
5c34e402b96e660001cb5ce6,gby4oli74z,"Deep vs Shallow",1,189,2020-07-08T14:50:01-07:00,4.9463379383087,7,versionC_stim.csv,VC_VersionC.csv,"Version C","VC Version C",BANKER,MONEY,Study2,F,132,125,VC,User,-,"How many vowels are the two words combined?|Type your response below and then press Enter.",Study/JOL,"Study Phase2",4095,,,3297,3297,,,,4,1
5c34e402b96e660001cb5ce6,gby4oli74z,"Deep vs Shallow",1,190,2020-07-08T14:50:06-07:00,4.3986871242523,7,versionC_stim.csv,VC_VersionC.csv,"Version C","VC Version C",DRINK,WATER,Study2,S,143,167,VC,User,-,"How many vowels are the two words combined?|Type your response below and then press Enter.",Study/JOL,"Study Phase2",3722,,,2950,2950,,,,3,1
5c34e402b96e660001cb5ce6,gby4oli74z,"Deep vs Shallow",1,191,2020-07-08T14:50:10-07:00,3.7875878810883,7,versionC_stim.csv,VC_VersionC.csv,"Version C","VC Version C",RED,CHERRY,Study2,B,104,162,VC,User,-,"How many vowels are the two words combined?|Type your response below and then press Enter.",Study/JOL,"Study Phase2",3073,,,2363,2363,,,,2,1
5c34e402b96e660001cb5ce6,gby4oli74z,"Deep vs Shallow",1,192,2020-07-08T14:50:13-07:00,3.6842699050903,7,versionC_stim.csv,VC_VersionC.csv,"Version C","VC Version C",FLIP,TURN,Study2,F,116,155,VC,User,-,"How many vowels are the two words combined?|Type your response below and then press Enter.",Study/JOL,"Study Phase2",2953,,,2201,2202,,,,2,1
5c34e402b96e660001cb5ce6,gby4oli74z,"Deep vs Shallow",1,193,2020-07-08T14:50:18-07:00,4.9249360561371,7,versionC_stim.csv,VC_VersionC.csv,"Version C","VC Version C",CUT,CHOP,Study2,B,107,126,VC,User,-,"How many vowels are the two words combined?|Type your response below and then press Enter.",Study/JOL,"Study Phase2",3120,,,2410,2411,,,,2,1
5c34e402b96e660001cb5ce6,gby4oli74z,"Deep vs Shallow",1,194,2020-07-08T14:50:25-07:00,6.861447095871,7,versionC_stim.csv,VC_VersionC.csv,"Version C","VC Version C",LONG,EXTENSION,Study2,B,96,157,VC,User,-,"How many vowels are the two words combined?|Type your response below and then press Enter.",Study/JOL,"Study Phase2",6140,,,5324,5324,,,,5,1
5c34e402b96e660001cb5ce6,gby4oli74z,"Deep vs Shallow",1,195,2020-07-08T14:50:32-07:00,7.1832280158997,7,versionC_stim.csv,VC_VersionC.csv,"Version C","VC Version C",WINDSHIELD,CAR,Study2,F,117,163,VC,User,-,"How many vowels are the two words combined?|Type your response below and then press Enter.",Study/JOL,"Study Phase2",6507,,,5818,5819,,,,4,1
5c34e402b96e660001cb5ce6,gby4oli74z,"Deep vs Shallow",1,196,2020-07-08T14:50:39-07:00,6.6252479553223,7,versionC_stim.csv,VC_VersionC.csv,"Version C","VC Version C",SCAR,MAIN,Study2,U,175,131,VC,User,-,"How many vowels are the two words combined?|Type your response below and then press Enter.",Study/JOL,"Study Phase2",5884,,,3854,3854,,,,3,1
5c34e402b96e660001cb5ce6,gby4oli74z,"Deep vs Shallow",1,197,2020-07-08T14:50:45-07:00,5.9428360462189,7,versionC_stim.csv,VC_VersionC.csv,"Version C","VC Version C",CLOTH,STRETCH,Study2,U,157,129,VC,User,-,"How many vowels are the two words combined?|Type your response below and then press Enter.",Study/JOL,"Study Phase2",5079,,,4408,4408,,,,2,1
5c34e402b96e660001cb5ce6,gby4oli74z,"Deep vs Shallow",1,198,2020-07-08T14:50:51-07:00,5.9399018287659,7,versionC_stim.csv,VC_VersionC.csv,"Version C","VC Version C",PAPER,DOCUMENT,Study2,B,109,100,VC,User,-,"How many vowels are the two words combined?|Type your response below and then press Enter.",Study/JOL,"Study Phase2",5325,,,4628,4629,,,,5,1
5c34e402b96e660001cb5ce6,gby4oli74z,"Deep vs Shallow",1,199,2020-07-08T14:50:55-07:00,4.0108811855316,7,versionC_stim.csv,VC_VersionC.csv,"Version C","VC Version C",NAP,SLEEP,Study2,F,134,113,VC,User,-,"How many vowels are the two words combined?|Type your response below and then press Enter.",Study/JOL,"Study Phase2",3378,,,2698,2698,,,,3,1
5c34e402b96e660001cb5ce6,gby4oli74z,"Deep vs Shallow",1,200,2020-07-08T14:51:00-07:00,4.8964669704437,7,versionC_stim.csv,VC_VersionC.csv,"Version C","VC Version C",COFFIN,DEAD,Study2,F,128,115,VC,User,-,"How many vowels are the two words combined?|Type your response below and then press Enter.",Study/JOL,"Study Phase2",4265,,,3427,3427,,,,4,1
5c34e402b96e660001cb5ce6,gby4oli74z,"Deep vs Shallow",1,201,2020-07-08T14:51:06-07:00,6.1508049964905,7,versionC_stim.csv,VC_VersionC.csv,"Version C","VC Version C",LONELY,ALONE,Study2,S,145,133,VC,User,-,"How many vowels are the two words combined?|Type your response below and then press Enter.",Study/JOL,"Study Phase2",5294,,,4528,4528,,,,5,1
5c34e402b96e660001cb5ce6,gby4oli74z,"Deep vs Shallow",1,202,2020-07-08T14:51:13-07:00,7.3460080623627,7,versionC_stim.csv,VC_VersionC.csv,"Version C","VC Version C",CHILDREN,MIRROR,Study2,U,174,139,VC,User,-,"How many vowels are the two words combined?|Type your response below and then press Enter.",Study/JOL,"Study Phase2",6763,,,5991,5991,,,,4,1
5c34e402b96e660001cb5ce6,gby4oli74z,"Deep vs Shallow",1,203,2020-07-08T14:51:19-07:00,5.9603610038757,7,versionC_stim.csv,VC_VersionC.csv,"Version C","VC Version C",TRASH,LITTER,Study2,B,103,124,VC,User,-,"How many vowels are the two words combined?|Type your response below and then press Enter.",Study/JOL,"Study Phase2",5409,,,4705,4706,,,,3,1
5c34e402b96e660001cb5ce6,gby4oli74z,"Deep vs Shallow",1,204,2020-07-08T14:51:25-07:00,6.0387389659882,7,versionC_stim.csv,VC_VersionC.csv,"Version C","VC Version C",LOVE,AFFECTION,Study2,B,115,104,VC,User,-,"How many vowels are the two words combined?|Type your response below and then press Enter.",Study/JOL,"Study Phase2",5417,,,4711,4711,,,,5,1
5c34e402b96e660001cb5ce6,gby4oli74z,"Deep vs Shallow",1,205,2020-07-08T14:51:32-07:00,6.8417448997498,7,versionC_stim.csv,VC_VersionC.csv,"Version C","VC Version C",BRACELET,WRIST,Study2,S,140,146,VC,User,-,"How many vowels are the two words combined?|Type your response below and then press Enter.",Study/JOL,"Study Phase2",6270,,,5588,5589,,,,4,1
5c34e402b96e660001cb5ce6,gby4oli74z,"Deep vs Shallow",1,206,2020-07-08T14:51:38-07:00,5.6310770511627,7,versionC_stim.csv,VC_VersionC.csv,"Version C","VC Version C",PENGUIN,BIRD,Study2,F,119,128,VC,User,-,"How many vowels are the two words combined?|Type your response below and then press Enter.",Study/JOL,"Study Phase2",5099,,,4319,4319,,,,4,1
5c34e402b96e660001cb5ce6,gby4oli74z,"Deep vs Shallow",1,207,2020-07-08T14:51:43-07:00,5.4643130302429,7,versionC_stim.csv,VC_VersionC.csv,"Version C","VC Version C",DOG,FURRY,Study2,B,102,156,VC,User,-,"How many vowels are the two words combined?|Type your response below and then press Enter.",Study/JOL,"Study Phase2",4896,,,4167,4168,,,,2,1
5c34e402b96e660001cb5ce6,gby4oli74z,"Deep vs Shallow",1,208,2020-07-08T14:51:50-07:00,6.559357881546,7,versionC_stim.csv,VC_VersionC.csv,"Version C","VC Version C",FAVORITE,BEST,Study2,F,125,97,VC,User,-,"How many vowels are the two words combined?|Type your response below and then press Enter.",Study/JOL,"Study Phase2",5929,,,5251,5251,,,,4,1
5c34e402b96e660001cb5ce6,gby4oli74z,"Deep vs Shallow",1,209,2020-07-08T14:51:54-07:00,4.0965869426727,7,versionC_stim.csv,VC_VersionC.csv,"Version C","VC Version C",AWAY,GONE,Study2,S,142,137,VC,User,-,"How many vowels are the two words combined?|Type your response below and then press Enter.",Study/JOL,"Study Phase2",3474,,,2775,2775,,,,4,1
5c34e402b96e660001cb5ce6,gby4oli74z,"Deep vs Shallow",1,210,2020-07-08T14:51:59-07:00,5.61945104599,7,versionC_stim.csv,VC_VersionC.csv,"Version C","VC Version C",CAR,DRIVER,Study2,B,106,150,VC,User,-,"How many vowels are the two words combined?|Type your response below and then press Enter.",Study/JOL,"Study Phase2",5056,,,4021,4022,,,,3,1
5c34e402b96e660001cb5ce6,gby4oli74z,"Deep vs Shallow",1,211,2020-07-08T14:52:04-07:00,4.7062950134277,7,versionC_stim.csv,VC_VersionC.csv,"Version C","VC Version C",EAT,DINE,Study2,B,111,168,VC,User,-,"How many vowels are the two words combined?|Type your response below and then press Enter.",Study/JOL,"Study Phase2",4039,,,3350,3350,,,,4,1
5c34e402b96e660001cb5ce6,gby4oli74z,"Deep vs Shallow",1,212,2020-07-08T14:52:10-07:00,6.3767199516296,7,versionC_stim.csv,VC_VersionC.csv,"Version C","VC Version C",SEATBELT,SAFETY,Study2,S,147,172,VC,User,-,"How many vowels are the two words combined?|Type your response below and then press Enter.",Study/JOL,"Study Phase2",5814,,,4982,4983,,,,5,1
5c34e402b96e660001cb5ce6,gby4oli74z,"Deep vs Shallow",1,213,2020-07-08T14:52:18-07:00,7.8531270027161,7,versionC_stim.csv,VC_VersionC.csv,"Version C","VC Version C",MAROON,JUSTICE,Study2,U,156,169,VC,User,-,"How many vowels are the two words combined?|Type your response below and then press Enter.",Study/JOL,"Study Phase2",7100,,,6364,6365,,,,6,1
5c34e402b96e660001cb5ce6,gby4oli74z,"Deep vs Shallow",1,214,2020-07-08T14:52:26-07:00,7.9996440410614,7,versionC_stim.csv,VC_VersionC.csv,"Version C","VC Version C",MYSTERY,DETECTIVE,Study2,B,100,117,VC,User,-,"How many vowels are the two words combined?|Type your response below and then press Enter.",Study/JOL,"Study Phase2",7342,,,6602,6602,,,,5,1
5c34e402b96e660001cb5ce6,gby4oli74z,"Deep vs Shallow",1,215,2020-07-08T14:52:32-07:00,6.0023620128632,7,versionC_stim.csv,VC_VersionC.csv,"Version C","VC Version C",PANTHER,CAT,Study2,F,126,159,VC,User,-,"How many vowels are the two words combined?|Type your response below and then press Enter.",Study/JOL,"Study Phase2",5224,,,4405,4405,,,,3,1
5c34e402b96e660001cb5ce6,gby4oli74z,"Deep vs Shallow",1,216,2020-07-08T14:52:38-07:00,5.801304101944,7,versionC_stim.csv,VC_VersionC.csv,"Version C","VC Version C",TOIL,LEASE,Study2,U,170,134,VC,User,-,"How many vowels are the two words combined?|Type your response below and then press Enter.",Study/JOL,"Study Phase2",5006,,,4163,4163,,,,5,1
5c34e402b96e660001cb5ce6,gby4oli74z,"Deep vs Shallow",1,217,2020-07-08T14:52:46-07:00,8.0496380329132,7,versionC_stim.csv,VC_VersionC.csv,"Version C","VC Version C",STRAWBERRY,FRUIT,Study2,F,124,127,VC,User,-,"How many vowels are the two words combined?|Type your response below and then press Enter.",Study/JOL,"Study Phase2",7417,,,6639,6639,,,,4,1
5c34e402b96e660001cb5ce6,gby4oli74z,"Deep vs Shallow",1,218,2020-07-08T14:52:53-07:00,6.9819478988647,7,versionC_stim.csv,VC_VersionC.csv,"Version C","VC Version C",CLOTHES,CAKE,Study2,U,166,152,VC,User,-,"How many vowels are the two words combined?|Type your response below and then press Enter.",Study/JOL,"Study Phase2",6281,,,5455,5455,,,,4,1
5c34e402b96e660001cb5ce6,gby4oli74z,"Deep vs Shallow",1,219,2020-07-08T14:52:57-07:00,4.1766560077667,7,versionC_stim.csv,VC_VersionC.csv,"Version C","VC Version C",HATE,NAME,Study2,U,167,136,VC,User,-,"How many vowels are the two words combined?|Type your response below and then press Enter.",Study/JOL,"Study Phase2",3554,,,2727,2727,,,,4,1
5c34e402b96e660001cb5ce6,gby4oli74z,"Deep vs Shallow",1,220,2020-07-08T14:53:02-07:00,5.1322679519653,7,versionC_stim.csv,VC_VersionC.csv,"Version C","VC Version C",TICK,FLEA,Study2,S,151,99,VC,User,-,"How many vowels are the two words combined?|Type your response below and then press Enter.",Study/JOL,"Study Phase2",4419,,,3518,3519,,,,3,1
5c34e402b96e660001cb5ce6,gby4oli74z,"Deep vs Shallow",1,221,2020-07-08T14:53:06-07:00,4.0062661170959,7,versionC_stim.csv,VC_VersionC.csv,"Version C","VC Version C",REEL,ROD,Study2,S,150,176,VC,User,-,"How many vowels are the two words combined?|Type your response below and then press Enter.",Study/JOL,"Study Phase2",3285,,,2385,2385,,,,4,1
5c34e402b96e660001cb5ce6,gby4oli74z,"Deep vs Shallow",1,222,2020-07-08T14:53:13-07:00,6.6309299468994,7,versionC_stim.csv,VC_VersionC.csv,"Version C","VC Version C",SCISSORS,SHEARS,Study2,B,112,118,VC,User,-,"How many vowels are the two words combined?|Type your response below and then press Enter.",Study/JOL,"Study Phase2",6014,,,5170,5171,,,,4,1
5c34e402b96e660001cb5ce6,gby4oli74z,"Deep vs Shallow",1,223,2020-07-08T14:53:18-07:00,5.3444540500641,7,versionC_stim.csv,VC_VersionC.csv,"Version C","VC Version C",STEAK,GIVE,Study2,U,158,109,VC,User,-,"How many vowels are the two words combined?|Type your response below and then press Enter.",Study/JOL,"Study Phase2",4714,,,3887,3887,,,,4,1
5c34e402b96e660001cb5ce6,gby4oli74z,"Deep vs Shallow",1,224,2020-07-08T14:53:24-07:00,5.3078739643097,7,versionC_stim.csv,VC_VersionC.csv,"Version C","VC Version C",LIE,TRUTH,Study2,S,148,98,VC,User,-,"How many vowels are the two words combined?|Type your response below and then press Enter.",Study/JOL,"Study Phase2",4661,,,3809,3809,,,,3,1
5c34e402b96e660001cb5ce6,gby4oli74z,"Deep vs Shallow",1,225,2020-07-08T14:53:30-07:00,6.756716966629,7,versionC_stim.csv,VC_VersionC.csv,"Version C","VC Version C",TRUTHFUL,HONEST,Study2,F,133,174,VC,User,-,"How many vowels are the two words combined?|Type your response below and then press Enter.",Study/JOL,"Study Phase2",5902,,,5091,5091,,,,4,1
5c34e402b96e660001cb5ce6,gby4oli74z,"Deep vs Shallow",1,226,2020-07-08T14:53:36-07:00,5.1385180950165,7,versionC_stim.csv,VC_VersionC.csv,"Version C","VC Version C",NOISE,LOUD,Study2,S,152,103,VC,User,-,"How many vowels are the two words combined?|Type your response below and then press Enter.",Study/JOL,"Study Phase2",4362,,,3557,3557,,,,5,1
5c34e402b96e660001cb5ce6,gby4oli74z,"Deep vs Shallow",1,227,2020-07-08T14:53:43-07:00,7.0517258644104,7,versionC_stim.csv,VC_VersionC.csv,"Version C","VC Version C",THIMBLE,THREAD,Study2,F,121,148,VC,User,-,"How many vowels are the two words combined?|Type your response below and then press Enter.",Study/JOL,"Study Phase2",6455,,,5566,5567,,,,4,1
5c34e402b96e660001cb5ce6,gby4oli74z,"Deep vs Shallow",1,228,2020-07-08T14:53:48-07:00,5.4250800609589,7,versionC_stim.csv,VC_VersionC.csv,"Version C","VC Version C",GROUND,EARTH,Study2,S,144,165,VC,User,-,"How many vowels are the two words combined?|Type your response below and then press Enter.",Study/JOL,"Study Phase2",4854,,,4071,4071,,,,4,1
5c34e402b96e660001cb5ce6,gby4oli74z,"Deep vs Shallow",1,229,2020-07-08T14:53:53-07:00,5.0408420562744,7,versionC_stim.csv,VC_VersionC.csv,"Version C","VC Version C",CLEAR,MOAT,Study2,U,169,143,VC,User,-,"How many vowels are the two words combined?|Type your response below and then press Enter.",Study/JOL,"Study Phase2",4310,,,3502,3502,,,,4,1
5c34e402b96e660001cb5ce6,gby4oli74z,"Deep vs Shallow",1,230,2020-07-08T14:53:59-07:00,5.913722038269,7,versionC_stim.csv,VC_VersionC.csv,"Version C","VC Version C",PLANT,CACTUS,Study2,B,98,142,VC,User,-,"How many vowels are the two words combined?|Type your response below and then press Enter.",Study/JOL,"Study Phase2",5198,,,4399,4399,,,,3,1
5c34e402b96e660001cb5ce6,gby4oli74z,"Deep vs Shallow",1,231,2020-07-08T14:54:05-07:00,6.0703740119934,7,versionC_stim.csv,VC_VersionC.csv,"Version C","VC Version C",ELECTION,MAZE,Study2,U,159,171,VC,User,-,"How many vowels are the two words combined?|Type your response below and then press Enter.",Study/JOL,"Study Phase2",5453,,,4555,4556,,,,6,1
5c34e402b96e660001cb5ce6,gby4oli74z,"Deep vs Shallow",1,232,2020-07-08T14:54:10-07:00,4.684473991394,7,versionC_stim.csv,VC_VersionC.csv,"Version C","VC Version C",HEAD,SCALP,Study2,B,105,140,VC,User,-,"How many vowels are the two words combined?|Type your response below and then press Enter.",Study/JOL,"Study Phase2",3838,,,3117,3117,,,,3,1
5c34e402b96e660001cb5ce6,gby4oli74z,"Deep vs Shallow",1,233,2020-07-08T14:54:16-07:00,6.1413779258728,7,versionC_stim.csv,VC_VersionC.csv,"Version C","VC Version C",SARDINE,FISH,Study2,F,130,149,VC,User,-,"How many vowels are the two words combined?|Type your response below and then press Enter.",Study/JOL,"Study Phase2",5518,,,4729,4729,,,,4,1
5c34e402b96e660001cb5ce6,gby4oli74z,"Deep vs Shallow",1,234,2020-07-08T14:54:25-07:00,8.808121919632,7,versionC_stim.csv,VC_VersionC.csv,"Version C","VC Version C",Morning,TEMPERATURE,Study2,U,173,135,VC,User,-,"How many vowels are the two words combined?|Type your response below and then press Enter.",Study/JOL,"Study Phase2",8274,,,7358,7358,,,,7,1
5c34e402b96e660001cb5ce6,gby4oli74z,"Deep vs Shallow",1,235,2020-07-08T14:54:30-07:00,5.6314480304718,7,versionC_stim.csv,VC_VersionC.csv,"Version C","VC Version C",SMELL,INCENSE,Study2,B,110,106,VC,User,-,"How many vowels are the two words combined?|Type your response below and then press Enter.",Study/JOL,"Study Phase2",5084,,,4281,4281,,,,4,1
5c34e402b96e660001cb5ce6,gby4oli74z,"Deep vs Shallow",1,236,2020-07-08T14:54:37-07:00,6.3248660564423,7,versionC_stim.csv,VC_VersionC.csv,"Version C","VC Version C",ABLE,CRACKLE,Study2,U,162,173,VC,User,-,"How many vowels are the two words combined?|Type your response below and then press Enter.",Study/JOL,"Study Phase2",5593,,,4678,4679,,,,4,1
5c34e402b96e660001cb5ce6,gby4oli74z,"Deep vs Shallow",1,237,2020-07-08T14:54:41-07:00,4.6405038833618,7,versionC_stim.csv,VC_VersionC.csv,"Version C","VC Version C",JOKE,KEYS,Study2,U,165,114,VC,User,-,"How many vowels are the two words combined?|Type your response below and then press Enter.",Study/JOL,"Study Phase2",4019,,,3241,3242,,,,2,1
5c34e402b96e660001cb5ce6,gby4oli74z,"Deep vs Shallow",1,238,2020-07-08T14:54:46-07:00,5.0097241401672,7,versionC_stim.csv,VC_VersionC.csv,"Version C","VC Version C",JAR,MASON,Study2,S,138,107,VC,User,-,"How many vowels are the two words combined?|Type your response below and then press Enter.",Study/JOL,"Study Phase2",4318,,,3619,3619,,,,3,1
5c34e402b96e660001cb5ce6,gby4oli74z,"Deep vs Shallow",1,239,2020-07-08T14:54:53-07:00,6.2501199245453,7,versionC_stim.csv,VC_VersionC.csv,"Version C","VC Version C",CHARM,VEHICLE,Study2,U,160,123,VC,User,-,"How many vowels are the two words combined?|Type your response below and then press Enter.",Study/JOL,"Study Phase2",5431,,,4641,4641,,,,4,1
5c34e402b96e660001cb5ce6,gby4oli74z,"Deep vs Shallow",1,240,2020-07-08T14:54:58-07:00,5.7325201034546,7,versionC_stim.csv,VC_VersionC.csv,"Version C","VC Version C",VILLAIN,BAD,Study2,F,118,116,VC,User,-,"How many vowels are the two words combined?|Type your response below and then press Enter.",Study/JOL,"Study Phase2",5003,,,4300,4301,,,,4,1
5c34e402b96e660001cb5ce6,gby4oli74z,"Deep vs Shallow",1,241,2020-07-08T14:55:03-07:00,4.7078559398651,7,versionC_stim.csv,VC_VersionC.csv,"Version C","VC Version C",OUNCE,BOTH,Study2,U,172,105,VC,User,-,"How many vowels are the two words combined?|Type your response below and then press Enter.",Study/JOL,"Study Phase2",4125,,,3306,3306,,,,4,1
5c34e402b96e660001cb5ce6,gby4oli74z,"Deep vs Shallow",1,242,2020-07-08T14:55:09-07:00,5.5594580173492,7,versionC_stim.csv,VC_VersionC.csv,"Version C","VC Version C",TIE,SHOELACE,Study2,B,99,144,VC,User,-,"How many vowels are the two words combined?|Type your response below and then press Enter.",Study/JOL,"Study Phase2",4817,,,4100,4100,,,,4,1
5c34e402b96e660001cb5ce6,gby4oli74z,"Deep vs Shallow",1,243,2020-07-08T14:55:14-07:00,5.298063993454,7,versionC_stim.csv,VC_VersionC.csv,"Version C","VC Version C",EQUAL,RIGHTS,Study2,S,137,130,VC,User,-,"How many vowels are the two words combined?|Type your response below and then press Enter.",Study/JOL,"Study Phase2",4544,,,3775,3775,,,,3,1
5c34e402b96e660001cb5ce6,gby4oli74z,"Deep vs Shallow",1,244,2020-07-08T14:55:18-07:00,4.5169730186462,7,versionC_stim.csv,VC_VersionC.csv,"Version C","VC Version C",DONKEY,MULE,Study2,B,108,158,VC,User,-,"How many vowels are the two words combined?|Type your response below and then press Enter.",Study/JOL,"Study Phase2",3857,,,3188,3188,,,,4,1
5c34e402b96e660001cb5ce6,gby4oli74z,"Deep vs Shallow",1,245,2020-07-08T14:55:23-07:00,4.9021878242493,7,versionC_stim.csv,VC_VersionC.csv,"Version C","VC Version C",BALLOON,POP,Study2,F,123,166,VC,User,-,"How many vowels are the two words combined?|Type your response below and then press Enter.",Study/JOL,"Study Phase2",4264,,,3460,3461,,,,4,1
5c34e402b96e660001cb5ce6,gby4oli74z,"Deep vs Shallow",1,246,2020-07-08T14:55:29-07:00,5.7439482212067,7,versionC_stim.csv,VC_VersionC.csv,"Version C","VC Version C",REVENGE,EVEN,Study2,F,122,102,VC,User,-,"How many vowels are the two words combined?|Type your response below and then press Enter.",Study/JOL,"Study Phase2",5149,,,4320,4320,,,,5,1
5c34e402b96e660001cb5ce6,gby4oli74z,"Deep vs Shallow",1,247,2020-07-08T14:55:35-07:00,6.3382039070129,7,versionC_stim.csv,VC_VersionC.csv,"Version C","VC Version C",SIGN,LOAN,Study2,U,171,161,VC,User,-,"How many vowels are the two words combined?|Type your response below and then press Enter.",Study/JOL,"Study Phase2",4710,,,3782,3783,,,,3,1
5c34e402b96e660001cb5ce6,gby4oli74z,"Deep vs Shallow",1,248,2020-07-08T14:55:43-07:00,7.7863929271698,7,versionC_stim.csv,VC_VersionC.csv,"Version C","VC Version C",FICTION,LISTEN,Study2,U,164,153,VC,User,-,"How many vowels are the two words combined?|Type your response below and then press Enter.",Study/JOL,"Study Phase2",7042,,,6258,6259,,,,5,1
5c34e402b96e660001cb5ce6,gby4oli74z,"Deep vs Shallow",1,249,2020-07-08T14:55:48-07:00,4.4214880466461,7,versionC_stim.csv,VC_VersionC.csv,"Version C","VC Version C",BANG,FUZZY,Study2,U,168,112,VC,User,-,"How many vowels are the two words combined?|Type your response below and then press Enter.",Study/JOL,"Study Phase2",3732,,,2952,2952,,,,2,1
5c34e402b96e660001cb5ce6,gby4oli74z,"Deep vs Shallow",1,250,2020-07-08T14:55:52-07:00,4.2785859107971,7,versionC_stim.csv,VC_VersionC.csv,"Version C","VC Version C",COLD,CHILL,Study2,B,114,122,VC,User,-,"How many vowels are the two words combined?|Type your response below and then press Enter.",Study/JOL,"Study Phase2",3589,,,2821,2821,,,,2,1
5c34e402b96e660001cb5ce6,gby4oli74z,"Deep vs Shallow",1,251,2020-07-08T14:55:58-07:00,5.7503690719604,7,versionC_stim.csv,VC_VersionC.csv,"Version C","VC Version C",OBTAIN,MEAT,Study2,U,161,145,VC,User,-,"How many vowels are the two words combined?|Type your response below and then press Enter.",Study/JOL,"Study Phase2",4997,,,4204,4204,,,,5,1
5c34e402b96e660001cb5ce6,gby4oli74z,"Deep vs Shallow",1,252,2020-07-08T14:56:04-07:00,6.0504460334778,7,versionC_stim.csv,VC_VersionC.csv,"Version C","VC Version C",END,ADJOURN,Study2,B,101,160,VC,User,-,"How many vowels are the two words combined?|Type your response below and then press Enter.",Study/JOL,"Study Phase2",5370,,,4542,4542,,,,4,1
5c34e402b96e660001cb5ce6,gby4oli74z,"Deep vs Shallow",1,253,2020-07-08T14:56:08-07:00,4.7930870056152,7,versionC_stim.csv,VC_VersionC.csv,"Version C","VC Version C",FIGHT,FEUD,Study2,B,113,147,VC,User,-,"How many vowels are the two words combined?|Type your response below and then press Enter.",Study/JOL,"Study Phase2",4137,,,3451,3452,,,,3,1
5c34e402b96e660001cb5ce6,gby4oli74z,"Deep vs Shallow",1,254,2020-07-08T14:56:12-07:00,3.5964839458466,7,versionC_stim.csv,VC_VersionC.csv,"Version C","VC Version C",WET,DRY,Study2,S,146,170,VC,User,-,"How many vowels are the two words combined?|Type your response below and then press Enter.",Study/JOL,"Study Phase2",2890,,,2043,2044,,,,1,1
5c34e402b96e660001cb5ce6,gby4oli74z,"Deep vs Shallow",1,255,2020-07-08T14:56:22-07:00,10.093770027161,7,versionC_stim.csv,VC_VersionC.csv,"Version C","VC Version C",AIRCRAFT,PLANE,Study2,F,129,141,VC,User,-,"How many vowels are the two words combined?|Type your response below and then press Enter.",Study/JOL,"Study Phase2",7253,,,6484,6484,,,,5,1
5c34e402b96e660001cb5ce6,gby4oli74z,"Deep vs Shallow",1,256,2020-07-08T14:56:28-07:00,6.1721389293671,7,versionC_stim.csv,VC_VersionC.csv,"Version C","VC Version C",ACTRESS,STAR,Study2,F,120,138,VC,User,-,"How many vowels are the two words combined?|Type your response below and then press Enter.",Study/JOL,"Study Phase2",5454,,,4752,4752,,,,3,1
5c34e402b96e660001cb5ce6,gby4oli74z,"Deep vs Shallow",1,257,2020-07-08T14:56:33-07:00,5.1261491775513,7,versionC_stim.csv,VC_VersionC.csv,"Version C","VC Version C",BRAWL,FIGHT,Study2,F,135,110,VC,User,-,"How many vowels are the two words combined?|Type your response below and then press Enter.",Study/JOL,"Study Phase2",4358,,,3581,3581,,,,2,1
5c34e402b96e660001cb5ce6,gby4oli74z,"Deep vs Shallow",1,258,2020-07-08T14:56:38-07:00,4.0892539024353,7,versionC_stim.csv,VC_VersionC.csv,"Version C","VC Version C",SHAVE,RAZOR,Study2,S,136,120,VC,User,-,"How many vowels are the two words combined?|Type your response below and then press Enter.",Study/JOL,"Study Phase2",3508,,,2782,2783,,,,3,1
5c34e402b96e660001cb5ce6,gby4oli74z,"Deep vs Shallow",1,259,2020-07-08T14:56:43-07:00,5.0217831134796,7,versionC_stim.csv,VC_VersionC.csv,"Version C","VC Version C",GAME,CLUE,Study2,B,97,108,VC,User,-,"How many vowels are the two words combined?|Type your response below and then press Enter.",Study/JOL,"Study Phase2",4263,,,3553,3553,,,,4,1
5c34e402b96e660001cb5ce6,gby4oli74z,"Deep vs Shallow",1,260,2020-07-08T14:56:48-07:00,5.0108468532562,7,versionC_stim.csv,VC_VersionC.csv,"Version C","VC Version C",SHAKE,Shell,Study2,U,163,101,VC,User,-,"How many vowels are the two words combined?|Type your response below and then press Enter.",Study/JOL,"Study Phase2",4287,,,3569,3570,,,,3,1
5c34e402b96e660001cb5ce6,gby4oli74z,"Deep vs Shallow",1,261,2020-07-08T14:56:55-07:00,7.2717230319977,7,versionC_stim.csv,VC_VersionC.csv,"Version C","VC Version C",LEAGUE,BASEBALL,Study2,F,131,164,VC,User,-,"How many vowels are the two words combined?|Type your response below and then press Enter.",Study/JOL,"Study Phase2",6459,,,5542,5542,,,,7,1
5c34e402b96e660001cb5ce6,gby4oli74z,"Deep vs Shallow",1,262,2020-07-08T14:57:01-07:00,6.35458111763,7,versionC_stim.csv,VC_VersionC.csv,"Version C","VC Version C",CARBON,ELEMENT,Study2,S,141,121,VC,User,-,"How many vowels are the two words combined?|Type your response below and then press Enter.",Study/JOL,"Study Phase2",5537,,,4765,4766,,,,5,1
5c34e402b96e660001cb5ce6,gby4oli74z,"Deep vs Shallow",1,263,2020-07-08T14:57:05-07:00,4.1931319236755,7,versionC_stim.csv,VC_VersionC.csv,"Version C","VC Version C",HAVE,OWN,Study2,S,153,175,VC,User,-,"How many vowels are the two words combined?|Type your response below and then press Enter.",Study/JOL,"Study Phase2",3615,,,2919,2919,,,,3,1
5c34e402b96e660001cb5ce6,gby4oli74z,"Deep vs Shallow",1,264,2020-07-08T14:57:12-07:00,6.558130979538,7,versionC_stim.csv,VC_VersionC.csv,"Version C","VC Version C",BREAKABLE,GLASS,Study2,F,127,154,VC,User,-,"How many vowels are the two words combined?|Type your response below and then press Enter.",Study/JOL,"Study Phase2",5755,,,4958,4958,,,,5,1
5c34e402b96e660001cb5ce6,gby4oli74z,"Deep vs Shallow",1,265,2020-07-08T14:57:21-07:00,9.3127589225769,7,versionC_stim.csv,VC_VersionC.csv,"Version C","VC Version C",COMMUNICATION,PHONE,Study2,S,149,132,VC,User,-,"How many vowels are the two words combined?|Type your response below and then press Enter.",Study/JOL,"Study Phase2",8412,,,7642,7642,,,,8,1
5c34e402b96e660001cb5ce6,gby4oli74z,"Deep vs Shallow",1,266,2020-07-08T14:57:25-07:00,3.8044540882111,7,versionC_stim.csv,VC_VersionC.csv,"Version C","VC Version C",SHED,TOOL,BUFFER4,Buffer,178,178,VC,User,-,"How many vowels are the two words combined?|Type your response below and then press Enter.",Study/JOL,BUFFER4,3171,,,2451,2452,,,,3,1
5c34e402b96e660001cb5ce6,gby4oli74z,"Deep vs Shallow",1,267,2020-07-08T14:57:31-07:00,6.2350480556488,7,versionC_stim.csv,VC_VersionC.csv,"Version C","VC Version C",SPOOKY,OCTOBER,BUFFER4,Buffer,180,177,VC,User,-,"How many vowels are the two words combined?|Type your response below and then press Enter.",Study/JOL,BUFFER4,5446,,,4623,4623,,,,5,1
5c34e402b96e660001cb5ce6,gby4oli74z,"Deep vs Shallow",1,268,2020-07-08T14:57:36-07:00,5.0168390274048,7,versionC_stim.csv,VC_VersionC.csv,"Version C","VC Version C",MARCH,SPRING,BUFFER4,Buffer,179,181,VC,User,-,"How many vowels are the two words combined?|Type your response below and then press Enter.",Study/JOL,BUFFER4,4396,,,3650,3650,,,,2,1
5c34e402b96e660001cb5ce6,gby4oli74z,"Deep vs Shallow",1,269,2020-07-08T14:57:40-07:00,4.094162940979,7,versionC_stim.csv,VC_VersionC.csv,"Version C","VC Version C",YEAR,MONTH,BUFFER4,Buffer,177,179,VC,User,-,"How many vowels are the two words combined?|Type your response below and then press Enter.",Study/JOL,BUFFER4,3333,,,2643,2643,,,,3,1
5c34e402b96e660001cb5ce6,gby4oli74z,"Deep vs Shallow",1,270,2020-07-08T14:57:46-07:00,5.9641029834747,7,versionC_stim.csv,VC_VersionC.csv,"Version C","VC Version C",WEAKS,DAYS,BUFFER4,Buffer,176,180,VC,User,-,"How many vowels are the two words combined?|Type your response below and then press Enter.",Study/JOL,BUFFER4,5286,,,4583,4583,,,,3,1
5c34e402b96e660001cb5ce6,gby4oli74z,"Deep vs Shallow",1,271,2020-07-08T14:57:49-07:00,2.5386850833893,7,versionC_stim.csv,VC_VersionC.csv,"Version C","VC Version C",,,,,,0,Instruct,User,-,"You have completed this section. Please press Enter.",Filler_Instruction,Instruct5,1923,,,-1,-1,,,,,1
5c34e402b96e660001cb5ce6,gby4oli74z,"Deep vs Shallow",1,272,2020-07-08T14:59:49-07:00,120.53559088707,7,versionC_stim.csv,VC_VersionC.csv,"Version C","VC Version C",,,,,,0,FreeRecall,120,120,"Please list the 50 US states in reverse alphabetical order (z - a). The task will automatically advance to the next screen after two minutes.",,Filler2,120004,"Alabama, Arkansas, Arizona, Boston, Florida, Hawaii, Kansas, Mississippi, New York, Phoenix, Texas, Utah, ",0,3180,113242,0,0,,,1
5c34e402b96e660001cb5ce6,gby4oli74z,"Deep vs Shallow",1,273,2020-07-08T15:00:02-07:00,12.170416116714,7,versionC_stim.csv,VC_VersionC.csv,"Version C","VC Version C",,,,,,0,Instruct,-,10,"You will now be presented with the first word from each of the previously studied item pairs. Please type the missing word. If you do not know the word, you may guess or press Enter to skip forward to the next pair.",,Instruct6,11030,,,-1,-1,,,,,1
5c34e402b96e660001cb5ce6,gby4oli74z,"Deep vs Shallow",1,274,2020-07-08T15:00:07-07:00,5.444638967514,7,versionC_stim.csv,VC_VersionC.csv,"Version C","VC Version C",NOISE,LOUD,Study2,S,152,103,Test,User,-,,Recall,Recall2,4699,Loud,100,3247,3839,1,1,,,1
5c34e402b96e660001cb5ce6,gby4oli74z,"Deep vs Shallow",1,275,2020-07-08T15:00:11-07:00,4.2944087982178,7,versionC_stim.csv,VC_VersionC.csv,"Version C","VC Version C",GAME,CLUE,Study2,B,97,108,Test,User,-,,Recall,Recall2,3274,Over,25,1833,2491,0,0,,,1
5c34e402b96e660001cb5ce6,gby4oli74z,"Deep vs Shallow",1,276,2020-07-08T15:00:20-07:00,8.7985451221466,7,versionC_stim.csv,VC_VersionC.csv,"Version C","VC Version C",CARBON,ELEMENT,Study2,S,141,121,Test,User,-,,Recall,Recall2,8206,Footprint,25,5702,7303,0,0,,,1
5c34e402b96e660001cb5ce6,gby4oli74z,"Deep vs Shallow",1,277,2020-07-08T15:00:25-07:00,4.7175810337067,7,versionC_stim.csv,VC_VersionC.csv,"Version C","VC Version C",ABLE,CRACKLE,Study2,U,162,173,Test,User,-,,Recall,Recall2,4039,Can,40,2792,3065,0,0,,,1
5c34e402b96e660001cb5ce6,gby4oli74z,"Deep vs Shallow",1,278,2020-07-08T15:00:29-07:00,3.9902398586273,7,versionC_stim.csv,VC_VersionC.csv,"Version C","VC Version C",JAR,MASON,Study2,S,138,107,Test,User,-,,Recall,Recall2,3290,Mason,100,1618,2315,1,1,,,1
5c34e402b96e660001cb5ce6,gby4oli74z,"Deep vs Shallow",1,279,2020-07-08T15:00:36-07:00,6.9699971675873,7,versionC_stim.csv,VC_VersionC.csv,"Version C","VC Version C",END,ADJOURN,Study2,B,101,160,Test,User,-,,Recall,Recall2,6327,Halt,18.181818181818,4688,5468,0,0,,,1
5c34e402b96e660001cb5ce6,gby4oli74z,"Deep vs Shallow",1,280,2020-07-08T15:00:40-07:00,3.7775688171387,7,versionC_stim.csv,VC_VersionC.csv,"Version C","VC Version C",AIRCRAFT,PLANE,Study2,F,129,141,Test,User,-,,Recall,Recall2,3128,Plane,100,1598,2303,1,1,,,1
5c34e402b96e660001cb5ce6,gby4oli74z,"Deep vs Shallow",1,281,2020-07-08T15:00:44-07:00,4.0961902141571,7,versionC_stim.csv,VC_VersionC.csv,"Version C","VC Version C",CLOTHES,CAKE,Study2,U,166,152,Test,User,-,,Recall,Recall2,3455,Hanger,40,1832,2635,0,0,,,1
5c34e402b96e660001cb5ce6,gby4oli74z,"Deep vs Shallow",1,282,2020-07-08T15:00:48-07:00,4.108283996582,7,versionC_stim.csv,VC_VersionC.csv,"Version C","VC Version C",COLD,CHILL,Study2,B,114,122,Test,User,-,,Recall,Recall2,3430,Chill,100,1738,2569,1,1,,,1
5c34e402b96e660001cb5ce6,gby4oli74z,"Deep vs Shallow",1,283,2020-07-08T15:00:55-07:00,7.6676218509674,7,versionC_stim.csv,VC_VersionC.csv,"Version C","VC Version C",HAVE,OWN,Study2,S,153,175,Test,User,-,,Recall,Recall2,6842,Obtain,44.444444444444,3963,5993,0,0,,,1
5c34e402b96e660001cb5ce6,gby4oli74z,"Deep vs Shallow",1,284,2020-07-08T15:01:00-07:00,4.6190900802612,7,versionC_stim.csv,VC_VersionC.csv,"Version C","VC Version C",HEAD,SCALP,Study2,B,105,140,Test,User,-,,Recall,Recall2,3974,Cold,44.444444444444,2770,3148,0,0,,,1
5c34e402b96e660001cb5ce6,gby4oli74z,"Deep vs Shallow",1,285,2020-07-08T15:01:04-07:00,4.3922898769379,7,versionC_stim.csv,VC_VersionC.csv,"Version C","VC Version C",EQUAL,RIGHTS,Study2,S,137,130,Test,User,-,,Recall,Recall2,3549,Same,20,2283,2745,0,0,,,1
5c34e402b96e660001cb5ce6,gby4oli74z,"Deep vs Shallow",1,286,2020-07-08T15:01:17-07:00,12.367040157318,7,versionC_stim.csv,VC_VersionC.csv,"Version C","VC Version C",MAROON,JUSTICE,Study2,U,156,169,Test,User,-,,Recall,Recall2,10761,Justice,100,8800,9930,1,1,,,1
5c34e402b96e660001cb5ce6,gby4oli74z,"Deep vs Shallow",1,287,2020-07-08T15:01:22-07:00,5.4502568244934,7,versionC_stim.csv,VC_VersionC.csv,"Version C","VC Version C",SEATBELT,SAFETY,Study2,S,147,172,Test,User,-,,Recall,Recall2,4665,Car,22.222222222222,3408,3731,0,0,,,1
5c34e402b96e660001cb5ce6,gby4oli74z,"Deep vs Shallow",1,288,2020-07-08T15:01:29-07:00,7.0658671855927,7,versionC_stim.csv,VC_VersionC.csv,"Version C","VC Version C",HATE,NAME,Study2,U,167,136,Test,User,-,,Recall,Recall2,6160,Disdain,18.181818181818,3709,5080,0,0,,,1
5c34e402b96e660001cb5ce6,gby4oli74z,"Deep vs Shallow",1,289,2020-07-08T15:01:34-07:00,4.9194288253784,7,versionC_stim.csv,VC_VersionC.csv,"Version C","VC Version C",STEAK,GIVE,Study2,U,158,109,Test,User,-,,Recall,Recall2,4264,Give,100,2813,3334,1,1,,,1
5c34e402b96e660001cb5ce6,gby4oli74z,"Deep vs Shallow",1,290,2020-07-08T15:01:41-07:00,6.8557240962982,7,versionC_stim.csv,VC_VersionC.csv,"Version C","VC Version C",FIGHT,FEUD,Study2,B,113,147,Test,User,-,,Recall,Recall2,6036,"Brawl ",0,3119,4243,0,0,,,1
5c34e402b96e660001cb5ce6,gby4oli74z,"Deep vs Shallow",1,291,2020-07-08T15:01:46-07:00,4.6253371238708,7,versionC_stim.csv,VC_VersionC.csv,"Version C","VC Version C",LEAGUE,BASEBALL,Study2,F,131,164,Test,User,-,,Recall,Recall2,4064,Baseball,100,1762,3085,1,1,,,1
5c34e402b96e660001cb5ce6,gby4oli74z,"Deep vs Shallow",1,292,2020-07-08T15:01:50-07:00,3.7742559909821,7,versionC_stim.csv,VC_VersionC.csv,"Version C","VC Version C",COFFIN,DEAD,Study2,F,128,115,Test,User,-,,Recall,Recall2,3155,Dead,100,1686,2354,1,1,,,1
5c34e402b96e660001cb5ce6,gby4oli74z,"Deep vs Shallow",1,293,2020-07-08T15:01:54-07:00,4.1958949565887,7,versionC_stim.csv,VC_VersionC.csv,"Version C","VC Version C",TRASH,LITTER,Study2,B,103,124,Test,User,-,,Recall,Recall2,3616,Litter,100,1781,2761,1,1,,,1
5c34e402b96e660001cb5ce6,gby4oli74z,"Deep vs Shallow",1,294,2020-07-08T15:01:58-07:00,3.7946588993073,7,versionC_stim.csv,VC_VersionC.csv,"Version C","VC Version C",NAP,SLEEP,Study2,F,134,113,Test,User,-,,Recall,Recall2,3002,Sleep,100,1633,2200,1,1,,,1
5c34e402b96e660001cb5ce6,gby4oli74z,"Deep vs Shallow",1,295,2020-07-08T15:02:02-07:00,4.0921850204468,7,versionC_stim.csv,VC_VersionC.csv,"Version C","VC Version C",SHAVE,RAZOR,Study2,S,136,120,Test,User,-,,Recall,Recall2,3406,Head,22.222222222222,2112,2674,0,0,,,1
5c34e402b96e660001cb5ce6,gby4oli74z,"Deep vs Shallow",1,296,2020-07-08T15:02:05-07:00,3.7880530357361,7,versionC_stim.csv,VC_VersionC.csv,"Version C","VC Version C",SIGN,LOAN,Study2,U,171,161,Test,User,-,,Recall,Recall2,3136,Post,25,1829,2328,0,0,,,1
5c34e402b96e660001cb5ce6,gby4oli74z,"Deep vs Shallow",1,297,2020-07-08T15:02:09-07:00,3.6881670951843,7,versionC_stim.csv,VC_VersionC.csv,"Version C","VC Version C",LONG,EXTENSION,Study2,B,96,157,Test,User,-,,Recall,Recall2,3012,Hair,15.384615384615,1720,2214,0,0,,,1
5c34e402b96e660001cb5ce6,gby4oli74z,"Deep vs Shallow",1,298,2020-07-08T15:02:14-07:00,5.0177729129791,7,versionC_stim.csv,VC_VersionC.csv,"Version C","VC Version C",CLEAR,MOAT,Study2,U,169,143,Test,User,-,,Recall,Recall2,4326,Moat,100,2993,3456,1,1,,,1
5c34e402b96e660001cb5ce6,gby4oli74z,"Deep vs Shallow",1,299,2020-07-08T15:02:19-07:00,5.1268758773804,7,versionC_stim.csv,VC_VersionC.csv,"Version C","VC Version C",DRINK,WATER,Study2,S,143,167,Test,User,-,,Recall,Recall2,4446,Scotch,18.181818181818,2158,3584,0,0,,,1
5c34e402b96e660001cb5ce6,gby4oli74z,"Deep vs Shallow",1,300,2020-07-08T15:02:24-07:00,4.7214751243591,7,versionC_stim.csv,VC_VersionC.csv,"Version C","VC Version C",PENGUIN,BIRD,Study2,F,119,128,Test,User,-,,Recall,Recall2,4007,Friend,40,2364,3177,0,0,,,1
5c34e402b96e660001cb5ce6,gby4oli74z,"Deep vs Shallow",1,301,2020-07-08T15:02:29-07:00,4.6899719238281,7,versionC_stim.csv,VC_VersionC.csv,"Version C","VC Version C",OUNCE,BOTH,Study2,U,172,105,Test,User,-,,Recall,Recall2,4135,Weigh,22.222222222222,2626,3323,0,0,,,1
5c34e402b96e660001cb5ce6,gby4oli74z,"Deep vs Shallow",1,302,2020-07-08T15:02:33-07:00,4.5060019493103,7,versionC_stim.csv,VC_VersionC.csv,"Version C","VC Version C",SMELL,INCENSE,Study2,B,110,106,Test,User,-,,Recall,Recall2,3668,Bad,0,2421,2806,0,0,,,1
5c34e402b96e660001cb5ce6,gby4oli74z,"Deep vs Shallow",1,303,2020-07-08T15:02:38-07:00,4.8152329921722,7,versionC_stim.csv,VC_VersionC.csv,"Version C","VC Version C",THIMBLE,THREAD,Study2,F,121,148,Test,User,-,,Recall,Recall2,4109,Thread,100,2301,3324,1,1,,,1
5c34e402b96e660001cb5ce6,gby4oli74z,"Deep vs Shallow",1,304,2020-07-08T15:02:43-07:00,5.1171979904175,7,versionC_stim.csv,VC_VersionC.csv,"Version C","VC Version C",SARDINE,FISH,Study2,F,130,149,Test,User,-,,Recall,Recall2,4323,Fish,100,1804,2205,1,1,,,1
5c34e402b96e660001cb5ce6,gby4oli74z,"Deep vs Shallow",1,305,2020-07-08T15:02:56-07:00,12.596012115479,7,versionC_stim.csv,VC_VersionC.csv,"Version C","VC Version C",CHARM,VEHICLE,Study2,U,160,123,Test,User,-,,Recall,Recall2,12051,"Bracelet ",40,5269,10452,0,0,,,1
5c34e402b96e660001cb5ce6,gby4oli74z,"Deep vs Shallow",1,306,2020-07-08T15:03:00-07:00,3.9923689365387,7,versionC_stim.csv,VC_VersionC.csv,"Version C","VC Version C",WAX,CANDLE,Study2,S,139,151,Test,User,-,,Recall,Recall2,3354,Hot,0,2112,2495,0,0,,,1
5c34e402b96e660001cb5ce6,gby4oli74z,"Deep vs Shallow",1,307,2020-07-08T15:03:04-07:00,4.0002961158752,7,versionC_stim.csv,VC_VersionC.csv,"Version C","VC Version C",SCAR,MAIN,Study2,U,175,131,Test,User,-,,Recall,Recall2,3379,Face,25,2124,2517,0,0,,,1
5c34e402b96e660001cb5ce6,gby4oli74z,"Deep vs Shallow",1,308,2020-07-08T15:03:09-07:00,5.6499218940735,7,versionC_stim.csv,VC_VersionC.csv,"Version C","VC Version C",TIE,SHOELACE,Study2,B,99,144,Test,User,-,,Recall,Recall2,4424,Breaker,40,2370,3657,0,0,,,1
5c34e402b96e660001cb5ce6,gby4oli74z,"Deep vs Shallow",1,309,2020-07-08T15:03:13-07:00,3.561506986618,7,versionC_stim.csv,VC_VersionC.csv,"Version C","VC Version C",BALLOON,POP,Study2,F,123,166,Test,User,-,,Recall,Recall2,2978,Pop,100,1639,2057,1,1,,,1
5c34e402b96e660001cb5ce6,gby4oli74z,"Deep vs Shallow",1,310,2020-07-08T15:03:18-07:00,4.7801811695099,7,versionC_stim.csv,VC_VersionC.csv,"Version C","VC Version C",SHAKE,Shell,Study2,U,163,101,Test,User,-,,Recall,Recall2,3758,Stir,22.222222222222,2130,2880,0,0,,,1
5c34e402b96e660001cb5ce6,gby4oli74z,"Deep vs Shallow",1,311,2020-07-08T15:03:22-07:00,4.5395929813385,7,versionC_stim.csv,VC_VersionC.csv,"Version C","VC Version C",TEMPER,TANTRUM,Study2,S,154,119,Test,User,-,,Recall,Recall2,3798,Tantrum,100,1606,2859,1,1,,,1
5c34e402b96e660001cb5ce6,gby4oli74z,"Deep vs Shallow",1,312,2020-07-08T15:03:28-07:00,5.4242630004883,7,versionC_stim.csv,VC_VersionC.csv,"Version C","VC Version C",MYSTERY,DETECTIVE,Study2,B,100,117,Test,User,-,,Recall,Recall2,4794,Prozey,13.333333333333,1936,4011,0,0,,,1
5c34e402b96e660001cb5ce6,gby4oli74z,"Deep vs Shallow",1,313,2020-07-08T15:03:31-07:00,3.7991089820862,7,versionC_stim.csv,VC_VersionC.csv,"Version C","VC Version C",LONELY,ALONE,Study2,S,145,133,Test,User,-,,Recall,Recall2,3103,Alone,100,1682,2256,1,1,,,1
5c34e402b96e660001cb5ce6,gby4oli74z,"Deep vs Shallow",1,314,2020-07-08T15:03:36-07:00,4.1880810260773,7,versionC_stim.csv,VC_VersionC.csv,"Version C","VC Version C",CAR,DRIVER,Study2,B,106,150,Test,User,-,,Recall,Recall2,3578,Park,20,2297,2720,0,0,,,1
5c34e402b96e660001cb5ce6,gby4oli74z,"Deep vs Shallow",1,315,2020-07-08T15:03:43-07:00,7.7824189662933,7,versionC_stim.csv,VC_VersionC.csv,"Version C","VC Version C",SCISSORS,SHEARS,Study2,B,112,118,Test,User,-,,Recall,Recall2,7208,S,28.571428571429,5769,5769,0,0,,,1
5c34e402b96e660001cb5ce6,gby4oli74z,"Deep vs Shallow",1,316,2020-07-08T15:03:48-07:00,5.0292429924011,7,versionC_stim.csv,VC_VersionC.csv,"Version C","VC Version C",BREAKABLE,GLASS,Study2,F,127,154,Test,User,-,,Recall,Recall2,4117,Glass,100,2512,3299,1,1,,,1
5c34e402b96e660001cb5ce6,gby4oli74z,"Deep vs Shallow",1,317,2020-07-08T15:03:55-07:00,6.546187877655,7,versionC_stim.csv,VC_VersionC.csv,"Version C","VC Version C",EAT,DINE,Study2,B,111,168,Test,User,-,,Recall,Recall2,5940,Up,0,2128,5042,0,0,,,1
5c34e402b96e660001cb5ce6,gby4oli74z,"Deep vs Shallow",1,318,2020-07-08T15:03:59-07:00,4.1993680000305,7,versionC_stim.csv,VC_VersionC.csv,"Version C","VC Version C",BRACELET,WRIST,Study2,S,140,146,Test,User,-,,Recall,Recall2,3559,Wrist,100,1655,2674,1,1,,,1
5c34e402b96e660001cb5ce6,gby4oli74z,"Deep vs Shallow",1,319,2020-07-08T15:04:03-07:00,4.0911891460419,7,versionC_stim.csv,VC_VersionC.csv,"Version C","VC Version C",VILLAIN,BAD,Study2,F,118,116,Test,User,-,,Recall,Recall2,3326,Evil,0,1811,2451,0,0,,,1
