Username,ID,ExperimentName,Session,Trial,Date,TimeDif,"Condition Number","Stimuli File","Order File","Condition Description","Condition Notes",Stimuli*Cue,Stimuli*Answer,Stimuli*Shuffle,"Stimuli*Stimuli Notes",Stimuli*Value,Procedure*Item,"Procedure*Trial Type","Procedure*Max Time","Procedure*Min Time",Procedure*Text,"Procedure*Procedure Notes",Procedure*Shuffle,Response*RT,Response*Response,Response*Accuracy,Response*RTfirst,Response*RTlast,Response*strictAcc,Response*lenientAcc,Response*focus,Response*JOL,Response*Focus
5ebd3dae8c3ef3000b5b1b2d,8hsmlhm9lp,Nick_Dissertation_EX1,1,1,2020-10-24T10:12:04-07:00,6.7488541603088,12,versionC_stim.csv,JAMVersionD.csv,"JAM Version D","Dissertation, JAM version D",,,,,,0,Instruct,-,5,"In this section, you will be presented with a series of word pairs.",Initial_Instruct,Instruct1,6463,,,-1,-1,,,,,0.818
5ebd3dae8c3ef3000b5b1b2d,8hsmlhm9lp,Nick_Dissertation_EX1,1,2,2020-10-24T10:12:17-07:00,12.602172851562,12,versionC_stim.csv,JAMVersionD.csv,"JAM Version D","Dissertation, JAM version D",,,,,,0,Instruct,-,10,"As you study, you will be asked to rate how often the words in each pair are used together. Assume 100 college students from around the nation gave responses to each CUE (first) word. How many of these 100 students do you think would have given the RESPONSE (second) word?",,Instruct13,11644,,,-1,-1,,,,,1
5ebd3dae8c3ef3000b5b1b2d,8hsmlhm9lp,Nick_Dissertation_EX1,1,3,2020-10-24T10:12:28-07:00,11.207193136215,12,versionC_stim.csv,JAMVersionD.csv,"JAM Version D","Dissertation, JAM version D",,,,,,0,Instruct,-,10,"For example, if you are given the pair CAT - DOG, a rating of 0 indicates that DOG is not a commonly given response to the word CAT, while a score of 100 indicates that DOG would be a common response.",,Instruct14,10586,,,-1,-1,,,,,1
5ebd3dae8c3ef3000b5b1b2d,8hsmlhm9lp,Nick_Dissertation_EX1,1,4,2020-10-24T10:12:39-07:00,11.082014083862,12,versionC_stim.csv,JAMVersionD.csv,"JAM Version D","Dissertation, JAM version D",,,,,,0,Instruct,-,10,"When making your ratings, it is criticial that you use the full range of the scale. You will be disqualified for only giving ratings of 0 or 100! After making your rating, press Enter to advance to the next pair.",,Instruct15,10654,,,-1,-1,,,,,1
5ebd3dae8c3ef3000b5b1b2d,8hsmlhm9lp,Nick_Dissertation_EX1,1,5,2020-10-24T10:12:41-07:00,1.8938257694244,12,versionC_stim.csv,JAMVersionD.csv,"JAM Version D","Dissertation, JAM version D",,,,,,0,Instruct,User,-,"You will now begin the study. Press Enter when you are ready to begin.",,Instruct16,1271,,,-1,-1,,,,,1
5ebd3dae8c3ef3000b5b1b2d,8hsmlhm9lp,Nick_Dissertation_EX1,1,6,2020-10-24T10:13:02-07:00,20.475919008255,12,versionC_stim.csv,JAMVersionD.csv,"JAM Version D","Dissertation, JAM version D",ADVENTURE,CAMP,BUFFER3,Buffer,95,93,JAM,User,-,"How many people out of 100 do you think would respond with the second word if they were only shown the first?|Type your response on a scale from 0-100 and then press Enter.",Study/JOL,BUFFER,19771,,,16135,18501,,,,78,1
5ebd3dae8c3ef3000b5b1b2d,8hsmlhm9lp,Nick_Dissertation_EX1,1,7,2020-10-24T10:13:08-07:00,5.8466022014618,12,versionC_stim.csv,JAMVersionD.csv,"JAM Version D","Dissertation, JAM version D",FISH,SHRIMP,BUFFER3,Buffer,93,94,JAM,User,-,"How many people out of 100 do you think would respond with the second word if they were only shown the first?|Type your response on a scale from 0-100 and then press Enter.",Study/JOL,BUFFER,5423,,,3306,3946,,,,47,1
5ebd3dae8c3ef3000b5b1b2d,8hsmlhm9lp,Nick_Dissertation_EX1,1,8,2020-10-24T10:13:12-07:00,4.5997498035431,12,versionC_stim.csv,JAMVersionD.csv,"JAM Version D","Dissertation, JAM version D",FROZEN,ICE,BUFFER3,Buffer,94,96,JAM,User,-,"How many people out of 100 do you think would respond with the second word if they were only shown the first?|Type your response on a scale from 0-100 and then press Enter.",Study/JOL,BUFFER,4143,,,2403,2703,,,,89,1
5ebd3dae8c3ef3000b5b1b2d,8hsmlhm9lp,Nick_Dissertation_EX1,1,9,2020-10-24T10:13:18-07:00,6.3379421234131,12,versionC_stim.csv,JAMVersionD.csv,"JAM Version D","Dissertation, JAM version D",STRING,NOODLE,BUFFER3,Buffer,92,95,JAM,User,-,"How many people out of 100 do you think would respond with the second word if they were only shown the first?|Type your response on a scale from 0-100 and then press Enter.",Study/JOL,BUFFER,5738,,,3517,3964,,,,12,1
5ebd3dae8c3ef3000b5b1b2d,8hsmlhm9lp,Nick_Dissertation_EX1,1,10,2020-10-24T10:13:26-07:00,7.6734170913696,12,versionC_stim.csv,JAMVersionD.csv,"JAM Version D","Dissertation, JAM version D",POTATO,CARROT,BUFFER3,Buffer,91,92,JAM,User,-,"How many people out of 100 do you think would respond with the second word if they were only shown the first?|Type your response on a scale from 0-100 and then press Enter.",Study/JOL,BUFFER,7179,,,5503,5687,,,,11,1
5ebd3dae8c3ef3000b5b1b2d,8hsmlhm9lp,Nick_Dissertation_EX1,1,11,2020-10-24T10:13:32-07:00,5.7092478275299,12,versionC_stim.csv,JAMVersionD.csv,"JAM Version D","Dissertation, JAM version D",BALLOON,POP,Study2,F,123,119,JAM,User,-,"How many people out of 100 do you think would respond with the second word if they were only shown the first?|Type your response on a scale from 0-100 and then press Enter.",Study/JOL,"Study Phase",4985,,,2336,3438,,,,58,1
5ebd3dae8c3ef3000b5b1b2d,8hsmlhm9lp,Nick_Dissertation_EX1,1,12,2020-10-24T10:13:37-07:00,4.6491429805756,12,versionC_stim.csv,JAMVersionD.csv,"JAM Version D","Dissertation, JAM version D",SARDINE,FISH,Study2,F,130,112,JAM,User,-,"How many people out of 100 do you think would respond with the second word if they were only shown the first?|Type your response on a scale from 0-100 and then press Enter.",Study/JOL,"Study Phase",4302,,,2517,2838,,,,98,1
5ebd3dae8c3ef3000b5b1b2d,8hsmlhm9lp,Nick_Dissertation_EX1,1,13,2020-10-24T10:13:44-07:00,7.3890240192413,12,versionC_stim.csv,JAMVersionD.csv,"JAM Version D","Dissertation, JAM version D",LIE,TRUTH,Study2,S,148,148,JAM,User,-,"How many people out of 100 do you think would respond with the second word if they were only shown the first?|Type your response on a scale from 0-100 and then press Enter.",Study/JOL,"Study Phase",7041,,,4382,5680,,,,97,1
5ebd3dae8c3ef3000b5b1b2d,8hsmlhm9lp,Nick_Dissertation_EX1,1,14,2020-10-24T10:13:48-07:00,3.9658441543579,12,versionC_stim.csv,JAMVersionD.csv,"JAM Version D","Dissertation, JAM version D",TRASH,LITTER,Study2,B,103,100,JAM,User,-,"How many people out of 100 do you think would respond with the second word if they were only shown the first?|Type your response on a scale from 0-100 and then press Enter.",Study/JOL,"Study Phase",3430,,,2080,2209,,,,99,1
5ebd3dae8c3ef3000b5b1b2d,8hsmlhm9lp,Nick_Dissertation_EX1,1,15,2020-10-24T10:13:53-07:00,5.5829648971558,12,versionC_stim.csv,JAMVersionD.csv,"JAM Version D","Dissertation, JAM version D",DRINK,WATER,Study2,S,143,104,JAM,User,-,"How many people out of 100 do you think would respond with the second word if they were only shown the first?|Type your response on a scale from 0-100 and then press Enter.",Study/JOL,"Study Phase",5082,,,3287,3893,,,,89,1
5ebd3dae8c3ef3000b5b1b2d,8hsmlhm9lp,Nick_Dissertation_EX1,1,16,2020-10-24T10:14:01-07:00,7.5673730373383,12,versionC_stim.csv,JAMVersionD.csv,"JAM Version D","Dissertation, JAM version D",PAPER,DOCUMENT,Study2,B,109,169,JAM,User,-,"How many people out of 100 do you think would respond with the second word if they were only shown the first?|Type your response on a scale from 0-100 and then press Enter.",Study/JOL,"Study Phase",6972,,,3347,5682,,,,72,1
5ebd3dae8c3ef3000b5b1b2d,8hsmlhm9lp,Nick_Dissertation_EX1,1,17,2020-10-24T10:14:05-07:00,3.934061050415,12,versionC_stim.csv,JAMVersionD.csv,"JAM Version D","Dissertation, JAM version D",WAX,CANDLE,Study2,S,139,122,JAM,User,-,"How many people out of 100 do you think would respond with the second word if they were only shown the first?|Type your response on a scale from 0-100 and then press Enter.",Study/JOL,"Study Phase",3407,,,2207,2363,,,,99,1
5ebd3dae8c3ef3000b5b1b2d,8hsmlhm9lp,Nick_Dissertation_EX1,1,18,2020-10-24T10:14:13-07:00,7.6158518791199,12,versionC_stim.csv,JAMVersionD.csv,"JAM Version D","Dissertation, JAM version D",JOKE,KEYS,Study2,U,165,147,JAM,User,-,"How many people out of 100 do you think would respond with the second word if they were only shown the first?|Type your response on a scale from 0-100 and then press Enter.",Study/JOL,"Study Phase",7020,,,5603,5603,,,,5,1
5ebd3dae8c3ef3000b5b1b2d,8hsmlhm9lp,Nick_Dissertation_EX1,1,19,2020-10-24T10:14:17-07:00,4.674024105072,12,versionC_stim.csv,JAMVersionD.csv,"JAM Version D","Dissertation, JAM version D",NOISE,LOUD,Study2,S,152,146,JAM,User,-,"How many people out of 100 do you think would respond with the second word if they were only shown the first?|Type your response on a scale from 0-100 and then press Enter.",Study/JOL,"Study Phase",3768,,,2346,2709,,,,78,1
5ebd3dae8c3ef3000b5b1b2d,8hsmlhm9lp,Nick_Dissertation_EX1,1,20,2020-10-24T10:14:22-07:00,5.0120668411255,12,versionC_stim.csv,JAMVersionD.csv,"JAM Version D","Dissertation, JAM version D",AWAY,GONE,Study2,S,142,101,JAM,User,-,"How many people out of 100 do you think would respond with the second word if they were only shown the first?|Type your response on a scale from 0-100 and then press Enter.",Study/JOL,"Study Phase",4135,,,2789,3107,,,,57,1
5ebd3dae8c3ef3000b5b1b2d,8hsmlhm9lp,Nick_Dissertation_EX1,1,21,2020-10-24T10:14:27-07:00,4.8994090557098,12,versionC_stim.csv,JAMVersionD.csv,"JAM Version D","Dissertation, JAM version D",REEL,ROD,Study2,S,150,141,JAM,User,-,"How many people out of 100 do you think would respond with the second word if they were only shown the first?|Type your response on a scale from 0-100 and then press Enter.",Study/JOL,"Study Phase",4014,,,2139,2467,,,,34,1
5ebd3dae8c3ef3000b5b1b2d,8hsmlhm9lp,Nick_Dissertation_EX1,1,22,2020-10-24T10:14:37-07:00,10.199717998505,12,versionC_stim.csv,JAMVersionD.csv,"JAM Version D","Dissertation, JAM version D",PLANT,CACTUS,Study2,B,98,165,JAM,User,-,"How many people out of 100 do you think would respond with the second word if they were only shown the first?|Type your response on a scale from 0-100 and then press Enter.",Study/JOL,"Study Phase",9526,,,3295,8330,,,,64,1
5ebd3dae8c3ef3000b5b1b2d,8hsmlhm9lp,Nick_Dissertation_EX1,1,23,2020-10-24T10:14:44-07:00,6.5027210712433,12,versionC_stim.csv,JAMVersionD.csv,"JAM Version D","Dissertation, JAM version D",CHILDREN,MIRROR,Study2,U,174,159,JAM,User,-,"How many people out of 100 do you think would respond with the second word if they were only shown the first?|Type your response on a scale from 0-100 and then press Enter.",Study/JOL,"Study Phase",5747,,,3857,4256,,,,13,1
5ebd3dae8c3ef3000b5b1b2d,8hsmlhm9lp,Nick_Dissertation_EX1,1,24,2020-10-24T10:14:50-07:00,6.0848779678345,12,versionC_stim.csv,JAMVersionD.csv,"JAM Version D","Dissertation, JAM version D",BREAKABLE,GLASS,Study2,F,127,115,JAM,User,-,"How many people out of 100 do you think would respond with the second word if they were only shown the first?|Type your response on a scale from 0-100 and then press Enter.",Study/JOL,"Study Phase",5250,,,3139,4123,,,,69,1
5ebd3dae8c3ef3000b5b1b2d,8hsmlhm9lp,Nick_Dissertation_EX1,1,25,2020-10-24T10:14:57-07:00,6.7433269023895,12,versionC_stim.csv,JAMVersionD.csv,"JAM Version D","Dissertation, JAM version D",REVENGE,EVEN,Study2,F,122,106,JAM,User,-,"How many people out of 100 do you think would respond with the second word if they were only shown the first?|Type your response on a scale from 0-100 and then press Enter.",Study/JOL,"Study Phase",6235,,,3726,4759,,,,71,1
5ebd3dae8c3ef3000b5b1b2d,8hsmlhm9lp,Nick_Dissertation_EX1,1,26,2020-10-24T10:15:02-07:00,5.5130841732025,12,versionC_stim.csv,JAMVersionD.csv,"JAM Version D","Dissertation, JAM version D",CLOTH,STRETCH,Study2,U,157,144,JAM,User,-,"How many people out of 100 do you think would respond with the second word if they were only shown the first?|Type your response on a scale from 0-100 and then press Enter.",Study/JOL,"Study Phase",4886,,,3152,3386,,,,34,1
5ebd3dae8c3ef3000b5b1b2d,8hsmlhm9lp,Nick_Dissertation_EX1,1,27,2020-10-24T10:15:07-07:00,4.6669709682465,12,versionC_stim.csv,JAMVersionD.csv,"JAM Version D","Dissertation, JAM version D",COLD,CHILL,Study2,B,114,110,JAM,User,-,"How many people out of 100 do you think would respond with the second word if they were only shown the first?|Type your response on a scale from 0-100 and then press Enter.",Study/JOL,"Study Phase",4309,,,1977,2573,,,,67,1
5ebd3dae8c3ef3000b5b1b2d,8hsmlhm9lp,Nick_Dissertation_EX1,1,28,2020-10-24T10:15:11-07:00,3.734148979187,12,versionC_stim.csv,JAMVersionD.csv,"JAM Version D","Dissertation, JAM version D",BANG,FUZZY,Study2,U,168,103,JAM,User,-,"How many people out of 100 do you think would respond with the second word if they were only shown the first?|Type your response on a scale from 0-100 and then press Enter.",Study/JOL,"Study Phase",2968,,,1849,1849,,,,2,1
5ebd3dae8c3ef3000b5b1b2d,8hsmlhm9lp,Nick_Dissertation_EX1,1,29,2020-10-24T10:15:17-07:00,6.0557110309601,12,versionC_stim.csv,JAMVersionD.csv,"JAM Version D","Dissertation, JAM version D",ABLE,CRACKLE,Study2,U,162,97,JAM,User,-,"How many people out of 100 do you think would respond with the second word if they were only shown the first?|Type your response on a scale from 0-100 and then press Enter.",Study/JOL,"Study Phase",5226,,,3743,3743,,,,2,1
5ebd3dae8c3ef3000b5b1b2d,8hsmlhm9lp,Nick_Dissertation_EX1,1,30,2020-10-24T10:15:23-07:00,6.6296050548553,12,versionC_stim.csv,JAMVersionD.csv,"JAM Version D","Dissertation, JAM version D",OBTAIN,MEAT,Study2,U,161,124,JAM,User,-,"How many people out of 100 do you think would respond with the second word if they were only shown the first?|Type your response on a scale from 0-100 and then press Enter.",Study/JOL,"Study Phase",5786,,,2676,4276,,,,1,1
5ebd3dae8c3ef3000b5b1b2d,8hsmlhm9lp,Nick_Dissertation_EX1,1,31,2020-10-24T10:15:28-07:00,5.1552288532257,12,versionC_stim.csv,JAMVersionD.csv,"JAM Version D","Dissertation, JAM version D",BRAWL,FIGHT,Study2,F,135,126,JAM,User,-,"How many people out of 100 do you think would respond with the second word if they were only shown the first?|Type your response on a scale from 0-100 and then press Enter.",Study/JOL,"Study Phase",4403,,,2478,2994,,,,43,1
5ebd3dae8c3ef3000b5b1b2d,8hsmlhm9lp,Nick_Dissertation_EX1,1,32,2020-10-24T10:15:33-07:00,4.8388180732727,12,versionC_stim.csv,JAMVersionD.csv,"JAM Version D","Dissertation, JAM version D",Morning,TEMPERATURE,Study2,U,173,137,JAM,User,-,"How many people out of 100 do you think would respond with the second word if they were only shown the first?|Type your response on a scale from 0-100 and then press Enter.",Study/JOL,"Study Phase",4465,,,3219,3219,,,,3,1
5ebd3dae8c3ef3000b5b1b2d,8hsmlhm9lp,Nick_Dissertation_EX1,1,33,2020-10-24T10:15:42-07:00,8.3920660018921,12,versionC_stim.csv,JAMVersionD.csv,"JAM Version D","Dissertation, JAM version D",RED,CHERRY,Study2,B,104,113,JAM,User,-,"How many people out of 100 do you think would respond with the second word if they were only shown the first?|Type your response on a scale from 0-100 and then press Enter.",Study/JOL,"Study Phase",7809,,,2665,5560,,,,21,1
5ebd3dae8c3ef3000b5b1b2d,8hsmlhm9lp,Nick_Dissertation_EX1,1,34,2020-10-24T10:16:15-07:00,33.017909049988,12,versionC_stim.csv,JAMVersionD.csv,"JAM Version D","Dissertation, JAM version D",TAN,SUN,Study2,S,155,107,JAM,User,-,"How many people out of 100 do you think would respond with the second word if they were only shown the first?|Type your response on a scale from 0-100 and then press Enter.",Study/JOL,"Study Phase",32494,,,31246,31395,,,,78,1
5ebd3dae8c3ef3000b5b1b2d,8hsmlhm9lp,Nick_Dissertation_EX1,1,35,2020-10-24T10:16:19-07:00,4.0223388671875,12,versionC_stim.csv,JAMVersionD.csv,"JAM Version D","Dissertation, JAM version D",STEAK,GIVE,Study2,U,158,167,JAM,User,-,"How many people out of 100 do you think would respond with the second word if they were only shown the first?|Type your response on a scale from 0-100 and then press Enter.",Study/JOL,"Study Phase",3303,,,2061,2061,,,,3,1
5ebd3dae8c3ef3000b5b1b2d,8hsmlhm9lp,Nick_Dissertation_EX1,1,36,2020-10-24T10:16:24-07:00,5.4034700393677,12,versionC_stim.csv,JAMVersionD.csv,"JAM Version D","Dissertation, JAM version D",SMELL,INCENSE,Study2,B,110,170,JAM,User,-,"How many people out of 100 do you think would respond with the second word if they were only shown the first?|Type your response on a scale from 0-100 and then press Enter.",Study/JOL,"Study Phase",4680,,,2480,2980,,,,23,1
5ebd3dae8c3ef3000b5b1b2d,8hsmlhm9lp,Nick_Dissertation_EX1,1,37,2020-10-24T10:16:30-07:00,6.3195080757141,12,versionC_stim.csv,JAMVersionD.csv,"JAM Version D","Dissertation, JAM version D",BRACELET,WRIST,Study2,S,140,174,JAM,User,-,"How many people out of 100 do you think would respond with the second word if they were only shown the first?|Type your response on a scale from 0-100 and then press Enter.",Study/JOL,"Study Phase",4739,,,3162,3337,,,,54,1
5ebd3dae8c3ef3000b5b1b2d,8hsmlhm9lp,Nick_Dissertation_EX1,1,38,2020-10-24T10:16:35-07:00,4.1530380249023,12,versionC_stim.csv,JAMVersionD.csv,"JAM Version D","Dissertation, JAM version D",TOIL,LEASE,Study2,U,170,143,JAM,User,-,"How many people out of 100 do you think would respond with the second word if they were only shown the first?|Type your response on a scale from 0-100 and then press Enter.",Study/JOL,"Study Phase",2983,,,1682,1682,,,,2,1
5ebd3dae8c3ef3000b5b1b2d,8hsmlhm9lp,Nick_Dissertation_EX1,1,39,2020-10-24T10:16:41-07:00,6.0392899513245,12,versionC_stim.csv,JAMVersionD.csv,"JAM Version D","Dissertation, JAM version D",SCISSORS,SHEARS,Study2,B,112,125,JAM,User,-,"How many people out of 100 do you think would respond with the second word if they were only shown the first?|Type your response on a scale from 0-100 and then press Enter.",Study/JOL,"Study Phase",5237,,,3780,3781,,,,2,1
5ebd3dae8c3ef3000b5b1b2d,8hsmlhm9lp,Nick_Dissertation_EX1,1,40,2020-10-24T10:16:46-07:00,4.9148659706116,12,versionC_stim.csv,JAMVersionD.csv,"JAM Version D","Dissertation, JAM version D",CLOTHES,CAKE,Study2,U,166,163,JAM,User,-,"How many people out of 100 do you think would respond with the second word if they were only shown the first?|Type your response on a scale from 0-100 and then press Enter.",Study/JOL,"Study Phase",4125,,,2542,2542,,,,1,1
5ebd3dae8c3ef3000b5b1b2d,8hsmlhm9lp,Nick_Dissertation_EX1,1,41,2020-10-24T10:16:54-07:00,8.1929280757904,12,versionC_stim.csv,JAMVersionD.csv,"JAM Version D","Dissertation, JAM version D",PANTHER,CAT,Study2,F,126,140,JAM,User,-,"How many people out of 100 do you think would respond with the second word if they were only shown the first?|Type your response on a scale from 0-100 and then press Enter.",Study/JOL,"Study Phase",7156,,,5154,5555,,,,68,0.722
5ebd3dae8c3ef3000b5b1b2d,8hsmlhm9lp,Nick_Dissertation_EX1,1,42,2020-10-24T10:17:00-07:00,6.5126919746399,12,versionC_stim.csv,JAMVersionD.csv,"JAM Version D","Dissertation, JAM version D",GAME,CLUE,Study2,B,97,142,JAM,User,-,"How many people out of 100 do you think would respond with the second word if they were only shown the first?|Type your response on a scale from 0-100 and then press Enter.",Study/JOL,"Study Phase",6123,,,4298,4726,,,,30,1
5ebd3dae8c3ef3000b5b1b2d,8hsmlhm9lp,Nick_Dissertation_EX1,1,43,2020-10-24T10:17:05-07:00,4.6945559978485,12,versionC_stim.csv,JAMVersionD.csv,"JAM Version D","Dissertation, JAM version D",TEMPER,TANTRUM,Study2,S,154,135,JAM,User,-,"How many people out of 100 do you think would respond with the second word if they were only shown the first?|Type your response on a scale from 0-100 and then press Enter.",Study/JOL,"Study Phase",4319,,,2895,3116,,,,78,1
5ebd3dae8c3ef3000b5b1b2d,8hsmlhm9lp,Nick_Dissertation_EX1,1,44,2020-10-24T10:17:09-07:00,3.8620879650116,12,versionC_stim.csv,JAMVersionD.csv,"JAM Version D","Dissertation, JAM version D",SIGN,LOAN,Study2,U,171,168,JAM,User,-,"How many people out of 100 do you think would respond with the second word if they were only shown the first?|Type your response on a scale from 0-100 and then press Enter.",Study/JOL,"Study Phase",3497,,,2065,2065,,,,1,1
5ebd3dae8c3ef3000b5b1b2d,8hsmlhm9lp,Nick_Dissertation_EX1,1,45,2020-10-24T10:17:13-07:00,3.9028768539429,12,versionC_stim.csv,JAMVersionD.csv,"JAM Version D","Dissertation, JAM version D",CLEAR,MOAT,Study2,U,169,109,JAM,User,-,"How many people out of 100 do you think would respond with the second word if they were only shown the first?|Type your response on a scale from 0-100 and then press Enter.",Study/JOL,"Study Phase",3555,,,2285,2286,,,,1,1
5ebd3dae8c3ef3000b5b1b2d,8hsmlhm9lp,Nick_Dissertation_EX1,1,46,2020-10-24T10:17:20-07:00,7.3529601097107,12,versionC_stim.csv,JAMVersionD.csv,"JAM Version D","Dissertation, JAM version D",STRAWBERRY,FRUIT,Study2,F,124,151,JAM,User,-,"How many people out of 100 do you think would respond with the second word if they were only shown the first?|Type your response on a scale from 0-100 and then press Enter.",Study/JOL,"Study Phase",6901,,,5520,5819,,,,90,1
5ebd3dae8c3ef3000b5b1b2d,8hsmlhm9lp,Nick_Dissertation_EX1,1,47,2020-10-24T10:17:24-07:00,3.8897609710693,12,versionC_stim.csv,JAMVersionD.csv,"JAM Version D","Dissertation, JAM version D",SHAVE,RAZOR,Study2,S,136,111,JAM,User,-,"How many people out of 100 do you think would respond with the second word if they were only shown the first?|Type your response on a scale from 0-100 and then press Enter.",Study/JOL,"Study Phase",3432,,,2183,2328,,,,90,1
5ebd3dae8c3ef3000b5b1b2d,8hsmlhm9lp,Nick_Dissertation_EX1,1,48,2020-10-24T10:17:30-07:00,5.5921959877014,12,versionC_stim.csv,JAMVersionD.csv,"JAM Version D","Dissertation, JAM version D",CARBON,ELEMENT,Study2,S,141,157,JAM,User,-,"How many people out of 100 do you think would respond with the second word if they were only shown the first?|Type your response on a scale from 0-100 and then press Enter.",Study/JOL,"Study Phase",5165,,,3047,3418,,,,87,1
5ebd3dae8c3ef3000b5b1b2d,8hsmlhm9lp,Nick_Dissertation_EX1,1,49,2020-10-24T10:17:34-07:00,4.733649969101,12,versionC_stim.csv,JAMVersionD.csv,"JAM Version D","Dissertation, JAM version D",TRUTHFUL,HONEST,Study2,F,133,145,JAM,User,-,"How many people out of 100 do you think would respond with the second word if they were only shown the first?|Type your response on a scale from 0-100 and then press Enter.",Study/JOL,"Study Phase",4318,,,2610,3159,,,,98,1
5ebd3dae8c3ef3000b5b1b2d,8hsmlhm9lp,Nick_Dissertation_EX1,1,50,2020-10-24T10:17:39-07:00,4.3036141395569,12,versionC_stim.csv,JAMVersionD.csv,"JAM Version D","Dissertation, JAM version D",ELECTION,MAZE,Study2,U,159,161,JAM,User,-,"How many people out of 100 do you think would respond with the second word if they were only shown the first?|Type your response on a scale from 0-100 and then press Enter.",Study/JOL,"Study Phase",3862,,,2557,2557,,,,0,1
5ebd3dae8c3ef3000b5b1b2d,8hsmlhm9lp,Nick_Dissertation_EX1,1,51,2020-10-24T10:17:44-07:00,5.8561899662018,12,versionC_stim.csv,JAMVersionD.csv,"JAM Version D","Dissertation, JAM version D",SCAR,MAIN,Study2,U,175,150,JAM,User,-,"How many people out of 100 do you think would respond with the second word if they were only shown the first?|Type your response on a scale from 0-100 and then press Enter.",Study/JOL,"Study Phase",5359,,,3917,3917,,,,2,1
5ebd3dae8c3ef3000b5b1b2d,8hsmlhm9lp,Nick_Dissertation_EX1,1,52,2020-10-24T10:17:48-07:00,3.9885630607605,12,versionC_stim.csv,JAMVersionD.csv,"JAM Version D","Dissertation, JAM version D",HATE,NAME,Study2,U,167,139,JAM,User,-,"How many people out of 100 do you think would respond with the second word if they were only shown the first?|Type your response on a scale from 0-100 and then press Enter.",Study/JOL,"Study Phase",3620,,,2186,2186,,,,1,1
5ebd3dae8c3ef3000b5b1b2d,8hsmlhm9lp,Nick_Dissertation_EX1,1,53,2020-10-24T10:17:53-07:00,4.8546199798584,12,versionC_stim.csv,JAMVersionD.csv,"JAM Version D","Dissertation, JAM version D",FIGHT,FEUD,Study2,B,113,118,JAM,User,-,"How many people out of 100 do you think would respond with the second word if they were only shown the first?|Type your response on a scale from 0-100 and then press Enter.",Study/JOL,"Study Phase",4433,,,2917,3306,,,,99,1
5ebd3dae8c3ef3000b5b1b2d,8hsmlhm9lp,Nick_Dissertation_EX1,1,54,2020-10-24T10:17:57-07:00,3.5471420288086,12,versionC_stim.csv,JAMVersionD.csv,"JAM Version D","Dissertation, JAM version D",CHARM,VEHICLE,Study2,U,160,129,JAM,User,-,"How many people out of 100 do you think would respond with the second word if they were only shown the first?|Type your response on a scale from 0-100 and then press Enter.",Study/JOL,"Study Phase",3085,,,1733,1733,,,,3,1
5ebd3dae8c3ef3000b5b1b2d,8hsmlhm9lp,Nick_Dissertation_EX1,1,55,2020-10-24T10:18:00-07:00,3.6328690052032,12,versionC_stim.csv,JAMVersionD.csv,"JAM Version D","Dissertation, JAM version D",EAT,DINE,Study2,B,111,156,JAM,User,-,"How many people out of 100 do you think would respond with the second word if they were only shown the first?|Type your response on a scale from 0-100 and then press Enter.",Study/JOL,"Study Phase",3245,,,1952,2148,,,,65,1
5ebd3dae8c3ef3000b5b1b2d,8hsmlhm9lp,Nick_Dissertation_EX1,1,56,2020-10-24T10:18:04-07:00,3.8687019348145,12,versionC_stim.csv,JAMVersionD.csv,"JAM Version D","Dissertation, JAM version D",SEATBELT,SAFETY,Study2,S,147,123,JAM,User,-,"How many people out of 100 do you think would respond with the second word if they were only shown the first?|Type your response on a scale from 0-100 and then press Enter.",Study/JOL,"Study Phase",3357,,,1756,2080,,,,87,1
5ebd3dae8c3ef3000b5b1b2d,8hsmlhm9lp,Nick_Dissertation_EX1,1,57,2020-10-24T10:18:10-07:00,5.8460779190063,12,versionC_stim.csv,JAMVersionD.csv,"JAM Version D","Dissertation, JAM version D",AIRCRAFT,PLANE,Study2,F,129,128,JAM,User,-,"How many people out of 100 do you think would respond with the second word if they were only shown the first?|Type your response on a scale from 0-100 and then press Enter.",Study/JOL,"Study Phase",5341,,,3111,3658,,,,95,1
5ebd3dae8c3ef3000b5b1b2d,8hsmlhm9lp,Nick_Dissertation_EX1,1,58,2020-10-24T10:18:15-07:00,5.2887279987335,12,versionC_stim.csv,JAMVersionD.csv,"JAM Version D","Dissertation, JAM version D",THIMBLE,THREAD,Study2,F,121,136,JAM,User,-,"How many people out of 100 do you think would respond with the second word if they were only shown the first?|Type your response on a scale from 0-100 and then press Enter.",Study/JOL,"Study Phase",4919,,,3169,3169,,,,2,1
5ebd3dae8c3ef3000b5b1b2d,8hsmlhm9lp,Nick_Dissertation_EX1,1,59,2020-10-24T10:18:28-07:00,12.749551057816,12,versionC_stim.csv,JAMVersionD.csv,"JAM Version D","Dissertation, JAM version D",FICTION,LISTEN,Study2,U,164,171,JAM,User,-,"How many people out of 100 do you think would respond with the second word if they were only shown the first?|Type your response on a scale from 0-100 and then press Enter.",Study/JOL,"Study Phase",12180,,,10313,10314,,,,2,1
5ebd3dae8c3ef3000b5b1b2d,8hsmlhm9lp,Nick_Dissertation_EX1,1,60,2020-10-24T10:18:35-07:00,7.1091659069061,12,versionC_stim.csv,JAMVersionD.csv,"JAM Version D","Dissertation, JAM version D",COMMUNICATION,PHONE,Study2,S,149,102,JAM,User,-,"How many people out of 100 do you think would respond with the second word if they were only shown the first?|Type your response on a scale from 0-100 and then press Enter.",Study/JOL,"Study Phase",6637,,,5027,5282,,,,45,1
5ebd3dae8c3ef3000b5b1b2d,8hsmlhm9lp,Nick_Dissertation_EX1,1,61,2020-10-24T10:18:40-07:00,4.639014005661,12,versionC_stim.csv,JAMVersionD.csv,"JAM Version D","Dissertation, JAM version D",LONG,EXTENSION,Study2,B,96,130,JAM,User,-,"How many people out of 100 do you think would respond with the second word if they were only shown the first?|Type your response on a scale from 0-100 and then press Enter.",Study/JOL,"Study Phase",4202,,,2568,2659,,,,87,1
5ebd3dae8c3ef3000b5b1b2d,8hsmlhm9lp,Nick_Dissertation_EX1,1,62,2020-10-24T10:18:45-07:00,4.9953050613403,12,versionC_stim.csv,JAMVersionD.csv,"JAM Version D","Dissertation, JAM version D",COFFIN,DEAD,Study2,F,128,132,JAM,User,-,"How many people out of 100 do you think would respond with the second word if they were only shown the first?|Type your response on a scale from 0-100 and then press Enter.",Study/JOL,"Study Phase",4643,,,2974,3104,,,,99,1
5ebd3dae8c3ef3000b5b1b2d,8hsmlhm9lp,Nick_Dissertation_EX1,1,63,2020-10-24T10:18:50-07:00,5.299015045166,12,versionC_stim.csv,JAMVersionD.csv,"JAM Version D","Dissertation, JAM version D",WINDSHIELD,CAR,Study2,F,117,99,JAM,User,-,"How many people out of 100 do you think would respond with the second word if they were only shown the first?|Type your response on a scale from 0-100 and then press Enter.",Study/JOL,"Study Phase",4891,,,3040,3639,,,,80,1
5ebd3dae8c3ef3000b5b1b2d,8hsmlhm9lp,Nick_Dissertation_EX1,1,64,2020-10-24T10:19:01-07:00,10.656903982162,12,versionC_stim.csv,JAMVersionD.csv,"JAM Version D","Dissertation, JAM version D",HEAD,SCALP,Study2,B,105,172,JAM,User,-,"How many people out of 100 do you think would respond with the second word if they were only shown the first?|Type your response on a scale from 0-100 and then press Enter.",Study/JOL,"Study Phase",10175,,,6545,7577,,,,93,1
5ebd3dae8c3ef3000b5b1b2d,8hsmlhm9lp,Nick_Dissertation_EX1,1,65,2020-10-24T10:19:09-07:00,7.9442811012268,12,versionC_stim.csv,JAMVersionD.csv,"JAM Version D","Dissertation, JAM version D",JAR,MASON,Study2,S,138,160,JAM,User,-,"How many people out of 100 do you think would respond with the second word if they were only shown the first?|Type your response on a scale from 0-100 and then press Enter.",Study/JOL,"Study Phase",7591,,,3614,6139,,,,89,1
5ebd3dae8c3ef3000b5b1b2d,8hsmlhm9lp,Nick_Dissertation_EX1,1,66,2020-10-24T10:19:22-07:00,12.989326000214,12,versionC_stim.csv,JAMVersionD.csv,"JAM Version D","Dissertation, JAM version D",SHAKE,Shell,Study2,U,163,108,JAM,User,-,"How many people out of 100 do you think would respond with the second word if they were only shown the first?|Type your response on a scale from 0-100 and then press Enter.",Study/JOL,"Study Phase",12467,,,10960,10960,,,,2,0.878
5ebd3dae8c3ef3000b5b1b2d,8hsmlhm9lp,Nick_Dissertation_EX1,1,67,2020-10-24T10:19:59-07:00,36.661206960678,12,versionC_stim.csv,JAMVersionD.csv,"JAM Version D","Dissertation, JAM version D",LONELY,ALONE,Study2,S,145,176,JAM,User,-,"How many people out of 100 do you think would respond with the second word if they were only shown the first?|Type your response on a scale from 0-100 and then press Enter.",Study/JOL,"Study Phase",36225,,,34684,35760,,,,89,0.547
5ebd3dae8c3ef3000b5b1b2d,8hsmlhm9lp,Nick_Dissertation_EX1,1,68,2020-10-24T10:20:03-07:00,4.0229468345642,12,versionC_stim.csv,JAMVersionD.csv,"JAM Version D","Dissertation, JAM version D",END,ADJOURN,Study2,B,101,127,JAM,User,-,"How many people out of 100 do you think would respond with the second word if they were only shown the first?|Type your response on a scale from 0-100 and then press Enter.",Study/JOL,"Study Phase",3671,,,3031,3257,,,,23,1
5ebd3dae8c3ef3000b5b1b2d,8hsmlhm9lp,Nick_Dissertation_EX1,1,69,2020-10-24T10:20:09-07:00,6.2402350902557,12,versionC_stim.csv,JAMVersionD.csv,"JAM Version D","Dissertation, JAM version D",MYSTERY,DETECTIVE,Study2,B,100,149,JAM,User,-,"How many people out of 100 do you think would respond with the second word if they were only shown the first?|Type your response on a scale from 0-100 and then press Enter.",Study/JOL,"Study Phase",4809,,,4153,4262,,,,70,1
5ebd3dae8c3ef3000b5b1b2d,8hsmlhm9lp,Nick_Dissertation_EX1,1,70,2020-10-24T10:20:15-07:00,5.7547841072083,12,versionC_stim.csv,JAMVersionD.csv,"JAM Version D","Dissertation, JAM version D",EQUAL,RIGHTS,Study2,S,137,166,JAM,User,-,"How many people out of 100 do you think would respond with the second word if they were only shown the first?|Type your response on a scale from 0-100 and then press Enter.",Study/JOL,"Study Phase",5352,,,4845,4912,,,,80,1
5ebd3dae8c3ef3000b5b1b2d,8hsmlhm9lp,Nick_Dissertation_EX1,1,71,2020-10-24T10:20:20-07:00,5.5555629730225,12,versionC_stim.csv,JAMVersionD.csv,"JAM Version D","Dissertation, JAM version D",FAVORITE,BEST,Study2,F,125,153,JAM,User,-,"How many people out of 100 do you think would respond with the second word if they were only shown the first?|Type your response on a scale from 0-100 and then press Enter.",Study/JOL,"Study Phase",5158,,,2281,4529,,,,91,1
5ebd3dae8c3ef3000b5b1b2d,8hsmlhm9lp,Nick_Dissertation_EX1,1,72,2020-10-24T10:20:27-07:00,6.8512969017029,12,versionC_stim.csv,JAMVersionD.csv,"JAM Version D","Dissertation, JAM version D",TIE,SHOELACE,Study2,B,99,154,JAM,User,-,"How many people out of 100 do you think would respond with the second word if they were only shown the first?|Type your response on a scale from 0-100 and then press Enter.",Study/JOL,"Study Phase",6383,,,4178,5971,,,,78,1
5ebd3dae8c3ef3000b5b1b2d,8hsmlhm9lp,Nick_Dissertation_EX1,1,73,2020-10-24T10:20:29-07:00,2.5105431079865,12,versionC_stim.csv,JAMVersionD.csv,"JAM Version D","Dissertation, JAM version D",LOVE,AFFECTION,Study2,B,115,131,JAM,User,-,"How many people out of 100 do you think would respond with the second word if they were only shown the first?|Type your response on a scale from 0-100 and then press Enter.",Study/JOL,"Study Phase",2064,,,1571,1723,,,,90,1
5ebd3dae8c3ef3000b5b1b2d,8hsmlhm9lp,Nick_Dissertation_EX1,1,74,2020-10-24T10:20:35-07:00,5.3232178688049,12,versionC_stim.csv,JAMVersionD.csv,"JAM Version D","Dissertation, JAM version D",DOG,FURRY,Study2,B,102,117,JAM,User,-,"How many people out of 100 do you think would respond with the second word if they were only shown the first?|Type your response on a scale from 0-100 and then press Enter.",Study/JOL,"Study Phase",4917,,,3457,4624,,,,64,1
5ebd3dae8c3ef3000b5b1b2d,8hsmlhm9lp,Nick_Dissertation_EX1,1,75,2020-10-24T10:20:38-07:00,3.7134160995483,12,versionC_stim.csv,JAMVersionD.csv,"JAM Version D","Dissertation, JAM version D",TICK,FLEA,Study2,S,151,121,JAM,User,-,"How many people out of 100 do you think would respond with the second word if they were only shown the first?|Type your response on a scale from 0-100 and then press Enter.",Study/JOL,"Study Phase",3258,,,2839,2988,,,,90,1
5ebd3dae8c3ef3000b5b1b2d,8hsmlhm9lp,Nick_Dissertation_EX1,1,76,2020-10-24T10:20:43-07:00,4.5801730155945,12,versionC_stim.csv,JAMVersionD.csv,"JAM Version D","Dissertation, JAM version D",GROUND,EARTH,Study2,S,144,138,JAM,User,-,"How many people out of 100 do you think would respond with the second word if they were only shown the first?|Type your response on a scale from 0-100 and then press Enter.",Study/JOL,"Study Phase",4056,,,2593,3873,,,,54,1
5ebd3dae8c3ef3000b5b1b2d,8hsmlhm9lp,Nick_Dissertation_EX1,1,77,2020-10-24T10:20:47-07:00,4.0670049190521,12,versionC_stim.csv,JAMVersionD.csv,"JAM Version D","Dissertation, JAM version D",FLIP,TURN,Study2,F,116,114,JAM,User,-,"How many people out of 100 do you think would respond with the second word if they were only shown the first?|Type your response on a scale from 0-100 and then press Enter.",Study/JOL,"Study Phase",3562,,,2726,3342,,,,62,1
5ebd3dae8c3ef3000b5b1b2d,8hsmlhm9lp,Nick_Dissertation_EX1,1,78,2020-10-24T10:20:51-07:00,3.9108231067657,12,versionC_stim.csv,JAMVersionD.csv,"JAM Version D","Dissertation, JAM version D",NAP,SLEEP,Study2,F,134,158,JAM,User,-,"How many people out of 100 do you think would respond with the second word if they were only shown the first?|Type your response on a scale from 0-100 and then press Enter.",Study/JOL,"Study Phase",3529,,,2224,3252,,,,95,1
5ebd3dae8c3ef3000b5b1b2d,8hsmlhm9lp,Nick_Dissertation_EX1,1,79,2020-10-24T10:20:54-07:00,3.230682849884,12,versionC_stim.csv,JAMVersionD.csv,"JAM Version D","Dissertation, JAM version D",VILLAIN,BAD,Study2,F,118,116,JAM,User,-,"How many people out of 100 do you think would respond with the second word if they were only shown the first?|Type your response on a scale from 0-100 and then press Enter.",Study/JOL,"Study Phase",2796,,,1506,2442,,,,97,1
5ebd3dae8c3ef3000b5b1b2d,8hsmlhm9lp,Nick_Dissertation_EX1,1,80,2020-10-24T10:20:58-07:00,3.6542100906372,12,versionC_stim.csv,JAMVersionD.csv,"JAM Version D","Dissertation, JAM version D",CUT,CHOP,Study2,B,107,175,JAM,User,-,"How many people out of 100 do you think would respond with the second word if they were only shown the first?|Type your response on a scale from 0-100 and then press Enter.",Study/JOL,"Study Phase",3237,,,2443,3095,,,,75,1
5ebd3dae8c3ef3000b5b1b2d,8hsmlhm9lp,Nick_Dissertation_EX1,1,81,2020-10-24T10:21:02-07:00,3.7333879470825,12,versionC_stim.csv,JAMVersionD.csv,"JAM Version D","Dissertation, JAM version D",BANKER,MONEY,Study2,F,132,152,JAM,User,-,"How many people out of 100 do you think would respond with the second word if they were only shown the first?|Type your response on a scale from 0-100 and then press Enter.",Study/JOL,"Study Phase",3273,,,2667,2865,,,,90,1
5ebd3dae8c3ef3000b5b1b2d,8hsmlhm9lp,Nick_Dissertation_EX1,1,82,2020-10-24T10:21:05-07:00,3.2104871273041,12,versionC_stim.csv,JAMVersionD.csv,"JAM Version D","Dissertation, JAM version D",PENGUIN,BIRD,Study2,F,119,134,JAM,User,-,"How many people out of 100 do you think would respond with the second word if they were only shown the first?|Type your response on a scale from 0-100 and then press Enter.",Study/JOL,"Study Phase",2743,,,2153,2344,,,,20,1
5ebd3dae8c3ef3000b5b1b2d,8hsmlhm9lp,Nick_Dissertation_EX1,1,83,2020-10-24T10:21:10-07:00,5.5378608703613,12,versionC_stim.csv,JAMVersionD.csv,"JAM Version D","Dissertation, JAM version D",LEAGUE,BASEBALL,Study2,F,131,120,JAM,User,-,"How many people out of 100 do you think would respond with the second word if they were only shown the first?|Type your response on a scale from 0-100 and then press Enter.",Study/JOL,"Study Phase",5133,,,4068,4873,,,,27,1
5ebd3dae8c3ef3000b5b1b2d,8hsmlhm9lp,Nick_Dissertation_EX1,1,84,2020-10-24T10:21:13-07:00,2.7829949855804,12,versionC_stim.csv,JAMVersionD.csv,"JAM Version D","Dissertation, JAM version D",OUNCE,BOTH,Study2,U,172,173,JAM,User,-,"How many people out of 100 do you think would respond with the second word if they were only shown the first?|Type your response on a scale from 0-100 and then press Enter.",Study/JOL,"Study Phase",2339,,,2197,2197,,,,2,1
5ebd3dae8c3ef3000b5b1b2d,8hsmlhm9lp,Nick_Dissertation_EX1,1,85,2020-10-24T10:21:18-07:00,5.1816339492798,12,versionC_stim.csv,JAMVersionD.csv,"JAM Version D","Dissertation, JAM version D",HAVE,OWN,Study2,S,153,133,JAM,User,-,"How many people out of 100 do you think would respond with the second word if they were only shown the first?|Type your response on a scale from 0-100 and then press Enter.",Study/JOL,"Study Phase",4653,,,3051,4155,,,,67,1
5ebd3dae8c3ef3000b5b1b2d,8hsmlhm9lp,Nick_Dissertation_EX1,1,86,2020-10-24T10:21:22-07:00,3.6931340694427,12,versionC_stim.csv,JAMVersionD.csv,"JAM Version D","Dissertation, JAM version D",WET,DRY,Study2,S,146,164,JAM,User,-,"How many people out of 100 do you think would respond with the second word if they were only shown the first?|Type your response on a scale from 0-100 and then press Enter.",Study/JOL,"Study Phase",3265,,,2384,2697,,,,70,1
5ebd3dae8c3ef3000b5b1b2d,8hsmlhm9lp,Nick_Dissertation_EX1,1,87,2020-10-24T10:21:24-07:00,2.2627038955688,12,versionC_stim.csv,JAMVersionD.csv,"JAM Version D","Dissertation, JAM version D",MAROON,JUSTICE,Study2,U,156,162,JAM,User,-,"How many people out of 100 do you think would respond with the second word if they were only shown the first?|Type your response on a scale from 0-100 and then press Enter.",Study/JOL,"Study Phase",1739,,,1551,1551,,,,2,1
5ebd3dae8c3ef3000b5b1b2d,8hsmlhm9lp,Nick_Dissertation_EX1,1,88,2020-10-24T10:21:28-07:00,3.194925069809,12,versionC_stim.csv,JAMVersionD.csv,"JAM Version D","Dissertation, JAM version D",CAR,DRIVER,Study2,B,106,155,JAM,User,-,"How many people out of 100 do you think would respond with the second word if they were only shown the first?|Type your response on a scale from 0-100 and then press Enter.",Study/JOL,"Study Phase",2576,,,1830,1830,,,,7,1
5ebd3dae8c3ef3000b5b1b2d,8hsmlhm9lp,Nick_Dissertation_EX1,1,89,2020-10-24T10:21:31-07:00,3.8853521347046,12,versionC_stim.csv,JAMVersionD.csv,"JAM Version D","Dissertation, JAM version D",ACTRESS,STAR,Study2,F,120,105,JAM,User,-,"How many people out of 100 do you think would respond with the second word if they were only shown the first?|Type your response on a scale from 0-100 and then press Enter.",Study/JOL,"Study Phase",3391,,,2398,2886,,,,78,1
5ebd3dae8c3ef3000b5b1b2d,8hsmlhm9lp,Nick_Dissertation_EX1,1,90,2020-10-24T10:21:35-07:00,3.3788750171661,12,versionC_stim.csv,JAMVersionD.csv,"JAM Version D","Dissertation, JAM version D",DONKEY,MULE,Study2,B,108,98,JAM,User,-,"How many people out of 100 do you think would respond with the second word if they were only shown the first?|Type your response on a scale from 0-100 and then press Enter.",Study/JOL,"Study Phase",2980,,,1936,2771,,,,41,1
5ebd3dae8c3ef3000b5b1b2d,8hsmlhm9lp,Nick_Dissertation_EX1,1,91,2020-10-24T10:21:40-07:00,5.2687239646912,12,versionC_stim.csv,JAMVersionD.csv,"JAM Version D","Dissertation, JAM version D",SPOOKY,OCTOBER,BUFFER4,Buffer,180,181,JAM,User,-,"How many people out of 100 do you think would respond with the second word if they were only shown the first?|Type your response on a scale from 0-100 and then press Enter.",Study/JOL,BUFFER2,4802,,,3799,4461,,,,42,1
5ebd3dae8c3ef3000b5b1b2d,8hsmlhm9lp,Nick_Dissertation_EX1,1,92,2020-10-24T10:21:44-07:00,3.8213999271393,12,versionC_stim.csv,JAMVersionD.csv,"JAM Version D","Dissertation, JAM version D",YEAR,MONTH,BUFFER4,Buffer,177,180,JAM,User,-,"How many people out of 100 do you think would respond with the second word if they were only shown the first?|Type your response on a scale from 0-100 and then press Enter.",Study/JOL,BUFFER2,3398,,,2274,2987,,,,79,1
5ebd3dae8c3ef3000b5b1b2d,8hsmlhm9lp,Nick_Dissertation_EX1,1,93,2020-10-24T10:21:48-07:00,4.2472369670868,12,versionC_stim.csv,JAMVersionD.csv,"JAM Version D","Dissertation, JAM version D",MARCH,SPRING,BUFFER4,Buffer,179,178,JAM,User,-,"How many people out of 100 do you think would respond with the second word if they were only shown the first?|Type your response on a scale from 0-100 and then press Enter.",Study/JOL,BUFFER2,3768,,,3159,3546,,,,42,1
5ebd3dae8c3ef3000b5b1b2d,8hsmlhm9lp,Nick_Dissertation_EX1,1,94,2020-10-24T10:21:52-07:00,3.6944241523743,12,versionC_stim.csv,JAMVersionD.csv,"JAM Version D","Dissertation, JAM version D",WEAKS,DAYS,BUFFER4,Buffer,176,177,JAM,User,-,"How many people out of 100 do you think would respond with the second word if they were only shown the first?|Type your response on a scale from 0-100 and then press Enter.",Study/JOL,BUFFER2,3327,,,1793,2727,,,,73,1
5ebd3dae8c3ef3000b5b1b2d,8hsmlhm9lp,Nick_Dissertation_EX1,1,95,2020-10-24T10:22:00-07:00,7.8415529727936,12,versionC_stim.csv,JAMVersionD.csv,"JAM Version D","Dissertation, JAM version D",SHED,TOOL,BUFFER4,Buffer,178,179,JAM,User,-,"How many people out of 100 do you think would respond with the second word if they were only shown the first?|Type your response on a scale from 0-100 and then press Enter.",Study/JOL,BUFFER2,7443,,,7279,7279,,,,4,1
5ebd3dae8c3ef3000b5b1b2d,8hsmlhm9lp,Nick_Dissertation_EX1,1,96,2020-10-24T10:22:01-07:00,1.7050688266754,12,versionC_stim.csv,JAMVersionD.csv,"JAM Version D","Dissertation, JAM version D",,,,,,0,Instruct,User,-,"You have completed this section. Please press Enter.",Filler_Instruction,Instruct2,1051,,,-1,-1,,,,,1
5ebd3dae8c3ef3000b5b1b2d,8hsmlhm9lp,Nick_Dissertation_EX1,1,97,2020-10-24T10:24:02-07:00,120.61250901222,12,versionC_stim.csv,JAMVersionD.csv,"JAM Version D","Dissertation, JAM version D",,,,,,0,FreeRecall,120,120,"Please list the 50 US states in alphabetical order. The task will automatically advance to the next screen after two minutes.",,Filler1,120003,"Alabama, Alaska, Arizona, Arkansas, California, Colorado, Connecticut, Delaware, Florida, Georgia, Hawaii, Idaho, Illinois, Indiana Iowa Kansas Kentucky Louisiana Maine Maryland Massachusetts Michigan Minnesota Mississippi Missouri Montana Nebraska Nevada New Hampshire New Jersey New Mexico New York North Carolina North Dakota Ohio Oklahoma Oregon Pennsylvania Rhode Island South Carolina South Dakota Tennessee Texas Utah Vermont Virginia Washington West Virginia Wisconsin Wyoming",0,31153,118071,0,0,,,0.921
5ebd3dae8c3ef3000b5b1b2d,8hsmlhm9lp,Nick_Dissertation_EX1,1,98,2020-10-24T10:24:15-07:00,13.515513181686,12,versionC_stim.csv,JAMVersionD.csv,"JAM Version D","Dissertation, JAM version D",,,,,,0,Instruct,-,10,"You will now be presented with the first word from each of the previously studied item pairs. Please type the missing word. If you do not know the word, you may guess or press Enter to skip forward to the next pair.",,Instruct3,13140,,,-1,-1,,,,,1
5ebd3dae8c3ef3000b5b1b2d,8hsmlhm9lp,Nick_Dissertation_EX1,1,99,2020-10-24T10:24:24-07:00,8.1887798309326,12,versionC_stim.csv,JAMVersionD.csv,"JAM Version D","Dissertation, JAM version D",Morning,TEMPERATURE,Study2,U,173,137,Test,User,-,,Recall,Recall1,7784,Temperauture,95.652173913043,3721,7395,0,1,,,1
5ebd3dae8c3ef3000b5b1b2d,8hsmlhm9lp,Nick_Dissertation_EX1,1,100,2020-10-24T10:24:26-07:00,2.30597615242,12,versionC_stim.csv,JAMVersionD.csv,"JAM Version D","Dissertation, JAM version D",VILLAIN,BAD,Study2,F,118,116,Test,User,-,,Recall,Recall1,1870,Bad,100,1174,1509,1,1,,,1
5ebd3dae8c3ef3000b5b1b2d,8hsmlhm9lp,Nick_Dissertation_EX1,1,101,2020-10-24T10:24:29-07:00,3.3724060058594,12,versionC_stim.csv,JAMVersionD.csv,"JAM Version D","Dissertation, JAM version D",COMMUNICATION,PHONE,Study2,S,149,102,Test,User,-,,Recall,Recall1,2942,phone,100,1837,2500,1,1,,,1
5ebd3dae8c3ef3000b5b1b2d,8hsmlhm9lp,Nick_Dissertation_EX1,1,102,2020-10-24T10:24:33-07:00,3.1411588191986,12,versionC_stim.csv,JAMVersionD.csv,"JAM Version D","Dissertation, JAM version D",DONKEY,MULE,Study2,B,108,98,Test,User,-,,Recall,Recall1,2751,mule,100,1033,2513,1,1,,,1
5ebd3dae8c3ef3000b5b1b2d,8hsmlhm9lp,Nick_Dissertation_EX1,1,103,2020-10-24T10:24:36-07:00,3.2720119953156,12,versionC_stim.csv,JAMVersionD.csv,"JAM Version D","Dissertation, JAM version D",STRAWBERRY,FRUIT,Study2,F,124,151,Test,User,-,,Recall,Recall1,2825,red,25,1182,1510,0,0,,,1
5ebd3dae8c3ef3000b5b1b2d,8hsmlhm9lp,Nick_Dissertation_EX1,1,104,2020-10-24T10:24:40-07:00,4.0347051620483,12,versionC_stim.csv,JAMVersionD.csv,"JAM Version D","Dissertation, JAM version D",TOIL,LEASE,Study2,U,170,143,Test,User,-,,Recall,Recall1,3599,,0,-1,-1,0,0,,,1
5ebd3dae8c3ef3000b5b1b2d,8hsmlhm9lp,Nick_Dissertation_EX1,1,105,2020-10-24T10:24:43-07:00,3.6548538208008,12,versionC_stim.csv,JAMVersionD.csv,"JAM Version D","Dissertation, JAM version D",EAT,DINE,Study2,B,111,156,Test,User,-,,Recall,Recall1,3198,food,25,2483,2971,0,0,,,1
5ebd3dae8c3ef3000b5b1b2d,8hsmlhm9lp,Nick_Dissertation_EX1,1,106,2020-10-24T10:24:47-07:00,3.5051350593567,12,versionC_stim.csv,JAMVersionD.csv,"JAM Version D","Dissertation, JAM version D",MYSTERY,DETECTIVE,Study2,B,100,149,Test,User,-,,Recall,Recall1,3128,detective,100,1304,2700,1,1,,,1
5ebd3dae8c3ef3000b5b1b2d,8hsmlhm9lp,Nick_Dissertation_EX1,1,107,2020-10-24T10:24:52-07:00,5.2919931411743,12,versionC_stim.csv,JAMVersionD.csv,"JAM Version D","Dissertation, JAM version D",CARBON,ELEMENT,Study2,S,141,157,Test,User,-,,Recall,Recall1,4749,element,100,1103,4237,1,1,,,1
5ebd3dae8c3ef3000b5b1b2d,8hsmlhm9lp,Nick_Dissertation_EX1,1,108,2020-10-24T10:24:57-07:00,4.2398219108582,12,versionC_stim.csv,JAMVersionD.csv,"JAM Version D","Dissertation, JAM version D",PANTHER,CAT,Study2,F,126,140,Test,User,-,,Recall,Recall1,3830,cat,100,2541,3217,1,1,,,1
5ebd3dae8c3ef3000b5b1b2d,8hsmlhm9lp,Nick_Dissertation_EX1,1,109,2020-10-24T10:25:00-07:00,3.8512029647827,12,versionC_stim.csv,JAMVersionD.csv,"JAM Version D","Dissertation, JAM version D",CAR,DRIVER,Study2,B,106,155,Test,User,-,,Recall,Recall1,3426,driver,100,1403,3037,1,1,,,1
5ebd3dae8c3ef3000b5b1b2d,8hsmlhm9lp,Nick_Dissertation_EX1,1,110,2020-10-24T10:25:03-07:00,2.9813930988312,12,versionC_stim.csv,JAMVersionD.csv,"JAM Version D","Dissertation, JAM version D",TIE,SHOELACE,Study2,B,99,154,Test,User,-,,Recall,Recall1,2514,lace,66.666666666667,1919,2387,0,0,,,1
5ebd3dae8c3ef3000b5b1b2d,8hsmlhm9lp,Nick_Dissertation_EX1,1,111,2020-10-24T10:25:07-07:00,3.3159499168396,12,versionC_stim.csv,JAMVersionD.csv,"JAM Version D","Dissertation, JAM version D",CHILDREN,MIRROR,Study2,U,174,159,Test,User,-,,Recall,Recall1,2816,,0,-1,-1,0,0,,,1
5ebd3dae8c3ef3000b5b1b2d,8hsmlhm9lp,Nick_Dissertation_EX1,1,112,2020-10-24T10:25:10-07:00,3.2709889411926,12,versionC_stim.csv,JAMVersionD.csv,"JAM Version D","Dissertation, JAM version D",HATE,NAME,Study2,U,167,139,Test,User,-,,Recall,Recall1,2878,name,100,2220,2479,1,1,,,1
5ebd3dae8c3ef3000b5b1b2d,8hsmlhm9lp,Nick_Dissertation_EX1,1,113,2020-10-24T10:25:12-07:00,2.3528900146484,12,versionC_stim.csv,JAMVersionD.csv,"JAM Version D","Dissertation, JAM version D",WET,DRY,Study2,S,146,164,Test,User,-,,Recall,Recall1,1968,dry,100,1293,1654,1,1,,,1
5ebd3dae8c3ef3000b5b1b2d,8hsmlhm9lp,Nick_Dissertation_EX1,1,114,2020-10-24T10:25:16-07:00,3.2854750156403,12,versionC_stim.csv,JAMVersionD.csv,"JAM Version D","Dissertation, JAM version D",GROUND,EARTH,Study2,S,144,138,Test,User,-,,Recall,Recall1,2841,earth,100,1141,2474,1,1,,,1
5ebd3dae8c3ef3000b5b1b2d,8hsmlhm9lp,Nick_Dissertation_EX1,1,115,2020-10-24T10:25:18-07:00,2.3651609420776,12,versionC_stim.csv,JAMVersionD.csv,"JAM Version D","Dissertation, JAM version D",BRAWL,FIGHT,Study2,F,135,126,Test,User,-,,Recall,Recall1,1917,fight,100,1082,1523,1,1,,,1
5ebd3dae8c3ef3000b5b1b2d,8hsmlhm9lp,Nick_Dissertation_EX1,1,116,2020-10-24T10:25:21-07:00,2.7026481628418,12,versionC_stim.csv,JAMVersionD.csv,"JAM Version D","Dissertation, JAM version D",WAX,CANDLE,Study2,S,139,122,Test,User,-,,Recall,Recall1,2281,candle,100,1163,1789,1,1,,,1
5ebd3dae8c3ef3000b5b1b2d,8hsmlhm9lp,Nick_Dissertation_EX1,1,117,2020-10-24T10:25:25-07:00,4.4089870452881,12,versionC_stim.csv,JAMVersionD.csv,"JAM Version D","Dissertation, JAM version D",LEAGUE,BASEBALL,Study2,F,131,120,Test,User,-,,Recall,Recall1,4016,baseball,100,2677,3595,1,1,,,1
5ebd3dae8c3ef3000b5b1b2d,8hsmlhm9lp,Nick_Dissertation_EX1,1,118,2020-10-24T10:25:29-07:00,3.8894739151001,12,versionC_stim.csv,JAMVersionD.csv,"JAM Version D","Dissertation, JAM version D",FICTION,LISTEN,Study2,U,164,171,Test,User,-,,Recall,Recall1,2445,reader,16.666666666667,1434,2332,0,0,,,1
5ebd3dae8c3ef3000b5b1b2d,8hsmlhm9lp,Nick_Dissertation_EX1,1,119,2020-10-24T10:25:32-07:00,3.1751160621643,12,versionC_stim.csv,JAMVersionD.csv,"JAM Version D","Dissertation, JAM version D",BRACELET,WRIST,Study2,S,140,174,Test,User,-,,Recall,Recall1,2734,wrist,100,1680,2190,1,1,,,1
5ebd3dae8c3ef3000b5b1b2d,8hsmlhm9lp,Nick_Dissertation_EX1,1,120,2020-10-24T10:25:35-07:00,3.270968914032,12,versionC_stim.csv,JAMVersionD.csv,"JAM Version D","Dissertation, JAM version D",COLD,CHILL,Study2,B,114,110,Test,User,-,,Recall,Recall1,2852,,0,-1,-1,0,0,,,1
5ebd3dae8c3ef3000b5b1b2d,8hsmlhm9lp,Nick_Dissertation_EX1,1,121,2020-10-24T10:25:37-07:00,1.9272530078888,12,versionC_stim.csv,JAMVersionD.csv,"JAM Version D","Dissertation, JAM version D",SIGN,LOAN,Study2,U,171,168,Test,User,-,,Recall,Recall1,1273,,0,-1,-1,0,0,,,1
5ebd3dae8c3ef3000b5b1b2d,8hsmlhm9lp,Nick_Dissertation_EX1,1,122,2020-10-24T10:25:43-07:00,5.4552788734436,12,versionC_stim.csv,JAMVersionD.csv,"JAM Version D","Dissertation, JAM version D",REVENGE,EVEN,Study2,F,122,106,Test,User,-,,Recall,Recall1,4997,even,100,1693,4392,1,1,,,1
5ebd3dae8c3ef3000b5b1b2d,8hsmlhm9lp,Nick_Dissertation_EX1,1,123,2020-10-24T10:25:48-07:00,5.3585660457611,12,versionC_stim.csv,JAMVersionD.csv,"JAM Version D","Dissertation, JAM version D",END,ADJOURN,Study2,B,101,127,Test,User,-,,Recall,Recall1,4956,start,33.333333333333,3763,4433,0,0,,,1
5ebd3dae8c3ef3000b5b1b2d,8hsmlhm9lp,Nick_Dissertation_EX1,1,124,2020-10-24T10:25:50-07:00,1.7135369777679,12,versionC_stim.csv,JAMVersionD.csv,"JAM Version D","Dissertation, JAM version D",RED,CHERRY,Study2,B,104,113,Test,User,-,,Recall,Recall1,1281,,0,-1,-1,0,0,,,1
5ebd3dae8c3ef3000b5b1b2d,8hsmlhm9lp,Nick_Dissertation_EX1,1,125,2020-10-24T10:25:54-07:00,3.7154700756073,12,versionC_stim.csv,JAMVersionD.csv,"JAM Version D","Dissertation, JAM version D",COFFIN,DEAD,Study2,F,128,132,Test,User,-,,Recall,Recall1,3324,death,66.666666666667,941,2863,0,0,,,1
5ebd3dae8c3ef3000b5b1b2d,8hsmlhm9lp,Nick_Dissertation_EX1,1,126,2020-10-24T10:25:58-07:00,4.7588429450989,12,versionC_stim.csv,JAMVersionD.csv,"JAM Version D","Dissertation, JAM version D",FAVORITE,BEST,Study2,F,125,153,Test,User,-,,Recall,Recall1,4323,best,100,1457,3888,1,1,,,1
5ebd3dae8c3ef3000b5b1b2d,8hsmlhm9lp,Nick_Dissertation_EX1,1,127,2020-10-24T10:26:01-07:00,3.0304820537567,12,versionC_stim.csv,JAMVersionD.csv,"JAM Version D","Dissertation, JAM version D",ELECTION,MAZE,Study2,U,159,161,Test,User,-,,Recall,Recall1,2568,,0,-1,-1,0,0,,,1
5ebd3dae8c3ef3000b5b1b2d,8hsmlhm9lp,Nick_Dissertation_EX1,1,128,2020-10-24T10:26:03-07:00,1.6915459632874,12,versionC_stim.csv,JAMVersionD.csv,"JAM Version D","Dissertation, JAM version D",GAME,CLUE,Study2,B,97,142,Test,User,-,,Recall,Recall1,1342,,0,-1,-1,0,0,,,1
5ebd3dae8c3ef3000b5b1b2d,8hsmlhm9lp,Nick_Dissertation_EX1,1,129,2020-10-24T10:26:06-07:00,3.1626751422882,12,versionC_stim.csv,JAMVersionD.csv,"JAM Version D","Dissertation, JAM version D",SCISSORS,SHEARS,Study2,B,112,125,Test,User,-,,Recall,Recall1,2729,sharp,72.727272727273,1307,2494,0,0,,,1
5ebd3dae8c3ef3000b5b1b2d,8hsmlhm9lp,Nick_Dissertation_EX1,1,130,2020-10-24T10:26:09-07:00,3.1499049663544,12,versionC_stim.csv,JAMVersionD.csv,"JAM Version D","Dissertation, JAM version D",NAP,SLEEP,Study2,F,134,158,Test,User,-,,Recall,Recall1,2687,sleep,100,906,2436,1,1,,,1
5ebd3dae8c3ef3000b5b1b2d,8hsmlhm9lp,Nick_Dissertation_EX1,1,131,2020-10-24T10:26:14-07:00,4.3740458488464,12,versionC_stim.csv,JAMVersionD.csv,"JAM Version D","Dissertation, JAM version D",BREAKABLE,GLASS,Study2,F,127,115,Test,User,-,,Recall,Recall1,3981,fragile,16.666666666667,2754,3714,0,0,,,1
5ebd3dae8c3ef3000b5b1b2d,8hsmlhm9lp,Nick_Dissertation_EX1,1,132,2020-10-24T10:26:16-07:00,2.014270067215,12,versionC_stim.csv,JAMVersionD.csv,"JAM Version D","Dissertation, JAM version D",SMELL,INCENSE,Study2,B,110,170,Test,User,-,,Recall,Recall1,1617,odor',0,1132,1604,0,0,,,1
5ebd3dae8c3ef3000b5b1b2d,8hsmlhm9lp,Nick_Dissertation_EX1,1,133,2020-10-24T10:26:17-07:00,1.5484230518341,12,versionC_stim.csv,JAMVersionD.csv,"JAM Version D","Dissertation, JAM version D",REEL,ROD,Study2,S,150,141,Test,User,-,,Recall,Recall1,1122,,0,-1,-1,0,0,,,1
5ebd3dae8c3ef3000b5b1b2d,8hsmlhm9lp,Nick_Dissertation_EX1,1,134,2020-10-24T10:26:19-07:00,1.5826380252838,12,versionC_stim.csv,JAMVersionD.csv,"JAM Version D","Dissertation, JAM version D",CLOTH,STRETCH,Study2,U,157,144,Test,User,-,,Recall,Recall1,1205,,0,-1,-1,0,0,,,1
5ebd3dae8c3ef3000b5b1b2d,8hsmlhm9lp,Nick_Dissertation_EX1,1,135,2020-10-24T10:26:23-07:00,3.7188830375671,12,versionC_stim.csv,JAMVersionD.csv,"JAM Version D","Dissertation, JAM version D",OBTAIN,MEAT,Study2,U,161,124,Test,User,-,,Recall,Recall1,3302,have,25,2603,2868,0,0,,,1
5ebd3dae8c3ef3000b5b1b2d,8hsmlhm9lp,Nick_Dissertation_EX1,1,136,2020-10-24T10:26:26-07:00,3.3222799301147,12,versionC_stim.csv,JAMVersionD.csv,"JAM Version D","Dissertation, JAM version D",LOVE,AFFECTION,Study2,B,115,131,Test,User,-,,Recall,Recall1,2931,romantic,35.294117647059,1657,2644,0,0,,,1
5ebd3dae8c3ef3000b5b1b2d,8hsmlhm9lp,Nick_Dissertation_EX1,1,137,2020-10-24T10:26:27-07:00,1.5537281036377,12,versionC_stim.csv,JAMVersionD.csv,"JAM Version D","Dissertation, JAM version D",SHAKE,Shell,Study2,U,163,108,Test,User,-,,Recall,Recall1,1160,,0,-1,-1,0,0,,,1
5ebd3dae8c3ef3000b5b1b2d,8hsmlhm9lp,Nick_Dissertation_EX1,1,138,2020-10-24T10:26:30-07:00,2.9754838943481,12,versionC_stim.csv,JAMVersionD.csv,"JAM Version D","Dissertation, JAM version D",TICK,FLEA,Study2,S,151,121,Test,User,-,,Recall,Recall1,2461,flea,100,1930,2295,1,1,,,1
5ebd3dae8c3ef3000b5b1b2d,8hsmlhm9lp,Nick_Dissertation_EX1,1,139,2020-10-24T10:26:34-07:00,3.3271028995514,12,versionC_stim.csv,JAMVersionD.csv,"JAM Version D","Dissertation, JAM version D",DRINK,WATER,Study2,S,143,104,Test,User,-,,Recall,Recall1,2725,water,100,1219,2625,1,1,,,1
5ebd3dae8c3ef3000b5b1b2d,8hsmlhm9lp,Nick_Dissertation_EX1,1,140,2020-10-24T10:26:38-07:00,3.7918920516968,12,versionC_stim.csv,JAMVersionD.csv,"JAM Version D","Dissertation, JAM version D",LIE,TRUTH,Study2,S,148,148,Test,User,-,,Recall,Recall1,3407,,0,-1,-1,0,0,,,1
5ebd3dae8c3ef3000b5b1b2d,8hsmlhm9lp,Nick_Dissertation_EX1,1,141,2020-10-24T10:26:39-07:00,1.6694071292877,12,versionC_stim.csv,JAMVersionD.csv,"JAM Version D","Dissertation, JAM version D",STEAK,GIVE,Study2,U,158,167,Test,User,-,,Recall,Recall1,1163,,0,-1,-1,0,0,,,1
5ebd3dae8c3ef3000b5b1b2d,8hsmlhm9lp,Nick_Dissertation_EX1,1,142,2020-10-24T10:26:41-07:00,1.684770822525,12,versionC_stim.csv,JAMVersionD.csv,"JAM Version D","Dissertation, JAM version D",MAROON,JUSTICE,Study2,U,156,162,Test,User,-,,Recall,Recall1,1283,,0,-1,-1,0,0,,,1
5ebd3dae8c3ef3000b5b1b2d,8hsmlhm9lp,Nick_Dissertation_EX1,1,143,2020-10-24T10:26:44-07:00,2.7353341579437,12,versionC_stim.csv,JAMVersionD.csv,"JAM Version D","Dissertation, JAM version D",NOISE,LOUD,Study2,S,152,146,Test,User,-,,Recall,Recall1,2283,loud,100,1035,1883,1,1,,,1
5ebd3dae8c3ef3000b5b1b2d,8hsmlhm9lp,Nick_Dissertation_EX1,1,144,2020-10-24T10:26:46-07:00,2.3409819602966,12,versionC_stim.csv,JAMVersionD.csv,"JAM Version D","Dissertation, JAM version D",AWAY,GONE,Study2,S,142,101,Test,User,-,,Recall,Recall1,1861,gone,100,1237,1574,1,1,,,1
5ebd3dae8c3ef3000b5b1b2d,8hsmlhm9lp,Nick_Dissertation_EX1,1,145,2020-10-24T10:26:49-07:00,2.8280439376831,12,versionC_stim.csv,JAMVersionD.csv,"JAM Version D","Dissertation, JAM version D",SEATBELT,SAFETY,Study2,S,147,123,Test,User,-,,Recall,Recall1,2250,safety,100,962,1698,1,1,,,1
5ebd3dae8c3ef3000b5b1b2d,8hsmlhm9lp,Nick_Dissertation_EX1,1,146,2020-10-24T10:26:53-07:00,4.4423589706421,12,versionC_stim.csv,JAMVersionD.csv,"JAM Version D","Dissertation, JAM version D",OUNCE,BOTH,Study2,U,172,173,Test,User,-,,Recall,Recall1,3961,both,100,1078,3626,1,1,,,1
5ebd3dae8c3ef3000b5b1b2d,8hsmlhm9lp,Nick_Dissertation_EX1,1,147,2020-10-24T10:26:56-07:00,2.9051141738892,12,versionC_stim.csv,JAMVersionD.csv,"JAM Version D","Dissertation, JAM version D",WINDSHIELD,CAR,Study2,F,117,99,Test,User,-,,Recall,Recall1,2448,car,100,1642,1885,1,1,,,1
5ebd3dae8c3ef3000b5b1b2d,8hsmlhm9lp,Nick_Dissertation_EX1,1,148,2020-10-24T10:26:58-07:00,1.8578588962555,12,versionC_stim.csv,JAMVersionD.csv,"JAM Version D","Dissertation, JAM version D",SHAVE,RAZOR,Study2,S,136,111,Test,User,-,,Recall,Recall1,1463,,0,-1,-1,0,0,,,1
5ebd3dae8c3ef3000b5b1b2d,8hsmlhm9lp,Nick_Dissertation_EX1,1,149,2020-10-24T10:27:01-07:00,3.3877320289612,12,versionC_stim.csv,JAMVersionD.csv,"JAM Version D","Dissertation, JAM version D",EQUAL,RIGHTS,Study2,S,137,166,Test,User,-,,Recall,Recall1,2934,both,20,1742,2349,0,0,,,1
5ebd3dae8c3ef3000b5b1b2d,8hsmlhm9lp,Nick_Dissertation_EX1,1,150,2020-10-24T10:27:03-07:00,1.5257308483124,12,versionC_stim.csv,JAMVersionD.csv,"JAM Version D","Dissertation, JAM version D",ABLE,CRACKLE,Study2,U,162,97,Test,User,-,,Recall,Recall1,1126,,0,-1,-1,0,0,,,1
5ebd3dae8c3ef3000b5b1b2d,8hsmlhm9lp,Nick_Dissertation_EX1,1,151,2020-10-24T10:27:08-07:00,5.4308540821075,12,versionC_stim.csv,JAMVersionD.csv,"JAM Version D","Dissertation, JAM version D",LONG,EXTENSION,Study2,B,96,130,Test,User,-,,Recall,Recall1,4907,extension,100,1164,4426,1,1,,,1
5ebd3dae8c3ef3000b5b1b2d,8hsmlhm9lp,Nick_Dissertation_EX1,1,152,2020-10-24T10:27:11-07:00,2.313050031662,12,versionC_stim.csv,JAMVersionD.csv,"JAM Version D","Dissertation, JAM version D",DOG,FURRY,Study2,B,102,117,Test,User,-,,Recall,Recall1,1912,cat,0,1203,1421,0,0,,,1
5ebd3dae8c3ef3000b5b1b2d,8hsmlhm9lp,Nick_Dissertation_EX1,1,153,2020-10-24T10:27:13-07:00,2.4331738948822,12,versionC_stim.csv,JAMVersionD.csv,"JAM Version D","Dissertation, JAM version D",CLEAR,MOAT,Study2,U,169,109,Test,User,-,,Recall,Recall1,2037,,0,-1,-1,0,0,,,1
5ebd3dae8c3ef3000b5b1b2d,8hsmlhm9lp,Nick_Dissertation_EX1,1,154,2020-10-24T10:27:16-07:00,2.978991985321,12,versionC_stim.csv,JAMVersionD.csv,"JAM Version D","Dissertation, JAM version D",BANKER,MONEY,Study2,F,132,152,Test,User,-,,Recall,Recall1,2589,money,100,1277,2459,1,1,,,1
5ebd3dae8c3ef3000b5b1b2d,8hsmlhm9lp,Nick_Dissertation_EX1,1,155,2020-10-24T10:27:18-07:00,1.68980717659,12,versionC_stim.csv,JAMVersionD.csv,"JAM Version D","Dissertation, JAM version D",PAPER,DOCUMENT,Study2,B,109,169,Test,User,-,,Recall,Recall1,1198,,0,-1,-1,0,0,,,1
5ebd3dae8c3ef3000b5b1b2d,8hsmlhm9lp,Nick_Dissertation_EX1,1,156,2020-10-24T10:27:21-07:00,3.4880888462067,12,versionC_stim.csv,JAMVersionD.csv,"JAM Version D","Dissertation, JAM version D",HEAD,SCALP,Study2,B,105,172,Test,User,-,,Recall,Recall1,3065,,0,-1,-1,0,0,,,1
5ebd3dae8c3ef3000b5b1b2d,8hsmlhm9lp,Nick_Dissertation_EX1,1,157,2020-10-24T10:27:23-07:00,1.373514175415,12,versionC_stim.csv,JAMVersionD.csv,"JAM Version D","Dissertation, JAM version D",CUT,CHOP,Study2,B,107,175,Test,User,-,,Recall,Recall1,946,,0,-1,-1,0,0,,,1
5ebd3dae8c3ef3000b5b1b2d,8hsmlhm9lp,Nick_Dissertation_EX1,1,158,2020-10-24T10:27:24-07:00,1.3484508991241,12,versionC_stim.csv,JAMVersionD.csv,"JAM Version D","Dissertation, JAM version D",PLANT,CACTUS,Study2,B,98,165,Test,User,-,,Recall,Recall1,846,,0,-1,-1,0,0,,,1
5ebd3dae8c3ef3000b5b1b2d,8hsmlhm9lp,Nick_Dissertation_EX1,1,159,2020-10-24T10:27:26-07:00,2.5030269622803,12,versionC_stim.csv,JAMVersionD.csv,"JAM Version D","Dissertation, JAM version D",BANG,FUZZY,Study2,U,168,103,Test,User,-,,Recall,Recall1,2026,loud,22.222222222222,1194,1633,0,0,,,1
5ebd3dae8c3ef3000b5b1b2d,8hsmlhm9lp,Nick_Dissertation_EX1,1,160,2020-10-24T10:27:31-07:00,4.9196610450745,12,versionC_stim.csv,JAMVersionD.csv,"JAM Version D","Dissertation, JAM version D",FLIP,TURN,Study2,F,116,114,Test,User,-,,Recall,Recall1,4502,turn,100,3774,4079,1,1,,,1
5ebd3dae8c3ef3000b5b1b2d,8hsmlhm9lp,Nick_Dissertation_EX1,1,161,2020-10-24T10:27:34-07:00,2.6081349849701,12,versionC_stim.csv,JAMVersionD.csv,"JAM Version D","Dissertation, JAM version D",JAR,MASON,Study2,S,138,160,Test,User,-,,Recall,Recall1,2203,mason,100,1037,1836,1,1,,,1
5ebd3dae8c3ef3000b5b1b2d,8hsmlhm9lp,Nick_Dissertation_EX1,1,162,2020-10-24T10:27:37-07:00,3.4822330474854,12,versionC_stim.csv,JAMVersionD.csv,"JAM Version D","Dissertation, JAM version D",SARDINE,FISH,Study2,F,130,112,Test,User,-,,Recall,Recall1,3044,fish,100,978,2657,1,1,,,1
5ebd3dae8c3ef3000b5b1b2d,8hsmlhm9lp,Nick_Dissertation_EX1,1,163,2020-10-24T10:27:40-07:00,2.8673849105835,12,versionC_stim.csv,JAMVersionD.csv,"JAM Version D","Dissertation, JAM version D",ACTRESS,STAR,Study2,F,120,105,Test,User,-,,Recall,Recall1,2421,star,100,1061,1911,1,1,,,1
5ebd3dae8c3ef3000b5b1b2d,8hsmlhm9lp,Nick_Dissertation_EX1,1,164,2020-10-24T10:27:43-07:00,2.3074150085449,12,versionC_stim.csv,JAMVersionD.csv,"JAM Version D","Dissertation, JAM version D",BALLOON,POP,Study2,F,123,119,Test,User,-,,Recall,Recall1,1944,pop,100,1358,1632,1,1,,,1
5ebd3dae8c3ef3000b5b1b2d,8hsmlhm9lp,Nick_Dissertation_EX1,1,165,2020-10-24T10:27:46-07:00,3.2536590099335,12,versionC_stim.csv,JAMVersionD.csv,"JAM Version D","Dissertation, JAM version D",AIRCRAFT,PLANE,Study2,F,129,128,Test,User,-,,Recall,Recall1,2844,plane,100,1130,2459,1,1,,,1
5ebd3dae8c3ef3000b5b1b2d,8hsmlhm9lp,Nick_Dissertation_EX1,1,166,2020-10-24T10:27:48-07:00,1.7059950828552,12,versionC_stim.csv,JAMVersionD.csv,"JAM Version D","Dissertation, JAM version D",CHARM,VEHICLE,Study2,U,160,129,Test,User,-,,Recall,Recall1,1239,,0,-1,-1,0,0,,,1
5ebd3dae8c3ef3000b5b1b2d,8hsmlhm9lp,Nick_Dissertation_EX1,1,167,2020-10-24T10:27:52-07:00,4.462907075882,12,versionC_stim.csv,JAMVersionD.csv,"JAM Version D","Dissertation, JAM version D",FIGHT,FEUD,Study2,B,113,118,Test,User,-,,Recall,Recall1,4038,brawl,0,1337,3398,0,0,,,1
5ebd3dae8c3ef3000b5b1b2d,8hsmlhm9lp,Nick_Dissertation_EX1,1,168,2020-10-24T10:27:56-07:00,3.8388938903809,12,versionC_stim.csv,JAMVersionD.csv,"JAM Version D","Dissertation, JAM version D",TRUTHFUL,HONEST,Study2,F,133,145,Test,User,-,,Recall,Recall1,3458,honest,100,1932,3342,1,1,,,1
5ebd3dae8c3ef3000b5b1b2d,8hsmlhm9lp,Nick_Dissertation_EX1,1,169,2020-10-24T10:27:59-07:00,2.8198640346527,12,versionC_stim.csv,JAMVersionD.csv,"JAM Version D","Dissertation, JAM version D",JOKE,KEYS,Study2,U,165,147,Test,User,-,,Recall,Recall1,2353,laugh,0,1466,1945,0,0,,,1
5ebd3dae8c3ef3000b5b1b2d,8hsmlhm9lp,Nick_Dissertation_EX1,1,170,2020-10-24T10:28:00-07:00,1.5375280380249,12,versionC_stim.csv,JAMVersionD.csv,"JAM Version D","Dissertation, JAM version D",HAVE,OWN,Study2,S,153,133,Test,User,-,,Recall,Recall1,1044,,0,-1,-1,0,0,,,1
5ebd3dae8c3ef3000b5b1b2d,8hsmlhm9lp,Nick_Dissertation_EX1,1,171,2020-10-24T10:28:03-07:00,2.3305230140686,12,versionC_stim.csv,JAMVersionD.csv,"JAM Version D","Dissertation, JAM version D",TAN,SUN,Study2,S,155,107,Test,User,-,,Recall,Recall1,1820,sun,100,1105,1403,1,1,,,1
5ebd3dae8c3ef3000b5b1b2d,8hsmlhm9lp,Nick_Dissertation_EX1,1,172,2020-10-24T10:28:04-07:00,1.8686168193817,12,versionC_stim.csv,JAMVersionD.csv,"JAM Version D","Dissertation, JAM version D",THIMBLE,THREAD,Study2,F,121,136,Test,User,-,,Recall,Recall1,1310,,0,-1,-1,0,0,,,1
5ebd3dae8c3ef3000b5b1b2d,8hsmlhm9lp,Nick_Dissertation_EX1,1,173,2020-10-24T10:28:08-07:00,3.6631560325623,12,versionC_stim.csv,JAMVersionD.csv,"JAM Version D","Dissertation, JAM version D",TRASH,LITTER,Study2,B,103,100,Test,User,-,,Recall,Recall1,3152,litter,100,1422,2836,1,1,,,1
5ebd3dae8c3ef3000b5b1b2d,8hsmlhm9lp,Nick_Dissertation_EX1,1,174,2020-10-24T10:28:10-07:00,2.2068181037903,12,versionC_stim.csv,JAMVersionD.csv,"JAM Version D","Dissertation, JAM version D",LONELY,ALONE,Study2,S,145,176,Test,User,-,,Recall,Recall1,1682,alone,100,925,1411,1,1,,,1
5ebd3dae8c3ef3000b5b1b2d,8hsmlhm9lp,Nick_Dissertation_EX1,1,175,2020-10-24T10:28:13-07:00,2.6704919338226,12,versionC_stim.csv,JAMVersionD.csv,"JAM Version D","Dissertation, JAM version D",TEMPER,TANTRUM,Study2,S,154,135,Test,User,-,,Recall,Recall1,2256,rage,18.181818181818,1585,1958,0,0,,,1
5ebd3dae8c3ef3000b5b1b2d,8hsmlhm9lp,Nick_Dissertation_EX1,1,176,2020-10-24T10:28:16-07:00,2.9165661334991,12,versionC_stim.csv,JAMVersionD.csv,"JAM Version D","Dissertation, JAM version D",PENGUIN,BIRD,Study2,F,119,134,Test,User,-,,Recall,Recall1,2450,bird,100,1524,1994,1,1,,,1
5ebd3dae8c3ef3000b5b1b2d,8hsmlhm9lp,Nick_Dissertation_EX1,1,177,2020-10-24T10:28:18-07:00,1.7631669044495,12,versionC_stim.csv,JAMVersionD.csv,"JAM Version D","Dissertation, JAM version D",SCAR,MAIN,Study2,U,175,150,Test,User,-,,Recall,Recall1,1217,,0,-1,-1,0,0,,,1
5ebd3dae8c3ef3000b5b1b2d,8hsmlhm9lp,Nick_Dissertation_EX1,1,178,2020-10-24T10:28:19-07:00,1.6688380241394,12,versionC_stim.csv,JAMVersionD.csv,"JAM Version D","Dissertation, JAM version D",CLOTHES,CAKE,Study2,U,166,163,Test,User,-,,Recall,Recall1,1263,,0,-1,-1,0,0,,,1
5ebd3dae8c3ef3000b5b1b2d,8hsmlhm9lp,Nick_Dissertation_EX1,1,179,2020-10-24T10:29:41-07:00,81.747068881989,12,versionC_stim.csv,JAMVersionD.csv,"JAM Version D","Dissertation, JAM version D",,,,,,0,Instruct,-,10,"You will now be presented with a new set of word pairs. Please study each pair. Remember that your memory will be tested! When finished, press Enter to move to the next pair.",Initial_Instruct,Instruct4,81244,,,-1,-1,,,,,0.283
5ebd3dae8c3ef3000b5b1b2d,8hsmlhm9lp,Nick_Dissertation_EX1,1,180,2020-10-24T10:31:18-07:00,96.878369092941,12,versionC_stim.csv,JAMVersionD.csv,"JAM Version D","Dissertation, JAM version D",,,,,,0,Instruct,-,10,"As you study, you will be asked to rate how often the words in each pair are used together. Assume 100 college students from around the nation gave responses to each CUE (first) word. How many of these 100 students do you think would have given the RESPONSE (second) word?",,Instruct1DASFADF33,96416,,,-1,-1,,,,,0.925
5ebd3dae8c3ef3000b5b1b2d,8hsmlhm9lp,Nick_Dissertation_EX1,1,181,2020-10-24T10:31:30-07:00,12.375112056732,12,versionC_stim.csv,JAMVersionD.csv,"JAM Version D","Dissertation, JAM version D",,,,,,0,Instruct,-,10,"For example, if you are given the pair CAT - DOG, a rating of 0 indicates that DOG is not a commonly given response to the word CAT, while a score of 100 indicates that DOG would be a common response.",,Instruct14ASDFA33322X2,11920,,,-1,-1,,,,,1
5ebd3dae8c3ef3000b5b1b2d,8hsmlhm9lp,Nick_Dissertation_EX1,1,182,2020-10-24T10:31:33-07:00,2.9350328445435,12,versionC_stim.csv,JAMVersionD.csv,"JAM Version D","Dissertation, JAM version D",,,,,,0,Instruct,User,-,"Press Enter when you are readty to begin",,Instruct11,2547,,,-1,-1,,,,,1
5ebd3dae8c3ef3000b5b1b2d,8hsmlhm9lp,Nick_Dissertation_EX1,1,183,2020-10-24T10:31:42-07:00,8.9180240631104,12,versionC_stim.csv,JAMVersionD.csv,"JAM Version D","Dissertation, JAM version D",BUTTER,PEANUT,BUFFER1,Buffer,3,4,JAM,User,-,"How many people out of 100 do you think would respond with the second word if they were only shown the first?|Type your response on a scale from 0-100 and then press Enter.",Study/JOL,BUFFER3,8558,,,7761,7848,,,,40,1
5ebd3dae8c3ef3000b5b1b2d,8hsmlhm9lp,Nick_Dissertation_EX1,1,184,2020-10-24T10:31:47-07:00,4.7453651428223,12,versionC_stim.csv,JAMVersionD.csv,"JAM Version D","Dissertation, JAM version D",JAM,SPACE,BUFFER1,Buffer,5,3,JAM,User,-,"How many people out of 100 do you think would respond with the second word if they were only shown the first?|Type your response on a scale from 0-100 and then press Enter.",Study/JOL,BUFFER3,4280,,,2959,2959,,,,2,1
5ebd3dae8c3ef3000b5b1b2d,8hsmlhm9lp,Nick_Dissertation_EX1,1,185,2020-10-24T10:31:50-07:00,3.019229888916,12,versionC_stim.csv,JAMVersionD.csv,"JAM Version D","Dissertation, JAM version D",HIDE,SCARE,BUFFER1,Buffer,4,6,JAM,User,-,"How many people out of 100 do you think would respond with the second word if they were only shown the first?|Type your response on a scale from 0-100 and then press Enter.",Study/JOL,BUFFER3,2613,,,1955,2088,,,,40,1
5ebd3dae8c3ef3000b5b1b2d,8hsmlhm9lp,Nick_Dissertation_EX1,1,186,2020-10-24T10:31:53-07:00,2.6301069259644,12,versionC_stim.csv,JAMVersionD.csv,"JAM Version D","Dissertation, JAM version D",GREEN,TREES,BUFFER1,Buffer,1,2,JAM,User,-,"How many people out of 100 do you think would respond with the second word if they were only shown the first?|Type your response on a scale from 0-100 and then press Enter.",Study/JOL,BUFFER3,2242,,,1597,1835,,,,78,1
5ebd3dae8c3ef3000b5b1b2d,8hsmlhm9lp,Nick_Dissertation_EX1,1,187,2020-10-24T10:31:56-07:00,2.9869740009308,12,versionC_stim.csv,JAMVersionD.csv,"JAM Version D","Dissertation, JAM version D",CATCHER,BASEBALL,BUFFER1,Buffer,2,5,JAM,User,-,"How many people out of 100 do you think would respond with the second word if they were only shown the first?|Type your response on a scale from 0-100 and then press Enter.",Study/JOL,BUFFER3,2530,,,2119,2260,,,,65,1
5ebd3dae8c3ef3000b5b1b2d,8hsmlhm9lp,Nick_Dissertation_EX1,1,188,2020-10-24T10:32:01-07:00,5.3581161499023,12,versionC_stim.csv,JAMVersionD.csv,"JAM Version D","Dissertation, JAM version D",RACKET,BALL,Study1,F,38,40,JAM,User,-,"How many people out of 100 do you think would respond with the second word if they were only shown the first?|Type your response on a scale from 0-100 and then press Enter.",Study/JOL,"Study Phase2",4986,,,989,4754,,,,63,1
5ebd3dae8c3ef3000b5b1b2d,8hsmlhm9lp,Nick_Dissertation_EX1,1,189,2020-10-24T10:32:03-07:00,2.4181818962097,12,versionC_stim.csv,JAMVersionD.csv,"JAM Version D","Dissertation, JAM version D",CHILI,HOT,Study1,F,37,66,JAM,User,-,"How many people out of 100 do you think would respond with the second word if they were only shown the first?|Type your response on a scale from 0-100 and then press Enter.",Study/JOL,"Study Phase2",1990,,,1561,1719,,,,90,1
5ebd3dae8c3ef3000b5b1b2d,8hsmlhm9lp,Nick_Dissertation_EX1,1,190,2020-10-24T10:32:06-07:00,2.451966047287,12,versionC_stim.csv,JAMVersionD.csv,"JAM Version D","Dissertation, JAM version D",CAR,HAPPY,Study1,U,77,25,JAM,User,-,"How many people out of 100 do you think would respond with the second word if they were only shown the first?|Type your response on a scale from 0-100 and then press Enter.",Study/JOL,"Study Phase2",2045,,,1540,1719,,,,54,1
5ebd3dae8c3ef3000b5b1b2d,8hsmlhm9lp,Nick_Dissertation_EX1,1,191,2020-10-24T10:32:08-07:00,2.6411120891571,12,versionC_stim.csv,JAMVersionD.csv,"JAM Version D","Dissertation, JAM version D",END,BEGIN,Study1,S,54,31,JAM,User,-,"How many people out of 100 do you think would respond with the second word if they were only shown the first?|Type your response on a scale from 0-100 and then press Enter.",Study/JOL,"Study Phase2",2242,,,1130,1343,,,,89,1
5ebd3dae8c3ef3000b5b1b2d,8hsmlhm9lp,Nick_Dissertation_EX1,1,192,2020-10-24T10:32:12-07:00,3.3238248825073,12,versionC_stim.csv,JAMVersionD.csv,"JAM Version D","Dissertation, JAM version D",SALAD,LETTUCE,Study1,S,59,76,JAM,User,-,"How many people out of 100 do you think would respond with the second word if they were only shown the first?|Type your response on a scale from 0-100 and then press Enter.",Study/JOL,"Study Phase2",2873,,,1635,2407,,,,70,1
5ebd3dae8c3ef3000b5b1b2d,8hsmlhm9lp,Nick_Dissertation_EX1,1,193,2020-10-24T10:32:14-07:00,2.6109430789948,12,versionC_stim.csv,JAMVersionD.csv,"JAM Version D","Dissertation, JAM version D",CARD,CREDIT,Study1,B,23,20,JAM,User,-,"How many people out of 100 do you think would respond with the second word if they were only shown the first?|Type your response on a scale from 0-100 and then press Enter.",Study/JOL,"Study Phase2",2114,,,1683,1855,,,,90,1
5ebd3dae8c3ef3000b5b1b2d,8hsmlhm9lp,Nick_Dissertation_EX1,1,194,2020-10-24T10:32:17-07:00,2.9985399246216,12,versionC_stim.csv,JAMVersionD.csv,"JAM Version D","Dissertation, JAM version D",ADD,VALLEY,Study1,U,82,22,JAM,User,-,"How many people out of 100 do you think would respond with the second word if they were only shown the first?|Type your response on a scale from 0-100 and then press Enter.",Study/JOL,"Study Phase2",2519,,,1546,1787,,,,48,1
5ebd3dae8c3ef3000b5b1b2d,8hsmlhm9lp,Nick_Dissertation_EX1,1,195,2020-10-24T10:32:21-07:00,3.4328360557556,12,versionC_stim.csv,JAMVersionD.csv,"JAM Version D","Dissertation, JAM version D",VASE,KING,Study1,U,85,29,JAM,User,-,"How many people out of 100 do you think would respond with the second word if they were only shown the first?|Type your response on a scale from 0-100 and then press Enter.",Study/JOL,"Study Phase2",3048,,,2266,2936,,,,21,1
5ebd3dae8c3ef3000b5b1b2d,8hsmlhm9lp,Nick_Dissertation_EX1,1,196,2020-10-24T10:32:23-07:00,2.3985638618469,12,versionC_stim.csv,JAMVersionD.csv,"JAM Version D","Dissertation, JAM version D",SITE,LOCATION,Study1,S,48,11,JAM,User,-,"How many people out of 100 do you think would respond with the second word if they were only shown the first?|Type your response on a scale from 0-100 and then press Enter.",Study/JOL,"Study Phase2",1928,,,1384,1593,,,,80,1
5ebd3dae8c3ef3000b5b1b2d,8hsmlhm9lp,Nick_Dissertation_EX1,1,197,2020-10-24T10:35:37-07:00,193.41142416,12,versionC_stim.csv,JAMVersionD.csv,"JAM Version D","Dissertation, JAM version D",ACCIDENT,STRONG,Study1,U,80,47,JAM,User,-,"How many people out of 100 do you think would respond with the second word if they were only shown the first?|Type your response on a scale from 0-100 and then press Enter.",Study/JOL,"Study Phase2",192914,,,191647,191985,,,,32,1
5ebd3dae8c3ef3000b5b1b2d,8hsmlhm9lp,Nick_Dissertation_EX1,1,198,2020-10-24T10:35:41-07:00,4.1066389083862,12,versionC_stim.csv,JAMVersionD.csv,"JAM Version D","Dissertation, JAM version D",DIVISION,MATH,Study1,F,33,50,JAM,User,-,"How many people out of 100 do you think would respond with the second word if they were only shown the first?|Type your response on a scale from 0-100 and then press Enter.",Study/JOL,"Study Phase2",3579,,,2674,3089,,,,98,1
5ebd3dae8c3ef3000b5b1b2d,8hsmlhm9lp,Nick_Dissertation_EX1,1,199,2020-10-24T10:35:45-07:00,4.4260609149933,12,versionC_stim.csv,JAMVersionD.csv,"JAM Version D","Dissertation, JAM version D",AMOUNT,NUMBER,Study1,S,47,61,JAM,User,-,"How many people out of 100 do you think would respond with the second word if they were only shown the first?|Type your response on a scale from 0-100 and then press Enter.",Study/JOL,"Study Phase2",3981,,,2430,3273,,,,79,1
5ebd3dae8c3ef3000b5b1b2d,8hsmlhm9lp,Nick_Dissertation_EX1,1,200,2020-10-24T10:35:50-07:00,4.7878420352936,12,versionC_stim.csv,JAMVersionD.csv,"JAM Version D","Dissertation, JAM version D",RIDDLE,SUGAR,Study1,U,81,72,JAM,User,-,"How many people out of 100 do you think would respond with the second word if they were only shown the first?|Type your response on a scale from 0-100 and then press Enter.",Study/JOL,"Study Phase2",4392,,,2332,2332,,,,4,1
5ebd3dae8c3ef3000b5b1b2d,8hsmlhm9lp,Nick_Dissertation_EX1,1,201,2020-10-24T10:35:57-07:00,7.3801290988922,12,versionC_stim.csv,JAMVersionD.csv,"JAM Version D","Dissertation, JAM version D",CLUTTER,PUSHER,Study1,U,66,35,JAM,User,-,"How many people out of 100 do you think would respond with the second word if they were only shown the first?|Type your response on a scale from 0-100 and then press Enter.",Study/JOL,"Study Phase2",6889,,,5594,6184,,,,14,1
5ebd3dae8c3ef3000b5b1b2d,8hsmlhm9lp,Nick_Dissertation_EX1,1,202,2020-10-24T10:36:01-07:00,3.9419648647308,12,versionC_stim.csv,JAMVersionD.csv,"JAM Version D","Dissertation, JAM version D",ENOUGH,FULL,Study1,F,26,23,JAM,User,-,"How many people out of 100 do you think would respond with the second word if they were only shown the first?|Type your response on a scale from 0-100 and then press Enter.",Study/JOL,"Study Phase2",3547,,,2683,2930,,,,88,1
5ebd3dae8c3ef3000b5b1b2d,8hsmlhm9lp,Nick_Dissertation_EX1,1,203,2020-10-24T10:36:04-07:00,2.8195431232452,12,versionC_stim.csv,JAMVersionD.csv,"JAM Version D","Dissertation, JAM version D",ROCK,GEOLOGY,Study1,B,19,57,JAM,User,-,"How many people out of 100 do you think would respond with the second word if they were only shown the first?|Type your response on a scale from 0-100 and then press Enter.",Study/JOL,"Study Phase2",2311,,,1650,1820,,,,90,1
5ebd3dae8c3ef3000b5b1b2d,8hsmlhm9lp,Nick_Dissertation_EX1,1,204,2020-10-24T10:36:09-07:00,4.8426880836487,12,versionC_stim.csv,JAMVersionD.csv,"JAM Version D","Dissertation, JAM version D",SEIZE,TAKE,Study1,F,29,32,JAM,User,-,"How many people out of 100 do you think would respond with the second word if they were only shown the first?|Type your response on a scale from 0-100 and then press Enter.",Study/JOL,"Study Phase2",4453,,,1418,3932,,,,96,1
5ebd3dae8c3ef3000b5b1b2d,8hsmlhm9lp,Nick_Dissertation_EX1,1,205,2020-10-24T10:36:13-07:00,3.5957608222961,12,versionC_stim.csv,JAMVersionD.csv,"JAM Version D","Dissertation, JAM version D",JURY,TRIAL,Study1,S,50,30,JAM,User,-,"How many people out of 100 do you think would respond with the second word if they were only shown the first?|Type your response on a scale from 0-100 and then press Enter.",Study/JOL,"Study Phase2",3167,,,2078,2713,,,,97,1
5ebd3dae8c3ef3000b5b1b2d,8hsmlhm9lp,Nick_Dissertation_EX1,1,206,2020-10-24T10:36:16-07:00,3.6585960388184,12,versionC_stim.csv,JAMVersionD.csv,"JAM Version D","Dissertation, JAM version D",OUT,WAY,Study1,B,16,37,JAM,User,-,"How many people out of 100 do you think would respond with the second word if they were only shown the first?|Type your response on a scale from 0-100 and then press Enter.",Study/JOL,"Study Phase2",3148,,,2100,2347,,,,54,1
5ebd3dae8c3ef3000b5b1b2d,8hsmlhm9lp,Nick_Dissertation_EX1,1,207,2020-10-24T10:36:19-07:00,2.5932230949402,12,versionC_stim.csv,JAMVersionD.csv,"JAM Version D","Dissertation, JAM version D",ASSIGNMENT,DUE,Study1,S,46,80,JAM,User,-,"How many people out of 100 do you think would respond with the second word if they were only shown the first?|Type your response on a scale from 0-100 and then press Enter.",Study/JOL,"Study Phase2",2119,,,1482,1584,,,,99,1
5ebd3dae8c3ef3000b5b1b2d,8hsmlhm9lp,Nick_Dissertation_EX1,1,208,2020-10-24T10:36:24-07:00,4.7901968955994,12,versionC_stim.csv,JAMVersionD.csv,"JAM Version D","Dissertation, JAM version D",HAND,FIX,Study1,U,75,33,JAM,User,-,"How many people out of 100 do you think would respond with the second word if they were only shown the first?|Type your response on a scale from 0-100 and then press Enter.",Study/JOL,"Study Phase2",4301,,,2410,3830,,,,75,1
5ebd3dae8c3ef3000b5b1b2d,8hsmlhm9lp,Nick_Dissertation_EX1,1,209,2020-10-24T10:36:26-07:00,2.5898580551147,12,versionC_stim.csv,JAMVersionD.csv,"JAM Version D","Dissertation, JAM version D",TOILET,BATHROOM,Study1,S,58,60,JAM,User,-,"How many people out of 100 do you think would respond with the second word if they were only shown the first?|Type your response on a scale from 0-100 and then press Enter.",Study/JOL,"Study Phase2",2205,,,1529,1703,,,,90,1
5ebd3dae8c3ef3000b5b1b2d,8hsmlhm9lp,Nick_Dissertation_EX1,1,210,2020-10-24T10:36:31-07:00,4.322016954422,12,versionC_stim.csv,JAMVersionD.csv,"JAM Version D","Dissertation, JAM version D",SICK,HIDE,Study1,U,84,43,JAM,User,-,"How many people out of 100 do you think would respond with the second word if they were only shown the first?|Type your response on a scale from 0-100 and then press Enter.",Study/JOL,"Study Phase2",3928,,,3306,3448,,,,43,1
5ebd3dae8c3ef3000b5b1b2d,8hsmlhm9lp,Nick_Dissertation_EX1,1,211,2020-10-24T10:36:35-07:00,4.56334400177,12,versionC_stim.csv,JAMVersionD.csv,"JAM Version D","Dissertation, JAM version D",BRONZE,ARTERY,Study1,U,74,74,JAM,User,-,"How many people out of 100 do you think would respond with the second word if they were only shown the first?|Type your response on a scale from 0-100 and then press Enter.",Study/JOL,"Study Phase2",4090,,,3303,3480,,,,65,1
5ebd3dae8c3ef3000b5b1b2d,8hsmlhm9lp,Nick_Dissertation_EX1,1,212,2020-10-24T10:36:40-07:00,4.8479089736938,12,versionC_stim.csv,JAMVersionD.csv,"JAM Version D","Dissertation, JAM version D",BUSINESS,DEATH,Study1,U,72,52,JAM,User,-,"How many people out of 100 do you think would respond with the second word if they were only shown the first?|Type your response on a scale from 0-100 and then press Enter.",Study/JOL,"Study Phase2",4399,,,2662,3894,,,,76,1
5ebd3dae8c3ef3000b5b1b2d,8hsmlhm9lp,Nick_Dissertation_EX1,1,213,2020-10-24T10:36:46-07:00,5.9646461009979,12,versionC_stim.csv,JAMVersionD.csv,"JAM Version D","Dissertation, JAM version D",HUNGRY,PARK,Study1,U,68,82,JAM,User,-,"How many people out of 100 do you think would respond with the second word if they were only shown the first?|Type your response on a scale from 0-100 and then press Enter.",Study/JOL,"Study Phase2",5487,,,2539,5005,,,,24,1
5ebd3dae8c3ef3000b5b1b2d,8hsmlhm9lp,Nick_Dissertation_EX1,1,214,2020-10-24T10:36:48-07:00,2.3010518550873,12,versionC_stim.csv,JAMVersionD.csv,"JAM Version D","Dissertation, JAM version D",FAMINE,HUNGER,Study1,F,40,81,JAM,User,-,"How many people out of 100 do you think would respond with the second word if they were only shown the first?|Type your response on a scale from 0-100 and then press Enter.",Study/JOL,"Study Phase2",1929,,,1363,1539,,,,90,1
5ebd3dae8c3ef3000b5b1b2d,8hsmlhm9lp,Nick_Dissertation_EX1,1,215,2020-10-24T10:36:52-07:00,4.2033841609955,12,versionC_stim.csv,JAMVersionD.csv,"JAM Version D","Dissertation, JAM version D",LION,ART,Study1,U,79,62,JAM,User,-,"How many people out of 100 do you think would respond with the second word if they were only shown the first?|Type your response on a scale from 0-100 and then press Enter.",Study/JOL,"Study Phase2",3778,,,2149,3138,,,,46,1
5ebd3dae8c3ef3000b5b1b2d,8hsmlhm9lp,Nick_Dissertation_EX1,1,216,2020-10-24T10:36:55-07:00,2.7629330158234,12,versionC_stim.csv,JAMVersionD.csv,"JAM Version D","Dissertation, JAM version D",CAVE,DARK,Study1,F,28,27,JAM,User,-,"How many people out of 100 do you think would respond with the second word if they were only shown the first?|Type your response on a scale from 0-100 and then press Enter.",Study/JOL,"Study Phase2",2221,,,1606,1790,,,,90,1
5ebd3dae8c3ef3000b5b1b2d,8hsmlhm9lp,Nick_Dissertation_EX1,1,217,2020-10-24T10:37:00-07:00,5.0146849155426,12,versionC_stim.csv,JAMVersionD.csv,"JAM Version D","Dissertation, JAM version D",CHEESE,WINE,Study1,S,57,28,JAM,User,-,"How many people out of 100 do you think would respond with the second word if they were only shown the first?|Type your response on a scale from 0-100 and then press Enter.",Study/JOL,"Study Phase2",4630,,,2161,3969,,,,72,1
5ebd3dae8c3ef3000b5b1b2d,8hsmlhm9lp,Nick_Dissertation_EX1,1,218,2020-10-24T10:37:04-07:00,3.7456459999084,12,versionC_stim.csv,JAMVersionD.csv,"JAM Version D","Dissertation, JAM version D",WASP,BUG,Study1,F,32,77,JAM,User,-,"How many people out of 100 do you think would respond with the second word if they were only shown the first?|Type your response on a scale from 0-100 and then press Enter.",Study/JOL,"Study Phase2",3323,,,2235,2913,,,,80,1
5ebd3dae8c3ef3000b5b1b2d,8hsmlhm9lp,Nick_Dissertation_EX1,1,219,2020-10-24T10:37:07-07:00,3.0605669021606,12,versionC_stim.csv,JAMVersionD.csv,"JAM Version D","Dissertation, JAM version D",POSITION,MACHINE,Study1,U,76,45,JAM,User,-,"How many people out of 100 do you think would respond with the second word if they were only shown the first?|Type your response on a scale from 0-100 and then press Enter.",Study/JOL,"Study Phase2",2554,,,1717,2057,,,,40,1
5ebd3dae8c3ef3000b5b1b2d,8hsmlhm9lp,Nick_Dissertation_EX1,1,220,2020-10-24T10:37:11-07:00,4.1541430950165,12,versionC_stim.csv,JAMVersionD.csv,"JAM Version D","Dissertation, JAM version D",PILOT,PLANE,Study1,F,44,79,JAM,User,-,"How many people out of 100 do you think would respond with the second word if they were only shown the first?|Type your response on a scale from 0-100 and then press Enter.",Study/JOL,"Study Phase2",3734,,,1764,3385,,,,80,1
5ebd3dae8c3ef3000b5b1b2d,8hsmlhm9lp,Nick_Dissertation_EX1,1,221,2020-10-24T10:37:19-07:00,8.3581399917603,12,versionC_stim.csv,JAMVersionD.csv,"JAM Version D","Dissertation, JAM version D",FISH,TUNA,Study1,B,25,51,JAM,User,-,"How many people out of 100 do you think would respond with the second word if they were only shown the first?|Type your response on a scale from 0-100 and then press Enter.",Study/JOL,"Study Phase2",7886,,,1501,7564,,,,53,1
5ebd3dae8c3ef3000b5b1b2d,8hsmlhm9lp,Nick_Dissertation_EX1,1,222,2020-10-24T10:37:24-07:00,4.0151739120483,12,versionC_stim.csv,JAMVersionD.csv,"JAM Version D","Dissertation, JAM version D",BIRD,SWAN,Study1,B,14,26,JAM,User,-,"How many people out of 100 do you think would respond with the second word if they were only shown the first?|Type your response on a scale from 0-100 and then press Enter.",Study/JOL,"Study Phase2",3490,,,2498,3058,,,,69,1
5ebd3dae8c3ef3000b5b1b2d,8hsmlhm9lp,Nick_Dissertation_EX1,1,223,2020-10-24T10:37:26-07:00,2.2677330970764,12,versionC_stim.csv,JAMVersionD.csv,"JAM Version D","Dissertation, JAM version D",STENCH,SMELL,Study1,F,42,64,JAM,User,-,"How many people out of 100 do you think would respond with the second word if they were only shown the first?|Type your response on a scale from 0-100 and then press Enter.",Study/JOL,"Study Phase2",1818,,,1360,1515,,,,90,1
5ebd3dae8c3ef3000b5b1b2d,8hsmlhm9lp,Nick_Dissertation_EX1,1,224,2020-10-24T10:37:32-07:00,6.3081719875336,12,versionC_stim.csv,JAMVersionD.csv,"JAM Version D","Dissertation, JAM version D",LIVER,KIDNEY,Study1,S,53,14,JAM,User,-,"How many people out of 100 do you think would respond with the second word if they were only shown the first?|Type your response on a scale from 0-100 and then press Enter.",Study/JOL,"Study Phase2",5764,,,4861,5574,,,,72,1
5ebd3dae8c3ef3000b5b1b2d,8hsmlhm9lp,Nick_Dissertation_EX1,1,225,2020-10-24T10:37:35-07:00,2.7637541294098,12,versionC_stim.csv,JAMVersionD.csv,"JAM Version D","Dissertation, JAM version D",WATER,BRIDGE,Study1,B,18,69,JAM,User,-,"How many people out of 100 do you think would respond with the second word if they were only shown the first?|Type your response on a scale from 0-100 and then press Enter.",Study/JOL,"Study Phase2",2296,,,1489,1727,,,,80,1
5ebd3dae8c3ef3000b5b1b2d,8hsmlhm9lp,Nick_Dissertation_EX1,1,226,2020-10-24T10:37:41-07:00,6.0017869472504,12,versionC_stim.csv,JAMVersionD.csv,"JAM Version D","Dissertation, JAM version D",WOMAN,LIFT,Study1,U,69,70,JAM,User,-,"How many people out of 100 do you think would respond with the second word if they were only shown the first?|Type your response on a scale from 0-100 and then press Enter.",Study/JOL,"Study Phase2",5533,,,4470,4470,,,,2,1
5ebd3dae8c3ef3000b5b1b2d,8hsmlhm9lp,Nick_Dissertation_EX1,1,227,2020-10-24T10:37:44-07:00,3.5976140499115,12,versionC_stim.csv,JAMVersionD.csv,"JAM Version D","Dissertation, JAM version D",COW,HERD,Study1,B,22,9,JAM,User,-,"How many people out of 100 do you think would respond with the second word if they were only shown the first?|Type your response on a scale from 0-100 and then press Enter.",Study/JOL,"Study Phase2",3123,,,2668,2840,,,,53,1
5ebd3dae8c3ef3000b5b1b2d,8hsmlhm9lp,Nick_Dissertation_EX1,1,228,2020-10-24T10:37:47-07:00,2.284197807312,12,versionC_stim.csv,JAMVersionD.csv,"JAM Version D","Dissertation, JAM version D",BAD,DELINQUENT,Study1,B,6,55,JAM,User,-,"How many people out of 100 do you think would respond with the second word if they were only shown the first?|Type your response on a scale from 0-100 and then press Enter.",Study/JOL,"Study Phase2",1832,,,1408,1583,,,,80,1
5ebd3dae8c3ef3000b5b1b2d,8hsmlhm9lp,Nick_Dissertation_EX1,1,229,2020-10-24T10:37:50-07:00,3.7731311321259,12,versionC_stim.csv,JAMVersionD.csv,"JAM Version D","Dissertation, JAM version D",BAR,GRILL,Study1,S,52,75,JAM,User,-,"How many people out of 100 do you think would respond with the second word if they were only shown the first?|Type your response on a scale from 0-100 and then press Enter.",Study/JOL,"Study Phase2",3282,,,1965,3156,,,,61,1
5ebd3dae8c3ef3000b5b1b2d,8hsmlhm9lp,Nick_Dissertation_EX1,1,230,2020-10-24T10:37:54-07:00,3.4890859127045,12,versionC_stim.csv,JAMVersionD.csv,"JAM Version D","Dissertation, JAM version D",COLD,BITTER,Study1,B,12,34,JAM,User,-,"How many people out of 100 do you think would respond with the second word if they were only shown the first?|Type your response on a scale from 0-100 and then press Enter.",Study/JOL,"Study Phase2",3007,,,2075,2656,,,,59,1
5ebd3dae8c3ef3000b5b1b2d,8hsmlhm9lp,Nick_Dissertation_EX1,1,231,2020-10-24T10:37:58-07:00,4.1644370555878,12,versionC_stim.csv,JAMVersionD.csv,"JAM Version D","Dissertation, JAM version D",FLOOR,DISCOVER,Study1,U,71,41,JAM,User,-,"How many people out of 100 do you think would respond with the second word if they were only shown the first?|Type your response on a scale from 0-100 and then press Enter.",Study/JOL,"Study Phase2",3768,,,1836,3338,,,,48,1
5ebd3dae8c3ef3000b5b1b2d,8hsmlhm9lp,Nick_Dissertation_EX1,1,232,2020-10-24T10:38:02-07:00,3.9323189258575,12,versionC_stim.csv,JAMVersionD.csv,"JAM Version D","Dissertation, JAM version D",BEE,HONEY,Study1,S,63,85,JAM,User,-,"How many people out of 100 do you think would respond with the second word if they were only shown the first?|Type your response on a scale from 0-100 and then press Enter.",Study/JOL,"Study Phase2",3412,,,1484,2781,,,,98,1
5ebd3dae8c3ef3000b5b1b2d,8hsmlhm9lp,Nick_Dissertation_EX1,1,233,2020-10-24T10:38:05-07:00,3.3249549865723,12,versionC_stim.csv,JAMVersionD.csv,"JAM Version D","Dissertation, JAM version D",LATCH,KEY,Study1,F,36,7,JAM,User,-,"How many people out of 100 do you think would respond with the second word if they were only shown the first?|Type your response on a scale from 0-100 and then press Enter.",Study/JOL,"Study Phase2",2873,,,1890,2547,,,,79,1
5ebd3dae8c3ef3000b5b1b2d,8hsmlhm9lp,Nick_Dissertation_EX1,1,234,2020-10-24T10:38:09-07:00,3.3854789733887,12,versionC_stim.csv,JAMVersionD.csv,"JAM Version D","Dissertation, JAM version D",WOULD,CASH,Study1,U,83,48,JAM,User,-,"How many people out of 100 do you think would respond with the second word if they were only shown the first?|Type your response on a scale from 0-100 and then press Enter.",Study/JOL,"Study Phase2",2886,,,2090,2346,,,,30,1
5ebd3dae8c3ef3000b5b1b2d,8hsmlhm9lp,Nick_Dissertation_EX1,1,235,2020-10-24T10:38:11-07:00,2.1461532115936,12,versionC_stim.csv,JAMVersionD.csv,"JAM Version D","Dissertation, JAM version D",GROWTH,HEIGHT,Study1,F,30,54,JAM,User,-,"How many people out of 100 do you think would respond with the second word if they were only shown the first?|Type your response on a scale from 0-100 and then press Enter.",Study/JOL,"Study Phase2",1692,,,1170,1396,,,,80,1
5ebd3dae8c3ef3000b5b1b2d,8hsmlhm9lp,Nick_Dissertation_EX1,1,236,2020-10-24T10:38:16-07:00,5.0285928249359,12,versionC_stim.csv,JAMVersionD.csv,"JAM Version D","Dissertation, JAM version D",DESIGN,ARCHITECTURE,Study1,S,51,56,JAM,User,-,"How many people out of 100 do you think would respond with the second word if they were only shown the first?|Type your response on a scale from 0-100 and then press Enter.",Study/JOL,"Study Phase2",3422,,,2188,3078,,,,68,1
5ebd3dae8c3ef3000b5b1b2d,8hsmlhm9lp,Nick_Dissertation_EX1,1,237,2020-10-24T10:38:19-07:00,2.7372150421143,12,versionC_stim.csv,JAMVersionD.csv,"JAM Version D","Dissertation, JAM version D",SODA,POP,Study1,S,56,12,JAM,User,-,"How many people out of 100 do you think would respond with the second word if they were only shown the first?|Type your response on a scale from 0-100 and then press Enter.",Study/JOL,"Study Phase2",2336,,,1476,1845,,,,29,1
5ebd3dae8c3ef3000b5b1b2d,8hsmlhm9lp,Nick_Dissertation_EX1,1,238,2020-10-24T10:38:23-07:00,3.849730014801,12,versionC_stim.csv,JAMVersionD.csv,"JAM Version D","Dissertation, JAM version D",DROWSY,SLEEP,Study1,F,41,65,JAM,User,-,"How many people out of 100 do you think would respond with the second word if they were only shown the first?|Type your response on a scale from 0-100 and then press Enter.",Study/JOL,"Study Phase2",3454,,,2714,3057,,,,48,1
5ebd3dae8c3ef3000b5b1b2d,8hsmlhm9lp,Nick_Dissertation_EX1,1,239,2020-10-24T10:38:25-07:00,2.6692719459534,12,versionC_stim.csv,JAMVersionD.csv,"JAM Version D","Dissertation, JAM version D",CHILD,BABY,Study1,S,64,16,JAM,User,-,"How many people out of 100 do you think would respond with the second word if they were only shown the first?|Type your response on a scale from 0-100 and then press Enter.",Study/JOL,"Study Phase2",2191,,,1692,1847,,,,50,1
5ebd3dae8c3ef3000b5b1b2d,8hsmlhm9lp,Nick_Dissertation_EX1,1,240,2020-10-24T10:38:28-07:00,2.9223880767822,12,versionC_stim.csv,JAMVersionD.csv,"JAM Version D","Dissertation, JAM version D",WASTE,DUMP,Study1,S,49,67,JAM,User,-,"How many people out of 100 do you think would respond with the second word if they were only shown the first?|Type your response on a scale from 0-100 and then press Enter.",Study/JOL,"Study Phase2",2493,,,2048,2173,,,,70,1
5ebd3dae8c3ef3000b5b1b2d,8hsmlhm9lp,Nick_Dissertation_EX1,1,241,2020-10-24T10:38:32-07:00,4.2484269142151,12,versionC_stim.csv,JAMVersionD.csv,"JAM Version D","Dissertation, JAM version D",DOG,PAW,Study1,B,15,86,JAM,User,-,"How many people out of 100 do you think would respond with the second word if they were only shown the first?|Type your response on a scale from 0-100 and then press Enter.",Study/JOL,"Study Phase2",3839,,,1237,3461,,,,85,1
5ebd3dae8c3ef3000b5b1b2d,8hsmlhm9lp,Nick_Dissertation_EX1,1,242,2020-10-24T10:38:36-07:00,3.7217769622803,12,versionC_stim.csv,JAMVersionD.csv,"JAM Version D","Dissertation, JAM version D",PLANT,ROOT,Study1,B,13,49,JAM,User,-,"How many people out of 100 do you think would respond with the second word if they were only shown the first?|Type your response on a scale from 0-100 and then press Enter.",Study/JOL,"Study Phase2",3273,,,2105,3076,,,,72,1
5ebd3dae8c3ef3000b5b1b2d,8hsmlhm9lp,Nick_Dissertation_EX1,1,243,2020-10-24T10:38:52-07:00,15.808537006378,12,versionC_stim.csv,JAMVersionD.csv,"JAM Version D","Dissertation, JAM version D",ATTIRE,CLOTHES,Study1,F,43,15,JAM,User,-,"How many people out of 100 do you think would respond with the second word if they were only shown the first?|Type your response on a scale from 0-100 and then press Enter.",Study/JOL,"Study Phase2",15348,,,8236,15104,,,,63,1
5ebd3dae8c3ef3000b5b1b2d,8hsmlhm9lp,Nick_Dissertation_EX1,1,244,2020-10-24T10:38:56-07:00,3.9761550426483,12,versionC_stim.csv,JAMVersionD.csv,"JAM Version D","Dissertation, JAM version D",ROUND,CIRCLE,Study1,S,65,10,JAM,User,-,"How many people out of 100 do you think would respond with the second word if they were only shown the first?|Type your response on a scale from 0-100 and then press Enter.",Study/JOL,"Study Phase2",3558,,,2195,3159,,,,97,1
5ebd3dae8c3ef3000b5b1b2d,8hsmlhm9lp,Nick_Dissertation_EX1,1,245,2020-10-24T10:38:59-07:00,3.3142991065979,12,versionC_stim.csv,JAMVersionD.csv,"JAM Version D","Dissertation, JAM version D",TALK,DISCUSSION,Study1,B,21,78,JAM,User,-,"How many people out of 100 do you think would respond with the second word if they were only shown the first?|Type your response on a scale from 0-100 and then press Enter.",Study/JOL,"Study Phase2",2904,,,1675,2089,,,,60,1
5ebd3dae8c3ef3000b5b1b2d,8hsmlhm9lp,Nick_Dissertation_EX1,1,246,2020-10-24T10:39:02-07:00,2.8112969398499,12,versionC_stim.csv,JAMVersionD.csv,"JAM Version D","Dissertation, JAM version D",SIGHT,DEBATE,Study1,U,73,21,JAM,User,-,"How many people out of 100 do you think would respond with the second word if they were only shown the first?|Type your response on a scale from 0-100 and then press Enter.",Study/JOL,"Study Phase2",2354,,,1720,2172,,,,72,1
5ebd3dae8c3ef3000b5b1b2d,8hsmlhm9lp,Nick_Dissertation_EX1,1,247,2020-10-24T10:39:06-07:00,4.0571100711823,12,versionC_stim.csv,JAMVersionD.csv,"JAM Version D","Dissertation, JAM version D",WAR,REVOLUTION,Study1,B,20,8,JAM,User,-,"How many people out of 100 do you think would respond with the second word if they were only shown the first?|Type your response on a scale from 0-100 and then press Enter.",Study/JOL,"Study Phase2",3572,,,2169,2888,,,,58,1
5ebd3dae8c3ef3000b5b1b2d,8hsmlhm9lp,Nick_Dissertation_EX1,1,248,2020-10-24T10:39:09-07:00,2.9778490066528,12,versionC_stim.csv,JAMVersionD.csv,"JAM Version D","Dissertation, JAM version D",BELT,SOON,Study1,U,70,19,JAM,User,-,"How many people out of 100 do you think would respond with the second word if they were only shown the first?|Type your response on a scale from 0-100 and then press Enter.",Study/JOL,"Study Phase2",2540,,,1911,2253,,,,30,1
5ebd3dae8c3ef3000b5b1b2d,8hsmlhm9lp,Nick_Dissertation_EX1,1,249,2020-10-24T10:39:13-07:00,3.7257859706879,12,versionC_stim.csv,JAMVersionD.csv,"JAM Version D","Dissertation, JAM version D",TUCK,ALLOW,Study1,U,78,73,JAM,User,-,"How many people out of 100 do you think would respond with the second word if they were only shown the first?|Type your response on a scale from 0-100 and then press Enter.",Study/JOL,"Study Phase2",3321,,,1593,3047,,,,20,1
5ebd3dae8c3ef3000b5b1b2d,8hsmlhm9lp,Nick_Dissertation_EX1,1,250,2020-10-24T10:39:16-07:00,2.9189150333405,12,versionC_stim.csv,JAMVersionD.csv,"JAM Version D","Dissertation, JAM version D",NEWS,EDITOR,Study1,B,10,44,JAM,User,-,"How many people out of 100 do you think would respond with the second word if they were only shown the first?|Type your response on a scale from 0-100 and then press Enter.",Study/JOL,"Study Phase2",2413,,,1812,2168,,,,62,1
