Username,ID,ExperimentName,Session,Trial,Date,TimeDif,"Condition Number","Stimuli File","Order File","Condition Description","Condition Notes",Stimuli*Cue,Stimuli*Answer,Stimuli*Shuffle,"Stimuli*Stimuli Notes",Stimuli*Value,Procedure*Item,"Procedure*Trial Type","Procedure*Max Time","Procedure*Min Time",Procedure*Text,"Procedure*Procedure Notes",Procedure*Shuffle,Response*RT,Response*Response,Response*Accuracy,Response*RTfirst,Response*RTlast,Response*strictAcc,Response*lenientAcc,Response*focus,Response*Focus
5c4e38f4d3a5e300018363ba,v3bll7aiaz,Nick_Dissertation_EX1,1,1,2020-06-13T09:50:42-07:00,14.838644981384,4,versionC_stim.csv,READVersionD.csv,"Read Version D","Dissertation, read only version D",,,,,,0,Instruct,-,10,"Please study each of the following word pairs. Remember that your memory will be tested! When finished, press Enter to move to the next pair.",Initial_Instruct,Instruct1,14226,,,-1,-1,,,,1
5c4e38f4d3a5e300018363ba,v3bll7aiaz,Nick_Dissertation_EX1,1,2,2020-06-13T09:50:56-07:00,14.200419187546,4,versionC_stim.csv,READVersionD.csv,"Read Version D","Dissertation, read only version D",ADVENTURE,CAMP,BUFFER3,Buffer,95,92,Study,User,-,,Study/JOL,BUFFER,13359,,,-1,-1,,,,1
5c4e38f4d3a5e300018363ba,v3bll7aiaz,Nick_Dissertation_EX1,1,3,2020-06-13T09:51:04-07:00,7.2147448062897,4,versionC_stim.csv,READVersionD.csv,"Read Version D","Dissertation, read only version D",STRING,NOODLE,BUFFER3,Buffer,92,96,Study,User,-,,Study/JOL,BUFFER,6467,,,-1,-1,,,,1
5c4e38f4d3a5e300018363ba,v3bll7aiaz,Nick_Dissertation_EX1,1,4,2020-06-13T09:51:09-07:00,5.189070224762,4,versionC_stim.csv,READVersionD.csv,"Read Version D","Dissertation, read only version D",POTATO,CARROT,BUFFER3,Buffer,91,95,Study,User,-,,Study/JOL,BUFFER,4366,,,-1,-1,,,,1
5c4e38f4d3a5e300018363ba,v3bll7aiaz,Nick_Dissertation_EX1,1,5,2020-06-13T09:51:13-07:00,4.4391279220581,4,versionC_stim.csv,READVersionD.csv,"Read Version D","Dissertation, read only version D",FISH,SHRIMP,BUFFER3,Buffer,93,94,Study,User,-,,Study/JOL,BUFFER,3588,,,-1,-1,,,,1
5c4e38f4d3a5e300018363ba,v3bll7aiaz,Nick_Dissertation_EX1,1,6,2020-06-13T09:51:18-07:00,5.0859458446503,4,versionC_stim.csv,READVersionD.csv,"Read Version D","Dissertation, read only version D",FROZEN,ICE,BUFFER3,Buffer,94,93,Study,User,-,,Study/JOL,BUFFER,3812,,,-1,-1,,,,1
5c4e38f4d3a5e300018363ba,v3bll7aiaz,Nick_Dissertation_EX1,1,7,2020-06-13T09:51:22-07:00,3.971607208252,4,versionC_stim.csv,READVersionD.csv,"Read Version D","Dissertation, read only version D",END,ADJOURN,Study2,B,101,121,Study,User,-,,Study/JOL,"Study Phase",3307,,,-1,-1,,,,1
5c4e38f4d3a5e300018363ba,v3bll7aiaz,Nick_Dissertation_EX1,1,8,2020-06-13T09:51:27-07:00,4.2986438274384,4,versionC_stim.csv,READVersionD.csv,"Read Version D","Dissertation, read only version D",PENGUIN,BIRD,Study2,F,119,109,Study,User,-,,Study/JOL,"Study Phase",3477,,,-1,-1,,,,1
5c4e38f4d3a5e300018363ba,v3bll7aiaz,Nick_Dissertation_EX1,1,9,2020-06-13T09:51:31-07:00,4.6138501167297,4,versionC_stim.csv,READVersionD.csv,"Read Version D","Dissertation, read only version D",REEL,ROD,Study2,S,150,156,Study,User,-,,Study/JOL,"Study Phase",3916,,,-1,-1,,,,1
5c4e38f4d3a5e300018363ba,v3bll7aiaz,Nick_Dissertation_EX1,1,10,2020-06-13T09:51:36-07:00,4.6752178668976,4,versionC_stim.csv,READVersionD.csv,"Read Version D","Dissertation, read only version D",MAROON,JUSTICE,Study2,U,156,160,Study,User,-,,Study/JOL,"Study Phase",3935,,,-1,-1,,,,1
5c4e38f4d3a5e300018363ba,v3bll7aiaz,Nick_Dissertation_EX1,1,11,2020-06-13T09:51:39-07:00,3.4457700252533,4,versionC_stim.csv,READVersionD.csv,"Read Version D","Dissertation, read only version D",NOISE,LOUD,Study2,S,152,97,Study,User,-,,Study/JOL,"Study Phase",2779,,,-1,-1,,,,1
5c4e38f4d3a5e300018363ba,v3bll7aiaz,Nick_Dissertation_EX1,1,12,2020-06-13T09:51:44-07:00,4.9999849796295,4,versionC_stim.csv,READVersionD.csv,"Read Version D","Dissertation, read only version D",FLIP,TURN,Study2,F,116,168,Study,User,-,,Study/JOL,"Study Phase",4310,,,-1,-1,,,,1
5c4e38f4d3a5e300018363ba,v3bll7aiaz,Nick_Dissertation_EX1,1,13,2020-06-13T09:51:49-07:00,4.8421361446381,4,versionC_stim.csv,READVersionD.csv,"Read Version D","Dissertation, read only version D",CLOTH,STRETCH,Study2,U,157,102,Study,User,-,,Study/JOL,"Study Phase",4193,,,-1,-1,,,,1
5c4e38f4d3a5e300018363ba,v3bll7aiaz,Nick_Dissertation_EX1,1,14,2020-06-13T09:51:53-07:00,3.8957328796387,4,versionC_stim.csv,READVersionD.csv,"Read Version D","Dissertation, read only version D",MYSTERY,DETECTIVE,Study2,B,100,131,Study,User,-,,Study/JOL,"Study Phase",3222,,,-1,-1,,,,1
5c4e38f4d3a5e300018363ba,v3bll7aiaz,Nick_Dissertation_EX1,1,15,2020-06-13T09:51:58-07:00,4.9947509765625,4,versionC_stim.csv,READVersionD.csv,"Read Version D","Dissertation, read only version D",CHARM,VEHICLE,Study2,U,160,130,Study,User,-,,Study/JOL,"Study Phase",4337,,,-1,-1,,,,1
5c4e38f4d3a5e300018363ba,v3bll7aiaz,Nick_Dissertation_EX1,1,16,2020-06-13T09:52:02-07:00,4.1326670646667,4,versionC_stim.csv,READVersionD.csv,"Read Version D","Dissertation, read only version D",EQUAL,RIGHTS,Study2,S,137,175,Study,User,-,,Study/JOL,"Study Phase",3485,,,-1,-1,,,,1
5c4e38f4d3a5e300018363ba,v3bll7aiaz,Nick_Dissertation_EX1,1,17,2020-06-13T09:52:05-07:00,3.2152609825134,4,versionC_stim.csv,READVersionD.csv,"Read Version D","Dissertation, read only version D",AIRCRAFT,PLANE,Study2,F,129,108,Study,User,-,,Study/JOL,"Study Phase",2574,,,-1,-1,,,,1
5c4e38f4d3a5e300018363ba,v3bll7aiaz,Nick_Dissertation_EX1,1,18,2020-06-13T09:52:09-07:00,3.6044919490814,4,versionC_stim.csv,READVersionD.csv,"Read Version D","Dissertation, read only version D",FIGHT,FEUD,Study2,B,113,155,Study,User,-,,Study/JOL,"Study Phase",2946,,,-1,-1,,,,1
5c4e38f4d3a5e300018363ba,v3bll7aiaz,Nick_Dissertation_EX1,1,19,2020-06-13T09:52:11-07:00,2.5117971897125,4,versionC_stim.csv,READVersionD.csv,"Read Version D","Dissertation, read only version D",WINDSHIELD,CAR,Study2,F,117,163,Study,User,-,,Study/JOL,"Study Phase",1810,,,-1,-1,,,,1
5c4e38f4d3a5e300018363ba,v3bll7aiaz,Nick_Dissertation_EX1,1,20,2020-06-13T09:52:15-07:00,3.7142159938812,4,versionC_stim.csv,READVersionD.csv,"Read Version D","Dissertation, read only version D",TICK,FLEA,Study2,S,151,141,Study,User,-,,Study/JOL,"Study Phase",2921,,,-1,-1,,,,1
5c4e38f4d3a5e300018363ba,v3bll7aiaz,Nick_Dissertation_EX1,1,21,2020-06-13T09:52:18-07:00,2.6935839653015,4,versionC_stim.csv,READVersionD.csv,"Read Version D","Dissertation, read only version D",STRAWBERRY,FRUIT,Study2,F,124,126,Study,User,-,,Study/JOL,"Study Phase",2004,,,-1,-1,,,,1
5c4e38f4d3a5e300018363ba,v3bll7aiaz,Nick_Dissertation_EX1,1,22,2020-06-13T09:52:21-07:00,2.8532059192657,4,versionC_stim.csv,READVersionD.csv,"Read Version D","Dissertation, read only version D",LONG,EXTENSION,Study2,B,96,174,Study,User,-,,Study/JOL,"Study Phase",2237,,,-1,-1,,,,1
5c4e38f4d3a5e300018363ba,v3bll7aiaz,Nick_Dissertation_EX1,1,23,2020-06-13T09:52:24-07:00,3.6233260631561,4,versionC_stim.csv,READVersionD.csv,"Read Version D","Dissertation, read only version D",AWAY,GONE,Study2,S,142,139,Study,User,-,,Study/JOL,"Study Phase",2925,,,-1,-1,,,,1
5c4e38f4d3a5e300018363ba,v3bll7aiaz,Nick_Dissertation_EX1,1,24,2020-06-13T09:52:27-07:00,3.0124628543854,4,versionC_stim.csv,READVersionD.csv,"Read Version D","Dissertation, read only version D",BREAKABLE,GLASS,Study2,F,127,104,Study,User,-,,Study/JOL,"Study Phase",2393,,,-1,-1,,,,1
5c4e38f4d3a5e300018363ba,v3bll7aiaz,Nick_Dissertation_EX1,1,25,2020-06-13T09:52:31-07:00,3.4040470123291,4,versionC_stim.csv,READVersionD.csv,"Read Version D","Dissertation, read only version D",FICTION,LISTEN,Study2,U,164,154,Study,User,-,,Study/JOL,"Study Phase",2641,,,-1,-1,,,,1
5c4e38f4d3a5e300018363ba,v3bll7aiaz,Nick_Dissertation_EX1,1,26,2020-06-13T09:52:34-07:00,2.9716811180115,4,versionC_stim.csv,READVersionD.csv,"Read Version D","Dissertation, read only version D",HAVE,OWN,Study2,S,153,105,Study,User,-,,Study/JOL,"Study Phase",2333,,,-1,-1,,,,1
5c4e38f4d3a5e300018363ba,v3bll7aiaz,Nick_Dissertation_EX1,1,27,2020-06-13T09:52:37-07:00,3.5491008758545,4,versionC_stim.csv,READVersionD.csv,"Read Version D","Dissertation, read only version D",BRACELET,WRIST,Study2,S,140,117,Study,User,-,,Study/JOL,"Study Phase",2900,,,-1,-1,,,,1
5c4e38f4d3a5e300018363ba,v3bll7aiaz,Nick_Dissertation_EX1,1,28,2020-06-13T09:52:42-07:00,4.233234167099,4,versionC_stim.csv,READVersionD.csv,"Read Version D","Dissertation, read only version D",JAR,MASON,Study2,S,138,172,Study,User,-,,Study/JOL,"Study Phase",2551,,,-1,-1,,,,1
5c4e38f4d3a5e300018363ba,v3bll7aiaz,Nick_Dissertation_EX1,1,29,2020-06-13T09:52:45-07:00,3.1294028759003,4,versionC_stim.csv,READVersionD.csv,"Read Version D","Dissertation, read only version D",TAN,SUN,Study2,S,155,119,Study,User,-,,Study/JOL,"Study Phase",2413,,,-1,-1,,,,1
5c4e38f4d3a5e300018363ba,v3bll7aiaz,Nick_Dissertation_EX1,1,30,2020-06-13T09:52:47-07:00,2.7207040786743,4,versionC_stim.csv,READVersionD.csv,"Read Version D","Dissertation, read only version D",TIE,SHOELACE,Study2,B,99,145,Study,User,-,,Study/JOL,"Study Phase",2061,,,-1,-1,,,,1
5c4e38f4d3a5e300018363ba,v3bll7aiaz,Nick_Dissertation_EX1,1,31,2020-06-13T09:52:51-07:00,4.0154349803925,4,versionC_stim.csv,READVersionD.csv,"Read Version D","Dissertation, read only version D",ELECTION,MAZE,Study2,U,159,124,Study,User,-,,Study/JOL,"Study Phase",3249,,,-1,-1,,,,1
5c4e38f4d3a5e300018363ba,v3bll7aiaz,Nick_Dissertation_EX1,1,32,2020-06-13T09:52:55-07:00,3.4719541072845,4,versionC_stim.csv,READVersionD.csv,"Read Version D","Dissertation, read only version D",DONKEY,MULE,Study2,B,108,176,Study,User,-,,Study/JOL,"Study Phase",1869,,,-1,-1,,,,1
5c4e38f4d3a5e300018363ba,v3bll7aiaz,Nick_Dissertation_EX1,1,33,2020-06-13T09:52:58-07:00,2.9859797954559,4,versionC_stim.csv,READVersionD.csv,"Read Version D","Dissertation, read only version D",GAME,CLUE,Study2,B,97,116,Study,User,-,,Study/JOL,"Study Phase",2200,,,-1,-1,,,,1
5c4e38f4d3a5e300018363ba,v3bll7aiaz,Nick_Dissertation_EX1,1,34,2020-06-13T09:53:01-07:00,2.9788780212402,4,versionC_stim.csv,READVersionD.csv,"Read Version D","Dissertation, read only version D",CLEAR,MOAT,Study2,U,169,137,Study,User,-,,Study/JOL,"Study Phase",2318,,,-1,-1,,,,1
5c4e38f4d3a5e300018363ba,v3bll7aiaz,Nick_Dissertation_EX1,1,35,2020-06-13T09:53:03-07:00,2.5700261592865,4,versionC_stim.csv,READVersionD.csv,"Read Version D","Dissertation, read only version D",LOVE,AFFECTION,Study2,B,115,132,Study,User,-,,Study/JOL,"Study Phase",1921,,,-1,-1,,,,1
5c4e38f4d3a5e300018363ba,v3bll7aiaz,Nick_Dissertation_EX1,1,36,2020-06-13T09:53:07-07:00,3.5631589889526,4,versionC_stim.csv,READVersionD.csv,"Read Version D","Dissertation, read only version D",COMMUNICATION,PHONE,Study2,S,149,98,Study,User,-,,Study/JOL,"Study Phase",2932,,,-1,-1,,,,1
5c4e38f4d3a5e300018363ba,v3bll7aiaz,Nick_Dissertation_EX1,1,37,2020-06-13T09:53:10-07:00,3.2848398685455,4,versionC_stim.csv,READVersionD.csv,"Read Version D","Dissertation, read only version D",CHILDREN,MIRROR,Study2,U,174,125,Study,User,-,,Study/JOL,"Study Phase",2652,,,-1,-1,,,,1
5c4e38f4d3a5e300018363ba,v3bll7aiaz,Nick_Dissertation_EX1,1,38,2020-06-13T09:53:13-07:00,3.1912879943848,4,versionC_stim.csv,READVersionD.csv,"Read Version D","Dissertation, read only version D",BANG,FUZZY,Study2,U,168,110,Study,User,-,,Study/JOL,"Study Phase",2514,,,-1,-1,,,,1
5c4e38f4d3a5e300018363ba,v3bll7aiaz,Nick_Dissertation_EX1,1,39,2020-06-13T09:53:16-07:00,2.9702961444855,4,versionC_stim.csv,READVersionD.csv,"Read Version D","Dissertation, read only version D",SHAVE,RAZOR,Study2,S,136,146,Study,User,-,,Study/JOL,"Study Phase",2221,,,-1,-1,,,,1
5c4e38f4d3a5e300018363ba,v3bll7aiaz,Nick_Dissertation_EX1,1,40,2020-06-13T09:53:19-07:00,2.5789070129395,4,versionC_stim.csv,READVersionD.csv,"Read Version D","Dissertation, read only version D",LONELY,ALONE,Study2,S,145,128,Study,User,-,,Study/JOL,"Study Phase",1895,,,-1,-1,,,,1
5c4e38f4d3a5e300018363ba,v3bll7aiaz,Nick_Dissertation_EX1,1,41,2020-06-13T09:53:21-07:00,1.8338158130646,4,versionC_stim.csv,READVersionD.csv,"Read Version D","Dissertation, read only version D",WAX,CANDLE,Study2,S,139,103,Study,User,-,,Study/JOL,"Study Phase",1192,,,-1,-1,,,,1
5c4e38f4d3a5e300018363ba,v3bll7aiaz,Nick_Dissertation_EX1,1,42,2020-06-13T09:53:23-07:00,2.4869601726532,4,versionC_stim.csv,READVersionD.csv,"Read Version D","Dissertation, read only version D",STEAK,GIVE,Study2,U,158,140,Study,User,-,,Study/JOL,"Study Phase",1865,,,-1,-1,,,,1
5c4e38f4d3a5e300018363ba,v3bll7aiaz,Nick_Dissertation_EX1,1,43,2020-06-13T09:53:28-07:00,4.9725739955902,4,versionC_stim.csv,READVersionD.csv,"Read Version D","Dissertation, read only version D",SCAR,MAIN,Study2,U,175,133,Study,User,-,,Study/JOL,"Study Phase",4264,,,-1,-1,,,,1
5c4e38f4d3a5e300018363ba,v3bll7aiaz,Nick_Dissertation_EX1,1,44,2020-06-13T09:53:31-07:00,2.8685388565063,4,versionC_stim.csv,READVersionD.csv,"Read Version D","Dissertation, read only version D",CAR,DRIVER,Study2,B,106,115,Study,User,-,,Study/JOL,"Study Phase",2218,,,-1,-1,,,,1
5c4e38f4d3a5e300018363ba,v3bll7aiaz,Nick_Dissertation_EX1,1,45,2020-06-13T09:53:35-07:00,3.7762379646301,4,versionC_stim.csv,READVersionD.csv,"Read Version D","Dissertation, read only version D",BANKER,MONEY,Study2,F,132,144,Study,User,-,,Study/JOL,"Study Phase",3119,,,-1,-1,,,,1
5c4e38f4d3a5e300018363ba,v3bll7aiaz,Nick_Dissertation_EX1,1,46,2020-06-13T09:53:38-07:00,3.3935260772705,4,versionC_stim.csv,READVersionD.csv,"Read Version D","Dissertation, read only version D",PAPER,DOCUMENT,Study2,B,109,162,Study,User,-,,Study/JOL,"Study Phase",2809,,,-1,-1,,,,1
5c4e38f4d3a5e300018363ba,v3bll7aiaz,Nick_Dissertation_EX1,1,47,2020-06-13T09:53:43-07:00,4.5128970146179,4,versionC_stim.csv,READVersionD.csv,"Read Version D","Dissertation, read only version D",NAP,SLEEP,Study2,F,134,143,Study,User,-,,Study/JOL,"Study Phase",2866,,,-1,-1,,,,1
5c4e38f4d3a5e300018363ba,v3bll7aiaz,Nick_Dissertation_EX1,1,48,2020-06-13T09:53:45-07:00,2.2552299499512,4,versionC_stim.csv,READVersionD.csv,"Read Version D","Dissertation, read only version D",GROUND,EARTH,Study2,S,144,164,Study,User,-,,Study/JOL,"Study Phase",1446,,,-1,-1,,,,1
5c4e38f4d3a5e300018363ba,v3bll7aiaz,Nick_Dissertation_EX1,1,49,2020-06-13T09:53:49-07:00,3.5238471031189,4,versionC_stim.csv,READVersionD.csv,"Read Version D","Dissertation, read only version D",PLANT,CACTUS,Study2,B,98,123,Study,User,-,,Study/JOL,"Study Phase",2927,,,-1,-1,,,,1
5c4e38f4d3a5e300018363ba,v3bll7aiaz,Nick_Dissertation_EX1,1,50,2020-06-13T09:53:52-07:00,3.4987699985504,4,versionC_stim.csv,READVersionD.csv,"Read Version D","Dissertation, read only version D",DOG,FURRY,Study2,B,102,106,Study,User,-,,Study/JOL,"Study Phase",2864,,,-1,-1,,,,1
5c4e38f4d3a5e300018363ba,v3bll7aiaz,Nick_Dissertation_EX1,1,51,2020-06-13T09:53:55-07:00,3.168289899826,4,versionC_stim.csv,READVersionD.csv,"Read Version D","Dissertation, read only version D",LEAGUE,BASEBALL,Study2,F,131,134,Study,User,-,,Study/JOL,"Study Phase",2545,,,-1,-1,,,,1
5c4e38f4d3a5e300018363ba,v3bll7aiaz,Nick_Dissertation_EX1,1,52,2020-06-13T09:53:58-07:00,2.9565241336823,4,versionC_stim.csv,READVersionD.csv,"Read Version D","Dissertation, read only version D",CARBON,ELEMENT,Study2,S,141,127,Study,User,-,,Study/JOL,"Study Phase",2331,,,-1,-1,,,,1
5c4e38f4d3a5e300018363ba,v3bll7aiaz,Nick_Dissertation_EX1,1,53,2020-06-13T09:54:01-07:00,2.7575440406799,4,versionC_stim.csv,READVersionD.csv,"Read Version D","Dissertation, read only version D",JOKE,KEYS,Study2,U,165,114,Study,User,-,,Study/JOL,"Study Phase",2129,,,-1,-1,,,,1
5c4e38f4d3a5e300018363ba,v3bll7aiaz,Nick_Dissertation_EX1,1,54,2020-06-13T09:54:03-07:00,2.3210959434509,4,versionC_stim.csv,READVersionD.csv,"Read Version D","Dissertation, read only version D",SMELL,INCENSE,Study2,B,110,152,Study,User,-,,Study/JOL,"Study Phase",1677,,,-1,-1,,,,1
5c4e38f4d3a5e300018363ba,v3bll7aiaz,Nick_Dissertation_EX1,1,55,2020-06-13T09:54:07-07:00,3.3795609474182,4,versionC_stim.csv,READVersionD.csv,"Read Version D","Dissertation, read only version D",REVENGE,EVEN,Study2,F,122,149,Study,User,-,,Study/JOL,"Study Phase",2594,,,-1,-1,,,,1
5c4e38f4d3a5e300018363ba,v3bll7aiaz,Nick_Dissertation_EX1,1,56,2020-06-13T09:54:11-07:00,4.038654088974,4,versionC_stim.csv,READVersionD.csv,"Read Version D","Dissertation, read only version D",SIGN,LOAN,Study2,U,171,99,Study,User,-,,Study/JOL,"Study Phase",3415,,,-1,-1,,,,1
5c4e38f4d3a5e300018363ba,v3bll7aiaz,Nick_Dissertation_EX1,1,57,2020-06-13T09:54:13-07:00,2.6024098396301,4,versionC_stim.csv,READVersionD.csv,"Read Version D","Dissertation, read only version D",SCISSORS,SHEARS,Study2,B,112,118,Study,User,-,,Study/JOL,"Study Phase",1917,,,-1,-1,,,,1
5c4e38f4d3a5e300018363ba,v3bll7aiaz,Nick_Dissertation_EX1,1,58,2020-06-13T09:54:16-07:00,2.4403190612793,4,versionC_stim.csv,READVersionD.csv,"Read Version D","Dissertation, read only version D",COFFIN,DEAD,Study2,F,128,170,Study,User,-,,Study/JOL,"Study Phase",1739,,,-1,-1,,,,1
5c4e38f4d3a5e300018363ba,v3bll7aiaz,Nick_Dissertation_EX1,1,59,2020-06-13T09:54:19-07:00,3.6123940944672,4,versionC_stim.csv,READVersionD.csv,"Read Version D","Dissertation, read only version D",COLD,CHILL,Study2,B,114,120,Study,User,-,,Study/JOL,"Study Phase",2827,,,-1,-1,,,,1
5c4e38f4d3a5e300018363ba,v3bll7aiaz,Nick_Dissertation_EX1,1,60,2020-06-13T09:54:23-07:00,3.9818058013916,4,versionC_stim.csv,READVersionD.csv,"Read Version D","Dissertation, read only version D",EAT,DINE,Study2,B,111,129,Study,User,-,,Study/JOL,"Study Phase",2752,,,-1,-1,,,,1
5c4e38f4d3a5e300018363ba,v3bll7aiaz,Nick_Dissertation_EX1,1,61,2020-06-13T09:54:26-07:00,2.9236030578613,4,versionC_stim.csv,READVersionD.csv,"Read Version D","Dissertation, read only version D",ABLE,CRACKLE,Study2,U,162,159,Study,User,-,,Study/JOL,"Study Phase",2299,,,-1,-1,,,,1
5c4e38f4d3a5e300018363ba,v3bll7aiaz,Nick_Dissertation_EX1,1,62,2020-06-13T09:54:29-07:00,2.7948729991913,4,versionC_stim.csv,READVersionD.csv,"Read Version D","Dissertation, read only version D",THIMBLE,THREAD,Study2,F,121,101,Study,User,-,,Study/JOL,"Study Phase",2162,,,-1,-1,,,,1
5c4e38f4d3a5e300018363ba,v3bll7aiaz,Nick_Dissertation_EX1,1,63,2020-06-13T09:54:32-07:00,3.1187500953674,4,versionC_stim.csv,READVersionD.csv,"Read Version D","Dissertation, read only version D",HEAD,SCALP,Study2,B,105,165,Study,User,-,,Study/JOL,"Study Phase",2460,,,-1,-1,,,,1
5c4e38f4d3a5e300018363ba,v3bll7aiaz,Nick_Dissertation_EX1,1,64,2020-06-13T09:54:36-07:00,3.5256168842316,4,versionC_stim.csv,READVersionD.csv,"Read Version D","Dissertation, read only version D",RED,CHERRY,Study2,B,104,135,Study,User,-,,Study/JOL,"Study Phase",2910,,,-1,-1,,,,1
5c4e38f4d3a5e300018363ba,v3bll7aiaz,Nick_Dissertation_EX1,1,65,2020-06-13T09:54:38-07:00,2.3617091178894,4,versionC_stim.csv,READVersionD.csv,"Read Version D","Dissertation, read only version D",CLOTHES,CAKE,Study2,U,166,169,Study,User,-,,Study/JOL,"Study Phase",1687,,,-1,-1,,,,1
5c4e38f4d3a5e300018363ba,v3bll7aiaz,Nick_Dissertation_EX1,1,66,2020-06-13T09:54:43-07:00,4.4360110759735,4,versionC_stim.csv,READVersionD.csv,"Read Version D","Dissertation, read only version D",TRUTHFUL,HONEST,Study2,F,133,151,Study,User,-,,Study/JOL,"Study Phase",3674,,,-1,-1,,,,1
5c4e38f4d3a5e300018363ba,v3bll7aiaz,Nick_Dissertation_EX1,1,67,2020-06-13T09:54:46-07:00,3.1372208595276,4,versionC_stim.csv,READVersionD.csv,"Read Version D","Dissertation, read only version D",BALLOON,POP,Study2,F,123,157,Study,User,-,,Study/JOL,"Study Phase",2483,,,-1,-1,,,,1
5c4e38f4d3a5e300018363ba,v3bll7aiaz,Nick_Dissertation_EX1,1,68,2020-06-13T09:54:49-07:00,2.9377379417419,4,versionC_stim.csv,READVersionD.csv,"Read Version D","Dissertation, read only version D",WET,DRY,Study2,S,146,171,Study,User,-,,Study/JOL,"Study Phase",2330,,,-1,-1,,,,1
5c4e38f4d3a5e300018363ba,v3bll7aiaz,Nick_Dissertation_EX1,1,69,2020-06-13T09:54:51-07:00,2.7173960208893,4,versionC_stim.csv,READVersionD.csv,"Read Version D","Dissertation, read only version D",FAVORITE,BEST,Study2,F,125,173,Study,User,-,,Study/JOL,"Study Phase",2028,,,-1,-1,,,,1
5c4e38f4d3a5e300018363ba,v3bll7aiaz,Nick_Dissertation_EX1,1,70,2020-06-13T09:54:54-07:00,2.5024440288544,4,versionC_stim.csv,READVersionD.csv,"Read Version D","Dissertation, read only version D",DRINK,WATER,Study2,S,143,148,Study,User,-,,Study/JOL,"Study Phase",1841,,,-1,-1,,,,1
5c4e38f4d3a5e300018363ba,v3bll7aiaz,Nick_Dissertation_EX1,1,71,2020-06-13T09:54:58-07:00,3.7160201072693,4,versionC_stim.csv,READVersionD.csv,"Read Version D","Dissertation, read only version D",Morning,TEMPERATURE,Study2,U,173,158,Study,User,-,,Study/JOL,"Study Phase",2946,,,-1,-1,,,,1
5c4e38f4d3a5e300018363ba,v3bll7aiaz,Nick_Dissertation_EX1,1,72,2020-06-13T09:55:02-07:00,4.4335768222809,4,versionC_stim.csv,READVersionD.csv,"Read Version D","Dissertation, read only version D",HATE,NAME,Study2,U,167,142,Study,User,-,,Study/JOL,"Study Phase",3821,,,-1,-1,,,,1
5c4e38f4d3a5e300018363ba,v3bll7aiaz,Nick_Dissertation_EX1,1,73,2020-06-13T09:55:05-07:00,2.7093250751495,4,versionC_stim.csv,READVersionD.csv,"Read Version D","Dissertation, read only version D",LIE,TRUTH,Study2,S,148,167,Study,User,-,,Study/JOL,"Study Phase",2069,,,-1,-1,,,,1
5c4e38f4d3a5e300018363ba,v3bll7aiaz,Nick_Dissertation_EX1,1,74,2020-06-13T09:55:07-07:00,2.7264080047607,4,versionC_stim.csv,READVersionD.csv,"Read Version D","Dissertation, read only version D",PANTHER,CAT,Study2,F,126,113,Study,User,-,,Study/JOL,"Study Phase",2100,,,-1,-1,,,,1
5c4e38f4d3a5e300018363ba,v3bll7aiaz,Nick_Dissertation_EX1,1,75,2020-06-13T09:55:11-07:00,3.2851700782776,4,versionC_stim.csv,READVersionD.csv,"Read Version D","Dissertation, read only version D",TEMPER,TANTRUM,Study2,S,154,100,Study,User,-,,Study/JOL,"Study Phase",2627,,,-1,-1,,,,1
5c4e38f4d3a5e300018363ba,v3bll7aiaz,Nick_Dissertation_EX1,1,76,2020-06-13T09:55:15-07:00,3.8445489406586,4,versionC_stim.csv,READVersionD.csv,"Read Version D","Dissertation, read only version D",CUT,CHOP,Study2,B,107,147,Study,User,-,,Study/JOL,"Study Phase",3143,,,-1,-1,,,,1
5c4e38f4d3a5e300018363ba,v3bll7aiaz,Nick_Dissertation_EX1,1,77,2020-06-13T09:55:19-07:00,4.0037429332733,4,versionC_stim.csv,READVersionD.csv,"Read Version D","Dissertation, read only version D",SARDINE,FISH,Study2,F,130,107,Study,User,-,,Study/JOL,"Study Phase",3284,,,-1,-1,,,,1
5c4e38f4d3a5e300018363ba,v3bll7aiaz,Nick_Dissertation_EX1,1,78,2020-06-13T09:55:21-07:00,2.7968301773071,4,versionC_stim.csv,READVersionD.csv,"Read Version D","Dissertation, read only version D",BRAWL,FIGHT,Study2,F,135,112,Study,User,-,,Study/JOL,"Study Phase",2121,,,-1,-1,,,,1
5c4e38f4d3a5e300018363ba,v3bll7aiaz,Nick_Dissertation_EX1,1,79,2020-06-13T09:55:25-07:00,3.4124279022217,4,versionC_stim.csv,READVersionD.csv,"Read Version D","Dissertation, read only version D",TOIL,LEASE,Study2,U,170,138,Study,User,-,,Study/JOL,"Study Phase",2724,,,-1,-1,,,,1
5c4e38f4d3a5e300018363ba,v3bll7aiaz,Nick_Dissertation_EX1,1,80,2020-06-13T09:55:28-07:00,3.6406440734863,4,versionC_stim.csv,READVersionD.csv,"Read Version D","Dissertation, read only version D",OBTAIN,MEAT,Study2,U,161,166,Study,User,-,,Study/JOL,"Study Phase",2004,,,-1,-1,,,,1
5c4e38f4d3a5e300018363ba,v3bll7aiaz,Nick_Dissertation_EX1,1,81,2020-06-13T09:55:31-07:00,2.4578669071198,4,versionC_stim.csv,READVersionD.csv,"Read Version D","Dissertation, read only version D",VILLAIN,BAD,Study2,F,118,161,Study,User,-,,Study/JOL,"Study Phase",1622,,,-1,-1,,,,1
5c4e38f4d3a5e300018363ba,v3bll7aiaz,Nick_Dissertation_EX1,1,82,2020-06-13T09:55:33-07:00,2.6091229915619,4,versionC_stim.csv,READVersionD.csv,"Read Version D","Dissertation, read only version D",SEATBELT,SAFETY,Study2,S,147,153,Study,User,-,,Study/JOL,"Study Phase",1663,,,-1,-1,,,,1
5c4e38f4d3a5e300018363ba,v3bll7aiaz,Nick_Dissertation_EX1,1,83,2020-06-13T09:55:38-07:00,4.3540499210358,4,versionC_stim.csv,READVersionD.csv,"Read Version D","Dissertation, read only version D",SHAKE,Shell,Study2,U,163,111,Study,User,-,,Study/JOL,"Study Phase",3472,,,-1,-1,,,,1
5c4e38f4d3a5e300018363ba,v3bll7aiaz,Nick_Dissertation_EX1,1,84,2020-06-13T09:55:40-07:00,2.4896080493927,4,versionC_stim.csv,READVersionD.csv,"Read Version D","Dissertation, read only version D",TRASH,LITTER,Study2,B,103,122,Study,User,-,,Study/JOL,"Study Phase",1873,,,-1,-1,,,,1
5c4e38f4d3a5e300018363ba,v3bll7aiaz,Nick_Dissertation_EX1,1,85,2020-06-13T09:55:45-07:00,4.3891539573669,4,versionC_stim.csv,READVersionD.csv,"Read Version D","Dissertation, read only version D",OUNCE,BOTH,Study2,U,172,150,Study,User,-,,Study/JOL,"Study Phase",3644,,,-1,-1,,,,1
5c4e38f4d3a5e300018363ba,v3bll7aiaz,Nick_Dissertation_EX1,1,86,2020-06-13T09:55:49-07:00,3.9186689853668,4,versionC_stim.csv,READVersionD.csv,"Read Version D","Dissertation, read only version D",ACTRESS,STAR,Study2,F,120,136,Study,User,-,,Study/JOL,"Study Phase",3242,,,-1,-1,,,,1
5c4e38f4d3a5e300018363ba,v3bll7aiaz,Nick_Dissertation_EX1,1,87,2020-06-13T09:55:52-07:00,3.8268640041351,4,versionC_stim.csv,READVersionD.csv,"Read Version D","Dissertation, read only version D",MARCH,SPRING,BUFFER4,Buffer,179,179,Study,User,-,,Study/JOL,BUFFER2,3168,,,-1,-1,,,,1
5c4e38f4d3a5e300018363ba,v3bll7aiaz,Nick_Dissertation_EX1,1,88,2020-06-13T09:55:55-07:00,2.9067780971527,4,versionC_stim.csv,READVersionD.csv,"Read Version D","Dissertation, read only version D",YEAR,MONTH,BUFFER4,Buffer,177,180,Study,User,-,,Study/JOL,BUFFER2,2241,,,-1,-1,,,,1
5c4e38f4d3a5e300018363ba,v3bll7aiaz,Nick_Dissertation_EX1,1,89,2020-06-13T09:56:00-07:00,4.6057569980621,4,versionC_stim.csv,READVersionD.csv,"Read Version D","Dissertation, read only version D",SPOOKY,OCTOBER,BUFFER4,Buffer,180,177,Study,User,-,,Study/JOL,BUFFER2,3967,,,-1,-1,,,,1
5c4e38f4d3a5e300018363ba,v3bll7aiaz,Nick_Dissertation_EX1,1,90,2020-06-13T09:56:04-07:00,4.2606630325317,4,versionC_stim.csv,READVersionD.csv,"Read Version D","Dissertation, read only version D",WEAKS,DAYS,BUFFER4,Buffer,176,181,Study,User,-,,Study/JOL,BUFFER2,3572,,,-1,-1,,,,1
5c4e38f4d3a5e300018363ba,v3bll7aiaz,Nick_Dissertation_EX1,1,91,2020-06-13T09:56:08-07:00,3.7178530693054,4,versionC_stim.csv,READVersionD.csv,"Read Version D","Dissertation, read only version D",SHED,TOOL,BUFFER4,Buffer,178,178,Study,User,-,,Study/JOL,BUFFER2,3040,,,-1,-1,,,,1
5c4e38f4d3a5e300018363ba,v3bll7aiaz,Nick_Dissertation_EX1,1,92,2020-06-13T09:56:14-07:00,6.4997329711914,4,versionC_stim.csv,READVersionD.csv,"Read Version D","Dissertation, read only version D",,,,,,0,Instruct,User,-,"You have completed this section. Please press Enter.",Filler_Instruction,Instruct2,5714,,,-1,-1,,,,1
5c4e38f4d3a5e300018363ba,v3bll7aiaz,Nick_Dissertation_EX1,1,93,2020-06-13T09:58:17-07:00,122.42571997643,4,versionC_stim.csv,READVersionD.csv,"Read Version D","Dissertation, read only version D",,,,,,0,FreeRecall,120,120,"Please list the 50 US states in alphabetical order. The task will automatically advance to the next screen after two minutes.",,Filler1,120024,"alabama, arkansas, colorado, denver, florida, kansas, missisipi, michigan, missouri, nevada, texas, utah",0,6960,116587,0,0,,1
5c4e38f4d3a5e300018363ba,v3bll7aiaz,Nick_Dissertation_EX1,1,94,2020-06-13T09:58:31-07:00,14.449223995209,4,versionC_stim.csv,READVersionD.csv,"Read Version D","Dissertation, read only version D",,,,,,0,Instruct,-,10,"You will now be presented with the first word from each of the previously studied item pairs. Please type the missing word. If you do not know the word, you may guess or press Enter to skip forward to the next pair.",,Instruct3,13555,,,-1,-1,,,,1
5c4e38f4d3a5e300018363ba,v3bll7aiaz,Nick_Dissertation_EX1,1,95,2020-06-13T09:58:52-07:00,20.424057006836,4,versionC_stim.csv,READVersionD.csv,"Read Version D","Dissertation, read only version D",VILLAIN,BAD,Study2,F,118,161,Test,User,-,,Recall,Recall1,18594,evil,0,15957,16501,0,0,,1
5c4e38f4d3a5e300018363ba,v3bll7aiaz,Nick_Dissertation_EX1,1,96,2020-06-13T09:59:12-07:00,19.982820034027,4,versionC_stim.csv,READVersionD.csv,"Read Version D","Dissertation, read only version D",PLANT,CACTUS,Study2,B,98,123,Test,User,-,,Recall,Recall1,19123,weed,0,16956,17497,0,0,,1
5c4e38f4d3a5e300018363ba,v3bll7aiaz,Nick_Dissertation_EX1,1,97,2020-06-13T09:59:20-07:00,8.2849848270416,4,versionC_stim.csv,READVersionD.csv,"Read Version D","Dissertation, read only version D",PENGUIN,BIRD,Study2,F,119,109,Test,User,-,,Recall,Recall1,7597,bird,100,4237,5909,1,1,,1
5c4e38f4d3a5e300018363ba,v3bll7aiaz,Nick_Dissertation_EX1,1,98,2020-06-13T09:59:28-07:00,8.0974271297455,4,versionC_stim.csv,READVersionD.csv,"Read Version D","Dissertation, read only version D",JOKE,KEYS,Study2,U,165,114,Test,User,-,,Recall,Recall1,7348,happy,22.222222222222,4712,5884,0,0,,1
5c4e38f4d3a5e300018363ba,v3bll7aiaz,Nick_Dissertation_EX1,1,99,2020-06-13T09:59:38-07:00,10.225473880768,4,versionC_stim.csv,READVersionD.csv,"Read Version D","Dissertation, read only version D",OUNCE,BOTH,Study2,U,172,150,Test,User,-,,Recall,Recall1,9390,grams,0,7357,8006,0,0,,1
5c4e38f4d3a5e300018363ba,v3bll7aiaz,Nick_Dissertation_EX1,1,100,2020-06-13T09:59:47-07:00,8.2480471134186,4,versionC_stim.csv,READVersionD.csv,"Read Version D","Dissertation, read only version D",TICK,FLEA,Study2,S,151,141,Test,User,-,,Recall,Recall1,7456,cat,28.571428571429,5217,5627,0,0,,1
5c4e38f4d3a5e300018363ba,v3bll7aiaz,Nick_Dissertation_EX1,1,101,2020-06-13T10:00:00-07:00,13.760078907013,4,versionC_stim.csv,READVersionD.csv,"Read Version D","Dissertation, read only version D",CHARM,VEHICLE,Study2,U,160,130,Test,User,-,,Recall,Recall1,12920,bracelet,40,9755,11591,0,0,,1
5c4e38f4d3a5e300018363ba,v3bll7aiaz,Nick_Dissertation_EX1,1,102,2020-06-13T10:00:17-07:00,16.889595031738,4,versionC_stim.csv,READVersionD.csv,"Read Version D","Dissertation, read only version D",LIE,TRUTH,Study2,S,148,167,Test,User,-,,Recall,Recall1,16154,wrong,20,13305,14415,0,0,,1
5c4e38f4d3a5e300018363ba,v3bll7aiaz,Nick_Dissertation_EX1,1,103,2020-06-13T10:00:29-07:00,11.736498117447,4,versionC_stim.csv,READVersionD.csv,"Read Version D","Dissertation, read only version D",DONKEY,MULE,Study2,B,108,176,Test,User,-,,Recall,Recall1,10763,animal,40,5479,6590,0,0,,1
5c4e38f4d3a5e300018363ba,v3bll7aiaz,Nick_Dissertation_EX1,1,104,2020-06-13T10:00:39-07:00,9.8787488937378,4,versionC_stim.csv,READVersionD.csv,"Read Version D","Dissertation, read only version D",WET,DRY,Study2,S,146,171,Test,User,-,,Recall,Recall1,9166,dry,100,7356,7730,1,1,,1
5c4e38f4d3a5e300018363ba,v3bll7aiaz,Nick_Dissertation_EX1,1,105,2020-06-13T10:00:46-07:00,6.9333710670471,4,versionC_stim.csv,READVersionD.csv,"Read Version D","Dissertation, read only version D",TAN,SUN,Study2,S,155,119,Test,User,-,,Recall,Recall1,6137,sun,100,4020,4510,1,1,,1
5c4e38f4d3a5e300018363ba,v3bll7aiaz,Nick_Dissertation_EX1,1,106,2020-06-13T10:00:51-07:00,4.8457548618317,4,versionC_stim.csv,READVersionD.csv,"Read Version D","Dissertation, read only version D",BRACELET,WRIST,Study2,S,140,117,Test,User,-,,Recall,Recall1,4202,wrist,100,2010,2827,1,1,,1
5c4e38f4d3a5e300018363ba,v3bll7aiaz,Nick_Dissertation_EX1,1,107,2020-06-13T10:01:25-07:00,34.840844154358,4,versionC_stim.csv,READVersionD.csv,"Read Version D","Dissertation, read only version D",BANG,FUZZY,Study2,U,168,110,Test,User,-,,Recall,Recall1,34010,explode,0,27550,30889,0,0,,1
5c4e38f4d3a5e300018363ba,v3bll7aiaz,Nick_Dissertation_EX1,1,108,2020-06-13T10:01:36-07:00,10.263551950455,4,versionC_stim.csv,READVersionD.csv,"Read Version D","Dissertation, read only version D",FICTION,LISTEN,Study2,U,164,154,Test,User,-,,Recall,Recall1,9405,fact,20,7322,7892,0,0,,1
5c4e38f4d3a5e300018363ba,v3bll7aiaz,Nick_Dissertation_EX1,1,109,2020-06-13T10:01:48-07:00,12.723321914673,4,versionC_stim.csv,READVersionD.csv,"Read Version D","Dissertation, read only version D",THIMBLE,THREAD,Study2,F,121,101,Test,User,-,,Recall,Recall1,11887,thread,100,8500,9633,1,1,,1
5c4e38f4d3a5e300018363ba,v3bll7aiaz,Nick_Dissertation_EX1,1,110,2020-06-13T10:02:01-07:00,12.621427059174,4,versionC_stim.csv,READVersionD.csv,"Read Version D","Dissertation, read only version D",Morning,TEMPERATURE,Study2,U,173,158,Test,User,-,,Recall,Recall1,11819,temperature,100,3447,10398,1,1,,1
5c4e38f4d3a5e300018363ba,v3bll7aiaz,Nick_Dissertation_EX1,1,111,2020-06-13T10:02:24-07:00,22.46030497551,4,versionC_stim.csv,READVersionD.csv,"Read Version D","Dissertation, read only version D",SHAKE,Shell,Study2,U,163,111,Test,User,-,,Recall,Recall1,21589,salt,44.444444444444,15281,15923,0,0,,1
5c4e38f4d3a5e300018363ba,v3bll7aiaz,Nick_Dissertation_EX1,1,112,2020-06-13T10:02:34-07:00,10.378528118134,4,versionC_stim.csv,READVersionD.csv,"Read Version D","Dissertation, read only version D",TRUTHFUL,HONEST,Study2,F,133,151,Test,User,-,,Recall,Recall1,9536,honest,100,2474,7056,1,1,,1
5c4e38f4d3a5e300018363ba,v3bll7aiaz,Nick_Dissertation_EX1,1,113,2020-06-13T10:02:40-07:00,6.3086779117584,4,versionC_stim.csv,READVersionD.csv,"Read Version D","Dissertation, read only version D",REEL,ROD,Study2,S,150,156,Test,User,-,,Recall,Recall1,5569,rod,100,2733,4149,1,1,,1
5c4e38f4d3a5e300018363ba,v3bll7aiaz,Nick_Dissertation_EX1,1,114,2020-06-13T10:02:45-07:00,4.9924819469452,4,versionC_stim.csv,READVersionD.csv,"Read Version D","Dissertation, read only version D",AWAY,GONE,Study2,S,142,139,Test,User,-,,Recall,Recall1,4308,far,0,2179,2730,0,0,,1
5c4e38f4d3a5e300018363ba,v3bll7aiaz,Nick_Dissertation_EX1,1,115,2020-06-13T10:03:00-07:00,15.104866981506,4,versionC_stim.csv,READVersionD.csv,"Read Version D","Dissertation, read only version D",CLOTH,STRETCH,Study2,U,157,102,Test,User,-,,Recall,Recall1,14340,clean,16.666666666667,11870,12762,0,0,,1
5c4e38f4d3a5e300018363ba,v3bll7aiaz,Nick_Dissertation_EX1,1,116,2020-06-13T10:03:06-07:00,5.8217670917511,4,versionC_stim.csv,READVersionD.csv,"Read Version D","Dissertation, read only version D",LOVE,AFFECTION,Study2,B,115,132,Test,User,-,,Recall,Recall1,5106,happy,14.285714285714,2261,3344,0,0,,1
5c4e38f4d3a5e300018363ba,v3bll7aiaz,Nick_Dissertation_EX1,1,117,2020-06-13T10:03:14-07:00,8.055449962616,4,versionC_stim.csv,READVersionD.csv,"Read Version D","Dissertation, read only version D",SCAR,MAIN,Study2,U,175,133,Test,User,-,,Recall,Recall1,7351,skin,50,4968,5847,0,0,,1
5c4e38f4d3a5e300018363ba,v3bll7aiaz,Nick_Dissertation_EX1,1,118,2020-06-13T10:03:20-07:00,5.4281649589539,4,versionC_stim.csv,READVersionD.csv,"Read Version D","Dissertation, read only version D",EAT,DINE,Study2,B,111,129,Test,User,-,,Recall,Recall1,4764,food,25,2202,2682,0,0,,1
5c4e38f4d3a5e300018363ba,v3bll7aiaz,Nick_Dissertation_EX1,1,119,2020-06-13T10:03:27-07:00,7.1205871105194,4,versionC_stim.csv,READVersionD.csv,"Read Version D","Dissertation, read only version D",HATE,NAME,Study2,U,167,142,Test,User,-,,Recall,Recall1,6480,love,25,3396,4783,0,0,,1
5c4e38f4d3a5e300018363ba,v3bll7aiaz,Nick_Dissertation_EX1,1,120,2020-06-13T10:03:36-07:00,9.4258189201355,4,versionC_stim.csv,READVersionD.csv,"Read Version D","Dissertation, read only version D",SEATBELT,SAFETY,Study2,S,147,153,Test,User,-,,Recall,Recall1,8687,safety,100,3396,7100,1,1,,1
5c4e38f4d3a5e300018363ba,v3bll7aiaz,Nick_Dissertation_EX1,1,121,2020-06-13T10:03:43-07:00,6.4532461166382,4,versionC_stim.csv,READVersionD.csv,"Read Version D","Dissertation, read only version D",COMMUNICATION,PHONE,Study2,S,149,98,Test,User,-,,Recall,Recall1,5748,words,20,2405,3424,0,0,,1
5c4e38f4d3a5e300018363ba,v3bll7aiaz,Nick_Dissertation_EX1,1,122,2020-06-13T10:03:48-07:00,5.8955209255219,4,versionC_stim.csv,READVersionD.csv,"Read Version D","Dissertation, read only version D",DOG,FURRY,Study2,B,102,106,Test,User,-,,Recall,Recall1,5195,cat,0,2665,2934,0,0,,1
5c4e38f4d3a5e300018363ba,v3bll7aiaz,Nick_Dissertation_EX1,1,123,2020-06-13T10:03:54-07:00,5.4473960399628,4,versionC_stim.csv,READVersionD.csv,"Read Version D","Dissertation, read only version D",BANKER,MONEY,Study2,F,132,144,Test,User,-,,Recall,Recall1,4786,money,100,2701,3377,1,1,,1
5c4e38f4d3a5e300018363ba,v3bll7aiaz,Nick_Dissertation_EX1,1,124,2020-06-13T10:04:03-07:00,8.8933868408203,4,versionC_stim.csv,READVersionD.csv,"Read Version D","Dissertation, read only version D",FLIP,TURN,Study2,F,116,168,Test,User,-,,Recall,Recall1,8239,turn,100,2624,3759,1,1,,1
5c4e38f4d3a5e300018363ba,v3bll7aiaz,Nick_Dissertation_EX1,1,125,2020-06-13T10:04:08-07:00,5.4598731994629,4,versionC_stim.csv,READVersionD.csv,"Read Version D","Dissertation, read only version D",TIE,SHOELACE,Study2,B,99,145,Test,User,-,,Recall,Recall1,4710,bow,18.181818181818,2112,2878,0,0,,1
5c4e38f4d3a5e300018363ba,v3bll7aiaz,Nick_Dissertation_EX1,1,126,2020-06-13T10:04:22-07:00,14.020239830017,4,versionC_stim.csv,READVersionD.csv,"Read Version D","Dissertation, read only version D",RED,CHERRY,Study2,B,104,135,Test,User,-,,Recall,Recall1,13156,colour,33.333333333333,10744,11722,0,0,,1
5c4e38f4d3a5e300018363ba,v3bll7aiaz,Nick_Dissertation_EX1,1,127,2020-06-13T10:04:38-07:00,15.715917110443,4,versionC_stim.csv,READVersionD.csv,"Read Version D","Dissertation, read only version D",AIRCRAFT,PLANE,Study2,F,129,108,Test,User,-,,Recall,Recall1,14767,fly,25,11924,13011,0,0,,1
5c4e38f4d3a5e300018363ba,v3bll7aiaz,Nick_Dissertation_EX1,1,128,2020-06-13T10:04:46-07:00,7.6227729320526,4,versionC_stim.csv,READVersionD.csv,"Read Version D","Dissertation, read only version D",DRINK,WATER,Study2,S,143,148,Test,User,-,,Recall,Recall1,6956,water,100,2410,3179,1,1,,1
5c4e38f4d3a5e300018363ba,v3bll7aiaz,Nick_Dissertation_EX1,1,129,2020-06-13T10:04:58-07:00,12.696785926819,4,versionC_stim.csv,READVersionD.csv,"Read Version D","Dissertation, read only version D",CLEAR,MOAT,Study2,U,169,137,Test,User,-,,Recall,Recall1,11926,glass,22.222222222222,2555,9797,0,0,,1
5c4e38f4d3a5e300018363ba,v3bll7aiaz,Nick_Dissertation_EX1,1,130,2020-06-13T10:05:05-07:00,6.714203119278,4,versionC_stim.csv,READVersionD.csv,"Read Version D","Dissertation, read only version D",WAX,CANDLE,Study2,S,139,103,Test,User,-,,Recall,Recall1,6044,candle,100,3010,3893,1,1,,1
5c4e38f4d3a5e300018363ba,v3bll7aiaz,Nick_Dissertation_EX1,1,131,2020-06-13T10:05:14-07:00,9.0407199859619,4,versionC_stim.csv,READVersionD.csv,"Read Version D","Dissertation, read only version D",CARBON,ELEMENT,Study2,S,141,127,Test,User,-,,Recall,Recall1,8306,element,100,4382,5333,1,1,,1
5c4e38f4d3a5e300018363ba,v3bll7aiaz,Nick_Dissertation_EX1,1,132,2020-06-13T10:05:21-07:00,7.2541329860687,4,versionC_stim.csv,READVersionD.csv,"Read Version D","Dissertation, read only version D",OBTAIN,MEAT,Study2,U,161,166,Test,User,-,,Recall,Recall1,6579,got,28.571428571429,3949,4879,0,0,,1
5c4e38f4d3a5e300018363ba,v3bll7aiaz,Nick_Dissertation_EX1,1,133,2020-06-13T10:05:37-07:00,16.118546009064,4,versionC_stim.csv,READVersionD.csv,"Read Version D","Dissertation, read only version D",CHILDREN,MIRROR,Study2,U,174,125,Test,User,-,,Recall,Recall1,15376,play,0,12618,13652,0,0,,1
5c4e38f4d3a5e300018363ba,v3bll7aiaz,Nick_Dissertation_EX1,1,134,2020-06-13T10:05:45-07:00,7.6389501094818,4,versionC_stim.csv,READVersionD.csv,"Read Version D","Dissertation, read only version D",HAVE,OWN,Study2,S,153,105,Test,User,-,,Recall,Recall1,6926,got,33.333333333333,4180,5151,0,0,,1
5c4e38f4d3a5e300018363ba,v3bll7aiaz,Nick_Dissertation_EX1,1,135,2020-06-13T10:05:58-07:00,13.341727018356,4,versionC_stim.csv,READVersionD.csv,"Read Version D","Dissertation, read only version D",WINDSHIELD,CAR,Study2,F,117,163,Test,User,-,,Recall,Recall1,12541,car,100,3124,10659,1,1,,1
5c4e38f4d3a5e300018363ba,v3bll7aiaz,Nick_Dissertation_EX1,1,136,2020-06-13T10:06:11-07:00,12.214943885803,4,versionC_stim.csv,READVersionD.csv,"Read Version D","Dissertation, read only version D",STEAK,GIVE,Study2,U,158,140,Test,User,-,,Recall,Recall1,11383,meat,25,8436,9352,0,0,,1
5c4e38f4d3a5e300018363ba,v3bll7aiaz,Nick_Dissertation_EX1,1,137,2020-06-13T10:06:23-07:00,11.962186098099,4,versionC_stim.csv,READVersionD.csv,"Read Version D","Dissertation, read only version D",BREAKABLE,GLASS,Study2,F,127,104,Test,User,-,,Recall,Recall1,11041,mirror,0,7910,9390,0,0,,1
5c4e38f4d3a5e300018363ba,v3bll7aiaz,Nick_Dissertation_EX1,1,138,2020-06-13T10:06:42-07:00,19.106578826904,4,versionC_stim.csv,READVersionD.csv,"Read Version D","Dissertation, read only version D",NAP,SLEEP,Study2,F,134,143,Test,User,-,,Recall,Recall1,18321,kip,25,9518,9936,0,0,,1
5c4e38f4d3a5e300018363ba,v3bll7aiaz,Nick_Dissertation_EX1,1,139,2020-06-13T10:06:55-07:00,13.154071092606,4,versionC_stim.csv,READVersionD.csv,"Read Version D","Dissertation, read only version D",GAME,CLUE,Study2,B,97,116,Test,User,-,,Recall,Recall1,12324,chess,44.444444444444,9992,10787,0,0,,1
5c4e38f4d3a5e300018363ba,v3bll7aiaz,Nick_Dissertation_EX1,1,140,2020-06-13T10:07:10-07:00,15.032335042953,4,versionC_stim.csv,READVersionD.csv,"Read Version D","Dissertation, read only version D",PAPER,DOCUMENT,Study2,B,109,162,Test,User,-,,Recall,Recall1,14211,pen,36.363636363636,11943,13026,0,0,,1
5c4e38f4d3a5e300018363ba,v3bll7aiaz,Nick_Dissertation_EX1,1,141,2020-06-13T10:07:16-07:00,6.4098930358887,4,versionC_stim.csv,READVersionD.csv,"Read Version D","Dissertation, read only version D",SHAVE,RAZOR,Study2,S,136,146,Test,User,-,,Recall,Recall1,5687,razor,100,2472,3893,1,1,,1
5c4e38f4d3a5e300018363ba,v3bll7aiaz,Nick_Dissertation_EX1,1,142,2020-06-13T10:07:30-07:00,13.426978826523,4,versionC_stim.csv,READVersionD.csv,"Read Version D","Dissertation, read only version D",SCISSORS,SHEARS,Study2,B,112,118,Test,User,-,,Recall,Recall1,12682,paper,36.363636363636,3428,7105,0,0,,1
5c4e38f4d3a5e300018363ba,v3bll7aiaz,Nick_Dissertation_EX1,1,143,2020-06-13T10:07:36-07:00,6.2817990779877,4,versionC_stim.csv,READVersionD.csv,"Read Version D","Dissertation, read only version D",REVENGE,EVEN,Study2,F,122,149,Test,User,-,,Recall,Recall1,5577,hate,25,3396,3903,0,0,,1
5c4e38f4d3a5e300018363ba,v3bll7aiaz,Nick_Dissertation_EX1,1,144,2020-06-13T10:07:45-07:00,9.0872828960419,4,versionC_stim.csv,READVersionD.csv,"Read Version D","Dissertation, read only version D",BRAWL,FIGHT,Study2,F,135,112,Test,User,-,,Recall,Recall1,8408,fight,100,4112,4780,1,1,,1
5c4e38f4d3a5e300018363ba,v3bll7aiaz,Nick_Dissertation_EX1,1,145,2020-06-13T10:07:55-07:00,9.8484101295471,4,versionC_stim.csv,READVersionD.csv,"Read Version D","Dissertation, read only version D",COLD,CHILL,Study2,B,114,120,Test,User,-,,Recall,Recall1,9126,ice,25,4003,4479,0,0,,1
5c4e38f4d3a5e300018363ba,v3bll7aiaz,Nick_Dissertation_EX1,1,146,2020-06-13T10:08:10-07:00,15.230908870697,4,versionC_stim.csv,READVersionD.csv,"Read Version D","Dissertation, read only version D",ACTRESS,STAR,Study2,F,120,136,Test,User,-,,Recall,Recall1,14401,play,25,10265,10804,0,0,,1
5c4e38f4d3a5e300018363ba,v3bll7aiaz,Nick_Dissertation_EX1,1,147,2020-06-13T10:08:18-07:00,7.3695061206818,4,versionC_stim.csv,READVersionD.csv,"Read Version D","Dissertation, read only version D",MYSTERY,DETECTIVE,Study2,B,100,131,Test,User,-,,Recall,Recall1,6637,clue,30.769230769231,2606,3953,0,0,,1
5c4e38f4d3a5e300018363ba,v3bll7aiaz,Nick_Dissertation_EX1,1,148,2020-06-13T10:08:37-07:00,19.650074005127,4,versionC_stim.csv,READVersionD.csv,"Read Version D","Dissertation, read only version D",MAROON,JUSTICE,Study2,U,156,160,Test,User,-,,Recall,Recall1,18900,colour,15.384615384615,11294,14407,0,0,,1
5c4e38f4d3a5e300018363ba,v3bll7aiaz,Nick_Dissertation_EX1,1,149,2020-06-13T10:08:43-07:00,6.0800330638885,4,versionC_stim.csv,READVersionD.csv,"Read Version D","Dissertation, read only version D",FIGHT,FEUD,Study2,B,113,155,Test,User,-,,Recall,Recall1,5390,brawl,0,1854,2919,0,0,,1
5c4e38f4d3a5e300018363ba,v3bll7aiaz,Nick_Dissertation_EX1,1,150,2020-06-13T10:09:02-07:00,19.066779851913,4,versionC_stim.csv,READVersionD.csv,"Read Version D","Dissertation, read only version D",CAR,DRIVER,Study2,B,106,115,Test,User,-,,Recall,Recall1,18265,wheel,18.181818181818,15850,16619,0,0,,1
5c4e38f4d3a5e300018363ba,v3bll7aiaz,Nick_Dissertation_EX1,1,151,2020-06-13T10:09:22-07:00,19.56422996521,4,versionC_stim.csv,READVersionD.csv,"Read Version D","Dissertation, read only version D",SMELL,INCENSE,Study2,B,110,152,Test,User,-,,Recall,Recall1,18722,food,0,13145,15951,0,0,,1
5c4e38f4d3a5e300018363ba,v3bll7aiaz,Nick_Dissertation_EX1,1,152,2020-06-13T10:09:37-07:00,14.621952056885,4,versionC_stim.csv,READVersionD.csv,"Read Version D","Dissertation, read only version D",TEMPER,TANTRUM,Study2,S,154,100,Test,User,-,,Recall,Recall1,13743,tantrum,100,3272,11770,1,1,,1
5c4e38f4d3a5e300018363ba,v3bll7aiaz,Nick_Dissertation_EX1,1,153,2020-06-13T10:09:45-07:00,8.3394660949707,4,versionC_stim.csv,READVersionD.csv,"Read Version D","Dissertation, read only version D",END,ADJOURN,Study2,B,101,121,Test,User,-,,Recall,Recall1,7682,start,33.333333333333,5222,5827,0,0,,1
5c4e38f4d3a5e300018363ba,v3bll7aiaz,Nick_Dissertation_EX1,1,154,2020-06-13T10:10:02-07:00,16.845279932022,4,versionC_stim.csv,READVersionD.csv,"Read Version D","Dissertation, read only version D",FAVORITE,BEST,Study2,F,125,173,Test,User,-,,Recall,Recall1,15002,worst,44.444444444444,11381,12503,0,0,,1
5c4e38f4d3a5e300018363ba,v3bll7aiaz,Nick_Dissertation_EX1,1,155,2020-06-13T10:10:28-07:00,26.565668106079,4,versionC_stim.csv,READVersionD.csv,"Read Version D","Dissertation, read only version D",LEAGUE,BASEBALL,Study2,F,131,134,Test,User,-,,Recall,Recall1,25742,game,33.333333333333,17333,18265,0,0,,1
5c4e38f4d3a5e300018363ba,v3bll7aiaz,Nick_Dissertation_EX1,1,156,2020-06-13T10:10:42-07:00,13.726758003235,4,versionC_stim.csv,READVersionD.csv,"Read Version D","Dissertation, read only version D",GROUND,EARTH,Study2,S,144,164,Test,User,-,,Recall,Recall1,12764,floor,20,6858,9193,0,0,,1
5c4e38f4d3a5e300018363ba,v3bll7aiaz,Nick_Dissertation_EX1,1,157,2020-06-13T10:10:50-07:00,7.4832789897919,4,versionC_stim.csv,READVersionD.csv,"Read Version D","Dissertation, read only version D",CLOTHES,CAKE,Study2,U,166,169,Test,User,-,,Recall,Recall1,6811,sheets,20,3716,4550,0,0,,1
5c4e38f4d3a5e300018363ba,v3bll7aiaz,Nick_Dissertation_EX1,1,158,2020-06-13T10:10:56-07:00,6.5678989887238,4,versionC_stim.csv,READVersionD.csv,"Read Version D","Dissertation, read only version D",SARDINE,FISH,Study2,F,130,107,Test,User,-,,Recall,Recall1,5851,fish,100,2258,3582,1,1,,1
5c4e38f4d3a5e300018363ba,v3bll7aiaz,Nick_Dissertation_EX1,1,159,2020-06-13T10:11:06-07:00,9.5445008277893,4,versionC_stim.csv,READVersionD.csv,"Read Version D","Dissertation, read only version D",ELECTION,MAZE,Study2,U,159,124,Test,User,-,,Recall,Recall1,8879,party,22.222222222222,6279,7314,0,0,,1
5c4e38f4d3a5e300018363ba,v3bll7aiaz,Nick_Dissertation_EX1,1,160,2020-06-13T10:11:13-07:00,7.3116750717163,4,versionC_stim.csv,READVersionD.csv,"Read Version D","Dissertation, read only version D",PANTHER,CAT,Study2,F,126,113,Test,User,-,,Recall,Recall1,6532,cat,100,4633,4928,1,1,,1
5c4e38f4d3a5e300018363ba,v3bll7aiaz,Nick_Dissertation_EX1,1,161,2020-06-13T10:11:21-07:00,7.95055103302,4,versionC_stim.csv,READVersionD.csv,"Read Version D","Dissertation, read only version D",LONELY,ALONE,Study2,S,145,128,Test,User,-,,Recall,Recall1,7267,sad,25,2115,2585,0,0,,1
5c4e38f4d3a5e300018363ba,v3bll7aiaz,Nick_Dissertation_EX1,1,162,2020-06-13T10:11:32-07:00,10.814809083939,4,versionC_stim.csv,READVersionD.csv,"Read Version D","Dissertation, read only version D",TOIL,LEASE,Study2,U,170,138,Test,User,-,,Recall,Recall1,9975,twist,20,6112,7149,0,0,,1
5c4e38f4d3a5e300018363ba,v3bll7aiaz,Nick_Dissertation_EX1,1,163,2020-06-13T10:11:51-07:00,18.790931940079,4,versionC_stim.csv,READVersionD.csv,"Read Version D","Dissertation, read only version D",ABLE,CRACKLE,Study2,U,162,159,Test,User,-,,Recall,Recall1,17983,can,40,16496,16888,0,0,,1
5c4e38f4d3a5e300018363ba,v3bll7aiaz,Nick_Dissertation_EX1,1,164,2020-06-13T10:11:56-07:00,5.6159338951111,4,versionC_stim.csv,READVersionD.csv,"Read Version D","Dissertation, read only version D",TRASH,LITTER,Study2,B,103,122,Test,User,-,,Recall,Recall1,4959,litter,100,2384,3165,1,1,,1
5c4e38f4d3a5e300018363ba,v3bll7aiaz,Nick_Dissertation_EX1,1,165,2020-06-13T10:12:01-07:00,4.9775531291962,4,versionC_stim.csv,READVersionD.csv,"Read Version D","Dissertation, read only version D",LONG,EXTENSION,Study2,B,96,174,Test,User,-,,Recall,Recall1,4247,short,28.571428571429,1886,2952,0,0,,1
5c4e38f4d3a5e300018363ba,v3bll7aiaz,Nick_Dissertation_EX1,1,166,2020-06-13T10:12:07-07:00,5.8208899497986,4,versionC_stim.csv,READVersionD.csv,"Read Version D","Dissertation, read only version D",STRAWBERRY,FRUIT,Study2,F,124,126,Test,User,-,,Recall,Recall1,4974,fruit,100,2369,3056,1,1,,1
5c4e38f4d3a5e300018363ba,v3bll7aiaz,Nick_Dissertation_EX1,1,167,2020-06-13T10:12:21-07:00,14.40361905098,4,versionC_stim.csv,READVersionD.csv,"Read Version D","Dissertation, read only version D",HEAD,SCALP,Study2,B,105,165,Test,User,-,,Recall,Recall1,13616,feet,0,11703,12281,0,0,,1
5c4e38f4d3a5e300018363ba,v3bll7aiaz,Nick_Dissertation_EX1,1,168,2020-06-13T10:12:34-07:00,12.661504030228,4,versionC_stim.csv,READVersionD.csv,"Read Version D","Dissertation, read only version D",BALLOON,POP,Study2,F,123,157,Test,User,-,,Recall,Recall1,11837,burst,0,9359,10152,0,0,,1
5c4e38f4d3a5e300018363ba,v3bll7aiaz,Nick_Dissertation_EX1,1,169,2020-06-13T10:12:41-07:00,7.3385720252991,4,versionC_stim.csv,READVersionD.csv,"Read Version D","Dissertation, read only version D",NOISE,LOUD,Study2,S,152,97,Test,User,-,,Recall,Recall1,6626,loud,100,1839,2570,1,1,,1
5c4e38f4d3a5e300018363ba,v3bll7aiaz,Nick_Dissertation_EX1,1,170,2020-06-13T10:12:50-07:00,9.0084528923035,4,versionC_stim.csv,READVersionD.csv,"Read Version D","Dissertation, read only version D",COFFIN,DEAD,Study2,F,128,170,Test,User,-,,Recall,Recall1,8270,death,66.666666666667,3218,5839,0,0,,1
5c4e38f4d3a5e300018363ba,v3bll7aiaz,Nick_Dissertation_EX1,1,171,2020-06-13T10:12:56-07:00,5.8875670433044,4,versionC_stim.csv,READVersionD.csv,"Read Version D","Dissertation, read only version D",CUT,CHOP,Study2,B,107,147,Test,User,-,,Recall,Recall1,5203,scissors,33.333333333333,2127,3307,0,0,,1
5c4e38f4d3a5e300018363ba,v3bll7aiaz,Nick_Dissertation_EX1,1,172,2020-06-13T10:13:10-07:00,14.125581026077,4,versionC_stim.csv,READVersionD.csv,"Read Version D","Dissertation, read only version D",SIGN,LOAN,Study2,U,171,99,Test,User,-,,Recall,Recall1,13357,road,50,6732,10423,0,0,,1
5c4e38f4d3a5e300018363ba,v3bll7aiaz,Nick_Dissertation_EX1,1,173,2020-06-13T10:13:16-07:00,6.0125458240509,4,versionC_stim.csv,READVersionD.csv,"Read Version D","Dissertation, read only version D",EQUAL,RIGHTS,Study2,S,137,175,Test,User,-,,Recall,Recall1,5343,same,20,1920,2467,0,0,,1
5c4e38f4d3a5e300018363ba,v3bll7aiaz,Nick_Dissertation_EX1,1,174,2020-06-13T10:13:30-07:00,13.24570608139,4,versionC_stim.csv,READVersionD.csv,"Read Version D","Dissertation, read only version D",JAR,MASON,Study2,S,138,172,Test,User,-,,Recall,Recall1,12455,glass,40,9680,10536,0,0,,1
5c4e38f4d3a5e300018363ba,v3bll7aiaz,Nick_Dissertation_EX1,1,175,2020-06-13T10:13:44-07:00,14.176368951797,4,versionC_stim.csv,READVersionD.csv,"Read Version D","Dissertation, read only version D",,,,,,0,Instruct,-,10,"You will now be presented with a new set of word pairs. Please study each pair. Remember that your memory will be tested! When finished, press Enter to move to the next pair.",Initial_Instruct,Instruct4,13364,,,-1,-1,,,,1
5c4e38f4d3a5e300018363ba,v3bll7aiaz,Nick_Dissertation_EX1,1,176,2020-06-13T10:13:47-07:00,2.9520130157471,4,versionC_stim.csv,READVersionD.csv,"Read Version D","Dissertation, read only version D",HIDE,SCARE,BUFFER1,Buffer,4,3,Study,User,-,,Study/JOL,BUFFER3,2246,,,-1,-1,,,,1
5c4e38f4d3a5e300018363ba,v3bll7aiaz,Nick_Dissertation_EX1,1,177,2020-06-13T10:13:51-07:00,4.0161311626434,4,versionC_stim.csv,READVersionD.csv,"Read Version D","Dissertation, read only version D",BUTTER,PEANUT,BUFFER1,Buffer,3,2,Study,User,-,,Study/JOL,BUFFER3,3350,,,-1,-1,,,,1
5c4e38f4d3a5e300018363ba,v3bll7aiaz,Nick_Dissertation_EX1,1,178,2020-06-13T10:13:56-07:00,5.3578670024872,4,versionC_stim.csv,READVersionD.csv,"Read Version D","Dissertation, read only version D",GREEN,TREES,BUFFER1,Buffer,1,5,Study,User,-,,Study/JOL,BUFFER3,4639,,,-1,-1,,,,1
5c4e38f4d3a5e300018363ba,v3bll7aiaz,Nick_Dissertation_EX1,1,179,2020-06-13T10:14:00-07:00,4.3632798194885,4,versionC_stim.csv,READVersionD.csv,"Read Version D","Dissertation, read only version D",JAM,SPACE,BUFFER1,Buffer,5,6,Study,User,-,,Study/JOL,BUFFER3,3728,,,-1,-1,,,,1
5c4e38f4d3a5e300018363ba,v3bll7aiaz,Nick_Dissertation_EX1,1,180,2020-06-13T10:14:05-07:00,4.1868290901184,4,versionC_stim.csv,READVersionD.csv,"Read Version D","Dissertation, read only version D",CATCHER,BASEBALL,BUFFER1,Buffer,2,4,Study,User,-,,Study/JOL,BUFFER3,3520,,,-1,-1,,,,1
5c4e38f4d3a5e300018363ba,v3bll7aiaz,Nick_Dissertation_EX1,1,181,2020-06-13T10:14:08-07:00,3.2399749755859,4,versionC_stim.csv,READVersionD.csv,"Read Version D","Dissertation, read only version D",CHILI,HOT,Study1,F,37,83,Study,User,-,,Study/JOL,"Study Phase2",2591,,,-1,-1,,,,1
5c4e38f4d3a5e300018363ba,v3bll7aiaz,Nick_Dissertation_EX1,1,182,2020-06-13T10:14:11-07:00,3.2407140731812,4,versionC_stim.csv,READVersionD.csv,"Read Version D","Dissertation, read only version D",ADD,VALLEY,Study1,U,82,42,Study,User,-,,Study/JOL,"Study Phase2",2615,,,-1,-1,,,,1
5c4e38f4d3a5e300018363ba,v3bll7aiaz,Nick_Dissertation_EX1,1,183,2020-06-13T10:14:15-07:00,3.4027388095856,4,versionC_stim.csv,READVersionD.csv,"Read Version D","Dissertation, read only version D",DEFINITION,MEANING,Study1,S,62,40,Study,User,-,,Study/JOL,"Study Phase2",2782,,,-1,-1,,,,1
5c4e38f4d3a5e300018363ba,v3bll7aiaz,Nick_Dissertation_EX1,1,184,2020-06-13T10:14:18-07:00,3.6953520774841,4,versionC_stim.csv,READVersionD.csv,"Read Version D","Dissertation, read only version D",FUTURE,PAST,Study1,S,61,8,Study,User,-,,Study/JOL,"Study Phase2",2959,,,-1,-1,,,,1
5c4e38f4d3a5e300018363ba,v3bll7aiaz,Nick_Dissertation_EX1,1,185,2020-06-13T10:14:22-07:00,4.0509979724884,4,versionC_stim.csv,READVersionD.csv,"Read Version D","Dissertation, read only version D",ASSIGNMENT,DUE,Study1,S,46,73,Study,User,-,,Study/JOL,"Study Phase2",3394,,,-1,-1,,,,1
5c4e38f4d3a5e300018363ba,v3bll7aiaz,Nick_Dissertation_EX1,1,186,2020-06-13T10:14:25-07:00,3.1304361820221,4,versionC_stim.csv,READVersionD.csv,"Read Version D","Dissertation, read only version D",END,BEGIN,Study1,S,54,34,Study,User,-,,Study/JOL,"Study Phase2",2481,,,-1,-1,,,,1
5c4e38f4d3a5e300018363ba,v3bll7aiaz,Nick_Dissertation_EX1,1,187,2020-06-13T10:14:28-07:00,2.3098559379578,4,versionC_stim.csv,READVersionD.csv,"Read Version D","Dissertation, read only version D",SITE,LOCATION,Study1,S,48,24,Study,User,-,,Study/JOL,"Study Phase2",1643,,,-1,-1,,,,1
5c4e38f4d3a5e300018363ba,v3bll7aiaz,Nick_Dissertation_EX1,1,188,2020-06-13T10:14:30-07:00,2.6747660636902,4,versionC_stim.csv,READVersionD.csv,"Read Version D","Dissertation, read only version D",SIP,DRINK,Study1,F,27,70,Study,User,-,,Study/JOL,"Study Phase2",1854,,,-1,-1,,,,1
5c4e38f4d3a5e300018363ba,v3bll7aiaz,Nick_Dissertation_EX1,1,189,2020-06-13T10:14:34-07:00,4.0475578308105,4,versionC_stim.csv,READVersionD.csv,"Read Version D","Dissertation, read only version D",BRONZE,ARTERY,Study1,U,74,12,Study,User,-,,Study/JOL,"Study Phase2",3386,,,-1,-1,,,,1
5c4e38f4d3a5e300018363ba,v3bll7aiaz,Nick_Dissertation_EX1,1,190,2020-06-13T10:14:37-07:00,2.5174210071564,4,versionC_stim.csv,READVersionD.csv,"Read Version D","Dissertation, read only version D",STOMACH,DIGESTION,Study1,B,7,43,Study,User,-,,Study/JOL,"Study Phase2",1710,,,-1,-1,,,,1
5c4e38f4d3a5e300018363ba,v3bll7aiaz,Nick_Dissertation_EX1,1,191,2020-06-13T10:14:39-07:00,1.8575291633606,4,versionC_stim.csv,READVersionD.csv,"Read Version D","Dissertation, read only version D",WIND,BLOW,Study1,S,55,13,Study,User,-,,Study/JOL,"Study Phase2",1210,,,-1,-1,,,,1
5c4e38f4d3a5e300018363ba,v3bll7aiaz,Nick_Dissertation_EX1,1,192,2020-06-13T10:14:41-07:00,2.1882519721985,4,versionC_stim.csv,READVersionD.csv,"Read Version D","Dissertation, read only version D",VASE,KING,Study1,U,85,45,Study,User,-,,Study/JOL,"Study Phase2",1504,,,-1,-1,,,,1
5c4e38f4d3a5e300018363ba,v3bll7aiaz,Nick_Dissertation_EX1,1,193,2020-06-13T10:14:43-07:00,2.3287408351898,4,versionC_stim.csv,READVersionD.csv,"Read Version D","Dissertation, read only version D",TOILET,BATHROOM,Study1,S,58,17,Study,User,-,,Study/JOL,"Study Phase2",1599,,,-1,-1,,,,1
5c4e38f4d3a5e300018363ba,v3bll7aiaz,Nick_Dissertation_EX1,1,194,2020-06-13T10:14:49-07:00,5.6610281467438,4,versionC_stim.csv,READVersionD.csv,"Read Version D","Dissertation, read only version D",WOMAN,LIFT,Study1,U,69,63,Study,User,-,,Study/JOL,"Study Phase2",3873,,,-1,-1,,,,1
5c4e38f4d3a5e300018363ba,v3bll7aiaz,Nick_Dissertation_EX1,1,195,2020-06-13T10:14:53-07:00,3.903440952301,4,versionC_stim.csv,READVersionD.csv,"Read Version D","Dissertation, read only version D",CAR,HAPPY,Study1,U,77,38,Study,User,-,,Study/JOL,"Study Phase2",2279,,,-1,-1,,,,1
5c4e38f4d3a5e300018363ba,v3bll7aiaz,Nick_Dissertation_EX1,1,196,2020-06-13T10:14:55-07:00,2.3247458934784,4,versionC_stim.csv,READVersionD.csv,"Read Version D","Dissertation, read only version D",GROWTH,HEIGHT,Study1,F,30,36,Study,User,-,,Study/JOL,"Study Phase2",1717,,,-1,-1,,,,1
5c4e38f4d3a5e300018363ba,v3bll7aiaz,Nick_Dissertation_EX1,1,197,2020-06-13T10:14:59-07:00,3.4606711864471,4,versionC_stim.csv,READVersionD.csv,"Read Version D","Dissertation, read only version D",HUNGRY,PARK,Study1,U,68,68,Study,User,-,,Study/JOL,"Study Phase2",2761,,,-1,-1,,,,1
5c4e38f4d3a5e300018363ba,v3bll7aiaz,Nick_Dissertation_EX1,1,198,2020-06-13T10:15:02-07:00,3.2180418968201,4,versionC_stim.csv,READVersionD.csv,"Read Version D","Dissertation, read only version D",BELT,SOON,Study1,U,70,29,Study,User,-,,Study/JOL,"Study Phase2",2422,,,-1,-1,,,,1
5c4e38f4d3a5e300018363ba,v3bll7aiaz,Nick_Dissertation_EX1,1,199,2020-06-13T10:15:05-07:00,3.0001308917999,4,versionC_stim.csv,READVersionD.csv,"Read Version D","Dissertation, read only version D",LATCH,KEY,Study1,F,36,21,Study,User,-,,Study/JOL,"Study Phase2",2315,,,-1,-1,,,,1
5c4e38f4d3a5e300018363ba,v3bll7aiaz,Nick_Dissertation_EX1,1,200,2020-06-13T10:15:09-07:00,3.8890430927277,4,versionC_stim.csv,READVersionD.csv,"Read Version D","Dissertation, read only version D",TUCK,ALLOW,Study1,U,78,75,Study,User,-,,Study/JOL,"Study Phase2",3228,,,-1,-1,,,,1
5c4e38f4d3a5e300018363ba,v3bll7aiaz,Nick_Dissertation_EX1,1,201,2020-06-13T10:15:12-07:00,2.8375329971313,4,versionC_stim.csv,READVersionD.csv,"Read Version D","Dissertation, read only version D",CLEAN,HYGIENE,Study1,B,17,52,Study,User,-,,Study/JOL,"Study Phase2",2074,,,-1,-1,,,,1
5c4e38f4d3a5e300018363ba,v3bll7aiaz,Nick_Dissertation_EX1,1,202,2020-06-13T10:15:14-07:00,2.7360980510712,4,versionC_stim.csv,READVersionD.csv,"Read Version D","Dissertation, read only version D",SODA,POP,Study1,S,56,22,Study,User,-,,Study/JOL,"Study Phase2",2075,,,-1,-1,,,,1
5c4e38f4d3a5e300018363ba,v3bll7aiaz,Nick_Dissertation_EX1,1,203,2020-06-13T10:15:17-07:00,2.8751058578491,4,versionC_stim.csv,READVersionD.csv,"Read Version D","Dissertation, read only version D",FOOT,SHOE,Study1,S,60,25,Study,User,-,,Study/JOL,"Study Phase2",2200,,,-1,-1,,,,1
5c4e38f4d3a5e300018363ba,v3bll7aiaz,Nick_Dissertation_EX1,1,204,2020-06-13T10:15:21-07:00,3.4980721473694,4,versionC_stim.csv,READVersionD.csv,"Read Version D","Dissertation, read only version D",COW,HERD,Study1,B,22,82,Study,User,-,,Study/JOL,"Study Phase2",2813,,,-1,-1,,,,1
5c4e38f4d3a5e300018363ba,v3bll7aiaz,Nick_Dissertation_EX1,1,205,2020-06-13T10:15:24-07:00,3.0546629428864,4,versionC_stim.csv,READVersionD.csv,"Read Version D","Dissertation, read only version D",FLOOR,DISCOVER,Study1,U,71,30,Study,User,-,,Study/JOL,"Study Phase2",2417,,,-1,-1,,,,1
5c4e38f4d3a5e300018363ba,v3bll7aiaz,Nick_Dissertation_EX1,1,206,2020-06-13T10:15:26-07:00,2.0277190208435,4,versionC_stim.csv,READVersionD.csv,"Read Version D","Dissertation, read only version D",ATTIRE,CLOTHES,Study1,F,43,67,Study,User,-,,Study/JOL,"Study Phase2",1369,,,-1,-1,,,,1
5c4e38f4d3a5e300018363ba,v3bll7aiaz,Nick_Dissertation_EX1,1,207,2020-06-13T10:15:29-07:00,2.8852190971375,4,versionC_stim.csv,READVersionD.csv,"Read Version D","Dissertation, read only version D",STENCH,SMELL,Study1,F,42,31,Study,User,-,,Study/JOL,"Study Phase2",2251,,,-1,-1,,,,1
5c4e38f4d3a5e300018363ba,v3bll7aiaz,Nick_Dissertation_EX1,1,208,2020-06-13T10:15:32-07:00,3.7439649105072,4,versionC_stim.csv,READVersionD.csv,"Read Version D","Dissertation, read only version D",SIGHT,DEBATE,Study1,U,73,26,Study,User,-,,Study/JOL,"Study Phase2",2129,,,-1,-1,,,,1
5c4e38f4d3a5e300018363ba,v3bll7aiaz,Nick_Dissertation_EX1,1,209,2020-06-13T10:15:35-07:00,2.693657875061,4,versionC_stim.csv,READVersionD.csv,"Read Version D","Dissertation, read only version D",MONEY,WAGE,Study1,B,8,11,Study,User,-,,Study/JOL,"Study Phase2",1984,,,-1,-1,,,,1
5c4e38f4d3a5e300018363ba,v3bll7aiaz,Nick_Dissertation_EX1,1,210,2020-06-13T10:15:38-07:00,2.5342860221863,4,versionC_stim.csv,READVersionD.csv,"Read Version D","Dissertation, read only version D",AMOUNT,NUMBER,Study1,S,47,62,Study,User,-,,Study/JOL,"Study Phase2",1902,,,-1,-1,,,,1
5c4e38f4d3a5e300018363ba,v3bll7aiaz,Nick_Dissertation_EX1,1,211,2020-06-13T10:15:40-07:00,2.4500451087952,4,versionC_stim.csv,READVersionD.csv,"Read Version D","Dissertation, read only version D",CHILD,BABY,Study1,S,64,10,Study,User,-,,Study/JOL,"Study Phase2",1712,,,-1,-1,,,,1
5c4e38f4d3a5e300018363ba,v3bll7aiaz,Nick_Dissertation_EX1,1,212,2020-06-13T10:15:44-07:00,4.3252708911896,4,versionC_stim.csv,READVersionD.csv,"Read Version D","Dissertation, read only version D",WAR,REVOLUTION,Study1,B,20,85,Study,User,-,,Study/JOL,"Study Phase2",3668,,,-1,-1,,,,1
5c4e38f4d3a5e300018363ba,v3bll7aiaz,Nick_Dissertation_EX1,1,213,2020-06-13T10:15:47-07:00,2.4513251781464,4,versionC_stim.csv,READVersionD.csv,"Read Version D","Dissertation, read only version D",DROWSY,SLEEP,Study1,F,41,20,Study,User,-,,Study/JOL,"Study Phase2",1815,,,-1,-1,,,,1
5c4e38f4d3a5e300018363ba,v3bll7aiaz,Nick_Dissertation_EX1,1,214,2020-06-13T10:15:49-07:00,2.3679528236389,4,versionC_stim.csv,READVersionD.csv,"Read Version D","Dissertation, read only version D",STING,HORNET,Study1,B,11,15,Study,User,-,,Study/JOL,"Study Phase2",1559,,,-1,-1,,,,1
5c4e38f4d3a5e300018363ba,v3bll7aiaz,Nick_Dissertation_EX1,1,215,2020-06-13T10:15:52-07:00,2.7738091945648,4,versionC_stim.csv,READVersionD.csv,"Read Version D","Dissertation, read only version D",CHEESE,WINE,Study1,S,57,64,Study,User,-,,Study/JOL,"Study Phase2",1975,,,-1,-1,,,,1
5c4e38f4d3a5e300018363ba,v3bll7aiaz,Nick_Dissertation_EX1,1,216,2020-06-13T10:15:54-07:00,2.323529958725,4,versionC_stim.csv,READVersionD.csv,"Read Version D","Dissertation, read only version D",SALAD,LETTUCE,Study1,S,59,53,Study,User,-,,Study/JOL,"Study Phase2",1600,,,-1,-1,,,,1
5c4e38f4d3a5e300018363ba,v3bll7aiaz,Nick_Dissertation_EX1,1,217,2020-06-13T10:15:58-07:00,3.5526080131531,4,versionC_stim.csv,READVersionD.csv,"Read Version D","Dissertation, read only version D",HAND,FIX,Study1,U,75,77,Study,User,-,,Study/JOL,"Study Phase2",2739,,,-1,-1,,,,1
5c4e38f4d3a5e300018363ba,v3bll7aiaz,Nick_Dissertation_EX1,1,218,2020-06-13T10:16:01-07:00,2.6086649894714,4,versionC_stim.csv,READVersionD.csv,"Read Version D","Dissertation, read only version D",FANTASTIC,GREAT,Study1,F,35,49,Study,User,-,,Study/JOL,"Study Phase2",1895,,,-1,-1,,,,1
5c4e38f4d3a5e300018363ba,v3bll7aiaz,Nick_Dissertation_EX1,1,219,2020-06-13T10:16:03-07:00,2.6614799499512,4,versionC_stim.csv,READVersionD.csv,"Read Version D","Dissertation, read only version D",DIVISION,MATH,Study1,F,33,14,Study,User,-,,Study/JOL,"Study Phase2",1990,,,-1,-1,,,,1
5c4e38f4d3a5e300018363ba,v3bll7aiaz,Nick_Dissertation_EX1,1,220,2020-06-13T10:16:06-07:00,2.7203319072723,4,versionC_stim.csv,READVersionD.csv,"Read Version D","Dissertation, read only version D",HAMMER,CHISEL,Study1,B,9,44,Study,User,-,,Study/JOL,"Study Phase2",2021,,,-1,-1,,,,1
5c4e38f4d3a5e300018363ba,v3bll7aiaz,Nick_Dissertation_EX1,1,221,2020-06-13T10:16:09-07:00,2.8132131099701,4,versionC_stim.csv,READVersionD.csv,"Read Version D","Dissertation, read only version D",WATER,BRIDGE,Study1,B,18,61,Study,User,-,,Study/JOL,"Study Phase2",2135,,,-1,-1,,,,1
5c4e38f4d3a5e300018363ba,v3bll7aiaz,Nick_Dissertation_EX1,1,222,2020-06-13T10:16:11-07:00,2.5833480358124,4,versionC_stim.csv,READVersionD.csv,"Read Version D","Dissertation, read only version D",CAVE,DARK,Study1,F,28,72,Study,User,-,,Study/JOL,"Study Phase2",1930,,,-1,-1,,,,1
5c4e38f4d3a5e300018363ba,v3bll7aiaz,Nick_Dissertation_EX1,1,223,2020-06-13T10:16:14-07:00,3.1338109970093,4,versionC_stim.csv,READVersionD.csv,"Read Version D","Dissertation, read only version D",LION,ART,Study1,U,79,23,Study,User,-,,Study/JOL,"Study Phase2",2435,,,-1,-1,,,,1
5c4e38f4d3a5e300018363ba,v3bll7aiaz,Nick_Dissertation_EX1,1,224,2020-06-13T10:16:17-07:00,2.560879945755,4,versionC_stim.csv,READVersionD.csv,"Read Version D","Dissertation, read only version D",TALK,DISCUSSION,Study1,B,21,58,Study,User,-,,Study/JOL,"Study Phase2",1894,,,-1,-1,,,,1
5c4e38f4d3a5e300018363ba,v3bll7aiaz,Nick_Dissertation_EX1,1,225,2020-06-13T10:16:20-07:00,3.4216620922089,4,versionC_stim.csv,READVersionD.csv,"Read Version D","Dissertation, read only version D",OUT,WAY,Study1,B,16,50,Study,User,-,,Study/JOL,"Study Phase2",2735,,,-1,-1,,,,1
5c4e38f4d3a5e300018363ba,v3bll7aiaz,Nick_Dissertation_EX1,1,226,2020-06-13T10:16:23-07:00,2.773708820343,4,versionC_stim.csv,READVersionD.csv,"Read Version D","Dissertation, read only version D",ROCK,GEOLOGY,Study1,B,19,66,Study,User,-,,Study/JOL,"Study Phase2",2107,,,-1,-1,,,,1
5c4e38f4d3a5e300018363ba,v3bll7aiaz,Nick_Dissertation_EX1,1,227,2020-06-13T10:16:26-07:00,2.3298301696777,4,versionC_stim.csv,READVersionD.csv,"Read Version D","Dissertation, read only version D",LIVER,KIDNEY,Study1,S,53,56,Study,User,-,,Study/JOL,"Study Phase2",1624,,,-1,-1,,,,1
5c4e38f4d3a5e300018363ba,v3bll7aiaz,Nick_Dissertation_EX1,1,228,2020-06-13T10:16:28-07:00,1.9748778343201,4,versionC_stim.csv,READVersionD.csv,"Read Version D","Dissertation, read only version D",FISH,TUNA,Study1,B,25,33,Study,User,-,,Study/JOL,"Study Phase2",1291,,,-1,-1,,,,1
5c4e38f4d3a5e300018363ba,v3bll7aiaz,Nick_Dissertation_EX1,1,229,2020-06-13T10:16:30-07:00,2.3263120651245,4,versionC_stim.csv,READVersionD.csv,"Read Version D","Dissertation, read only version D",BLAZE,FIRE,Study1,F,45,71,Study,User,-,,Study/JOL,"Study Phase2",1571,,,-1,-1,,,,1
5c4e38f4d3a5e300018363ba,v3bll7aiaz,Nick_Dissertation_EX1,1,230,2020-06-13T10:16:32-07:00,2.4080350399017,4,versionC_stim.csv,READVersionD.csv,"Read Version D","Dissertation, read only version D",CHORE,WORK,Study1,F,39,9,Study,User,-,,Study/JOL,"Study Phase2",1607,,,-1,-1,,,,1
5c4e38f4d3a5e300018363ba,v3bll7aiaz,Nick_Dissertation_EX1,1,231,2020-06-13T10:16:34-07:00,2.0131840705872,4,versionC_stim.csv,READVersionD.csv,"Read Version D","Dissertation, read only version D",COLD,BITTER,Study1,B,12,39,Study,User,-,,Study/JOL,"Study Phase2",1381,,,-1,-1,,,,1
5c4e38f4d3a5e300018363ba,v3bll7aiaz,Nick_Dissertation_EX1,1,232,2020-06-13T10:16:36-07:00,2.1663057804108,4,versionC_stim.csv,READVersionD.csv,"Read Version D","Dissertation, read only version D",WASP,BUG,Study1,F,32,51,Study,User,-,,Study/JOL,"Study Phase2",1513,,,-1,-1,,,,1
5c4e38f4d3a5e300018363ba,v3bll7aiaz,Nick_Dissertation_EX1,1,233,2020-06-13T10:16:39-07:00,2.1361231803894,4,versionC_stim.csv,READVersionD.csv,"Read Version D","Dissertation, read only version D",BIRD,SWAN,Study1,B,14,47,Study,User,-,,Study/JOL,"Study Phase2",1504,,,-1,-1,,,,1
5c4e38f4d3a5e300018363ba,v3bll7aiaz,Nick_Dissertation_EX1,1,234,2020-06-13T10:16:41-07:00,2.2303948402405,4,versionC_stim.csv,READVersionD.csv,"Read Version D","Dissertation, read only version D",RACKET,BALL,Study1,F,38,80,Study,User,-,,Study/JOL,"Study Phase2",1550,,,-1,-1,,,,1
5c4e38f4d3a5e300018363ba,v3bll7aiaz,Nick_Dissertation_EX1,1,235,2020-06-13T10:16:43-07:00,2.1411490440369,4,versionC_stim.csv,READVersionD.csv,"Read Version D","Dissertation, read only version D",ATTORNEY,LAW,Study1,F,34,18,Study,User,-,,Study/JOL,"Study Phase2",1495,,,-1,-1,,,,1
5c4e38f4d3a5e300018363ba,v3bll7aiaz,Nick_Dissertation_EX1,1,236,2020-06-13T10:16:46-07:00,3.1424059867859,4,versionC_stim.csv,READVersionD.csv,"Read Version D","Dissertation, read only version D",DESIGN,ARCHITECTURE,Study1,S,51,19,Study,User,-,,Study/JOL,"Study Phase2",1446,,,-1,-1,,,,1
5c4e38f4d3a5e300018363ba,v3bll7aiaz,Nick_Dissertation_EX1,1,237,2020-06-13T10:16:48-07:00,2.2258031368256,4,versionC_stim.csv,READVersionD.csv,"Read Version D","Dissertation, read only version D",DOG,PAW,Study1,B,15,57,Study,User,-,,Study/JOL,"Study Phase2",1489,,,-1,-1,,,,1
5c4e38f4d3a5e300018363ba,v3bll7aiaz,Nick_Dissertation_EX1,1,238,2020-06-13T10:16:51-07:00,2.3281240463257,4,versionC_stim.csv,READVersionD.csv,"Read Version D","Dissertation, read only version D",FLOWER,ORCHID,Study1,B,24,35,Study,User,-,,Study/JOL,"Study Phase2",1630,,,-1,-1,,,,1
5c4e38f4d3a5e300018363ba,v3bll7aiaz,Nick_Dissertation_EX1,1,239,2020-06-13T10:16:53-07:00,1.9409458637238,4,versionC_stim.csv,READVersionD.csv,"Read Version D","Dissertation, read only version D",WORD,SENTENCE,Study1,F,31,74,Study,User,-,,Study/JOL,"Study Phase2",1255,,,-1,-1,,,,1
5c4e38f4d3a5e300018363ba,v3bll7aiaz,Nick_Dissertation_EX1,1,240,2020-06-13T10:16:54-07:00,1.6461000442505,4,versionC_stim.csv,READVersionD.csv,"Read Version D","Dissertation, read only version D",NEWS,EDITOR,Study1,B,10,27,Study,User,-,,Study/JOL,"Study Phase2",1013,,,-1,-1,,,,1
5c4e38f4d3a5e300018363ba,v3bll7aiaz,Nick_Dissertation_EX1,1,241,2020-06-13T10:16:57-07:00,2.585254907608,4,versionC_stim.csv,READVersionD.csv,"Read Version D","Dissertation, read only version D",WOULD,CASH,Study1,U,83,69,Study,User,-,,Study/JOL,"Study Phase2",1883,,,-1,-1,,,,1
5c4e38f4d3a5e300018363ba,v3bll7aiaz,Nick_Dissertation_EX1,1,242,2020-06-13T10:16:59-07:00,1.9037990570068,4,versionC_stim.csv,READVersionD.csv,"Read Version D","Dissertation, read only version D",JURY,TRIAL,Study1,S,50,60,Study,User,-,,Study/JOL,"Study Phase2",1265,,,-1,-1,,,,1
5c4e38f4d3a5e300018363ba,v3bll7aiaz,Nick_Dissertation_EX1,1,243,2020-06-13T10:17:01-07:00,2.394366979599,4,versionC_stim.csv,READVersionD.csv,"Read Version D","Dissertation, read only version D",WASTE,DUMP,Study1,S,49,86,Study,User,-,,Study/JOL,"Study Phase2",1636,,,-1,-1,,,,1
5c4e38f4d3a5e300018363ba,v3bll7aiaz,Nick_Dissertation_EX1,1,244,2020-06-13T10:17:04-07:00,2.4478900432587,4,versionC_stim.csv,READVersionD.csv,"Read Version D","Dissertation, read only version D",POSITION,MACHINE,Study1,U,76,78,Study,User,-,,Study/JOL,"Study Phase2",1703,,,-1,-1,,,,1
5c4e38f4d3a5e300018363ba,v3bll7aiaz,Nick_Dissertation_EX1,1,245,2020-06-13T10:17:06-07:00,2.3409030437469,4,versionC_stim.csv,READVersionD.csv,"Read Version D","Dissertation, read only version D",FAMINE,HUNGER,Study1,F,40,59,Study,User,-,,Study/JOL,"Study Phase2",1522,,,-1,-1,,,,1
5c4e38f4d3a5e300018363ba,v3bll7aiaz,Nick_Dissertation_EX1,1,246,2020-06-13T10:17:08-07:00,2.2060489654541,4,versionC_stim.csv,READVersionD.csv,"Read Version D","Dissertation, read only version D",SACKING,DIETARY,Study1,U,67,32,Study,User,-,,Study/JOL,"Study Phase2",1537,,,-1,-1,,,,1
5c4e38f4d3a5e300018363ba,v3bll7aiaz,Nick_Dissertation_EX1,1,247,2020-06-13T10:17:10-07:00,1.9825909137726,4,versionC_stim.csv,READVersionD.csv,"Read Version D","Dissertation, read only version D",PILOT,PLANE,Study1,F,44,65,Study,User,-,,Study/JOL,"Study Phase2",1297,,,-1,-1,,,,1
5c4e38f4d3a5e300018363ba,v3bll7aiaz,Nick_Dissertation_EX1,1,248,2020-06-13T10:17:13-07:00,3.0187599658966,4,versionC_stim.csv,READVersionD.csv,"Read Version D","Dissertation, read only version D",SICK,HIDE,Study1,U,84,41,Study,User,-,,Study/JOL,"Study Phase2",2371,,,-1,-1,,,,1
5c4e38f4d3a5e300018363ba,v3bll7aiaz,Nick_Dissertation_EX1,1,249,2020-06-13T10:17:16-07:00,2.5629451274872,4,versionC_stim.csv,READVersionD.csv,"Read Version D","Dissertation, read only version D",SEIZE,TAKE,Study1,F,29,16,Study,User,-,,Study/JOL,"Study Phase2",1893,,,-1,-1,,,,1
5c4e38f4d3a5e300018363ba,v3bll7aiaz,Nick_Dissertation_EX1,1,250,2020-06-13T10:17:18-07:00,2.482675075531,4,versionC_stim.csv,READVersionD.csv,"Read Version D","Dissertation, read only version D",RIDDLE,SUGAR,Study1,U,81,48,Study,User,-,,Study/JOL,"Study Phase2",1850,,,-1,-1,,,,1
5c4e38f4d3a5e300018363ba,v3bll7aiaz,Nick_Dissertation_EX1,1,251,2020-06-13T10:17:21-07:00,2.4153130054474,4,versionC_stim.csv,READVersionD.csv,"Read Version D","Dissertation, read only version D",BAR,GRILL,Study1,S,52,46,Study,User,-,,Study/JOL,"Study Phase2",1749,,,-1,-1,,,,1
5c4e38f4d3a5e300018363ba,v3bll7aiaz,Nick_Dissertation_EX1,1,252,2020-06-13T10:17:23-07:00,2.3267138004303,4,versionC_stim.csv,READVersionD.csv,"Read Version D","Dissertation, read only version D",BEE,HONEY,Study1,S,63,28,Study,User,-,,Study/JOL,"Study Phase2",1674,,,-1,-1,,,,1
5c4e38f4d3a5e300018363ba,v3bll7aiaz,Nick_Dissertation_EX1,1,253,2020-06-13T10:17:25-07:00,2.3381581306458,4,versionC_stim.csv,READVersionD.csv,"Read Version D","Dissertation, read only version D",CARD,CREDIT,Study1,B,23,54,Study,User,-,,Study/JOL,"Study Phase2",1636,,,-1,-1,,,,1
5c4e38f4d3a5e300018363ba,v3bll7aiaz,Nick_Dissertation_EX1,1,254,2020-06-13T10:17:31-07:00,5.5858578681946,4,versionC_stim.csv,READVersionD.csv,"Read Version D","Dissertation, read only version D",ENOUGH,FULL,Study1,F,26,81,Study,User,-,,Study/JOL,"Study Phase2",4807,,,-1,-1,,,,1
5c4e38f4d3a5e300018363ba,v3bll7aiaz,Nick_Dissertation_EX1,1,255,2020-06-13T10:17:33-07:00,1.7808310985565,4,versionC_stim.csv,READVersionD.csv,"Read Version D","Dissertation, read only version D",ROUND,CIRCLE,Study1,S,65,76,Study,User,-,,Study/JOL,"Study Phase2",1080,,,-1,-1,,,,1
5c4e38f4d3a5e300018363ba,v3bll7aiaz,Nick_Dissertation_EX1,1,256,2020-06-13T10:17:34-07:00,1.7347919940948,4,versionC_stim.csv,READVersionD.csv,"Read Version D","Dissertation, read only version D",ACCIDENT,STRONG,Study1,U,80,37,Study,User,-,,Study/JOL,"Study Phase2",1044,,,-1,-1,,,,1
5c4e38f4d3a5e300018363ba,v3bll7aiaz,Nick_Dissertation_EX1,1,257,2020-06-13T10:17:36-07:00,1.9288439750671,4,versionC_stim.csv,READVersionD.csv,"Read Version D","Dissertation, read only version D",BUSINESS,DEATH,Study1,U,72,55,Study,User,-,,Study/JOL,"Study Phase2",1273,,,-1,-1,,,,1
5c4e38f4d3a5e300018363ba,v3bll7aiaz,Nick_Dissertation_EX1,1,258,2020-06-13T10:17:38-07:00,2.035572052002,4,versionC_stim.csv,READVersionD.csv,"Read Version D","Dissertation, read only version D",PLANT,ROOT,Study1,B,13,7,Study,User,-,,Study/JOL,"Study Phase2",1344,,,-1,-1,,,,1
5c4e38f4d3a5e300018363ba,v3bll7aiaz,Nick_Dissertation_EX1,1,259,2020-06-13T10:17:40-07:00,2.1873750686646,4,versionC_stim.csv,READVersionD.csv,"Read Version D","Dissertation, read only version D",CLUTTER,PUSHER,Study1,U,66,79,Study,User,-,,Study/JOL,"Study Phase2",1511,,,-1,-1,,,,1
5c4e38f4d3a5e300018363ba,v3bll7aiaz,Nick_Dissertation_EX1,1,260,2020-06-13T10:17:43-07:00,2.1506888866425,4,versionC_stim.csv,READVersionD.csv,"Read Version D","Dissertation, read only version D",BAD,DELINQUENT,Study1,B,6,84,Study,User,-,,Study/JOL,"Study Phase2",1460,,,-1,-1,,,,1
5c4e38f4d3a5e300018363ba,v3bll7aiaz,Nick_Dissertation_EX1,1,261,2020-06-13T10:17:45-07:00,2.14173412323,4,versionC_stim.csv,READVersionD.csv,"Read Version D","Dissertation, read only version D",SPACE,MOON,BUFFER2,Buffer,89,90,Study,User,-,,Study/JOL,BUFFER4,1448,,,-1,-1,,,,1
5c4e38f4d3a5e300018363ba,v3bll7aiaz,Nick_Dissertation_EX1,1,262,2020-06-13T10:17:47-07:00,2.3198897838593,4,versionC_stim.csv,READVersionD.csv,"Read Version D","Dissertation, read only version D",STUFF,THING,BUFFER2,Buffer,90,91,Study,User,-,,Study/JOL,BUFFER4,1637,,,-1,-1,,,,1
5c4e38f4d3a5e300018363ba,v3bll7aiaz,Nick_Dissertation_EX1,1,263,2020-06-13T10:17:49-07:00,1.9179232120514,4,versionC_stim.csv,READVersionD.csv,"Read Version D","Dissertation, read only version D",POLICE,SHERRIF,BUFFER2,Buffer,87,89,Study,User,-,,Study/JOL,BUFFER4,1218,,,-1,-1,,,,1
5c4e38f4d3a5e300018363ba,v3bll7aiaz,Nick_Dissertation_EX1,1,264,2020-06-13T10:17:54-07:00,5.2824578285217,4,versionC_stim.csv,READVersionD.csv,"Read Version D","Dissertation, read only version D",CHOCOLATE,MALT,BUFFER2,Buffer,88,88,Study,User,-,,Study/JOL,BUFFER4,4580,,,-1,-1,,,,1
5c4e38f4d3a5e300018363ba,v3bll7aiaz,Nick_Dissertation_EX1,1,265,2020-06-13T10:17:57-07:00,2.3265581130981,4,versionC_stim.csv,READVersionD.csv,"Read Version D","Dissertation, read only version D",GOOSE,GEESE,BUFFER2,Buffer,86,87,Study,User,-,,Study/JOL,BUFFER4,1665,,,-1,-1,,,,1
5c4e38f4d3a5e300018363ba,v3bll7aiaz,Nick_Dissertation_EX1,1,266,2020-06-13T10:18:00-07:00,3.5609738826752,4,versionC_stim.csv,READVersionD.csv,"Read Version D","Dissertation, read only version D",,,,,,0,Instruct,User,-,"You have completed this section. Please press Enter.",Filler_Instruction,Instruct5,2741,,,-1,-1,,,,1
5c4e38f4d3a5e300018363ba,v3bll7aiaz,Nick_Dissertation_EX1,1,267,2020-06-13T10:20:01-07:00,120.86161017418,4,versionC_stim.csv,READVersionD.csv,"Read Version D","Dissertation, read only version D",,,,,,0,FreeRecall,120,120,"Please list the 50 US states in reverse alphabetical order (z - a). The task will automatically advance to the next screen after two minutes.",,Filler2,120028,"wisconsin, texas, tampa, ohio, nevada, michigan, missouri, ",0,17673,105121,0,0,,1
5c4e38f4d3a5e300018363ba,v3bll7aiaz,Nick_Dissertation_EX1,1,268,2020-06-13T10:20:15-07:00,13.51665687561,4,versionC_stim.csv,READVersionD.csv,"Read Version D","Dissertation, read only version D",,,,,,0,Instruct,-,10,"You will now be presented with the first word from each of the previously studied item pairs. Please type the missing word. If you do not know the word, you may guess or press Enter to skip forward to the next pair.",,Instruct6,12534,,,-1,-1,,,,1
5c4e38f4d3a5e300018363ba,v3bll7aiaz,Nick_Dissertation_EX1,1,269,2020-06-13T10:20:31-07:00,16.110561132431,4,versionC_stim.csv,READVersionD.csv,"Read Version D","Dissertation, read only version D",FLOWER,ORCHID,Study1,B,24,35,Test,User,-,,Recall,Recall2,15307,plant,0,12923,13988,0,0,,1
5c4e38f4d3a5e300018363ba,v3bll7aiaz,Nick_Dissertation_EX1,1,270,2020-06-13T10:20:43-07:00,11.957613945007,4,versionC_stim.csv,READVersionD.csv,"Read Version D","Dissertation, read only version D",CLUTTER,PUSHER,Study1,U,66,79,Test,User,-,,Recall,Recall2,11127,messy,18.181818181818,9013,9806,0,0,,1
5c4e38f4d3a5e300018363ba,v3bll7aiaz,Nick_Dissertation_EX1,1,271,2020-06-13T10:20:49-07:00,6.4739739894867,4,versionC_stim.csv,READVersionD.csv,"Read Version D","Dissertation, read only version D",CHORE,WORK,Study1,F,39,9,Test,User,-,,Recall,Recall2,5807,work,100,2112,3168,1,1,,1
5c4e38f4d3a5e300018363ba,v3bll7aiaz,Nick_Dissertation_EX1,1,272,2020-06-13T10:21:03-07:00,13.810616016388,4,versionC_stim.csv,READVersionD.csv,"Read Version D","Dissertation, read only version D",BAD,DELINQUENT,Study1,B,6,84,Test,User,-,,Recall,Recall2,12974,taste,13.333333333333,10622,11698,0,0,,1
5c4e38f4d3a5e300018363ba,v3bll7aiaz,Nick_Dissertation_EX1,1,273,2020-06-13T10:21:21-07:00,18.083030939102,4,versionC_stim.csv,READVersionD.csv,"Read Version D","Dissertation, read only version D",TALK,DISCUSSION,Study1,B,21,58,Test,User,-,,Recall,Recall2,17276,speak,13.333333333333,13334,15879,0,0,,1
5c4e38f4d3a5e300018363ba,v3bll7aiaz,Nick_Dissertation_EX1,1,274,2020-06-13T10:21:30-07:00,8.5814950466156,4,versionC_stim.csv,READVersionD.csv,"Read Version D","Dissertation, read only version D",VASE,KING,Study1,U,85,45,Test,User,-,,Recall,Recall2,7870,flowers,0,4666,6686,0,0,,1
5c4e38f4d3a5e300018363ba,v3bll7aiaz,Nick_Dissertation_EX1,1,275,2020-06-13T10:21:47-07:00,17.855581045151,4,versionC_stim.csv,READVersionD.csv,"Read Version D","Dissertation, read only version D",SALAD,LETTUCE,Study1,S,59,53,Test,User,-,,Recall,Recall2,17056,lettuce,100,12998,15385,1,1,,1
5c4e38f4d3a5e300018363ba,v3bll7aiaz,Nick_Dissertation_EX1,1,276,2020-06-13T10:22:14-07:00,26.49252986908,4,versionC_stim.csv,READVersionD.csv,"Read Version D","Dissertation, read only version D",FISH,TUNA,Study1,B,25,33,Test,User,-,,Recall,Recall2,25655,haddock,18.181818181818,20379,24392,0,0,,1
5c4e38f4d3a5e300018363ba,v3bll7aiaz,Nick_Dissertation_EX1,1,277,2020-06-13T10:22:22-07:00,8.127149105072,4,versionC_stim.csv,READVersionD.csv,"Read Version D","Dissertation, read only version D",POSITION,MACHINE,Study1,U,76,78,Test,User,-,,Recall,Recall2,7405,placed,46.153846153846,4864,5740,0,0,,1
5c4e38f4d3a5e300018363ba,v3bll7aiaz,Nick_Dissertation_EX1,1,278,2020-06-13T10:22:27-07:00,5.0973048210144,4,versionC_stim.csv,READVersionD.csv,"Read Version D","Dissertation, read only version D",DEFINITION,MEANING,Study1,S,62,40,Test,User,-,,Recall,Recall2,4335,meaning,100,2054,3061,1,1,,1
5c4e38f4d3a5e300018363ba,v3bll7aiaz,Nick_Dissertation_EX1,1,279,2020-06-13T10:22:33-07:00,5.6996002197266,4,versionC_stim.csv,READVersionD.csv,"Read Version D","Dissertation, read only version D",SIP,DRINK,Study1,F,27,70,Test,User,-,,Recall,Recall2,4962,drink,100,2764,3517,1,1,,1
5c4e38f4d3a5e300018363ba,v3bll7aiaz,Nick_Dissertation_EX1,1,280,2020-06-13T10:22:38-07:00,5.0241417884827,4,versionC_stim.csv,READVersionD.csv,"Read Version D","Dissertation, read only version D",LIVER,KIDNEY,Study1,S,53,56,Test,User,-,,Recall,Recall2,4372,kidney,100,1827,2826,1,1,,1
5c4e38f4d3a5e300018363ba,v3bll7aiaz,Nick_Dissertation_EX1,1,281,2020-06-13T10:22:46-07:00,8.4516060352325,4,versionC_stim.csv,READVersionD.csv,"Read Version D","Dissertation, read only version D",TOILET,BATHROOM,Study1,S,58,17,Test,User,-,,Recall,Recall2,7714,bathroom,100,4256,5468,1,1,,1
5c4e38f4d3a5e300018363ba,v3bll7aiaz,Nick_Dissertation_EX1,1,282,2020-06-13T10:22:59-07:00,13.167236089706,4,versionC_stim.csv,READVersionD.csv,"Read Version D","Dissertation, read only version D",SITE,LOCATION,Study1,S,48,24,Test,User,-,,Recall,Recall2,12240,place,30.769230769231,8563,9731,0,0,,1
5c4e38f4d3a5e300018363ba,v3bll7aiaz,Nick_Dissertation_EX1,1,283,2020-06-13T10:23:07-07:00,7.7168090343475,4,versionC_stim.csv,READVersionD.csv,"Read Version D","Dissertation, read only version D",HAND,FIX,Study1,U,75,77,Test,User,-,,Recall,Recall2,6945,feet,28.571428571429,4059,4698,0,0,,1
5c4e38f4d3a5e300018363ba,v3bll7aiaz,Nick_Dissertation_EX1,1,284,2020-06-13T10:23:12-07:00,4.4581909179688,4,versionC_stim.csv,READVersionD.csv,"Read Version D","Dissertation, read only version D",FUTURE,PAST,Study1,S,61,8,Test,User,-,,Recall,Recall2,3730,past,100,1860,2541,1,1,,1
5c4e38f4d3a5e300018363ba,v3bll7aiaz,Nick_Dissertation_EX1,1,285,2020-06-13T10:23:17-07:00,4.8763790130615,4,versionC_stim.csv,READVersionD.csv,"Read Version D","Dissertation, read only version D",CAVE,DARK,Study1,F,28,72,Test,User,-,,Recall,Recall2,4157,dark,100,2243,2899,1,1,,1
5c4e38f4d3a5e300018363ba,v3bll7aiaz,Nick_Dissertation_EX1,1,286,2020-06-13T10:23:26-07:00,9.3491060733795,4,versionC_stim.csv,READVersionD.csv,"Read Version D","Dissertation, read only version D",OUT,WAY,Study1,B,16,50,Test,User,-,,Recall,Recall2,8650,enter,0,3079,7001,0,0,,1
5c4e38f4d3a5e300018363ba,v3bll7aiaz,Nick_Dissertation_EX1,1,287,2020-06-13T10:23:34-07:00,8.0467808246613,4,versionC_stim.csv,READVersionD.csv,"Read Version D","Dissertation, read only version D",WASTE,DUMP,Study1,S,49,86,Test,User,-,,Recall,Recall2,7382,rubbish,18.181818181818,2506,4239,0,0,,1
5c4e38f4d3a5e300018363ba,v3bll7aiaz,Nick_Dissertation_EX1,1,288,2020-06-13T10:23:52-07:00,18.285755157471,4,versionC_stim.csv,READVersionD.csv,"Read Version D","Dissertation, read only version D",NEWS,EDITOR,Study1,B,10,27,Test,User,-,,Recall,Recall2,17530,communications,10,10654,14313,0,0,,1
5c4e38f4d3a5e300018363ba,v3bll7aiaz,Nick_Dissertation_EX1,1,289,2020-06-13T10:23:58-07:00,5.6443438529968,4,versionC_stim.csv,READVersionD.csv,"Read Version D","Dissertation, read only version D",FAMINE,HUNGER,Study1,F,40,59,Test,User,-,,Recall,Recall2,4910,hungry,83.333333333333,2387,3407,0,1,,1
5c4e38f4d3a5e300018363ba,v3bll7aiaz,Nick_Dissertation_EX1,1,290,2020-06-13T10:24:05-07:00,6.666412115097,4,versionC_stim.csv,READVersionD.csv,"Read Version D","Dissertation, read only version D",BLAZE,FIRE,Study1,F,45,71,Test,User,-,,Recall,Recall2,5967,fire,100,3705,4319,1,1,,1
5c4e38f4d3a5e300018363ba,v3bll7aiaz,Nick_Dissertation_EX1,1,291,2020-06-13T10:24:24-07:00,19.526922941208,4,versionC_stim.csv,READVersionD.csv,"Read Version D","Dissertation, read only version D",WIND,BLOW,Study1,S,55,13,Test,User,-,,Recall,Recall2,18680,weather,18.181818181818,15861,16964,0,0,,1
5c4e38f4d3a5e300018363ba,v3bll7aiaz,Nick_Dissertation_EX1,1,292,2020-06-13T10:24:31-07:00,6.8413419723511,4,versionC_stim.csv,READVersionD.csv,"Read Version D","Dissertation, read only version D",STENCH,SMELL,Study1,F,42,31,Test,User,-,,Recall,Recall2,6143,smelly,90.909090909091,2356,3330,0,1,,1
5c4e38f4d3a5e300018363ba,v3bll7aiaz,Nick_Dissertation_EX1,1,293,2020-06-13T10:24:50-07:00,18.753444194794,4,versionC_stim.csv,READVersionD.csv,"Read Version D","Dissertation, read only version D",SACKING,DIETARY,Study1,U,67,32,Test,User,-,,Recall,Recall2,17863,leaving,28.571428571429,13802,16120,0,0,,1
5c4e38f4d3a5e300018363ba,v3bll7aiaz,Nick_Dissertation_EX1,1,294,2020-06-13T10:24:57-07:00,7.3875777721405,4,versionC_stim.csv,READVersionD.csv,"Read Version D","Dissertation, read only version D",CLEAN,HYGIENE,Study1,B,17,52,Test,User,-,,Recall,Recall2,6664,dirty,16.666666666667,3693,4906,0,0,,1
5c4e38f4d3a5e300018363ba,v3bll7aiaz,Nick_Dissertation_EX1,1,295,2020-06-13T10:25:15-07:00,17.947136163712,4,versionC_stim.csv,READVersionD.csv,"Read Version D","Dissertation, read only version D",ROUND,CIRCLE,Study1,S,65,76,Test,User,-,,Recall,Recall2,17159,square,33.333333333333,13560,15574,0,0,,1
5c4e38f4d3a5e300018363ba,v3bll7aiaz,Nick_Dissertation_EX1,1,296,2020-06-13T10:25:35-07:00,20.107142925262,4,versionC_stim.csv,READVersionD.csv,"Read Version D","Dissertation, read only version D",RACKET,BALL,Study1,F,38,80,Test,User,-,,Recall,Recall2,19253,bowler,40,4593,17945,0,0,,1
5c4e38f4d3a5e300018363ba,v3bll7aiaz,Nick_Dissertation_EX1,1,297,2020-06-13T10:25:47-07:00,11.652840137482,4,versionC_stim.csv,READVersionD.csv,"Read Version D","Dissertation, read only version D",DESIGN,ARCHITECTURE,Study1,S,51,19,Test,User,-,,Recall,Recall2,10783,interior,40,7343,9457,0,0,,1
5c4e38f4d3a5e300018363ba,v3bll7aiaz,Nick_Dissertation_EX1,1,298,2020-06-13T10:25:54-07:00,7.1214599609375,4,versionC_stim.csv,READVersionD.csv,"Read Version D","Dissertation, read only version D",FANTASTIC,GREAT,Study1,F,35,49,Test,User,-,,Recall,Recall2,6398,great,100,3875,5001,1,1,,1
5c4e38f4d3a5e300018363ba,v3bll7aiaz,Nick_Dissertation_EX1,1,299,2020-06-13T10:26:11-07:00,17.521382808685,4,versionC_stim.csv,READVersionD.csv,"Read Version D","Dissertation, read only version D",ROCK,GEOLOGY,Study1,B,19,66,Test,User,-,,Recall,Recall2,16717,hard,0,14831,15313,0,0,,1
5c4e38f4d3a5e300018363ba,v3bll7aiaz,Nick_Dissertation_EX1,1,300,2020-06-13T10:26:24-07:00,12.996012210846,4,versionC_stim.csv,READVersionD.csv,"Read Version D","Dissertation, read only version D",LION,ART,Study1,U,79,23,Test,User,-,,Recall,Recall2,12164,cat,66.666666666667,9262,9554,0,0,,1
5c4e38f4d3a5e300018363ba,v3bll7aiaz,Nick_Dissertation_EX1,1,301,2020-06-13T10:26:33-07:00,8.6811459064484,4,versionC_stim.csv,READVersionD.csv,"Read Version D","Dissertation, read only version D",BELT,SOON,Study1,U,70,29,Test,User,-,,Recall,Recall2,7992,seat,25,3907,6356,0,0,,1
5c4e38f4d3a5e300018363ba,v3bll7aiaz,Nick_Dissertation_EX1,1,302,2020-06-13T10:26:46-07:00,12.839693069458,4,versionC_stim.csv,READVersionD.csv,"Read Version D","Dissertation, read only version D",WORD,SENTENCE,Study1,F,31,74,Test,User,-,,Recall,Recall2,11988,meaning,40,9432,10605,0,0,,1
5c4e38f4d3a5e300018363ba,v3bll7aiaz,Nick_Dissertation_EX1,1,303,2020-06-13T10:26:58-07:00,11.677906990051,4,versionC_stim.csv,READVersionD.csv,"Read Version D","Dissertation, read only version D",DROWSY,SLEEP,Study1,F,41,20,Test,User,-,,Recall,Recall2,10856,dizzy,0,8525,9433,0,0,,1
5c4e38f4d3a5e300018363ba,v3bll7aiaz,Nick_Dissertation_EX1,1,304,2020-06-13T10:27:03-07:00,4.9861359596252,4,versionC_stim.csv,READVersionD.csv,"Read Version D","Dissertation, read only version D",HUNGRY,PARK,Study1,U,68,68,Test,User,-,,Recall,Recall2,4260,famine,20,2044,2878,0,0,,1
5c4e38f4d3a5e300018363ba,v3bll7aiaz,Nick_Dissertation_EX1,1,305,2020-06-13T10:27:15-07:00,12.92387008667,4,versionC_stim.csv,READVersionD.csv,"Read Version D","Dissertation, read only version D",CARD,CREDIT,Study1,B,23,54,Test,User,-,,Recall,Recall2,12121,credit,100,9201,10205,1,1,,1
5c4e38f4d3a5e300018363ba,v3bll7aiaz,Nick_Dissertation_EX1,1,306,2020-06-13T10:27:24-07:00,8.0794508457184,4,versionC_stim.csv,READVersionD.csv,"Read Version D","Dissertation, read only version D",COLD,BITTER,Study1,B,12,39,Test,User,-,,Recall,Recall2,7384,ice,44.444444444444,3160,5359,0,0,,1
5c4e38f4d3a5e300018363ba,v3bll7aiaz,Nick_Dissertation_EX1,1,307,2020-06-13T10:27:37-07:00,13.648896932602,4,versionC_stim.csv,READVersionD.csv,"Read Version D","Dissertation, read only version D",SODA,POP,Study1,S,56,22,Test,User,-,,Recall,Recall2,12747,pop,100,10232,10567,1,1,,1
5c4e38f4d3a5e300018363ba,v3bll7aiaz,Nick_Dissertation_EX1,1,308,2020-06-13T10:28:13-07:00,35.724902153015,4,versionC_stim.csv,READVersionD.csv,"Read Version D","Dissertation, read only version D",ENOUGH,FULL,Study1,F,26,81,Test,User,-,,Recall,Recall2,34793,plenty,20,32196,33144,0,0,,1
5c4e38f4d3a5e300018363ba,v3bll7aiaz,Nick_Dissertation_EX1,1,309,2020-06-13T10:28:30-07:00,17.097740888596,4,versionC_stim.csv,READVersionD.csv,"Read Version D","Dissertation, read only version D",ATTORNEY,LAW,Study1,F,34,18,Test,User,-,,Recall,Recall2,16257,law,100,14046,14503,1,1,,1
5c4e38f4d3a5e300018363ba,v3bll7aiaz,Nick_Dissertation_EX1,1,310,2020-06-13T10:28:38-07:00,8.4464821815491,4,versionC_stim.csv,READVersionD.csv,"Read Version D","Dissertation, read only version D",PILOT,PLANE,Study1,F,44,65,Test,User,-,,Recall,Recall2,7690,plane,100,2151,3050,1,1,,1
5c4e38f4d3a5e300018363ba,v3bll7aiaz,Nick_Dissertation_EX1,1,311,2020-06-13T10:28:53-07:00,14.832448005676,4,versionC_stim.csv,READVersionD.csv,"Read Version D","Dissertation, read only version D",ACCIDENT,STRONG,Study1,U,80,37,Test,User,-,,Recall,Recall2,13905,hurt,20,9274,9793,0,0,,1
5c4e38f4d3a5e300018363ba,v3bll7aiaz,Nick_Dissertation_EX1,1,312,2020-06-13T10:29:07-07:00,14.106880903244,4,versionC_stim.csv,READVersionD.csv,"Read Version D","Dissertation, read only version D",CAR,HAPPY,Study1,U,77,38,Test,User,-,,Recall,Recall2,13228,drive,0,10167,11066,0,0,,1
5c4e38f4d3a5e300018363ba,v3bll7aiaz,Nick_Dissertation_EX1,1,313,2020-06-13T10:29:16-07:00,8.9105179309845,4,versionC_stim.csv,READVersionD.csv,"Read Version D","Dissertation, read only version D",CHEESE,WINE,Study1,S,57,64,Test,User,-,,Recall,Recall2,8180,soft,0,5682,6546,0,0,,1
5c4e38f4d3a5e300018363ba,v3bll7aiaz,Nick_Dissertation_EX1,1,314,2020-06-13T10:29:26-07:00,9.3128981590271,4,versionC_stim.csv,READVersionD.csv,"Read Version D","Dissertation, read only version D",WAR,REVOLUTION,Study1,B,20,85,Test,User,-,,Recall,Recall2,8554,enemy,26.666666666667,5626,6649,0,0,,1
5c4e38f4d3a5e300018363ba,v3bll7aiaz,Nick_Dissertation_EX1,1,315,2020-06-13T10:29:39-07:00,13.214913845062,4,versionC_stim.csv,READVersionD.csv,"Read Version D","Dissertation, read only version D",END,BEGIN,Study1,S,54,34,Test,User,-,,Recall,Recall2,12387,start,0,2085,9234,0,0,,1
5c4e38f4d3a5e300018363ba,v3bll7aiaz,Nick_Dissertation_EX1,1,316,2020-06-13T10:29:51-07:00,12.139894008636,4,versionC_stim.csv,READVersionD.csv,"Read Version D","Dissertation, read only version D",FOOT,SHOE,Study1,S,60,25,Test,User,-,,Recall,Recall2,11322,leg,28.571428571429,9079,9573,0,0,,1
5c4e38f4d3a5e300018363ba,v3bll7aiaz,Nick_Dissertation_EX1,1,317,2020-06-13T10:29:58-07:00,7.0305559635162,4,versionC_stim.csv,READVersionD.csv,"Read Version D","Dissertation, read only version D",COW,HERD,Study1,B,22,82,Test,User,-,,Recall,Recall2,6293,animal,0,2589,3666,0,0,,1
5c4e38f4d3a5e300018363ba,v3bll7aiaz,Nick_Dissertation_EX1,1,318,2020-06-13T10:30:03-07:00,4.5051090717316,4,versionC_stim.csv,READVersionD.csv,"Read Version D","Dissertation, read only version D",LATCH,KEY,Study1,F,36,21,Test,User,-,,Recall,Recall2,3782,key,100,1689,2223,1,1,,1
5c4e38f4d3a5e300018363ba,v3bll7aiaz,Nick_Dissertation_EX1,1,319,2020-06-13T10:30:20-07:00,17.190536975861,4,versionC_stim.csv,READVersionD.csv,"Read Version D","Dissertation, read only version D",TUCK,ALLOW,Study1,U,78,75,Test,User,-,,Recall,Recall2,16330,tick,0,13268,13778,0,0,,1
5c4e38f4d3a5e300018363ba,v3bll7aiaz,Nick_Dissertation_EX1,1,320,2020-06-13T10:30:32-07:00,11.812242984772,4,versionC_stim.csv,READVersionD.csv,"Read Version D","Dissertation, read only version D",RIDDLE,SUGAR,Study1,U,81,48,Test,User,-,,Recall,Recall2,10994,joke,0,5097,7675,0,0,,1
5c4e38f4d3a5e300018363ba,v3bll7aiaz,Nick_Dissertation_EX1,1,321,2020-06-13T10:30:45-07:00,13.552843093872,4,versionC_stim.csv,READVersionD.csv,"Read Version D","Dissertation, read only version D",PLANT,ROOT,Study1,B,13,7,Test,User,-,,Recall,Recall2,12693,shrub,22.222222222222,9617,11177,0,0,,1
5c4e38f4d3a5e300018363ba,v3bll7aiaz,Nick_Dissertation_EX1,1,322,2020-06-13T10:30:52-07:00,6.5959489345551,4,versionC_stim.csv,READVersionD.csv,"Read Version D","Dissertation, read only version D",ATTIRE,CLOTHES,Study1,F,43,67,Test,User,-,,Recall,Recall2,5876,clothes,100,2330,3435,1,1,,1
5c4e38f4d3a5e300018363ba,v3bll7aiaz,Nick_Dissertation_EX1,1,323,2020-06-13T10:30:58-07:00,6.1570730209351,4,versionC_stim.csv,READVersionD.csv,"Read Version D","Dissertation, read only version D",BEE,HONEY,Study1,S,63,28,Test,User,-,,Recall,Recall2,5426,sting,20,2282,3230,0,0,,1
5c4e38f4d3a5e300018363ba,v3bll7aiaz,Nick_Dissertation_EX1,1,324,2020-06-13T10:31:30-07:00,32.091326951981,4,versionC_stim.csv,READVersionD.csv,"Read Version D","Dissertation, read only version D",DOG,PAW,Study1,B,15,57,Test,User,-,,Recall,Recall2,31214,bone,0,27963,28435,0,0,,1
5c4e38f4d3a5e300018363ba,v3bll7aiaz,Nick_Dissertation_EX1,1,325,2020-06-13T10:31:37-07:00,7.4791491031647,4,versionC_stim.csv,READVersionD.csv,"Read Version D","Dissertation, read only version D",WASP,BUG,Study1,F,32,51,Test,User,-,,Recall,Recall2,6742,sting,25,3335,4209,0,0,,1
5c4e38f4d3a5e300018363ba,v3bll7aiaz,Nick_Dissertation_EX1,1,326,2020-06-13T10:31:48-07:00,10.570441007614,4,versionC_stim.csv,READVersionD.csv,"Read Version D","Dissertation, read only version D",BRONZE,ARTERY,Study1,U,74,12,Test,User,-,,Recall,Recall2,9735,statue,33.333333333333,6988,8187,0,0,,1
5c4e38f4d3a5e300018363ba,v3bll7aiaz,Nick_Dissertation_EX1,1,327,2020-06-13T10:32:04-07:00,15.665684938431,4,versionC_stim.csv,READVersionD.csv,"Read Version D","Dissertation, read only version D",STOMACH,DIGESTION,Study1,B,7,43,Test,User,-,,Recall,Recall2,14828,food,15.384615384615,12310,12856,0,0,,1
5c4e38f4d3a5e300018363ba,v3bll7aiaz,Nick_Dissertation_EX1,1,328,2020-06-13T10:32:13-07:00,9.1071040630341,4,versionC_stim.csv,READVersionD.csv,"Read Version D","Dissertation, read only version D",ASSIGNMENT,DUE,Study1,S,46,73,Test,User,-,,Recall,Recall2,8432,work,0,5884,6750,0,0,,1
5c4e38f4d3a5e300018363ba,v3bll7aiaz,Nick_Dissertation_EX1,1,329,2020-06-13T10:32:18-07:00,4.8393888473511,4,versionC_stim.csv,READVersionD.csv,"Read Version D","Dissertation, read only version D",CHILI,HOT,Study1,F,37,83,Test,User,-,,Recall,Recall2,4191,hot,100,2104,2464,1,1,,1
5c4e38f4d3a5e300018363ba,v3bll7aiaz,Nick_Dissertation_EX1,1,330,2020-06-13T10:32:24-07:00,6.1345820426941,4,versionC_stim.csv,READVersionD.csv,"Read Version D","Dissertation, read only version D",WOULD,CASH,Study1,U,83,69,Test,User,-,,Recall,Recall2,5444,need,0,3379,3981,0,0,,1
5c4e38f4d3a5e300018363ba,v3bll7aiaz,Nick_Dissertation_EX1,1,331,2020-06-13T10:32:36-07:00,11.861727952957,4,versionC_stim.csv,READVersionD.csv,"Read Version D","Dissertation, read only version D",DIVISION,MATH,Study1,F,33,14,Test,User,-,,Recall,Recall2,11019,apart,44.444444444444,8455,9225,0,0,,1
5c4e38f4d3a5e300018363ba,v3bll7aiaz,Nick_Dissertation_EX1,1,332,2020-06-13T10:32:52-07:00,16.754389047623,4,versionC_stim.csv,READVersionD.csv,"Read Version D","Dissertation, read only version D",GROWTH,HEIGHT,Study1,F,30,36,Test,User,-,,Recall,Recall2,15939,tall,20,13552,14249,0,0,,1
5c4e38f4d3a5e300018363ba,v3bll7aiaz,Nick_Dissertation_EX1,1,333,2020-06-13T10:33:01-07:00,8.7468860149384,4,versionC_stim.csv,READVersionD.csv,"Read Version D","Dissertation, read only version D",MONEY,WAGE,Study1,B,8,11,Test,User,-,,Recall,Recall2,8021,cash,25,2739,6441,0,0,,1
5c4e38f4d3a5e300018363ba,v3bll7aiaz,Nick_Dissertation_EX1,1,334,2020-06-13T10:33:17-07:00,15.972342014313,4,versionC_stim.csv,READVersionD.csv,"Read Version D","Dissertation, read only version D",ADD,VALLEY,Study1,U,82,42,Test,User,-,,Recall,Recall2,15168,together,14.285714285714,12405,13530,0,0,,1
5c4e38f4d3a5e300018363ba,v3bll7aiaz,Nick_Dissertation_EX1,1,335,2020-06-13T10:33:25-07:00,8.1702630519867,4,versionC_stim.csv,READVersionD.csv,"Read Version D","Dissertation, read only version D",WATER,BRIDGE,Study1,B,18,61,Test,User,-,,Recall,Recall2,7493,cold,20,5550,6137,0,0,,1
5c4e38f4d3a5e300018363ba,v3bll7aiaz,Nick_Dissertation_EX1,1,336,2020-06-13T10:33:32-07:00,6.3406178951263,4,versionC_stim.csv,READVersionD.csv,"Read Version D","Dissertation, read only version D",SIGHT,DEBATE,Study1,U,73,26,Test,User,-,,Recall,Recall2,5442,eyes,40,3300,3814,0,0,,1
5c4e38f4d3a5e300018363ba,v3bll7aiaz,Nick_Dissertation_EX1,1,337,2020-06-13T10:33:38-07:00,6.1305661201477,4,versionC_stim.csv,READVersionD.csv,"Read Version D","Dissertation, read only version D",BAR,GRILL,Study1,S,52,46,Test,User,-,,Recall,Recall2,5432,drink,40,3248,4013,0,0,,1
5c4e38f4d3a5e300018363ba,v3bll7aiaz,Nick_Dissertation_EX1,1,338,2020-06-13T10:33:44-07:00,5.8754918575287,4,versionC_stim.csv,READVersionD.csv,"Read Version D","Dissertation, read only version D",HAMMER,CHISEL,Study1,B,9,44,Test,User,-,,Recall,Recall2,5192,nail,40,2477,3234,0,0,,1
5c4e38f4d3a5e300018363ba,v3bll7aiaz,Nick_Dissertation_EX1,1,339,2020-06-13T10:33:59-07:00,15.406284093857,4,versionC_stim.csv,READVersionD.csv,"Read Version D","Dissertation, read only version D",SICK,HIDE,Study1,U,84,41,Test,User,-,,Recall,Recall2,14603,unwell,20,8458,9534,0,0,,1
5c4e38f4d3a5e300018363ba,v3bll7aiaz,Nick_Dissertation_EX1,1,340,2020-06-13T10:34:07-07:00,8.3956069946289,4,versionC_stim.csv,READVersionD.csv,"Read Version D","Dissertation, read only version D",BIRD,SWAN,Study1,B,14,47,Test,User,-,,Recall,Recall2,7666,fly,0,5376,5985,0,0,,1
5c4e38f4d3a5e300018363ba,v3bll7aiaz,Nick_Dissertation_EX1,1,341,2020-06-13T10:34:16-07:00,8.4409120082855,4,versionC_stim.csv,READVersionD.csv,"Read Version D","Dissertation, read only version D",JURY,TRIAL,Study1,S,50,60,Test,User,-,,Recall,Recall2,7705,court,20,4833,5696,0,0,,1
5c4e38f4d3a5e300018363ba,v3bll7aiaz,Nick_Dissertation_EX1,1,342,2020-06-13T10:34:33-07:00,16.680677890778,4,versionC_stim.csv,READVersionD.csv,"Read Version D","Dissertation, read only version D",AMOUNT,NUMBER,Study1,S,47,62,Test,User,-,,Recall,Recall2,15832,cost,0,13617,14190,0,0,,1
5c4e38f4d3a5e300018363ba,v3bll7aiaz,Nick_Dissertation_EX1,1,343,2020-06-13T10:34:37-07:00,4.4391820430756,4,versionC_stim.csv,READVersionD.csv,"Read Version D","Dissertation, read only version D",STING,HORNET,Study1,B,11,15,Test,User,-,,Recall,Recall2,3646,bee,22.222222222222,2058,2402,0,0,,1
5c4e38f4d3a5e300018363ba,v3bll7aiaz,Nick_Dissertation_EX1,1,344,2020-06-13T10:34:42-07:00,5.1235091686249,4,versionC_stim.csv,READVersionD.csv,"Read Version D","Dissertation, read only version D",WOMAN,LIFT,Study1,U,69,63,Test,User,-,,Recall,Recall2,4465,man,0,2023,2315,0,0,,1
5c4e38f4d3a5e300018363ba,v3bll7aiaz,Nick_Dissertation_EX1,1,345,2020-06-13T10:34:48-07:00,5.723436832428,4,versionC_stim.csv,READVersionD.csv,"Read Version D","Dissertation, read only version D",CHILD,BABY,Study1,S,64,10,Test,User,-,,Recall,Recall2,4988,adult,22.222222222222,2328,3170,0,0,,1
5c4e38f4d3a5e300018363ba,v3bll7aiaz,Nick_Dissertation_EX1,1,346,2020-06-13T10:35:01-07:00,13.417554140091,4,versionC_stim.csv,READVersionD.csv,"Read Version D","Dissertation, read only version D",FLOOR,DISCOVER,Study1,U,71,30,Test,User,-,,Recall,Recall2,12597,ceiling,26.666666666667,4949,11292,0,0,,1
