Username,ID,ExperimentName,Session,Trial,Date,TimeDif,"Condition Number","Stimuli File","Order File","Condition Description","Condition Notes",Stimuli*Cue,Stimuli*Answer,Stimuli*Shuffle,"Stimuli*Stimuli Notes",Stimuli*Value,Procedure*Item,"Procedure*Trial Type","Procedure*Max Time","Procedure*Min Time",Procedure*Text,"Procedure*Procedure Notes",Procedure*Shuffle,Response*RT,Response*Response,Response*Accuracy,Response*RTfirst,Response*RTlast,Response*strictAcc,Response*lenientAcc,Response*focus,Response*Focus
5e6cdd414ecdc62853e75759,2opp84a0jk,Nick_Dissertation_EX1,1,1,2020-06-02T09:05:12-07:00,13.301764965057,4,versionC_stim.csv,READVersionD.csv,"Read Version D","Dissertation, read only version D",,,,,,0,Instruct,-,10,"Please study each of the following word pairs. Remember that your memory will be tested! When finished, press Enter to move to the next pair.",Initial_Instruct,Instruct1,13081,,,-1,-1,,,,1
5e6cdd414ecdc62853e75759,2opp84a0jk,Nick_Dissertation_EX1,1,2,2020-06-02T09:05:14-07:00,1.8318290710449,4,versionC_stim.csv,READVersionD.csv,"Read Version D","Dissertation, read only version D",FISH,SHRIMP,BUFFER3,Buffer,93,96,Study,User,-,,Study/JOL,BUFFER,1471,,,-1,-1,,,,1
5e6cdd414ecdc62853e75759,2opp84a0jk,Nick_Dissertation_EX1,1,3,2020-06-02T09:05:15-07:00,1.1317698955536,4,versionC_stim.csv,READVersionD.csv,"Read Version D","Dissertation, read only version D",ADVENTURE,CAMP,BUFFER3,Buffer,95,94,Study,User,-,,Study/JOL,BUFFER,768,,,-1,-1,,,,1
5e6cdd414ecdc62853e75759,2opp84a0jk,Nick_Dissertation_EX1,1,4,2020-06-02T09:05:17-07:00,1.8155391216278,4,versionC_stim.csv,READVersionD.csv,"Read Version D","Dissertation, read only version D",STRING,NOODLE,BUFFER3,Buffer,92,92,Study,User,-,,Study/JOL,BUFFER,501,,,-1,-1,,,,1
5e6cdd414ecdc62853e75759,2opp84a0jk,Nick_Dissertation_EX1,1,5,2020-06-02T09:05:18-07:00,1.0390269756317,4,versionC_stim.csv,READVersionD.csv,"Read Version D","Dissertation, read only version D",POTATO,CARROT,BUFFER3,Buffer,91,93,Study,User,-,,Study/JOL,BUFFER,707,,,-1,-1,,,,1
5e6cdd414ecdc62853e75759,2opp84a0jk,Nick_Dissertation_EX1,1,6,2020-06-02T09:05:19-07:00,0.81343603134155,4,versionC_stim.csv,READVersionD.csv,"Read Version D","Dissertation, read only version D",FROZEN,ICE,BUFFER3,Buffer,94,95,Study,User,-,,Study/JOL,BUFFER,474,,,-1,-1,,,,1
5e6cdd414ecdc62853e75759,2opp84a0jk,Nick_Dissertation_EX1,1,7,2020-06-02T09:05:20-07:00,0.72028493881226,4,versionC_stim.csv,READVersionD.csv,"Read Version D","Dissertation, read only version D",BRAWL,FIGHT,Study2,F,135,150,Study,User,-,,Study/JOL,"Study Phase",389,,,-1,-1,,,,1
5e6cdd414ecdc62853e75759,2opp84a0jk,Nick_Dissertation_EX1,1,8,2020-06-02T09:05:22-07:00,1.9389259815216,4,versionC_stim.csv,READVersionD.csv,"Read Version D","Dissertation, read only version D",END,ADJOURN,Study2,B,101,158,Study,User,-,,Study/JOL,"Study Phase",573,,,-1,-1,,,,1
5e6cdd414ecdc62853e75759,2opp84a0jk,Nick_Dissertation_EX1,1,9,2020-06-02T09:05:22-07:00,0.6901741027832,4,versionC_stim.csv,READVersionD.csv,"Read Version D","Dissertation, read only version D",GROUND,EARTH,Study2,S,144,102,Study,User,-,,Study/JOL,"Study Phase",331,,,-1,-1,,,,1
5e6cdd414ecdc62853e75759,2opp84a0jk,Nick_Dissertation_EX1,1,10,2020-06-02T09:05:23-07:00,0.64567995071411,4,versionC_stim.csv,READVersionD.csv,"Read Version D","Dissertation, read only version D",FAVORITE,BEST,Study2,F,125,138,Study,User,-,,Study/JOL,"Study Phase",296,,,-1,-1,,,,1
5e6cdd414ecdc62853e75759,2opp84a0jk,Nick_Dissertation_EX1,1,11,2020-06-02T09:05:24-07:00,0.64094996452332,4,versionC_stim.csv,READVersionD.csv,"Read Version D","Dissertation, read only version D",TEMPER,TANTRUM,Study2,S,154,139,Study,User,-,,Study/JOL,"Study Phase",298,,,-1,-1,,,,1
5e6cdd414ecdc62853e75759,2opp84a0jk,Nick_Dissertation_EX1,1,12,2020-06-02T09:05:25-07:00,1.8375270366669,4,versionC_stim.csv,READVersionD.csv,"Read Version D","Dissertation, read only version D",SHAVE,RAZOR,Study2,S,136,135,Study,User,-,,Study/JOL,"Study Phase",411,,,-1,-1,,,,1
5e6cdd414ecdc62853e75759,2opp84a0jk,Nick_Dissertation_EX1,1,13,2020-06-02T09:05:26-07:00,0.6610860824585,4,versionC_stim.csv,READVersionD.csv,"Read Version D","Dissertation, read only version D",THIMBLE,THREAD,Study2,F,121,152,Study,User,-,,Study/JOL,"Study Phase",353,,,-1,-1,,,,1
5e6cdd414ecdc62853e75759,2opp84a0jk,Nick_Dissertation_EX1,1,14,2020-06-02T09:05:27-07:00,0.66058802604675,4,versionC_stim.csv,READVersionD.csv,"Read Version D","Dissertation, read only version D",CLEAR,MOAT,Study2,U,169,121,Study,User,-,,Study/JOL,"Study Phase",321,,,-1,-1,,,,1
5e6cdd414ecdc62853e75759,2opp84a0jk,Nick_Dissertation_EX1,1,15,2020-06-02T09:05:27-07:00,0.65714192390442,4,versionC_stim.csv,READVersionD.csv,"Read Version D","Dissertation, read only version D",LEAGUE,BASEBALL,Study2,F,131,174,Study,User,-,,Study/JOL,"Study Phase",319,,,-1,-1,,,,1
5e6cdd414ecdc62853e75759,2opp84a0jk,Nick_Dissertation_EX1,1,16,2020-06-02T09:05:28-07:00,0.65904808044434,4,versionC_stim.csv,READVersionD.csv,"Read Version D","Dissertation, read only version D",FICTION,LISTEN,Study2,U,164,103,Study,User,-,,Study/JOL,"Study Phase",313,,,-1,-1,,,,1
5e6cdd414ecdc62853e75759,2opp84a0jk,Nick_Dissertation_EX1,1,17,2020-06-02T09:05:29-07:00,0.65383696556091,4,versionC_stim.csv,READVersionD.csv,"Read Version D","Dissertation, read only version D",WAX,CANDLE,Study2,S,139,131,Study,User,-,,Study/JOL,"Study Phase",313,,,-1,-1,,,,1
5e6cdd414ecdc62853e75759,2opp84a0jk,Nick_Dissertation_EX1,1,18,2020-06-02T09:05:29-07:00,0.65883684158325,4,versionC_stim.csv,READVersionD.csv,"Read Version D","Dissertation, read only version D",JAR,MASON,Study2,S,138,133,Study,User,-,,Study/JOL,"Study Phase",312,,,-1,-1,,,,1
5e6cdd414ecdc62853e75759,2opp84a0jk,Nick_Dissertation_EX1,1,19,2020-06-02T09:05:30-07:00,0.64396500587463,4,versionC_stim.csv,READVersionD.csv,"Read Version D","Dissertation, read only version D",FIGHT,FEUD,Study2,B,113,140,Study,User,-,,Study/JOL,"Study Phase",298,,,-1,-1,,,,1
5e6cdd414ecdc62853e75759,2opp84a0jk,Nick_Dissertation_EX1,1,20,2020-06-02T09:05:31-07:00,0.61586403846741,4,versionC_stim.csv,READVersionD.csv,"Read Version D","Dissertation, read only version D",ACTRESS,STAR,Study2,F,120,99,Study,User,-,,Study/JOL,"Study Phase",259,,,-1,-1,,,,1
5e6cdd414ecdc62853e75759,2opp84a0jk,Nick_Dissertation_EX1,1,21,2020-06-02T09:05:33-07:00,1.8721301555634,4,versionC_stim.csv,READVersionD.csv,"Read Version D","Dissertation, read only version D",COMMUNICATION,PHONE,Study2,S,149,166,Study,User,-,,Study/JOL,"Study Phase",479,,,-1,-1,,,,1
5e6cdd414ecdc62853e75759,2opp84a0jk,Nick_Dissertation_EX1,1,22,2020-06-02T09:05:33-07:00,0.65296697616577,4,versionC_stim.csv,READVersionD.csv,"Read Version D","Dissertation, read only version D",CLOTH,STRETCH,Study2,U,157,163,Study,User,-,,Study/JOL,"Study Phase",314,,,-1,-1,,,,1
5e6cdd414ecdc62853e75759,2opp84a0jk,Nick_Dissertation_EX1,1,23,2020-06-02T09:05:34-07:00,0.72848391532898,4,versionC_stim.csv,READVersionD.csv,"Read Version D","Dissertation, read only version D",COLD,CHILL,Study2,B,114,151,Study,User,-,,Study/JOL,"Study Phase",389,,,-1,-1,,,,1
5e6cdd414ecdc62853e75759,2opp84a0jk,Nick_Dissertation_EX1,1,24,2020-06-02T09:05:35-07:00,0.70397710800171,4,versionC_stim.csv,READVersionD.csv,"Read Version D","Dissertation, read only version D",MAROON,JUSTICE,Study2,U,156,142,Study,User,-,,Study/JOL,"Study Phase",369,,,-1,-1,,,,1
5e6cdd414ecdc62853e75759,2opp84a0jk,Nick_Dissertation_EX1,1,25,2020-06-02T09:05:35-07:00,0.72274899482727,4,versionC_stim.csv,READVersionD.csv,"Read Version D","Dissertation, read only version D",SIGN,LOAN,Study2,U,171,111,Study,User,-,,Study/JOL,"Study Phase",369,,,-1,-1,,,,1
5e6cdd414ecdc62853e75759,2opp84a0jk,Nick_Dissertation_EX1,1,26,2020-06-02T09:05:36-07:00,0.68921780586243,4,versionC_stim.csv,READVersionD.csv,"Read Version D","Dissertation, read only version D",NOISE,LOUD,Study2,S,152,116,Study,User,-,,Study/JOL,"Study Phase",340,,,-1,-1,,,,1
5e6cdd414ecdc62853e75759,2opp84a0jk,Nick_Dissertation_EX1,1,27,2020-06-02T09:05:37-07:00,0.86804914474487,4,versionC_stim.csv,READVersionD.csv,"Read Version D","Dissertation, read only version D",STEAK,GIVE,Study2,U,158,165,Study,User,-,,Study/JOL,"Study Phase",502,,,-1,-1,,,,1
5e6cdd414ecdc62853e75759,2opp84a0jk,Nick_Dissertation_EX1,1,28,2020-06-02T09:05:38-07:00,0.67100691795349,4,versionC_stim.csv,READVersionD.csv,"Read Version D","Dissertation, read only version D",TRUTHFUL,HONEST,Study2,F,133,170,Study,User,-,,Study/JOL,"Study Phase",323,,,-1,-1,,,,1
5e6cdd414ecdc62853e75759,2opp84a0jk,Nick_Dissertation_EX1,1,29,2020-06-02T09:05:38-07:00,0.6568169593811,4,versionC_stim.csv,READVersionD.csv,"Read Version D","Dissertation, read only version D",REVENGE,EVEN,Study2,F,122,104,Study,User,-,,Study/JOL,"Study Phase",287,,,-1,-1,,,,1
5e6cdd414ecdc62853e75759,2opp84a0jk,Nick_Dissertation_EX1,1,30,2020-06-02T09:05:39-07:00,0.67076897621155,4,versionC_stim.csv,READVersionD.csv,"Read Version D","Dissertation, read only version D",RED,CHERRY,Study2,B,104,162,Study,User,-,,Study/JOL,"Study Phase",286,,,-1,-1,,,,1
5e6cdd414ecdc62853e75759,2opp84a0jk,Nick_Dissertation_EX1,1,31,2020-06-02T09:05:40-07:00,0.65702104568481,4,versionC_stim.csv,READVersionD.csv,"Read Version D","Dissertation, read only version D",CHILDREN,MIRROR,Study2,U,174,167,Study,User,-,,Study/JOL,"Study Phase",318,,,-1,-1,,,,1
5e6cdd414ecdc62853e75759,2opp84a0jk,Nick_Dissertation_EX1,1,32,2020-06-02T09:05:40-07:00,0.6601459980011,4,versionC_stim.csv,READVersionD.csv,"Read Version D","Dissertation, read only version D",CAR,DRIVER,Study2,B,106,97,Study,User,-,,Study/JOL,"Study Phase",284,,,-1,-1,,,,1
5e6cdd414ecdc62853e75759,2opp84a0jk,Nick_Dissertation_EX1,1,33,2020-06-02T09:05:41-07:00,0.63744616508484,4,versionC_stim.csv,READVersionD.csv,"Read Version D","Dissertation, read only version D",TIE,SHOELACE,Study2,B,99,124,Study,User,-,,Study/JOL,"Study Phase",253,,,-1,-1,,,,1
5e6cdd414ecdc62853e75759,2opp84a0jk,Nick_Dissertation_EX1,1,34,2020-06-02T09:05:41-07:00,0.6071138381958,4,versionC_stim.csv,READVersionD.csv,"Read Version D","Dissertation, read only version D",Morning,TEMPERATURE,Study2,U,173,147,Study,User,-,,Study/JOL,"Study Phase",275,,,-1,-1,,,,1
5e6cdd414ecdc62853e75759,2opp84a0jk,Nick_Dissertation_EX1,1,35,2020-06-02T09:05:42-07:00,0.61848306655884,4,versionC_stim.csv,READVersionD.csv,"Read Version D","Dissertation, read only version D",SHAKE,Shell,Study2,U,163,115,Study,User,-,,Study/JOL,"Study Phase",284,,,-1,-1,,,,1
5e6cdd414ecdc62853e75759,2opp84a0jk,Nick_Dissertation_EX1,1,36,2020-06-02T09:05:43-07:00,0.60064196586609,4,versionC_stim.csv,READVersionD.csv,"Read Version D","Dissertation, read only version D",CHARM,VEHICLE,Study2,U,160,108,Study,User,-,,Study/JOL,"Study Phase",252,,,-1,-1,,,,1
5e6cdd414ecdc62853e75759,2opp84a0jk,Nick_Dissertation_EX1,1,37,2020-06-02T09:05:43-07:00,0.57794404029846,4,versionC_stim.csv,READVersionD.csv,"Read Version D","Dissertation, read only version D",TRASH,LITTER,Study2,B,103,107,Study,User,-,,Study/JOL,"Study Phase",217,,,-1,-1,,,,1
5e6cdd414ecdc62853e75759,2opp84a0jk,Nick_Dissertation_EX1,1,38,2020-06-02T09:05:44-07:00,0.5481059551239,4,versionC_stim.csv,READVersionD.csv,"Read Version D","Dissertation, read only version D",HAVE,OWN,Study2,S,153,122,Study,User,-,,Study/JOL,"Study Phase",219,,,-1,-1,,,,1
5e6cdd414ecdc62853e75759,2opp84a0jk,Nick_Dissertation_EX1,1,39,2020-06-02T09:05:44-07:00,0.61417102813721,4,versionC_stim.csv,READVersionD.csv,"Read Version D","Dissertation, read only version D",PAPER,DOCUMENT,Study2,B,109,132,Study,User,-,,Study/JOL,"Study Phase",213,,,-1,-1,,,,1
5e6cdd414ecdc62853e75759,2opp84a0jk,Nick_Dissertation_EX1,1,40,2020-06-02T09:05:45-07:00,0.53643703460693,4,versionC_stim.csv,READVersionD.csv,"Read Version D","Dissertation, read only version D",OUNCE,BOTH,Study2,U,172,126,Study,User,-,,Study/JOL,"Study Phase",207,,,-1,-1,,,,1
5e6cdd414ecdc62853e75759,2opp84a0jk,Nick_Dissertation_EX1,1,41,2020-06-02T09:05:46-07:00,0.70067405700684,4,versionC_stim.csv,READVersionD.csv,"Read Version D","Dissertation, read only version D",AWAY,GONE,Study2,S,142,171,Study,User,-,,Study/JOL,"Study Phase",357,,,-1,-1,,,,1
5e6cdd414ecdc62853e75759,2opp84a0jk,Nick_Dissertation_EX1,1,42,2020-06-02T09:05:46-07:00,0.54671192169189,4,versionC_stim.csv,READVersionD.csv,"Read Version D","Dissertation, read only version D",LIE,TRUTH,Study2,S,148,125,Study,User,-,,Study/JOL,"Study Phase",215,,,-1,-1,,,,1
5e6cdd414ecdc62853e75759,2opp84a0jk,Nick_Dissertation_EX1,1,43,2020-06-02T09:05:47-07:00,0.56747198104858,4,versionC_stim.csv,READVersionD.csv,"Read Version D","Dissertation, read only version D",EAT,DINE,Study2,B,111,146,Study,User,-,,Study/JOL,"Study Phase",193,,,-1,-1,,,,1
5e6cdd414ecdc62853e75759,2opp84a0jk,Nick_Dissertation_EX1,1,44,2020-06-02T09:05:47-07:00,0.69094300270081,4,versionC_stim.csv,READVersionD.csv,"Read Version D","Dissertation, read only version D",LONELY,ALONE,Study2,S,145,153,Study,User,-,,Study/JOL,"Study Phase",350,,,-1,-1,,,,1
5e6cdd414ecdc62853e75759,2opp84a0jk,Nick_Dissertation_EX1,1,45,2020-06-02T09:05:48-07:00,0.58267903327942,4,versionC_stim.csv,READVersionD.csv,"Read Version D","Dissertation, read only version D",GAME,CLUE,Study2,B,97,157,Study,User,-,,Study/JOL,"Study Phase",236,,,-1,-1,,,,1
5e6cdd414ecdc62853e75759,2opp84a0jk,Nick_Dissertation_EX1,1,46,2020-06-02T09:05:49-07:00,0.56519103050232,4,versionC_stim.csv,READVersionD.csv,"Read Version D","Dissertation, read only version D",TAN,SUN,Study2,S,155,175,Study,User,-,,Study/JOL,"Study Phase",230,,,-1,-1,,,,1
5e6cdd414ecdc62853e75759,2opp84a0jk,Nick_Dissertation_EX1,1,47,2020-06-02T09:05:49-07:00,0.56367993354797,4,versionC_stim.csv,READVersionD.csv,"Read Version D","Dissertation, read only version D",PENGUIN,BIRD,Study2,F,119,172,Study,User,-,,Study/JOL,"Study Phase",168,,,-1,-1,,,,1
5e6cdd414ecdc62853e75759,2opp84a0jk,Nick_Dissertation_EX1,1,48,2020-06-02T09:05:50-07:00,0.52098989486694,4,versionC_stim.csv,READVersionD.csv,"Read Version D","Dissertation, read only version D",CARBON,ELEMENT,Study2,S,141,119,Study,User,-,,Study/JOL,"Study Phase",173,,,-1,-1,,,,1
5e6cdd414ecdc62853e75759,2opp84a0jk,Nick_Dissertation_EX1,1,49,2020-06-02T09:05:50-07:00,0.53742098808289,4,versionC_stim.csv,READVersionD.csv,"Read Version D","Dissertation, read only version D",SCAR,MAIN,Study2,U,175,106,Study,User,-,,Study/JOL,"Study Phase",157,,,-1,-1,,,,1
5e6cdd414ecdc62853e75759,2opp84a0jk,Nick_Dissertation_EX1,1,50,2020-06-02T09:05:51-07:00,0.54931306838989,4,versionC_stim.csv,READVersionD.csv,"Read Version D","Dissertation, read only version D",SARDINE,FISH,Study2,F,130,101,Study,User,-,,Study/JOL,"Study Phase",208,,,-1,-1,,,,1
5e6cdd414ecdc62853e75759,2opp84a0jk,Nick_Dissertation_EX1,1,51,2020-06-02T09:05:51-07:00,0.53496599197388,4,versionC_stim.csv,READVersionD.csv,"Read Version D","Dissertation, read only version D",ABLE,CRACKLE,Study2,U,162,105,Study,User,-,,Study/JOL,"Study Phase",206,,,-1,-1,,,,1
5e6cdd414ecdc62853e75759,2opp84a0jk,Nick_Dissertation_EX1,1,52,2020-06-02T09:05:52-07:00,0.54505109786987,4,versionC_stim.csv,READVersionD.csv,"Read Version D","Dissertation, read only version D",STRAWBERRY,FRUIT,Study2,F,124,110,Study,User,-,,Study/JOL,"Study Phase",206,,,-1,-1,,,,1
5e6cdd414ecdc62853e75759,2opp84a0jk,Nick_Dissertation_EX1,1,53,2020-06-02T09:05:52-07:00,0.53938603401184,4,versionC_stim.csv,READVersionD.csv,"Read Version D","Dissertation, read only version D",CLOTHES,CAKE,Study2,U,166,120,Study,User,-,,Study/JOL,"Study Phase",169,,,-1,-1,,,,1
5e6cdd414ecdc62853e75759,2opp84a0jk,Nick_Dissertation_EX1,1,54,2020-06-02T09:05:53-07:00,0.5331859588623,4,versionC_stim.csv,READVersionD.csv,"Read Version D","Dissertation, read only version D",PANTHER,CAT,Study2,F,126,145,Study,User,-,,Study/JOL,"Study Phase",203,,,-1,-1,,,,1
5e6cdd414ecdc62853e75759,2opp84a0jk,Nick_Dissertation_EX1,1,55,2020-06-02T09:05:53-07:00,0.48888087272644,4,versionC_stim.csv,READVersionD.csv,"Read Version D","Dissertation, read only version D",NAP,SLEEP,Study2,F,134,98,Study,User,-,,Study/JOL,"Study Phase",127,,,-1,-1,,,,1
5e6cdd414ecdc62853e75759,2opp84a0jk,Nick_Dissertation_EX1,1,56,2020-06-02T09:05:54-07:00,0.48581409454346,4,versionC_stim.csv,READVersionD.csv,"Read Version D","Dissertation, read only version D",BANG,FUZZY,Study2,U,168,134,Study,User,-,,Study/JOL,"Study Phase",139,,,-1,-1,,,,1
5e6cdd414ecdc62853e75759,2opp84a0jk,Nick_Dissertation_EX1,1,57,2020-06-02T09:05:54-07:00,0.46519708633423,4,versionC_stim.csv,READVersionD.csv,"Read Version D","Dissertation, read only version D",OBTAIN,MEAT,Study2,U,161,129,Study,User,-,,Study/JOL,"Study Phase",115,,,-1,-1,,,,1
5e6cdd414ecdc62853e75759,2opp84a0jk,Nick_Dissertation_EX1,1,58,2020-06-02T09:05:55-07:00,0.78521084785461,4,versionC_stim.csv,READVersionD.csv,"Read Version D","Dissertation, read only version D",SMELL,INCENSE,Study2,B,110,136,Study,User,-,,Study/JOL,"Study Phase",423,,,-1,-1,,,,1
5e6cdd414ecdc62853e75759,2opp84a0jk,Nick_Dissertation_EX1,1,59,2020-06-02T09:05:56-07:00,0.58282494544983,4,versionC_stim.csv,READVersionD.csv,"Read Version D","Dissertation, read only version D",JOKE,KEYS,Study2,U,165,169,Study,User,-,,Study/JOL,"Study Phase",230,,,-1,-1,,,,1
5e6cdd414ecdc62853e75759,2opp84a0jk,Nick_Dissertation_EX1,1,60,2020-06-02T09:05:57-07:00,0.8410370349884,4,versionC_stim.csv,READVersionD.csv,"Read Version D","Dissertation, read only version D",VILLAIN,BAD,Study2,F,118,155,Study,User,-,,Study/JOL,"Study Phase",456,,,-1,-1,,,,1
5e6cdd414ecdc62853e75759,2opp84a0jk,Nick_Dissertation_EX1,1,61,2020-06-02T09:05:57-07:00,0.56505918502808,4,versionC_stim.csv,READVersionD.csv,"Read Version D","Dissertation, read only version D",HEAD,SCALP,Study2,B,105,154,Study,User,-,,Study/JOL,"Study Phase",150,,,-1,-1,,,,1
5e6cdd414ecdc62853e75759,2opp84a0jk,Nick_Dissertation_EX1,1,62,2020-06-02T09:05:58-07:00,0.4823157787323,4,versionC_stim.csv,READVersionD.csv,"Read Version D","Dissertation, read only version D",FLIP,TURN,Study2,F,116,144,Study,User,-,,Study/JOL,"Study Phase",147,,,-1,-1,,,,1
5e6cdd414ecdc62853e75759,2opp84a0jk,Nick_Dissertation_EX1,1,63,2020-06-02T09:05:58-07:00,0.52718710899353,4,versionC_stim.csv,READVersionD.csv,"Read Version D","Dissertation, read only version D",PLANT,CACTUS,Study2,B,98,161,Study,User,-,,Study/JOL,"Study Phase",161,,,-1,-1,,,,1
5e6cdd414ecdc62853e75759,2opp84a0jk,Nick_Dissertation_EX1,1,64,2020-06-02T09:05:59-07:00,0.48848795890808,4,versionC_stim.csv,READVersionD.csv,"Read Version D","Dissertation, read only version D",BALLOON,POP,Study2,F,123,113,Study,User,-,,Study/JOL,"Study Phase",145,,,-1,-1,,,,1
5e6cdd414ecdc62853e75759,2opp84a0jk,Nick_Dissertation_EX1,1,65,2020-06-02T09:06:00-07:00,0.9507269859314,4,versionC_stim.csv,READVersionD.csv,"Read Version D","Dissertation, read only version D",BRACELET,WRIST,Study2,S,140,114,Study,User,-,,Study/JOL,"Study Phase",550,,,-1,-1,,,,1
5e6cdd414ecdc62853e75759,2opp84a0jk,Nick_Dissertation_EX1,1,66,2020-06-02T09:06:00-07:00,0.55093908309937,4,versionC_stim.csv,READVersionD.csv,"Read Version D","Dissertation, read only version D",WET,DRY,Study2,S,146,149,Study,User,-,,Study/JOL,"Study Phase",213,,,-1,-1,,,,1
5e6cdd414ecdc62853e75759,2opp84a0jk,Nick_Dissertation_EX1,1,67,2020-06-02T09:06:01-07:00,0.56417489051819,4,versionC_stim.csv,READVersionD.csv,"Read Version D","Dissertation, read only version D",EQUAL,RIGHTS,Study2,S,137,159,Study,User,-,,Study/JOL,"Study Phase",207,,,-1,-1,,,,1
5e6cdd414ecdc62853e75759,2opp84a0jk,Nick_Dissertation_EX1,1,68,2020-06-02T09:06:01-07:00,0.53316807746887,4,versionC_stim.csv,READVersionD.csv,"Read Version D","Dissertation, read only version D",TOIL,LEASE,Study2,U,170,127,Study,User,-,,Study/JOL,"Study Phase",191,,,-1,-1,,,,1
5e6cdd414ecdc62853e75759,2opp84a0jk,Nick_Dissertation_EX1,1,69,2020-06-02T09:06:02-07:00,0.84653306007385,4,versionC_stim.csv,READVersionD.csv,"Read Version D","Dissertation, read only version D",WINDSHIELD,CAR,Study2,F,117,130,Study,User,-,,Study/JOL,"Study Phase",501,,,-1,-1,,,,1
5e6cdd414ecdc62853e75759,2opp84a0jk,Nick_Dissertation_EX1,1,70,2020-06-02T09:06:03-07:00,0.55281686782837,4,versionC_stim.csv,READVersionD.csv,"Read Version D","Dissertation, read only version D",DOG,FURRY,Study2,B,102,100,Study,User,-,,Study/JOL,"Study Phase",193,,,-1,-1,,,,1
5e6cdd414ecdc62853e75759,2opp84a0jk,Nick_Dissertation_EX1,1,71,2020-06-02T09:06:03-07:00,0.7703320980072,4,versionC_stim.csv,READVersionD.csv,"Read Version D","Dissertation, read only version D",LONG,EXTENSION,Study2,B,96,117,Study,User,-,,Study/JOL,"Study Phase",416,,,-1,-1,,,,1
5e6cdd414ecdc62853e75759,2opp84a0jk,Nick_Dissertation_EX1,1,72,2020-06-02T09:06:04-07:00,0.58102703094482,4,versionC_stim.csv,READVersionD.csv,"Read Version D","Dissertation, read only version D",BANKER,MONEY,Study2,F,132,143,Study,User,-,,Study/JOL,"Study Phase",257,,,-1,-1,,,,1
5e6cdd414ecdc62853e75759,2opp84a0jk,Nick_Dissertation_EX1,1,73,2020-06-02T09:06:05-07:00,0.53577589988708,4,versionC_stim.csv,READVersionD.csv,"Read Version D","Dissertation, read only version D",TICK,FLEA,Study2,S,151,160,Study,User,-,,Study/JOL,"Study Phase",165,,,-1,-1,,,,1
5e6cdd414ecdc62853e75759,2opp84a0jk,Nick_Dissertation_EX1,1,74,2020-06-02T09:06:05-07:00,0.58562016487122,4,versionC_stim.csv,READVersionD.csv,"Read Version D","Dissertation, read only version D",CUT,CHOP,Study2,B,107,148,Study,User,-,,Study/JOL,"Study Phase",161,,,-1,-1,,,,1
5e6cdd414ecdc62853e75759,2opp84a0jk,Nick_Dissertation_EX1,1,75,2020-06-02T09:06:06-07:00,0.98465180397034,4,versionC_stim.csv,READVersionD.csv,"Read Version D","Dissertation, read only version D",MYSTERY,DETECTIVE,Study2,B,100,168,Study,User,-,,Study/JOL,"Study Phase",615,,,-1,-1,,,,1
5e6cdd414ecdc62853e75759,2opp84a0jk,Nick_Dissertation_EX1,1,76,2020-06-02T09:06:07-07:00,0.59203219413757,4,versionC_stim.csv,READVersionD.csv,"Read Version D","Dissertation, read only version D",COFFIN,DEAD,Study2,F,128,173,Study,User,-,,Study/JOL,"Study Phase",231,,,-1,-1,,,,1
5e6cdd414ecdc62853e75759,2opp84a0jk,Nick_Dissertation_EX1,1,77,2020-06-02T09:06:07-07:00,0.56077480316162,4,versionC_stim.csv,READVersionD.csv,"Read Version D","Dissertation, read only version D",REEL,ROD,Study2,S,150,137,Study,User,-,,Study/JOL,"Study Phase",212,,,-1,-1,,,,1
5e6cdd414ecdc62853e75759,2opp84a0jk,Nick_Dissertation_EX1,1,78,2020-06-02T09:06:08-07:00,0.55292105674744,4,versionC_stim.csv,READVersionD.csv,"Read Version D","Dissertation, read only version D",ELECTION,MAZE,Study2,U,159,112,Study,User,-,,Study/JOL,"Study Phase",178,,,-1,-1,,,,1
5e6cdd414ecdc62853e75759,2opp84a0jk,Nick_Dissertation_EX1,1,79,2020-06-02T09:06:09-07:00,0.8951051235199,4,versionC_stim.csv,READVersionD.csv,"Read Version D","Dissertation, read only version D",DONKEY,MULE,Study2,B,108,123,Study,User,-,,Study/JOL,"Study Phase",519,,,-1,-1,,,,1
5e6cdd414ecdc62853e75759,2opp84a0jk,Nick_Dissertation_EX1,1,80,2020-06-02T09:06:09-07:00,0.59440779685974,4,versionC_stim.csv,READVersionD.csv,"Read Version D","Dissertation, read only version D",SCISSORS,SHEARS,Study2,B,112,164,Study,User,-,,Study/JOL,"Study Phase",192,,,-1,-1,,,,1
5e6cdd414ecdc62853e75759,2opp84a0jk,Nick_Dissertation_EX1,1,81,2020-06-02T09:06:10-07:00,0.54802107810974,4,versionC_stim.csv,READVersionD.csv,"Read Version D","Dissertation, read only version D",AIRCRAFT,PLANE,Study2,F,129,141,Study,User,-,,Study/JOL,"Study Phase",195,,,-1,-1,,,,1
5e6cdd414ecdc62853e75759,2opp84a0jk,Nick_Dissertation_EX1,1,82,2020-06-02T09:06:10-07:00,0.62140202522278,4,versionC_stim.csv,READVersionD.csv,"Read Version D","Dissertation, read only version D",DRINK,WATER,Study2,S,143,109,Study,User,-,,Study/JOL,"Study Phase",242,,,-1,-1,,,,1
5e6cdd414ecdc62853e75759,2opp84a0jk,Nick_Dissertation_EX1,1,83,2020-06-02T09:06:11-07:00,0.55948209762573,4,versionC_stim.csv,READVersionD.csv,"Read Version D","Dissertation, read only version D",BREAKABLE,GLASS,Study2,F,127,176,Study,User,-,,Study/JOL,"Study Phase",194,,,-1,-1,,,,1
5e6cdd414ecdc62853e75759,2opp84a0jk,Nick_Dissertation_EX1,1,84,2020-06-02T09:06:12-07:00,0.58424401283264,4,versionC_stim.csv,READVersionD.csv,"Read Version D","Dissertation, read only version D",LOVE,AFFECTION,Study2,B,115,156,Study,User,-,,Study/JOL,"Study Phase",204,,,-1,-1,,,,1
5e6cdd414ecdc62853e75759,2opp84a0jk,Nick_Dissertation_EX1,1,85,2020-06-02T09:06:12-07:00,0.60612988471985,4,versionC_stim.csv,READVersionD.csv,"Read Version D","Dissertation, read only version D",HATE,NAME,Study2,U,167,128,Study,User,-,,Study/JOL,"Study Phase",226,,,-1,-1,,,,1
5e6cdd414ecdc62853e75759,2opp84a0jk,Nick_Dissertation_EX1,1,86,2020-06-02T09:06:13-07:00,0.57645392417908,4,versionC_stim.csv,READVersionD.csv,"Read Version D","Dissertation, read only version D",SEATBELT,SAFETY,Study2,S,147,118,Study,User,-,,Study/JOL,"Study Phase",185,,,-1,-1,,,,1
5e6cdd414ecdc62853e75759,2opp84a0jk,Nick_Dissertation_EX1,1,87,2020-06-02T09:06:13-07:00,0.59081602096558,4,versionC_stim.csv,READVersionD.csv,"Read Version D","Dissertation, read only version D",MARCH,SPRING,BUFFER4,Buffer,179,177,Study,User,-,,Study/JOL,BUFFER2,225,,,-1,-1,,,,1
5e6cdd414ecdc62853e75759,2opp84a0jk,Nick_Dissertation_EX1,1,88,2020-06-02T09:06:23-07:00,10.103531122208,4,versionC_stim.csv,READVersionD.csv,"Read Version D","Dissertation, read only version D",WEAKS,DAYS,BUFFER4,Buffer,176,179,Study,User,-,,Study/JOL,BUFFER2,9751,,,-1,-1,,,,0.55
5e6cdd414ecdc62853e75759,2opp84a0jk,Nick_Dissertation_EX1,1,89,2020-06-02T09:06:24-07:00,0.67350792884827,4,versionC_stim.csv,READVersionD.csv,"Read Version D","Dissertation, read only version D",SHED,TOOL,BUFFER4,Buffer,178,181,Study,User,-,,Study/JOL,BUFFER2,304,,,-1,-1,,,,1
5e6cdd414ecdc62853e75759,2opp84a0jk,Nick_Dissertation_EX1,1,90,2020-06-02T09:06:25-07:00,0.53992390632629,4,versionC_stim.csv,READVersionD.csv,"Read Version D","Dissertation, read only version D",SPOOKY,OCTOBER,BUFFER4,Buffer,180,180,Study,User,-,,Study/JOL,BUFFER2,171,,,-1,-1,,,,1
5e6cdd414ecdc62853e75759,2opp84a0jk,Nick_Dissertation_EX1,1,91,2020-06-02T09:06:25-07:00,0.56138801574707,4,versionC_stim.csv,READVersionD.csv,"Read Version D","Dissertation, read only version D",YEAR,MONTH,BUFFER4,Buffer,177,178,Study,User,-,,Study/JOL,BUFFER2,228,,,-1,-1,,,,1
5e6cdd414ecdc62853e75759,2opp84a0jk,Nick_Dissertation_EX1,1,92,2020-06-02T09:06:27-07:00,1.9177241325378,4,versionC_stim.csv,READVersionD.csv,"Read Version D","Dissertation, read only version D",,,,,,0,Instruct,User,-,"You have completed this section. Please press Enter.",Filler_Instruction,Instruct2,1571,,,-1,-1,,,,1
5e6cdd414ecdc62853e75759,2opp84a0jk,Nick_Dissertation_EX1,1,93,2020-06-02T09:08:28-07:00,120.53164792061,4,versionC_stim.csv,READVersionD.csv,"Read Version D","Dissertation, read only version D",,,,,,0,FreeRecall,120,120,"Please list the 50 US states in alphabetical order. The task will automatically advance to the next screen after two minutes.",,Filler1,120060,"Alabama Alaska Arizona Arkansas California Colorado Connecticut Delaware Florida Georgia Hawaii Idaho Illinois Indiana Iowa Kansas Kentucky Louisiana Maine Maryland Massachusetts Michigan Minnesota Mississippi Missouri Montana Nebraska Nevada New Hampshire New Jersey New Mexico New York North Carolina North Dakota Ohio Oklahoma Oregon Pennsylvania Rhode Island South Carolina South Dakota Tennessee Texas Utah Vermont Virginia Washington West Virginia Wisconsin Wyoming",0,33496,33496,0,0,,0.507
5e6cdd414ecdc62853e75759,2opp84a0jk,Nick_Dissertation_EX1,1,94,2020-06-02T09:08:49-07:00,21.220122098923,4,versionC_stim.csv,READVersionD.csv,"Read Version D","Dissertation, read only version D",,,,,,0,Instruct,-,10,"You will now be presented with the first word from each of the previously studied item pairs. Please type the missing word. If you do not know the word, you may guess or press Enter to skip forward to the next pair.",,Instruct3,20921,,,-1,-1,,,,0.427
5e6cdd414ecdc62853e75759,2opp84a0jk,Nick_Dissertation_EX1,1,95,2020-06-02T09:08:53-07:00,4.4080848693848,4,versionC_stim.csv,READVersionD.csv,"Read Version D","Dissertation, read only version D",BREAKABLE,GLASS,Study2,F,127,176,Test,User,-,,Recall,Recall1,4092,Jar,25,2611,2932,0,0,,1
5e6cdd414ecdc62853e75759,2opp84a0jk,Nick_Dissertation_EX1,1,96,2020-06-02T09:08:57-07:00,3.4601080417633,4,versionC_stim.csv,READVersionD.csv,"Read Version D","Dissertation, read only version D",PENGUIN,BIRD,Study2,F,119,172,Test,User,-,,Recall,Recall1,3145,Ice,28.571428571429,1697,2281,0,0,,1
5e6cdd414ecdc62853e75759,2opp84a0jk,Nick_Dissertation_EX1,1,97,2020-06-02T09:09:00-07:00,3.4654569625854,4,versionC_stim.csv,READVersionD.csv,"Read Version D","Dissertation, read only version D",CHARM,VEHICLE,Study2,U,160,108,Test,User,-,,Recall,Recall1,3165,bracelet,40,1629,2773,0,0,,1
5e6cdd414ecdc62853e75759,2opp84a0jk,Nick_Dissertation_EX1,1,98,2020-06-02T09:09:02-07:00,2.0311110019684,4,versionC_stim.csv,READVersionD.csv,"Read Version D","Dissertation, read only version D",HEAD,SCALP,Study2,B,105,154,Test,User,-,,Recall,Recall1,1684,lice,22.222222222222,997,1492,0,0,,1
5e6cdd414ecdc62853e75759,2opp84a0jk,Nick_Dissertation_EX1,1,99,2020-06-02T09:09:05-07:00,2.4108371734619,4,versionC_stim.csv,READVersionD.csv,"Read Version D","Dissertation, read only version D",DONKEY,MULE,Study2,B,108,123,Test,User,-,,Recall,Recall1,2082,cart,0,1394,1946,0,0,,1
5e6cdd414ecdc62853e75759,2opp84a0jk,Nick_Dissertation_EX1,1,100,2020-06-02T09:09:07-07:00,2.2806940078735,4,versionC_stim.csv,READVersionD.csv,"Read Version D","Dissertation, read only version D",MYSTERY,DETECTIVE,Study2,B,100,168,Test,User,-,,Recall,Recall1,1884,box,0,1196,1579,0,0,,1
5e6cdd414ecdc62853e75759,2opp84a0jk,Nick_Dissertation_EX1,1,101,2020-06-02T09:09:09-07:00,2.1039388179779,4,versionC_stim.csv,READVersionD.csv,"Read Version D","Dissertation, read only version D",WET,DRY,Study2,S,146,149,Test,User,-,,Recall,Recall1,1816,dry,100,1287,1711,1,1,,1
5e6cdd414ecdc62853e75759,2opp84a0jk,Nick_Dissertation_EX1,1,102,2020-06-02T09:09:13-07:00,3.6522941589355,4,versionC_stim.csv,READVersionD.csv,"Read Version D","Dissertation, read only version D",TOIL,LEASE,Study2,U,170,127,Test,User,-,,Recall,Recall1,3339,dirt,0,2780,3202,0,0,,1
5e6cdd414ecdc62853e75759,2opp84a0jk,Nick_Dissertation_EX1,1,103,2020-06-02T09:09:15-07:00,2.2507908344269,4,versionC_stim.csv,READVersionD.csv,"Read Version D","Dissertation, read only version D",HATE,NAME,Study2,U,167,128,Test,User,-,,Recall,Recall1,1918,love,25,1214,1812,0,0,,1
5e6cdd414ecdc62853e75759,2opp84a0jk,Nick_Dissertation_EX1,1,104,2020-06-02T09:09:18-07:00,2.5600039958954,4,versionC_stim.csv,READVersionD.csv,"Read Version D","Dissertation, read only version D",OUNCE,BOTH,Study2,U,172,126,Test,User,-,,Recall,Recall1,2263,pound,22.222222222222,975,1759,0,0,,1
5e6cdd414ecdc62853e75759,2opp84a0jk,Nick_Dissertation_EX1,1,105,2020-06-02T09:09:23-07:00,5.0834140777588,4,versionC_stim.csv,READVersionD.csv,"Read Version D","Dissertation, read only version D",HAVE,OWN,Study2,S,153,122,Test,User,-,,Recall,Recall1,4782,lose,28.571428571429,1126,4654,0,0,,1
5e6cdd414ecdc62853e75759,2opp84a0jk,Nick_Dissertation_EX1,1,106,2020-06-02T09:09:24-07:00,1.8723909854889,4,versionC_stim.csv,READVersionD.csv,"Read Version D","Dissertation, read only version D",RED,CHERRY,Study2,B,104,162,Test,User,-,,Recall,Recall1,1558,blue,20,1022,1436,0,0,,1
5e6cdd414ecdc62853e75759,2opp84a0jk,Nick_Dissertation_EX1,1,107,2020-06-02T09:09:27-07:00,2.4969689846039,4,versionC_stim.csv,READVersionD.csv,"Read Version D","Dissertation, read only version D",AWAY,GONE,Study2,S,142,171,Test,User,-,,Recall,Recall1,2159,from,25,1575,1967,0,0,,1
5e6cdd414ecdc62853e75759,2opp84a0jk,Nick_Dissertation_EX1,1,108,2020-06-02T09:09:29-07:00,1.9114699363708,4,versionC_stim.csv,READVersionD.csv,"Read Version D","Dissertation, read only version D",DOG,FURRY,Study2,B,102,100,Test,User,-,,Recall,Recall1,1627,cat,0,1147,1499,0,0,,1
5e6cdd414ecdc62853e75759,2opp84a0jk,Nick_Dissertation_EX1,1,109,2020-06-02T09:09:33-07:00,4.2769551277161,4,versionC_stim.csv,READVersionD.csv,"Read Version D","Dissertation, read only version D",NAP,SLEEP,Study2,F,134,98,Test,User,-,,Recall,Recall1,3980,pillow,18.181818181818,1379,3867,0,0,,1
5e6cdd414ecdc62853e75759,2opp84a0jk,Nick_Dissertation_EX1,1,110,2020-06-02T09:09:36-07:00,2.8701479434967,4,versionC_stim.csv,READVersionD.csv,"Read Version D","Dissertation, read only version D",COFFIN,DEAD,Study2,F,128,173,Test,User,-,,Recall,Recall1,2556,box,0,1429,1780,0,0,,1
5e6cdd414ecdc62853e75759,2opp84a0jk,Nick_Dissertation_EX1,1,111,2020-06-02T09:09:38-07:00,2.1210560798645,4,versionC_stim.csv,READVersionD.csv,"Read Version D","Dissertation, read only version D",BRACELET,WRIST,Study2,S,140,114,Test,User,-,,Recall,Recall1,1821,charm,20,1158,1638,0,0,,1
5e6cdd414ecdc62853e75759,2opp84a0jk,Nick_Dissertation_EX1,1,112,2020-06-02T09:09:41-07:00,3.1978468894958,4,versionC_stim.csv,READVersionD.csv,"Read Version D","Dissertation, read only version D",STEAK,GIVE,Study2,U,158,165,Test,User,-,,Recall,Recall1,2904,chips,22.222222222222,2216,2807,0,0,,1
5e6cdd414ecdc62853e75759,2opp84a0jk,Nick_Dissertation_EX1,1,113,2020-06-02T09:09:44-07:00,2.7414410114288,4,versionC_stim.csv,READVersionD.csv,"Read Version D","Dissertation, read only version D",WAX,CANDLE,Study2,S,139,131,Test,User,-,,Recall,Recall1,2431,eyebrow,15.384615384615,1399,2286,0,0,,1
5e6cdd414ecdc62853e75759,2opp84a0jk,Nick_Dissertation_EX1,1,114,2020-06-02T09:09:47-07:00,3.1837091445923,4,versionC_stim.csv,READVersionD.csv,"Read Version D","Dissertation, read only version D",TIE,SHOELACE,Study2,B,99,124,Test,User,-,,Recall,Recall1,2879,suit,16.666666666667,2160,2598,0,0,,1
5e6cdd414ecdc62853e75759,2opp84a0jk,Nick_Dissertation_EX1,1,115,2020-06-02T09:09:50-07:00,2.2547399997711,4,versionC_stim.csv,READVersionD.csv,"Read Version D","Dissertation, read only version D",SARDINE,FISH,Study2,F,130,101,Test,User,-,,Recall,Recall1,1944,can,0,1320,1552,0,0,,1
5e6cdd414ecdc62853e75759,2opp84a0jk,Nick_Dissertation_EX1,1,116,2020-06-02T09:09:52-07:00,2.1436049938202,4,versionC_stim.csv,READVersionD.csv,"Read Version D","Dissertation, read only version D",SCISSORS,SHEARS,Study2,B,112,164,Test,User,-,,Recall,Recall1,1864,paper,36.363636363636,1208,1743,0,0,,1
5e6cdd414ecdc62853e75759,2opp84a0jk,Nick_Dissertation_EX1,1,117,2020-06-02T09:09:55-07:00,3.0525538921356,4,versionC_stim.csv,READVersionD.csv,"Read Version D","Dissertation, read only version D",LEAGUE,BASEBALL,Study2,F,131,174,Test,User,-,,Recall,Recall1,2762,legends,13.333333333333,1242,2618,0,0,,1
5e6cdd414ecdc62853e75759,2opp84a0jk,Nick_Dissertation_EX1,1,118,2020-06-02T09:09:57-07:00,2.333832025528,4,versionC_stim.csv,READVersionD.csv,"Read Version D","Dissertation, read only version D",OBTAIN,MEAT,Study2,U,161,129,Test,User,-,,Recall,Recall1,2031,lose,25,1495,1932,0,0,,1
5e6cdd414ecdc62853e75759,2opp84a0jk,Nick_Dissertation_EX1,1,119,2020-06-02T09:10:00-07:00,3.0389471054077,4,versionC_stim.csv,READVersionD.csv,"Read Version D","Dissertation, read only version D",TAN,SUN,Study2,S,155,175,Test,User,-,,Recall,Recall1,1739,sun,100,1243,1547,1,1,,1
5e6cdd414ecdc62853e75759,2opp84a0jk,Nick_Dissertation_EX1,1,120,2020-06-02T09:10:04-07:00,3.8809638023376,4,versionC_stim.csv,READVersionD.csv,"Read Version D","Dissertation, read only version D",Morning,TEMPERATURE,Study2,U,173,147,Test,User,-,,Recall,Recall1,3570,awake,25,2834,3473,0,0,,1
5e6cdd414ecdc62853e75759,2opp84a0jk,Nick_Dissertation_EX1,1,121,2020-06-02T09:10:07-07:00,2.974200963974,4,versionC_stim.csv,READVersionD.csv,"Read Version D","Dissertation, read only version D",FIGHT,FEUD,Study2,B,113,140,Test,User,-,,Recall,Recall1,2587,punch,22.222222222222,1476,2225,0,0,,1
5e6cdd414ecdc62853e75759,2opp84a0jk,Nick_Dissertation_EX1,1,122,2020-06-02T09:10:09-07:00,2.3073511123657,4,versionC_stim.csv,READVersionD.csv,"Read Version D","Dissertation, read only version D",THIMBLE,THREAD,Study2,F,121,152,Test,User,-,,Recall,Recall1,2005,needle,33.333333333333,1277,1877,0,0,,1
5e6cdd414ecdc62853e75759,2opp84a0jk,Nick_Dissertation_EX1,1,123,2020-06-02T09:10:11-07:00,1.9822430610657,4,versionC_stim.csv,READVersionD.csv,"Read Version D","Dissertation, read only version D",END,ADJOURN,Study2,B,101,158,Test,User,-,,Recall,Recall1,1675,near,18.181818181818,1171,1562,0,0,,1
5e6cdd414ecdc62853e75759,2opp84a0jk,Nick_Dissertation_EX1,1,124,2020-06-02T09:10:14-07:00,2.95152592659,4,versionC_stim.csv,READVersionD.csv,"Read Version D","Dissertation, read only version D",SCAR,MAIN,Study2,U,175,106,Test,User,-,,Recall,Recall1,2655,tissue,20,1798,2566,0,0,,1
5e6cdd414ecdc62853e75759,2opp84a0jk,Nick_Dissertation_EX1,1,125,2020-06-02T09:10:18-07:00,3.4771890640259,4,versionC_stim.csv,READVersionD.csv,"Read Version D","Dissertation, read only version D",REVENGE,EVEN,Study2,F,122,104,Test,User,-,,Recall,Recall1,3151,avenge,60,2048,2789,0,0,,1
5e6cdd414ecdc62853e75759,2opp84a0jk,Nick_Dissertation_EX1,1,126,2020-06-02T09:10:21-07:00,3.6340630054474,4,versionC_stim.csv,READVersionD.csv,"Read Version D","Dissertation, read only version D",FAVORITE,BEST,Study2,F,125,138,Test,User,-,,Recall,Recall1,3270,chocolate,15.384615384615,1929,3120,0,0,,1
5e6cdd414ecdc62853e75759,2opp84a0jk,Nick_Dissertation_EX1,1,127,2020-06-02T09:10:24-07:00,2.7139730453491,4,versionC_stim.csv,READVersionD.csv,"Read Version D","Dissertation, read only version D",EQUAL,RIGHTS,Study2,S,137,159,Test,User,-,,Recall,Recall1,2376,rights,100,1577,2277,1,1,,1
5e6cdd414ecdc62853e75759,2opp84a0jk,Nick_Dissertation_EX1,1,128,2020-06-02T09:10:26-07:00,2.3050649166107,4,versionC_stim.csv,READVersionD.csv,"Read Version D","Dissertation, read only version D",SHAVE,RAZOR,Study2,S,136,135,Test,User,-,,Recall,Recall1,1930,head,22.222222222222,1323,1786,0,0,,1
5e6cdd414ecdc62853e75759,2opp84a0jk,Nick_Dissertation_EX1,1,129,2020-06-02T09:10:31-07:00,4.7315239906311,4,versionC_stim.csv,READVersionD.csv,"Read Version D","Dissertation, read only version D",MAROON,JUSTICE,Study2,U,156,142,Test,User,-,,Recall,Recall1,4400,island,15.384615384615,1705,4177,0,0,,1
5e6cdd414ecdc62853e75759,2opp84a0jk,Nick_Dissertation_EX1,1,130,2020-06-02T09:10:33-07:00,2.1225919723511,4,versionC_stim.csv,READVersionD.csv,"Read Version D","Dissertation, read only version D",LOVE,AFFECTION,Study2,B,115,156,Test,User,-,,Recall,Recall1,1756,hate,30.769230769231,1184,1653,0,0,,1
5e6cdd414ecdc62853e75759,2opp84a0jk,Nick_Dissertation_EX1,1,131,2020-06-02T09:10:36-07:00,3.274964094162,4,versionC_stim.csv,READVersionD.csv,"Read Version D","Dissertation, read only version D",REEL,ROD,Study2,S,150,137,Test,User,-,,Recall,Recall1,2878,fish,0,2052,2711,0,0,,1
5e6cdd414ecdc62853e75759,2opp84a0jk,Nick_Dissertation_EX1,1,132,2020-06-02T09:10:41-07:00,4.5604648590088,4,versionC_stim.csv,READVersionD.csv,"Read Version D","Dissertation, read only version D",FICTION,LISTEN,Study2,U,164,103,Test,User,-,,Recall,Recall1,4181,pulp,20,1552,3998,0,0,,1
5e6cdd414ecdc62853e75759,2opp84a0jk,Nick_Dissertation_EX1,1,133,2020-06-02T09:10:45-07:00,3.7442610263824,4,versionC_stim.csv,READVersionD.csv,"Read Version D","Dissertation, read only version D",FLIP,TURN,Study2,F,116,144,Test,User,-,,Recall,Recall1,3321,bottle,20,2124,2748,0,0,,1
5e6cdd414ecdc62853e75759,2opp84a0jk,Nick_Dissertation_EX1,1,134,2020-06-02T09:13:49-07:00,183.99200296402,4,versionC_stim.csv,READVersionD.csv,"Read Version D","Dissertation, read only version D",LONELY,ALONE,Study2,S,145,153,Test,User,-,,Recall,Recall1,183444,home,44.444444444444,182978,183284,0,0,,0.021
5e6cdd414ecdc62853e75759,2opp84a0jk,Nick_Dissertation_EX1,1,135,2020-06-02T09:13:53-07:00,4.3440780639648,4,versionC_stim.csv,READVersionD.csv,"Read Version D","Dissertation, read only version D",JOKE,KEYS,Study2,U,165,169,Test,User,-,,Recall,Recall1,3954,laugh,0,3194,3730,0,0,,1
5e6cdd414ecdc62853e75759,2opp84a0jk,Nick_Dissertation_EX1,1,136,2020-06-02T09:13:56-07:00,3.1983850002289,4,versionC_stim.csv,READVersionD.csv,"Read Version D","Dissertation, read only version D",LONG,EXTENSION,Study2,B,96,117,Test,User,-,,Recall,Recall1,2841,road,15.384615384615,2292,2731,0,0,,1
5e6cdd414ecdc62853e75759,2opp84a0jk,Nick_Dissertation_EX1,1,137,2020-06-02T09:13:59-07:00,2.5358259677887,4,versionC_stim.csv,READVersionD.csv,"Read Version D","Dissertation, read only version D",ELECTION,MAZE,Study2,U,159,112,Test,User,-,,Recall,Recall1,2142,trump,22.222222222222,1384,1982,0,0,,1
5e6cdd414ecdc62853e75759,2opp84a0jk,Nick_Dissertation_EX1,1,138,2020-06-02T09:14:02-07:00,2.9772670269012,4,versionC_stim.csv,READVersionD.csv,"Read Version D","Dissertation, read only version D",JAR,MASON,Study2,S,138,133,Test,User,-,,Recall,Recall1,2605,break,20,1524,2102,0,0,,1
5e6cdd414ecdc62853e75759,2opp84a0jk,Nick_Dissertation_EX1,1,139,2020-06-02T09:14:04-07:00,2.1671960353851,4,versionC_stim.csv,READVersionD.csv,"Read Version D","Dissertation, read only version D",PANTHER,CAT,Study2,F,126,145,Test,User,-,,Recall,Recall1,1823,black,25,1123,1689,0,0,,1
5e6cdd414ecdc62853e75759,2opp84a0jk,Nick_Dissertation_EX1,1,140,2020-06-02T09:14:07-07:00,2.5510849952698,4,versionC_stim.csv,READVersionD.csv,"Read Version D","Dissertation, read only version D",NOISE,LOUD,Study2,S,152,116,Test,User,-,,Recall,Recall1,2182,can,0,1753,1993,0,0,,1
5e6cdd414ecdc62853e75759,2opp84a0jk,Nick_Dissertation_EX1,1,141,2020-06-02T09:14:09-07:00,2.4819369316101,4,versionC_stim.csv,READVersionD.csv,"Read Version D","Dissertation, read only version D",LIE,TRUTH,Study2,S,148,125,Test,User,-,,Recall,Recall1,2116,truth,100,1487,1924,1,1,,1
5e6cdd414ecdc62853e75759,2opp84a0jk,Nick_Dissertation_EX1,1,142,2020-06-02T09:14:12-07:00,3.0639510154724,4,versionC_stim.csv,READVersionD.csv,"Read Version D","Dissertation, read only version D",CLOTH,STRETCH,Study2,U,157,163,Test,User,-,,Recall,Recall1,2652,naked,16.666666666667,2203,2628,0,0,,1
5e6cdd414ecdc62853e75759,2opp84a0jk,Nick_Dissertation_EX1,1,143,2020-06-02T09:14:14-07:00,2.334566116333,4,versionC_stim.csv,READVersionD.csv,"Read Version D","Dissertation, read only version D",CARBON,ELEMENT,Study2,S,141,119,Test,User,-,,Recall,Recall1,1980,fibre,16.666666666667,1214,1717,0,0,,1
5e6cdd414ecdc62853e75759,2opp84a0jk,Nick_Dissertation_EX1,1,144,2020-06-02T09:14:17-07:00,2.7540168762207,4,versionC_stim.csv,READVersionD.csv,"Read Version D","Dissertation, read only version D",PAPER,DOCUMENT,Study2,B,109,132,Test,User,-,,Recall,Recall1,2374,rock,33.333333333333,1785,2191,0,0,,1
5e6cdd414ecdc62853e75759,2opp84a0jk,Nick_Dissertation_EX1,1,145,2020-06-02T09:14:20-07:00,2.4634909629822,4,versionC_stim.csv,READVersionD.csv,"Read Version D","Dissertation, read only version D",BANKER,MONEY,Study2,F,132,143,Test,User,-,,Recall,Recall1,2060,money,100,1299,1909,1,1,,1
5e6cdd414ecdc62853e75759,2opp84a0jk,Nick_Dissertation_EX1,1,146,2020-06-02T09:14:22-07:00,2.2736911773682,4,versionC_stim.csv,READVersionD.csv,"Read Version D","Dissertation, read only version D",CUT,CHOP,Study2,B,107,148,Test,User,-,,Recall,Recall1,1881,tie,0,1427,1642,0,0,,1
5e6cdd414ecdc62853e75759,2opp84a0jk,Nick_Dissertation_EX1,1,147,2020-06-02T09:14:26-07:00,3.9015338420868,4,versionC_stim.csv,READVersionD.csv,"Read Version D","Dissertation, read only version D",AIRCRAFT,PLANE,Study2,F,129,141,Test,User,-,,Recall,Recall1,3512,hangar,36.363636363636,1906,3449,0,0,,1
5e6cdd414ecdc62853e75759,2opp84a0jk,Nick_Dissertation_EX1,1,148,2020-06-02T09:14:30-07:00,3.8234889507294,4,versionC_stim.csv,READVersionD.csv,"Read Version D","Dissertation, read only version D",SIGN,LOAN,Study2,U,171,111,Test,User,-,,Recall,Recall1,3462,road,50,3040,3383,0,0,,1
5e6cdd414ecdc62853e75759,2opp84a0jk,Nick_Dissertation_EX1,1,149,2020-06-02T09:17:00-07:00,150.4519610405,4,versionC_stim.csv,READVersionD.csv,"Read Version D","Dissertation, read only version D",TRASH,LITTER,Study2,B,103,107,Test,User,-,,Recall,Recall1,127997,can,0,127639,127832,0,0,,0.013
5e6cdd414ecdc62853e75759,2opp84a0jk,Nick_Dissertation_EX1,1,150,2020-06-02T09:17:02-07:00,2.2693400382996,4,versionC_stim.csv,READVersionD.csv,"Read Version D","Dissertation, read only version D",WINDSHIELD,CAR,Study2,F,117,130,Test,User,-,,Recall,Recall1,1828,car,100,1371,1701,1,1,,1
5e6cdd414ecdc62853e75759,2opp84a0jk,Nick_Dissertation_EX1,1,151,2020-06-02T09:17:05-07:00,2.1393959522247,4,versionC_stim.csv,READVersionD.csv,"Read Version D","Dissertation, read only version D",ACTRESS,STAR,Study2,F,120,99,Test,User,-,,Recall,Recall1,1823,dame,25,1449,1729,0,0,,1
5e6cdd414ecdc62853e75759,2opp84a0jk,Nick_Dissertation_EX1,1,152,2020-06-02T09:17:07-07:00,2.4432229995728,4,versionC_stim.csv,READVersionD.csv,"Read Version D","Dissertation, read only version D",TEMPER,TANTRUM,Study2,S,154,139,Test,User,-,,Recall,Recall1,2083,tinie,33.333333333333,1301,1964,0,0,,1
5e6cdd414ecdc62853e75759,2opp84a0jk,Nick_Dissertation_EX1,1,153,2020-06-02T09:17:10-07:00,3.1510741710663,4,versionC_stim.csv,READVersionD.csv,"Read Version D","Dissertation, read only version D",GAME,CLUE,Study2,B,97,157,Test,User,-,,Recall,Recall1,2765,cube,75,2136,2671,0,1,,1
5e6cdd414ecdc62853e75759,2opp84a0jk,Nick_Dissertation_EX1,1,154,2020-06-02T09:17:13-07:00,2.5191009044647,4,versionC_stim.csv,READVersionD.csv,"Read Version D","Dissertation, read only version D",SMELL,INCENSE,Study2,B,110,136,Test,User,-,,Recall,Recall1,2139,fish,36.363636363636,1162,1748,0,0,,1
5e6cdd414ecdc62853e75759,2opp84a0jk,Nick_Dissertation_EX1,1,155,2020-06-02T09:17:15-07:00,2.637864112854,4,versionC_stim.csv,READVersionD.csv,"Read Version D","Dissertation, read only version D",ABLE,CRACKLE,Study2,U,162,105,Test,User,-,,Recall,Recall1,2249,dis,0,1939,2146,0,0,,1
5e6cdd414ecdc62853e75759,2opp84a0jk,Nick_Dissertation_EX1,1,156,2020-06-02T09:17:18-07:00,2.4349718093872,4,versionC_stim.csv,READVersionD.csv,"Read Version D","Dissertation, read only version D",VILLAIN,BAD,Study2,F,118,155,Test,User,-,,Recall,Recall1,2054,super,0,1417,1982,0,0,,1
5e6cdd414ecdc62853e75759,2opp84a0jk,Nick_Dissertation_EX1,1,157,2020-06-02T09:17:20-07:00,2.1789231300354,4,versionC_stim.csv,READVersionD.csv,"Read Version D","Dissertation, read only version D",TICK,FLEA,Study2,S,151,160,Test,User,-,,Recall,Recall1,1771,tock,0,1054,1422,0,0,,1
5e6cdd414ecdc62853e75759,2opp84a0jk,Nick_Dissertation_EX1,1,158,2020-06-02T09:17:25-07:00,5.5870559215546,4,versionC_stim.csv,READVersionD.csv,"Read Version D","Dissertation, read only version D",GROUND,EARTH,Study2,S,144,102,Test,User,-,,Recall,Recall1,5204,EARTH,100,1099,4999,1,1,,1
5e6cdd414ecdc62853e75759,2opp84a0jk,Nick_Dissertation_EX1,1,159,2020-06-02T09:17:28-07:00,2.5661699771881,4,versionC_stim.csv,READVersionD.csv,"Read Version D","Dissertation, read only version D",SHAKE,Shell,Study2,U,163,115,Test,User,-,,Recall,Recall1,2206,MILK,22.222222222222,1353,1856,0,0,,1
5e6cdd414ecdc62853e75759,2opp84a0jk,Nick_Dissertation_EX1,1,160,2020-06-02T09:17:31-07:00,3.3200399875641,4,versionC_stim.csv,READVersionD.csv,"Read Version D","Dissertation, read only version D",CLOTHES,CAKE,Study2,U,166,120,Test,User,-,,Recall,Recall1,2931,SHOES,22.222222222222,2058,2620,0,0,,1
5e6cdd414ecdc62853e75759,2opp84a0jk,Nick_Dissertation_EX1,1,161,2020-06-02T09:17:33-07:00,2.1537730693817,4,versionC_stim.csv,READVersionD.csv,"Read Version D","Dissertation, read only version D",COLD,CHILL,Study2,B,114,151,Test,User,-,,Recall,Recall1,1756,FEET,0,1162,1636,0,0,,1
5e6cdd414ecdc62853e75759,2opp84a0jk,Nick_Dissertation_EX1,1,162,2020-06-02T09:17:37-07:00,3.3621380329132,4,versionC_stim.csv,READVersionD.csv,"Read Version D","Dissertation, read only version D",PLANT,CACTUS,Study2,B,98,161,Test,User,-,,Recall,Recall1,2998,BASED,36.363636363636,2108,2888,0,0,,1
5e6cdd414ecdc62853e75759,2opp84a0jk,Nick_Dissertation_EX1,1,163,2020-06-02T09:17:40-07:00,3.0518369674683,4,versionC_stim.csv,READVersionD.csv,"Read Version D","Dissertation, read only version D",DRINK,WATER,Study2,S,143,109,Test,User,-,,Recall,Recall1,2675,MILK,0,1958,2531,0,0,,1
5e6cdd414ecdc62853e75759,2opp84a0jk,Nick_Dissertation_EX1,1,164,2020-06-02T09:17:43-07:00,3.3101980686188,4,versionC_stim.csv,READVersionD.csv,"Read Version D","Dissertation, read only version D",BRAWL,FIGHT,Study2,F,135,150,Test,User,-,,Recall,Recall1,2938,STARS,20,1996,2731,0,0,,1
5e6cdd414ecdc62853e75759,2opp84a0jk,Nick_Dissertation_EX1,1,165,2020-06-02T09:17:46-07:00,3.0604510307312,4,versionC_stim.csv,READVersionD.csv,"Read Version D","Dissertation, read only version D",EAT,DINE,Study2,B,111,146,Test,User,-,,Recall,Recall1,2680,FOOS,0,2246,2560,0,0,,1
5e6cdd414ecdc62853e75759,2opp84a0jk,Nick_Dissertation_EX1,1,166,2020-06-02T09:17:50-07:00,4.1334209442139,4,versionC_stim.csv,READVersionD.csv,"Read Version D","Dissertation, read only version D",STRAWBERRY,FRUIT,Study2,F,124,110,Test,User,-,,Recall,Recall1,3776,SEED,0,1843,3603,0,0,,1
5e6cdd414ecdc62853e75759,2opp84a0jk,Nick_Dissertation_EX1,1,167,2020-06-02T09:17:54-07:00,3.513671875,4,versionC_stim.csv,READVersionD.csv,"Read Version D","Dissertation, read only version D",CAR,DRIVER,Study2,B,106,97,Test,User,-,,Recall,Recall1,3147,WINDSHIELD,25,1523,3022,0,0,,1
5e6cdd414ecdc62853e75759,2opp84a0jk,Nick_Dissertation_EX1,1,168,2020-06-02T09:17:56-07:00,2.381520986557,4,versionC_stim.csv,READVersionD.csv,"Read Version D","Dissertation, read only version D",CHILDREN,MIRROR,Study2,U,174,167,Test,User,-,,Recall,Recall1,2006,PLAY,0,1357,1823,0,0,,1
5e6cdd414ecdc62853e75759,2opp84a0jk,Nick_Dissertation_EX1,1,169,2020-06-02T09:17:59-07:00,2.3621652126312,4,versionC_stim.csv,READVersionD.csv,"Read Version D","Dissertation, read only version D",BALLOON,POP,Study2,F,123,113,Test,User,-,,Recall,Recall1,1987,POP,100,1478,1781,1,1,,1
5e6cdd414ecdc62853e75759,2opp84a0jk,Nick_Dissertation_EX1,1,170,2020-06-02T09:18:01-07:00,2.0957899093628,4,versionC_stim.csv,READVersionD.csv,"Read Version D","Dissertation, read only version D",SEATBELT,SAFETY,Study2,S,147,118,Test,User,-,,Recall,Recall1,1740,CAR,22.222222222222,1245,1612,0,0,,1
5e6cdd414ecdc62853e75759,2opp84a0jk,Nick_Dissertation_EX1,1,171,2020-06-02T09:18:06-07:00,4.8310539722443,4,versionC_stim.csv,READVersionD.csv,"Read Version D","Dissertation, read only version D",TRUTHFUL,HONEST,Study2,F,133,170,Test,User,-,,Recall,Recall1,4449,LIE,22.222222222222,3948,4268,0,0,,1
5e6cdd414ecdc62853e75759,2opp84a0jk,Nick_Dissertation_EX1,1,172,2020-06-02T09:18:10-07:00,4.2903249263763,4,versionC_stim.csv,READVersionD.csv,"Read Version D","Dissertation, read only version D",COMMUNICATION,PHONE,Study2,S,149,166,Test,User,-,,Recall,Recall1,3894,SPEAKER,33.333333333333,2861,3727,0,0,,1
5e6cdd414ecdc62853e75759,2opp84a0jk,Nick_Dissertation_EX1,1,173,2020-06-02T09:18:14-07:00,3.8722591400146,4,versionC_stim.csv,READVersionD.csv,"Read Version D","Dissertation, read only version D",CLEAR,MOAT,Study2,U,169,121,Test,User,-,,Recall,Recall1,3483,CLOUDED,18.181818181818,2197,3325,0,0,,1
5e6cdd414ecdc62853e75759,2opp84a0jk,Nick_Dissertation_EX1,1,174,2020-06-02T09:18:16-07:00,2.0926399230957,4,versionC_stim.csv,READVersionD.csv,"Read Version D","Dissertation, read only version D",BANG,FUZZY,Study2,U,168,134,Test,User,-,,Recall,Recall1,1691,BIG,0,1202,1588,0,0,,1
5e6cdd414ecdc62853e75759,2opp84a0jk,Nick_Dissertation_EX1,1,175,2020-06-02T09:19:28-07:00,72.340608119965,4,versionC_stim.csv,READVersionD.csv,"Read Version D","Dissertation, read only version D",,,,,,0,Instruct,-,10,"You will now be presented with a new set of word pairs. Please study each pair. Remember that your memory will be tested! When finished, press Enter to move to the next pair.",Initial_Instruct,Instruct4,71780,,,-1,-1,,,,0.075
5e6cdd414ecdc62853e75759,2opp84a0jk,Nick_Dissertation_EX1,1,176,2020-06-02T09:19:29-07:00,1.0673849582672,4,versionC_stim.csv,READVersionD.csv,"Read Version D","Dissertation, read only version D",BUTTER,PEANUT,BUFFER1,Buffer,3,5,Study,User,-,,Study/JOL,BUFFER3,689,,,-1,-1,,,,1
5e6cdd414ecdc62853e75759,2opp84a0jk,Nick_Dissertation_EX1,1,177,2020-06-02T09:19:31-07:00,1.4658529758453,4,versionC_stim.csv,READVersionD.csv,"Read Version D","Dissertation, read only version D",GREEN,TREES,BUFFER1,Buffer,1,4,Study,User,-,,Study/JOL,BUFFER3,138,,,-1,-1,,,,1
5e6cdd414ecdc62853e75759,2opp84a0jk,Nick_Dissertation_EX1,1,178,2020-06-02T09:19:31-07:00,0.51185703277588,4,versionC_stim.csv,READVersionD.csv,"Read Version D","Dissertation, read only version D",JAM,SPACE,BUFFER1,Buffer,5,6,Study,User,-,,Study/JOL,BUFFER3,169,,,-1,-1,,,,1
5e6cdd414ecdc62853e75759,2opp84a0jk,Nick_Dissertation_EX1,1,179,2020-06-02T09:19:32-07:00,0.47929382324219,4,versionC_stim.csv,READVersionD.csv,"Read Version D","Dissertation, read only version D",HIDE,SCARE,BUFFER1,Buffer,4,2,Study,User,-,,Study/JOL,BUFFER3,140,,,-1,-1,,,,1
5e6cdd414ecdc62853e75759,2opp84a0jk,Nick_Dissertation_EX1,1,180,2020-06-02T09:19:32-07:00,0.50622415542603,4,versionC_stim.csv,READVersionD.csv,"Read Version D","Dissertation, read only version D",CATCHER,BASEBALL,BUFFER1,Buffer,2,3,Study,User,-,,Study/JOL,BUFFER3,143,,,-1,-1,,,,1
5e6cdd414ecdc62853e75759,2opp84a0jk,Nick_Dissertation_EX1,1,181,2020-06-02T09:19:34-07:00,1.468211889267,4,versionC_stim.csv,READVersionD.csv,"Read Version D","Dissertation, read only version D",STING,HORNET,Study1,B,11,21,Study,User,-,,Study/JOL,"Study Phase2",130,,,-1,-1,,,,1
5e6cdd414ecdc62853e75759,2opp84a0jk,Nick_Dissertation_EX1,1,182,2020-06-02T09:19:34-07:00,0.40816807746887,4,versionC_stim.csv,READVersionD.csv,"Read Version D","Dissertation, read only version D",TALK,DISCUSSION,Study1,B,21,46,Study,User,-,,Study/JOL,"Study Phase2",105,,,-1,-1,,,,1
5e6cdd414ecdc62853e75759,2opp84a0jk,Nick_Dissertation_EX1,1,183,2020-06-02T09:19:35-07:00,0.55161190032959,4,versionC_stim.csv,READVersionD.csv,"Read Version D","Dissertation, read only version D",SIGHT,DEBATE,Study1,U,73,38,Study,User,-,,Study/JOL,"Study Phase2",178,,,-1,-1,,,,1
5e6cdd414ecdc62853e75759,2opp84a0jk,Nick_Dissertation_EX1,1,184,2020-06-02T09:19:35-07:00,0.53924107551575,4,versionC_stim.csv,READVersionD.csv,"Read Version D","Dissertation, read only version D",ROUND,CIRCLE,Study1,S,65,74,Study,User,-,,Study/JOL,"Study Phase2",190,,,-1,-1,,,,1
5e6cdd414ecdc62853e75759,2opp84a0jk,Nick_Dissertation_EX1,1,185,2020-06-02T09:19:36-07:00,0.51792812347412,4,versionC_stim.csv,READVersionD.csv,"Read Version D","Dissertation, read only version D",NEWS,EDITOR,Study1,B,10,41,Study,User,-,,Study/JOL,"Study Phase2",156,,,-1,-1,,,,1
5e6cdd414ecdc62853e75759,2opp84a0jk,Nick_Dissertation_EX1,1,186,2020-06-02T09:19:36-07:00,0.51188182830811,4,versionC_stim.csv,READVersionD.csv,"Read Version D","Dissertation, read only version D",JURY,TRIAL,Study1,S,50,86,Study,User,-,,Study/JOL,"Study Phase2",168,,,-1,-1,,,,1
5e6cdd414ecdc62853e75759,2opp84a0jk,Nick_Dissertation_EX1,1,187,2020-06-02T09:19:37-07:00,0.52223515510559,4,versionC_stim.csv,READVersionD.csv,"Read Version D","Dissertation, read only version D",BAD,DELINQUENT,Study1,B,6,27,Study,User,-,,Study/JOL,"Study Phase2",181,,,-1,-1,,,,1
5e6cdd414ecdc62853e75759,2opp84a0jk,Nick_Dissertation_EX1,1,188,2020-06-02T09:19:37-07:00,0.51755380630493,4,versionC_stim.csv,READVersionD.csv,"Read Version D","Dissertation, read only version D",STOMACH,DIGESTION,Study1,B,7,36,Study,User,-,,Study/JOL,"Study Phase2",163,,,-1,-1,,,,1
5e6cdd414ecdc62853e75759,2opp84a0jk,Nick_Dissertation_EX1,1,189,2020-06-02T09:19:38-07:00,0.53132510185242,4,versionC_stim.csv,READVersionD.csv,"Read Version D","Dissertation, read only version D",FANTASTIC,GREAT,Study1,F,35,24,Study,User,-,,Study/JOL,"Study Phase2",155,,,-1,-1,,,,1
5e6cdd414ecdc62853e75759,2opp84a0jk,Nick_Dissertation_EX1,1,190,2020-06-02T09:19:38-07:00,0.52756404876709,4,versionC_stim.csv,READVersionD.csv,"Read Version D","Dissertation, read only version D",BRONZE,ARTERY,Study1,U,74,78,Study,User,-,,Study/JOL,"Study Phase2",169,,,-1,-1,,,,1
5e6cdd414ecdc62853e75759,2opp84a0jk,Nick_Dissertation_EX1,1,191,2020-06-02T09:19:39-07:00,0.5396728515625,4,versionC_stim.csv,READVersionD.csv,"Read Version D","Dissertation, read only version D",HUNGRY,PARK,Study1,U,68,71,Study,User,-,,Study/JOL,"Study Phase2",200,,,-1,-1,,,,1
5e6cdd414ecdc62853e75759,2opp84a0jk,Nick_Dissertation_EX1,1,192,2020-06-02T09:19:39-07:00,0.55483603477478,4,versionC_stim.csv,READVersionD.csv,"Read Version D","Dissertation, read only version D",STENCH,SMELL,Study1,F,42,35,Study,User,-,,Study/JOL,"Study Phase2",193,,,-1,-1,,,,1
5e6cdd414ecdc62853e75759,2opp84a0jk,Nick_Dissertation_EX1,1,193,2020-06-02T09:19:40-07:00,0.55784201622009,4,versionC_stim.csv,READVersionD.csv,"Read Version D","Dissertation, read only version D",ATTIRE,CLOTHES,Study1,F,43,60,Study,User,-,,Study/JOL,"Study Phase2",189,,,-1,-1,,,,1
5e6cdd414ecdc62853e75759,2opp84a0jk,Nick_Dissertation_EX1,1,194,2020-06-02T09:19:41-07:00,0.5993230342865,4,versionC_stim.csv,READVersionD.csv,"Read Version D","Dissertation, read only version D",CHEESE,WINE,Study1,S,57,29,Study,User,-,,Study/JOL,"Study Phase2",232,,,-1,-1,,,,1
5e6cdd414ecdc62853e75759,2opp84a0jk,Nick_Dissertation_EX1,1,195,2020-06-02T09:19:41-07:00,0.60964488983154,4,versionC_stim.csv,READVersionD.csv,"Read Version D","Dissertation, read only version D",WIND,BLOW,Study1,S,55,70,Study,User,-,,Study/JOL,"Study Phase2",264,,,-1,-1,,,,1
5e6cdd414ecdc62853e75759,2opp84a0jk,Nick_Dissertation_EX1,1,196,2020-06-02T09:19:42-07:00,0.74252605438232,4,versionC_stim.csv,READVersionD.csv,"Read Version D","Dissertation, read only version D",SALAD,LETTUCE,Study1,S,59,34,Study,User,-,,Study/JOL,"Study Phase2",391,,,-1,-1,,,,1
5e6cdd414ecdc62853e75759,2opp84a0jk,Nick_Dissertation_EX1,1,197,2020-06-02T09:19:43-07:00,0.60891795158386,4,versionC_stim.csv,READVersionD.csv,"Read Version D","Dissertation, read only version D",AMOUNT,NUMBER,Study1,S,47,19,Study,User,-,,Study/JOL,"Study Phase2",235,,,-1,-1,,,,1
5e6cdd414ecdc62853e75759,2opp84a0jk,Nick_Dissertation_EX1,1,198,2020-06-02T09:19:43-07:00,0.61722207069397,4,versionC_stim.csv,READVersionD.csv,"Read Version D","Dissertation, read only version D",DEFINITION,MEANING,Study1,S,62,33,Study,User,-,,Study/JOL,"Study Phase2",253,,,-1,-1,,,,1
5e6cdd414ecdc62853e75759,2opp84a0jk,Nick_Dissertation_EX1,1,199,2020-06-02T09:19:44-07:00,0.62493896484375,4,versionC_stim.csv,READVersionD.csv,"Read Version D","Dissertation, read only version D",DROWSY,SLEEP,Study1,F,41,76,Study,User,-,,Study/JOL,"Study Phase2",211,,,-1,-1,,,,1
5e6cdd414ecdc62853e75759,2opp84a0jk,Nick_Dissertation_EX1,1,200,2020-06-02T09:19:44-07:00,0.61256408691406,4,versionC_stim.csv,READVersionD.csv,"Read Version D","Dissertation, read only version D",OUT,WAY,Study1,B,16,81,Study,User,-,,Study/JOL,"Study Phase2",249,,,-1,-1,,,,1
5e6cdd414ecdc62853e75759,2opp84a0jk,Nick_Dissertation_EX1,1,201,2020-06-02T09:19:45-07:00,0.61653995513916,4,versionC_stim.csv,READVersionD.csv,"Read Version D","Dissertation, read only version D",WASTE,DUMP,Study1,S,49,63,Study,User,-,,Study/JOL,"Study Phase2",239,,,-1,-1,,,,1
5e6cdd414ecdc62853e75759,2opp84a0jk,Nick_Dissertation_EX1,1,202,2020-06-02T09:19:46-07:00,0.63442611694336,4,versionC_stim.csv,READVersionD.csv,"Read Version D","Dissertation, read only version D",PLANT,ROOT,Study1,B,13,42,Study,User,-,,Study/JOL,"Study Phase2",267,,,-1,-1,,,,1
5e6cdd414ecdc62853e75759,2opp84a0jk,Nick_Dissertation_EX1,1,203,2020-06-02T09:19:46-07:00,0.67831993103027,4,versionC_stim.csv,READVersionD.csv,"Read Version D","Dissertation, read only version D",RACKET,BALL,Study1,F,38,39,Study,User,-,,Study/JOL,"Study Phase2",298,,,-1,-1,,,,1
5e6cdd414ecdc62853e75759,2opp84a0jk,Nick_Dissertation_EX1,1,204,2020-06-02T09:19:47-07:00,0.58549189567566,4,versionC_stim.csv,READVersionD.csv,"Read Version D","Dissertation, read only version D",WOULD,CASH,Study1,U,83,7,Study,User,-,,Study/JOL,"Study Phase2",230,,,-1,-1,,,,1
5e6cdd414ecdc62853e75759,2opp84a0jk,Nick_Dissertation_EX1,1,205,2020-06-02T09:19:48-07:00,0.64521408081055,4,versionC_stim.csv,READVersionD.csv,"Read Version D","Dissertation, read only version D",END,BEGIN,Study1,S,54,49,Study,User,-,,Study/JOL,"Study Phase2",237,,,-1,-1,,,,1
5e6cdd414ecdc62853e75759,2opp84a0jk,Nick_Dissertation_EX1,1,206,2020-06-02T09:19:48-07:00,0.63320112228394,4,versionC_stim.csv,READVersionD.csv,"Read Version D","Dissertation, read only version D",PILOT,PLANE,Study1,F,44,64,Study,User,-,,Study/JOL,"Study Phase2",256,,,-1,-1,,,,1
5e6cdd414ecdc62853e75759,2opp84a0jk,Nick_Dissertation_EX1,1,207,2020-06-02T09:19:49-07:00,0.65777277946472,4,versionC_stim.csv,READVersionD.csv,"Read Version D","Dissertation, read only version D",BEE,HONEY,Study1,S,63,30,Study,User,-,,Study/JOL,"Study Phase2",284,,,-1,-1,,,,1
5e6cdd414ecdc62853e75759,2opp84a0jk,Nick_Dissertation_EX1,1,208,2020-06-02T09:19:49-07:00,0.65580606460571,4,versionC_stim.csv,READVersionD.csv,"Read Version D","Dissertation, read only version D",BELT,SOON,Study1,U,70,48,Study,User,-,,Study/JOL,"Study Phase2",303,,,-1,-1,,,,1
5e6cdd414ecdc62853e75759,2opp84a0jk,Nick_Dissertation_EX1,1,209,2020-06-02T09:19:50-07:00,0.67865610122681,4,versionC_stim.csv,READVersionD.csv,"Read Version D","Dissertation, read only version D",SIP,DRINK,Study1,F,27,31,Study,User,-,,Study/JOL,"Study Phase2",306,,,-1,-1,,,,1
5e6cdd414ecdc62853e75759,2opp84a0jk,Nick_Dissertation_EX1,1,210,2020-06-02T09:19:51-07:00,0.60678696632385,4,versionC_stim.csv,READVersionD.csv,"Read Version D","Dissertation, read only version D",ACCIDENT,STRONG,Study1,U,80,23,Study,User,-,,Study/JOL,"Study Phase2",251,,,-1,-1,,,,1
5e6cdd414ecdc62853e75759,2opp84a0jk,Nick_Dissertation_EX1,1,211,2020-06-02T09:19:51-07:00,0.62579298019409,4,versionC_stim.csv,READVersionD.csv,"Read Version D","Dissertation, read only version D",BIRD,SWAN,Study1,B,14,51,Study,User,-,,Study/JOL,"Study Phase2",287,,,-1,-1,,,,1
5e6cdd414ecdc62853e75759,2opp84a0jk,Nick_Dissertation_EX1,1,212,2020-06-02T09:19:52-07:00,0.62540793418884,4,versionC_stim.csv,READVersionD.csv,"Read Version D","Dissertation, read only version D",FLOOR,DISCOVER,Study1,U,71,75,Study,User,-,,Study/JOL,"Study Phase2",250,,,-1,-1,,,,1
5e6cdd414ecdc62853e75759,2opp84a0jk,Nick_Dissertation_EX1,1,213,2020-06-02T09:19:53-07:00,0.6133120059967,4,versionC_stim.csv,READVersionD.csv,"Read Version D","Dissertation, read only version D",SITE,LOCATION,Study1,S,48,32,Study,User,-,,Study/JOL,"Study Phase2",221,,,-1,-1,,,,1
5e6cdd414ecdc62853e75759,2opp84a0jk,Nick_Dissertation_EX1,1,214,2020-06-02T09:19:53-07:00,0.66611814498901,4,versionC_stim.csv,READVersionD.csv,"Read Version D","Dissertation, read only version D",TOILET,BATHROOM,Study1,S,58,44,Study,User,-,,Study/JOL,"Study Phase2",315,,,-1,-1,,,,1
5e6cdd414ecdc62853e75759,2opp84a0jk,Nick_Dissertation_EX1,1,215,2020-06-02T09:19:54-07:00,0.65514588356018,4,versionC_stim.csv,READVersionD.csv,"Read Version D","Dissertation, read only version D",SODA,POP,Study1,S,56,15,Study,User,-,,Study/JOL,"Study Phase2",293,,,-1,-1,,,,1
5e6cdd414ecdc62853e75759,2opp84a0jk,Nick_Dissertation_EX1,1,216,2020-06-02T09:19:54-07:00,0.4736180305481,4,versionC_stim.csv,READVersionD.csv,"Read Version D","Dissertation, read only version D",DESIGN,ARCHITECTURE,Study1,S,51,26,Study,User,-,,Study/JOL,"Study Phase2",166,,,-1,-1,,,,1
5e6cdd414ecdc62853e75759,2opp84a0jk,Nick_Dissertation_EX1,1,217,2020-06-02T09:19:55-07:00,0.62935400009155,4,versionC_stim.csv,READVersionD.csv,"Read Version D","Dissertation, read only version D",CARD,CREDIT,Study1,B,23,17,Study,User,-,,Study/JOL,"Study Phase2",274,,,-1,-1,,,,1
5e6cdd414ecdc62853e75759,2opp84a0jk,Nick_Dissertation_EX1,1,218,2020-06-02T09:19:56-07:00,0.57570195198059,4,versionC_stim.csv,READVersionD.csv,"Read Version D","Dissertation, read only version D",FUTURE,PAST,Study1,S,61,13,Study,User,-,,Study/JOL,"Study Phase2",222,,,-1,-1,,,,1
5e6cdd414ecdc62853e75759,2opp84a0jk,Nick_Dissertation_EX1,1,219,2020-06-02T09:19:56-07:00,0.57124304771423,4,versionC_stim.csv,READVersionD.csv,"Read Version D","Dissertation, read only version D",HAMMER,CHISEL,Study1,B,9,67,Study,User,-,,Study/JOL,"Study Phase2",199,,,-1,-1,,,,1
5e6cdd414ecdc62853e75759,2opp84a0jk,Nick_Dissertation_EX1,1,220,2020-06-02T09:19:57-07:00,0.56481194496155,4,versionC_stim.csv,READVersionD.csv,"Read Version D","Dissertation, read only version D",POSITION,MACHINE,Study1,U,76,62,Study,User,-,,Study/JOL,"Study Phase2",215,,,-1,-1,,,,1
5e6cdd414ecdc62853e75759,2opp84a0jk,Nick_Dissertation_EX1,1,221,2020-06-02T09:19:57-07:00,0.58411002159119,4,versionC_stim.csv,READVersionD.csv,"Read Version D","Dissertation, read only version D",WASP,BUG,Study1,F,32,58,Study,User,-,,Study/JOL,"Study Phase2",211,,,-1,-1,,,,1
5e6cdd414ecdc62853e75759,2opp84a0jk,Nick_Dissertation_EX1,1,222,2020-06-02T09:19:58-07:00,0.61698412895203,4,versionC_stim.csv,READVersionD.csv,"Read Version D","Dissertation, read only version D",ATTORNEY,LAW,Study1,F,34,10,Study,User,-,,Study/JOL,"Study Phase2",218,,,-1,-1,,,,1
5e6cdd414ecdc62853e75759,2opp84a0jk,Nick_Dissertation_EX1,1,223,2020-06-02T09:19:59-07:00,0.63186883926392,4,versionC_stim.csv,READVersionD.csv,"Read Version D","Dissertation, read only version D",CLUTTER,PUSHER,Study1,U,66,80,Study,User,-,,Study/JOL,"Study Phase2",222,,,-1,-1,,,,1
5e6cdd414ecdc62853e75759,2opp84a0jk,Nick_Dissertation_EX1,1,224,2020-06-02T09:19:59-07:00,0.63456106185913,4,versionC_stim.csv,READVersionD.csv,"Read Version D","Dissertation, read only version D",CLEAN,HYGIENE,Study1,B,17,52,Study,User,-,,Study/JOL,"Study Phase2",256,,,-1,-1,,,,1
5e6cdd414ecdc62853e75759,2opp84a0jk,Nick_Dissertation_EX1,1,225,2020-06-02T09:20:00-07:00,0.65665197372437,4,versionC_stim.csv,READVersionD.csv,"Read Version D","Dissertation, read only version D",WORD,SENTENCE,Study1,F,31,73,Study,User,-,,Study/JOL,"Study Phase2",281,,,-1,-1,,,,1
5e6cdd414ecdc62853e75759,2opp84a0jk,Nick_Dissertation_EX1,1,226,2020-06-02T09:20:01-07:00,0.62884497642517,4,versionC_stim.csv,READVersionD.csv,"Read Version D","Dissertation, read only version D",COW,HERD,Study1,B,22,84,Study,User,-,,Study/JOL,"Study Phase2",276,,,-1,-1,,,,1
5e6cdd414ecdc62853e75759,2opp84a0jk,Nick_Dissertation_EX1,1,227,2020-06-02T09:20:07-07:00,6.2117879390717,4,versionC_stim.csv,READVersionD.csv,"Read Version D","Dissertation, read only version D",SEIZE,TAKE,Study1,F,29,37,Study,User,-,,Study/JOL,"Study Phase2",1002,,,-1,-1,,,,1
5e6cdd414ecdc62853e75759,2opp84a0jk,Nick_Dissertation_EX1,1,228,2020-06-02T09:20:07-07:00,0.56549501419067,4,versionC_stim.csv,READVersionD.csv,"Read Version D","Dissertation, read only version D",FAMINE,HUNGER,Study1,F,40,18,Study,User,-,,Study/JOL,"Study Phase2",200,,,-1,-1,,,,1
5e6cdd414ecdc62853e75759,2opp84a0jk,Nick_Dissertation_EX1,1,229,2020-06-02T09:21:16-07:00,68.599721193314,4,versionC_stim.csv,READVersionD.csv,"Read Version D","Dissertation, read only version D",WAR,REVOLUTION,Study1,B,20,83,Study,User,-,,Study/JOL,"Study Phase2",38596,,,-1,-1,,,,0.026
5e6cdd414ecdc62853e75759,2opp84a0jk,Nick_Dissertation_EX1,1,230,2020-06-02T09:21:17-07:00,0.68056297302246,4,versionC_stim.csv,READVersionD.csv,"Read Version D","Dissertation, read only version D",BAR,GRILL,Study1,S,52,69,Study,User,-,,Study/JOL,"Study Phase2",312,,,-1,-1,,,,1
5e6cdd414ecdc62853e75759,2opp84a0jk,Nick_Dissertation_EX1,1,231,2020-06-02T09:21:18-07:00,1.5821030139923,4,versionC_stim.csv,READVersionD.csv,"Read Version D","Dissertation, read only version D",HAND,FIX,Study1,U,75,40,Study,User,-,,Study/JOL,"Study Phase2",230,,,-1,-1,,,,1
5e6cdd414ecdc62853e75759,2opp84a0jk,Nick_Dissertation_EX1,1,232,2020-06-02T09:21:19-07:00,0.71845197677612,4,versionC_stim.csv,READVersionD.csv,"Read Version D","Dissertation, read only version D",FISH,TUNA,Study1,B,25,20,Study,User,-,,Study/JOL,"Study Phase2",408,,,-1,-1,,,,1
5e6cdd414ecdc62853e75759,2opp84a0jk,Nick_Dissertation_EX1,1,233,2020-06-02T09:21:20-07:00,0.65961694717407,4,versionC_stim.csv,READVersionD.csv,"Read Version D","Dissertation, read only version D",LATCH,KEY,Study1,F,36,9,Study,User,-,,Study/JOL,"Study Phase2",298,,,-1,-1,,,,1
5e6cdd414ecdc62853e75759,2opp84a0jk,Nick_Dissertation_EX1,1,234,2020-06-02T09:21:20-07:00,0.57245588302612,4,versionC_stim.csv,READVersionD.csv,"Read Version D","Dissertation, read only version D",ENOUGH,FULL,Study1,F,26,12,Study,User,-,,Study/JOL,"Study Phase2",222,,,-1,-1,,,,1
5e6cdd414ecdc62853e75759,2opp84a0jk,Nick_Dissertation_EX1,1,235,2020-06-02T09:21:21-07:00,0.59971213340759,4,versionC_stim.csv,READVersionD.csv,"Read Version D","Dissertation, read only version D",GROWTH,HEIGHT,Study1,F,30,16,Study,User,-,,Study/JOL,"Study Phase2",275,,,-1,-1,,,,1
5e6cdd414ecdc62853e75759,2opp84a0jk,Nick_Dissertation_EX1,1,236,2020-06-02T09:21:21-07:00,0.58396196365356,4,versionC_stim.csv,READVersionD.csv,"Read Version D","Dissertation, read only version D",ADD,VALLEY,Study1,U,82,47,Study,User,-,,Study/JOL,"Study Phase2",222,,,-1,-1,,,,1
5e6cdd414ecdc62853e75759,2opp84a0jk,Nick_Dissertation_EX1,1,237,2020-06-02T09:21:22-07:00,0.59204196929932,4,versionC_stim.csv,READVersionD.csv,"Read Version D","Dissertation, read only version D",LION,ART,Study1,U,79,56,Study,User,-,,Study/JOL,"Study Phase2",192,,,-1,-1,,,,1
5e6cdd414ecdc62853e75759,2opp84a0jk,Nick_Dissertation_EX1,1,238,2020-06-02T09:21:22-07:00,0.60229110717773,4,versionC_stim.csv,READVersionD.csv,"Read Version D","Dissertation, read only version D",LIVER,KIDNEY,Study1,S,53,25,Study,User,-,,Study/JOL,"Study Phase2",250,,,-1,-1,,,,1
5e6cdd414ecdc62853e75759,2opp84a0jk,Nick_Dissertation_EX1,1,239,2020-06-02T09:21:23-07:00,0.63123893737793,4,versionC_stim.csv,READVersionD.csv,"Read Version D","Dissertation, read only version D",RIDDLE,SUGAR,Study1,U,81,79,Study,User,-,,Study/JOL,"Study Phase2",276,,,-1,-1,,,,1
5e6cdd414ecdc62853e75759,2opp84a0jk,Nick_Dissertation_EX1,1,240,2020-06-02T09:21:24-07:00,0.50670003890991,4,versionC_stim.csv,READVersionD.csv,"Read Version D","Dissertation, read only version D",WOMAN,LIFT,Study1,U,69,54,Study,User,-,,Study/JOL,"Study Phase2",137,,,-1,-1,,,,1
5e6cdd414ecdc62853e75759,2opp84a0jk,Nick_Dissertation_EX1,1,241,2020-06-02T09:21:24-07:00,0.61959886550903,4,versionC_stim.csv,READVersionD.csv,"Read Version D","Dissertation, read only version D",CAVE,DARK,Study1,F,28,85,Study,User,-,,Study/JOL,"Study Phase2",268,,,-1,-1,,,,1
5e6cdd414ecdc62853e75759,2opp84a0jk,Nick_Dissertation_EX1,1,242,2020-06-02T09:21:25-07:00,0.54711508750916,4,versionC_stim.csv,READVersionD.csv,"Read Version D","Dissertation, read only version D",VASE,KING,Study1,U,85,61,Study,User,-,,Study/JOL,"Study Phase2",172,,,-1,-1,,,,1
5e6cdd414ecdc62853e75759,2opp84a0jk,Nick_Dissertation_EX1,1,243,2020-06-02T09:21:25-07:00,0.54963898658752,4,versionC_stim.csv,READVersionD.csv,"Read Version D","Dissertation, read only version D",CHILD,BABY,Study1,S,64,57,Study,User,-,,Study/JOL,"Study Phase2",193,,,-1,-1,,,,1
5e6cdd414ecdc62853e75759,2opp84a0jk,Nick_Dissertation_EX1,1,244,2020-06-02T09:21:26-07:00,0.53605508804321,4,versionC_stim.csv,READVersionD.csv,"Read Version D","Dissertation, read only version D",SACKING,DIETARY,Study1,U,67,22,Study,User,-,,Study/JOL,"Study Phase2",235,,,-1,-1,,,,1
5e6cdd414ecdc62853e75759,2opp84a0jk,Nick_Dissertation_EX1,1,245,2020-06-02T09:21:27-07:00,1.5844759941101,4,versionC_stim.csv,READVersionD.csv,"Read Version D","Dissertation, read only version D",DIVISION,MATH,Study1,F,33,66,Study,User,-,,Study/JOL,"Study Phase2",281,,,-1,-1,,,,1
5e6cdd414ecdc62853e75759,2opp84a0jk,Nick_Dissertation_EX1,1,246,2020-06-02T09:21:29-07:00,1.9279689788818,4,versionC_stim.csv,READVersionD.csv,"Read Version D","Dissertation, read only version D",ASSIGNMENT,DUE,Study1,S,46,11,Study,User,-,,Study/JOL,"Study Phase2",1578,,,-1,-1,,,,1
5e6cdd414ecdc62853e75759,2opp84a0jk,Nick_Dissertation_EX1,1,247,2020-06-02T09:21:30-07:00,0.59214401245117,4,versionC_stim.csv,READVersionD.csv,"Read Version D","Dissertation, read only version D",WATER,BRIDGE,Study1,B,18,59,Study,User,-,,Study/JOL,"Study Phase2",192,,,-1,-1,,,,1
5e6cdd414ecdc62853e75759,2opp84a0jk,Nick_Dissertation_EX1,1,248,2020-06-02T09:21:32-07:00,1.6249530315399,4,versionC_stim.csv,READVersionD.csv,"Read Version D","Dissertation, read only version D",FOOT,SHOE,Study1,S,60,72,Study,User,-,,Study/JOL,"Study Phase2",273,,,-1,-1,,,,1
5e6cdd414ecdc62853e75759,2opp84a0jk,Nick_Dissertation_EX1,1,249,2020-06-02T09:21:33-07:00,1.7618288993835,4,versionC_stim.csv,READVersionD.csv,"Read Version D","Dissertation, read only version D",SICK,HIDE,Study1,U,84,77,Study,User,-,,Study/JOL,"Study Phase2",401,,,-1,-1,,,,1
5e6cdd414ecdc62853e75759,2opp84a0jk,Nick_Dissertation_EX1,1,250,2020-06-02T09:21:34-07:00,0.71618008613586,4,versionC_stim.csv,READVersionD.csv,"Read Version D","Dissertation, read only version D",MONEY,WAGE,Study1,B,8,55,Study,User,-,,Study/JOL,"Study Phase2",341,,,-1,-1,,,,1
5e6cdd414ecdc62853e75759,2opp84a0jk,Nick_Dissertation_EX1,1,251,2020-06-02T09:21:35-07:00,0.96676397323608,4,versionC_stim.csv,READVersionD.csv,"Read Version D","Dissertation, read only version D",BLAZE,FIRE,Study1,F,45,65,Study,User,-,,Study/JOL,"Study Phase2",562,,,-1,-1,,,,1
5e6cdd414ecdc62853e75759,2opp84a0jk,Nick_Dissertation_EX1,1,252,2020-06-02T09:21:36-07:00,0.70746493339539,4,versionC_stim.csv,READVersionD.csv,"Read Version D","Dissertation, read only version D",CAR,HAPPY,Study1,U,77,14,Study,User,-,,Study/JOL,"Study Phase2",329,,,-1,-1,,,,1
5e6cdd414ecdc62853e75759,2opp84a0jk,Nick_Dissertation_EX1,1,253,2020-06-02T09:21:36-07:00,0.63913202285767,4,versionC_stim.csv,READVersionD.csv,"Read Version D","Dissertation, read only version D",COLD,BITTER,Study1,B,12,8,Study,User,-,,Study/JOL,"Study Phase2",293,,,-1,-1,,,,1
5e6cdd414ecdc62853e75759,2opp84a0jk,Nick_Dissertation_EX1,1,254,2020-06-02T09:21:38-07:00,1.5615620613098,4,versionC_stim.csv,READVersionD.csv,"Read Version D","Dissertation, read only version D",BUSINESS,DEATH,Study1,U,72,28,Study,User,-,,Study/JOL,"Study Phase2",209,,,-1,-1,,,,1
5e6cdd414ecdc62853e75759,2opp84a0jk,Nick_Dissertation_EX1,1,255,2020-06-02T09:21:39-07:00,0.73485088348389,4,versionC_stim.csv,READVersionD.csv,"Read Version D","Dissertation, read only version D",FLOWER,ORCHID,Study1,B,24,50,Study,User,-,,Study/JOL,"Study Phase2",405,,,-1,-1,,,,1
5e6cdd414ecdc62853e75759,2opp84a0jk,Nick_Dissertation_EX1,1,256,2020-06-02T09:21:39-07:00,0.68018007278442,4,versionC_stim.csv,READVersionD.csv,"Read Version D","Dissertation, read only version D",CHORE,WORK,Study1,F,39,68,Study,User,-,,Study/JOL,"Study Phase2",326,,,-1,-1,,,,1
5e6cdd414ecdc62853e75759,2opp84a0jk,Nick_Dissertation_EX1,1,257,2020-06-02T09:21:40-07:00,0.63298988342285,4,versionC_stim.csv,READVersionD.csv,"Read Version D","Dissertation, read only version D",TUCK,ALLOW,Study1,U,78,43,Study,User,-,,Study/JOL,"Study Phase2",327,,,-1,-1,,,,1
5e6cdd414ecdc62853e75759,2opp84a0jk,Nick_Dissertation_EX1,1,258,2020-06-02T09:21:41-07:00,0.66123914718628,4,versionC_stim.csv,READVersionD.csv,"Read Version D","Dissertation, read only version D",DOG,PAW,Study1,B,15,82,Study,User,-,,Study/JOL,"Study Phase2",305,,,-1,-1,,,,1
5e6cdd414ecdc62853e75759,2opp84a0jk,Nick_Dissertation_EX1,1,259,2020-06-02T09:21:41-07:00,0.57663702964783,4,versionC_stim.csv,READVersionD.csv,"Read Version D","Dissertation, read only version D",ROCK,GEOLOGY,Study1,B,19,53,Study,User,-,,Study/JOL,"Study Phase2",278,,,-1,-1,,,,1
5e6cdd414ecdc62853e75759,2opp84a0jk,Nick_Dissertation_EX1,1,260,2020-06-02T09:21:42-07:00,0.59358096122742,4,versionC_stim.csv,READVersionD.csv,"Read Version D","Dissertation, read only version D",CHILI,HOT,Study1,F,37,45,Study,User,-,,Study/JOL,"Study Phase2",274,,,-1,-1,,,,1
5e6cdd414ecdc62853e75759,2opp84a0jk,Nick_Dissertation_EX1,1,261,2020-06-02T09:21:43-07:00,0.66266202926636,4,versionC_stim.csv,READVersionD.csv,"Read Version D","Dissertation, read only version D",GOOSE,GEESE,BUFFER2,Buffer,86,90,Study,User,-,,Study/JOL,BUFFER4,351,,,-1,-1,,,,1
5e6cdd414ecdc62853e75759,2opp84a0jk,Nick_Dissertation_EX1,1,262,2020-06-02T09:21:43-07:00,0.55147290229797,4,versionC_stim.csv,READVersionD.csv,"Read Version D","Dissertation, read only version D",STUFF,THING,BUFFER2,Buffer,90,87,Study,User,-,,Study/JOL,BUFFER4,212,,,-1,-1,,,,1
5e6cdd414ecdc62853e75759,2opp84a0jk,Nick_Dissertation_EX1,1,263,2020-06-02T09:21:44-07:00,0.64288997650146,4,versionC_stim.csv,READVersionD.csv,"Read Version D","Dissertation, read only version D",CHOCOLATE,MALT,BUFFER2,Buffer,88,91,Study,User,-,,Study/JOL,BUFFER4,283,,,-1,-1,,,,1
5e6cdd414ecdc62853e75759,2opp84a0jk,Nick_Dissertation_EX1,1,264,2020-06-02T09:21:44-07:00,0.62989807128906,4,versionC_stim.csv,READVersionD.csv,"Read Version D","Dissertation, read only version D",SPACE,MOON,BUFFER2,Buffer,89,89,Study,User,-,,Study/JOL,BUFFER4,279,,,-1,-1,,,,1
5e6cdd414ecdc62853e75759,2opp84a0jk,Nick_Dissertation_EX1,1,265,2020-06-02T09:21:45-07:00,0.60933899879456,4,versionC_stim.csv,READVersionD.csv,"Read Version D","Dissertation, read only version D",POLICE,SHERRIF,BUFFER2,Buffer,87,88,Study,User,-,,Study/JOL,BUFFER4,232,,,-1,-1,,,,1
5e6cdd414ecdc62853e75759,2opp84a0jk,Nick_Dissertation_EX1,1,266,2020-06-02T09:21:47-07:00,2.0107140541077,4,versionC_stim.csv,READVersionD.csv,"Read Version D","Dissertation, read only version D",,,,,,0,Instruct,User,-,"You have completed this section. Please press Enter.",Filler_Instruction,Instruct5,1604,,,-1,-1,,,,1
5e6cdd414ecdc62853e75759,2opp84a0jk,Nick_Dissertation_EX1,1,267,2020-06-02T09:23:48-07:00,120.67835903168,4,versionC_stim.csv,READVersionD.csv,"Read Version D","Dissertation, read only version D",,,,,,0,FreeRecall,120,120,"Please list the 50 US states in reverse alphabetical order (z - a). The task will automatically advance to the next screen after two minutes.",,Filler2,120008,"Wyoming Wisconsin West Virginia Washington Virginia Vermont Utah Texas Tennessee South Dakota South Carolina Rhode Island Pennsylvania Oregon Oklahoma Ohio North Dakota North Carolina New York New Mexico New Jersey New Hampshire Nevada Nebraska Montana Missouri Mississippi Minnesota Michigan Massachusetts Maryland Maine Louisiana Kentucky Kansas Iowa Indiana Illinois Idaho Hawaii Georgia Florida Delaware Connecticut Colorado California Arkansas Arizona Alaska Alabama ",0,-1,-1,0,0,,0.162
5e6cdd414ecdc62853e75759,2opp84a0jk,Nick_Dissertation_EX1,1,268,2020-06-02T09:24:07-07:00,19.560176849365,4,versionC_stim.csv,READVersionD.csv,"Read Version D","Dissertation, read only version D",,,,,,0,Instruct,-,10,"You will now be presented with the first word from each of the previously studied item pairs. Please type the missing word. If you do not know the word, you may guess or press Enter to skip forward to the next pair.",,Instruct6,19163,,,-1,-1,,,,0.052
5e6cdd414ecdc62853e75759,2opp84a0jk,Nick_Dissertation_EX1,1,269,2020-06-02T09:24:11-07:00,3.5948779582977,4,versionC_stim.csv,READVersionD.csv,"Read Version D","Dissertation, read only version D",CHORE,WORK,Study1,F,39,68,Test,User,-,,Recall,Recall2,3084,clean,0,2305,2893,0,0,,1
5e6cdd414ecdc62853e75759,2opp84a0jk,Nick_Dissertation_EX1,1,270,2020-06-02T09:24:13-07:00,2.0865771770477,4,versionC_stim.csv,READVersionD.csv,"Read Version D","Dissertation, read only version D",FANTASTIC,GREAT,Study1,F,35,24,Test,User,-,,Recall,Recall2,1720,four,22.222222222222,1073,1598,0,0,,1
5e6cdd414ecdc62853e75759,2opp84a0jk,Nick_Dissertation_EX1,1,271,2020-06-02T09:24:15-07:00,2.3342618942261,4,versionC_stim.csv,READVersionD.csv,"Read Version D","Dissertation, read only version D",SIGHT,DEBATE,Study1,U,73,38,Test,User,-,,Recall,Recall2,2006,seer,40,1065,1826,0,0,,1
5e6cdd414ecdc62853e75759,2opp84a0jk,Nick_Dissertation_EX1,1,272,2020-06-02T09:24:19-07:00,4.2005710601807,4,versionC_stim.csv,READVersionD.csv,"Read Version D","Dissertation, read only version D",ENOUGH,FULL,Study1,F,26,12,Test,User,-,,Recall,Recall2,3878,drama,0,2784,3441,0,0,,1
5e6cdd414ecdc62853e75759,2opp84a0jk,Nick_Dissertation_EX1,1,273,2020-06-02T09:24:22-07:00,2.3889479637146,4,versionC_stim.csv,READVersionD.csv,"Read Version D","Dissertation, read only version D",ASSIGNMENT,DUE,Study1,S,46,11,Test,User,-,,Recall,Recall2,1964,work,0,1275,1775,0,0,,1
5e6cdd414ecdc62853e75759,2opp84a0jk,Nick_Dissertation_EX1,1,274,2020-06-02T09:24:26-07:00,3.902685880661,4,versionC_stim.csv,READVersionD.csv,"Read Version D","Dissertation, read only version D",BLAZE,FIRE,Study1,F,45,65,Test,User,-,,Recall,Recall2,3534,pokemon,18.181818181818,2040,3368,0,0,,1
5e6cdd414ecdc62853e75759,2opp84a0jk,Nick_Dissertation_EX1,1,275,2020-06-02T09:24:29-07:00,2.8387441635132,4,versionC_stim.csv,READVersionD.csv,"Read Version D","Dissertation, read only version D",WASTE,DUMP,Study1,S,49,63,Test,User,-,,Recall,Recall2,2453,trash,0,1646,2272,0,0,,1
5e6cdd414ecdc62853e75759,2opp84a0jk,Nick_Dissertation_EX1,1,276,2020-06-02T09:24:31-07:00,2.6054208278656,4,versionC_stim.csv,READVersionD.csv,"Read Version D","Dissertation, read only version D",WASP,BUG,Study1,F,32,58,Test,User,-,,Recall,Recall2,2223,hornet,0,1204,2078,0,0,,1
5e6cdd414ecdc62853e75759,2opp84a0jk,Nick_Dissertation_EX1,1,277,2020-06-02T09:24:36-07:00,4.52947306633,4,versionC_stim.csv,READVersionD.csv,"Read Version D","Dissertation, read only version D",FUTURE,PAST,Study1,S,61,13,Test,User,-,,Recall,Recall2,4156,song,25,3230,4045,0,0,,1
5e6cdd414ecdc62853e75759,2opp84a0jk,Nick_Dissertation_EX1,1,278,2020-06-02T09:24:38-07:00,2.7634899616241,4,versionC_stim.csv,READVersionD.csv,"Read Version D","Dissertation, read only version D",VASE,KING,Study1,U,85,61,Test,User,-,,Recall,Recall2,2402,flower,0,1534,2299,0,0,,1
5e6cdd414ecdc62853e75759,2opp84a0jk,Nick_Dissertation_EX1,1,279,2020-06-02T09:24:42-07:00,3.7448220252991,4,versionC_stim.csv,READVersionD.csv,"Read Version D","Dissertation, read only version D",END,BEGIN,Study1,S,54,49,Test,User,-,,Recall,Recall2,3363,game,22.222222222222,2634,3139,0,0,,1
5e6cdd414ecdc62853e75759,2opp84a0jk,Nick_Dissertation_EX1,1,280,2020-06-02T09:24:45-07:00,3.0301470756531,4,versionC_stim.csv,READVersionD.csv,"Read Version D","Dissertation, read only version D",ROCK,GEOLOGY,Study1,B,19,53,Test,User,-,,Recall,Recall2,2633,stone,16.666666666667,1854,2491,0,0,,1
5e6cdd414ecdc62853e75759,2opp84a0jk,Nick_Dissertation_EX1,1,281,2020-06-02T09:24:47-07:00,2.0781419277191,4,versionC_stim.csv,READVersionD.csv,"Read Version D","Dissertation, read only version D",SODA,POP,Study1,S,56,15,Test,User,-,,Recall,Recall2,1703,pop,100,1071,1480,1,1,,1
5e6cdd414ecdc62853e75759,2opp84a0jk,Nick_Dissertation_EX1,1,282,2020-06-02T09:24:50-07:00,2.5938081741333,4,versionC_stim.csv,READVersionD.csv,"Read Version D","Dissertation, read only version D",BIRD,SWAN,Study1,B,14,51,Test,User,-,,Recall,Recall2,2187,song,50,1698,2062,0,0,,1
5e6cdd414ecdc62853e75759,2opp84a0jk,Nick_Dissertation_EX1,1,283,2020-06-02T09:24:53-07:00,3.237156867981,4,versionC_stim.csv,READVersionD.csv,"Read Version D","Dissertation, read only version D",SALAD,LETTUCE,Study1,S,59,34,Test,User,-,,Recall,Recall2,2872,leaves,46.153846153846,1834,2705,0,0,,1
5e6cdd414ecdc62853e75759,2opp84a0jk,Nick_Dissertation_EX1,1,284,2020-06-02T09:25:16-07:00,23.233443975449,4,versionC_stim.csv,READVersionD.csv,"Read Version D","Dissertation, read only version D",SITE,LOCATION,Study1,S,48,32,Test,User,-,,Recall,Recall2,5169,builder,13.333333333333,3497,4880,0,0,,1
5e6cdd414ecdc62853e75759,2opp84a0jk,Nick_Dissertation_EX1,1,285,2020-06-02T09:25:26-07:00,10.136924028397,4,versionC_stim.csv,READVersionD.csv,"Read Version D","Dissertation, read only version D",WIND,BLOW,Study1,S,55,70,Test,User,-,,Recall,Recall2,9673,bender,20,8628,9427,0,0,,1
5e6cdd414ecdc62853e75759,2opp84a0jk,Nick_Dissertation_EX1,1,286,2020-06-02T09:25:30-07:00,3.8382430076599,4,versionC_stim.csv,READVersionD.csv,"Read Version D","Dissertation, read only version D",FOOT,SHOE,Study1,S,60,72,Test,User,-,,Recall,Recall2,3445,shoe,100,2381,2966,1,1,,1
5e6cdd414ecdc62853e75759,2opp84a0jk,Nick_Dissertation_EX1,1,287,2020-06-02T09:25:34-07:00,3.9506928920746,4,versionC_stim.csv,READVersionD.csv,"Read Version D","Dissertation, read only version D",SACKING,DIETARY,Study1,U,67,22,Test,User,-,,Recall,Recall2,3579,potato,30.769230769231,1493,3380,0,0,,1
5e6cdd414ecdc62853e75759,2opp84a0jk,Nick_Dissertation_EX1,1,288,2020-06-02T09:25:38-07:00,3.42928814888,4,versionC_stim.csv,READVersionD.csv,"Read Version D","Dissertation, read only version D",SIP,DRINK,Study1,F,27,31,Test,User,-,,Recall,Recall2,3055,frin,66.666666666667,1930,2617,0,0,,1
5e6cdd414ecdc62853e75759,2opp84a0jk,Nick_Dissertation_EX1,1,289,2020-06-02T09:25:42-07:00,4.327789068222,4,versionC_stim.csv,READVersionD.csv,"Read Version D","Dissertation, read only version D",HAND,FIX,Study1,U,75,40,Test,User,-,,Recall,Recall2,3935,glove,0,1655,3815,0,0,,1
5e6cdd414ecdc62853e75759,2opp84a0jk,Nick_Dissertation_EX1,1,290,2020-06-02T09:25:44-07:00,2.1771500110626,4,versionC_stim.csv,READVersionD.csv,"Read Version D","Dissertation, read only version D",HAMMER,CHISEL,Study1,B,9,67,Test,User,-,,Recall,Recall2,1807,time,40,1343,1679,0,0,,1
5e6cdd414ecdc62853e75759,2opp84a0jk,Nick_Dissertation_EX1,1,291,2020-06-02T09:25:49-07:00,4.9334027767181,4,versionC_stim.csv,READVersionD.csv,"Read Version D","Dissertation, read only version D",ADD,VALLEY,Study1,U,82,47,Test,User,-,,Recall,Recall2,4527,subtract,14.285714285714,1297,4392,0,0,,1
5e6cdd414ecdc62853e75759,2opp84a0jk,Nick_Dissertation_EX1,1,292,2020-06-02T09:25:54-07:00,4.6144721508026,4,versionC_stim.csv,READVersionD.csv,"Read Version D","Dissertation, read only version D",PILOT,PLANE,Study1,F,44,64,Test,User,-,,Recall,Recall2,4230,airplane,76.923076923077,2492,4070,0,1,,1
5e6cdd414ecdc62853e75759,2opp84a0jk,Nick_Dissertation_EX1,1,293,2020-06-02T09:25:57-07:00,3.0115258693695,4,versionC_stim.csv,READVersionD.csv,"Read Version D","Dissertation, read only version D",COW,HERD,Study1,B,22,84,Test,User,-,,Recall,Recall2,2606,moo,0,1064,2481,0,0,,1
5e6cdd414ecdc62853e75759,2opp84a0jk,Nick_Dissertation_EX1,1,294,2020-06-02T09:25:59-07:00,2.7170209884644,4,versionC_stim.csv,READVersionD.csv,"Read Version D","Dissertation, read only version D",SICK,HIDE,Study1,U,84,77,Test,User,-,,Recall,Recall2,2352,bag,0,1411,2058,0,0,,1
5e6cdd414ecdc62853e75759,2opp84a0jk,Nick_Dissertation_EX1,1,295,2020-06-02T09:26:44-07:00,44.411774158478,4,versionC_stim.csv,READVersionD.csv,"Read Version D","Dissertation, read only version D",DESIGN,ARCHITECTURE,Study1,S,51,26,Test,User,-,,Recall,Recall2,16412,flaw,12.5,15579,16069,0,0,,1
5e6cdd414ecdc62853e75759,2opp84a0jk,Nick_Dissertation_EX1,1,296,2020-06-02T09:26:47-07:00,3.1976709365845,4,versionC_stim.csv,READVersionD.csv,"Read Version D","Dissertation, read only version D",FISH,TUNA,Study1,B,25,20,Test,User,-,,Recall,Recall2,2799,eye,0,1318,1799,0,0,,1
5e6cdd414ecdc62853e75759,2opp84a0jk,Nick_Dissertation_EX1,1,297,2020-06-02T09:26:50-07:00,2.8130970001221,4,versionC_stim.csv,READVersionD.csv,"Read Version D","Dissertation, read only version D",CAVE,DARK,Study1,F,28,85,Test,User,-,,Recall,Recall2,1371,man,28.571428571429,965,1188,0,0,,1
5e6cdd414ecdc62853e75759,2opp84a0jk,Nick_Dissertation_EX1,1,298,2020-06-02T09:26:54-07:00,3.6335709095001,4,versionC_stim.csv,READVersionD.csv,"Read Version D","Dissertation, read only version D",ACCIDENT,STRONG,Study1,U,80,23,Test,User,-,,Recall,Recall2,3255,emergency,26.666666666667,1737,3129,0,0,,1
5e6cdd414ecdc62853e75759,2opp84a0jk,Nick_Dissertation_EX1,1,299,2020-06-02T09:26:57-07:00,3.9407021999359,4,versionC_stim.csv,READVersionD.csv,"Read Version D","Dissertation, read only version D",CHILI,HOT,Study1,F,37,45,Test,User,-,,Recall,Recall2,3520,pepper,0,2391,2952,0,0,,1
5e6cdd414ecdc62853e75759,2opp84a0jk,Nick_Dissertation_EX1,1,300,2020-06-02T09:27:00-07:00,2.285071849823,4,versionC_stim.csv,READVersionD.csv,"Read Version D","Dissertation, read only version D",WOULD,CASH,Study1,U,83,7,Test,User,-,,Recall,Recall2,1844,not,0,1400,1725,0,0,,1
5e6cdd414ecdc62853e75759,2opp84a0jk,Nick_Dissertation_EX1,1,301,2020-06-02T09:27:02-07:00,2.6785430908203,4,versionC_stim.csv,READVersionD.csv,"Read Version D","Dissertation, read only version D",BEE,HONEY,Study1,S,63,30,Test,User,-,,Recall,Recall2,2282,horent,54.545454545455,1389,2141,0,0,,1
5e6cdd414ecdc62853e75759,2opp84a0jk,Nick_Dissertation_EX1,1,302,2020-06-02T09:27:05-07:00,2.5133810043335,4,versionC_stim.csv,READVersionD.csv,"Read Version D","Dissertation, read only version D",CLUTTER,PUSHER,Study1,U,66,80,Test,User,-,,Recall,Recall2,2113,hammer,50,1543,2064,0,0,,1
5e6cdd414ecdc62853e75759,2opp84a0jk,Nick_Dissertation_EX1,1,303,2020-06-02T09:27:07-07:00,2.1417200565338,4,versionC_stim.csv,READVersionD.csv,"Read Version D","Dissertation, read only version D",BAD,DELINQUENT,Study1,B,6,27,Test,User,-,,Recall,Recall2,1742,good,14.285714285714,1081,1471,0,0,,1
5e6cdd414ecdc62853e75759,2opp84a0jk,Nick_Dissertation_EX1,1,304,2020-06-02T09:27:11-07:00,3.6473438739777,4,versionC_stim.csv,READVersionD.csv,"Read Version D","Dissertation, read only version D",POSITION,MACHINE,Study1,U,76,62,Test,User,-,,Recall,Recall2,3291,bed,20,2766,3213,0,0,,1
5e6cdd414ecdc62853e75759,2opp84a0jk,Nick_Dissertation_EX1,1,305,2020-06-02T09:27:14-07:00,3.4527831077576,4,versionC_stim.csv,READVersionD.csv,"Read Version D","Dissertation, read only version D",STENCH,SMELL,Study1,F,42,35,Test,User,-,,Recall,Recall2,3009,rotten,18.181818181818,1795,2809,0,0,,1
5e6cdd414ecdc62853e75759,2opp84a0jk,Nick_Dissertation_EX1,1,306,2020-06-02T09:27:17-07:00,2.3095400333405,4,versionC_stim.csv,READVersionD.csv,"Read Version D","Dissertation, read only version D",COLD,BITTER,Study1,B,12,8,Test,User,-,,Recall,Recall2,1928,feet,20,1318,1824,0,0,,1
5e6cdd414ecdc62853e75759,2opp84a0jk,Nick_Dissertation_EX1,1,307,2020-06-02T09:27:19-07:00,2.3584277629852,4,versionC_stim.csv,READVersionD.csv,"Read Version D","Dissertation, read only version D",CLEAN,HYGIENE,Study1,B,17,52,Test,User,-,,Recall,Recall2,1971,house,33.333333333333,1349,1932,0,0,,1
5e6cdd414ecdc62853e75759,2opp84a0jk,Nick_Dissertation_EX1,1,308,2020-06-02T09:27:21-07:00,2.3983631134033,4,versionC_stim.csv,READVersionD.csv,"Read Version D","Dissertation, read only version D",LIVER,KIDNEY,Study1,S,53,25,Test,User,-,,Recall,Recall2,2036,lima,20,1359,1932,0,0,,1
5e6cdd414ecdc62853e75759,2opp84a0jk,Nick_Dissertation_EX1,1,309,2020-06-02T09:27:26-07:00,4.4922430515289,4,versionC_stim.csv,READVersionD.csv,"Read Version D","Dissertation, read only version D",CARD,CREDIT,Study1,B,23,17,Test,User,-,,Recall,Recall2,4096,factory,30.769230769231,1970,4025,0,0,,1
5e6cdd414ecdc62853e75759,2opp84a0jk,Nick_Dissertation_EX1,1,310,2020-06-02T09:27:30-07:00,4.4167909622192,4,versionC_stim.csv,READVersionD.csv,"Read Version D","Dissertation, read only version D",HUNGRY,PARK,Study1,U,68,71,Test,User,-,,Recall,Recall2,4017,turkey,40,3095,3897,0,0,,1
5e6cdd414ecdc62853e75759,2opp84a0jk,Nick_Dissertation_EX1,1,311,2020-06-02T09:27:36-07:00,5.3951809406281,4,versionC_stim.csv,READVersionD.csv,"Read Version D","Dissertation, read only version D",STING,HORNET,Study1,B,11,21,Test,User,-,,Recall,Recall2,5023,hornet,100,2681,4600,1,1,,1
5e6cdd414ecdc62853e75759,2opp84a0jk,Nick_Dissertation_EX1,1,312,2020-06-02T09:27:39-07:00,3.1223440170288,4,versionC_stim.csv,READVersionD.csv,"Read Version D","Dissertation, read only version D",WAR,REVOLUTION,Study1,B,20,83,Test,User,-,,Recall,Recall2,2730,zone,28.571428571429,1837,2595,0,0,,1
5e6cdd414ecdc62853e75759,2opp84a0jk,Nick_Dissertation_EX1,1,313,2020-06-02T09:27:43-07:00,3.8084359169006,4,versionC_stim.csv,READVersionD.csv,"Read Version D","Dissertation, read only version D",CHEESE,WINE,Study1,S,57,29,Test,User,-,,Recall,Recall2,2421,chili,22.222222222222,1448,2239,0,0,,1
5e6cdd414ecdc62853e75759,2opp84a0jk,Nick_Dissertation_EX1,1,314,2020-06-02T09:27:45-07:00,2.8790731430054,4,versionC_stim.csv,READVersionD.csv,"Read Version D","Dissertation, read only version D",TOILET,BATHROOM,Study1,S,58,44,Test,User,-,,Recall,Recall2,2511,paper,30.769230769231,1205,1834,0,0,,1
5e6cdd414ecdc62853e75759,2opp84a0jk,Nick_Dissertation_EX1,1,315,2020-06-02T09:27:48-07:00,2.6148009300232,4,versionC_stim.csv,READVersionD.csv,"Read Version D","Dissertation, read only version D",STOMACH,DIGESTION,Study1,B,7,36,Test,User,-,,Recall,Recall2,2222,ache,15.384615384615,1430,2055,0,0,,1
5e6cdd414ecdc62853e75759,2opp84a0jk,Nick_Dissertation_EX1,1,316,2020-06-02T09:27:50-07:00,2.0409660339355,4,versionC_stim.csv,READVersionD.csv,"Read Version D","Dissertation, read only version D",BRONZE,ARTERY,Study1,U,74,78,Test,User,-,,Recall,Recall2,1665,age,44.444444444444,876,1347,0,0,,1
5e6cdd414ecdc62853e75759,2opp84a0jk,Nick_Dissertation_EX1,1,317,2020-06-02T09:27:52-07:00,2.4170289039612,4,versionC_stim.csv,READVersionD.csv,"Read Version D","Dissertation, read only version D",FLOOR,DISCOVER,Study1,U,71,75,Test,User,-,,Recall,Recall2,2036,gang,0,1175,1630,0,0,,1
5e6cdd414ecdc62853e75759,2opp84a0jk,Nick_Dissertation_EX1,1,318,2020-06-02T09:27:56-07:00,3.9492402076721,4,versionC_stim.csv,READVersionD.csv,"Read Version D","Dissertation, read only version D",DROWSY,SLEEP,Study1,F,41,76,Test,User,-,,Recall,Recall2,3538,drug,0,2348,3246,0,0,,1
5e6cdd414ecdc62853e75759,2opp84a0jk,Nick_Dissertation_EX1,1,319,2020-06-02T09:28:00-07:00,3.1522099971771,4,versionC_stim.csv,READVersionD.csv,"Read Version D","Dissertation, read only version D",PLANT,ROOT,Study1,B,13,42,Test,User,-,,Recall,Recall2,2765,based,0,1549,2645,0,0,,1
5e6cdd414ecdc62853e75759,2opp84a0jk,Nick_Dissertation_EX1,1,320,2020-06-02T09:28:02-07:00,2.143935918808,4,versionC_stim.csv,READVersionD.csv,"Read Version D","Dissertation, read only version D",ROUND,CIRCLE,Study1,S,65,74,Test,User,-,,Recall,Recall2,1747,table,36.363636363636,958,1597,0,0,,1
5e6cdd414ecdc62853e75759,2opp84a0jk,Nick_Dissertation_EX1,1,321,2020-06-02T09:28:06-07:00,4.2327439785004,4,versionC_stim.csv,READVersionD.csv,"Read Version D","Dissertation, read only version D",OUT,WAY,Study1,B,16,81,Test,User,-,,Recall,Recall2,3849,ward,57.142857142857,2404,3683,0,0,,1
5e6cdd414ecdc62853e75759,2opp84a0jk,Nick_Dissertation_EX1,1,322,2020-06-02T09:28:11-07:00,5.0495700836182,4,versionC_stim.csv,READVersionD.csv,"Read Version D","Dissertation, read only version D",GROWTH,HEIGHT,Study1,F,30,16,Test,User,-,,Recall,Recall2,4652,hormone,30.769230769231,1355,4494,0,0,,1
5e6cdd414ecdc62853e75759,2opp84a0jk,Nick_Dissertation_EX1,1,323,2020-06-02T09:28:13-07:00,2.1329669952393,4,versionC_stim.csv,READVersionD.csv,"Read Version D","Dissertation, read only version D",BELT,SOON,Study1,U,70,48,Test,User,-,,Recall,Recall2,1734,seat,25,1128,1600,0,0,,1
5e6cdd414ecdc62853e75759,2opp84a0jk,Nick_Dissertation_EX1,1,324,2020-06-02T09:28:15-07:00,2.3450179100037,4,versionC_stim.csv,READVersionD.csv,"Read Version D","Dissertation, read only version D",NEWS,EDITOR,Study1,B,10,41,Test,User,-,,Recall,Recall2,1980,fake,20,1359,1854,0,0,,1
5e6cdd414ecdc62853e75759,2opp84a0jk,Nick_Dissertation_EX1,1,325,2020-06-02T09:28:18-07:00,2.3756771087646,4,versionC_stim.csv,READVersionD.csv,"Read Version D","Dissertation, read only version D",AMOUNT,NUMBER,Study1,S,47,19,Test,User,-,,Recall,Recall2,1970,money,36.363636363636,1186,1873,0,0,,1
5e6cdd414ecdc62853e75759,2opp84a0jk,Nick_Dissertation_EX1,1,326,2020-06-02T09:28:21-07:00,3.3974277973175,4,versionC_stim.csv,READVersionD.csv,"Read Version D","Dissertation, read only version D",FAMINE,HUNGER,Study1,F,40,18,Test,User,-,,Recall,Recall2,3081,potato,0,1164,2916,0,0,,1
5e6cdd414ecdc62853e75759,2opp84a0jk,Nick_Dissertation_EX1,1,327,2020-06-02T09:28:28-07:00,7.24196600914,4,versionC_stim.csv,READVersionD.csv,"Read Version D","Dissertation, read only version D",JURY,TRIAL,Study1,S,50,86,Test,User,-,,Recall,Recall2,6838,discretion,13.333333333333,4233,6664,0,0,,1
5e6cdd414ecdc62853e75759,2opp84a0jk,Nick_Dissertation_EX1,1,328,2020-06-02T09:28:31-07:00,2.7879011631012,4,versionC_stim.csv,READVersionD.csv,"Read Version D","Dissertation, read only version D",LATCH,KEY,Study1,F,36,9,Test,User,-,,Recall,Recall2,2232,bolt,0,1774,2121,0,0,,1
5e6cdd414ecdc62853e75759,2opp84a0jk,Nick_Dissertation_EX1,1,329,2020-06-02T09:28:35-07:00,3.3641018867493,4,versionC_stim.csv,READVersionD.csv,"Read Version D","Dissertation, read only version D",CHILD,BABY,Study1,S,64,57,Test,User,-,,Recall,Recall2,2984,matter,20,1779,2562,0,0,,1
5e6cdd414ecdc62853e75759,2opp84a0jk,Nick_Dissertation_EX1,1,330,2020-06-02T09:28:37-07:00,2.2243790626526,4,versionC_stim.csv,READVersionD.csv,"Read Version D","Dissertation, read only version D",DOG,PAW,Study1,B,15,82,Test,User,-,,Recall,Recall2,1836,cat,33.333333333333,1125,1702,0,0,,1
5e6cdd414ecdc62853e75759,2opp84a0jk,Nick_Dissertation_EX1,1,331,2020-06-02T09:28:41-07:00,4.491977930069,4,versionC_stim.csv,READVersionD.csv,"Read Version D","Dissertation, read only version D",DEFINITION,MEANING,Study1,S,62,33,Test,User,-,,Recall,Recall2,4087,destinantion,31.578947368421,2062,3864,0,0,,1
5e6cdd414ecdc62853e75759,2opp84a0jk,Nick_Dissertation_EX1,1,332,2020-06-02T09:28:43-07:00,1.9339351654053,4,versionC_stim.csv,READVersionD.csv,"Read Version D","Dissertation, read only version D",WOMAN,LIFT,Study1,U,69,54,Test,User,-,,Recall,Recall2,1548,man,0,891,1309,0,0,,1
5e6cdd414ecdc62853e75759,2opp84a0jk,Nick_Dissertation_EX1,1,333,2020-06-02T09:28:45-07:00,1.8460350036621,4,versionC_stim.csv,READVersionD.csv,"Read Version D","Dissertation, read only version D",LION,ART,Study1,U,79,56,Test,User,-,,Recall,Recall2,1435,king,0,871,1287,0,0,,1
5e6cdd414ecdc62853e75759,2opp84a0jk,Nick_Dissertation_EX1,1,334,2020-06-02T09:28:48-07:00,2.9157447814941,4,versionC_stim.csv,READVersionD.csv,"Read Version D","Dissertation, read only version D",TUCK,ALLOW,Study1,U,78,43,Test,User,-,,Recall,Recall2,2550,bed,0,2129,2440,0,0,,1
5e6cdd414ecdc62853e75759,2opp84a0jk,Nick_Dissertation_EX1,1,335,2020-06-02T09:28:50-07:00,2.388396024704,4,versionC_stim.csv,READVersionD.csv,"Read Version D","Dissertation, read only version D",WORD,SENTENCE,Study1,F,31,73,Test,User,-,,Recall,Recall2,2002,book,0,1493,1860,0,0,,1
5e6cdd414ecdc62853e75759,2opp84a0jk,Nick_Dissertation_EX1,1,336,2020-06-02T09:28:52-07:00,1.9134631156921,4,versionC_stim.csv,READVersionD.csv,"Read Version D","Dissertation, read only version D",BUSINESS,DEATH,Study1,U,72,28,Test,User,-,,Recall,Recall2,1510,man,25,1185,1384,0,0,,1
5e6cdd414ecdc62853e75759,2opp84a0jk,Nick_Dissertation_EX1,1,337,2020-06-02T09:28:55-07:00,2.5753290653229,4,versionC_stim.csv,READVersionD.csv,"Read Version D","Dissertation, read only version D",ATTIRE,CLOTHES,Study1,F,43,60,Test,User,-,,Recall,Recall2,2126,suit,18.181818181818,1394,1817,0,0,,1
5e6cdd414ecdc62853e75759,2opp84a0jk,Nick_Dissertation_EX1,1,338,2020-06-02T09:28:58-07:00,2.8698449134827,4,versionC_stim.csv,READVersionD.csv,"Read Version D","Dissertation, read only version D",RIDDLE,SUGAR,Study1,U,81,79,Test,User,-,,Recall,Recall2,2476,jok,0,1975,2247,0,0,,1
5e6cdd414ecdc62853e75759,2opp84a0jk,Nick_Dissertation_EX1,1,339,2020-06-02T09:29:01-07:00,3.5784640312195,4,versionC_stim.csv,READVersionD.csv,"Read Version D","Dissertation, read only version D",CAR,HAPPY,Study1,U,77,14,Test,User,-,,Recall,Recall2,3074,wash,22.222222222222,1884,2915,0,0,,1
5e6cdd414ecdc62853e75759,2opp84a0jk,Nick_Dissertation_EX1,1,340,2020-06-02T09:29:04-07:00,2.473573923111,4,versionC_stim.csv,READVersionD.csv,"Read Version D","Dissertation, read only version D",ATTORNEY,LAW,Study1,F,34,10,Test,User,-,,Recall,Recall2,2080,genrak,22.222222222222,1232,1865,0,0,,1
5e6cdd414ecdc62853e75759,2opp84a0jk,Nick_Dissertation_EX1,1,341,2020-06-02T09:29:10-07:00,5.7816259860992,4,versionC_stim.csv,READVersionD.csv,"Read Version D","Dissertation, read only version D",WATER,BRIDGE,Study1,B,18,59,Test,User,-,,Recall,Recall2,5402,oil,22.222222222222,4820,5203,0,0,,1
5e6cdd414ecdc62853e75759,2opp84a0jk,Nick_Dissertation_EX1,1,342,2020-06-02T09:29:13-07:00,3.5287849903107,4,versionC_stim.csv,READVersionD.csv,"Read Version D","Dissertation, read only version D",TALK,DISCUSSION,Study1,B,21,46,Test,User,-,,Recall,Recall2,3107,walk,0,2043,2579,0,0,,1
5e6cdd414ecdc62853e75759,2opp84a0jk,Nick_Dissertation_EX1,1,343,2020-06-02T09:29:16-07:00,2.4091351032257,4,versionC_stim.csv,READVersionD.csv,"Read Version D","Dissertation, read only version D",FLOWER,ORCHID,Study1,B,24,50,Test,User,-,,Recall,Recall2,2014,pot,22.222222222222,1400,1934,0,0,,1
