Username,ID,ExperimentName,Session,Trial,Date,TimeDif,"Condition Number","Stimuli File","Order File","Condition Description","Condition Notes",Stimuli*Cue,Stimuli*Answer,Stimuli*Shuffle,"Stimuli*Stimuli Notes",Stimuli*Value,Procedure*Item,"Procedure*Trial Type","Procedure*Max Time","Procedure*Min Time",Procedure*Text,"Procedure*Procedure Notes",Procedure*Shuffle,Response*RT,Response*Response,Response*Accuracy,Response*RTfirst,Response*RTlast,Response*strictAcc,Response*lenientAcc,Response*focus,Response*Focus
5e540b9b25baaf40438073bb,yc9sbvq892,Nick_Dissertation_EX1,1,1,2020-06-02T09:08:18-07:00,15.179354190826,2,versionA_stim.csv,READVersionB.csv,"Read Version B","Dissertation, read only version B",,,,,,0,Instruct,-,10,"Please study each of the following word pairs. Remember that your memory will be tested! When finished, press Enter to move to the next pair.",Initial_Instruct,Instruct1,14765,,,-1,-1,,,,1
5e540b9b25baaf40438073bb,yc9sbvq892,Nick_Dissertation_EX1,1,2,2020-06-02T09:08:23-07:00,4.7961230278015,2,versionA_stim.csv,READVersionB.csv,"Read Version B","Dissertation, read only version B",CAMP,ADVENTURE,BUFFER3,Buffer,95,92,Study,User,-,,Study/JOL,BUFFER,4394,,,-1,-1,,,,1
5e540b9b25baaf40438073bb,yc9sbvq892,Nick_Dissertation_EX1,1,3,2020-06-02T09:08:26-07:00,2.9705739021301,2,versionA_stim.csv,READVersionB.csv,"Read Version B","Dissertation, read only version B",SHRIMP,FISH,BUFFER3,Buffer,93,93,Study,User,-,,Study/JOL,BUFFER,2566,,,-1,-1,,,,1
5e540b9b25baaf40438073bb,yc9sbvq892,Nick_Dissertation_EX1,1,4,2020-06-02T09:08:29-07:00,3.148451089859,2,versionA_stim.csv,READVersionB.csv,"Read Version B","Dissertation, read only version B",NOODLE,STRING,BUFFER3,Buffer,92,95,Study,User,-,,Study/JOL,BUFFER,2749,,,-1,-1,,,,1
5e540b9b25baaf40438073bb,yc9sbvq892,Nick_Dissertation_EX1,1,5,2020-06-02T09:08:31-07:00,2.5151138305664,2,versionA_stim.csv,READVersionB.csv,"Read Version B","Dissertation, read only version B",ICE,FROZEN,BUFFER3,Buffer,94,94,Study,User,-,,Study/JOL,BUFFER,2111,,,-1,-1,,,,1
5e540b9b25baaf40438073bb,yc9sbvq892,Nick_Dissertation_EX1,1,6,2020-06-02T09:08:34-07:00,2.5726959705353,2,versionA_stim.csv,READVersionB.csv,"Read Version B","Dissertation, read only version B",CARROT,POTATO,BUFFER3,Buffer,91,96,Study,User,-,,Study/JOL,BUFFER,2164,,,-1,-1,,,,1
5e540b9b25baaf40438073bb,yc9sbvq892,Nick_Dissertation_EX1,1,7,2020-06-02T09:08:37-07:00,3.4841520786285,2,versionA_stim.csv,READVersionB.csv,"Read Version B","Dissertation, read only version B",MEAT,OBTAIN,Study2,U,161,170,Study,User,-,,Study/JOL,"Study Phase",3087,,,-1,-1,,,,1
5e540b9b25baaf40438073bb,yc9sbvq892,Nick_Dissertation_EX1,1,8,2020-06-02T09:08:40-07:00,2.8583929538727,2,versionA_stim.csv,READVersionB.csv,"Read Version B","Dissertation, read only version B",CAT,PANTHER,Study2,B,126,151,Study,User,-,,Study/JOL,"Study Phase",2449,,,-1,-1,,,,1
5e540b9b25baaf40438073bb,yc9sbvq892,Nick_Dissertation_EX1,1,9,2020-06-02T09:08:44-07:00,3.9268050193787,2,versionA_stim.csv,READVersionB.csv,"Read Version B","Dissertation, read only version B",WATER,DRINK,Study2,S,143,152,Study,User,-,,Study/JOL,"Study Phase",3522,,,-1,-1,,,,1
5e540b9b25baaf40438073bb,yc9sbvq892,Nick_Dissertation_EX1,1,10,2020-06-02T09:08:48-07:00,3.7925570011139,2,versionA_stim.csv,READVersionB.csv,"Read Version B","Dissertation, read only version B",LEASE,TOIL,Study2,U,170,133,Study,User,-,,Study/JOL,"Study Phase",3390,,,-1,-1,,,,1
5e540b9b25baaf40438073bb,yc9sbvq892,Nick_Dissertation_EX1,1,11,2020-06-02T09:08:51-07:00,3.0351641178131,2,versionA_stim.csv,READVersionB.csv,"Read Version B","Dissertation, read only version B",WRIST,BRACELET,Study2,S,140,147,Study,User,-,,Study/JOL,"Study Phase",2629,,,-1,-1,,,,1
5e540b9b25baaf40438073bb,yc9sbvq892,Nick_Dissertation_EX1,1,12,2020-06-02T09:08:55-07:00,3.6075439453125,2,versionA_stim.csv,READVersionB.csv,"Read Version B","Dissertation, read only version B",EVEN,REVENGE,Study2,B,122,171,Study,User,-,,Study/JOL,"Study Phase",3198,,,-1,-1,,,,1
5e540b9b25baaf40438073bb,yc9sbvq892,Nick_Dissertation_EX1,1,13,2020-06-02T09:08:58-07:00,2.8925850391388,2,versionA_stim.csv,READVersionB.csv,"Read Version B","Dissertation, read only version B",CHERRY,RED,Study2,F,104,143,Study,User,-,,Study/JOL,"Study Phase",2485,,,-1,-1,,,,1
5e540b9b25baaf40438073bb,yc9sbvq892,Nick_Dissertation_EX1,1,14,2020-06-02T09:09:01-07:00,3.652382850647,2,versionA_stim.csv,READVersionB.csv,"Read Version B","Dissertation, read only version B",BEST,FAVORITE,Study2,B,125,141,Study,User,-,,Study/JOL,"Study Phase",3236,,,-1,-1,,,,1
5e540b9b25baaf40438073bb,yc9sbvq892,Nick_Dissertation_EX1,1,15,2020-06-02T09:09:06-07:00,4.4076511859894,2,versionA_stim.csv,READVersionB.csv,"Read Version B","Dissertation, read only version B",SAFETY,SEATBELT,Study2,S,147,99,Study,User,-,,Study/JOL,"Study Phase",3988,,,-1,-1,,,,1
5e540b9b25baaf40438073bb,yc9sbvq892,Nick_Dissertation_EX1,1,16,2020-06-02T09:09:08-07:00,2.8154058456421,2,versionA_stim.csv,READVersionB.csv,"Read Version B","Dissertation, read only version B",HONEST,TRUTHFUL,Study2,B,133,116,Study,User,-,,Study/JOL,"Study Phase",2406,,,-1,-1,,,,1
5e540b9b25baaf40438073bb,yc9sbvq892,Nick_Dissertation_EX1,1,17,2020-06-02T09:09:12-07:00,3.2399749755859,2,versionA_stim.csv,READVersionB.csv,"Read Version B","Dissertation, read only version B",CACTUS,PLANT,Study2,F,98,109,Study,User,-,,Study/JOL,"Study Phase",2831,,,-1,-1,,,,1
5e540b9b25baaf40438073bb,yc9sbvq892,Nick_Dissertation_EX1,1,18,2020-06-02T09:09:16-07:00,4.0456759929657,2,versionA_stim.csv,READVersionB.csv,"Read Version B","Dissertation, read only version B",DOCUMENT,PAPER,Study2,F,109,126,Study,User,-,,Study/JOL,"Study Phase",3643,,,-1,-1,,,,1
5e540b9b25baaf40438073bb,yc9sbvq892,Nick_Dissertation_EX1,1,19,2020-06-02T09:09:19-07:00,2.9343991279602,2,versionA_stim.csv,READVersionB.csv,"Read Version B","Dissertation, read only version B",FURRY,DOG,Study2,F,102,122,Study,User,-,,Study/JOL,"Study Phase",2534,,,-1,-1,,,,1
5e540b9b25baaf40438073bb,yc9sbvq892,Nick_Dissertation_EX1,1,20,2020-06-02T09:09:22-07:00,3.7509150505066,2,versionA_stim.csv,READVersionB.csv,"Read Version B","Dissertation, read only version B",MIRROR,CHILDREN,Study2,U,174,154,Study,User,-,,Study/JOL,"Study Phase",3353,,,-1,-1,,,,1
5e540b9b25baaf40438073bb,yc9sbvq892,Nick_Dissertation_EX1,1,21,2020-06-02T09:09:27-07:00,4.5753889083862,2,versionA_stim.csv,READVersionB.csv,"Read Version B","Dissertation, read only version B",PLANE,AIRCRAFT,Study2,B,129,121,Study,User,-,,Study/JOL,"Study Phase",4175,,,-1,-1,,,,1
5e540b9b25baaf40438073bb,yc9sbvq892,Nick_Dissertation_EX1,1,22,2020-06-02T09:09:32-07:00,4.6213240623474,2,versionA_stim.csv,READVersionB.csv,"Read Version B","Dissertation, read only version B",BOTH,OUNCE,Study2,U,172,161,Study,User,-,,Study/JOL,"Study Phase",4214,,,-1,-1,,,,1
5e540b9b25baaf40438073bb,yc9sbvq892,Nick_Dissertation_EX1,1,23,2020-06-02T09:09:37-07:00,5.1626658439636,2,versionA_stim.csv,READVersionB.csv,"Read Version B","Dissertation, read only version B",DINE,EAT,Study2,F,111,136,Study,User,-,,Study/JOL,"Study Phase",4747,,,-1,-1,,,,1
5e540b9b25baaf40438073bb,yc9sbvq892,Nick_Dissertation_EX1,1,24,2020-06-02T09:09:40-07:00,3.6728610992432,2,versionA_stim.csv,READVersionB.csv,"Read Version B","Dissertation, read only version B",LOAN,SIGN,Study2,U,171,144,Study,User,-,,Study/JOL,"Study Phase",3257,,,-1,-1,,,,1
5e540b9b25baaf40438073bb,yc9sbvq892,Nick_Dissertation_EX1,1,25,2020-06-02T09:09:45-07:00,4.6256620883942,2,versionA_stim.csv,READVersionB.csv,"Read Version B","Dissertation, read only version B",EXTENSION,LONG,Study2,F,96,163,Study,User,-,,Study/JOL,"Study Phase",4221,,,-1,-1,,,,1
5e540b9b25baaf40438073bb,yc9sbvq892,Nick_Dissertation_EX1,1,26,2020-06-02T09:09:49-07:00,3.8011438846588,2,versionA_stim.csv,READVersionB.csv,"Read Version B","Dissertation, read only version B",KEYS,JOKE,Study2,U,165,167,Study,User,-,,Study/JOL,"Study Phase",3400,,,-1,-1,,,,1
5e540b9b25baaf40438073bb,yc9sbvq892,Nick_Dissertation_EX1,1,27,2020-06-02T09:09:53-07:00,3.7721400260925,2,versionA_stim.csv,READVersionB.csv,"Read Version B","Dissertation, read only version B",LISTEN,FICTION,Study2,U,164,164,Study,User,-,,Study/JOL,"Study Phase",3358,,,-1,-1,,,,1
5e540b9b25baaf40438073bb,yc9sbvq892,Nick_Dissertation_EX1,1,28,2020-06-02T09:09:56-07:00,3.3817040920258,2,versionA_stim.csv,READVersionB.csv,"Read Version B","Dissertation, read only version B",TRUTH,LIE,Study2,S,148,111,Study,User,-,,Study/JOL,"Study Phase",2980,,,-1,-1,,,,1
5e540b9b25baaf40438073bb,yc9sbvq892,Nick_Dissertation_EX1,1,29,2020-06-02T09:10:00-07:00,3.547504901886,2,versionA_stim.csv,READVersionB.csv,"Read Version B","Dissertation, read only version B",CHOP,CUT,Study2,F,107,103,Study,User,-,,Study/JOL,"Study Phase",3145,,,-1,-1,,,,1
5e540b9b25baaf40438073bb,yc9sbvq892,Nick_Dissertation_EX1,1,30,2020-06-02T09:10:03-07:00,3.2470669746399,2,versionA_stim.csv,READVersionB.csv,"Read Version B","Dissertation, read only version B",LOUD,NOISE,Study2,S,152,159,Study,User,-,,Study/JOL,"Study Phase",2835,,,-1,-1,,,,1
5e540b9b25baaf40438073bb,yc9sbvq892,Nick_Dissertation_EX1,1,31,2020-06-02T09:10:07-07:00,4.6848039627075,2,versionA_stim.csv,READVersionB.csv,"Read Version B","Dissertation, read only version B",DEAD,COFFIN,Study2,B,128,131,Study,User,-,,Study/JOL,"Study Phase",4258,,,-1,-1,,,,1
5e540b9b25baaf40438073bb,yc9sbvq892,Nick_Dissertation_EX1,1,32,2020-06-02T09:10:12-07:00,4.278804063797,2,versionA_stim.csv,READVersionB.csv,"Read Version B","Dissertation, read only version B",OWN,HAVE,Study2,S,153,120,Study,User,-,,Study/JOL,"Study Phase",3863,,,-1,-1,,,,1
5e540b9b25baaf40438073bb,yc9sbvq892,Nick_Dissertation_EX1,1,33,2020-06-02T09:10:16-07:00,4.630166053772,2,versionA_stim.csv,READVersionB.csv,"Read Version B","Dissertation, read only version B",DRY,WET,Study2,S,146,148,Study,User,-,,Study/JOL,"Study Phase",4221,,,-1,-1,,,,1
5e540b9b25baaf40438073bb,yc9sbvq892,Nick_Dissertation_EX1,1,34,2020-06-02T09:10:20-07:00,3.7309658527374,2,versionA_stim.csv,READVersionB.csv,"Read Version B","Dissertation, read only version B",RIGHTS,EQUAL,Study2,S,137,112,Study,User,-,,Study/JOL,"Study Phase",3334,,,-1,-1,,,,1
5e540b9b25baaf40438073bb,yc9sbvq892,Nick_Dissertation_EX1,1,35,2020-06-02T09:10:24-07:00,4.0446691513062,2,versionA_stim.csv,READVersionB.csv,"Read Version B","Dissertation, read only version B",GONE,AWAY,Study2,S,142,153,Study,User,-,,Study/JOL,"Study Phase",3612,,,-1,-1,,,,1
5e540b9b25baaf40438073bb,yc9sbvq892,Nick_Dissertation_EX1,1,36,2020-06-02T09:10:28-07:00,4.1050698757172,2,versionA_stim.csv,READVersionB.csv,"Read Version B","Dissertation, read only version B",MASON,JAR,Study2,S,138,175,Study,User,-,,Study/JOL,"Study Phase",3665,,,-1,-1,,,,1
5e540b9b25baaf40438073bb,yc9sbvq892,Nick_Dissertation_EX1,1,37,2020-06-02T09:10:32-07:00,4.125617980957,2,versionA_stim.csv,READVersionB.csv,"Read Version B","Dissertation, read only version B",CLUE,GAME,Study2,F,97,129,Study,User,-,,Study/JOL,"Study Phase",3728,,,-1,-1,,,,1
5e540b9b25baaf40438073bb,yc9sbvq892,Nick_Dissertation_EX1,1,38,2020-06-02T09:10:36-07:00,3.955423116684,2,versionA_stim.csv,READVersionB.csv,"Read Version B","Dissertation, read only version B",CHILL,COLD,Study2,F,114,158,Study,User,-,,Study/JOL,"Study Phase",3538,,,-1,-1,,,,1
5e540b9b25baaf40438073bb,yc9sbvq892,Nick_Dissertation_EX1,1,39,2020-06-02T09:10:40-07:00,3.9168288707733,2,versionA_stim.csv,READVersionB.csv,"Read Version B","Dissertation, read only version B",RAZOR,SHAVE,Study2,S,136,160,Study,User,-,,Study/JOL,"Study Phase",3503,,,-1,-1,,,,1
5e540b9b25baaf40438073bb,yc9sbvq892,Nick_Dissertation_EX1,1,40,2020-06-02T09:10:44-07:00,3.977931022644,2,versionA_stim.csv,READVersionB.csv,"Read Version B","Dissertation, read only version B",MONEY,BANKER,Study2,B,132,156,Study,User,-,,Study/JOL,"Study Phase",3560,,,-1,-1,,,,1
5e540b9b25baaf40438073bb,yc9sbvq892,Nick_Dissertation_EX1,1,41,2020-06-02T09:10:49-07:00,4.4503021240234,2,versionA_stim.csv,READVersionB.csv,"Read Version B","Dissertation, read only version B",SHOELACE,TIE,Study2,F,99,155,Study,User,-,,Study/JOL,"Study Phase",4047,,,-1,-1,,,,1
5e540b9b25baaf40438073bb,yc9sbvq892,Nick_Dissertation_EX1,1,42,2020-06-02T09:10:53-07:00,4.0980608463287,2,versionA_stim.csv,READVersionB.csv,"Read Version B","Dissertation, read only version B",DETECTIVE,MYSTERY,Study2,F,100,101,Study,User,-,,Study/JOL,"Study Phase",3687,,,-1,-1,,,,1
5e540b9b25baaf40438073bb,yc9sbvq892,Nick_Dissertation_EX1,1,43,2020-06-02T09:10:57-07:00,4.7328720092773,2,versionA_stim.csv,READVersionB.csv,"Read Version B","Dissertation, read only version B",TURN,FLIP,Study2,B,116,130,Study,User,-,,Study/JOL,"Study Phase",4277,,,-1,-1,,,,1
5e540b9b25baaf40438073bb,yc9sbvq892,Nick_Dissertation_EX1,1,44,2020-06-02T09:11:02-07:00,4.4288830757141,2,versionA_stim.csv,READVersionB.csv,"Read Version B","Dissertation, read only version B",MULE,DONKEY,Study2,F,108,125,Study,User,-,,Study/JOL,"Study Phase",4020,,,-1,-1,,,,1
5e540b9b25baaf40438073bb,yc9sbvq892,Nick_Dissertation_EX1,1,45,2020-06-02T09:11:10-07:00,7.6159899234772,2,versionA_stim.csv,READVersionB.csv,"Read Version B","Dissertation, read only version B",Shell,SHAKE,Study2,U,163,150,Study,User,-,,Study/JOL,"Study Phase",7201,,,-1,-1,,,,1
5e540b9b25baaf40438073bb,yc9sbvq892,Nick_Dissertation_EX1,1,46,2020-06-02T09:11:17-07:00,7.652859210968,2,versionA_stim.csv,READVersionB.csv,"Read Version B","Dissertation, read only version B",PHONE,COMMUNICATION,Study2,S,149,117,Study,User,-,,Study/JOL,"Study Phase",7216,,,-1,-1,,,,1
5e540b9b25baaf40438073bb,yc9sbvq892,Nick_Dissertation_EX1,1,47,2020-06-02T09:11:25-07:00,7.8719968795776,2,versionA_stim.csv,READVersionB.csv,"Read Version B","Dissertation, read only version B",AFFECTION,LOVE,Study2,F,115,172,Study,User,-,,Study/JOL,"Study Phase",7462,,,-1,-1,,,,1
5e540b9b25baaf40438073bb,yc9sbvq892,Nick_Dissertation_EX1,1,48,2020-06-02T09:11:33-07:00,7.7492790222168,2,versionA_stim.csv,READVersionB.csv,"Read Version B","Dissertation, read only version B",INCENSE,SMELL,Study2,F,110,132,Study,User,-,,Study/JOL,"Study Phase",7339,,,-1,-1,,,,1
5e540b9b25baaf40438073bb,yc9sbvq892,Nick_Dissertation_EX1,1,49,2020-06-02T09:11:40-07:00,7.398833990097,2,versionA_stim.csv,READVersionB.csv,"Read Version B","Dissertation, read only version B",ELEMENT,CARBON,Study2,S,141,113,Study,User,-,,Study/JOL,"Study Phase",6985,,,-1,-1,,,,1
5e540b9b25baaf40438073bb,yc9sbvq892,Nick_Dissertation_EX1,1,50,2020-06-02T09:11:48-07:00,7.6208291053772,2,versionA_stim.csv,READVersionB.csv,"Read Version B","Dissertation, read only version B",POP,BALLOON,Study2,B,123,127,Study,User,-,,Study/JOL,"Study Phase",7211,,,-1,-1,,,,1
5e540b9b25baaf40438073bb,yc9sbvq892,Nick_Dissertation_EX1,1,51,2020-06-02T09:11:56-07:00,8.2429709434509,2,versionA_stim.csv,READVersionB.csv,"Read Version B","Dissertation, read only version B",MAZE,ELECTION,Study2,U,159,135,Study,User,-,,Study/JOL,"Study Phase",7826,,,-1,-1,,,,1
5e540b9b25baaf40438073bb,yc9sbvq892,Nick_Dissertation_EX1,1,52,2020-06-02T09:12:04-07:00,7.9260778427124,2,versionA_stim.csv,READVersionB.csv,"Read Version B","Dissertation, read only version B",FRUIT,STRAWBERRY,Study2,B,124,145,Study,User,-,,Study/JOL,"Study Phase",7512,,,-1,-1,,,,1
5e540b9b25baaf40438073bb,yc9sbvq892,Nick_Dissertation_EX1,1,53,2020-06-02T09:12:12-07:00,7.7256820201874,2,versionA_stim.csv,READVersionB.csv,"Read Version B","Dissertation, read only version B",CAR,WINDSHIELD,Study2,B,117,165,Study,User,-,,Study/JOL,"Study Phase",7298,,,-1,-1,,,,1
5e540b9b25baaf40438073bb,yc9sbvq892,Nick_Dissertation_EX1,1,54,2020-06-02T09:12:19-07:00,7.1130931377411,2,versionA_stim.csv,READVersionB.csv,"Read Version B","Dissertation, read only version B",DRIVER,CAR,Study2,F,106,134,Study,User,-,,Study/JOL,"Study Phase",6693,,,-1,-1,,,,1
5e540b9b25baaf40438073bb,yc9sbvq892,Nick_Dissertation_EX1,1,55,2020-06-02T09:12:27-07:00,7.8391239643097,2,versionA_stim.csv,READVersionB.csv,"Read Version B","Dissertation, read only version B",SCALP,HEAD,Study2,F,105,100,Study,User,-,,Study/JOL,"Study Phase",7416,,,-1,-1,,,,1
5e540b9b25baaf40438073bb,yc9sbvq892,Nick_Dissertation_EX1,1,56,2020-06-02T09:12:34-07:00,7.1016159057617,2,versionA_stim.csv,READVersionB.csv,"Read Version B","Dissertation, read only version B",NAME,HATE,Study2,U,167,124,Study,User,-,,Study/JOL,"Study Phase",6696,,,-1,-1,,,,1
5e540b9b25baaf40438073bb,yc9sbvq892,Nick_Dissertation_EX1,1,57,2020-06-02T09:12:42-07:00,7.8823881149292,2,versionA_stim.csv,READVersionB.csv,"Read Version B","Dissertation, read only version B",BASEBALL,LEAGUE,Study2,B,131,108,Study,User,-,,Study/JOL,"Study Phase",7305,,,-1,-1,,,,1
5e540b9b25baaf40438073bb,yc9sbvq892,Nick_Dissertation_EX1,1,58,2020-06-02T09:12:49-07:00,7.5952608585358,2,versionA_stim.csv,READVersionB.csv,"Read Version B","Dissertation, read only version B",FLEA,TICK,Study2,S,151,138,Study,User,-,,Study/JOL,"Study Phase",7168,,,-1,-1,,,,1
5e540b9b25baaf40438073bb,yc9sbvq892,Nick_Dissertation_EX1,1,59,2020-06-02T09:12:56-07:00,6.768158197403,2,versionA_stim.csv,READVersionB.csv,"Read Version B","Dissertation, read only version B",CANDLE,WAX,Study2,S,139,162,Study,User,-,,Study/JOL,"Study Phase",6351,,,-1,-1,,,,1
5e540b9b25baaf40438073bb,yc9sbvq892,Nick_Dissertation_EX1,1,60,2020-06-02T09:13:03-07:00,7.095981836319,2,versionA_stim.csv,READVersionB.csv,"Read Version B","Dissertation, read only version B",GIVE,STEAK,Study2,U,158,115,Study,User,-,,Study/JOL,"Study Phase",6670,,,-1,-1,,,,1
5e540b9b25baaf40438073bb,yc9sbvq892,Nick_Dissertation_EX1,1,61,2020-06-02T09:13:10-07:00,6.9668869972229,2,versionA_stim.csv,READVersionB.csv,"Read Version B","Dissertation, read only version B",STRETCH,CLOTH,Study2,U,157,110,Study,User,-,,Study/JOL,"Study Phase",6560,,,-1,-1,,,,1
5e540b9b25baaf40438073bb,yc9sbvq892,Nick_Dissertation_EX1,1,62,2020-06-02T09:13:17-07:00,7.2971460819244,2,versionA_stim.csv,READVersionB.csv,"Read Version B","Dissertation, read only version B",VEHICLE,CHARM,Study2,U,160,104,Study,User,-,,Study/JOL,"Study Phase",6892,,,-1,-1,,,,1
5e540b9b25baaf40438073bb,yc9sbvq892,Nick_Dissertation_EX1,1,63,2020-06-02T09:13:24-07:00,7.0654499530792,2,versionA_stim.csv,READVersionB.csv,"Read Version B","Dissertation, read only version B",FIGHT,BRAWL,Study2,B,135,137,Study,User,-,,Study/JOL,"Study Phase",6656,,,-1,-1,,,,1
5e540b9b25baaf40438073bb,yc9sbvq892,Nick_Dissertation_EX1,1,64,2020-06-02T09:13:31-07:00,6.7009339332581,2,versionA_stim.csv,READVersionB.csv,"Read Version B","Dissertation, read only version B",EARTH,GROUND,Study2,S,144,149,Study,User,-,,Study/JOL,"Study Phase",6292,,,-1,-1,,,,1
5e540b9b25baaf40438073bb,yc9sbvq892,Nick_Dissertation_EX1,1,65,2020-06-02T09:13:38-07:00,6.7422649860382,2,versionA_stim.csv,READVersionB.csv,"Read Version B","Dissertation, read only version B",ROD,REEL,Study2,S,150,114,Study,User,-,,Study/JOL,"Study Phase",6322,,,-1,-1,,,,1
5e540b9b25baaf40438073bb,yc9sbvq892,Nick_Dissertation_EX1,1,66,2020-06-02T09:13:45-07:00,6.9834740161896,2,versionA_stim.csv,READVersionB.csv,"Read Version B","Dissertation, read only version B",GLASS,BREAKABLE,Study2,B,127,168,Study,User,-,,Study/JOL,"Study Phase",6576,,,-1,-1,,,,1
5e540b9b25baaf40438073bb,yc9sbvq892,Nick_Dissertation_EX1,1,67,2020-06-02T09:13:52-07:00,7.404862165451,2,versionA_stim.csv,READVersionB.csv,"Read Version B","Dissertation, read only version B",TANTRUM,TEMPER,Study2,S,154,169,Study,User,-,,Study/JOL,"Study Phase",6995,,,-1,-1,,,,1
5e540b9b25baaf40438073bb,yc9sbvq892,Nick_Dissertation_EX1,1,68,2020-06-02T09:13:59-07:00,6.4998400211334,2,versionA_stim.csv,READVersionB.csv,"Read Version B","Dissertation, read only version B",BAD,VILLAIN,Study2,B,118,118,Study,User,-,,Study/JOL,"Study Phase",6098,,,-1,-1,,,,1
5e540b9b25baaf40438073bb,yc9sbvq892,Nick_Dissertation_EX1,1,69,2020-06-02T09:14:06-07:00,6.9862987995148,2,versionA_stim.csv,READVersionB.csv,"Read Version B","Dissertation, read only version B",CRACKLE,ABLE,Study2,U,162,107,Study,User,-,,Study/JOL,"Study Phase",6580,,,-1,-1,,,,1
5e540b9b25baaf40438073bb,yc9sbvq892,Nick_Dissertation_EX1,1,70,2020-06-02T09:14:13-07:00,6.9954180717468,2,versionA_stim.csv,READVersionB.csv,"Read Version B","Dissertation, read only version B",CAKE,CLOTHES,Study2,U,166,105,Study,User,-,,Study/JOL,"Study Phase",6582,,,-1,-1,,,,1
5e540b9b25baaf40438073bb,yc9sbvq892,Nick_Dissertation_EX1,1,71,2020-06-02T09:14:20-07:00,6.8974919319153,2,versionA_stim.csv,READVersionB.csv,"Read Version B","Dissertation, read only version B",LITTER,TRASH,Study2,F,103,98,Study,User,-,,Study/JOL,"Study Phase",6469,,,-1,-1,,,,1
5e540b9b25baaf40438073bb,yc9sbvq892,Nick_Dissertation_EX1,1,72,2020-06-02T09:14:26-07:00,6.3794541358948,2,versionA_stim.csv,READVersionB.csv,"Read Version B","Dissertation, read only version B",SUN,TAN,Study2,S,155,146,Study,User,-,,Study/JOL,"Study Phase",5955,,,-1,-1,,,,1
5e540b9b25baaf40438073bb,yc9sbvq892,Nick_Dissertation_EX1,1,73,2020-06-02T09:14:33-07:00,6.8077020645142,2,versionA_stim.csv,READVersionB.csv,"Read Version B","Dissertation, read only version B",STAR,ACTRESS,Study2,B,120,142,Study,User,-,,Study/JOL,"Study Phase",6389,,,-1,-1,,,,1
5e540b9b25baaf40438073bb,yc9sbvq892,Nick_Dissertation_EX1,1,74,2020-06-02T09:14:40-07:00,6.7372999191284,2,versionA_stim.csv,READVersionB.csv,"Read Version B","Dissertation, read only version B",FISH,SARDINE,Study2,B,130,174,Study,User,-,,Study/JOL,"Study Phase",6328,,,-1,-1,,,,1
5e540b9b25baaf40438073bb,yc9sbvq892,Nick_Dissertation_EX1,1,75,2020-06-02T09:14:46-07:00,6.9072670936584,2,versionA_stim.csv,READVersionB.csv,"Read Version B","Dissertation, read only version B",MOAT,CLEAR,Study2,U,169,166,Study,User,-,,Study/JOL,"Study Phase",6501,,,-1,-1,,,,1
5e540b9b25baaf40438073bb,yc9sbvq892,Nick_Dissertation_EX1,1,76,2020-06-02T09:14:57-07:00,10.264660835266,2,versionA_stim.csv,READVersionB.csv,"Read Version B","Dissertation, read only version B",FEUD,FIGHT,Study2,F,113,139,Study,User,-,,Study/JOL,"Study Phase",9861,,,-1,-1,,,,1
5e540b9b25baaf40438073bb,yc9sbvq892,Nick_Dissertation_EX1,1,77,2020-06-02T09:15:05-07:00,7.7567429542542,2,versionA_stim.csv,READVersionB.csv,"Read Version B","Dissertation, read only version B",TEMPERATURE,Morning,Study2,U,173,106,Study,User,-,,Study/JOL,"Study Phase",7338,,,-1,-1,,,,1
5e540b9b25baaf40438073bb,yc9sbvq892,Nick_Dissertation_EX1,1,78,2020-06-02T09:15:12-07:00,7.418466091156,2,versionA_stim.csv,READVersionB.csv,"Read Version B","Dissertation, read only version B",MAIN,SCAR,Study2,U,175,128,Study,User,-,,Study/JOL,"Study Phase",6988,,,-1,-1,,,,1
5e540b9b25baaf40438073bb,yc9sbvq892,Nick_Dissertation_EX1,1,79,2020-06-02T09:15:19-07:00,6.6762170791626,2,versionA_stim.csv,READVersionB.csv,"Read Version B","Dissertation, read only version B",SHEARS,SCISSORS,Study2,F,112,97,Study,User,-,,Study/JOL,"Study Phase",6248,,,-1,-1,,,,1
5e540b9b25baaf40438073bb,yc9sbvq892,Nick_Dissertation_EX1,1,80,2020-06-02T09:15:25-07:00,6.6907429695129,2,versionA_stim.csv,READVersionB.csv,"Read Version B","Dissertation, read only version B",ALONE,LONELY,Study2,S,145,176,Study,User,-,,Study/JOL,"Study Phase",6278,,,-1,-1,,,,1
5e540b9b25baaf40438073bb,yc9sbvq892,Nick_Dissertation_EX1,1,81,2020-06-02T09:15:33-07:00,7.3740849494934,2,versionA_stim.csv,READVersionB.csv,"Read Version B","Dissertation, read only version B",THREAD,THIMBLE,Study2,B,121,157,Study,User,-,,Study/JOL,"Study Phase",6958,,,-1,-1,,,,1
5e540b9b25baaf40438073bb,yc9sbvq892,Nick_Dissertation_EX1,1,82,2020-06-02T09:15:40-07:00,7.4182159900665,2,versionA_stim.csv,READVersionB.csv,"Read Version B","Dissertation, read only version B",JUSTICE,MAROON,Study2,U,156,102,Study,User,-,,Study/JOL,"Study Phase",7008,,,-1,-1,,,,1
5e540b9b25baaf40438073bb,yc9sbvq892,Nick_Dissertation_EX1,1,83,2020-06-02T09:15:49-07:00,8.7816050052643,2,versionA_stim.csv,READVersionB.csv,"Read Version B","Dissertation, read only version B",FUZZY,BANG,Study2,U,168,173,Study,User,-,,Study/JOL,"Study Phase",8332,,,-1,-1,,,,1
5e540b9b25baaf40438073bb,yc9sbvq892,Nick_Dissertation_EX1,1,84,2020-06-02T09:15:57-07:00,8.0306639671326,2,versionA_stim.csv,READVersionB.csv,"Read Version B","Dissertation, read only version B",ADJOURN,END,Study2,F,101,123,Study,User,-,,Study/JOL,"Study Phase",7626,,,-1,-1,,,,1
5e540b9b25baaf40438073bb,yc9sbvq892,Nick_Dissertation_EX1,1,85,2020-06-02T09:16:04-07:00,6.9612720012665,2,versionA_stim.csv,READVersionB.csv,"Read Version B","Dissertation, read only version B",BIRD,PENGUIN,Study2,B,119,140,Study,User,-,,Study/JOL,"Study Phase",6550,,,-1,-1,,,,1
5e540b9b25baaf40438073bb,yc9sbvq892,Nick_Dissertation_EX1,1,86,2020-06-02T09:16:10-07:00,6.5406010150909,2,versionA_stim.csv,READVersionB.csv,"Read Version B","Dissertation, read only version B",SLEEP,NAP,Study2,B,134,119,Study,User,-,,Study/JOL,"Study Phase",6116,,,-1,-1,,,,1
5e540b9b25baaf40438073bb,yc9sbvq892,Nick_Dissertation_EX1,1,87,2020-06-02T09:16:18-07:00,7.7878501415253,2,versionA_stim.csv,READVersionB.csv,"Read Version B","Dissertation, read only version B",SPRING,MARCH,BUFFER4,Buffer,179,180,Study,User,-,,Study/JOL,BUFFER2,7365,,,-1,-1,,,,1
5e540b9b25baaf40438073bb,yc9sbvq892,Nick_Dissertation_EX1,1,88,2020-06-02T09:16:25-07:00,6.8955760002136,2,versionA_stim.csv,READVersionB.csv,"Read Version B","Dissertation, read only version B",MONTH,YEAR,BUFFER4,Buffer,177,179,Study,User,-,,Study/JOL,BUFFER2,6483,,,-1,-1,,,,1
5e540b9b25baaf40438073bb,yc9sbvq892,Nick_Dissertation_EX1,1,89,2020-06-02T09:16:34-07:00,9.0215229988098,2,versionA_stim.csv,READVersionB.csv,"Read Version B","Dissertation, read only version B",OCTOBER,SPOOKY,BUFFER4,Buffer,180,177,Study,User,-,,Study/JOL,BUFFER2,7518,,,-1,-1,,,,1
5e540b9b25baaf40438073bb,yc9sbvq892,Nick_Dissertation_EX1,1,90,2020-06-02T09:16:41-07:00,6.6497378349304,2,versionA_stim.csv,READVersionB.csv,"Read Version B","Dissertation, read only version B",TOOL,SHED,BUFFER4,Buffer,178,178,Study,User,-,,Study/JOL,BUFFER2,6235,,,-1,-1,,,,1
5e540b9b25baaf40438073bb,yc9sbvq892,Nick_Dissertation_EX1,1,91,2020-06-02T09:16:48-07:00,7.3876819610596,2,versionA_stim.csv,READVersionB.csv,"Read Version B","Dissertation, read only version B",DAYS,WEAKS,BUFFER4,Buffer,176,181,Study,User,-,,Study/JOL,BUFFER2,6963,,,-1,-1,,,,1
5e540b9b25baaf40438073bb,yc9sbvq892,Nick_Dissertation_EX1,1,92,2020-06-02T09:16:53-07:00,4.9142520427704,2,versionA_stim.csv,READVersionB.csv,"Read Version B","Dissertation, read only version B",,,,,,0,Instruct,User,-,"You have completed this section. Please press Enter.",Filler_Instruction,Instruct2,3502,,,-1,-1,,,,1
5e540b9b25baaf40438073bb,yc9sbvq892,Nick_Dissertation_EX1,1,93,2020-06-02T09:18:54-07:00,120.4724919796,2,versionA_stim.csv,READVersionB.csv,"Read Version B","Dissertation, read only version B",,,,,,0,FreeRecall,120,120,"Please list the 50 US states in alphabetical order. The task will automatically advance to the next screen after two minutes.",,Filler1,120003,"alabama california delaware hawaii indiana iowah kansas kentucky louisiana maine massechusets ",0,13697,115611,0,0,,1
5e540b9b25baaf40438073bb,yc9sbvq892,Nick_Dissertation_EX1,1,94,2020-06-02T09:19:08-07:00,14.010418176651,2,versionA_stim.csv,READVersionB.csv,"Read Version B","Dissertation, read only version B",,,,,,0,Instruct,-,10,"You will now be presented with the first word from each of the previously studied item pairs. Please type the missing word. If you do not know the word, you may guess or press Enter to skip forward to the next pair.",,Instruct3,13600,,,-1,-1,,,,1
5e540b9b25baaf40438073bb,yc9sbvq892,Nick_Dissertation_EX1,1,95,2020-06-02T09:19:23-07:00,15.483930826187,2,versionA_stim.csv,READVersionB.csv,"Read Version B","Dissertation, read only version B",CAKE,CLOTHES,Study2,U,166,105,Test,User,-,,Recall,Recall1,15078,clothes,100,12029,13309,1,1,,1
5e540b9b25baaf40438073bb,yc9sbvq892,Nick_Dissertation_EX1,1,96,2020-06-02T09:19:38-07:00,15.058129072189,2,versionA_stim.csv,READVersionB.csv,"Read Version B","Dissertation, read only version B",DOCUMENT,PAPER,Study2,F,109,126,Test,User,-,,Recall,Recall1,13635,letter,36.363636363636,11470,12290,0,0,,1
5e540b9b25baaf40438073bb,yc9sbvq892,Nick_Dissertation_EX1,1,97,2020-06-02T09:19:43-07:00,5.1871991157532,2,versionA_stim.csv,READVersionB.csv,"Read Version B","Dissertation, read only version B",WRIST,BRACELET,Study2,S,140,147,Test,User,-,,Recall,Recall1,4777,bracelet,100,2174,3961,1,1,,1
5e540b9b25baaf40438073bb,yc9sbvq892,Nick_Dissertation_EX1,1,98,2020-06-02T09:19:47-07:00,3.3712959289551,2,versionA_stim.csv,READVersionB.csv,"Read Version B","Dissertation, read only version B",CHILL,COLD,Study2,F,114,158,Test,User,-,,Recall,Recall1,2957,ice,28.571428571429,1852,2616,0,0,,1
5e540b9b25baaf40438073bb,yc9sbvq892,Nick_Dissertation_EX1,1,99,2020-06-02T09:19:51-07:00,4.8381850719452,2,versionA_stim.csv,READVersionB.csv,"Read Version B","Dissertation, read only version B",MOAT,CLEAR,Study2,U,169,166,Test,User,-,,Recall,Recall1,4426,clear,100,3209,4154,1,1,,1
5e540b9b25baaf40438073bb,yc9sbvq892,Nick_Dissertation_EX1,1,100,2020-06-02T09:19:55-07:00,3.783353805542,2,versionA_stim.csv,READVersionB.csv,"Read Version B","Dissertation, read only version B",INCENSE,SMELL,Study2,F,110,132,Test,User,-,,Recall,Recall1,3380,smell,100,2231,3040,1,1,,1
5e540b9b25baaf40438073bb,yc9sbvq892,Nick_Dissertation_EX1,1,101,2020-06-02T09:20:11-07:00,15.65202999115,2,versionA_stim.csv,READVersionB.csv,"Read Version B","Dissertation, read only version B",CANDLE,WAX,Study2,S,139,162,Test,User,-,,Recall,Recall1,15227,flame,25,14257,14965,0,0,,1
5e540b9b25baaf40438073bb,yc9sbvq892,Nick_Dissertation_EX1,1,102,2020-06-02T09:20:16-07:00,5.2807631492615,2,versionA_stim.csv,READVersionB.csv,"Read Version B","Dissertation, read only version B",DEAD,COFFIN,Study2,B,128,131,Test,User,-,,Recall,Recall1,4867,coffin,100,3579,4525,1,1,,1
5e540b9b25baaf40438073bb,yc9sbvq892,Nick_Dissertation_EX1,1,103,2020-06-02T09:20:19-07:00,3.1067109107971,2,versionA_stim.csv,READVersionB.csv,"Read Version B","Dissertation, read only version B",ADJOURN,END,Study2,F,101,123,Test,User,-,,Recall,Recall1,2694,end,100,2039,2432,1,1,,1
5e540b9b25baaf40438073bb,yc9sbvq892,Nick_Dissertation_EX1,1,104,2020-06-02T09:20:39-07:00,19.82773900032,2,versionA_stim.csv,READVersionB.csv,"Read Version B","Dissertation, read only version B",MAIN,SCAR,Study2,U,175,128,Test,User,-,,Recall,Recall1,19402,scar,100,17745,18602,1,1,,1
5e540b9b25baaf40438073bb,yc9sbvq892,Nick_Dissertation_EX1,1,105,2020-06-02T09:20:42-07:00,2.9873549938202,2,versionA_stim.csv,READVersionB.csv,"Read Version B","Dissertation, read only version B",TRUTH,LIE,Study2,S,148,111,Test,User,-,,Recall,Recall1,2582,lie,100,1939,2331,1,1,,1
5e540b9b25baaf40438073bb,yc9sbvq892,Nick_Dissertation_EX1,1,106,2020-06-02T09:20:47-07:00,4.883691072464,2,versionA_stim.csv,READVersionB.csv,"Read Version B","Dissertation, read only version B",MONEY,BANKER,Study2,B,132,156,Test,User,-,,Recall,Recall1,4461,bank,80,3332,4130,0,1,,1
5e540b9b25baaf40438073bb,yc9sbvq892,Nick_Dissertation_EX1,1,107,2020-06-02T09:20:51-07:00,4.4517729282379,2,versionA_stim.csv,READVersionB.csv,"Read Version B","Dissertation, read only version B",FUZZY,BANG,Study2,U,168,173,Test,User,-,,Recall,Recall1,4042,bang,100,2476,3533,1,1,,1
5e540b9b25baaf40438073bb,yc9sbvq892,Nick_Dissertation_EX1,1,108,2020-06-02T09:21:05-07:00,13.535239934921,2,versionA_stim.csv,READVersionB.csv,"Read Version B","Dissertation, read only version B",TANTRUM,TEMPER,Study2,S,154,169,Test,User,-,,Recall,Recall1,13055,fight,18.181818181818,11938,12815,0,0,,1
5e540b9b25baaf40438073bb,yc9sbvq892,Nick_Dissertation_EX1,1,109,2020-06-02T09:21:07-07:00,1.6222801208496,2,versionA_stim.csv,READVersionB.csv,"Read Version B","Dissertation, read only version B",FRUIT,STRAWBERRY,Study2,B,124,145,Test,User,-,,Recall,Recall1,299,,0,-1,-1,0,0,,1
5e540b9b25baaf40438073bb,yc9sbvq892,Nick_Dissertation_EX1,1,110,2020-06-02T09:21:11-07:00,4.7542819976807,2,versionA_stim.csv,READVersionB.csv,"Read Version B","Dissertation, read only version B",MIRROR,CHILDREN,Study2,U,174,154,Test,User,-,,Recall,Recall1,4347,children,100,1792,3567,1,1,,1
5e540b9b25baaf40438073bb,yc9sbvq892,Nick_Dissertation_EX1,1,111,2020-06-02T09:21:16-07:00,4.722892999649,2,versionA_stim.csv,READVersionB.csv,"Read Version B","Dissertation, read only version B",OWN,HAVE,Study2,S,153,120,Test,User,-,,Recall,Recall1,4310,,0,-1,-1,0,0,,1
5e540b9b25baaf40438073bb,yc9sbvq892,Nick_Dissertation_EX1,1,112,2020-06-02T09:21:22-07:00,6.3115520477295,2,versionA_stim.csv,READVersionB.csv,"Read Version B","Dissertation, read only version B",PLANE,AIRCRAFT,Study2,B,129,121,Test,User,-,,Recall,Recall1,5892,crash,46.153846153846,3915,4845,0,0,,1
5e540b9b25baaf40438073bb,yc9sbvq892,Nick_Dissertation_EX1,1,113,2020-06-02T09:21:25-07:00,2.94935297966,2,versionA_stim.csv,READVersionB.csv,"Read Version B","Dissertation, read only version B",BOTH,OUNCE,Study2,U,172,161,Test,User,-,,Recall,Recall1,2531,,0,-1,-1,0,0,,1
5e540b9b25baaf40438073bb,yc9sbvq892,Nick_Dissertation_EX1,1,114,2020-06-02T09:21:41-07:00,15.463324069977,2,versionA_stim.csv,READVersionB.csv,"Read Version B","Dissertation, read only version B",FURRY,DOG,Study2,F,102,122,Test,User,-,,Recall,Recall1,15027,,0,-1,-1,0,0,,1
5e540b9b25baaf40438073bb,yc9sbvq892,Nick_Dissertation_EX1,1,115,2020-06-02T09:21:47-07:00,6.1286959648132,2,versionA_stim.csv,READVersionB.csv,"Read Version B","Dissertation, read only version B",STAR,ACTRESS,Study2,B,120,142,Test,User,-,,Recall,Recall1,5711,actress,100,3999,5213,1,1,,1
5e540b9b25baaf40438073bb,yc9sbvq892,Nick_Dissertation_EX1,1,116,2020-06-02T09:21:53-07:00,6.3690989017487,2,versionA_stim.csv,READVersionB.csv,"Read Version B","Dissertation, read only version B",POP,BALLOON,Study2,B,123,127,Test,User,-,,Recall,Recall1,5950,fizzy,0,4012,5620,0,0,,1
5e540b9b25baaf40438073bb,yc9sbvq892,Nick_Dissertation_EX1,1,117,2020-06-02T09:21:57-07:00,4.1624550819397,2,versionA_stim.csv,READVersionB.csv,"Read Version B","Dissertation, read only version B",SHEARS,SCISSORS,Study2,F,112,97,Test,User,-,,Recall,Recall1,3745,scissors,100,1974,3505,1,1,,1
5e540b9b25baaf40438073bb,yc9sbvq892,Nick_Dissertation_EX1,1,118,2020-06-02T09:22:05-07:00,7.8927719593048,2,versionA_stim.csv,READVersionB.csv,"Read Version B","Dissertation, read only version B",MAZE,ELECTION,Study2,U,159,135,Test,User,-,,Recall,Recall1,7473,election,100,5278,6908,1,1,,1
5e540b9b25baaf40438073bb,yc9sbvq892,Nick_Dissertation_EX1,1,119,2020-06-02T09:22:10-07:00,5.1277298927307,2,versionA_stim.csv,READVersionB.csv,"Read Version B","Dissertation, read only version B",PHONE,COMMUNICATION,Study2,S,149,117,Test,User,-,,Recall,Recall1,4709,,0,-1,-1,0,0,,1
5e540b9b25baaf40438073bb,yc9sbvq892,Nick_Dissertation_EX1,1,120,2020-06-02T09:22:28-07:00,17.587931156158,2,versionA_stim.csv,READVersionB.csv,"Read Version B","Dissertation, read only version B",CAR,WINDSHIELD,Study2,B,117,165,Test,User,-,,Recall,Recall1,17175,windshield,100,4527,6685,1,1,,1
5e540b9b25baaf40438073bb,yc9sbvq892,Nick_Dissertation_EX1,1,121,2020-06-02T09:22:32-07:00,3.9420268535614,2,versionA_stim.csv,READVersionB.csv,"Read Version B","Dissertation, read only version B",CACTUS,PLANT,Study2,F,98,109,Test,User,-,,Recall,Recall1,3528,plant,100,1724,2724,1,1,,1
5e540b9b25baaf40438073bb,yc9sbvq892,Nick_Dissertation_EX1,1,122,2020-06-02T09:22:46-07:00,14.188454151154,2,versionA_stim.csv,READVersionB.csv,"Read Version B","Dissertation, read only version B",EXTENSION,LONG,Study2,F,96,163,Test,User,-,,Recall,Recall1,13769,end,28.571428571429,12934,13339,0,0,,1
5e540b9b25baaf40438073bb,yc9sbvq892,Nick_Dissertation_EX1,1,123,2020-06-02T09:22:52-07:00,5.6285328865051,2,versionA_stim.csv,READVersionB.csv,"Read Version B","Dissertation, read only version B",NAME,HATE,Study2,U,167,124,Test,User,-,,Recall,Recall1,5209,,0,-1,-1,0,0,,1
5e540b9b25baaf40438073bb,yc9sbvq892,Nick_Dissertation_EX1,1,124,2020-06-02T09:22:56-07:00,4.2668740749359,2,versionA_stim.csv,READVersionB.csv,"Read Version B","Dissertation, read only version B",RAZOR,SHAVE,Study2,S,136,160,Test,User,-,,Recall,Recall1,3856,cut,0,2415,3022,0,0,,1
5e540b9b25baaf40438073bb,yc9sbvq892,Nick_Dissertation_EX1,1,125,2020-06-02T09:23:01-07:00,4.8548889160156,2,versionA_stim.csv,READVersionB.csv,"Read Version B","Dissertation, read only version B",ALONE,LONELY,Study2,S,145,176,Test,User,-,,Recall,Recall1,4420,one,66.666666666667,3168,3753,0,0,,1
5e540b9b25baaf40438073bb,yc9sbvq892,Nick_Dissertation_EX1,1,126,2020-06-02T09:23:12-07:00,10.767414093018,2,versionA_stim.csv,READVersionB.csv,"Read Version B","Dissertation, read only version B",STRETCH,CLOTH,Study2,U,157,110,Test,User,-,,Recall,Recall1,10349,cloth,100,9142,9974,1,1,,1
5e540b9b25baaf40438073bb,yc9sbvq892,Nick_Dissertation_EX1,1,127,2020-06-02T09:23:18-07:00,6.0217430591583,2,versionA_stim.csv,READVersionB.csv,"Read Version B","Dissertation, read only version B",DETECTIVE,MYSTERY,Study2,F,100,101,Test,User,-,,Recall,Recall1,5602,mystery,100,3415,4969,1,1,,1
5e540b9b25baaf40438073bb,yc9sbvq892,Nick_Dissertation_EX1,1,128,2020-06-02T09:23:24-07:00,6.307431936264,2,versionA_stim.csv,READVersionB.csv,"Read Version B","Dissertation, read only version B",BASEBALL,LEAGUE,Study2,B,131,108,Test,User,-,,Recall,Recall1,5890,pitch,0,4413,5324,0,0,,1
5e540b9b25baaf40438073bb,yc9sbvq892,Nick_Dissertation_EX1,1,129,2020-06-02T09:23:30-07:00,5.6245610713959,2,versionA_stim.csv,READVersionB.csv,"Read Version B","Dissertation, read only version B",AFFECTION,LOVE,Study2,F,115,172,Test,User,-,,Recall,Recall1,5203,love,100,4150,4893,1,1,,1
5e540b9b25baaf40438073bb,yc9sbvq892,Nick_Dissertation_EX1,1,130,2020-06-02T09:23:33-07:00,3.2577059268951,2,versionA_stim.csv,READVersionB.csv,"Read Version B","Dissertation, read only version B",MULE,DONKEY,Study2,F,108,125,Test,User,-,,Recall,Recall1,2834,,0,-1,-1,0,0,,1
5e540b9b25baaf40438073bb,yc9sbvq892,Nick_Dissertation_EX1,1,131,2020-06-02T09:23:39-07:00,6.3479790687561,2,versionA_stim.csv,READVersionB.csv,"Read Version B","Dissertation, read only version B",THREAD,THIMBLE,Study2,B,121,157,Test,User,-,,Recall,Recall1,5935,thimble,100,3367,5458,1,1,,1
5e540b9b25baaf40438073bb,yc9sbvq892,Nick_Dissertation_EX1,1,132,2020-06-02T09:23:51-07:00,11.664168834686,2,versionA_stim.csv,READVersionB.csv,"Read Version B","Dissertation, read only version B",FIGHT,BRAWL,Study2,B,135,137,Test,User,-,,Recall,Recall1,11244,brawl,100,9803,10926,1,1,,1
5e540b9b25baaf40438073bb,yc9sbvq892,Nick_Dissertation_EX1,1,133,2020-06-02T09:23:54-07:00,3.5183570384979,2,versionA_stim.csv,READVersionB.csv,"Read Version B","Dissertation, read only version B",VEHICLE,CHARM,Study2,U,160,104,Test,User,-,,Recall,Recall1,3100,charm,100,1860,2737,1,1,,1
5e540b9b25baaf40438073bb,yc9sbvq892,Nick_Dissertation_EX1,1,134,2020-06-02T09:24:01-07:00,6.3027200698853,2,versionA_stim.csv,READVersionB.csv,"Read Version B","Dissertation, read only version B",BIRD,PENGUIN,Study2,B,119,140,Test,User,-,,Recall,Recall1,5896,,0,-1,-1,0,0,,1
5e540b9b25baaf40438073bb,yc9sbvq892,Nick_Dissertation_EX1,1,135,2020-06-02T09:24:09-07:00,8.3454558849335,2,versionA_stim.csv,READVersionB.csv,"Read Version B","Dissertation, read only version B",GLASS,BREAKABLE,Study2,B,127,168,Test,User,-,,Recall,Recall1,7926,,0,-1,-1,0,0,,1
5e540b9b25baaf40438073bb,yc9sbvq892,Nick_Dissertation_EX1,1,136,2020-06-02T09:24:15-07:00,6.0261220932007,2,versionA_stim.csv,READVersionB.csv,"Read Version B","Dissertation, read only version B",FLEA,TICK,Study2,S,151,138,Test,User,-,,Recall,Recall1,5587,tic,85.714285714286,4146,4583,0,1,,1
5e540b9b25baaf40438073bb,yc9sbvq892,Nick_Dissertation_EX1,1,137,2020-06-02T09:24:22-07:00,6.9910709857941,2,versionA_stim.csv,READVersionB.csv,"Read Version B","Dissertation, read only version B",FEUD,FIGHT,Study2,F,113,139,Test,User,-,,Recall,Recall1,6567,war,0,5677,6046,0,0,,1
5e540b9b25baaf40438073bb,yc9sbvq892,Nick_Dissertation_EX1,1,138,2020-06-02T09:24:25-07:00,2.7927460670471,2,versionA_stim.csv,READVersionB.csv,"Read Version B","Dissertation, read only version B",ROD,REEL,Study2,S,150,114,Test,User,-,,Recall,Recall1,2362,reel,100,1594,2067,1,1,,1
5e540b9b25baaf40438073bb,yc9sbvq892,Nick_Dissertation_EX1,1,139,2020-06-02T09:24:29-07:00,4.2405648231506,2,versionA_stim.csv,READVersionB.csv,"Read Version B","Dissertation, read only version B",SAFETY,SEATBELT,Study2,S,147,99,Test,User,-,,Recall,Recall1,3821,third,15.384615384615,2817,3480,0,0,,1
5e540b9b25baaf40438073bb,yc9sbvq892,Nick_Dissertation_EX1,1,140,2020-06-02T09:24:34-07:00,4.7958991527557,2,versionA_stim.csv,READVersionB.csv,"Read Version B","Dissertation, read only version B",TURN,FLIP,Study2,B,116,130,Test,User,-,,Recall,Recall1,4384,,0,-1,-1,0,0,,1
5e540b9b25baaf40438073bb,yc9sbvq892,Nick_Dissertation_EX1,1,141,2020-06-02T09:24:38-07:00,3.5264949798584,2,versionA_stim.csv,READVersionB.csv,"Read Version B","Dissertation, read only version B",SUN,TAN,Study2,S,155,146,Test,User,-,,Recall,Recall1,3101,,0,-1,-1,0,0,,1
5e540b9b25baaf40438073bb,yc9sbvq892,Nick_Dissertation_EX1,1,142,2020-06-02T09:24:42-07:00,4.5532438755035,2,versionA_stim.csv,READVersionB.csv,"Read Version B","Dissertation, read only version B",ELEMENT,CARBON,Study2,S,141,113,Test,User,-,,Recall,Recall1,4138,carbon,100,1884,3368,1,1,,1
5e540b9b25baaf40438073bb,yc9sbvq892,Nick_Dissertation_EX1,1,143,2020-06-02T09:25:01-07:00,18.993708133698,2,versionA_stim.csv,READVersionB.csv,"Read Version B","Dissertation, read only version B",JUSTICE,MAROON,Study2,U,156,102,Test,User,-,,Recall,Recall1,18580,ace,22.222222222222,17791,18161,0,0,,1
5e540b9b25baaf40438073bb,yc9sbvq892,Nick_Dissertation_EX1,1,144,2020-06-02T09:25:05-07:00,4.1990449428558,2,versionA_stim.csv,READVersionB.csv,"Read Version B","Dissertation, read only version B",GONE,AWAY,Study2,S,142,153,Test,User,-,,Recall,Recall1,3787,,0,-1,-1,0,0,,1
5e540b9b25baaf40438073bb,yc9sbvq892,Nick_Dissertation_EX1,1,145,2020-06-02T09:25:10-07:00,4.3883531093597,2,versionA_stim.csv,READVersionB.csv,"Read Version B","Dissertation, read only version B",EARTH,GROUND,Study2,S,144,149,Test,User,-,,Recall,Recall1,3977,ground,100,2421,3512,1,1,,1
5e540b9b25baaf40438073bb,yc9sbvq892,Nick_Dissertation_EX1,1,146,2020-06-02T09:25:18-07:00,8.1322448253632,2,versionA_stim.csv,READVersionB.csv,"Read Version B","Dissertation, read only version B",WATER,DRINK,Study2,S,143,152,Test,User,-,,Recall,Recall1,7715,,0,-1,-1,0,0,,1
5e540b9b25baaf40438073bb,yc9sbvq892,Nick_Dissertation_EX1,1,147,2020-06-02T09:25:24-07:00,5.8568670749664,2,versionA_stim.csv,READVersionB.csv,"Read Version B","Dissertation, read only version B",SCALP,HEAD,Study2,F,105,100,Test,User,-,,Recall,Recall1,5414,,0,-1,-1,0,0,,1
5e540b9b25baaf40438073bb,yc9sbvq892,Nick_Dissertation_EX1,1,148,2020-06-02T09:25:28-07:00,4.8067049980164,2,versionA_stim.csv,READVersionB.csv,"Read Version B","Dissertation, read only version B",DRY,WET,Study2,S,146,148,Test,User,-,,Recall,Recall1,4377,,0,-1,-1,0,0,,1
5e540b9b25baaf40438073bb,yc9sbvq892,Nick_Dissertation_EX1,1,149,2020-06-02T09:25:31-07:00,2.4463450908661,2,versionA_stim.csv,READVersionB.csv,"Read Version B","Dissertation, read only version B",CHERRY,RED,Study2,F,104,143,Test,User,-,,Recall,Recall1,2024,red,100,1482,1818,1,1,,1
5e540b9b25baaf40438073bb,yc9sbvq892,Nick_Dissertation_EX1,1,150,2020-06-02T09:25:55-07:00,24.300156831741,2,versionA_stim.csv,READVersionB.csv,"Read Version B","Dissertation, read only version B",CRACKLE,ABLE,Study2,U,162,107,Test,User,-,,Recall,Recall1,23878,pickle,40,14257,17992,0,0,,1
5e540b9b25baaf40438073bb,yc9sbvq892,Nick_Dissertation_EX1,1,151,2020-06-02T09:26:00-07:00,4.3472020626068,2,versionA_stim.csv,READVersionB.csv,"Read Version B","Dissertation, read only version B",LOUD,NOISE,Study2,S,152,159,Test,User,-,,Recall,Recall1,3932,,0,-1,-1,0,0,,1
5e540b9b25baaf40438073bb,yc9sbvq892,Nick_Dissertation_EX1,1,152,2020-06-02T09:26:05-07:00,5.0620279312134,2,versionA_stim.csv,READVersionB.csv,"Read Version B","Dissertation, read only version B",BEST,FAVORITE,Study2,B,125,141,Test,User,-,,Recall,Recall1,3641,,0,-1,-1,0,0,,1
5e540b9b25baaf40438073bb,yc9sbvq892,Nick_Dissertation_EX1,1,153,2020-06-02T09:26:12-07:00,7.8079171180725,2,versionA_stim.csv,READVersionB.csv,"Read Version B","Dissertation, read only version B",SHOELACE,TIE,Study2,F,99,155,Test,User,-,,Recall,Recall1,7385,tie,100,6179,6673,1,1,,1
5e540b9b25baaf40438073bb,yc9sbvq892,Nick_Dissertation_EX1,1,154,2020-06-02T09:26:23-07:00,10.479798078537,2,versionA_stim.csv,READVersionB.csv,"Read Version B","Dissertation, read only version B",KEYS,JOKE,Study2,U,165,167,Test,User,-,,Recall,Recall1,10059,joke,100,7986,8695,1,1,,1
5e540b9b25baaf40438073bb,yc9sbvq892,Nick_Dissertation_EX1,1,155,2020-06-02T09:26:28-07:00,4.8700129985809,2,versionA_stim.csv,READVersionB.csv,"Read Version B","Dissertation, read only version B",LEASE,TOIL,Study2,U,170,133,Test,User,-,,Recall,Recall1,4387,lend,25,3529,4160,0,0,,1
5e540b9b25baaf40438073bb,yc9sbvq892,Nick_Dissertation_EX1,1,156,2020-06-02T09:26:31-07:00,3.1461069583893,2,versionA_stim.csv,READVersionB.csv,"Read Version B","Dissertation, read only version B",GIVE,STEAK,Study2,U,158,115,Test,User,-,,Recall,Recall1,2726,,0,-1,-1,0,0,,1
5e540b9b25baaf40438073bb,yc9sbvq892,Nick_Dissertation_EX1,1,157,2020-06-02T09:26:36-07:00,4.8130528926849,2,versionA_stim.csv,READVersionB.csv,"Read Version B","Dissertation, read only version B",CHOP,CUT,Study2,F,107,103,Test,User,-,,Recall,Recall1,4393,cut,100,2838,3287,1,1,,1
5e540b9b25baaf40438073bb,yc9sbvq892,Nick_Dissertation_EX1,1,158,2020-06-02T09:26:41-07:00,4.9504849910736,2,versionA_stim.csv,READVersionB.csv,"Read Version B","Dissertation, read only version B",BAD,VILLAIN,Study2,B,118,118,Test,User,-,,Recall,Recall1,4524,,0,-1,-1,0,0,,1
5e540b9b25baaf40438073bb,yc9sbvq892,Nick_Dissertation_EX1,1,159,2020-06-02T09:26:47-07:00,6.418398141861,2,versionA_stim.csv,READVersionB.csv,"Read Version B","Dissertation, read only version B",MASON,JAR,Study2,S,138,175,Test,User,-,,Recall,Recall1,4993,jar,100,4225,4732,1,1,,1
5e540b9b25baaf40438073bb,yc9sbvq892,Nick_Dissertation_EX1,1,160,2020-06-02T09:27:01-07:00,13.940575838089,2,versionA_stim.csv,READVersionB.csv,"Read Version B","Dissertation, read only version B",TEMPERATURE,Morning,Study2,U,173,106,Test,User,-,,Recall,Recall1,13520,morning,100,9298,11161,1,1,,1
5e540b9b25baaf40438073bb,yc9sbvq892,Nick_Dissertation_EX1,1,161,2020-06-02T09:27:06-07:00,4.749253988266,2,versionA_stim.csv,READVersionB.csv,"Read Version B","Dissertation, read only version B",DINE,EAT,Study2,F,111,136,Test,User,-,,Recall,Recall1,4327,eat,100,2232,2648,1,1,,1
5e540b9b25baaf40438073bb,yc9sbvq892,Nick_Dissertation_EX1,1,162,2020-06-02T09:27:17-07:00,11.656497001648,2,versionA_stim.csv,READVersionB.csv,"Read Version B","Dissertation, read only version B",DRIVER,CAR,Study2,F,106,134,Test,User,-,,Recall,Recall1,11238,,0,-1,-1,0,0,,1
5e540b9b25baaf40438073bb,yc9sbvq892,Nick_Dissertation_EX1,1,163,2020-06-02T09:27:25-07:00,7.6169540882111,2,versionA_stim.csv,READVersionB.csv,"Read Version B","Dissertation, read only version B",LITTER,TRASH,Study2,F,103,98,Test,User,-,,Recall,Recall1,7192,trash,100,5752,6525,1,1,,1
5e540b9b25baaf40438073bb,yc9sbvq892,Nick_Dissertation_EX1,1,164,2020-06-02T09:27:31-07:00,6.4215469360352,2,versionA_stim.csv,READVersionB.csv,"Read Version B","Dissertation, read only version B",RIGHTS,EQUAL,Study2,S,137,112,Test,User,-,,Recall,Recall1,6004,,0,-1,-1,0,0,,1
5e540b9b25baaf40438073bb,yc9sbvq892,Nick_Dissertation_EX1,1,165,2020-06-02T09:27:39-07:00,7.9781501293182,2,versionA_stim.csv,READVersionB.csv,"Read Version B","Dissertation, read only version B",CLUE,GAME,Study2,F,97,129,Test,User,-,,Recall,Recall1,7558,game,100,4064,4843,1,1,,1
5e540b9b25baaf40438073bb,yc9sbvq892,Nick_Dissertation_EX1,1,166,2020-06-02T09:27:44-07:00,4.2347798347473,2,versionA_stim.csv,READVersionB.csv,"Read Version B","Dissertation, read only version B",CAT,PANTHER,Study2,B,126,151,Test,User,-,,Recall,Recall1,3814,,0,-1,-1,0,0,,1
5e540b9b25baaf40438073bb,yc9sbvq892,Nick_Dissertation_EX1,1,167,2020-06-02T09:27:47-07:00,3.643522977829,2,versionA_stim.csv,READVersionB.csv,"Read Version B","Dissertation, read only version B",LISTEN,FICTION,Study2,U,164,164,Test,User,-,,Recall,Recall1,3226,,0,-1,-1,0,0,,1
5e540b9b25baaf40438073bb,yc9sbvq892,Nick_Dissertation_EX1,1,168,2020-06-02T09:27:53-07:00,6.0890321731567,2,versionA_stim.csv,READVersionB.csv,"Read Version B","Dissertation, read only version B",EVEN,REVENGE,Study2,B,122,171,Test,User,-,,Recall,Recall1,5658,,0,-1,-1,0,0,,1
5e540b9b25baaf40438073bb,yc9sbvq892,Nick_Dissertation_EX1,1,169,2020-06-02T09:28:06-07:00,12.55757188797,2,versionA_stim.csv,READVersionB.csv,"Read Version B","Dissertation, read only version B",HONEST,TRUTHFUL,Study2,B,133,116,Test,User,-,,Recall,Recall1,12126,truth,76.923076923077,10525,11683,0,1,,1
5e540b9b25baaf40438073bb,yc9sbvq892,Nick_Dissertation_EX1,1,170,2020-06-02T09:28:11-07:00,5.015939950943,2,versionA_stim.csv,READVersionB.csv,"Read Version B","Dissertation, read only version B",Shell,SHAKE,Study2,U,163,150,Test,User,-,,Recall,Recall1,3597,shake,100,2087,2963,1,1,,1
5e540b9b25baaf40438073bb,yc9sbvq892,Nick_Dissertation_EX1,1,171,2020-06-02T09:28:17-07:00,6.2146902084351,2,versionA_stim.csv,READVersionB.csv,"Read Version B","Dissertation, read only version B",LOAN,SIGN,Study2,U,171,144,Test,User,-,,Recall,Recall1,5790,,0,-1,-1,0,0,,1
5e540b9b25baaf40438073bb,yc9sbvq892,Nick_Dissertation_EX1,1,172,2020-06-02T09:28:24-07:00,6.9926009178162,2,versionA_stim.csv,READVersionB.csv,"Read Version B","Dissertation, read only version B",FISH,SARDINE,Study2,B,130,174,Test,User,-,,Recall,Recall1,6572,,0,-1,-1,0,0,,1
5e540b9b25baaf40438073bb,yc9sbvq892,Nick_Dissertation_EX1,1,173,2020-06-02T09:28:30-07:00,5.5527858734131,2,versionA_stim.csv,READVersionB.csv,"Read Version B","Dissertation, read only version B",SLEEP,NAP,Study2,B,134,119,Test,User,-,,Recall,Recall1,5129,,0,-1,-1,0,0,,1
5e540b9b25baaf40438073bb,yc9sbvq892,Nick_Dissertation_EX1,1,174,2020-06-02T09:28:40-07:00,10.047329187393,2,versionA_stim.csv,READVersionB.csv,"Read Version B","Dissertation, read only version B",MEAT,OBTAIN,Study2,U,161,170,Test,User,-,,Recall,Recall1,9624,obtain,100,5638,6997,1,1,,1
5e540b9b25baaf40438073bb,yc9sbvq892,Nick_Dissertation_EX1,1,175,2020-06-02T09:28:51-07:00,11.545941829681,2,versionA_stim.csv,READVersionB.csv,"Read Version B","Dissertation, read only version B",,,,,,0,Instruct,-,10,"You will now be presented with a new set of word pairs. Please study each pair. Remember that your memory will be tested! When finished, press Enter to move to the next pair.",Initial_Instruct,Instruct4,11125,,,-1,-1,,,,1
5e540b9b25baaf40438073bb,yc9sbvq892,Nick_Dissertation_EX1,1,176,2020-06-02T09:28:58-07:00,6.5543169975281,2,versionA_stim.csv,READVersionB.csv,"Read Version B","Dissertation, read only version B",BASEBALL,CATCHER,BUFFER1,Buffer,2,6,Study,User,-,,Study/JOL,BUFFER3,6083,,,-1,-1,,,,1
5e540b9b25baaf40438073bb,yc9sbvq892,Nick_Dissertation_EX1,1,177,2020-06-02T09:29:03-07:00,5.5375080108643,2,versionA_stim.csv,READVersionB.csv,"Read Version B","Dissertation, read only version B",TREES,GREEN,BUFFER1,Buffer,1,3,Study,User,-,,Study/JOL,BUFFER3,4079,,,-1,-1,,,,1
5e540b9b25baaf40438073bb,yc9sbvq892,Nick_Dissertation_EX1,1,178,2020-06-02T09:29:09-07:00,5.1891939640045,2,versionA_stim.csv,READVersionB.csv,"Read Version B","Dissertation, read only version B",SCARE,HIDE,BUFFER1,Buffer,4,2,Study,User,-,,Study/JOL,BUFFER3,4774,,,-1,-1,,,,1
5e540b9b25baaf40438073bb,yc9sbvq892,Nick_Dissertation_EX1,1,179,2020-06-02T09:29:14-07:00,5.1551380157471,2,versionA_stim.csv,READVersionB.csv,"Read Version B","Dissertation, read only version B",PEANUT,BUTTER,BUFFER1,Buffer,3,5,Study,User,-,,Study/JOL,BUFFER3,4733,,,-1,-1,,,,1
5e540b9b25baaf40438073bb,yc9sbvq892,Nick_Dissertation_EX1,1,180,2020-06-02T09:29:18-07:00,4.2528381347656,2,versionA_stim.csv,READVersionB.csv,"Read Version B","Dissertation, read only version B",SPACE,JAM,BUFFER1,Buffer,5,4,Study,User,-,,Study/JOL,BUFFER3,3826,,,-1,-1,,,,1
5e540b9b25baaf40438073bb,yc9sbvq892,Nick_Dissertation_EX1,1,181,2020-06-02T09:29:24-07:00,5.6091539859772,2,versionA_stim.csv,READVersionB.csv,"Read Version B","Dissertation, read only version B",SWAN,BIRD,Study1,F,14,53,Study,User,-,,Study/JOL,"Study Phase2",5185,,,-1,-1,,,,1
5e540b9b25baaf40438073bb,yc9sbvq892,Nick_Dissertation_EX1,1,182,2020-06-02T09:29:28-07:00,4.8250758647919,2,versionA_stim.csv,READVersionB.csv,"Read Version B","Dissertation, read only version B",WAY,OUT,Study1,F,16,35,Study,User,-,,Study/JOL,"Study Phase2",4398,,,-1,-1,,,,1
5e540b9b25baaf40438073bb,yc9sbvq892,Nick_Dissertation_EX1,1,183,2020-06-02T09:29:38-07:00,10.041835069656,2,versionA_stim.csv,READVersionB.csv,"Read Version B","Dissertation, read only version B",VALLEY,ADD,Study1,U,82,23,Study,User,-,,Study/JOL,"Study Phase2",9610,,,-1,-1,,,,1
5e540b9b25baaf40438073bb,yc9sbvq892,Nick_Dissertation_EX1,1,184,2020-06-02T09:29:43-07:00,4.2195479869843,2,versionA_stim.csv,READVersionB.csv,"Read Version B","Dissertation, read only version B",HONEY,BEE,Study1,S,63,82,Study,User,-,,Study/JOL,"Study Phase2",3804,,,-1,-1,,,,1
5e540b9b25baaf40438073bb,yc9sbvq892,Nick_Dissertation_EX1,1,185,2020-06-02T09:29:47-07:00,4.3753390312195,2,versionA_stim.csv,READVersionB.csv,"Read Version B","Dissertation, read only version B",WORK,CHORE,Study1,B,39,44,Study,User,-,,Study/JOL,"Study Phase2",3955,,,-1,-1,,,,1
5e540b9b25baaf40438073bb,yc9sbvq892,Nick_Dissertation_EX1,1,186,2020-06-02T09:29:52-07:00,4.5234940052032,2,versionA_stim.csv,READVersionB.csv,"Read Version B","Dissertation, read only version B",WAGE,MONEY,Study1,F,8,12,Study,User,-,,Study/JOL,"Study Phase2",4103,,,-1,-1,,,,1
5e540b9b25baaf40438073bb,yc9sbvq892,Nick_Dissertation_EX1,1,187,2020-06-02T09:29:56-07:00,4.7945420742035,2,versionA_stim.csv,READVersionB.csv,"Read Version B","Dissertation, read only version B",EDITOR,NEWS,Study1,F,10,30,Study,User,-,,Study/JOL,"Study Phase2",4362,,,-1,-1,,,,1
5e540b9b25baaf40438073bb,yc9sbvq892,Nick_Dissertation_EX1,1,188,2020-06-02T09:30:00-07:00,3.7761240005493,2,versionA_stim.csv,READVersionB.csv,"Read Version B","Dissertation, read only version B",DARK,CAVE,Study1,B,28,32,Study,User,-,,Study/JOL,"Study Phase2",3360,,,-1,-1,,,,1
5e540b9b25baaf40438073bb,yc9sbvq892,Nick_Dissertation_EX1,1,189,2020-06-02T09:30:05-07:00,4.5205609798431,2,versionA_stim.csv,READVersionB.csv,"Read Version B","Dissertation, read only version B",SHOE,FOOT,Study1,S,60,57,Study,User,-,,Study/JOL,"Study Phase2",4092,,,-1,-1,,,,1
5e540b9b25baaf40438073bb,yc9sbvq892,Nick_Dissertation_EX1,1,190,2020-06-02T09:30:09-07:00,3.8542768955231,2,versionA_stim.csv,READVersionB.csv,"Read Version B","Dissertation, read only version B",DRINK,SIP,Study1,B,27,45,Study,User,-,,Study/JOL,"Study Phase2",3442,,,-1,-1,,,,1
5e540b9b25baaf40438073bb,yc9sbvq892,Nick_Dissertation_EX1,1,191,2020-06-02T09:30:13-07:00,4.2884790897369,2,versionA_stim.csv,READVersionB.csv,"Read Version B","Dissertation, read only version B",DIGESTION,STOMACH,Study1,F,7,29,Study,User,-,,Study/JOL,"Study Phase2",3865,,,-1,-1,,,,1
5e540b9b25baaf40438073bb,yc9sbvq892,Nick_Dissertation_EX1,1,192,2020-06-02T09:30:17-07:00,4.2787699699402,2,versionA_stim.csv,READVersionB.csv,"Read Version B","Dissertation, read only version B",SENTENCE,WORD,Study1,B,31,79,Study,User,-,,Study/JOL,"Study Phase2",3857,,,-1,-1,,,,1
5e540b9b25baaf40438073bb,yc9sbvq892,Nick_Dissertation_EX1,1,193,2020-06-02T09:30:22-07:00,4.4995460510254,2,versionA_stim.csv,READVersionB.csv,"Read Version B","Dissertation, read only version B",PARK,HUNGRY,Study1,U,68,37,Study,User,-,,Study/JOL,"Study Phase2",4065,,,-1,-1,,,,1
5e540b9b25baaf40438073bb,yc9sbvq892,Nick_Dissertation_EX1,1,194,2020-06-02T09:30:27-07:00,5.0063960552216,2,versionA_stim.csv,READVersionB.csv,"Read Version B","Dissertation, read only version B",ORCHID,FLOWER,Study1,F,24,11,Study,User,-,,Study/JOL,"Study Phase2",4589,,,-1,-1,,,,1
5e540b9b25baaf40438073bb,yc9sbvq892,Nick_Dissertation_EX1,1,195,2020-06-02T09:30:31-07:00,3.8950929641724,2,versionA_stim.csv,READVersionB.csv,"Read Version B","Dissertation, read only version B",TRIAL,JURY,Study1,S,50,59,Study,User,-,,Study/JOL,"Study Phase2",3449,,,-1,-1,,,,1
5e540b9b25baaf40438073bb,yc9sbvq892,Nick_Dissertation_EX1,1,196,2020-06-02T09:30:35-07:00,4.8322639465332,2,versionA_stim.csv,READVersionB.csv,"Read Version B","Dissertation, read only version B",DISCUSSION,TALK,Study1,F,21,85,Study,User,-,,Study/JOL,"Study Phase2",4410,,,-1,-1,,,,1
5e540b9b25baaf40438073bb,yc9sbvq892,Nick_Dissertation_EX1,1,197,2020-06-02T09:30:41-07:00,5.2195980548859,2,versionA_stim.csv,READVersionB.csv,"Read Version B","Dissertation, read only version B",CIRCLE,ROUND,Study1,S,65,24,Study,User,-,,Study/JOL,"Study Phase2",3712,,,-1,-1,,,,1
5e540b9b25baaf40438073bb,yc9sbvq892,Nick_Dissertation_EX1,1,198,2020-06-02T09:30:46-07:00,5.5552039146423,2,versionA_stim.csv,READVersionB.csv,"Read Version B","Dissertation, read only version B",DEATH,BUSINESS,Study1,U,72,72,Study,User,-,,Study/JOL,"Study Phase2",5131,,,-1,-1,,,,1
5e540b9b25baaf40438073bb,yc9sbvq892,Nick_Dissertation_EX1,1,199,2020-06-02T09:30:51-07:00,4.6180000305176,2,versionA_stim.csv,READVersionB.csv,"Read Version B","Dissertation, read only version B",BUG,WASP,Study1,B,32,51,Study,User,-,,Study/JOL,"Study Phase2",4196,,,-1,-1,,,,1
5e540b9b25baaf40438073bb,yc9sbvq892,Nick_Dissertation_EX1,1,200,2020-06-02T09:30:55-07:00,4.2826869487762,2,versionA_stim.csv,READVersionB.csv,"Read Version B","Dissertation, read only version B",BATHROOM,TOILET,Study1,S,58,66,Study,User,-,,Study/JOL,"Study Phase2",3870,,,-1,-1,,,,1
5e540b9b25baaf40438073bb,yc9sbvq892,Nick_Dissertation_EX1,1,201,2020-06-02T09:30:59-07:00,3.4805619716644,2,versionA_stim.csv,READVersionB.csv,"Read Version B","Dissertation, read only version B",FULL,ENOUGH,Study1,B,26,7,Study,User,-,,Study/JOL,"Study Phase2",3063,,,-1,-1,,,,1
5e540b9b25baaf40438073bb,yc9sbvq892,Nick_Dissertation_EX1,1,202,2020-06-02T09:31:03-07:00,4.4669940471649,2,versionA_stim.csv,READVersionB.csv,"Read Version B","Dissertation, read only version B",LIFT,WOMAN,Study1,U,69,20,Study,User,-,,Study/JOL,"Study Phase2",4036,,,-1,-1,,,,1
5e540b9b25baaf40438073bb,yc9sbvq892,Nick_Dissertation_EX1,1,203,2020-06-02T09:31:07-07:00,4.200227022171,2,versionA_stim.csv,READVersionB.csv,"Read Version B","Dissertation, read only version B",PAW,DOG,Study1,F,15,46,Study,User,-,,Study/JOL,"Study Phase2",3761,,,-1,-1,,,,1
5e540b9b25baaf40438073bb,yc9sbvq892,Nick_Dissertation_EX1,1,204,2020-06-02T09:31:15-07:00,7.7875139713287,2,versionA_stim.csv,READVersionB.csv,"Read Version B","Dissertation, read only version B",BALL,RACKET,Study1,B,38,61,Study,User,-,,Study/JOL,"Study Phase2",7362,,,-1,-1,,,,1
5e540b9b25baaf40438073bb,yc9sbvq892,Nick_Dissertation_EX1,1,205,2020-06-02T09:31:19-07:00,4.0558869838715,2,versionA_stim.csv,READVersionB.csv,"Read Version B","Dissertation, read only version B",SMELL,STENCH,Study1,B,42,71,Study,User,-,,Study/JOL,"Study Phase2",3638,,,-1,-1,,,,1
5e540b9b25baaf40438073bb,yc9sbvq892,Nick_Dissertation_EX1,1,206,2020-06-02T09:31:24-07:00,4.6200571060181,2,versionA_stim.csv,READVersionB.csv,"Read Version B","Dissertation, read only version B",BABY,CHILD,Study1,S,64,67,Study,User,-,,Study/JOL,"Study Phase2",4172,,,-1,-1,,,,1
5e540b9b25baaf40438073bb,yc9sbvq892,Nick_Dissertation_EX1,1,207,2020-06-02T09:31:28-07:00,4.551276922226,2,versionA_stim.csv,READVersionB.csv,"Read Version B","Dissertation, read only version B",FIX,HAND,Study1,U,75,77,Study,User,-,,Study/JOL,"Study Phase2",4121,,,-1,-1,,,,1
5e540b9b25baaf40438073bb,yc9sbvq892,Nick_Dissertation_EX1,1,208,2020-06-02T09:31:33-07:00,4.870521068573,2,versionA_stim.csv,READVersionB.csv,"Read Version B","Dissertation, read only version B",BITTER,COLD,Study1,F,12,64,Study,User,-,,Study/JOL,"Study Phase2",4443,,,-1,-1,,,,1
5e540b9b25baaf40438073bb,yc9sbvq892,Nick_Dissertation_EX1,1,209,2020-06-02T09:31:37-07:00,4.1639888286591,2,versionA_stim.csv,READVersionB.csv,"Read Version B","Dissertation, read only version B",CASH,WOULD,Study1,U,83,63,Study,User,-,,Study/JOL,"Study Phase2",3742,,,-1,-1,,,,1
5e540b9b25baaf40438073bb,yc9sbvq892,Nick_Dissertation_EX1,1,210,2020-06-02T09:31:42-07:00,4.4080741405487,2,versionA_stim.csv,READVersionB.csv,"Read Version B","Dissertation, read only version B",DUMP,WASTE,Study1,S,49,76,Study,User,-,,Study/JOL,"Study Phase2",3985,,,-1,-1,,,,1
5e540b9b25baaf40438073bb,yc9sbvq892,Nick_Dissertation_EX1,1,211,2020-06-02T09:31:46-07:00,3.8879818916321,2,versionA_stim.csv,READVersionB.csv,"Read Version B","Dissertation, read only version B",HOT,CHILI,Study1,B,37,21,Study,User,-,,Study/JOL,"Study Phase2",3429,,,-1,-1,,,,1
5e540b9b25baaf40438073bb,yc9sbvq892,Nick_Dissertation_EX1,1,212,2020-06-02T09:31:50-07:00,4.1870629787445,2,versionA_stim.csv,READVersionB.csv,"Read Version B","Dissertation, read only version B",LETTUCE,SALAD,Study1,S,59,49,Study,User,-,,Study/JOL,"Study Phase2",3764,,,-1,-1,,,,1
5e540b9b25baaf40438073bb,yc9sbvq892,Nick_Dissertation_EX1,1,213,2020-06-02T09:31:54-07:00,4.4739789962769,2,versionA_stim.csv,READVersionB.csv,"Read Version B","Dissertation, read only version B",MACHINE,POSITION,Study1,U,76,33,Study,User,-,,Study/JOL,"Study Phase2",4043,,,-1,-1,,,,1
5e540b9b25baaf40438073bb,yc9sbvq892,Nick_Dissertation_EX1,1,214,2020-06-02T09:31:59-07:00,4.5792970657349,2,versionA_stim.csv,READVersionB.csv,"Read Version B","Dissertation, read only version B",HIDE,SICK,Study1,U,84,38,Study,User,-,,Study/JOL,"Study Phase2",4150,,,-1,-1,,,,1
5e540b9b25baaf40438073bb,yc9sbvq892,Nick_Dissertation_EX1,1,215,2020-06-02T09:32:04-07:00,4.9657609462738,2,versionA_stim.csv,READVersionB.csv,"Read Version B","Dissertation, read only version B",FIRE,BLAZE,Study1,B,45,74,Study,User,-,,Study/JOL,"Study Phase2",4548,,,-1,-1,,,,1
5e540b9b25baaf40438073bb,yc9sbvq892,Nick_Dissertation_EX1,1,216,2020-06-02T09:32:08-07:00,3.9548230171204,2,versionA_stim.csv,READVersionB.csv,"Read Version B","Dissertation, read only version B",WINE,CHEESE,Study1,S,57,34,Study,User,-,,Study/JOL,"Study Phase2",3526,,,-1,-1,,,,1
5e540b9b25baaf40438073bb,yc9sbvq892,Nick_Dissertation_EX1,1,217,2020-06-02T09:32:12-07:00,4.4143080711365,2,versionA_stim.csv,READVersionB.csv,"Read Version B","Dissertation, read only version B",CLOTHES,ATTIRE,Study1,B,43,9,Study,User,-,,Study/JOL,"Study Phase2",3983,,,-1,-1,,,,1
5e540b9b25baaf40438073bb,yc9sbvq892,Nick_Dissertation_EX1,1,218,2020-06-02T09:32:16-07:00,3.8687689304352,2,versionA_stim.csv,READVersionB.csv,"Read Version B","Dissertation, read only version B",DUE,ASSIGNMENT,Study1,S,46,68,Study,User,-,,Study/JOL,"Study Phase2",3451,,,-1,-1,,,,1
5e540b9b25baaf40438073bb,yc9sbvq892,Nick_Dissertation_EX1,1,219,2020-06-02T09:32:21-07:00,5.4602460861206,2,versionA_stim.csv,READVersionB.csv,"Read Version B","Dissertation, read only version B",HEIGHT,GROWTH,Study1,B,30,70,Study,User,-,,Study/JOL,"Study Phase2",5022,,,-1,-1,,,,1
5e540b9b25baaf40438073bb,yc9sbvq892,Nick_Dissertation_EX1,1,220,2020-06-02T09:32:27-07:00,5.1224930286407,2,versionA_stim.csv,READVersionB.csv,"Read Version B","Dissertation, read only version B",TUNA,FISH,Study1,F,25,47,Study,User,-,,Study/JOL,"Study Phase2",4679,,,-1,-1,,,,1
5e540b9b25baaf40438073bb,yc9sbvq892,Nick_Dissertation_EX1,1,221,2020-06-02T09:32:31-07:00,4.491749048233,2,versionA_stim.csv,READVersionB.csv,"Read Version B","Dissertation, read only version B",HAPPY,CAR,Study1,U,77,36,Study,User,-,,Study/JOL,"Study Phase2",4074,,,-1,-1,,,,1
5e540b9b25baaf40438073bb,yc9sbvq892,Nick_Dissertation_EX1,1,222,2020-06-02T09:32:35-07:00,4.0083138942719,2,versionA_stim.csv,READVersionB.csv,"Read Version B","Dissertation, read only version B",BRIDGE,WATER,Study1,F,18,40,Study,User,-,,Study/JOL,"Study Phase2",3588,,,-1,-1,,,,1
5e540b9b25baaf40438073bb,yc9sbvq892,Nick_Dissertation_EX1,1,223,2020-06-02T09:32:40-07:00,4.8047690391541,2,versionA_stim.csv,READVersionB.csv,"Read Version B","Dissertation, read only version B",GEOLOGY,ROCK,Study1,F,19,65,Study,User,-,,Study/JOL,"Study Phase2",4373,,,-1,-1,,,,1
5e540b9b25baaf40438073bb,yc9sbvq892,Nick_Dissertation_EX1,1,224,2020-06-02T09:32:45-07:00,5.2689599990845,2,versionA_stim.csv,READVersionB.csv,"Read Version B","Dissertation, read only version B",HUNGER,FAMINE,Study1,B,40,50,Study,User,-,,Study/JOL,"Study Phase2",4836,,,-1,-1,,,,1
5e540b9b25baaf40438073bb,yc9sbvq892,Nick_Dissertation_EX1,1,225,2020-06-02T09:32:50-07:00,4.7112739086151,2,versionA_stim.csv,READVersionB.csv,"Read Version B","Dissertation, read only version B",KING,VASE,Study1,U,85,13,Study,User,-,,Study/JOL,"Study Phase2",4266,,,-1,-1,,,,1
5e540b9b25baaf40438073bb,yc9sbvq892,Nick_Dissertation_EX1,1,226,2020-06-02T09:33:00-07:00,10.369444131851,2,versionA_stim.csv,READVersionB.csv,"Read Version B","Dissertation, read only version B",SOON,BELT,Study1,U,70,26,Study,User,-,,Study/JOL,"Study Phase2",9949,,,-1,-1,,,,1
5e540b9b25baaf40438073bb,yc9sbvq892,Nick_Dissertation_EX1,1,227,2020-06-02T09:33:12-07:00,11.345104932785,2,versionA_stim.csv,READVersionB.csv,"Read Version B","Dissertation, read only version B",ALLOW,TUCK,Study1,U,78,22,Study,User,-,,Study/JOL,"Study Phase2",10911,,,-1,-1,,,,1
5e540b9b25baaf40438073bb,yc9sbvq892,Nick_Dissertation_EX1,1,228,2020-06-02T09:33:14-07:00,2.7659230232239,2,versionA_stim.csv,READVersionB.csv,"Read Version B","Dissertation, read only version B",PAST,FUTURE,Study1,S,61,8,Study,User,-,,Study/JOL,"Study Phase2",2326,,,-1,-1,,,,1
5e540b9b25baaf40438073bb,yc9sbvq892,Nick_Dissertation_EX1,1,229,2020-06-02T09:33:20-07:00,5.6514608860016,2,versionA_stim.csv,READVersionB.csv,"Read Version B","Dissertation, read only version B",STRONG,ACCIDENT,Study1,U,80,14,Study,User,-,,Study/JOL,"Study Phase2",4220,,,-1,-1,,,,1
5e540b9b25baaf40438073bb,yc9sbvq892,Nick_Dissertation_EX1,1,230,2020-06-02T09:33:24-07:00,4.3911850452423,2,versionA_stim.csv,READVersionB.csv,"Read Version B","Dissertation, read only version B",PLANE,PILOT,Study1,B,44,86,Study,User,-,,Study/JOL,"Study Phase2",3947,,,-1,-1,,,,1
5e540b9b25baaf40438073bb,yc9sbvq892,Nick_Dissertation_EX1,1,231,2020-06-02T09:33:29-07:00,4.5594341754913,2,versionA_stim.csv,READVersionB.csv,"Read Version B","Dissertation, read only version B",LAW,ATTORNEY,Study1,B,34,75,Study,User,-,,Study/JOL,"Study Phase2",4114,,,-1,-1,,,,1
5e540b9b25baaf40438073bb,yc9sbvq892,Nick_Dissertation_EX1,1,232,2020-06-02T09:33:33-07:00,4.3269498348236,2,versionA_stim.csv,READVersionB.csv,"Read Version B","Dissertation, read only version B",GREAT,FANTASTIC,Study1,B,35,43,Study,User,-,,Study/JOL,"Study Phase2",3889,,,-1,-1,,,,1
5e540b9b25baaf40438073bb,yc9sbvq892,Nick_Dissertation_EX1,1,233,2020-06-02T09:33:38-07:00,5.0514650344849,2,versionA_stim.csv,READVersionB.csv,"Read Version B","Dissertation, read only version B",SLEEP,DROWSY,Study1,B,41,15,Study,User,-,,Study/JOL,"Study Phase2",4629,,,-1,-1,,,,1
5e540b9b25baaf40438073bb,yc9sbvq892,Nick_Dissertation_EX1,1,234,2020-06-02T09:33:45-07:00,6.6258261203766,2,versionA_stim.csv,READVersionB.csv,"Read Version B","Dissertation, read only version B",REVOLUTION,WAR,Study1,F,20,56,Study,User,-,,Study/JOL,"Study Phase2",5100,,,-1,-1,,,,1
5e540b9b25baaf40438073bb,yc9sbvq892,Nick_Dissertation_EX1,1,235,2020-06-02T09:33:50-07:00,5.403559923172,2,versionA_stim.csv,READVersionB.csv,"Read Version B","Dissertation, read only version B",GRILL,BAR,Study1,S,52,81,Study,User,-,,Study/JOL,"Study Phase2",4962,,,-1,-1,,,,1
5e540b9b25baaf40438073bb,yc9sbvq892,Nick_Dissertation_EX1,1,236,2020-06-02T09:33:53-07:00,2.6932458877563,2,versionA_stim.csv,READVersionB.csv,"Read Version B","Dissertation, read only version B",CREDIT,CARD,Study1,F,23,39,Study,User,-,,Study/JOL,"Study Phase2",2266,,,-1,-1,,,,1
5e540b9b25baaf40438073bb,yc9sbvq892,Nick_Dissertation_EX1,1,237,2020-06-02T09:33:56-07:00,3.1212391853333,2,versionA_stim.csv,READVersionB.csv,"Read Version B","Dissertation, read only version B",POP,SODA,Study1,S,56,25,Study,User,-,,Study/JOL,"Study Phase2",2693,,,-1,-1,,,,1
5e540b9b25baaf40438073bb,yc9sbvq892,Nick_Dissertation_EX1,1,238,2020-06-02T09:34:00-07:00,3.8864169120789,2,versionA_stim.csv,READVersionB.csv,"Read Version B","Dissertation, read only version B",KIDNEY,LIVER,Study1,S,53,48,Study,User,-,,Study/JOL,"Study Phase2",3423,,,-1,-1,,,,1
5e540b9b25baaf40438073bb,yc9sbvq892,Nick_Dissertation_EX1,1,239,2020-06-02T09:34:07-07:00,7.1384708881378,2,versionA_stim.csv,READVersionB.csv,"Read Version B","Dissertation, read only version B",DIETARY,SACKING,Study1,U,67,31,Study,User,-,,Study/JOL,"Study Phase2",6714,,,-1,-1,,,,1
5e540b9b25baaf40438073bb,yc9sbvq892,Nick_Dissertation_EX1,1,240,2020-06-02T09:34:13-07:00,5.3890521526337,2,versionA_stim.csv,READVersionB.csv,"Read Version B","Dissertation, read only version B",ART,LION,Study1,U,79,58,Study,User,-,,Study/JOL,"Study Phase2",4977,,,-1,-1,,,,1
5e540b9b25baaf40438073bb,yc9sbvq892,Nick_Dissertation_EX1,1,241,2020-06-02T09:34:17-07:00,4.177081823349,2,versionA_stim.csv,READVersionB.csv,"Read Version B","Dissertation, read only version B",BLOW,WIND,Study1,S,55,78,Study,User,-,,Study/JOL,"Study Phase2",3753,,,-1,-1,,,,1
5e540b9b25baaf40438073bb,yc9sbvq892,Nick_Dissertation_EX1,1,242,2020-06-02T09:34:21-07:00,4.0206441879272,2,versionA_stim.csv,READVersionB.csv,"Read Version B","Dissertation, read only version B",HERD,COW,Study1,F,22,41,Study,User,-,,Study/JOL,"Study Phase2",3603,,,-1,-1,,,,1
5e540b9b25baaf40438073bb,yc9sbvq892,Nick_Dissertation_EX1,1,243,2020-06-02T09:34:25-07:00,3.9626250267029,2,versionA_stim.csv,READVersionB.csv,"Read Version B","Dissertation, read only version B",BEGIN,END,Study1,S,54,17,Study,User,-,,Study/JOL,"Study Phase2",3546,,,-1,-1,,,,1
5e540b9b25baaf40438073bb,yc9sbvq892,Nick_Dissertation_EX1,1,244,2020-06-02T09:34:29-07:00,4.5757999420166,2,versionA_stim.csv,READVersionB.csv,"Read Version B","Dissertation, read only version B",MATH,DIVISION,Study1,B,33,10,Study,User,-,,Study/JOL,"Study Phase2",4109,,,-1,-1,,,,1
5e540b9b25baaf40438073bb,yc9sbvq892,Nick_Dissertation_EX1,1,245,2020-06-02T09:34:35-07:00,5.4426159858704,2,versionA_stim.csv,READVersionB.csv,"Read Version B","Dissertation, read only version B",MEANING,DEFINITION,Study1,S,62,62,Study,User,-,,Study/JOL,"Study Phase2",5010,,,-1,-1,,,,1
5e540b9b25baaf40438073bb,yc9sbvq892,Nick_Dissertation_EX1,1,246,2020-06-02T09:34:41-07:00,5.9316029548645,2,versionA_stim.csv,READVersionB.csv,"Read Version B","Dissertation, read only version B",DEBATE,SIGHT,Study1,U,73,73,Study,User,-,,Study/JOL,"Study Phase2",5504,,,-1,-1,,,,1
5e540b9b25baaf40438073bb,yc9sbvq892,Nick_Dissertation_EX1,1,247,2020-06-02T09:34:54-07:00,13.709896087646,2,versionA_stim.csv,READVersionB.csv,"Read Version B","Dissertation, read only version B",SUGAR,RIDDLE,Study1,U,81,52,Study,User,-,,Study/JOL,"Study Phase2",13283,,,-1,-1,,,,1
5e540b9b25baaf40438073bb,yc9sbvq892,Nick_Dissertation_EX1,1,248,2020-06-02T09:35:00-07:00,5.838173866272,2,versionA_stim.csv,READVersionB.csv,"Read Version B","Dissertation, read only version B",PUSHER,CLUTTER,Study1,U,66,28,Study,User,-,,Study/JOL,"Study Phase2",5416,,,-1,-1,,,,1
5e540b9b25baaf40438073bb,yc9sbvq892,Nick_Dissertation_EX1,1,249,2020-06-02T09:35:03-07:00,3.2333891391754,2,versionA_stim.csv,READVersionB.csv,"Read Version B","Dissertation, read only version B",LOCATION,SITE,Study1,S,48,19,Study,User,-,,Study/JOL,"Study Phase2",2797,,,-1,-1,,,,1
5e540b9b25baaf40438073bb,yc9sbvq892,Nick_Dissertation_EX1,1,250,2020-06-02T09:35:07-07:00,3.9061799049377,2,versionA_stim.csv,READVersionB.csv,"Read Version B","Dissertation, read only version B",NUMBER,AMOUNT,Study1,S,47,83,Study,User,-,,Study/JOL,"Study Phase2",3464,,,-1,-1,,,,1
5e540b9b25baaf40438073bb,yc9sbvq892,Nick_Dissertation_EX1,1,251,2020-06-02T09:35:13-07:00,6.1032650470734,2,versionA_stim.csv,READVersionB.csv,"Read Version B","Dissertation, read only version B",ROOT,PLANT,Study1,F,13,80,Study,User,-,,Study/JOL,"Study Phase2",5682,,,-1,-1,,,,1
5e540b9b25baaf40438073bb,yc9sbvq892,Nick_Dissertation_EX1,1,252,2020-06-02T09:35:17-07:00,3.9001550674438,2,versionA_stim.csv,READVersionB.csv,"Read Version B","Dissertation, read only version B",HYGIENE,CLEAN,Study1,F,17,60,Study,User,-,,Study/JOL,"Study Phase2",3478,,,-1,-1,,,,1
5e540b9b25baaf40438073bb,yc9sbvq892,Nick_Dissertation_EX1,1,253,2020-06-02T09:35:23-07:00,5.6928598880768,2,versionA_stim.csv,READVersionB.csv,"Read Version B","Dissertation, read only version B",DISCOVER,FLOOR,Study1,U,71,54,Study,User,-,,Study/JOL,"Study Phase2",5257,,,-1,-1,,,,1
5e540b9b25baaf40438073bb,yc9sbvq892,Nick_Dissertation_EX1,1,254,2020-06-02T09:35:27-07:00,4.3890359401703,2,versionA_stim.csv,READVersionB.csv,"Read Version B","Dissertation, read only version B",TAKE,SEIZE,Study1,B,29,18,Study,User,-,,Study/JOL,"Study Phase2",3957,,,-1,-1,,,,1
5e540b9b25baaf40438073bb,yc9sbvq892,Nick_Dissertation_EX1,1,255,2020-06-02T09:35:35-07:00,7.3121891021729,2,versionA_stim.csv,READVersionB.csv,"Read Version B","Dissertation, read only version B",ARTERY,BRONZE,Study1,U,74,84,Study,User,-,,Study/JOL,"Study Phase2",6881,,,-1,-1,,,,1
5e540b9b25baaf40438073bb,yc9sbvq892,Nick_Dissertation_EX1,1,256,2020-06-02T09:35:38-07:00,3.4984819889069,2,versionA_stim.csv,READVersionB.csv,"Read Version B","Dissertation, read only version B",CHISEL,HAMMER,Study1,F,9,16,Study,User,-,,Study/JOL,"Study Phase2",3084,,,-1,-1,,,,1
5e540b9b25baaf40438073bb,yc9sbvq892,Nick_Dissertation_EX1,1,257,2020-06-02T09:35:42-07:00,3.6628859043121,2,versionA_stim.csv,READVersionB.csv,"Read Version B","Dissertation, read only version B",ARCHITECTURE,DESIGN,Study1,S,51,27,Study,User,-,,Study/JOL,"Study Phase2",3228,,,-1,-1,,,,1
5e540b9b25baaf40438073bb,yc9sbvq892,Nick_Dissertation_EX1,1,258,2020-06-02T09:35:47-07:00,4.6559221744537,2,versionA_stim.csv,READVersionB.csv,"Read Version B","Dissertation, read only version B",KEY,LATCH,Study1,B,36,55,Study,User,-,,Study/JOL,"Study Phase2",4222,,,-1,-1,,,,1
5e540b9b25baaf40438073bb,yc9sbvq892,Nick_Dissertation_EX1,1,259,2020-06-02T09:35:51-07:00,3.9621939659119,2,versionA_stim.csv,READVersionB.csv,"Read Version B","Dissertation, read only version B",DELINQUENT,BAD,Study1,F,6,69,Study,User,-,,Study/JOL,"Study Phase2",3530,,,-1,-1,,,,1
5e540b9b25baaf40438073bb,yc9sbvq892,Nick_Dissertation_EX1,1,260,2020-06-02T09:35:55-07:00,4.56813788414,2,versionA_stim.csv,READVersionB.csv,"Read Version B","Dissertation, read only version B",HORNET,STING,Study1,F,11,42,Study,User,-,,Study/JOL,"Study Phase2",4146,,,-1,-1,,,,1
5e540b9b25baaf40438073bb,yc9sbvq892,Nick_Dissertation_EX1,1,261,2020-06-02T09:36:00-07:00,5.2687270641327,2,versionA_stim.csv,READVersionB.csv,"Read Version B","Dissertation, read only version B",MALT,CHOCOLATE,BUFFER2,Buffer,88,89,Study,User,-,,Study/JOL,BUFFER4,4848,,,-1,-1,,,,1
5e540b9b25baaf40438073bb,yc9sbvq892,Nick_Dissertation_EX1,1,262,2020-06-02T09:36:04-07:00,3.3960330486298,2,versionA_stim.csv,READVersionB.csv,"Read Version B","Dissertation, read only version B",GEESE,GOOSE,BUFFER2,Buffer,86,87,Study,User,-,,Study/JOL,BUFFER4,2972,,,-1,-1,,,,1
5e540b9b25baaf40438073bb,yc9sbvq892,Nick_Dissertation_EX1,1,263,2020-06-02T09:36:08-07:00,4.0612578392029,2,versionA_stim.csv,READVersionB.csv,"Read Version B","Dissertation, read only version B",SHERRIF,POLICE,BUFFER2,Buffer,87,91,Study,User,-,,Study/JOL,BUFFER4,3628,,,-1,-1,,,,1
5e540b9b25baaf40438073bb,yc9sbvq892,Nick_Dissertation_EX1,1,264,2020-06-02T09:36:12-07:00,4.3122720718384,2,versionA_stim.csv,READVersionB.csv,"Read Version B","Dissertation, read only version B",THING,STUFF,BUFFER2,Buffer,90,88,Study,User,-,,Study/JOL,BUFFER4,3881,,,-1,-1,,,,1
5e540b9b25baaf40438073bb,yc9sbvq892,Nick_Dissertation_EX1,1,265,2020-06-02T09:36:16-07:00,4.3625309467316,2,versionA_stim.csv,READVersionB.csv,"Read Version B","Dissertation, read only version B",MOON,SPACE,BUFFER2,Buffer,89,90,Study,User,-,,Study/JOL,BUFFER4,3937,,,-1,-1,,,,1
5e540b9b25baaf40438073bb,yc9sbvq892,Nick_Dissertation_EX1,1,266,2020-06-02T09:36:19-07:00,2.7868740558624,2,versionA_stim.csv,READVersionB.csv,"Read Version B","Dissertation, read only version B",,,,,,0,Instruct,User,-,"You have completed this section. Please press Enter.",Filler_Instruction,Instruct5,2375,,,-1,-1,,,,1
5e540b9b25baaf40438073bb,yc9sbvq892,Nick_Dissertation_EX1,1,267,2020-06-02T09:38:20-07:00,120.42653203011,2,versionA_stim.csv,READVersionB.csv,"Read Version B","Dissertation, read only version B",,,,,,0,FreeRecall,120,120,"Please list the 50 US states in reverse alphabetical order (z - a). The task will automatically advance to the next screen after two minutes.",,Filler2,120001,"Washington state Vermont Utah Tennessee south Carolina ",0,17359,96660,0,0,,1
5e540b9b25baaf40438073bb,yc9sbvq892,Nick_Dissertation_EX1,1,268,2020-06-02T09:38:31-07:00,11.71843791008,2,versionA_stim.csv,READVersionB.csv,"Read Version B","Dissertation, read only version B",,,,,,0,Instruct,-,10,"You will now be presented with the first word from each of the previously studied item pairs. Please type the missing word. If you do not know the word, you may guess or press Enter to skip forward to the next pair.",,Instruct6,11304,,,-1,-1,,,,1
5e540b9b25baaf40438073bb,yc9sbvq892,Nick_Dissertation_EX1,1,269,2020-06-02T09:38:39-07:00,7.9512710571289,2,versionA_stim.csv,READVersionB.csv,"Read Version B","Dissertation, read only version B",ARTERY,BRONZE,Study1,U,74,84,Test,User,-,,Recall,Recall2,7483,bronze,100,4943,7120,1,1,,1
5e540b9b25baaf40438073bb,yc9sbvq892,Nick_Dissertation_EX1,1,270,2020-06-02T09:38:47-07:00,8.0962979793549,2,versionA_stim.csv,READVersionB.csv,"Read Version B","Dissertation, read only version B",MEANING,DEFINITION,Study1,S,62,62,Test,User,-,,Recall,Recall2,7676,sense,26.666666666667,6559,7412,0,0,,1
5e540b9b25baaf40438073bb,yc9sbvq892,Nick_Dissertation_EX1,1,271,2020-06-02T09:38:51-07:00,3.9434111118317,2,versionA_stim.csv,READVersionB.csv,"Read Version B","Dissertation, read only version B",BRIDGE,WATER,Study1,F,18,40,Test,User,-,,Recall,Recall2,3519,,0,-1,-1,0,0,,1
5e540b9b25baaf40438073bb,yc9sbvq892,Nick_Dissertation_EX1,1,272,2020-06-02T09:38:56-07:00,4.3677990436554,2,versionA_stim.csv,READVersionB.csv,"Read Version B","Dissertation, read only version B",ROOT,PLANT,Study1,F,13,80,Test,User,-,,Recall,Recall2,3939,plNT,88.888888888889,2576,3711,0,1,,1
5e540b9b25baaf40438073bb,yc9sbvq892,Nick_Dissertation_EX1,1,273,2020-06-02T09:39:00-07:00,4.6666538715363,2,versionA_stim.csv,READVersionB.csv,"Read Version B","Dissertation, read only version B",SLEEP,DROWSY,Study1,B,41,15,Test,User,-,,Recall,Recall2,4220,REST,40,3406,3868,0,0,,1
5e540b9b25baaf40438073bb,yc9sbvq892,Nick_Dissertation_EX1,1,274,2020-06-02T09:39:04-07:00,3.1556770801544,2,versionA_stim.csv,READVersionB.csv,"Read Version B","Dissertation, read only version B",WAY,OUT,Study1,F,16,35,Test,User,-,,Recall,Recall2,2726,OUT,100,2026,2454,1,1,,1
5e540b9b25baaf40438073bb,yc9sbvq892,Nick_Dissertation_EX1,1,275,2020-06-02T09:39:11-07:00,7.0548210144043,2,versionA_stim.csv,READVersionB.csv,"Read Version B","Dissertation, read only version B",DRINK,SIP,Study1,B,27,45,Test,User,-,,Recall,Recall2,6621,,0,-1,-1,0,0,,1
5e540b9b25baaf40438073bb,yc9sbvq892,Nick_Dissertation_EX1,1,276,2020-06-02T09:39:15-07:00,4.0050518512726,2,versionA_stim.csv,READVersionB.csv,"Read Version B","Dissertation, read only version B",BATHROOM,TOILET,Study1,S,58,66,Test,User,-,,Recall,Recall2,3582,TOILET,100,2420,3286,1,1,,1
5e540b9b25baaf40438073bb,yc9sbvq892,Nick_Dissertation_EX1,1,277,2020-06-02T09:39:23-07:00,8.7218451499939,2,versionA_stim.csv,READVersionB.csv,"Read Version B","Dissertation, read only version B",NUMBER,AMOUNT,Study1,S,47,83,Test,User,-,,Recall,Recall2,8298,AMOUNT,100,6359,7846,1,1,,1
5e540b9b25baaf40438073bb,yc9sbvq892,Nick_Dissertation_EX1,1,278,2020-06-02T09:39:26-07:00,2.7533118724823,2,versionA_stim.csv,READVersionB.csv,"Read Version B","Dissertation, read only version B",DELINQUENT,BAD,Study1,F,6,69,Test,User,-,,Recall,Recall2,2292,BAD,100,1694,2099,1,1,,1
5e540b9b25baaf40438073bb,yc9sbvq892,Nick_Dissertation_EX1,1,279,2020-06-02T09:39:48-07:00,21.561599969864,2,versionA_stim.csv,READVersionB.csv,"Read Version B","Dissertation, read only version B",DEBATE,SIGHT,Study1,U,73,73,Test,User,-,,Recall,Recall2,21134,DIRECTION,28.571428571429,8998,19988,0,0,,1
5e540b9b25baaf40438073bb,yc9sbvq892,Nick_Dissertation_EX1,1,280,2020-06-02T09:39:54-07:00,6.5544490814209,2,versionA_stim.csv,READVersionB.csv,"Read Version B","Dissertation, read only version B",PAST,FUTURE,Study1,S,61,8,Test,User,-,,Recall,Recall2,6122,,0,-1,-1,0,0,,1
5e540b9b25baaf40438073bb,yc9sbvq892,Nick_Dissertation_EX1,1,281,2020-06-02T09:39:57-07:00,2.9269490242004,2,versionA_stim.csv,READVersionB.csv,"Read Version B","Dissertation, read only version B",GRILL,BAR,Study1,S,52,81,Test,User,-,,Recall,Recall2,2511,BAR,100,1889,2317,1,1,,1
5e540b9b25baaf40438073bb,yc9sbvq892,Nick_Dissertation_EX1,1,282,2020-06-02T09:40:19-07:00,21.998519897461,2,versionA_stim.csv,READVersionB.csv,"Read Version B","Dissertation, read only version B",SOON,BELT,Study1,U,70,26,Test,User,-,,Recall,Recall2,21570,,0,-1,-1,0,0,,1
5e540b9b25baaf40438073bb,yc9sbvq892,Nick_Dissertation_EX1,1,283,2020-06-02T09:40:25-07:00,6.3092160224915,2,versionA_stim.csv,READVersionB.csv,"Read Version B","Dissertation, read only version B",MACHINE,POSITION,Study1,U,76,33,Test,User,-,,Recall,Recall2,5881,LOCATION,62.5,3561,5090,0,0,,1
5e540b9b25baaf40438073bb,yc9sbvq892,Nick_Dissertation_EX1,1,284,2020-06-02T09:40:31-07:00,5.4623410701752,2,versionA_stim.csv,READVersionB.csv,"Read Version B","Dissertation, read only version B",ALLOW,TUCK,Study1,U,78,22,Test,User,-,,Recall,Recall2,5019,,0,-1,-1,0,0,,1
5e540b9b25baaf40438073bb,yc9sbvq892,Nick_Dissertation_EX1,1,285,2020-06-02T09:40:36-07:00,5.0458099842072,2,versionA_stim.csv,READVersionB.csv,"Read Version B","Dissertation, read only version B",REVOLUTION,WAR,Study1,F,20,56,Test,User,-,,Recall,Recall2,4622,WAR,100,3810,4214,1,1,,1
5e540b9b25baaf40438073bb,yc9sbvq892,Nick_Dissertation_EX1,1,286,2020-06-02T09:40:44-07:00,7.614077091217,2,versionA_stim.csv,READVersionB.csv,"Read Version B","Dissertation, read only version B",SENTENCE,WORD,Study1,B,31,79,Test,User,-,,Recall,Recall2,7170,WORD,100,6348,6887,1,1,,1
5e540b9b25baaf40438073bb,yc9sbvq892,Nick_Dissertation_EX1,1,287,2020-06-02T09:40:47-07:00,2.9946279525757,2,versionA_stim.csv,READVersionB.csv,"Read Version B","Dissertation, read only version B",CHISEL,HAMMER,Study1,F,9,16,Test,User,-,,Recall,Recall2,2577,HAMMER,100,1551,2360,1,1,,1
5e540b9b25baaf40438073bb,yc9sbvq892,Nick_Dissertation_EX1,1,288,2020-06-02T09:40:58-07:00,11.020756006241,2,versionA_stim.csv,READVersionB.csv,"Read Version B","Dissertation, read only version B",SMELL,STENCH,Study1,B,42,71,Test,User,-,,Recall,Recall2,10597,,0,-1,-1,0,0,,1
5e540b9b25baaf40438073bb,yc9sbvq892,Nick_Dissertation_EX1,1,289,2020-06-02T09:41:05-07:00,7.5302300453186,2,versionA_stim.csv,READVersionB.csv,"Read Version B","Dissertation, read only version B",GREAT,FANTASTIC,Study1,B,35,43,Test,User,-,,Recall,Recall2,7112,FANTASTIC,100,4893,6872,1,1,,1
5e540b9b25baaf40438073bb,yc9sbvq892,Nick_Dissertation_EX1,1,290,2020-06-02T09:41:09-07:00,3.8658149242401,2,versionA_stim.csv,READVersionB.csv,"Read Version B","Dissertation, read only version B",WINE,CHEESE,Study1,S,57,34,Test,User,-,,Recall,Recall2,3432,CHEESE,100,2091,3069,1,1,,1
5e540b9b25baaf40438073bb,yc9sbvq892,Nick_Dissertation_EX1,1,291,2020-06-02T09:41:26-07:00,16.887862920761,2,versionA_stim.csv,READVersionB.csv,"Read Version B","Dissertation, read only version B",PLANE,PILOT,Study1,B,44,86,Test,User,-,,Recall,Recall2,16462,,0,-1,-1,0,0,,1
5e540b9b25baaf40438073bb,yc9sbvq892,Nick_Dissertation_EX1,1,292,2020-06-02T09:41:29-07:00,3.424947977066,2,versionA_stim.csv,READVersionB.csv,"Read Version B","Dissertation, read only version B",PAW,DOG,Study1,F,15,46,Test,User,-,,Recall,Recall2,3005,DOG,100,1925,2620,1,1,,1
5e540b9b25baaf40438073bb,yc9sbvq892,Nick_Dissertation_EX1,1,293,2020-06-02T09:41:36-07:00,6.5422840118408,2,versionA_stim.csv,READVersionB.csv,"Read Version B","Dissertation, read only version B",HERD,COW,Study1,F,22,41,Test,User,-,,Recall,Recall2,6116,COW,100,4358,5326,1,1,,1
5e540b9b25baaf40438073bb,yc9sbvq892,Nick_Dissertation_EX1,1,294,2020-06-02T09:41:41-07:00,5.3068890571594,2,versionA_stim.csv,READVersionB.csv,"Read Version B","Dissertation, read only version B",WAGE,MONEY,Study1,F,8,12,Test,User,-,,Recall,Recall2,4885,,0,-1,-1,0,0,,1
5e540b9b25baaf40438073bb,yc9sbvq892,Nick_Dissertation_EX1,1,295,2020-06-02T09:41:47-07:00,5.9374310970306,2,versionA_stim.csv,READVersionB.csv,"Read Version B","Dissertation, read only version B",TAKE,SEIZE,Study1,B,29,18,Test,User,-,,Recall,Recall2,5527,,0,-1,-1,0,0,,1
5e540b9b25baaf40438073bb,yc9sbvq892,Nick_Dissertation_EX1,1,296,2020-06-02T09:41:58-07:00,10.609951019287,2,versionA_stim.csv,READVersionB.csv,"Read Version B","Dissertation, read only version B",DISCUSSION,TALK,Study1,F,21,85,Test,User,-,,Recall,Recall2,10161,,0,-1,-1,0,0,,1
5e540b9b25baaf40438073bb,yc9sbvq892,Nick_Dissertation_EX1,1,297,2020-06-02T09:42:06-07:00,8.1529228687286,2,versionA_stim.csv,READVersionB.csv,"Read Version B","Dissertation, read only version B",PARK,HUNGRY,Study1,U,68,37,Test,User,-,,Recall,Recall2,7721,,0,-1,-1,0,0,,1
5e540b9b25baaf40438073bb,yc9sbvq892,Nick_Dissertation_EX1,1,298,2020-06-02T09:42:10-07:00,3.8727660179138,2,versionA_stim.csv,READVersionB.csv,"Read Version B","Dissertation, read only version B",TUNA,FISH,Study1,F,25,47,Test,User,-,,Recall,Recall2,3446,FISH,100,2431,3060,1,1,,1
5e540b9b25baaf40438073bb,yc9sbvq892,Nick_Dissertation_EX1,1,299,2020-06-02T09:42:24-07:00,14.623168945312,2,versionA_stim.csv,READVersionB.csv,"Read Version B","Dissertation, read only version B",DEATH,BUSINESS,Study1,U,72,72,Test,User,-,,Recall,Recall2,14158,BUSINESS,100,8236,13995,1,1,,1
5e540b9b25baaf40438073bb,yc9sbvq892,Nick_Dissertation_EX1,1,300,2020-06-02T09:42:29-07:00,4.9713311195374,2,versionA_stim.csv,READVersionB.csv,"Read Version B","Dissertation, read only version B",LETTUCE,SALAD,Study1,S,59,49,Test,User,-,,Recall,Recall2,4537,SALAD,100,2170,3992,1,1,,1
5e540b9b25baaf40438073bb,yc9sbvq892,Nick_Dissertation_EX1,1,301,2020-06-02T09:42:34-07:00,5.0577168464661,2,versionA_stim.csv,READVersionB.csv,"Read Version B","Dissertation, read only version B",HORNET,STING,Study1,F,11,42,Test,User,-,,Recall,Recall2,4630,STING,100,1803,3784,1,1,,1
5e540b9b25baaf40438073bb,yc9sbvq892,Nick_Dissertation_EX1,1,302,2020-06-02T09:42:41-07:00,6.8470032215118,2,versionA_stim.csv,READVersionB.csv,"Read Version B","Dissertation, read only version B",DISCOVER,FLOOR,Study1,U,71,54,Test,User,-,,Recall,Recall2,6413,,0,-1,-1,0,0,,1
5e540b9b25baaf40438073bb,yc9sbvq892,Nick_Dissertation_EX1,1,303,2020-06-02T09:42:50-07:00,8.7099378108978,2,versionA_stim.csv,READVersionB.csv,"Read Version B","Dissertation, read only version B",DARK,CAVE,Study1,B,28,32,Test,User,-,,Recall,Recall2,8275,CAVE,100,7278,7980,1,1,,1
5e540b9b25baaf40438073bb,yc9sbvq892,Nick_Dissertation_EX1,1,304,2020-06-02T09:42:52-07:00,2.4680120944977,2,versionA_stim.csv,READVersionB.csv,"Read Version B","Dissertation, read only version B",CASH,WOULD,Study1,U,83,63,Test,User,-,,Recall,Recall2,2045,,0,-1,-1,0,0,,1
5e540b9b25baaf40438073bb,yc9sbvq892,Nick_Dissertation_EX1,1,305,2020-06-02T09:43:10-07:00,17.472768068314,2,versionA_stim.csv,READVersionB.csv,"Read Version B","Dissertation, read only version B",ART,LION,Study1,U,79,58,Test,User,-,,Recall,Recall2,17058,,0,-1,-1,0,0,,1
5e540b9b25baaf40438073bb,yc9sbvq892,Nick_Dissertation_EX1,1,306,2020-06-02T09:43:13-07:00,3.0654809474945,2,versionA_stim.csv,READVersionB.csv,"Read Version B","Dissertation, read only version B",ORCHID,FLOWER,Study1,F,24,11,Test,User,-,,Recall,Recall2,2631,FLOWER,100,1469,2279,1,1,,1
5e540b9b25baaf40438073bb,yc9sbvq892,Nick_Dissertation_EX1,1,307,2020-06-02T09:43:16-07:00,2.703784942627,2,versionA_stim.csv,READVersionB.csv,"Read Version B","Dissertation, read only version B",SWAN,BIRD,Study1,F,14,53,Test,User,-,,Recall,Recall2,2267,BIRD,100,1375,2005,1,1,,1
5e540b9b25baaf40438073bb,yc9sbvq892,Nick_Dissertation_EX1,1,308,2020-06-02T09:43:23-07:00,6.8550710678101,2,versionA_stim.csv,READVersionB.csv,"Read Version B","Dissertation, read only version B",WORK,CHORE,Study1,B,39,44,Test,User,-,,Recall,Recall2,6425,,0,-1,-1,0,0,,1
5e540b9b25baaf40438073bb,yc9sbvq892,Nick_Dissertation_EX1,1,309,2020-06-02T09:43:30-07:00,7.4698719978333,2,versionA_stim.csv,READVersionB.csv,"Read Version B","Dissertation, read only version B",HIDE,SICK,Study1,U,84,38,Test,User,-,,Recall,Recall2,7046,,0,-1,-1,0,0,,1
5e540b9b25baaf40438073bb,yc9sbvq892,Nick_Dissertation_EX1,1,310,2020-06-02T09:43:35-07:00,4.7425880432129,2,versionA_stim.csv,READVersionB.csv,"Read Version B","Dissertation, read only version B",BEGIN,END,Study1,S,54,17,Test,User,-,,Recall,Recall2,4315,END,100,3739,4109,1,1,,1
5e540b9b25baaf40438073bb,yc9sbvq892,Nick_Dissertation_EX1,1,311,2020-06-02T09:43:40-07:00,5.1737298965454,2,versionA_stim.csv,READVersionB.csv,"Read Version B","Dissertation, read only version B",DUE,ASSIGNMENT,Study1,S,46,68,Test,User,-,,Recall,Recall2,4728,,0,-1,-1,0,0,,1
5e540b9b25baaf40438073bb,yc9sbvq892,Nick_Dissertation_EX1,1,312,2020-06-02T09:43:58-07:00,17.750133037567,2,versionA_stim.csv,READVersionB.csv,"Read Version B","Dissertation, read only version B",DIETARY,SACKING,Study1,U,67,31,Test,User,-,,Recall,Recall2,17312,,0,-1,-1,0,0,,1
5e540b9b25baaf40438073bb,yc9sbvq892,Nick_Dissertation_EX1,1,313,2020-06-02T09:44:03-07:00,5.7112119197845,2,versionA_stim.csv,READVersionB.csv,"Read Version B","Dissertation, read only version B",HEIGHT,GROWTH,Study1,B,30,70,Test,User,-,,Recall,Recall2,5276,,0,-1,-1,0,0,,1
5e540b9b25baaf40438073bb,yc9sbvq892,Nick_Dissertation_EX1,1,314,2020-06-02T09:44:09-07:00,5.3875210285187,2,versionA_stim.csv,READVersionB.csv,"Read Version B","Dissertation, read only version B",SHOE,FOOT,Study1,S,60,57,Test,User,-,,Recall,Recall2,4935,LACE,0,2593,4348,0,0,,1
5e540b9b25baaf40438073bb,yc9sbvq892,Nick_Dissertation_EX1,1,315,2020-06-02T09:44:17-07:00,8.0234961509705,2,versionA_stim.csv,READVersionB.csv,"Read Version B","Dissertation, read only version B",DUMP,WASTE,Study1,S,49,76,Test,User,-,,Recall,Recall2,7596,RUBBISH,16.666666666667,4812,6037,0,0,,1
5e540b9b25baaf40438073bb,yc9sbvq892,Nick_Dissertation_EX1,1,316,2020-06-02T09:44:21-07:00,4.1938920021057,2,versionA_stim.csv,READVersionB.csv,"Read Version B","Dissertation, read only version B",BUG,WASP,Study1,B,32,51,Test,User,-,,Recall,Recall2,3765,WASP,100,1735,2996,1,1,,1
5e540b9b25baaf40438073bb,yc9sbvq892,Nick_Dissertation_EX1,1,317,2020-06-02T09:44:26-07:00,4.6319899559021,2,versionA_stim.csv,READVersionB.csv,"Read Version B","Dissertation, read only version B",FIRE,BLAZE,Study1,B,45,74,Test,User,-,,Recall,Recall2,4206,HOSE,22.222222222222,3372,3922,0,0,,1
5e540b9b25baaf40438073bb,yc9sbvq892,Nick_Dissertation_EX1,1,318,2020-06-02T09:44:30-07:00,3.8718049526215,2,versionA_stim.csv,READVersionB.csv,"Read Version B","Dissertation, read only version B",LIFT,WOMAN,Study1,U,69,20,Test,User,-,,Recall,Recall2,3452,WOMAN,100,1886,2762,1,1,,1
5e540b9b25baaf40438073bb,yc9sbvq892,Nick_Dissertation_EX1,1,319,2020-06-02T09:44:36-07:00,6.1860580444336,2,versionA_stim.csv,READVersionB.csv,"Read Version B","Dissertation, read only version B",CLOTHES,ATTIRE,Study1,B,43,9,Test,User,-,,Recall,Recall2,5756,,0,-1,-1,0,0,,1
5e540b9b25baaf40438073bb,yc9sbvq892,Nick_Dissertation_EX1,1,320,2020-06-02T09:44:45-07:00,8.8460350036621,2,versionA_stim.csv,READVersionB.csv,"Read Version B","Dissertation, read only version B",STRONG,ACCIDENT,Study1,U,80,14,Test,User,-,,Recall,Recall2,8421,SMELL,15.384615384615,7106,7920,0,0,,1
5e540b9b25baaf40438073bb,yc9sbvq892,Nick_Dissertation_EX1,1,321,2020-06-02T09:44:50-07:00,5.4210929870605,2,versionA_stim.csv,READVersionB.csv,"Read Version B","Dissertation, read only version B",FULL,ENOUGH,Study1,B,26,7,Test,User,-,,Recall,Recall2,4998,EMPTY,18.181818181818,3654,4645,0,0,,1
5e540b9b25baaf40438073bb,yc9sbvq892,Nick_Dissertation_EX1,1,322,2020-06-02T09:44:53-07:00,2.7322409152985,2,versionA_stim.csv,READVersionB.csv,"Read Version B","Dissertation, read only version B",CREDIT,CARD,Study1,F,23,39,Test,User,-,,Recall,Recall2,2315,CARD,100,1400,1917,1,1,,1
5e540b9b25baaf40438073bb,yc9sbvq892,Nick_Dissertation_EX1,1,323,2020-06-02T09:45:00-07:00,7.6810660362244,2,versionA_stim.csv,READVersionB.csv,"Read Version B","Dissertation, read only version B",FIX,HAND,Study1,U,75,77,Test,User,-,,Recall,Recall2,7253,HAND,100,6518,7002,1,1,,1
5e540b9b25baaf40438073bb,yc9sbvq892,Nick_Dissertation_EX1,1,324,2020-06-02T09:45:05-07:00,4.6051969528198,2,versionA_stim.csv,READVersionB.csv,"Read Version B","Dissertation, read only version B",ARCHITECTURE,DESIGN,Study1,S,51,27,Test,User,-,,Recall,Recall2,4157,DESIGNER,85.714285714286,2084,3366,0,1,,1
5e540b9b25baaf40438073bb,yc9sbvq892,Nick_Dissertation_EX1,1,325,2020-06-02T09:45:13-07:00,7.6901469230652,2,versionA_stim.csv,READVersionB.csv,"Read Version B","Dissertation, read only version B",KEY,LATCH,Study1,B,36,55,Test,User,-,,Recall,Recall2,7261,LOCK,44.444444444444,5171,5812,0,0,,1
5e540b9b25baaf40438073bb,yc9sbvq892,Nick_Dissertation_EX1,1,326,2020-06-02T09:45:19-07:00,6.4949741363525,2,versionA_stim.csv,READVersionB.csv,"Read Version B","Dissertation, read only version B",HYGIENE,CLEAN,Study1,F,17,60,Test,User,-,,Recall,Recall2,6070,CLEAN,100,4468,5301,1,1,,1
5e540b9b25baaf40438073bb,yc9sbvq892,Nick_Dissertation_EX1,1,327,2020-06-02T09:45:22-07:00,2.5562109947205,2,versionA_stim.csv,READVersionB.csv,"Read Version B","Dissertation, read only version B",HAPPY,CAR,Study1,U,77,36,Test,User,-,,Recall,Recall2,2129,CAR,100,1247,1776,1,1,,1
5e540b9b25baaf40438073bb,yc9sbvq892,Nick_Dissertation_EX1,1,328,2020-06-02T09:45:29-07:00,7.3382139205933,2,versionA_stim.csv,READVersionB.csv,"Read Version B","Dissertation, read only version B",BALL,RACKET,Study1,B,38,61,Test,User,-,,Recall,Recall2,6911,,0,-1,-1,0,0,,1
5e540b9b25baaf40438073bb,yc9sbvq892,Nick_Dissertation_EX1,1,329,2020-06-02T09:45:33-07:00,3.8683140277863,2,versionA_stim.csv,READVersionB.csv,"Read Version B","Dissertation, read only version B",GEOLOGY,ROCK,Study1,F,19,65,Test,User,-,,Recall,Recall2,3442,STONE,22.222222222222,2033,3079,0,0,,1
5e540b9b25baaf40438073bb,yc9sbvq892,Nick_Dissertation_EX1,1,330,2020-06-02T09:45:37-07:00,4.11661195755,2,versionA_stim.csv,READVersionB.csv,"Read Version B","Dissertation, read only version B",BLOW,WIND,Study1,S,55,78,Test,User,-,,Recall,Recall2,3690,HARD,25,2460,3034,0,0,,1
5e540b9b25baaf40438073bb,yc9sbvq892,Nick_Dissertation_EX1,1,331,2020-06-02T09:45:41-07:00,4.4268381595612,2,versionA_stim.csv,READVersionB.csv,"Read Version B","Dissertation, read only version B",SUGAR,RIDDLE,Study1,U,81,52,Test,User,-,,Recall,Recall2,4003,,0,-1,-1,0,0,,1
5e540b9b25baaf40438073bb,yc9sbvq892,Nick_Dissertation_EX1,1,332,2020-06-02T09:45:47-07:00,5.9027528762817,2,versionA_stim.csv,READVersionB.csv,"Read Version B","Dissertation, read only version B",MATH,DIVISION,Study1,B,33,10,Test,User,-,,Recall,Recall2,5469,DIVISION,100,2224,4982,1,1,,1
5e540b9b25baaf40438073bb,yc9sbvq892,Nick_Dissertation_EX1,1,333,2020-06-02T09:45:54-07:00,6.1648559570312,2,versionA_stim.csv,READVersionB.csv,"Read Version B","Dissertation, read only version B",BITTER,COLD,Study1,F,12,64,Test,User,-,,Recall,Recall2,5741,SWEET,0,2645,3397,0,0,,1
5e540b9b25baaf40438073bb,yc9sbvq892,Nick_Dissertation_EX1,1,334,2020-06-02T09:45:58-07:00,4.1068921089172,2,versionA_stim.csv,READVersionB.csv,"Read Version B","Dissertation, read only version B",KIDNEY,LIVER,Study1,S,53,48,Test,User,-,,Recall,Recall2,3661,LIVER,100,2496,3375,1,1,,1
5e540b9b25baaf40438073bb,yc9sbvq892,Nick_Dissertation_EX1,1,335,2020-06-02T09:46:16-07:00,18.064167976379,2,versionA_stim.csv,READVersionB.csv,"Read Version B","Dissertation, read only version B",BABY,CHILD,Study1,S,64,67,Test,User,-,,Recall,Recall2,17644,,0,-1,-1,0,0,,1
5e540b9b25baaf40438073bb,yc9sbvq892,Nick_Dissertation_EX1,1,336,2020-06-02T09:46:19-07:00,3.4923720359802,2,versionA_stim.csv,READVersionB.csv,"Read Version B","Dissertation, read only version B",CIRCLE,ROUND,Study1,S,65,24,Test,User,-,,Recall,Recall2,3064,ROUND,100,1866,2789,1,1,,1
5e540b9b25baaf40438073bb,yc9sbvq892,Nick_Dissertation_EX1,1,337,2020-06-02T09:46:28-07:00,9.2310819625854,2,versionA_stim.csv,READVersionB.csv,"Read Version B","Dissertation, read only version B",EDITOR,NEWS,Study1,F,10,30,Test,User,-,,Recall,Recall2,8791,JOURNAL,18.181818181818,4096,5323,0,0,,1
5e540b9b25baaf40438073bb,yc9sbvq892,Nick_Dissertation_EX1,1,338,2020-06-02T09:46:36-07:00,7.5782160758972,2,versionA_stim.csv,READVersionB.csv,"Read Version B","Dissertation, read only version B",DIGESTION,STOMACH,Study1,F,7,29,Test,User,-,,Recall,Recall2,7148,,0,-1,-1,0,0,,1
5e540b9b25baaf40438073bb,yc9sbvq892,Nick_Dissertation_EX1,1,339,2020-06-02T09:46:44-07:00,7.7268209457397,2,versionA_stim.csv,READVersionB.csv,"Read Version B","Dissertation, read only version B",HUNGER,FAMINE,Study1,B,40,50,Test,User,-,,Recall,Recall2,6221,,0,-1,-1,0,0,,1
5e540b9b25baaf40438073bb,yc9sbvq892,Nick_Dissertation_EX1,1,340,2020-06-02T09:46:47-07:00,3.0291090011597,2,versionA_stim.csv,READVersionB.csv,"Read Version B","Dissertation, read only version B",HOT,CHILI,Study1,B,37,21,Test,User,-,,Recall,Recall2,2606,COLD,44.444444444444,1822,2344,0,0,,1
5e540b9b25baaf40438073bb,yc9sbvq892,Nick_Dissertation_EX1,1,341,2020-06-02T09:46:50-07:00,3.246876001358,2,versionA_stim.csv,READVersionB.csv,"Read Version B","Dissertation, read only version B",HONEY,BEE,Study1,S,63,82,Test,User,-,,Recall,Recall2,2827,,0,-1,-1,0,0,,1
5e540b9b25baaf40438073bb,yc9sbvq892,Nick_Dissertation_EX1,1,342,2020-06-02T09:47:00-07:00,10.125298976898,2,versionA_stim.csv,READVersionB.csv,"Read Version B","Dissertation, read only version B",PUSHER,CLUTTER,Study1,U,66,28,Test,User,-,,Recall,Recall2,9692,CLUTTER,100,7575,8924,1,1,,1
5e540b9b25baaf40438073bb,yc9sbvq892,Nick_Dissertation_EX1,1,343,2020-06-02T09:47:06-07:00,5.3887159824371,2,versionA_stim.csv,READVersionB.csv,"Read Version B","Dissertation, read only version B",KING,VASE,Study1,U,85,13,Test,User,-,,Recall,Recall2,4960,PRAWN,22.222222222222,3427,4428,0,0,,1
5e540b9b25baaf40438073bb,yc9sbvq892,Nick_Dissertation_EX1,1,344,2020-06-02T09:47:16-07:00,10.378371953964,2,versionA_stim.csv,READVersionB.csv,"Read Version B","Dissertation, read only version B",LOCATION,SITE,Study1,S,48,19,Test,User,-,,Recall,Recall2,9936,,0,-1,-1,0,0,,1
5e540b9b25baaf40438073bb,yc9sbvq892,Nick_Dissertation_EX1,1,345,2020-06-02T09:47:21-07:00,5.1936900615692,2,versionA_stim.csv,READVersionB.csv,"Read Version B","Dissertation, read only version B",TRIAL,JURY,Study1,S,50,59,Test,User,-,,Recall,Recall2,3768,JURY,100,2168,3021,1,1,,1
5e540b9b25baaf40438073bb,yc9sbvq892,Nick_Dissertation_EX1,1,346,2020-06-02T09:47:28-07:00,6.9229218959808,2,versionA_stim.csv,READVersionB.csv,"Read Version B","Dissertation, read only version B",VALLEY,ADD,Study1,U,82,23,Test,User,-,,Recall,Recall2,6497,ADD,100,5560,6065,1,1,,1
5e540b9b25baaf40438073bb,yc9sbvq892,Nick_Dissertation_EX1,1,347,2020-06-02T09:47:32-07:00,3.9294180870056,2,versionA_stim.csv,READVersionB.csv,"Read Version B","Dissertation, read only version B",LAW,ATTORNEY,Study1,B,34,75,Test,User,-,,Recall,Recall2,3508,COURT,30.769230769231,2106,3040,0,0,,1
5e540b9b25baaf40438073bb,yc9sbvq892,Nick_Dissertation_EX1,1,348,2020-06-02T09:47:48-07:00,15.623471021652,2,versionA_stim.csv,READVersionB.csv,"Read Version B","Dissertation, read only version B",POP,SODA,Study1,S,56,25,Test,User,-,,Recall,Recall2,15146,FIZZY,0,13523,14737,0,0,,1
5e540b9b25baaf40438073bb,yc9sbvq892,Nick_Dissertation_EX1,1,349,2020-06-02T09:47:50-07:00,2.7248709201813,2,versionA_stim.csv,READVersionB.csv,"Read Version B","Dissertation, read only version B",,,,,,0,Instruct,User,-,"You have completed this section. Please press Enter.",,Instruct7,2294,,,-1,-1,,,,1
