Username,ID,ExperimentName,Session,Trial,Date,TimeDif,"Condition Number","Stimuli File","Order File","Condition Description","Condition Notes",Stimuli*Cue,Stimuli*Answer,Stimuli*Shuffle,"Stimuli*Stimuli Notes",Stimuli*Value,Procedure*Item,"Procedure*Trial Type","Procedure*Max Time","Procedure*Min Time",Procedure*Text,"Procedure*Procedure Notes",Procedure*Shuffle,Response*RT,Response*Response,Response*Accuracy,Response*RTfirst,Response*RTlast,Response*strictAcc,Response*lenientAcc,Response*focus,Response*Focus
5eedf5e043cc1623f44baf6e,2z9z5wmrk5,Nick_Dissertation_EX1,1,1,2020-07-08T14:45:24-07:00,13.004519939423,1,versionA_stim.csv,READVersionA.csv,"Read Version A","Dissertation, read only version A",,,,,,0,Instruct,-,10,"Please study each of the following word pairs. Remember that your memory will be tested! When finished, press Enter to move to the next pair.",Initial_Instruct,Instruct1,12707,,,-1,-1,,,,1
5eedf5e043cc1623f44baf6e,2z9z5wmrk5,Nick_Dissertation_EX1,1,2,2020-07-08T14:45:27-07:00,2.3155930042267,1,versionA_stim.csv,READVersionA.csv,"Read Version A","Dissertation, read only version A",BASEBALL,CATCHER,BUFFER1,Buffer,2,2,Study,User,-,,Study/JOL,BUFFER,1848,,,-1,-1,,,,1
5eedf5e043cc1623f44baf6e,2z9z5wmrk5,Nick_Dissertation_EX1,1,3,2020-07-08T14:45:28-07:00,1.5173830986023,1,versionA_stim.csv,READVersionA.csv,"Read Version A","Dissertation, read only version A",SPACE,JAM,BUFFER1,Buffer,5,4,Study,User,-,,Study/JOL,BUFFER,1053,,,-1,-1,,,,1
5eedf5e043cc1623f44baf6e,2z9z5wmrk5,Nick_Dissertation_EX1,1,4,2020-07-08T14:45:30-07:00,1.9976420402527,1,versionA_stim.csv,READVersionA.csv,"Read Version A","Dissertation, read only version A",SCARE,HIDE,BUFFER1,Buffer,4,6,Study,User,-,,Study/JOL,BUFFER,1560,,,-1,-1,,,,1
5eedf5e043cc1623f44baf6e,2z9z5wmrk5,Nick_Dissertation_EX1,1,5,2020-07-08T14:45:32-07:00,1.5061058998108,1,versionA_stim.csv,READVersionA.csv,"Read Version A","Dissertation, read only version A",TREES,GREEN,BUFFER1,Buffer,1,3,Study,User,-,,Study/JOL,BUFFER,1065,,,-1,-1,,,,1
5eedf5e043cc1623f44baf6e,2z9z5wmrk5,Nick_Dissertation_EX1,1,6,2020-07-08T14:45:33-07:00,1.2732260227203,1,versionA_stim.csv,READVersionA.csv,"Read Version A","Dissertation, read only version A",PEANUT,BUTTER,BUFFER1,Buffer,3,5,Study,User,-,,Study/JOL,BUFFER,954,,,-1,-1,,,,1
5eedf5e043cc1623f44baf6e,2z9z5wmrk5,Nick_Dissertation_EX1,1,7,2020-07-08T14:45:35-07:00,1.6296811103821,1,versionA_stim.csv,READVersionA.csv,"Read Version A","Dissertation, read only version A",MATH,DIVISION,Study1,B,33,55,Study,User,-,,Study/JOL,"Study Phase",1171,,,-1,-1,,,,1
5eedf5e043cc1623f44baf6e,2z9z5wmrk5,Nick_Dissertation_EX1,1,8,2020-07-08T14:45:36-07:00,0.9505980014801,1,versionA_stim.csv,READVersionA.csv,"Read Version A","Dissertation, read only version A",FIRE,BLAZE,Study1,B,45,24,Study,User,-,,Study/JOL,"Study Phase",625,,,-1,-1,,,,1
5eedf5e043cc1623f44baf6e,2z9z5wmrk5,Nick_Dissertation_EX1,1,9,2020-07-08T14:45:37-07:00,1.1151309013367,1,versionA_stim.csv,READVersionA.csv,"Read Version A","Dissertation, read only version A",LIFT,WOMAN,Study1,U,69,13,Study,User,-,,Study/JOL,"Study Phase",795,,,-1,-1,,,,1
5eedf5e043cc1623f44baf6e,2z9z5wmrk5,Nick_Dissertation_EX1,1,10,2020-07-08T14:45:38-07:00,1.0488319396973,1,versionA_stim.csv,READVersionA.csv,"Read Version A","Dissertation, read only version A",CIRCLE,ROUND,Study1,S,65,16,Study,User,-,,Study/JOL,"Study Phase",728,,,-1,-1,,,,1
5eedf5e043cc1623f44baf6e,2z9z5wmrk5,Nick_Dissertation_EX1,1,11,2020-07-08T14:45:39-07:00,0.8874180316925,1,versionA_stim.csv,READVersionA.csv,"Read Version A","Dissertation, read only version A",BUG,WASP,Study1,B,32,63,Study,User,-,,Study/JOL,"Study Phase",571,,,-1,-1,,,,1
5eedf5e043cc1623f44baf6e,2z9z5wmrk5,Nick_Dissertation_EX1,1,12,2020-07-08T14:45:40-07:00,0.91589403152466,1,versionA_stim.csv,READVersionA.csv,"Read Version A","Dissertation, read only version A",HYGIENE,CLEAN,Study1,F,17,61,Study,User,-,,Study/JOL,"Study Phase",578,,,-1,-1,,,,1
5eedf5e043cc1623f44baf6e,2z9z5wmrk5,Nick_Dissertation_EX1,1,13,2020-07-08T14:45:41-07:00,0.87209796905518,1,versionA_stim.csv,READVersionA.csv,"Read Version A","Dissertation, read only version A",GRILL,BAR,Study1,S,52,35,Study,User,-,,Study/JOL,"Study Phase",535,,,-1,-1,,,,1
5eedf5e043cc1623f44baf6e,2z9z5wmrk5,Nick_Dissertation_EX1,1,14,2020-07-08T14:45:41-07:00,0.86381411552429,1,versionA_stim.csv,READVersionA.csv,"Read Version A","Dissertation, read only version A",BRIDGE,WATER,Study1,F,18,66,Study,User,-,,Study/JOL,"Study Phase",531,,,-1,-1,,,,1
5eedf5e043cc1623f44baf6e,2z9z5wmrk5,Nick_Dissertation_EX1,1,15,2020-07-08T14:45:42-07:00,0.87674689292908,1,versionA_stim.csv,READVersionA.csv,"Read Version A","Dissertation, read only version A",NUMBER,AMOUNT,Study1,S,47,79,Study,User,-,,Study/JOL,"Study Phase",554,,,-1,-1,,,,1
5eedf5e043cc1623f44baf6e,2z9z5wmrk5,Nick_Dissertation_EX1,1,16,2020-07-08T14:45:43-07:00,1.0831639766693,1,versionA_stim.csv,READVersionA.csv,"Read Version A","Dissertation, read only version A",DISCOVER,FLOOR,Study1,U,71,33,Study,User,-,,Study/JOL,"Study Phase",753,,,-1,-1,,,,1
5eedf5e043cc1623f44baf6e,2z9z5wmrk5,Nick_Dissertation_EX1,1,17,2020-07-08T14:45:44-07:00,0.94527006149292,1,versionA_stim.csv,READVersionA.csv,"Read Version A","Dissertation, read only version A",ROOT,PLANT,Study1,F,13,47,Study,User,-,,Study/JOL,"Study Phase",608,,,-1,-1,,,,1
5eedf5e043cc1623f44baf6e,2z9z5wmrk5,Nick_Dissertation_EX1,1,18,2020-07-08T14:45:45-07:00,0.94574093818665,1,versionA_stim.csv,READVersionA.csv,"Read Version A","Dissertation, read only version A",HONEY,BEE,Study1,S,63,60,Study,User,-,,Study/JOL,"Study Phase",561,,,-1,-1,,,,1
5eedf5e043cc1623f44baf6e,2z9z5wmrk5,Nick_Dissertation_EX1,1,19,2020-07-08T14:45:46-07:00,0.79587697982788,1,versionA_stim.csv,READVersionA.csv,"Read Version A","Dissertation, read only version A",KEY,LATCH,Study1,B,36,21,Study,User,-,,Study/JOL,"Study Phase",456,,,-1,-1,,,,1
5eedf5e043cc1623f44baf6e,2z9z5wmrk5,Nick_Dissertation_EX1,1,20,2020-07-08T14:45:47-07:00,0.82541704177856,1,versionA_stim.csv,READVersionA.csv,"Read Version A","Dissertation, read only version A",BLOW,WIND,Study1,S,55,58,Study,User,-,,Study/JOL,"Study Phase",500,,,-1,-1,,,,1
5eedf5e043cc1623f44baf6e,2z9z5wmrk5,Nick_Dissertation_EX1,1,21,2020-07-08T14:45:48-07:00,0.73214411735535,1,versionA_stim.csv,READVersionA.csv,"Read Version A","Dissertation, read only version A",MACHINE,POSITION,Study1,U,76,70,Study,User,-,,Study/JOL,"Study Phase",410,,,-1,-1,,,,1
5eedf5e043cc1623f44baf6e,2z9z5wmrk5,Nick_Dissertation_EX1,1,22,2020-07-08T14:45:48-07:00,0.79537582397461,1,versionA_stim.csv,READVersionA.csv,"Read Version A","Dissertation, read only version A",DISCUSSION,TALK,Study1,F,21,22,Study,User,-,,Study/JOL,"Study Phase",474,,,-1,-1,,,,1
5eedf5e043cc1623f44baf6e,2z9z5wmrk5,Nick_Dissertation_EX1,1,23,2020-07-08T14:45:49-07:00,0.74521207809448,1,versionA_stim.csv,READVersionA.csv,"Read Version A","Dissertation, read only version A",CREDIT,CARD,Study1,F,23,69,Study,User,-,,Study/JOL,"Study Phase",423,,,-1,-1,,,,1
5eedf5e043cc1623f44baf6e,2z9z5wmrk5,Nick_Dissertation_EX1,1,24,2020-07-08T14:45:50-07:00,0.99246191978455,1,versionA_stim.csv,READVersionA.csv,"Read Version A","Dissertation, read only version A",GEOLOGY,ROCK,Study1,F,19,42,Study,User,-,,Study/JOL,"Study Phase",657,,,-1,-1,,,,1
5eedf5e043cc1623f44baf6e,2z9z5wmrk5,Nick_Dissertation_EX1,1,25,2020-07-08T14:45:51-07:00,1.0374619960785,1,versionA_stim.csv,READVersionA.csv,"Read Version A","Dissertation, read only version A",DIGESTION,STOMACH,Study1,F,7,65,Study,User,-,,Study/JOL,"Study Phase",695,,,-1,-1,,,,1
5eedf5e043cc1623f44baf6e,2z9z5wmrk5,Nick_Dissertation_EX1,1,26,2020-07-08T14:45:53-07:00,1.9893519878387,1,versionA_stim.csv,READVersionA.csv,"Read Version A","Dissertation, read only version A",CASH,WOULD,Study1,U,83,40,Study,User,-,,Study/JOL,"Study Phase",569,,,-1,-1,,,,1
5eedf5e043cc1623f44baf6e,2z9z5wmrk5,Nick_Dissertation_EX1,1,27,2020-07-08T14:45:55-07:00,1.6179761886597,1,versionA_stim.csv,READVersionA.csv,"Read Version A","Dissertation, read only version A",ORCHID,FLOWER,Study1,F,24,74,Study,User,-,,Study/JOL,"Study Phase",1169,,,-1,-1,,,,1
5eedf5e043cc1623f44baf6e,2z9z5wmrk5,Nick_Dissertation_EX1,1,28,2020-07-08T14:45:56-07:00,1.037318944931,1,versionA_stim.csv,READVersionA.csv,"Read Version A","Dissertation, read only version A",BATHROOM,TOILET,Study1,S,58,36,Study,User,-,,Study/JOL,"Study Phase",712,,,-1,-1,,,,1
5eedf5e043cc1623f44baf6e,2z9z5wmrk5,Nick_Dissertation_EX1,1,29,2020-07-08T14:45:58-07:00,1.864490032196,1,versionA_stim.csv,READVersionA.csv,"Read Version A","Dissertation, read only version A",PAST,FUTURE,Study1,S,61,18,Study,User,-,,Study/JOL,"Study Phase",1367,,,-1,-1,,,,1
5eedf5e043cc1623f44baf6e,2z9z5wmrk5,Nick_Dissertation_EX1,1,30,2020-07-08T14:45:59-07:00,0.89851689338684,1,versionA_stim.csv,READVersionA.csv,"Read Version A","Dissertation, read only version A",REVOLUTION,WAR,Study1,F,20,46,Study,User,-,,Study/JOL,"Study Phase",572,,,-1,-1,,,,1
5eedf5e043cc1623f44baf6e,2z9z5wmrk5,Nick_Dissertation_EX1,1,31,2020-07-08T14:45:59-07:00,0.87109112739563,1,versionA_stim.csv,READVersionA.csv,"Read Version A","Dissertation, read only version A",DARK,CAVE,Study1,B,28,54,Study,User,-,,Study/JOL,"Study Phase",544,,,-1,-1,,,,1
5eedf5e043cc1623f44baf6e,2z9z5wmrk5,Nick_Dissertation_EX1,1,32,2020-07-08T14:46:00-07:00,1.0226459503174,1,versionA_stim.csv,READVersionA.csv,"Read Version A","Dissertation, read only version A",ALLOW,TUCK,Study1,U,78,84,Study,User,-,,Study/JOL,"Study Phase",682,,,-1,-1,,,,1
5eedf5e043cc1623f44baf6e,2z9z5wmrk5,Nick_Dissertation_EX1,1,33,2020-07-08T14:46:01-07:00,0.93454599380493,1,versionA_stim.csv,READVersionA.csv,"Read Version A","Dissertation, read only version A",CLOTHES,ATTIRE,Study1,B,43,37,Study,User,-,,Study/JOL,"Study Phase",598,,,-1,-1,,,,1
5eedf5e043cc1623f44baf6e,2z9z5wmrk5,Nick_Dissertation_EX1,1,34,2020-07-08T14:46:02-07:00,0.80998706817627,1,versionA_stim.csv,READVersionA.csv,"Read Version A","Dissertation, read only version A",GREAT,FANTASTIC,Study1,B,35,10,Study,User,-,,Study/JOL,"Study Phase",438,,,-1,-1,,,,1
5eedf5e043cc1623f44baf6e,2z9z5wmrk5,Nick_Dissertation_EX1,1,35,2020-07-08T14:46:03-07:00,0.96662187576294,1,versionA_stim.csv,READVersionA.csv,"Read Version A","Dissertation, read only version A",BITTER,COLD,Study1,F,12,32,Study,User,-,,Study/JOL,"Study Phase",636,,,-1,-1,,,,1
5eedf5e043cc1623f44baf6e,2z9z5wmrk5,Nick_Dissertation_EX1,1,36,2020-07-08T14:46:05-07:00,1.9946799278259,1,versionA_stim.csv,READVersionA.csv,"Read Version A","Dissertation, read only version A",LETTUCE,SALAD,Study1,S,59,56,Study,User,-,,Study/JOL,"Study Phase",656,,,-1,-1,,,,1
5eedf5e043cc1623f44baf6e,2z9z5wmrk5,Nick_Dissertation_EX1,1,37,2020-07-08T14:46:06-07:00,0.87830901145935,1,versionA_stim.csv,READVersionA.csv,"Read Version A","Dissertation, read only version A",HIDE,SICK,Study1,U,84,81,Study,User,-,,Study/JOL,"Study Phase",527,,,-1,-1,,,,1
5eedf5e043cc1623f44baf6e,2z9z5wmrk5,Nick_Dissertation_EX1,1,38,2020-07-08T14:46:07-07:00,0.90308117866516,1,versionA_stim.csv,READVersionA.csv,"Read Version A","Dissertation, read only version A",WORK,CHORE,Study1,B,39,57,Study,User,-,,Study/JOL,"Study Phase",559,,,-1,-1,,,,1
5eedf5e043cc1623f44baf6e,2z9z5wmrk5,Nick_Dissertation_EX1,1,39,2020-07-08T14:46:08-07:00,0.78748488426208,1,versionA_stim.csv,READVersionA.csv,"Read Version A","Dissertation, read only version A",STRONG,ACCIDENT,Study1,U,80,50,Study,User,-,,Study/JOL,"Study Phase",458,,,-1,-1,,,,1
5eedf5e043cc1623f44baf6e,2z9z5wmrk5,Nick_Dissertation_EX1,1,40,2020-07-08T14:46:09-07:00,1.0118930339813,1,versionA_stim.csv,READVersionA.csv,"Read Version A","Dissertation, read only version A",SWAN,BIRD,Study1,F,14,19,Study,User,-,,Study/JOL,"Study Phase",680,,,-1,-1,,,,1
5eedf5e043cc1623f44baf6e,2z9z5wmrk5,Nick_Dissertation_EX1,1,41,2020-07-08T14:46:10-07:00,1.7193169593811,1,versionA_stim.csv,READVersionA.csv,"Read Version A","Dissertation, read only version A",MEANING,DEFINITION,Study1,S,62,23,Study,User,-,,Study/JOL,"Study Phase",1270,,,-1,-1,,,,1
5eedf5e043cc1623f44baf6e,2z9z5wmrk5,Nick_Dissertation_EX1,1,42,2020-07-08T14:46:12-07:00,1.833202123642,1,versionA_stim.csv,READVersionA.csv,"Read Version A","Dissertation, read only version A",ARTERY,BRONZE,Study1,U,74,14,Study,User,-,,Study/JOL,"Study Phase",1372,,,-1,-1,,,,1
5eedf5e043cc1623f44baf6e,2z9z5wmrk5,Nick_Dissertation_EX1,1,43,2020-07-08T14:46:13-07:00,0.8136990070343,1,versionA_stim.csv,READVersionA.csv,"Read Version A","Dissertation, read only version A",WAGE,MONEY,Study1,F,8,82,Study,User,-,,Study/JOL,"Study Phase",484,,,-1,-1,,,,1
5eedf5e043cc1623f44baf6e,2z9z5wmrk5,Nick_Dissertation_EX1,1,44,2020-07-08T14:46:14-07:00,0.88883495330811,1,versionA_stim.csv,READVersionA.csv,"Read Version A","Dissertation, read only version A",ARCHITECTURE,DESIGN,Study1,S,51,7,Study,User,-,,Study/JOL,"Study Phase",552,,,-1,-1,,,,1
5eedf5e043cc1623f44baf6e,2z9z5wmrk5,Nick_Dissertation_EX1,1,45,2020-07-08T14:46:15-07:00,1.0809328556061,1,versionA_stim.csv,READVersionA.csv,"Read Version A","Dissertation, read only version A",PLANE,PILOT,Study1,B,44,78,Study,User,-,,Study/JOL,"Study Phase",743,,,-1,-1,,,,1
5eedf5e043cc1623f44baf6e,2z9z5wmrk5,Nick_Dissertation_EX1,1,46,2020-07-08T14:46:16-07:00,0.97370600700378,1,versionA_stim.csv,READVersionA.csv,"Read Version A","Dissertation, read only version A",DIETARY,SACKING,Study1,U,67,25,Study,User,-,,Study/JOL,"Study Phase",637,,,-1,-1,,,,1
5eedf5e043cc1623f44baf6e,2z9z5wmrk5,Nick_Dissertation_EX1,1,47,2020-07-08T14:46:17-07:00,1.2291250228882,1,versionA_stim.csv,READVersionA.csv,"Read Version A","Dissertation, read only version A",EDITOR,NEWS,Study1,F,10,8,Study,User,-,,Study/JOL,"Study Phase",898,,,-1,-1,,,,1
5eedf5e043cc1623f44baf6e,2z9z5wmrk5,Nick_Dissertation_EX1,1,48,2020-07-08T14:46:18-07:00,1.1995680332184,1,versionA_stim.csv,READVersionA.csv,"Read Version A","Dissertation, read only version A",TAKE,SEIZE,Study1,B,29,43,Study,User,-,,Study/JOL,"Study Phase",872,,,-1,-1,,,,1
5eedf5e043cc1623f44baf6e,2z9z5wmrk5,Nick_Dissertation_EX1,1,49,2020-07-08T14:46:20-07:00,1.0566921234131,1,versionA_stim.csv,READVersionA.csv,"Read Version A","Dissertation, read only version A",SOON,BELT,Study1,U,70,85,Study,User,-,,Study/JOL,"Study Phase",724,,,-1,-1,,,,1
5eedf5e043cc1623f44baf6e,2z9z5wmrk5,Nick_Dissertation_EX1,1,50,2020-07-08T14:46:20-07:00,0.9083788394928,1,versionA_stim.csv,READVersionA.csv,"Read Version A","Dissertation, read only version A",LOCATION,SITE,Study1,S,48,64,Study,User,-,,Study/JOL,"Study Phase",561,,,-1,-1,,,,1
5eedf5e043cc1623f44baf6e,2z9z5wmrk5,Nick_Dissertation_EX1,1,51,2020-07-08T14:46:21-07:00,0.85612416267395,1,versionA_stim.csv,READVersionA.csv,"Read Version A","Dissertation, read only version A",SENTENCE,WORD,Study1,B,31,75,Study,User,-,,Study/JOL,"Study Phase",527,,,-1,-1,,,,1
5eedf5e043cc1623f44baf6e,2z9z5wmrk5,Nick_Dissertation_EX1,1,52,2020-07-08T14:46:22-07:00,1.152843952179,1,versionA_stim.csv,READVersionA.csv,"Read Version A","Dissertation, read only version A",BEGIN,END,Study1,S,54,86,Study,User,-,,Study/JOL,"Study Phase",811,,,-1,-1,,,,1
5eedf5e043cc1623f44baf6e,2z9z5wmrk5,Nick_Dissertation_EX1,1,53,2020-07-08T14:46:23-07:00,0.95533394813538,1,versionA_stim.csv,READVersionA.csv,"Read Version A","Dissertation, read only version A",DEATH,BUSINESS,Study1,U,72,77,Study,User,-,,Study/JOL,"Study Phase",595,,,-1,-1,,,,1
5eedf5e043cc1623f44baf6e,2z9z5wmrk5,Nick_Dissertation_EX1,1,54,2020-07-08T14:46:24-07:00,0.81451201438904,1,versionA_stim.csv,READVersionA.csv,"Read Version A","Dissertation, read only version A",FIX,HAND,Study1,U,75,48,Study,User,-,,Study/JOL,"Study Phase",491,,,-1,-1,,,,1
5eedf5e043cc1623f44baf6e,2z9z5wmrk5,Nick_Dissertation_EX1,1,55,2020-07-08T14:46:26-07:00,1.4456958770752,1,versionA_stim.csv,READVersionA.csv,"Read Version A","Dissertation, read only version A",VALLEY,ADD,Study1,U,82,20,Study,User,-,,Study/JOL,"Study Phase",1005,,,-1,-1,,,,1
5eedf5e043cc1623f44baf6e,2z9z5wmrk5,Nick_Dissertation_EX1,1,56,2020-07-08T14:46:27-07:00,0.88107514381409,1,versionA_stim.csv,READVersionA.csv,"Read Version A","Dissertation, read only version A",SLEEP,DROWSY,Study1,B,41,26,Study,User,-,,Study/JOL,"Study Phase",555,,,-1,-1,,,,1
5eedf5e043cc1623f44baf6e,2z9z5wmrk5,Nick_Dissertation_EX1,1,57,2020-07-08T14:46:27-07:00,0.7903618812561,1,versionA_stim.csv,READVersionA.csv,"Read Version A","Dissertation, read only version A",KING,VASE,Study1,U,85,12,Study,User,-,,Study/JOL,"Study Phase",463,,,-1,-1,,,,1
5eedf5e043cc1623f44baf6e,2z9z5wmrk5,Nick_Dissertation_EX1,1,58,2020-07-08T14:46:28-07:00,0.9108669757843,1,versionA_stim.csv,READVersionA.csv,"Read Version A","Dissertation, read only version A",HORNET,STING,Study1,F,11,27,Study,User,-,,Study/JOL,"Study Phase",562,,,-1,-1,,,,1
5eedf5e043cc1623f44baf6e,2z9z5wmrk5,Nick_Dissertation_EX1,1,59,2020-07-08T14:46:29-07:00,0.79060816764832,1,versionA_stim.csv,READVersionA.csv,"Read Version A","Dissertation, read only version A",DRINK,SIP,Study1,B,27,44,Study,User,-,,Study/JOL,"Study Phase",463,,,-1,-1,,,,1
5eedf5e043cc1623f44baf6e,2z9z5wmrk5,Nick_Dissertation_EX1,1,60,2020-07-08T14:46:31-07:00,1.4961049556732,1,versionA_stim.csv,READVersionA.csv,"Read Version A","Dissertation, read only version A",PAW,DOG,Study1,F,15,83,Study,User,-,,Study/JOL,"Study Phase",1055,,,-1,-1,,,,1
5eedf5e043cc1623f44baf6e,2z9z5wmrk5,Nick_Dissertation_EX1,1,61,2020-07-08T14:46:32-07:00,1.7624049186707,1,versionA_stim.csv,READVersionA.csv,"Read Version A","Dissertation, read only version A",HUNGER,FAMINE,Study1,B,40,59,Study,User,-,,Study/JOL,"Study Phase",440,,,-1,-1,,,,1
5eedf5e043cc1623f44baf6e,2z9z5wmrk5,Nick_Dissertation_EX1,1,62,2020-07-08T14:46:34-07:00,1.8420360088348,1,versionA_stim.csv,READVersionA.csv,"Read Version A","Dissertation, read only version A",BABY,CHILD,Study1,S,64,11,Study,User,-,,Study/JOL,"Study Phase",1375,,,-1,-1,,,,1
5eedf5e043cc1623f44baf6e,2z9z5wmrk5,Nick_Dissertation_EX1,1,63,2020-07-08T14:46:36-07:00,2.2053921222687,1,versionA_stim.csv,READVersionA.csv,"Read Version A","Dissertation, read only version A",ART,LION,Study1,U,79,62,Study,User,-,,Study/JOL,"Study Phase",762,,,-1,-1,,,,1
5eedf5e043cc1623f44baf6e,2z9z5wmrk5,Nick_Dissertation_EX1,1,64,2020-07-08T14:46:38-07:00,1.8377568721771,1,versionA_stim.csv,READVersionA.csv,"Read Version A","Dissertation, read only version A",HERD,COW,Study1,F,22,15,Study,User,-,,Study/JOL,"Study Phase",1385,,,-1,-1,,,,1
5eedf5e043cc1623f44baf6e,2z9z5wmrk5,Nick_Dissertation_EX1,1,65,2020-07-08T14:46:39-07:00,0.93146300315857,1,versionA_stim.csv,READVersionA.csv,"Read Version A","Dissertation, read only version A",PARK,HUNGRY,Study1,U,68,31,Study,User,-,,Study/JOL,"Study Phase",596,,,-1,-1,,,,1
5eedf5e043cc1623f44baf6e,2z9z5wmrk5,Nick_Dissertation_EX1,1,66,2020-07-08T14:46:40-07:00,1.1954131126404,1,versionA_stim.csv,READVersionA.csv,"Read Version A","Dissertation, read only version A",DEBATE,SIGHT,Study1,U,73,49,Study,User,-,,Study/JOL,"Study Phase",866,,,-1,-1,,,,1
5eedf5e043cc1623f44baf6e,2z9z5wmrk5,Nick_Dissertation_EX1,1,67,2020-07-08T14:46:42-07:00,2.0346019268036,1,versionA_stim.csv,READVersionA.csv,"Read Version A","Dissertation, read only version A",PUSHER,CLUTTER,Study1,U,66,30,Study,User,-,,Study/JOL,"Study Phase",1569,,,-1,-1,,,,1
5eedf5e043cc1623f44baf6e,2z9z5wmrk5,Nick_Dissertation_EX1,1,68,2020-07-08T14:46:43-07:00,0.97376203536987,1,versionA_stim.csv,READVersionA.csv,"Read Version A","Dissertation, read only version A",DUMP,WASTE,Study1,S,49,28,Study,User,-,,Study/JOL,"Study Phase",634,,,-1,-1,,,,1
5eedf5e043cc1623f44baf6e,2z9z5wmrk5,Nick_Dissertation_EX1,1,69,2020-07-08T14:46:44-07:00,0.81517291069031,1,versionA_stim.csv,READVersionA.csv,"Read Version A","Dissertation, read only version A",KIDNEY,LIVER,Study1,S,53,51,Study,User,-,,Study/JOL,"Study Phase",484,,,-1,-1,,,,1
5eedf5e043cc1623f44baf6e,2z9z5wmrk5,Nick_Dissertation_EX1,1,70,2020-07-08T14:46:45-07:00,0.87724709510803,1,versionA_stim.csv,READVersionA.csv,"Read Version A","Dissertation, read only version A",BALL,RACKET,Study1,B,38,9,Study,User,-,,Study/JOL,"Study Phase",533,,,-1,-1,,,,1
5eedf5e043cc1623f44baf6e,2z9z5wmrk5,Nick_Dissertation_EX1,1,71,2020-07-08T14:46:46-07:00,1.1440479755402,1,versionA_stim.csv,READVersionA.csv,"Read Version A","Dissertation, read only version A",TRIAL,JURY,Study1,S,50,39,Study,User,-,,Study/JOL,"Study Phase",807,,,-1,-1,,,,1
5eedf5e043cc1623f44baf6e,2z9z5wmrk5,Nick_Dissertation_EX1,1,72,2020-07-08T14:46:47-07:00,0.78259801864624,1,versionA_stim.csv,READVersionA.csv,"Read Version A","Dissertation, read only version A",WINE,CHEESE,Study1,S,57,38,Study,User,-,,Study/JOL,"Study Phase",451,,,-1,-1,,,,1
5eedf5e043cc1623f44baf6e,2z9z5wmrk5,Nick_Dissertation_EX1,1,73,2020-07-08T14:46:48-07:00,0.7367799282074,1,versionA_stim.csv,READVersionA.csv,"Read Version A","Dissertation, read only version A",HOT,CHILI,Study1,B,37,52,Study,User,-,,Study/JOL,"Study Phase",400,,,-1,-1,,,,1
5eedf5e043cc1623f44baf6e,2z9z5wmrk5,Nick_Dissertation_EX1,1,74,2020-07-08T14:46:49-07:00,1.2312841415405,1,versionA_stim.csv,READVersionA.csv,"Read Version A","Dissertation, read only version A",FULL,ENOUGH,Study1,B,26,34,Study,User,-,,Study/JOL,"Study Phase",897,,,-1,-1,,,,1
5eedf5e043cc1623f44baf6e,2z9z5wmrk5,Nick_Dissertation_EX1,1,75,2020-07-08T14:46:50-07:00,0.84680891036987,1,versionA_stim.csv,READVersionA.csv,"Read Version A","Dissertation, read only version A",TUNA,FISH,Study1,F,25,73,Study,User,-,,Study/JOL,"Study Phase",526,,,-1,-1,,,,1
5eedf5e043cc1623f44baf6e,2z9z5wmrk5,Nick_Dissertation_EX1,1,76,2020-07-08T14:46:51-07:00,0.95088291168213,1,versionA_stim.csv,READVersionA.csv,"Read Version A","Dissertation, read only version A",SMELL,STENCH,Study1,B,42,53,Study,User,-,,Study/JOL,"Study Phase",624,,,-1,-1,,,,1
5eedf5e043cc1623f44baf6e,2z9z5wmrk5,Nick_Dissertation_EX1,1,77,2020-07-08T14:46:52-07:00,1.4782381057739,1,versionA_stim.csv,READVersionA.csv,"Read Version A","Dissertation, read only version A",LAW,ATTORNEY,Study1,B,34,71,Study,User,-,,Study/JOL,"Study Phase",1034,,,-1,-1,,,,1
5eedf5e043cc1623f44baf6e,2z9z5wmrk5,Nick_Dissertation_EX1,1,78,2020-07-08T14:46:54-07:00,1.8845679759979,1,versionA_stim.csv,READVersionA.csv,"Read Version A","Dissertation, read only version A",SHOE,FOOT,Study1,S,60,80,Study,User,-,,Study/JOL,"Study Phase",548,,,-1,-1,,,,1
5eedf5e043cc1623f44baf6e,2z9z5wmrk5,Nick_Dissertation_EX1,1,79,2020-07-08T14:46:55-07:00,0.89200592041016,1,versionA_stim.csv,READVersionA.csv,"Read Version A","Dissertation, read only version A",HEIGHT,GROWTH,Study1,B,30,17,Study,User,-,,Study/JOL,"Study Phase",505,,,-1,-1,,,,1
5eedf5e043cc1623f44baf6e,2z9z5wmrk5,Nick_Dissertation_EX1,1,80,2020-07-08T14:46:56-07:00,0.96817398071289,1,versionA_stim.csv,READVersionA.csv,"Read Version A","Dissertation, read only version A",HAPPY,CAR,Study1,U,77,68,Study,User,-,,Study/JOL,"Study Phase",623,,,-1,-1,,,,1
5eedf5e043cc1623f44baf6e,2z9z5wmrk5,Nick_Dissertation_EX1,1,81,2020-07-08T14:46:57-07:00,1.1416630744934,1,versionA_stim.csv,READVersionA.csv,"Read Version A","Dissertation, read only version A",CHISEL,HAMMER,Study1,F,9,45,Study,User,-,,Study/JOL,"Study Phase",800,,,-1,-1,,,,1
5eedf5e043cc1623f44baf6e,2z9z5wmrk5,Nick_Dissertation_EX1,1,82,2020-07-08T14:47:04-07:00,6.4868030548096,1,versionA_stim.csv,READVersionA.csv,"Read Version A","Dissertation, read only version A",POP,SODA,Study1,S,56,72,Study,User,-,,Study/JOL,"Study Phase",6061,,,-1,-1,,,,1
5eedf5e043cc1623f44baf6e,2z9z5wmrk5,Nick_Dissertation_EX1,1,83,2020-07-08T14:47:04-07:00,0.9021270275116,1,versionA_stim.csv,READVersionA.csv,"Read Version A","Dissertation, read only version A",WAY,OUT,Study1,F,16,41,Study,User,-,,Study/JOL,"Study Phase",561,,,-1,-1,,,,1
5eedf5e043cc1623f44baf6e,2z9z5wmrk5,Nick_Dissertation_EX1,1,84,2020-07-08T14:47:05-07:00,0.82456088066101,1,versionA_stim.csv,READVersionA.csv,"Read Version A","Dissertation, read only version A",DELINQUENT,BAD,Study1,F,6,29,Study,User,-,,Study/JOL,"Study Phase",490,,,-1,-1,,,,1
5eedf5e043cc1623f44baf6e,2z9z5wmrk5,Nick_Dissertation_EX1,1,85,2020-07-08T14:47:06-07:00,1.1775391101837,1,versionA_stim.csv,READVersionA.csv,"Read Version A","Dissertation, read only version A",DUE,ASSIGNMENT,Study1,S,46,67,Study,User,-,,Study/JOL,"Study Phase",849,,,-1,-1,,,,1
5eedf5e043cc1623f44baf6e,2z9z5wmrk5,Nick_Dissertation_EX1,1,86,2020-07-08T14:47:09-07:00,2.3505399227142,1,versionA_stim.csv,READVersionA.csv,"Read Version A","Dissertation, read only version A",SUGAR,RIDDLE,Study1,U,81,76,Study,User,-,,Study/JOL,"Study Phase",1902,,,-1,-1,,,,1
5eedf5e043cc1623f44baf6e,2z9z5wmrk5,Nick_Dissertation_EX1,1,87,2020-07-08T14:47:10-07:00,1.0012650489807,1,versionA_stim.csv,READVersionA.csv,"Read Version A","Dissertation, read only version A",MALT,CHOCOLATE,BUFFER2,Buffer,88,90,Study,User,-,,Study/JOL,BUFFER2,663,,,-1,-1,,,,1
5eedf5e043cc1623f44baf6e,2z9z5wmrk5,Nick_Dissertation_EX1,1,88,2020-07-08T14:47:11-07:00,0.97045707702637,1,versionA_stim.csv,READVersionA.csv,"Read Version A","Dissertation, read only version A",MOON,SPACE,BUFFER2,Buffer,89,88,Study,User,-,,Study/JOL,BUFFER2,639,,,-1,-1,,,,1
5eedf5e043cc1623f44baf6e,2z9z5wmrk5,Nick_Dissertation_EX1,1,89,2020-07-08T14:47:12-07:00,0.94002795219421,1,versionA_stim.csv,READVersionA.csv,"Read Version A","Dissertation, read only version A",GEESE,GOOSE,BUFFER2,Buffer,86,89,Study,User,-,,Study/JOL,BUFFER2,596,,,-1,-1,,,,1
5eedf5e043cc1623f44baf6e,2z9z5wmrk5,Nick_Dissertation_EX1,1,90,2020-07-08T14:47:13-07:00,0.95051288604736,1,versionA_stim.csv,READVersionA.csv,"Read Version A","Dissertation, read only version A",THING,STUFF,BUFFER2,Buffer,90,87,Study,User,-,,Study/JOL,BUFFER2,592,,,-1,-1,,,,1
5eedf5e043cc1623f44baf6e,2z9z5wmrk5,Nick_Dissertation_EX1,1,91,2020-07-08T14:47:14-07:00,0.9016649723053,1,versionA_stim.csv,READVersionA.csv,"Read Version A","Dissertation, read only version A",SHERRIF,POLICE,BUFFER2,Buffer,87,91,Study,User,-,,Study/JOL,BUFFER2,501,,,-1,-1,,,,1
5eedf5e043cc1623f44baf6e,2z9z5wmrk5,Nick_Dissertation_EX1,1,92,2020-07-08T14:47:16-07:00,2.0535221099854,1,versionA_stim.csv,READVersionA.csv,"Read Version A","Dissertation, read only version A",,,,,,0,Instruct,User,-,"You have completed this section. Please press Enter.",Filler_Instruction,Instruct2,1607,,,-1,-1,,,,1
5eedf5e043cc1623f44baf6e,2z9z5wmrk5,Nick_Dissertation_EX1,1,93,2020-07-08T14:49:17-07:00,121.10966897011,1,versionA_stim.csv,READVersionA.csv,"Read Version A","Dissertation, read only version A",,,,,,0,FreeRecall,120,120,"Please list the 50 US states in alphabetical order. The task will automatically advance to the next screen after two minutes.",,Filler1,120646,"Alaska Arizona Arkansas California Connecticut Florida Georgia Hawaii Illinois Kansas Louisiana Maine Massacheusets ",0,25264,116401,0,0,,0.88
5eedf5e043cc1623f44baf6e,2z9z5wmrk5,Nick_Dissertation_EX1,1,94,2020-07-08T14:49:28-07:00,11.18775510788,1,versionA_stim.csv,READVersionA.csv,"Read Version A","Dissertation, read only version A",,,,,,0,Instruct,-,10,"You will now be presented with the first word from each of the previously studied item pairs. Please type the missing word. If you do not know the word, you may guess or press Enter to skip forward to the next pair.",,Instruct3,10716,,,-1,-1,,,,0.769
5eedf5e043cc1623f44baf6e,2z9z5wmrk5,Nick_Dissertation_EX1,1,95,2020-07-08T14:49:31-07:00,3.3777058124542,1,versionA_stim.csv,READVersionA.csv,"Read Version A","Dissertation, read only version A",CLOTHES,ATTIRE,Study1,B,43,37,Test,User,-,,Recall,Recall1,2926,peg,22.222222222222,1708,2037,0,0,,1
5eedf5e043cc1623f44baf6e,2z9z5wmrk5,Nick_Dissertation_EX1,1,96,2020-07-08T14:49:36-07:00,4.2357091903687,1,versionA_stim.csv,READVersionA.csv,"Read Version A","Dissertation, read only version A",HUNGER,FAMINE,Study1,B,40,59,Test,User,-,,Recall,Recall1,3761,gone,40,2846,3051,0,0,,1
5eedf5e043cc1623f44baf6e,2z9z5wmrk5,Nick_Dissertation_EX1,1,97,2020-07-08T14:49:40-07:00,4.3401198387146,1,versionA_stim.csv,READVersionA.csv,"Read Version A","Dissertation, read only version A",GRILL,BAR,Study1,S,52,35,Test,User,-,,Recall,Recall1,3873,master,44.444444444444,2108,2947,0,0,,1
5eedf5e043cc1623f44baf6e,2z9z5wmrk5,Nick_Dissertation_EX1,1,98,2020-07-08T14:49:44-07:00,4.525032043457,1,versionA_stim.csv,READVersionA.csv,"Read Version A","Dissertation, read only version A",MACHINE,POSITION,Study1,U,76,70,Test,User,-,,Recall,Recall1,4071,on,40,3046,3095,0,0,,1
5eedf5e043cc1623f44baf6e,2z9z5wmrk5,Nick_Dissertation_EX1,1,99,2020-07-08T14:49:48-07:00,3.5710461139679,1,versionA_stim.csv,READVersionA.csv,"Read Version A","Dissertation, read only version A",ARTERY,BRONZE,Study1,U,74,14,Test,User,-,,Recall,Recall1,3116,liver,18.181818181818,1747,2259,0,0,,1
5eedf5e043cc1623f44baf6e,2z9z5wmrk5,Nick_Dissertation_EX1,1,100,2020-07-08T14:49:52-07:00,4.4811358451843,1,versionA_stim.csv,READVersionA.csv,"Read Version A","Dissertation, read only version A",CIRCLE,ROUND,Study1,S,65,16,Test,User,-,,Recall,Recall1,4021,square,18.181818181818,1543,2788,0,0,,1
5eedf5e043cc1623f44baf6e,2z9z5wmrk5,Nick_Dissertation_EX1,1,101,2020-07-08T14:50:08-07:00,15.17120718956,1,versionA_stim.csv,READVersionA.csv,"Read Version A","Dissertation, read only version A",ART,LION,Study1,U,79,62,Test,User,-,,Recall,Recall1,14715,gallery,18.181818181818,5705,13389,0,0,,1
5eedf5e043cc1623f44baf6e,2z9z5wmrk5,Nick_Dissertation_EX1,1,102,2020-07-08T14:50:10-07:00,2.6801009178162,1,versionA_stim.csv,READVersionA.csv,"Read Version A","Dissertation, read only version A",TUNA,FISH,Study1,F,25,73,Test,User,-,,Recall,Recall1,2222,fish,100,973,1286,1,1,,1
5eedf5e043cc1623f44baf6e,2z9z5wmrk5,Nick_Dissertation_EX1,1,103,2020-07-08T14:50:15-07:00,4.5674839019775,1,versionA_stim.csv,READVersionA.csv,"Read Version A","Dissertation, read only version A",DEBATE,SIGHT,Study1,U,73,49,Test,User,-,,Recall,Recall1,4111,discussion,26.666666666667,1683,3300,0,0,,1
5eedf5e043cc1623f44baf6e,2z9z5wmrk5,Nick_Dissertation_EX1,1,104,2020-07-08T14:50:19-07:00,4.0119261741638,1,versionA_stim.csv,READVersionA.csv,"Read Version A","Dissertation, read only version A",DIETARY,SACKING,Study1,U,67,25,Test,User,-,,Recall,Recall1,3546,plan,36.363636363636,1550,1942,0,0,,1
5eedf5e043cc1623f44baf6e,2z9z5wmrk5,Nick_Dissertation_EX1,1,105,2020-07-08T14:50:22-07:00,3.5959198474884,1,versionA_stim.csv,READVersionA.csv,"Read Version A","Dissertation, read only version A",BALL,RACKET,Study1,B,38,9,Test,User,-,,Recall,Recall1,3149,catcher,30.769230769231,1475,2345,0,0,,1
5eedf5e043cc1623f44baf6e,2z9z5wmrk5,Nick_Dissertation_EX1,1,106,2020-07-08T14:50:33-07:00,10.574991941452,1,versionA_stim.csv,READVersionA.csv,"Read Version A","Dissertation, read only version A",DRINK,SIP,Study1,B,27,44,Test,User,-,,Recall,Recall1,10109,water,0,8811,9382,0,0,,1
5eedf5e043cc1623f44baf6e,2z9z5wmrk5,Nick_Dissertation_EX1,1,107,2020-07-08T14:50:37-07:00,3.6444230079651,1,versionA_stim.csv,READVersionA.csv,"Read Version A","Dissertation, read only version A",PARK,HUNGRY,Study1,U,68,31,Test,User,-,,Recall,Recall1,3181,ball,0,1895,2286,0,0,,1
5eedf5e043cc1623f44baf6e,2z9z5wmrk5,Nick_Dissertation_EX1,1,108,2020-07-08T14:50:41-07:00,4.1259951591492,1,versionA_stim.csv,READVersionA.csv,"Read Version A","Dissertation, read only version A",CASH,WOULD,Study1,U,83,40,Test,User,-,,Recall,Recall1,3655,made,22.222222222222,1861,2198,0,0,,1
5eedf5e043cc1623f44baf6e,2z9z5wmrk5,Nick_Dissertation_EX1,1,109,2020-07-08T14:50:45-07:00,4.3028390407562,1,versionA_stim.csv,READVersionA.csv,"Read Version A","Dissertation, read only version A",KING,VASE,Study1,U,85,12,Test,User,-,,Recall,Recall1,2777,fish,25,1575,1944,0,0,,1
5eedf5e043cc1623f44baf6e,2z9z5wmrk5,Nick_Dissertation_EX1,1,110,2020-07-08T14:50:48-07:00,3.1113619804382,1,versionA_stim.csv,READVersionA.csv,"Read Version A","Dissertation, read only version A",KIDNEY,LIVER,Study1,S,53,51,Test,User,-,,Recall,Recall1,2592,liver,100,1515,1949,1,1,,1
5eedf5e043cc1623f44baf6e,2z9z5wmrk5,Nick_Dissertation_EX1,1,111,2020-07-08T14:50:55-07:00,6.8278160095215,1,versionA_stim.csv,READVersionA.csv,"Read Version A","Dissertation, read only version A",NUMBER,AMOUNT,Study1,S,47,79,Test,User,-,,Recall,Recall1,6349,word,20,5266,5650,0,0,,1
5eedf5e043cc1623f44baf6e,2z9z5wmrk5,Nick_Dissertation_EX1,1,112,2020-07-08T14:51:04-07:00,9.0450298786163,1,versionA_stim.csv,READVersionA.csv,"Read Version A","Dissertation, read only version A",SLEEP,DROWSY,Study1,B,41,26,Test,User,-,,Recall,Recall1,8534,awake,18.181818181818,2714,7476,0,0,,1
5eedf5e043cc1623f44baf6e,2z9z5wmrk5,Nick_Dissertation_EX1,1,113,2020-07-08T14:51:08-07:00,4.0448501110077,1,versionA_stim.csv,READVersionA.csv,"Read Version A","Dissertation, read only version A",WAGE,MONEY,Study1,F,8,82,Test,User,-,,Recall,Recall1,3576,master,36.363636363636,1828,2755,0,0,,1
5eedf5e043cc1623f44baf6e,2z9z5wmrk5,Nick_Dissertation_EX1,1,114,2020-07-08T14:51:12-07:00,3.9028549194336,1,versionA_stim.csv,READVersionA.csv,"Read Version A","Dissertation, read only version A",PAW,DOG,Study1,F,15,83,Test,User,-,,Recall,Recall1,3434,bear,0,2167,2726,0,0,,1
5eedf5e043cc1623f44baf6e,2z9z5wmrk5,Nick_Dissertation_EX1,1,115,2020-07-08T14:51:15-07:00,3.1640560626984,1,versionA_stim.csv,READVersionA.csv,"Read Version A","Dissertation, read only version A",GEOLOGY,ROCK,Study1,F,19,42,Test,User,-,,Recall,Recall1,2611,rock,100,1440,1747,1,1,,1
5eedf5e043cc1623f44baf6e,2z9z5wmrk5,Nick_Dissertation_EX1,1,116,2020-07-08T14:51:21-07:00,6.0665588378906,1,versionA_stim.csv,READVersionA.csv,"Read Version A","Dissertation, read only version A",SHOE,FOOT,Study1,S,60,80,Test,User,-,,Recall,Recall1,5585,gaze,0,3389,4473,0,0,,1
5eedf5e043cc1623f44baf6e,2z9z5wmrk5,Nick_Dissertation_EX1,1,117,2020-07-08T14:51:27-07:00,5.377377986908,1,versionA_stim.csv,READVersionA.csv,"Read Version A","Dissertation, read only version A",LETTUCE,SALAD,Study1,S,59,56,Test,User,-,,Recall,Recall1,4917,tomato,18.181818181818,2271,3548,0,0,,1
5eedf5e043cc1623f44baf6e,2z9z5wmrk5,Nick_Dissertation_EX1,1,118,2020-07-08T14:51:32-07:00,5.0731739997864,1,versionA_stim.csv,READVersionA.csv,"Read Version A","Dissertation, read only version A",HERD,COW,Study1,F,22,15,Test,User,-,,Recall,Recall1,4599,sheep,0,3234,4067,0,0,,1
5eedf5e043cc1623f44baf6e,2z9z5wmrk5,Nick_Dissertation_EX1,1,119,2020-07-08T14:51:35-07:00,3.615326166153,1,versionA_stim.csv,READVersionA.csv,"Read Version A","Dissertation, read only version A",REVOLUTION,WAR,Study1,F,20,46,Test,User,-,,Recall,Recall1,3112,war,100,1952,2234,1,1,,1
5eedf5e043cc1623f44baf6e,2z9z5wmrk5,Nick_Dissertation_EX1,1,120,2020-07-08T14:51:39-07:00,4.0145168304443,1,versionA_stim.csv,READVersionA.csv,"Read Version A","Dissertation, read only version A",DISCOVER,FLOOR,Study1,U,71,33,Test,User,-,,Recall,Recall1,3530,more,44.444444444444,2157,2459,0,0,,1
5eedf5e043cc1623f44baf6e,2z9z5wmrk5,Nick_Dissertation_EX1,1,121,2020-07-08T14:51:44-07:00,5.0027410984039,1,versionA_stim.csv,READVersionA.csv,"Read Version A","Dissertation, read only version A",EDITOR,NEWS,Study1,F,10,8,Test,User,-,,Recall,Recall1,4537,paper,22.222222222222,2727,4160,0,0,,1
5eedf5e043cc1623f44baf6e,2z9z5wmrk5,Nick_Dissertation_EX1,1,122,2020-07-08T14:51:52-07:00,7.95259308815,1,versionA_stim.csv,READVersionA.csv,"Read Version A","Dissertation, read only version A",BEGIN,END,Study1,S,54,86,Test,User,-,,Recall,Recall1,7503,finished,36.363636363636,3674,5556,0,0,,1
5eedf5e043cc1623f44baf6e,2z9z5wmrk5,Nick_Dissertation_EX1,1,123,2020-07-08T14:51:58-07:00,5.3324790000916,1,versionA_stim.csv,READVersionA.csv,"Read Version A","Dissertation, read only version A",DARK,CAVE,Study1,B,28,54,Test,User,-,,Recall,Recall1,4880,light,0,2114,2601,0,0,,1
5eedf5e043cc1623f44baf6e,2z9z5wmrk5,Nick_Dissertation_EX1,1,124,2020-07-08T14:52:01-07:00,3.820417881012,1,versionA_stim.csv,READVersionA.csv,"Read Version A","Dissertation, read only version A",POP,SODA,Study1,S,56,72,Test,User,-,,Recall,Recall1,3358,corn,25,2486,2870,0,0,,1
5eedf5e043cc1623f44baf6e,2z9z5wmrk5,Nick_Dissertation_EX1,1,125,2020-07-08T14:52:08-07:00,6.3983099460602,1,versionA_stim.csv,READVersionA.csv,"Read Version A","Dissertation, read only version A",HEIGHT,GROWTH,Study1,B,30,17,Test,User,-,,Recall,Recall1,5929,over,20,3693,4554,0,0,,1
5eedf5e043cc1623f44baf6e,2z9z5wmrk5,Nick_Dissertation_EX1,1,126,2020-07-08T14:52:14-07:00,5.9289801120758,1,versionA_stim.csv,READVersionA.csv,"Read Version A","Dissertation, read only version A",DELINQUENT,BAD,Study1,F,6,29,Test,User,-,,Recall,Recall1,5459,crime,0,4263,4976,0,0,,1
5eedf5e043cc1623f44baf6e,2z9z5wmrk5,Nick_Dissertation_EX1,1,127,2020-07-08T14:52:16-07:00,2.3051190376282,1,versionA_stim.csv,READVersionA.csv,"Read Version A","Dissertation, read only version A",DUE,ASSIGNMENT,Study1,S,46,67,Test,User,-,,Recall,Recall1,1837,date,28.571428571429,1057,1486,0,0,,1
5eedf5e043cc1623f44baf6e,2z9z5wmrk5,Nick_Dissertation_EX1,1,128,2020-07-08T14:52:21-07:00,4.9166789054871,1,versionA_stim.csv,READVersionA.csv,"Read Version A","Dissertation, read only version A",ORCHID,FLOWER,Study1,F,24,74,Test,User,-,,Recall,Recall1,4438,apple,36.363636363636,1989,2628,0,0,,1
5eedf5e043cc1623f44baf6e,2z9z5wmrk5,Nick_Dissertation_EX1,1,129,2020-07-08T14:52:32-07:00,10.780359983444,1,versionA_stim.csv,READVersionA.csv,"Read Version A","Dissertation, read only version A",GREAT,FANTASTIC,Study1,B,35,10,Test,User,-,,Recall,Recall1,10329,poor,0,8608,9956,0,0,,1
5eedf5e043cc1623f44baf6e,2z9z5wmrk5,Nick_Dissertation_EX1,1,130,2020-07-08T14:52:36-07:00,4.2802021503448,1,versionA_stim.csv,READVersionA.csv,"Read Version A","Dissertation, read only version A",BRIDGE,WATER,Study1,F,18,66,Test,User,-,,Recall,Recall1,3820,water,100,2587,3459,1,1,,1
5eedf5e043cc1623f44baf6e,2z9z5wmrk5,Nick_Dissertation_EX1,1,131,2020-07-08T14:52:53-07:00,16.991072893143,1,versionA_stim.csv,READVersionA.csv,"Read Version A","Dissertation, read only version A",ALLOW,TUCK,Study1,U,78,84,Test,User,-,,Recall,Recall1,16494,never,0,12540,13238,0,0,,1
5eedf5e043cc1623f44baf6e,2z9z5wmrk5,Nick_Dissertation_EX1,1,132,2020-07-08T14:53:09-07:00,15.75347495079,1,versionA_stim.csv,READVersionA.csv,"Read Version A","Dissertation, read only version A",DEATH,BUSINESS,Study1,U,72,77,Test,User,-,,Recall,Recall1,15289,life,33.333333333333,14070,14794,0,0,,1
5eedf5e043cc1623f44baf6e,2z9z5wmrk5,Nick_Dissertation_EX1,1,133,2020-07-08T14:53:27-07:00,18.268483161926,1,versionA_stim.csv,READVersionA.csv,"Read Version A","Dissertation, read only version A",HIDE,SICK,Study1,U,84,81,Test,User,-,,Recall,Recall1,16814,seek,50,14934,16435,0,0,,1
5eedf5e043cc1623f44baf6e,2z9z5wmrk5,Nick_Dissertation_EX1,1,134,2020-07-08T14:53:30-07:00,3.2463119029999,1,versionA_stim.csv,READVersionA.csv,"Read Version A","Dissertation, read only version A",CREDIT,CARD,Study1,F,23,69,Test,User,-,,Recall,Recall1,2747,card,100,1858,2476,1,1,,1
5eedf5e043cc1623f44baf6e,2z9z5wmrk5,Nick_Dissertation_EX1,1,135,2020-07-08T14:53:33-07:00,2.1887209415436,1,versionA_stim.csv,READVersionA.csv,"Read Version A","Dissertation, read only version A",PAST,FUTURE,Study1,S,61,18,Test,User,-,,Recall,Recall1,1734,tense,36.363636363636,1106,1621,0,0,,1
5eedf5e043cc1623f44baf6e,2z9z5wmrk5,Nick_Dissertation_EX1,1,136,2020-07-08T14:53:37-07:00,4.1129260063171,1,versionA_stim.csv,READVersionA.csv,"Read Version A","Dissertation, read only version A",PLANE,PILOT,Study1,B,44,78,Test,User,-,,Recall,Recall1,3656,fly,25,3006,3457,0,0,,1
5eedf5e043cc1623f44baf6e,2z9z5wmrk5,Nick_Dissertation_EX1,1,137,2020-07-08T14:53:41-07:00,3.9893879890442,1,versionA_stim.csv,READVersionA.csv,"Read Version A","Dissertation, read only version A",SMELL,STENCH,Study1,B,42,53,Test,User,-,,Recall,Recall1,3523,taste,54.545454545455,2647,3165,0,0,,1
5eedf5e043cc1623f44baf6e,2z9z5wmrk5,Nick_Dissertation_EX1,1,138,2020-07-08T14:53:44-07:00,3.6608691215515,1,versionA_stim.csv,READVersionA.csv,"Read Version A","Dissertation, read only version A",DUMP,WASTE,Study1,S,49,28,Test,User,-,,Recall,Recall1,3201,waste,100,2527,3039,1,1,,1
5eedf5e043cc1623f44baf6e,2z9z5wmrk5,Nick_Dissertation_EX1,1,139,2020-07-08T14:53:49-07:00,4.6601798534393,1,versionA_stim.csv,READVersionA.csv,"Read Version A","Dissertation, read only version A",FIX,HAND,Study1,U,75,48,Test,User,-,,Recall,Recall1,4199,broken,20,2663,3948,0,0,,1
5eedf5e043cc1623f44baf6e,2z9z5wmrk5,Nick_Dissertation_EX1,1,140,2020-07-08T14:53:52-07:00,3.3199760913849,1,versionA_stim.csv,READVersionA.csv,"Read Version A","Dissertation, read only version A",SUGAR,RIDDLE,Study1,U,81,76,Test,User,-,,Recall,Recall1,2836,water,18.181818181818,2178,2692,0,0,,1
5eedf5e043cc1623f44baf6e,2z9z5wmrk5,Nick_Dissertation_EX1,1,141,2020-07-08T14:54:00-07:00,8.1853098869324,1,versionA_stim.csv,READVersionA.csv,"Read Version A","Dissertation, read only version A",DIGESTION,STOMACH,Study1,F,7,65,Test,User,-,,Recall,Recall1,7575,indigestion,33.333333333333,4765,7300,0,0,,1
5eedf5e043cc1623f44baf6e,2z9z5wmrk5,Nick_Dissertation_EX1,1,142,2020-07-08T14:54:04-07:00,3.2215931415558,1,versionA_stim.csv,READVersionA.csv,"Read Version A","Dissertation, read only version A",FULL,ENOUGH,Study1,B,26,34,Test,User,-,,Recall,Recall1,2757,empty,18.181818181818,1847,2551,0,0,,1
5eedf5e043cc1623f44baf6e,2z9z5wmrk5,Nick_Dissertation_EX1,1,143,2020-07-08T14:54:07-07:00,3.5544829368591,1,versionA_stim.csv,READVersionA.csv,"Read Version A","Dissertation, read only version A",BATHROOM,TOILET,Study1,S,58,36,Test,User,-,,Recall,Recall1,2081,stall,36.363636363636,1305,1928,0,0,,1
5eedf5e043cc1623f44baf6e,2z9z5wmrk5,Nick_Dissertation_EX1,1,144,2020-07-08T14:54:13-07:00,5.2669661045074,1,versionA_stim.csv,READVersionA.csv,"Read Version A","Dissertation, read only version A",TRIAL,JURY,Study1,S,50,39,Test,User,-,,Recall,Recall1,4755,jury,100,1573,4530,1,1,,1
5eedf5e043cc1623f44baf6e,2z9z5wmrk5,Nick_Dissertation_EX1,1,145,2020-07-08T14:54:15-07:00,2.1710388660431,1,versionA_stim.csv,READVersionA.csv,"Read Version A","Dissertation, read only version A",HAPPY,CAR,Study1,U,77,68,Test,User,-,,Recall,Recall1,1716,sad,33.333333333333,1256,1508,0,0,,1
5eedf5e043cc1623f44baf6e,2z9z5wmrk5,Nick_Dissertation_EX1,1,146,2020-07-08T14:54:18-07:00,3.2721431255341,1,versionA_stim.csv,READVersionA.csv,"Read Version A","Dissertation, read only version A",SENTENCE,WORD,Study1,B,31,75,Test,User,-,,Recall,Recall1,2821,word,100,1806,2691,1,1,,1
5eedf5e043cc1623f44baf6e,2z9z5wmrk5,Nick_Dissertation_EX1,1,147,2020-07-08T14:54:22-07:00,3.7572798728943,1,versionA_stim.csv,READVersionA.csv,"Read Version A","Dissertation, read only version A",SOON,BELT,Study1,U,70,85,Test,User,-,,Recall,Recall1,3028,past,25,2389,2855,0,0,,1
5eedf5e043cc1623f44baf6e,2z9z5wmrk5,Nick_Dissertation_EX1,1,148,2020-07-08T14:54:24-07:00,2.6345951557159,1,versionA_stim.csv,READVersionA.csv,"Read Version A","Dissertation, read only version A",SWAN,BIRD,Study1,F,14,19,Test,User,-,,Recall,Recall1,2154,lake,0,1694,2014,0,0,,1
5eedf5e043cc1623f44baf6e,2z9z5wmrk5,Nick_Dissertation_EX1,1,149,2020-07-08T14:54:27-07:00,2.3040089607239,1,versionA_stim.csv,READVersionA.csv,"Read Version A","Dissertation, read only version A",FIRE,BLAZE,Study1,B,45,24,Test,User,-,,Recall,Recall1,1847,water,40,1268,1718,0,0,,1
5eedf5e043cc1623f44baf6e,2z9z5wmrk5,Nick_Dissertation_EX1,1,150,2020-07-08T14:54:30-07:00,2.9085118770599,1,versionA_stim.csv,READVersionA.csv,"Read Version A","Dissertation, read only version A",HONEY,BEE,Study1,S,63,60,Test,User,-,,Recall,Recall1,2442,bee,100,2044,2303,1,1,,1
5eedf5e043cc1623f44baf6e,2z9z5wmrk5,Nick_Dissertation_EX1,1,151,2020-07-08T14:54:34-07:00,4.6846380233765,1,versionA_stim.csv,READVersionA.csv,"Read Version A","Dissertation, read only version A",LIFT,WOMAN,Study1,U,69,13,Test,User,-,,Recall,Recall1,4227,stairs,18.181818181818,2293,3857,0,0,,1
5eedf5e043cc1623f44baf6e,2z9z5wmrk5,Nick_Dissertation_EX1,1,152,2020-07-08T14:54:39-07:00,4.8793511390686,1,versionA_stim.csv,READVersionA.csv,"Read Version A","Dissertation, read only version A",HYGIENE,CLEAN,Study1,F,17,61,Test,User,-,,Recall,Recall1,4404,factor,18.181818181818,2049,2779,0,0,,1
5eedf5e043cc1623f44baf6e,2z9z5wmrk5,Nick_Dissertation_EX1,1,153,2020-07-08T14:54:43-07:00,3.8200118541718,1,versionA_stim.csv,READVersionA.csv,"Read Version A","Dissertation, read only version A",KEY,LATCH,Study1,B,36,21,Test,User,-,,Recall,Recall1,3357,lock,44.444444444444,2844,3135,0,0,,1
5eedf5e043cc1623f44baf6e,2z9z5wmrk5,Nick_Dissertation_EX1,1,154,2020-07-08T14:54:48-07:00,5.2280740737915,1,versionA_stim.csv,READVersionA.csv,"Read Version A","Dissertation, read only version A",DISCUSSION,TALK,Study1,F,21,22,Test,User,-,,Recall,Recall1,4765,conversation,12.5,2588,4504,0,0,,1
5eedf5e043cc1623f44baf6e,2z9z5wmrk5,Nick_Dissertation_EX1,1,155,2020-07-08T14:54:52-07:00,3.5559630393982,1,versionA_stim.csv,READVersionA.csv,"Read Version A","Dissertation, read only version A",BUG,WASP,Study1,B,32,63,Test,User,-,,Recall,Recall1,3099,bite,0,2515,2978,0,0,,1
5eedf5e043cc1623f44baf6e,2z9z5wmrk5,Nick_Dissertation_EX1,1,156,2020-07-08T14:54:54-07:00,2.7785489559174,1,versionA_stim.csv,READVersionA.csv,"Read Version A","Dissertation, read only version A",ARCHITECTURE,DESIGN,Study1,S,51,7,Test,User,-,,Recall,Recall1,2315,wall,0,1745,2171,0,0,,1
5eedf5e043cc1623f44baf6e,2z9z5wmrk5,Nick_Dissertation_EX1,1,157,2020-07-08T14:55:05-07:00,10.081332921982,1,versionA_stim.csv,READVersionA.csv,"Read Version A","Dissertation, read only version A",CHISEL,HAMMER,Study1,F,9,45,Test,User,-,,Recall,Recall1,9592,workman,15.384615384615,4051,8455,0,0,,1
5eedf5e043cc1623f44baf6e,2z9z5wmrk5,Nick_Dissertation_EX1,1,158,2020-07-08T14:55:10-07:00,5.1112320423126,1,versionA_stim.csv,READVersionA.csv,"Read Version A","Dissertation, read only version A",MATH,DIVISION,Study1,B,33,55,Test,User,-,,Recall,Recall1,4558,language,12.5,3153,4318,0,0,,1
5eedf5e043cc1623f44baf6e,2z9z5wmrk5,Nick_Dissertation_EX1,1,159,2020-07-08T14:55:14-07:00,4.4266250133514,1,versionA_stim.csv,READVersionA.csv,"Read Version A","Dissertation, read only version A",WORK,CHORE,Study1,B,39,57,Test,User,-,,Recall,Recall1,3955,money,40,2869,3862,0,0,,1
5eedf5e043cc1623f44baf6e,2z9z5wmrk5,Nick_Dissertation_EX1,1,160,2020-07-08T14:55:18-07:00,3.4753229618073,1,versionA_stim.csv,READVersionA.csv,"Read Version A","Dissertation, read only version A",WAY,OUT,Study1,F,16,41,Test,User,-,,Recall,Recall1,3018,where,0,2459,2855,0,0,,1
5eedf5e043cc1623f44baf6e,2z9z5wmrk5,Nick_Dissertation_EX1,1,161,2020-07-08T14:55:20-07:00,2.2956881523132,1,versionA_stim.csv,READVersionA.csv,"Read Version A","Dissertation, read only version A",BABY,CHILD,Study1,S,64,11,Test,User,-,,Recall,Recall1,1841,child,100,1167,1673,1,1,,1
5eedf5e043cc1623f44baf6e,2z9z5wmrk5,Nick_Dissertation_EX1,1,162,2020-07-08T14:55:24-07:00,4.5247378349304,1,versionA_stim.csv,READVersionA.csv,"Read Version A","Dissertation, read only version A",ROOT,PLANT,Study1,F,13,47,Test,User,-,,Recall,Recall1,4069,beer,0,2368,3956,0,0,,1
5eedf5e043cc1623f44baf6e,2z9z5wmrk5,Nick_Dissertation_EX1,1,163,2020-07-08T14:55:27-07:00,2.3614480495453,1,versionA_stim.csv,READVersionA.csv,"Read Version A","Dissertation, read only version A",HORNET,STING,Study1,F,11,27,Test,User,-,,Recall,Recall1,1913,nest,44.444444444444,1137,1743,0,0,,1
5eedf5e043cc1623f44baf6e,2z9z5wmrk5,Nick_Dissertation_EX1,1,164,2020-07-08T14:55:31-07:00,4.6066360473633,1,versionA_stim.csv,READVersionA.csv,"Read Version A","Dissertation, read only version A",LAW,ATTORNEY,Study1,B,34,71,Test,User,-,,Recall,Recall1,4149,judge,15.384615384615,1485,3580,0,0,,1
5eedf5e043cc1623f44baf6e,2z9z5wmrk5,Nick_Dissertation_EX1,1,165,2020-07-08T14:55:34-07:00,2.8372869491577,1,versionA_stim.csv,READVersionA.csv,"Read Version A","Dissertation, read only version A",STRONG,ACCIDENT,Study1,U,80,50,Test,User,-,,Recall,Recall1,2383,weak,16.666666666667,1473,2117,0,0,,1
5eedf5e043cc1623f44baf6e,2z9z5wmrk5,Nick_Dissertation_EX1,1,166,2020-07-08T14:55:38-07:00,3.4960420131683,1,versionA_stim.csv,READVersionA.csv,"Read Version A","Dissertation, read only version A",LOCATION,SITE,Study1,S,48,64,Test,User,-,,Recall,Recall1,3036,time,50,2570,2812,0,0,,1
5eedf5e043cc1623f44baf6e,2z9z5wmrk5,Nick_Dissertation_EX1,1,167,2020-07-08T14:55:41-07:00,3.2126278877258,1,versionA_stim.csv,READVersionA.csv,"Read Version A","Dissertation, read only version A",TAKE,SEIZE,Study1,B,29,43,Test,User,-,,Recall,Recall1,2759,took,0,1327,2294,0,0,,1
5eedf5e043cc1623f44baf6e,2z9z5wmrk5,Nick_Dissertation_EX1,1,168,2020-07-08T14:55:47-07:00,6.0280160903931,1,versionA_stim.csv,READVersionA.csv,"Read Version A","Dissertation, read only version A",PUSHER,CLUTTER,Study1,U,66,30,Test,User,-,,Recall,Recall1,5580,catch,33.333333333333,4680,5312,0,0,,1
5eedf5e043cc1623f44baf6e,2z9z5wmrk5,Nick_Dissertation_EX1,1,169,2020-07-08T14:55:50-07:00,3.4427900314331,1,versionA_stim.csv,READVersionA.csv,"Read Version A","Dissertation, read only version A",VALLEY,ADD,Study1,U,82,20,Test,User,-,,Recall,Recall1,2968,river,0,2281,2888,0,0,,1
5eedf5e043cc1623f44baf6e,2z9z5wmrk5,Nick_Dissertation_EX1,1,170,2020-07-08T14:55:54-07:00,3.9128489494324,1,versionA_stim.csv,READVersionA.csv,"Read Version A","Dissertation, read only version A",BITTER,COLD,Study1,F,12,32,Test,User,-,,Recall,Recall1,3413,sweet,0,1740,3281,0,0,,1
5eedf5e043cc1623f44baf6e,2z9z5wmrk5,Nick_Dissertation_EX1,1,171,2020-07-08T14:55:57-07:00,2.3195769786835,1,versionA_stim.csv,READVersionA.csv,"Read Version A","Dissertation, read only version A",WINE,CHEESE,Study1,S,57,38,Test,User,-,,Recall,Recall1,1836,beer,40,1342,1704,0,0,,1
5eedf5e043cc1623f44baf6e,2z9z5wmrk5,Nick_Dissertation_EX1,1,172,2020-07-08T14:56:06-07:00,9.324606180191,1,versionA_stim.csv,READVersionA.csv,"Read Version A","Dissertation, read only version A",BLOW,WIND,Study1,S,55,58,Test,User,-,,Recall,Recall1,8860,breeze,0,4088,8755,0,0,,1
5eedf5e043cc1623f44baf6e,2z9z5wmrk5,Nick_Dissertation_EX1,1,173,2020-07-08T14:56:08-07:00,2.121866941452,1,versionA_stim.csv,READVersionA.csv,"Read Version A","Dissertation, read only version A",HOT,CHILI,Study1,B,37,52,Test,User,-,,Recall,Recall1,1663,cold,44.444444444444,1114,1479,0,0,,1
5eedf5e043cc1623f44baf6e,2z9z5wmrk5,Nick_Dissertation_EX1,1,174,2020-07-08T14:56:14-07:00,6.3913240432739,1,versionA_stim.csv,READVersionA.csv,"Read Version A","Dissertation, read only version A",MEANING,DEFINITION,Study1,S,62,23,Test,User,-,,Recall,Recall1,5934,reason,37.5,5012,5672,0,0,,1
5eedf5e043cc1623f44baf6e,2z9z5wmrk5,Nick_Dissertation_EX1,1,175,2020-07-08T14:56:43-07:00,28.274794816971,1,versionA_stim.csv,READVersionA.csv,"Read Version A","Dissertation, read only version A",,,,,,0,Instruct,-,10,"You will now be presented with a new set of word pairs. Please study each pair. Remember that your memory will be tested! When finished, press Enter to move to the next pair.",Initial_Instruct,Instruct4,27816,,,-1,-1,,,,1
5eedf5e043cc1623f44baf6e,2z9z5wmrk5,Nick_Dissertation_EX1,1,176,2020-07-08T14:56:57-07:00,14.758925199509,1,versionA_stim.csv,READVersionA.csv,"Read Version A","Dissertation, read only version A",CAMP,ADVENTURE,BUFFER3,Buffer,95,93,Study,User,-,,Study/JOL,BUFFER3,13245,,,13098,13098,,,,1
5eedf5e043cc1623f44baf6e,2z9z5wmrk5,Nick_Dissertation_EX1,1,177,2020-07-08T14:56:59-07:00,1.7238609790802,1,versionA_stim.csv,READVersionA.csv,"Read Version A","Dissertation, read only version A",SHRIMP,FISH,BUFFER3,Buffer,93,96,Study,User,-,,Study/JOL,BUFFER3,1267,,,1146,1146,,,,1
5eedf5e043cc1623f44baf6e,2z9z5wmrk5,Nick_Dissertation_EX1,1,178,2020-07-08T14:57:01-07:00,1.7615180015564,1,versionA_stim.csv,READVersionA.csv,"Read Version A","Dissertation, read only version A",ICE,FROZEN,BUFFER3,Buffer,94,92,Study,User,-,,Study/JOL,BUFFER3,1301,,,1132,1132,,,,1
5eedf5e043cc1623f44baf6e,2z9z5wmrk5,Nick_Dissertation_EX1,1,179,2020-07-08T14:57:03-07:00,1.8685729503632,1,versionA_stim.csv,READVersionA.csv,"Read Version A","Dissertation, read only version A",NOODLE,STRING,BUFFER3,Buffer,92,95,Study,User,-,,Study/JOL,BUFFER3,1400,,,1267,1267,,,,1
5eedf5e043cc1623f44baf6e,2z9z5wmrk5,Nick_Dissertation_EX1,1,180,2020-07-08T14:57:05-07:00,1.9444558620453,1,versionA_stim.csv,READVersionA.csv,"Read Version A","Dissertation, read only version A",CARROT,POTATO,BUFFER3,Buffer,91,94,Study,User,-,,Study/JOL,BUFFER3,1488,,,1371,1371,,,,1
5eedf5e043cc1623f44baf6e,2z9z5wmrk5,Nick_Dissertation_EX1,1,181,2020-07-08T14:57:07-07:00,1.8034341335297,1,versionA_stim.csv,READVersionA.csv,"Read Version A","Dissertation, read only version A",CHILL,COLD,Study2,F,114,127,Study,User,-,,Study/JOL,"Study Phase2",1349,,,1225,1225,,,,1
5eedf5e043cc1623f44baf6e,2z9z5wmrk5,Nick_Dissertation_EX1,1,182,2020-07-08T14:57:08-07:00,1.8618819713593,1,versionA_stim.csv,READVersionA.csv,"Read Version A","Dissertation, read only version A",CANDLE,WAX,Study2,S,139,110,Study,User,-,,Study/JOL,"Study Phase2",1394,,,1261,1261,,,,1
5eedf5e043cc1623f44baf6e,2z9z5wmrk5,Nick_Dissertation_EX1,1,183,2020-07-08T14:57:10-07:00,1.7925579547882,1,versionA_stim.csv,READVersionA.csv,"Read Version A","Dissertation, read only version A",LEASE,TOIL,Study2,U,170,142,Study,User,-,,Study/JOL,"Study Phase2",1340,,,1180,1180,,,,1
5eedf5e043cc1623f44baf6e,2z9z5wmrk5,Nick_Dissertation_EX1,1,184,2020-07-08T14:57:12-07:00,1.871612071991,1,versionA_stim.csv,READVersionA.csv,"Read Version A","Dissertation, read only version A",BAD,VILLAIN,Study2,B,118,155,Study,User,-,,Study/JOL,"Study Phase2",1416,,,1248,1248,,,,1
5eedf5e043cc1623f44baf6e,2z9z5wmrk5,Nick_Dissertation_EX1,1,185,2020-07-08T14:57:14-07:00,1.9553439617157,1,versionA_stim.csv,READVersionA.csv,"Read Version A","Dissertation, read only version A",CAT,PANTHER,Study2,B,126,113,Study,User,-,,Study/JOL,"Study Phase2",1491,,,1374,1374,,,,1
5eedf5e043cc1623f44baf6e,2z9z5wmrk5,Nick_Dissertation_EX1,1,186,2020-07-08T14:57:18-07:00,4.0631849765778,1,versionA_stim.csv,READVersionA.csv,"Read Version A","Dissertation, read only version A",MONEY,BANKER,Study2,B,132,174,Study,User,-,,Study/JOL,"Study Phase2",3591,,,3411,3411,,,,1
5eedf5e043cc1623f44baf6e,2z9z5wmrk5,Nick_Dissertation_EX1,1,187,2020-07-08T14:57:20-07:00,1.5835030078888,1,versionA_stim.csv,READVersionA.csv,"Read Version A","Dissertation, read only version A",DOCUMENT,PAPER,Study2,F,109,129,Study,User,-,,Study/JOL,"Study Phase2",1127,,,974,975,,,,1
5eedf5e043cc1623f44baf6e,2z9z5wmrk5,Nick_Dissertation_EX1,1,188,2020-07-08T14:57:21-07:00,1.6115939617157,1,versionA_stim.csv,READVersionA.csv,"Read Version A","Dissertation, read only version A",MULE,DONKEY,Study2,F,108,118,Study,User,-,,Study/JOL,"Study Phase2",1158,,,1040,1040,,,,1
5eedf5e043cc1623f44baf6e,2z9z5wmrk5,Nick_Dissertation_EX1,1,189,2020-07-08T14:57:23-07:00,1.5909960269928,1,versionA_stim.csv,READVersionA.csv,"Read Version A","Dissertation, read only version A",EARTH,GROUND,Study2,S,144,116,Study,User,-,,Study/JOL,"Study Phase2",1120,,,973,973,,,,1
5eedf5e043cc1623f44baf6e,2z9z5wmrk5,Nick_Dissertation_EX1,1,190,2020-07-08T14:57:24-07:00,1.5399389266968,1,versionA_stim.csv,READVersionA.csv,"Read Version A","Dissertation, read only version A",SUN,TAN,Study2,S,155,148,Study,User,-,,Study/JOL,"Study Phase2",1079,,,919,919,,,,1
5eedf5e043cc1623f44baf6e,2z9z5wmrk5,Nick_Dissertation_EX1,1,191,2020-07-08T14:57:26-07:00,1.6202521324158,1,versionA_stim.csv,READVersionA.csv,"Read Version A","Dissertation, read only version A",JUSTICE,MAROON,Study2,U,156,145,Study,User,-,,Study/JOL,"Study Phase2",1084,,,959,959,,,,1
5eedf5e043cc1623f44baf6e,2z9z5wmrk5,Nick_Dissertation_EX1,1,192,2020-07-08T14:57:28-07:00,1.4755280017853,1,versionA_stim.csv,READVersionA.csv,"Read Version A","Dissertation, read only version A",NAME,HATE,Study2,U,167,112,Study,User,-,,Study/JOL,"Study Phase2",1013,,,825,825,,,,1
5eedf5e043cc1623f44baf6e,2z9z5wmrk5,Nick_Dissertation_EX1,1,193,2020-07-08T14:57:30-07:00,1.9780118465424,1,versionA_stim.csv,READVersionA.csv,"Read Version A","Dissertation, read only version A",TURN,FLIP,Study2,B,116,103,Study,User,-,,Study/JOL,"Study Phase2",1522,,,1367,1367,,,,1
5eedf5e043cc1623f44baf6e,2z9z5wmrk5,Nick_Dissertation_EX1,1,194,2020-07-08T14:57:31-07:00,1.6320250034332,1,versionA_stim.csv,READVersionA.csv,"Read Version A","Dissertation, read only version A",BIRD,PENGUIN,Study2,B,119,158,Study,User,-,,Study/JOL,"Study Phase2",1168,,,841,841,,,,1
5eedf5e043cc1623f44baf6e,2z9z5wmrk5,Nick_Dissertation_EX1,1,195,2020-07-08T14:57:32-07:00,1.1206550598145,1,versionA_stim.csv,READVersionA.csv,"Read Version A","Dissertation, read only version A",DRIVER,CAR,Study2,F,106,120,Study,User,-,,Study/JOL,"Study Phase2",781,,,517,517,,,,1
5eedf5e043cc1623f44baf6e,2z9z5wmrk5,Nick_Dissertation_EX1,1,196,2020-07-08T14:57:34-07:00,2.0267751216888,1,versionA_stim.csv,READVersionA.csv,"Read Version A","Dissertation, read only version A",TEMPERATURE,Morning,Study2,U,173,106,Study,User,-,,Study/JOL,"Study Phase2",1569,,,1441,1441,,,,1
5eedf5e043cc1623f44baf6e,2z9z5wmrk5,Nick_Dissertation_EX1,1,197,2020-07-08T14:57:37-07:00,2.9399700164795,1,versionA_stim.csv,READVersionA.csv,"Read Version A","Dissertation, read only version A",RAZOR,SHAVE,Study2,S,136,163,Study,User,-,,Study/JOL,"Study Phase2",1396,,,1305,1305,,,,1
5eedf5e043cc1623f44baf6e,2z9z5wmrk5,Nick_Dissertation_EX1,1,198,2020-07-08T14:57:39-07:00,2.0649428367615,1,versionA_stim.csv,READVersionA.csv,"Read Version A","Dissertation, read only version A",SAFETY,SEATBELT,Study2,S,147,176,Study,User,-,,Study/JOL,"Study Phase2",1587,,,1480,1480,,,,1
5eedf5e043cc1623f44baf6e,2z9z5wmrk5,Nick_Dissertation_EX1,1,199,2020-07-08T14:57:41-07:00,1.3005549907684,1,versionA_stim.csv,READVersionA.csv,"Read Version A","Dissertation, read only version A",EXTENSION,LONG,Study2,F,96,107,Study,User,-,,Study/JOL,"Study Phase2",931,,,767,767,,,,1
5eedf5e043cc1623f44baf6e,2z9z5wmrk5,Nick_Dissertation_EX1,1,200,2020-07-08T14:57:42-07:00,1.6120011806488,1,versionA_stim.csv,READVersionA.csv,"Read Version A","Dissertation, read only version A",OWN,HAVE,Study2,S,153,146,Study,User,-,,Study/JOL,"Study Phase2",1142,,,951,951,,,,1
5eedf5e043cc1623f44baf6e,2z9z5wmrk5,Nick_Dissertation_EX1,1,201,2020-07-08T14:57:44-07:00,1.7198588848114,1,versionA_stim.csv,READVersionA.csv,"Read Version A","Dissertation, read only version A",SLEEP,NAP,Study2,B,134,109,Study,User,-,,Study/JOL,"Study Phase2",1264,,,1101,1102,,,,1
5eedf5e043cc1623f44baf6e,2z9z5wmrk5,Nick_Dissertation_EX1,1,202,2020-07-08T14:57:47-07:00,2.9907350540161,1,versionA_stim.csv,READVersionA.csv,"Read Version A","Dissertation, read only version A",MEAT,OBTAIN,Study2,U,161,119,Study,User,-,,Study/JOL,"Study Phase2",2455,,,2332,2332,,,,1
5eedf5e043cc1623f44baf6e,2z9z5wmrk5,Nick_Dissertation_EX1,1,203,2020-07-08T14:57:49-07:00,1.6096849441528,1,versionA_stim.csv,READVersionA.csv,"Read Version A","Dissertation, read only version A",THREAD,THIMBLE,Study2,B,121,150,Study,User,-,,Study/JOL,"Study Phase2",1157,,,1005,1005,,,,1
5eedf5e043cc1623f44baf6e,2z9z5wmrk5,Nick_Dissertation_EX1,1,204,2020-07-08T14:57:50-07:00,1.5721909999847,1,versionA_stim.csv,READVersionA.csv,"Read Version A","Dissertation, read only version A",STRETCH,CLOTH,Study2,U,157,153,Study,User,-,,Study/JOL,"Study Phase2",1108,,,938,938,,,,1
5eedf5e043cc1623f44baf6e,2z9z5wmrk5,Nick_Dissertation_EX1,1,205,2020-07-08T14:57:52-07:00,1.8104200363159,1,versionA_stim.csv,READVersionA.csv,"Read Version A","Dissertation, read only version A",MASON,JAR,Study2,S,138,137,Study,User,-,,Study/JOL,"Study Phase2",1336,,,1148,1148,,,,1
5eedf5e043cc1623f44baf6e,2z9z5wmrk5,Nick_Dissertation_EX1,1,206,2020-07-08T14:57:53-07:00,1.5158250331879,1,versionA_stim.csv,READVersionA.csv,"Read Version A","Dissertation, read only version A",FUZZY,BANG,Study2,U,168,123,Study,User,-,,Study/JOL,"Study Phase2",1063,,,936,936,,,,1
5eedf5e043cc1623f44baf6e,2z9z5wmrk5,Nick_Dissertation_EX1,1,207,2020-07-08T14:57:55-07:00,1.5368089675903,1,versionA_stim.csv,READVersionA.csv,"Read Version A","Dissertation, read only version A",SCALP,HEAD,Study2,F,105,164,Study,User,-,,Study/JOL,"Study Phase2",1074,,,917,918,,,,1
5eedf5e043cc1623f44baf6e,2z9z5wmrk5,Nick_Dissertation_EX1,1,208,2020-07-08T14:57:57-07:00,1.591854095459,1,versionA_stim.csv,READVersionA.csv,"Read Version A","Dissertation, read only version A",ALONE,LONELY,Study2,S,145,171,Study,User,-,,Study/JOL,"Study Phase2",1067,,,968,968,,,,1
5eedf5e043cc1623f44baf6e,2z9z5wmrk5,Nick_Dissertation_EX1,1,209,2020-07-08T14:57:58-07:00,1.6235039234161,1,versionA_stim.csv,READVersionA.csv,"Read Version A","Dissertation, read only version A",SHEARS,SCISSORS,Study2,F,112,169,Study,User,-,,Study/JOL,"Study Phase2",1163,,,1059,1060,,,,1
5eedf5e043cc1623f44baf6e,2z9z5wmrk5,Nick_Dissertation_EX1,1,210,2020-07-08T14:57:59-07:00,0.96801805496216,1,versionA_stim.csv,READVersionA.csv,"Read Version A","Dissertation, read only version A",BOTH,OUNCE,Study2,U,172,138,Study,User,-,,Study/JOL,"Study Phase2",610,,,469,469,,,,1
5eedf5e043cc1623f44baf6e,2z9z5wmrk5,Nick_Dissertation_EX1,1,211,2020-07-08T14:58:01-07:00,1.6436178684235,1,versionA_stim.csv,READVersionA.csv,"Read Version A","Dissertation, read only version A",TRUTH,LIE,Study2,S,148,170,Study,User,-,,Study/JOL,"Study Phase2",1191,,,1076,1076,,,,1
5eedf5e043cc1623f44baf6e,2z9z5wmrk5,Nick_Dissertation_EX1,1,212,2020-07-08T14:58:02-07:00,1.2814700603485,1,versionA_stim.csv,READVersionA.csv,"Read Version A","Dissertation, read only version A",ELEMENT,CARBON,Study2,S,141,97,Study,User,-,,Study/JOL,"Study Phase2",926,,,750,750,,,,1
5eedf5e043cc1623f44baf6e,2z9z5wmrk5,Nick_Dissertation_EX1,1,213,2020-07-08T14:58:03-07:00,1.2858109474182,1,versionA_stim.csv,READVersionA.csv,"Read Version A","Dissertation, read only version A",INCENSE,SMELL,Study2,F,110,167,Study,User,-,,Study/JOL,"Study Phase2",920,,,801,802,,,,1
5eedf5e043cc1623f44baf6e,2z9z5wmrk5,Nick_Dissertation_EX1,1,214,2020-07-08T14:58:05-07:00,1.2949199676514,1,versionA_stim.csv,READVersionA.csv,"Read Version A","Dissertation, read only version A",VEHICLE,CHARM,Study2,U,160,159,Study,User,-,,Study/JOL,"Study Phase2",933,,,771,771,,,,1
5eedf5e043cc1623f44baf6e,2z9z5wmrk5,Nick_Dissertation_EX1,1,215,2020-07-08T14:58:06-07:00,1.1308751106262,1,versionA_stim.csv,READVersionA.csv,"Read Version A","Dissertation, read only version A",LITTER,TRASH,Study2,F,103,130,Study,User,-,,Study/JOL,"Study Phase2",746,,,596,596,,,,1
5eedf5e043cc1623f44baf6e,2z9z5wmrk5,Nick_Dissertation_EX1,1,216,2020-07-08T14:58:07-07:00,1.2752690315247,1,versionA_stim.csv,READVersionA.csv,"Read Version A","Dissertation, read only version A",WRIST,BRACELET,Study2,S,140,151,Study,User,-,,Study/JOL,"Study Phase2",930,,,802,802,,,,1
5eedf5e043cc1623f44baf6e,2z9z5wmrk5,Nick_Dissertation_EX1,1,217,2020-07-08T14:58:08-07:00,1.1904668807983,1,versionA_stim.csv,READVersionA.csv,"Read Version A","Dissertation, read only version A",DRY,WET,Study2,S,146,111,Study,User,-,,Study/JOL,"Study Phase2",851,,,708,708,,,,1
5eedf5e043cc1623f44baf6e,2z9z5wmrk5,Nick_Dissertation_EX1,1,218,2020-07-08T14:58:10-07:00,1.7509050369263,1,versionA_stim.csv,READVersionA.csv,"Read Version A","Dissertation, read only version A",DETECTIVE,MYSTERY,Study2,F,100,172,Study,User,-,,Study/JOL,"Study Phase2",1293,,,1125,1125,,,,1
5eedf5e043cc1623f44baf6e,2z9z5wmrk5,Nick_Dissertation_EX1,1,219,2020-07-08T14:58:12-07:00,1.6054530143738,1,versionA_stim.csv,READVersionA.csv,"Read Version A","Dissertation, read only version A",CACTUS,PLANT,Study2,F,98,104,Study,User,-,,Study/JOL,"Study Phase2",1142,,,946,946,,,,1
5eedf5e043cc1623f44baf6e,2z9z5wmrk5,Nick_Dissertation_EX1,1,220,2020-07-08T14:58:13-07:00,1.6006228923798,1,versionA_stim.csv,READVersionA.csv,"Read Version A","Dissertation, read only version A",PHONE,COMMUNICATION,Study2,S,149,117,Study,User,-,,Study/JOL,"Study Phase2",1140,,,1027,1027,,,,1
5eedf5e043cc1623f44baf6e,2z9z5wmrk5,Nick_Dissertation_EX1,1,221,2020-07-08T14:58:15-07:00,1.5556700229645,1,versionA_stim.csv,READVersionA.csv,"Read Version A","Dissertation, read only version A",AFFECTION,LOVE,Study2,F,115,165,Study,User,-,,Study/JOL,"Study Phase2",1097,,,993,993,,,,1
5eedf5e043cc1623f44baf6e,2z9z5wmrk5,Nick_Dissertation_EX1,1,222,2020-07-08T14:58:17-07:00,1.7066011428833,1,versionA_stim.csv,READVersionA.csv,"Read Version A","Dissertation, read only version A",LOAN,SIGN,Study2,U,171,115,Study,User,-,,Study/JOL,"Study Phase2",1240,,,1113,1113,,,,1
5eedf5e043cc1623f44baf6e,2z9z5wmrk5,Nick_Dissertation_EX1,1,223,2020-07-08T14:58:18-07:00,1.7294299602509,1,versionA_stim.csv,READVersionA.csv,"Read Version A","Dissertation, read only version A",CHOP,CUT,Study2,F,107,141,Study,User,-,,Study/JOL,"Study Phase2",1275,,,1185,1185,,,,1
5eedf5e043cc1623f44baf6e,2z9z5wmrk5,Nick_Dissertation_EX1,1,224,2020-07-08T14:58:20-07:00,1.7161419391632,1,versionA_stim.csv,READVersionA.csv,"Read Version A","Dissertation, read only version A",DEAD,COFFIN,Study2,B,128,154,Study,User,-,,Study/JOL,"Study Phase2",1232,,,1100,1100,,,,1
5eedf5e043cc1623f44baf6e,2z9z5wmrk5,Nick_Dissertation_EX1,1,225,2020-07-08T14:58:22-07:00,1.6071491241455,1,versionA_stim.csv,READVersionA.csv,"Read Version A","Dissertation, read only version A",FLEA,TICK,Study2,S,151,143,Study,User,-,,Study/JOL,"Study Phase2",1124,,,989,989,,,,1
5eedf5e043cc1623f44baf6e,2z9z5wmrk5,Nick_Dissertation_EX1,1,226,2020-07-08T14:58:23-07:00,1.5610389709473,1,versionA_stim.csv,READVersionA.csv,"Read Version A","Dissertation, read only version A",FISH,SARDINE,Study2,B,130,124,Study,User,-,,Study/JOL,"Study Phase2",1086,,,943,943,,,,1
5eedf5e043cc1623f44baf6e,2z9z5wmrk5,Nick_Dissertation_EX1,1,227,2020-07-08T14:58:25-07:00,1.6204979419708,1,versionA_stim.csv,READVersionA.csv,"Read Version A","Dissertation, read only version A",LISTEN,FICTION,Study2,U,164,173,Study,User,-,,Study/JOL,"Study Phase2",1154,,,1014,1014,,,,1
5eedf5e043cc1623f44baf6e,2z9z5wmrk5,Nick_Dissertation_EX1,1,228,2020-07-08T14:58:26-07:00,1.762501001358,1,versionA_stim.csv,READVersionA.csv,"Read Version A","Dissertation, read only version A",TANTRUM,TEMPER,Study2,S,154,114,Study,User,-,,Study/JOL,"Study Phase2",1287,,,1100,1100,,,,1
5eedf5e043cc1623f44baf6e,2z9z5wmrk5,Nick_Dissertation_EX1,1,229,2020-07-08T14:58:30-07:00,3.6359009742737,1,versionA_stim.csv,READVersionA.csv,"Read Version A","Dissertation, read only version A",FIGHT,BRAWL,Study2,B,135,157,Study,User,-,,Study/JOL,"Study Phase2",3182,,,2997,2997,,,,1
5eedf5e043cc1623f44baf6e,2z9z5wmrk5,Nick_Dissertation_EX1,1,230,2020-07-08T14:58:32-07:00,1.6589460372925,1,versionA_stim.csv,READVersionA.csv,"Read Version A","Dissertation, read only version A",BEST,FAVORITE,Study2,B,125,175,Study,User,-,,Study/JOL,"Study Phase2",1199,,,1038,1038,,,,1
5eedf5e043cc1623f44baf6e,2z9z5wmrk5,Nick_Dissertation_EX1,1,231,2020-07-08T14:58:33-07:00,1.5592050552368,1,versionA_stim.csv,READVersionA.csv,"Read Version A","Dissertation, read only version A",GLASS,BREAKABLE,Study2,B,127,100,Study,User,-,,Study/JOL,"Study Phase2",1076,,,950,951,,,,1
5eedf5e043cc1623f44baf6e,2z9z5wmrk5,Nick_Dissertation_EX1,1,232,2020-07-08T14:58:35-07:00,1.6657428741455,1,versionA_stim.csv,READVersionA.csv,"Read Version A","Dissertation, read only version A",Shell,SHAKE,Study2,U,163,102,Study,User,-,,Study/JOL,"Study Phase2",1200,,,1076,1076,,,,1
5eedf5e043cc1623f44baf6e,2z9z5wmrk5,Nick_Dissertation_EX1,1,233,2020-07-08T14:58:38-07:00,3.0173270702362,1,versionA_stim.csv,READVersionA.csv,"Read Version A","Dissertation, read only version A",FRUIT,STRAWBERRY,Study2,B,124,160,Study,User,-,,Study/JOL,"Study Phase2",2564,,,2364,2364,,,,1
5eedf5e043cc1623f44baf6e,2z9z5wmrk5,Nick_Dissertation_EX1,1,234,2020-07-08T14:58:40-07:00,1.6589510440826,1,versionA_stim.csv,READVersionA.csv,"Read Version A","Dissertation, read only version A",FEUD,FIGHT,Study2,F,113,139,Study,User,-,,Study/JOL,"Study Phase2",1201,,,1102,1102,,,,1
5eedf5e043cc1623f44baf6e,2z9z5wmrk5,Nick_Dissertation_EX1,1,235,2020-07-08T14:58:42-07:00,2.3553700447083,1,versionA_stim.csv,READVersionA.csv,"Read Version A","Dissertation, read only version A",GONE,AWAY,Study2,S,142,168,Study,User,-,,Study/JOL,"Study Phase2",940,,,788,788,,,,1
5eedf5e043cc1623f44baf6e,2z9z5wmrk5,Nick_Dissertation_EX1,1,236,2020-07-08T14:58:43-07:00,0.72231483459473,1,versionA_stim.csv,READVersionA.csv,"Read Version A","Dissertation, read only version A",CAR,WINDSHIELD,Study2,B,117,122,Study,User,-,,Study/JOL,"Study Phase2",290,,,150,151,,,,1
5eedf5e043cc1623f44baf6e,2z9z5wmrk5,Nick_Dissertation_EX1,1,237,2020-07-08T14:58:44-07:00,1.6625101566315,1,versionA_stim.csv,READVersionA.csv,"Read Version A","Dissertation, read only version A",BASEBALL,LEAGUE,Study2,B,131,132,Study,User,-,,Study/JOL,"Study Phase2",1191,,,1044,1044,,,,1
5eedf5e043cc1623f44baf6e,2z9z5wmrk5,Nick_Dissertation_EX1,1,238,2020-07-08T14:58:46-07:00,1.4677379131317,1,versionA_stim.csv,READVersionA.csv,"Read Version A","Dissertation, read only version A",STAR,ACTRESS,Study2,B,120,136,Study,User,-,,Study/JOL,"Study Phase2",1002,,,879,879,,,,1
5eedf5e043cc1623f44baf6e,2z9z5wmrk5,Nick_Dissertation_EX1,1,239,2020-07-08T14:58:48-07:00,1.6245760917664,1,versionA_stim.csv,READVersionA.csv,"Read Version A","Dissertation, read only version A",MAZE,ELECTION,Study2,U,159,133,Study,User,-,,Study/JOL,"Study Phase2",1161,,,968,968,,,,1
5eedf5e043cc1623f44baf6e,2z9z5wmrk5,Nick_Dissertation_EX1,1,240,2020-07-08T14:58:49-07:00,1.2192258834839,1,versionA_stim.csv,READVersionA.csv,"Read Version A","Dissertation, read only version A",CAKE,CLOTHES,Study2,U,166,135,Study,User,-,,Study/JOL,"Study Phase2",868,,,712,712,,,,1
5eedf5e043cc1623f44baf6e,2z9z5wmrk5,Nick_Dissertation_EX1,1,241,2020-07-08T14:58:50-07:00,1.4630310535431,1,versionA_stim.csv,READVersionA.csv,"Read Version A","Dissertation, read only version A",ROD,REEL,Study2,S,150,125,Study,User,-,,Study/JOL,"Study Phase2",983,,,786,786,,,,1
5eedf5e043cc1623f44baf6e,2z9z5wmrk5,Nick_Dissertation_EX1,1,242,2020-07-08T14:58:51-07:00,1.2856800556183,1,versionA_stim.csv,READVersionA.csv,"Read Version A","Dissertation, read only version A",FURRY,DOG,Study2,F,102,162,Study,User,-,,Study/JOL,"Study Phase2",944,,,760,760,,,,1
5eedf5e043cc1623f44baf6e,2z9z5wmrk5,Nick_Dissertation_EX1,1,243,2020-07-08T14:58:53-07:00,1.1755318641663,1,versionA_stim.csv,READVersionA.csv,"Read Version A","Dissertation, read only version A",CRACKLE,ABLE,Study2,U,162,101,Study,User,-,,Study/JOL,"Study Phase2",833,,,747,747,,,,1
5eedf5e043cc1623f44baf6e,2z9z5wmrk5,Nick_Dissertation_EX1,1,244,2020-07-08T14:58:54-07:00,1.4498360157013,1,versionA_stim.csv,READVersionA.csv,"Read Version A","Dissertation, read only version A",GIVE,STEAK,Study2,U,158,166,Study,User,-,,Study/JOL,"Study Phase2",976,,,847,847,,,,1
5eedf5e043cc1623f44baf6e,2z9z5wmrk5,Nick_Dissertation_EX1,1,245,2020-07-08T14:58:56-07:00,1.4603509902954,1,versionA_stim.csv,READVersionA.csv,"Read Version A","Dissertation, read only version A",MAIN,SCAR,Study2,U,175,144,Study,User,-,,Study/JOL,"Study Phase2",992,,,798,798,,,,1
5eedf5e043cc1623f44baf6e,2z9z5wmrk5,Nick_Dissertation_EX1,1,246,2020-07-08T14:58:57-07:00,1.2030589580536,1,versionA_stim.csv,READVersionA.csv,"Read Version A","Dissertation, read only version A",ADJOURN,END,Study2,F,101,152,Study,User,-,,Study/JOL,"Study Phase2",853,,,705,705,,,,1
5eedf5e043cc1623f44baf6e,2z9z5wmrk5,Nick_Dissertation_EX1,1,247,2020-07-08T14:58:58-07:00,1.513167142868,1,versionA_stim.csv,READVersionA.csv,"Read Version A","Dissertation, read only version A",LOUD,NOISE,Study2,S,152,105,Study,User,-,,Study/JOL,"Study Phase2",1055,,,928,928,,,,1
5eedf5e043cc1623f44baf6e,2z9z5wmrk5,Nick_Dissertation_EX1,1,248,2020-07-08T14:58:59-07:00,1.194365978241,1,versionA_stim.csv,READVersionA.csv,"Read Version A","Dissertation, read only version A",CHERRY,RED,Study2,F,104,156,Study,User,-,,Study/JOL,"Study Phase2",855,,,682,682,,,,1
5eedf5e043cc1623f44baf6e,2z9z5wmrk5,Nick_Dissertation_EX1,1,249,2020-07-08T14:59:01-07:00,1.174656867981,1,versionA_stim.csv,READVersionA.csv,"Read Version A","Dissertation, read only version A",SHOELACE,TIE,Study2,F,99,99,Study,User,-,,Study/JOL,"Study Phase2",809,,,666,666,,,,1
5eedf5e043cc1623f44baf6e,2z9z5wmrk5,Nick_Dissertation_EX1,1,250,2020-07-08T14:59:02-07:00,1.4661521911621,1,versionA_stim.csv,READVersionA.csv,"Read Version A","Dissertation, read only version A",POP,BALLOON,Study2,B,123,149,Study,User,-,,Study/JOL,"Study Phase2",995,,,896,896,,,,1
5eedf5e043cc1623f44baf6e,2z9z5wmrk5,Nick_Dissertation_EX1,1,251,2020-07-08T14:59:03-07:00,0.91278982162476,1,versionA_stim.csv,READVersionA.csv,"Read Version A","Dissertation, read only version A",MOAT,CLEAR,Study2,U,169,131,Study,User,-,,Study/JOL,"Study Phase2",559,,,475,475,,,,1
5eedf5e043cc1623f44baf6e,2z9z5wmrk5,Nick_Dissertation_EX1,1,252,2020-07-08T14:59:05-07:00,1.4648931026459,1,versionA_stim.csv,READVersionA.csv,"Read Version A","Dissertation, read only version A",DINE,EAT,Study2,F,111,108,Study,User,-,,Study/JOL,"Study Phase2",1002,,,836,836,,,,1
5eedf5e043cc1623f44baf6e,2z9z5wmrk5,Nick_Dissertation_EX1,1,253,2020-07-08T14:59:06-07:00,1.2280769348145,1,versionA_stim.csv,READVersionA.csv,"Read Version A","Dissertation, read only version A",CLUE,GAME,Study2,F,97,126,Study,User,-,,Study/JOL,"Study Phase2",883,,,735,735,,,,1
5eedf5e043cc1623f44baf6e,2z9z5wmrk5,Nick_Dissertation_EX1,1,254,2020-07-08T14:59:07-07:00,1.2252669334412,1,versionA_stim.csv,READVersionA.csv,"Read Version A","Dissertation, read only version A",WATER,DRINK,Study2,S,143,128,Study,User,-,,Study/JOL,"Study Phase2",866,,,709,710,,,,1
5eedf5e043cc1623f44baf6e,2z9z5wmrk5,Nick_Dissertation_EX1,1,255,2020-07-08T14:59:08-07:00,1.453399181366,1,versionA_stim.csv,READVersionA.csv,"Read Version A","Dissertation, read only version A",MIRROR,CHILDREN,Study2,U,174,161,Study,User,-,,Study/JOL,"Study Phase2",984,,,822,822,,,,1
5eedf5e043cc1623f44baf6e,2z9z5wmrk5,Nick_Dissertation_EX1,1,256,2020-07-08T14:59:10-07:00,1.1958420276642,1,versionA_stim.csv,READVersionA.csv,"Read Version A","Dissertation, read only version A",RIGHTS,EQUAL,Study2,S,137,147,Study,User,-,,Study/JOL,"Study Phase2",848,,,692,692,,,,1
5eedf5e043cc1623f44baf6e,2z9z5wmrk5,Nick_Dissertation_EX1,1,257,2020-07-08T14:59:11-07:00,1.18017578125,1,versionA_stim.csv,READVersionA.csv,"Read Version A","Dissertation, read only version A",HONEST,TRUTHFUL,Study2,B,133,98,Study,User,-,,Study/JOL,"Study Phase2",842,,,669,669,,,,1
5eedf5e043cc1623f44baf6e,2z9z5wmrk5,Nick_Dissertation_EX1,1,258,2020-07-08T14:59:12-07:00,1.4420771598816,1,versionA_stim.csv,READVersionA.csv,"Read Version A","Dissertation, read only version A",PLANE,AIRCRAFT,Study2,B,129,140,Study,User,-,,Study/JOL,"Study Phase2",977,,,771,771,,,,1
5eedf5e043cc1623f44baf6e,2z9z5wmrk5,Nick_Dissertation_EX1,1,259,2020-07-08T14:59:13-07:00,0.85086393356323,1,versionA_stim.csv,READVersionA.csv,"Read Version A","Dissertation, read only version A",KEYS,JOKE,Study2,U,165,121,Study,User,-,,Study/JOL,"Study Phase2",509,,,332,332,,,,1
5eedf5e043cc1623f44baf6e,2z9z5wmrk5,Nick_Dissertation_EX1,1,260,2020-07-08T14:59:14-07:00,0.98970103263855,1,versionA_stim.csv,READVersionA.csv,"Read Version A","Dissertation, read only version A",EVEN,REVENGE,Study2,B,122,134,Study,User,-,,Study/JOL,"Study Phase2",647,,,505,506,,,,1
5eedf5e043cc1623f44baf6e,2z9z5wmrk5,Nick_Dissertation_EX1,1,261,2020-07-08T14:59:15-07:00,0.93592500686646,1,versionA_stim.csv,READVersionA.csv,"Read Version A","Dissertation, read only version A",OCTOBER,SPOOKY,BUFFER4,Buffer,180,178,Study,User,-,,Study/JOL,BUFFER4,579,,,398,399,,,,1
5eedf5e043cc1623f44baf6e,2z9z5wmrk5,Nick_Dissertation_EX1,1,262,2020-07-08T14:59:16-07:00,0.89009094238281,1,versionA_stim.csv,READVersionA.csv,"Read Version A","Dissertation, read only version A",SPRING,MARCH,BUFFER4,Buffer,179,179,Study,User,-,,Study/JOL,BUFFER4,536,,,447,447,,,,1
5eedf5e043cc1623f44baf6e,2z9z5wmrk5,Nick_Dissertation_EX1,1,263,2020-07-08T14:59:17-07:00,0.84547996520996,1,versionA_stim.csv,READVersionA.csv,"Read Version A","Dissertation, read only version A",DAYS,WEAKS,BUFFER4,Buffer,176,177,Study,User,-,,Study/JOL,BUFFER4,489,,,357,357,,,,1
5eedf5e043cc1623f44baf6e,2z9z5wmrk5,Nick_Dissertation_EX1,1,264,2020-07-08T14:59:18-07:00,1.3168630599976,1,versionA_stim.csv,READVersionA.csv,"Read Version A","Dissertation, read only version A",MONTH,YEAR,BUFFER4,Buffer,177,181,Study,User,-,,Study/JOL,BUFFER4,966,,,797,797,,,,1
5eedf5e043cc1623f44baf6e,2z9z5wmrk5,Nick_Dissertation_EX1,1,265,2020-07-08T14:59:19-07:00,0.78725910186768,1,versionA_stim.csv,READVersionA.csv,"Read Version A","Dissertation, read only version A",TOOL,SHED,BUFFER4,Buffer,178,180,Study,User,-,,Study/JOL,BUFFER4,443,,,232,232,,,,1
5eedf5e043cc1623f44baf6e,2z9z5wmrk5,Nick_Dissertation_EX1,1,266,2020-07-08T14:59:20-07:00,1.2921760082245,1,versionA_stim.csv,READVersionA.csv,"Read Version A","Dissertation, read only version A",,,,,,0,Instruct,User,-,"You have completed this section. Please press Enter.",Filler_Instruction,Instruct5,946,,,853,853,,,,1
5eedf5e043cc1623f44baf6e,2z9z5wmrk5,Nick_Dissertation_EX1,1,267,2020-07-08T15:01:21-07:00,120.4820458889,1,versionA_stim.csv,READVersionA.csv,"Read Version A","Dissertation, read only version A",,,,,,0,FreeRecall,120,120,"Please list the 50 US states in reverse alphabetical order (z - a). The task will automatically advance to the next screen after two minutes.",,Filler2,120001,"Wyoming Wisconsin Washington Texas Tennessee Oklahoma Ohio New York New Jersey Mississippi Minnesota Maine Louisiana Illinois Hawaii Florida Cali",0,6821,119885,0,0,,0.873
5eedf5e043cc1623f44baf6e,2z9z5wmrk5,Nick_Dissertation_EX1,1,268,2020-07-08T15:01:36-07:00,15.117902040482,1,versionA_stim.csv,READVersionA.csv,"Read Version A","Dissertation, read only version A",,,,,,0,Instruct,-,10,"You will now be presented with the first word from each of the previously studied item pairs. Please type the missing word. If you do not know the word, you may guess or press Enter to skip forward to the next pair.",,Instruct6,14651,,,-1,-1,,,,1
5eedf5e043cc1623f44baf6e,2z9z5wmrk5,Nick_Dissertation_EX1,1,269,2020-07-08T15:01:41-07:00,5.113520860672,1,versionA_stim.csv,READVersionA.csv,"Read Version A","Dissertation, read only version A",SLEEP,NAP,Study2,B,134,109,Test,User,-,,Recall,Recall2,4637,awake,25,2979,4478,0,0,,1
5eedf5e043cc1623f44baf6e,2z9z5wmrk5,Nick_Dissertation_EX1,1,270,2020-07-08T15:01:47-07:00,6.104346036911,1,versionA_stim.csv,READVersionA.csv,"Read Version A","Dissertation, read only version A",LOAN,SIGN,Study2,U,171,115,Test,User,-,,Recall,Recall2,5651,time,25,4733,5440,0,0,,1
5eedf5e043cc1623f44baf6e,2z9z5wmrk5,Nick_Dissertation_EX1,1,271,2020-07-08T15:01:49-07:00,2.0237150192261,1,versionA_stim.csv,READVersionA.csv,"Read Version A","Dissertation, read only version A",LOUD,NOISE,Study2,S,152,105,Test,User,-,,Recall,Recall2,1557,noise,100,971,1483,1,1,,1
5eedf5e043cc1623f44baf6e,2z9z5wmrk5,Nick_Dissertation_EX1,1,272,2020-07-08T15:01:51-07:00,1.9426021575928,1,versionA_stim.csv,READVersionA.csv,"Read Version A","Dissertation, read only version A",CRACKLE,ABLE,Study2,U,162,101,Test,User,-,,Recall,Recall2,1483,popo,0,1044,1342,0,0,,1
5eedf5e043cc1623f44baf6e,2z9z5wmrk5,Nick_Dissertation_EX1,1,273,2020-07-08T15:01:54-07:00,3.0873467922211,1,versionA_stim.csv,READVersionA.csv,"Read Version A","Dissertation, read only version A",TANTRUM,TEMPER,Study2,S,154,114,Test,User,-,,Recall,Recall2,2616,anger,36.363636363636,1951,2510,0,0,,1
5eedf5e043cc1623f44baf6e,2z9z5wmrk5,Nick_Dissertation_EX1,1,274,2020-07-08T15:02:03-07:00,8.6477420330048,1,versionA_stim.csv,READVersionA.csv,"Read Version A","Dissertation, read only version A",MEAT,OBTAIN,Study2,U,161,119,Test,User,-,,Recall,Recall2,8139,catcher,15.384615384615,6879,7872,0,0,,1
5eedf5e043cc1623f44baf6e,2z9z5wmrk5,Nick_Dissertation_EX1,1,275,2020-07-08T15:02:06-07:00,3.5114781856537,1,versionA_stim.csv,READVersionA.csv,"Read Version A","Dissertation, read only version A",DINE,EAT,Study2,F,111,108,Test,User,-,,Recall,Recall2,3012,dinner,22.222222222222,1947,2604,0,0,,1
5eedf5e043cc1623f44baf6e,2z9z5wmrk5,Nick_Dissertation_EX1,1,276,2020-07-08T15:02:09-07:00,2.6195468902588,1,versionA_stim.csv,READVersionA.csv,"Read Version A","Dissertation, read only version A",LISTEN,FICTION,Study2,U,164,173,Test,User,-,,Recall,Recall2,2116,awake,0,1383,1959,0,0,,1
5eedf5e043cc1623f44baf6e,2z9z5wmrk5,Nick_Dissertation_EX1,1,277,2020-07-08T15:02:13-07:00,3.7330338954926,1,versionA_stim.csv,READVersionA.csv,"Read Version A","Dissertation, read only version A",EVEN,REVENGE,Study2,B,122,134,Test,User,-,,Recall,Recall2,3181,sense,50,2098,3095,0,0,,1
5eedf5e043cc1623f44baf6e,2z9z5wmrk5,Nick_Dissertation_EX1,1,278,2020-07-08T15:02:15-07:00,2.6408441066742,1,versionA_stim.csv,READVersionA.csv,"Read Version A","Dissertation, read only version A",MAIN,SCAR,Study2,U,175,144,Test,User,-,,Recall,Recall2,2165,road,25,1315,1718,0,0,,1
5eedf5e043cc1623f44baf6e,2z9z5wmrk5,Nick_Dissertation_EX1,1,279,2020-07-08T15:02:18-07:00,2.4241759777069,1,versionA_stim.csv,READVersionA.csv,"Read Version A","Dissertation, read only version A",PLANE,AIRCRAFT,Study2,B,129,140,Test,User,-,,Recall,Recall2,1943,fl,20,1547,1606,0,0,,1
5eedf5e043cc1623f44baf6e,2z9z5wmrk5,Nick_Dissertation_EX1,1,280,2020-07-08T15:02:22-07:00,3.992329120636,1,versionA_stim.csv,READVersionA.csv,"Read Version A","Dissertation, read only version A",FISH,SARDINE,Study2,B,130,124,Test,User,-,,Recall,Recall2,3512,meat,18.181818181818,2752,3204,0,0,,1
5eedf5e043cc1623f44baf6e,2z9z5wmrk5,Nick_Dissertation_EX1,1,281,2020-07-08T15:02:24-07:00,2.5896639823914,1,versionA_stim.csv,READVersionA.csv,"Read Version A","Dissertation, read only version A",PHONE,COMMUNICATION,Study2,S,149,117,Test,User,-,,Recall,Recall2,2109,ring,23.529411764706,1681,1948,0,0,,1
5eedf5e043cc1623f44baf6e,2z9z5wmrk5,Nick_Dissertation_EX1,1,282,2020-07-08T15:02:27-07:00,3.1375088691711,1,versionA_stim.csv,READVersionA.csv,"Read Version A","Dissertation, read only version A",INCENSE,SMELL,Study2,F,110,167,Test,User,-,,Recall,Recall2,2625,smell,100,1745,2440,1,1,,1
5eedf5e043cc1623f44baf6e,2z9z5wmrk5,Nick_Dissertation_EX1,1,283,2020-07-08T15:02:30-07:00,2.2898850440979,1,versionA_stim.csv,READVersionA.csv,"Read Version A","Dissertation, read only version A",DRY,WET,Study2,S,146,111,Test,User,-,,Recall,Recall2,1766,wall,28.571428571429,1194,1624,0,0,,1
5eedf5e043cc1623f44baf6e,2z9z5wmrk5,Nick_Dissertation_EX1,1,284,2020-07-08T15:02:32-07:00,2.0193159580231,1,versionA_stim.csv,READVersionA.csv,"Read Version A","Dissertation, read only version A",SAFETY,SEATBELT,Study2,S,147,176,Test,User,-,,Recall,Recall2,1554,net,36.363636363636,1020,1421,0,0,,1
5eedf5e043cc1623f44baf6e,2z9z5wmrk5,Nick_Dissertation_EX1,1,285,2020-07-08T15:02:34-07:00,2.7180981636047,1,versionA_stim.csv,READVersionA.csv,"Read Version A","Dissertation, read only version A",DEAD,COFFIN,Study2,B,128,154,Test,User,-,,Recall,Recall2,2263,awake,0,1374,1968,0,0,,1
5eedf5e043cc1623f44baf6e,2z9z5wmrk5,Nick_Dissertation_EX1,1,286,2020-07-08T15:02:41-07:00,6.818717956543,1,versionA_stim.csv,READVersionA.csv,"Read Version A","Dissertation, read only version A",CAT,PANTHER,Study2,B,126,113,Test,User,-,,Recall,Recall2,6336,furry,16.666666666667,4945,5960,0,0,,1
5eedf5e043cc1623f44baf6e,2z9z5wmrk5,Nick_Dissertation_EX1,1,287,2020-07-08T15:02:44-07:00,3.218279838562,1,versionA_stim.csv,READVersionA.csv,"Read Version A","Dissertation, read only version A",SHEARS,SCISSORS,Study2,F,112,169,Test,User,-,,Recall,Recall2,2761,cut,18.181818181818,2375,2647,0,0,,1
5eedf5e043cc1623f44baf6e,2z9z5wmrk5,Nick_Dissertation_EX1,1,288,2020-07-08T15:02:47-07:00,2.8138520717621,1,versionA_stim.csv,READVersionA.csv,"Read Version A","Dissertation, read only version A",BAD,VILLAIN,Study2,B,118,155,Test,User,-,,Recall,Recall2,2344,time,18.181818181818,1095,1355,0,0,,1
5eedf5e043cc1623f44baf6e,2z9z5wmrk5,Nick_Dissertation_EX1,1,289,2020-07-08T15:02:51-07:00,3.7113449573517,1,versionA_stim.csv,READVersionA.csv,"Read Version A","Dissertation, read only version A",CAR,WINDSHIELD,Study2,B,117,122,Test,User,-,,Recall,Recall2,3247,drive,40,2137,3153,0,0,,1
5eedf5e043cc1623f44baf6e,2z9z5wmrk5,Nick_Dissertation_EX1,1,290,2020-07-08T15:02:54-07:00,2.8019981384277,1,versionA_stim.csv,READVersionA.csv,"Read Version A","Dissertation, read only version A",SHOELACE,TIE,Study2,F,99,99,Test,User,-,,Recall,Recall2,2336,tied,85.714285714286,1660,2196,0,1,,1
5eedf5e043cc1623f44baf6e,2z9z5wmrk5,Nick_Dissertation_EX1,1,291,2020-07-08T15:03:00-07:00,6.3057219982147,1,versionA_stim.csv,READVersionA.csv,"Read Version A","Dissertation, read only version A",SUN,TAN,Study2,S,155,148,Test,User,-,,Recall,Recall2,5833,light,25,2420,5605,0,0,,1
5eedf5e043cc1623f44baf6e,2z9z5wmrk5,Nick_Dissertation_EX1,1,292,2020-07-08T15:03:06-07:00,6.1214740276337,1,versionA_stim.csv,READVersionA.csv,"Read Version A","Dissertation, read only version A",CHOP,CUT,Study2,F,107,141,Test,User,-,,Recall,Recall2,5650,cut,100,1935,5349,1,1,,1
5eedf5e043cc1623f44baf6e,2z9z5wmrk5,Nick_Dissertation_EX1,1,293,2020-07-08T15:03:10-07:00,3.9337599277496,1,versionA_stim.csv,READVersionA.csv,"Read Version A","Dissertation, read only version A",TEMPERATURE,Morning,Study2,U,173,106,Test,User,-,,Recall,Recall2,3464,hot,20,3004,3195,0,0,,1
5eedf5e043cc1623f44baf6e,2z9z5wmrk5,Nick_Dissertation_EX1,1,294,2020-07-08T15:03:14-07:00,3.6968319416046,1,versionA_stim.csv,READVersionA.csv,"Read Version A","Dissertation, read only version A",MOAT,CLEAR,Study2,U,169,131,Test,User,-,,Recall,Recall2,3214,water,40,2595,3086,0,0,,1
5eedf5e043cc1623f44baf6e,2z9z5wmrk5,Nick_Dissertation_EX1,1,295,2020-07-08T15:03:17-07:00,2.7499749660492,1,versionA_stim.csv,READVersionA.csv,"Read Version A","Dissertation, read only version A",DOCUMENT,PAPER,Study2,F,109,129,Test,User,-,,Recall,Recall2,2277,read,22.222222222222,1770,2148,0,0,,1
5eedf5e043cc1623f44baf6e,2z9z5wmrk5,Nick_Dissertation_EX1,1,296,2020-07-08T15:03:20-07:00,3.8993611335754,1,versionA_stim.csv,READVersionA.csv,"Read Version A","Dissertation, read only version A",CACTUS,PLANT,Study2,F,98,104,Test,User,-,,Recall,Recall2,3429,spike,20,1537,3271,0,0,,1
5eedf5e043cc1623f44baf6e,2z9z5wmrk5,Nick_Dissertation_EX1,1,297,2020-07-08T15:03:23-07:00,2.480183839798,1,versionA_stim.csv,READVersionA.csv,"Read Version A","Dissertation, read only version A",FURRY,DOG,Study2,F,102,162,Test,User,-,,Recall,Recall2,2009,dog,100,1610,1850,1,1,,1
5eedf5e043cc1623f44baf6e,2z9z5wmrk5,Nick_Dissertation_EX1,1,298,2020-07-08T15:03:28-07:00,5.2866821289062,1,versionA_stim.csv,READVersionA.csv,"Read Version A","Dissertation, read only version A",FUZZY,BANG,Study2,U,168,123,Test,User,-,,Recall,Recall2,4825,scissor,0,2176,4602,0,0,,1
5eedf5e043cc1623f44baf6e,2z9z5wmrk5,Nick_Dissertation_EX1,1,299,2020-07-08T15:03:32-07:00,3.8500080108643,1,versionA_stim.csv,READVersionA.csv,"Read Version A","Dissertation, read only version A",VEHICLE,CHARM,Study2,U,160,159,Test,User,-,,Recall,Recall2,2380,drive,20,1564,2156,0,0,,1
5eedf5e043cc1623f44baf6e,2z9z5wmrk5,Nick_Dissertation_EX1,1,300,2020-07-08T15:03:36-07:00,3.6475739479065,1,versionA_stim.csv,READVersionA.csv,"Read Version A","Dissertation, read only version A",FIGHT,BRAWL,Study2,B,135,157,Test,User,-,,Recall,Recall2,3181,fought,0,2575,3017,0,0,,1
5eedf5e043cc1623f44baf6e,2z9z5wmrk5,Nick_Dissertation_EX1,1,301,2020-07-08T15:03:41-07:00,4.9543569087982,1,versionA_stim.csv,READVersionA.csv,"Read Version A","Dissertation, read only version A",CHERRY,RED,Study2,F,104,156,Test,User,-,,Recall,Recall2,3467,pop,0,2957,3133,0,0,,1
5eedf5e043cc1623f44baf6e,2z9z5wmrk5,Nick_Dissertation_EX1,1,302,2020-07-08T15:03:49-07:00,8.0366291999817,1,versionA_stim.csv,READVersionA.csv,"Read Version A","Dissertation, read only version A",WATER,DRINK,Study2,S,143,128,Test,User,-,,Recall,Recall2,7571,wet,0,6903,7267,0,0,,1
5eedf5e043cc1623f44baf6e,2z9z5wmrk5,Nick_Dissertation_EX1,1,303,2020-07-08T15:03:51-07:00,1.9439399242401,1,versionA_stim.csv,READVersionA.csv,"Read Version A","Dissertation, read only version A",MASON,JAR,Study2,S,138,137,Test,User,-,,Recall,Recall2,1478,jar,100,1165,1319,1,1,,1
5eedf5e043cc1623f44baf6e,2z9z5wmrk5,Nick_Dissertation_EX1,1,304,2020-07-08T15:03:57-07:00,6.5041799545288,1,versionA_stim.csv,READVersionA.csv,"Read Version A","Dissertation, read only version A",CHILL,COLD,Study2,F,114,127,Test,User,-,,Recall,Recall2,6048,freeze,0,2269,5956,0,0,,1
5eedf5e043cc1623f44baf6e,2z9z5wmrk5,Nick_Dissertation_EX1,1,305,2020-07-08T15:04:01-07:00,3.7389941215515,1,versionA_stim.csv,READVersionA.csv,"Read Version A","Dissertation, read only version A",JUSTICE,MAROON,Study2,U,156,145,Test,User,-,,Recall,Recall2,2270,fought,16.666666666667,1692,2142,0,0,,1
5eedf5e043cc1623f44baf6e,2z9z5wmrk5,Nick_Dissertation_EX1,1,306,2020-07-08T15:04:05-07:00,3.7487299442291,1,versionA_stim.csv,READVersionA.csv,"Read Version A","Dissertation, read only version A",SCALP,HEAD,Study2,F,105,164,Test,User,-,,Recall,Recall2,3216,head,100,2366,2804,1,1,,1
5eedf5e043cc1623f44baf6e,2z9z5wmrk5,Nick_Dissertation_EX1,1,307,2020-07-08T15:04:07-07:00,2.839791059494,1,versionA_stim.csv,READVersionA.csv,"Read Version A","Dissertation, read only version A",WRIST,BRACELET,Study2,S,140,151,Test,User,-,,Recall,Recall2,2366,watch,30.769230769231,1415,2121,0,0,,1
5eedf5e043cc1623f44baf6e,2z9z5wmrk5,Nick_Dissertation_EX1,1,308,2020-07-08T15:04:22-07:00,15.045949935913,1,versionA_stim.csv,READVersionA.csv,"Read Version A","Dissertation, read only version A",LITTER,TRASH,Study2,F,103,130,Test,User,-,,Recall,Recall2,14385,park,22.222222222222,13535,13934,0,0,,1
5eedf5e043cc1623f44baf6e,2z9z5wmrk5,Nick_Dissertation_EX1,1,309,2020-07-08T15:04:25-07:00,2.3646419048309,1,versionA_stim.csv,READVersionA.csv,"Read Version A","Dissertation, read only version A",BASEBALL,LEAGUE,Study2,B,131,132,Test,User,-,,Recall,Recall2,1888,catch,18.181818181818,960,1613,0,0,,1
5eedf5e043cc1623f44baf6e,2z9z5wmrk5,Nick_Dissertation_EX1,1,310,2020-07-08T15:04:28-07:00,3.5722210407257,1,versionA_stim.csv,READVersionA.csv,"Read Version A","Dissertation, read only version A",MIRROR,CHILDREN,Study2,U,174,161,Test,User,-,,Recall,Recall2,2099,image,30.769230769231,1326,1918,0,0,,1
5eedf5e043cc1623f44baf6e,2z9z5wmrk5,Nick_Dissertation_EX1,1,311,2020-07-08T15:04:31-07:00,2.853166103363,1,versionA_stim.csv,READVersionA.csv,"Read Version A","Dissertation, read only version A",ROD,REEL,Study2,S,150,125,Test,User,-,,Recall,Recall2,2356,fish,0,1814,2090,0,0,,1
5eedf5e043cc1623f44baf6e,2z9z5wmrk5,Nick_Dissertation_EX1,1,312,2020-07-08T15:04:35-07:00,3.2845180034637,1,versionA_stim.csv,READVersionA.csv,"Read Version A","Dissertation, read only version A",Shell,SHAKE,Study2,U,163,102,Test,User,-,,Recall,Recall2,2825,sea,50,2119,2485,0,0,,1
5eedf5e043cc1623f44baf6e,2z9z5wmrk5,Nick_Dissertation_EX1,1,313,2020-07-08T15:04:41-07:00,6.2487800121307,1,versionA_stim.csv,READVersionA.csv,"Read Version A","Dissertation, read only version A",BIRD,PENGUIN,Study2,B,119,158,Test,User,-,,Recall,Recall2,5773,flew,18.181818181818,1270,5613,0,0,,1
5eedf5e043cc1623f44baf6e,2z9z5wmrk5,Nick_Dissertation_EX1,1,314,2020-07-08T15:04:46-07:00,4.7862639427185,1,versionA_stim.csv,READVersionA.csv,"Read Version A","Dissertation, read only version A",DETECTIVE,MYSTERY,Study2,F,100,172,Test,User,-,,Recall,Recall2,4306,law,0,3195,4098,0,0,,1
5eedf5e043cc1623f44baf6e,2z9z5wmrk5,Nick_Dissertation_EX1,1,315,2020-07-08T15:04:49-07:00,3.1524279117584,1,versionA_stim.csv,READVersionA.csv,"Read Version A","Dissertation, read only version A",STRETCH,CLOTH,Study2,U,157,153,Test,User,-,,Recall,Recall2,2674,out,50,1642,2404,0,0,,1
5eedf5e043cc1623f44baf6e,2z9z5wmrk5,Nick_Dissertation_EX1,1,316,2020-07-08T15:04:51-07:00,2.5962791442871,1,versionA_stim.csv,READVersionA.csv,"Read Version A","Dissertation, read only version A",STAR,ACTRESS,Study2,B,120,136,Test,User,-,,Recall,Recall2,2138,shine,16.666666666667,1347,1822,0,0,,1
5eedf5e043cc1623f44baf6e,2z9z5wmrk5,Nick_Dissertation_EX1,1,317,2020-07-08T15:04:56-07:00,4.7424449920654,1,versionA_stim.csv,READVersionA.csv,"Read Version A","Dissertation, read only version A",FRUIT,STRAWBERRY,Study2,B,124,160,Test,User,-,,Recall,Recall2,4277,eat,15.384615384615,3826,4128,0,0,,1
5eedf5e043cc1623f44baf6e,2z9z5wmrk5,Nick_Dissertation_EX1,1,318,2020-07-08T15:05:02-07:00,5.6164009571075,1,versionA_stim.csv,READVersionA.csv,"Read Version A","Dissertation, read only version A",OWN,HAVE,Study2,S,153,146,Test,User,-,,Recall,Recall2,5141,belong,20,4099,4827,0,0,,1
5eedf5e043cc1623f44baf6e,2z9z5wmrk5,Nick_Dissertation_EX1,1,319,2020-07-08T15:05:08-07:00,5.8673460483551,1,versionA_stim.csv,READVersionA.csv,"Read Version A","Dissertation, read only version A",AFFECTION,LOVE,Study2,F,115,165,Test,User,-,,Recall,Recall2,4325,gained,20,3495,4085,0,0,,1
5eedf5e043cc1623f44baf6e,2z9z5wmrk5,Nick_Dissertation_EX1,1,320,2020-07-08T15:05:11-07:00,3.2664787769318,1,versionA_stim.csv,READVersionA.csv,"Read Version A","Dissertation, read only version A",ELEMENT,CARBON,Study2,S,141,97,Test,User,-,,Recall,Recall2,2798,water,36.363636363636,2047,2632,0,0,,1
5eedf5e043cc1623f44baf6e,2z9z5wmrk5,Nick_Dissertation_EX1,1,321,2020-07-08T15:05:14-07:00,3.1389241218567,1,versionA_stim.csv,READVersionA.csv,"Read Version A","Dissertation, read only version A",RAZOR,SHAVE,Study2,S,136,163,Test,User,-,,Recall,Recall2,2659,sharp,60,1747,2168,0,0,,1
5eedf5e043cc1623f44baf6e,2z9z5wmrk5,Nick_Dissertation_EX1,1,322,2020-07-08T15:05:16-07:00,2.4612140655518,1,versionA_stim.csv,READVersionA.csv,"Read Version A","Dissertation, read only version A",GLASS,BREAKABLE,Study2,B,127,100,Test,User,-,,Recall,Recall2,1989,water,28.571428571429,956,1883,0,0,,1
5eedf5e043cc1623f44baf6e,2z9z5wmrk5,Nick_Dissertation_EX1,1,323,2020-07-08T15:05:24-07:00,7.6161158084869,1,versionA_stim.csv,READVersionA.csv,"Read Version A","Dissertation, read only version A",EXTENSION,LONG,Study2,F,96,107,Test,User,-,,Recall,Recall2,7153,reduction,30.769230769231,4257,6677,0,0,,1
5eedf5e043cc1623f44baf6e,2z9z5wmrk5,Nick_Dissertation_EX1,1,324,2020-07-08T15:05:28-07:00,4.2447321414948,1,versionA_stim.csv,READVersionA.csv,"Read Version A","Dissertation, read only version A",TURN,FLIP,Study2,B,116,103,Test,User,-,,Recall,Recall2,3769,page,25,2325,3681,0,0,,1
5eedf5e043cc1623f44baf6e,2z9z5wmrk5,Nick_Dissertation_EX1,1,325,2020-07-08T15:05:32-07:00,3.9509329795837,1,versionA_stim.csv,READVersionA.csv,"Read Version A","Dissertation, read only version A",KEYS,JOKE,Study2,U,165,121,Test,User,-,,Recall,Recall2,3449,lock,50,2862,3217,0,0,,1
5eedf5e043cc1623f44baf6e,2z9z5wmrk5,Nick_Dissertation_EX1,1,326,2020-07-08T15:05:35-07:00,2.7442789077759,1,versionA_stim.csv,READVersionA.csv,"Read Version A","Dissertation, read only version A",MULE,DONKEY,Study2,F,108,118,Test,User,-,,Recall,Recall2,2260,donkey,100,1337,2163,1,1,,1
5eedf5e043cc1623f44baf6e,2z9z5wmrk5,Nick_Dissertation_EX1,1,327,2020-07-08T15:05:38-07:00,2.974879026413,1,versionA_stim.csv,READVersionA.csv,"Read Version A","Dissertation, read only version A",CLUE,GAME,Study2,F,97,126,Test,User,-,,Recall,Recall2,2515,detective,15.384615384615,1107,2348,0,0,,1
5eedf5e043cc1623f44baf6e,2z9z5wmrk5,Nick_Dissertation_EX1,1,328,2020-07-08T15:05:41-07:00,3.2139210700989,1,versionA_stim.csv,READVersionA.csv,"Read Version A","Dissertation, read only version A",GIVE,STEAK,Study2,U,158,166,Test,User,-,,Recall,Recall2,2750,take,66.666666666667,1847,2571,0,0,,1
5eedf5e043cc1623f44baf6e,2z9z5wmrk5,Nick_Dissertation_EX1,1,329,2020-07-08T15:05:45-07:00,3.3567399978638,1,versionA_stim.csv,READVersionA.csv,"Read Version A","Dissertation, read only version A",BEST,FAVORITE,Study2,B,125,175,Test,User,-,,Recall,Recall2,2880,worst,46.153846153846,1828,2711,0,0,,1
5eedf5e043cc1623f44baf6e,2z9z5wmrk5,Nick_Dissertation_EX1,1,330,2020-07-08T15:05:50-07:00,5.5945069789886,1,versionA_stim.csv,READVersionA.csv,"Read Version A","Dissertation, read only version A",GONE,AWAY,Study2,S,142,168,Test,User,-,,Recall,Recall2,5121,arrive,20,3334,4486,0,0,,1
5eedf5e043cc1623f44baf6e,2z9z5wmrk5,Nick_Dissertation_EX1,1,331,2020-07-08T15:05:52-07:00,2.3473289012909,1,versionA_stim.csv,READVersionA.csv,"Read Version A","Dissertation, read only version A",TRUTH,LIE,Study2,S,148,170,Test,User,-,,Recall,Recall2,1868,lie,100,1451,1701,1,1,,1
5eedf5e043cc1623f44baf6e,2z9z5wmrk5,Nick_Dissertation_EX1,1,332,2020-07-08T15:05:58-07:00,5.9337069988251,1,versionA_stim.csv,READVersionA.csv,"Read Version A","Dissertation, read only version A",DRIVER,CAR,Study2,F,106,120,Test,User,-,,Recall,Recall2,5472,fast,28.571428571429,3817,5373,0,0,,1
5eedf5e043cc1623f44baf6e,2z9z5wmrk5,Nick_Dissertation_EX1,1,333,2020-07-08T15:06:03-07:00,4.9781181812286,1,versionA_stim.csv,READVersionA.csv,"Read Version A","Dissertation, read only version A",EARTH,GROUND,Study2,S,144,116,Test,User,-,,Recall,Recall2,4508,water,18.181818181818,3096,4347,0,0,,1
5eedf5e043cc1623f44baf6e,2z9z5wmrk5,Nick_Dissertation_EX1,1,334,2020-07-08T15:06:08-07:00,4.2283589839935,1,versionA_stim.csv,READVersionA.csv,"Read Version A","Dissertation, read only version A",RIGHTS,EQUAL,Study2,S,137,147,Test,User,-,,Recall,Recall2,3770,wrong,0,2844,3607,0,0,,1
5eedf5e043cc1623f44baf6e,2z9z5wmrk5,Nick_Dissertation_EX1,1,335,2020-07-08T15:06:11-07:00,2.9300379753113,1,versionA_stim.csv,READVersionA.csv,"Read Version A","Dissertation, read only version A",CAKE,CLOTHES,Study2,U,166,135,Test,User,-,,Recall,Recall2,2459,eat,20,2014,2303,0,0,,1
5eedf5e043cc1623f44baf6e,2z9z5wmrk5,Nick_Dissertation_EX1,1,336,2020-07-08T15:06:13-07:00,2.4205219745636,1,versionA_stim.csv,READVersionA.csv,"Read Version A","Dissertation, read only version A",THREAD,THIMBLE,Study2,B,121,150,Test,User,-,,Recall,Recall2,1850,needle,30.769230769231,1107,1802,0,0,,1
5eedf5e043cc1623f44baf6e,2z9z5wmrk5,Nick_Dissertation_EX1,1,337,2020-07-08T15:06:17-07:00,3.5711479187012,1,versionA_stim.csv,READVersionA.csv,"Read Version A","Dissertation, read only version A",NAME,HATE,Study2,U,167,112,Test,User,-,,Recall,Recall2,3119,number,20,2254,2977,0,0,,1
5eedf5e043cc1623f44baf6e,2z9z5wmrk5,Nick_Dissertation_EX1,1,338,2020-07-08T15:06:26-07:00,9.5476579666138,1,versionA_stim.csv,READVersionA.csv,"Read Version A","Dissertation, read only version A",ADJOURN,END,Study2,F,101,152,Test,User,-,,Recall,Recall2,9090,loss,0,7222,8962,0,0,,1
5eedf5e043cc1623f44baf6e,2z9z5wmrk5,Nick_Dissertation_EX1,1,339,2020-07-08T15:06:31-07:00,4.5102090835571,1,versionA_stim.csv,READVersionA.csv,"Read Version A","Dissertation, read only version A",CANDLE,WAX,Study2,S,139,110,Test,User,-,,Recall,Recall2,2961,light,0,1164,2844,0,0,,1
5eedf5e043cc1623f44baf6e,2z9z5wmrk5,Nick_Dissertation_EX1,1,340,2020-07-08T15:06:41-07:00,10.078211069107,1,versionA_stim.csv,READVersionA.csv,"Read Version A","Dissertation, read only version A",POP,BALLOON,Study2,B,123,149,Test,User,-,,Recall,Recall2,9581,star,18.181818181818,5962,9479,0,0,,1
5eedf5e043cc1623f44baf6e,2z9z5wmrk5,Nick_Dissertation_EX1,1,341,2020-07-08T15:06:47-07:00,6.5810639858246,1,versionA_stim.csv,READVersionA.csv,"Read Version A","Dissertation, read only version A",ALONE,LONELY,Study2,S,145,171,Test,User,-,,Recall,Recall2,6110,togethre,28.571428571429,4998,5892,0,0,,1
5eedf5e043cc1623f44baf6e,2z9z5wmrk5,Nick_Dissertation_EX1,1,342,2020-07-08T15:06:52-07:00,4.2807350158691,1,versionA_stim.csv,READVersionA.csv,"Read Version A","Dissertation, read only version A",FLEA,TICK,Study2,S,151,143,Test,User,-,,Recall,Recall2,3802,bite,25,2010,3680,0,0,,1
5eedf5e043cc1623f44baf6e,2z9z5wmrk5,Nick_Dissertation_EX1,1,343,2020-07-08T15:07:00-07:00,8.6343128681183,1,versionA_stim.csv,READVersionA.csv,"Read Version A","Dissertation, read only version A",LEASE,TOIL,Study2,U,170,142,Test,User,-,,Recall,Recall2,8148,mortgage,16.666666666667,6676,8042,0,0,,1
5eedf5e043cc1623f44baf6e,2z9z5wmrk5,Nick_Dissertation_EX1,1,344,2020-07-08T15:07:03-07:00,2.4107031822205,1,versionA_stim.csv,READVersionA.csv,"Read Version A","Dissertation, read only version A",HONEST,TRUTHFUL,Study2,B,133,98,Test,User,-,,Recall,Recall2,1932,lie,18.181818181818,1388,1695,0,0,,1
5eedf5e043cc1623f44baf6e,2z9z5wmrk5,Nick_Dissertation_EX1,1,345,2020-07-08T15:07:07-07:00,4.4798200130463,1,versionA_stim.csv,READVersionA.csv,"Read Version A","Dissertation, read only version A",MONEY,BANKER,Study2,B,132,174,Test,User,-,,Recall,Recall2,2961,earned,33.333333333333,2090,2787,0,0,,1
