Username,ID,ExperimentName,Session,Trial,Date,TimeDif,"Condition Number","Stimuli File","Order File","Condition Description","Condition Notes",Stimuli*Cue,Stimuli*Answer,Stimuli*Shuffle,"Stimuli*Stimuli Notes",Stimuli*Value,Procedure*Item,"Procedure*Trial Type","Procedure*Max Time","Procedure*Min Time",Procedure*Text,"Procedure*Procedure Notes",Procedure*Shuffle,Response*RT,Response*Response,Response*Accuracy,Response*RTfirst,Response*RTlast,Response*strictAcc,Response*lenientAcc,Response*focus,Response*Focus
5ece8aec61cfc90a2216bf22,2mtpxg6v8f,Nick_Dissertation_EX1,1,1,2020-06-13T09:48:50-07:00,15.281006097794,1,versionA_stim.csv,READVersionA.csv,"Read Version A","Dissertation, read only version A",,,,,,0,Instruct,-,10,"Please study each of the following word pairs. Remember that your memory will be tested! When finished, press Enter to move to the next pair.",Initial_Instruct,Instruct1,14369,,,-1,-1,,,,1
5ece8aec61cfc90a2216bf22,2mtpxg6v8f,Nick_Dissertation_EX1,1,2,2020-06-13T09:49:02-07:00,11.515904903412,1,versionA_stim.csv,READVersionA.csv,"Read Version A","Dissertation, read only version A",PEANUT,BUTTER,BUFFER1,Buffer,3,5,Study,User,-,,Study/JOL,BUFFER,10771,,,-1,-1,,,,1
5ece8aec61cfc90a2216bf22,2mtpxg6v8f,Nick_Dissertation_EX1,1,3,2020-06-13T09:49:10-07:00,8.0057189464569,1,versionA_stim.csv,READVersionA.csv,"Read Version A","Dissertation, read only version A",BASEBALL,CATCHER,BUFFER1,Buffer,2,3,Study,User,-,,Study/JOL,BUFFER,7432,,,-1,-1,,,,1
5ece8aec61cfc90a2216bf22,2mtpxg6v8f,Nick_Dissertation_EX1,1,4,2020-06-13T09:49:13-07:00,3.1664700508118,1,versionA_stim.csv,READVersionA.csv,"Read Version A","Dissertation, read only version A",TREES,GREEN,BUFFER1,Buffer,1,2,Study,User,-,,Study/JOL,BUFFER,2597,,,-1,-1,,,,1
5ece8aec61cfc90a2216bf22,2mtpxg6v8f,Nick_Dissertation_EX1,1,5,2020-06-13T09:49:16-07:00,2.6248519420624,1,versionA_stim.csv,READVersionA.csv,"Read Version A","Dissertation, read only version A",SCARE,HIDE,BUFFER1,Buffer,4,6,Study,User,-,,Study/JOL,BUFFER,2015,,,-1,-1,,,,1
5ece8aec61cfc90a2216bf22,2mtpxg6v8f,Nick_Dissertation_EX1,1,6,2020-06-13T09:49:18-07:00,1.9414541721344,1,versionA_stim.csv,READVersionA.csv,"Read Version A","Dissertation, read only version A",SPACE,JAM,BUFFER1,Buffer,5,4,Study,User,-,,Study/JOL,BUFFER,1436,,,-1,-1,,,,1
5ece8aec61cfc90a2216bf22,2mtpxg6v8f,Nick_Dissertation_EX1,1,7,2020-06-13T09:49:20-07:00,2.8833119869232,1,versionA_stim.csv,READVersionA.csv,"Read Version A","Dissertation, read only version A",WINE,CHEESE,Study1,S,57,60,Study,User,-,,Study/JOL,"Study Phase",2274,,,-1,-1,,,,1
5ece8aec61cfc90a2216bf22,2mtpxg6v8f,Nick_Dissertation_EX1,1,8,2020-06-13T09:49:24-07:00,3.6589848995209,1,versionA_stim.csv,READVersionA.csv,"Read Version A","Dissertation, read only version A",DELINQUENT,BAD,Study1,F,6,41,Study,User,-,,Study/JOL,"Study Phase",3096,,,-1,-1,,,,1
5ece8aec61cfc90a2216bf22,2mtpxg6v8f,Nick_Dissertation_EX1,1,9,2020-06-13T09:49:27-07:00,2.4479219913483,1,versionA_stim.csv,READVersionA.csv,"Read Version A","Dissertation, read only version A",BALL,RACKET,Study1,B,38,53,Study,User,-,,Study/JOL,"Study Phase",1860,,,-1,-1,,,,1
5ece8aec61cfc90a2216bf22,2mtpxg6v8f,Nick_Dissertation_EX1,1,10,2020-06-13T09:49:29-07:00,2.4285409450531,1,versionA_stim.csv,READVersionA.csv,"Read Version A","Dissertation, read only version A",CIRCLE,ROUND,Study1,S,65,79,Study,User,-,,Study/JOL,"Study Phase",1827,,,-1,-1,,,,1
5ece8aec61cfc90a2216bf22,2mtpxg6v8f,Nick_Dissertation_EX1,1,11,2020-06-13T09:49:32-07:00,3.4528300762177,1,versionA_stim.csv,READVersionA.csv,"Read Version A","Dissertation, read only version A",ARTERY,BRONZE,Study1,U,74,85,Study,User,-,,Study/JOL,"Study Phase",2857,,,-1,-1,,,,1
5ece8aec61cfc90a2216bf22,2mtpxg6v8f,Nick_Dissertation_EX1,1,12,2020-06-13T09:49:35-07:00,2.9277291297913,1,versionA_stim.csv,READVersionA.csv,"Read Version A","Dissertation, read only version A",SWAN,BIRD,Study1,F,14,72,Study,User,-,,Study/JOL,"Study Phase",2241,,,-1,-1,,,,1
5ece8aec61cfc90a2216bf22,2mtpxg6v8f,Nick_Dissertation_EX1,1,13,2020-06-13T09:49:38-07:00,2.7254469394684,1,versionA_stim.csv,READVersionA.csv,"Read Version A","Dissertation, read only version A",HOT,CHILI,Study1,B,37,62,Study,User,-,,Study/JOL,"Study Phase",2116,,,-1,-1,,,,1
5ece8aec61cfc90a2216bf22,2mtpxg6v8f,Nick_Dissertation_EX1,1,14,2020-06-13T09:49:41-07:00,2.9347310066223,1,versionA_stim.csv,READVersionA.csv,"Read Version A","Dissertation, read only version A",KIDNEY,LIVER,Study1,S,53,70,Study,User,-,,Study/JOL,"Study Phase",2333,,,-1,-1,,,,1
5ece8aec61cfc90a2216bf22,2mtpxg6v8f,Nick_Dissertation_EX1,1,15,2020-06-13T09:49:43-07:00,2.119961977005,1,versionA_stim.csv,READVersionA.csv,"Read Version A","Dissertation, read only version A",BABY,CHILD,Study1,S,64,40,Study,User,-,,Study/JOL,"Study Phase",1650,,,-1,-1,,,,1
5ece8aec61cfc90a2216bf22,2mtpxg6v8f,Nick_Dissertation_EX1,1,16,2020-06-13T09:49:46-07:00,3.0486328601837,1,versionA_stim.csv,READVersionA.csv,"Read Version A","Dissertation, read only version A",DARK,CAVE,Study1,B,28,29,Study,User,-,,Study/JOL,"Study Phase",2493,,,-1,-1,,,,1
5ece8aec61cfc90a2216bf22,2mtpxg6v8f,Nick_Dissertation_EX1,1,17,2020-06-13T09:49:49-07:00,2.9627480506897,1,versionA_stim.csv,READVersionA.csv,"Read Version A","Dissertation, read only version A",WAY,OUT,Study1,F,16,49,Study,User,-,,Study/JOL,"Study Phase",2342,,,-1,-1,,,,1
5ece8aec61cfc90a2216bf22,2mtpxg6v8f,Nick_Dissertation_EX1,1,18,2020-06-13T09:49:53-07:00,4.112202167511,1,versionA_stim.csv,READVersionA.csv,"Read Version A","Dissertation, read only version A",BRIDGE,WATER,Study1,F,18,75,Study,User,-,,Study/JOL,"Study Phase",3034,,,-1,-1,,,,1
5ece8aec61cfc90a2216bf22,2mtpxg6v8f,Nick_Dissertation_EX1,1,19,2020-06-13T09:49:57-07:00,3.2617659568787,1,versionA_stim.csv,READVersionA.csv,"Read Version A","Dissertation, read only version A",BUG,WASP,Study1,B,32,39,Study,User,-,,Study/JOL,"Study Phase",2680,,,-1,-1,,,,1
5ece8aec61cfc90a2216bf22,2mtpxg6v8f,Nick_Dissertation_EX1,1,20,2020-06-13T09:49:58-07:00,1.8402600288391,1,versionA_stim.csv,READVersionA.csv,"Read Version A","Dissertation, read only version A",REVOLUTION,WAR,Study1,F,20,33,Study,User,-,,Study/JOL,"Study Phase",1342,,,-1,-1,,,,1
5ece8aec61cfc90a2216bf22,2mtpxg6v8f,Nick_Dissertation_EX1,1,21,2020-06-13T09:50:01-07:00,2.5558738708496,1,versionA_stim.csv,READVersionA.csv,"Read Version A","Dissertation, read only version A",DISCOVER,FLOOR,Study1,U,71,77,Study,User,-,,Study/JOL,"Study Phase",1988,,,-1,-1,,,,1
5ece8aec61cfc90a2216bf22,2mtpxg6v8f,Nick_Dissertation_EX1,1,22,2020-06-13T09:50:05-07:00,4.2506091594696,1,versionA_stim.csv,READVersionA.csv,"Read Version A","Dissertation, read only version A",KING,VASE,Study1,U,85,55,Study,User,-,,Study/JOL,"Study Phase",3683,,,-1,-1,,,,1
5ece8aec61cfc90a2216bf22,2mtpxg6v8f,Nick_Dissertation_EX1,1,23,2020-06-13T09:50:09-07:00,3.9469199180603,1,versionA_stim.csv,READVersionA.csv,"Read Version A","Dissertation, read only version A",CASH,WOULD,Study1,U,83,8,Study,User,-,,Study/JOL,"Study Phase",2321,,,-1,-1,,,,1
5ece8aec61cfc90a2216bf22,2mtpxg6v8f,Nick_Dissertation_EX1,1,24,2020-06-13T09:50:12-07:00,2.8995609283447,1,versionA_stim.csv,READVersionA.csv,"Read Version A","Dissertation, read only version A",HONEY,BEE,Study1,S,63,19,Study,User,-,,Study/JOL,"Study Phase",2311,,,-1,-1,,,,1
5ece8aec61cfc90a2216bf22,2mtpxg6v8f,Nick_Dissertation_EX1,1,25,2020-06-13T09:50:16-07:00,3.5102450847626,1,versionA_stim.csv,READVersionA.csv,"Read Version A","Dissertation, read only version A",DEATH,BUSINESS,Study1,U,72,83,Study,User,-,,Study/JOL,"Study Phase",2904,,,-1,-1,,,,1
5ece8aec61cfc90a2216bf22,2mtpxg6v8f,Nick_Dissertation_EX1,1,26,2020-06-13T09:50:19-07:00,3.0552048683167,1,versionA_stim.csv,READVersionA.csv,"Read Version A","Dissertation, read only version A",HERD,COW,Study1,F,22,26,Study,User,-,,Study/JOL,"Study Phase",2474,,,-1,-1,,,,1
5ece8aec61cfc90a2216bf22,2mtpxg6v8f,Nick_Dissertation_EX1,1,27,2020-06-13T09:50:21-07:00,2.6483931541443,1,versionA_stim.csv,READVersionA.csv,"Read Version A","Dissertation, read only version A",HAPPY,CAR,Study1,U,77,37,Study,User,-,,Study/JOL,"Study Phase",2080,,,-1,-1,,,,1
5ece8aec61cfc90a2216bf22,2mtpxg6v8f,Nick_Dissertation_EX1,1,28,2020-06-13T09:50:24-07:00,2.9935209751129,1,versionA_stim.csv,READVersionA.csv,"Read Version A","Dissertation, read only version A",CLOTHES,ATTIRE,Study1,B,43,68,Study,User,-,,Study/JOL,"Study Phase",2381,,,-1,-1,,,,1
5ece8aec61cfc90a2216bf22,2mtpxg6v8f,Nick_Dissertation_EX1,1,29,2020-06-13T09:50:27-07:00,2.6958708763123,1,versionA_stim.csv,READVersionA.csv,"Read Version A","Dissertation, read only version A",BATHROOM,TOILET,Study1,S,58,86,Study,User,-,,Study/JOL,"Study Phase",2098,,,-1,-1,,,,1
5ece8aec61cfc90a2216bf22,2mtpxg6v8f,Nick_Dissertation_EX1,1,30,2020-06-13T09:50:29-07:00,2.0633201599121,1,versionA_stim.csv,READVersionA.csv,"Read Version A","Dissertation, read only version A",HEIGHT,GROWTH,Study1,B,30,24,Study,User,-,,Study/JOL,"Study Phase",1586,,,-1,-1,,,,1
5ece8aec61cfc90a2216bf22,2mtpxg6v8f,Nick_Dissertation_EX1,1,31,2020-06-13T09:50:31-07:00,2.1346068382263,1,versionA_stim.csv,READVersionA.csv,"Read Version A","Dissertation, read only version A",DRINK,SIP,Study1,B,27,13,Study,User,-,,Study/JOL,"Study Phase",1654,,,-1,-1,,,,1
5ece8aec61cfc90a2216bf22,2mtpxg6v8f,Nick_Dissertation_EX1,1,32,2020-06-13T09:50:34-07:00,2.7465760707855,1,versionA_stim.csv,READVersionA.csv,"Read Version A","Dissertation, read only version A",SMELL,STENCH,Study1,B,42,18,Study,User,-,,Study/JOL,"Study Phase",2168,,,-1,-1,,,,1
5ece8aec61cfc90a2216bf22,2mtpxg6v8f,Nick_Dissertation_EX1,1,33,2020-06-13T09:50:37-07:00,3.188019990921,1,versionA_stim.csv,READVersionA.csv,"Read Version A","Dissertation, read only version A",PAW,DOG,Study1,F,15,52,Study,User,-,,Study/JOL,"Study Phase",2430,,,-1,-1,,,,1
5ece8aec61cfc90a2216bf22,2mtpxg6v8f,Nick_Dissertation_EX1,1,34,2020-06-13T09:50:40-07:00,3.2705910205841,1,versionA_stim.csv,READVersionA.csv,"Read Version A","Dissertation, read only version A",GEOLOGY,ROCK,Study1,F,19,21,Study,User,-,,Study/JOL,"Study Phase",2748,,,-1,-1,,,,1
5ece8aec61cfc90a2216bf22,2mtpxg6v8f,Nick_Dissertation_EX1,1,35,2020-06-13T09:50:43-07:00,2.4580130577087,1,versionA_stim.csv,READVersionA.csv,"Read Version A","Dissertation, read only version A",CHISEL,HAMMER,Study1,F,9,80,Study,User,-,,Study/JOL,"Study Phase",1861,,,-1,-1,,,,1
5ece8aec61cfc90a2216bf22,2mtpxg6v8f,Nick_Dissertation_EX1,1,36,2020-06-13T09:50:46-07:00,3.3852298259735,1,versionA_stim.csv,READVersionA.csv,"Read Version A","Dissertation, read only version A",STRONG,ACCIDENT,Study1,U,80,78,Study,User,-,,Study/JOL,"Study Phase",2774,,,-1,-1,,,,1
5ece8aec61cfc90a2216bf22,2mtpxg6v8f,Nick_Dissertation_EX1,1,37,2020-06-13T09:50:49-07:00,3.012647151947,1,versionA_stim.csv,READVersionA.csv,"Read Version A","Dissertation, read only version A",DIGESTION,STOMACH,Study1,F,7,64,Study,User,-,,Study/JOL,"Study Phase",2407,,,-1,-1,,,,1
5ece8aec61cfc90a2216bf22,2mtpxg6v8f,Nick_Dissertation_EX1,1,38,2020-06-13T09:50:53-07:00,3.6051578521729,1,versionA_stim.csv,READVersionA.csv,"Read Version A","Dissertation, read only version A",FIRE,BLAZE,Study1,B,45,27,Study,User,-,,Study/JOL,"Study Phase",2005,,,-1,-1,,,,1
5ece8aec61cfc90a2216bf22,2mtpxg6v8f,Nick_Dissertation_EX1,1,39,2020-06-13T09:50:55-07:00,2.1062591075897,1,versionA_stim.csv,READVersionA.csv,"Read Version A","Dissertation, read only version A",SHOE,FOOT,Study1,S,60,7,Study,User,-,,Study/JOL,"Study Phase",1637,,,-1,-1,,,,1
5ece8aec61cfc90a2216bf22,2mtpxg6v8f,Nick_Dissertation_EX1,1,40,2020-06-13T09:50:57-07:00,2.4176049232483,1,versionA_stim.csv,READVersionA.csv,"Read Version A","Dissertation, read only version A",WORK,CHORE,Study1,B,39,54,Study,User,-,,Study/JOL,"Study Phase",1857,,,-1,-1,,,,1
5ece8aec61cfc90a2216bf22,2mtpxg6v8f,Nick_Dissertation_EX1,1,41,2020-06-13T09:51:00-07:00,2.4356591701508,1,versionA_stim.csv,READVersionA.csv,"Read Version A","Dissertation, read only version A",BEGIN,END,Study1,S,54,74,Study,User,-,,Study/JOL,"Study Phase",1857,,,-1,-1,,,,1
5ece8aec61cfc90a2216bf22,2mtpxg6v8f,Nick_Dissertation_EX1,1,42,2020-06-13T09:51:03-07:00,2.790130853653,1,versionA_stim.csv,READVersionA.csv,"Read Version A","Dissertation, read only version A",PAST,FUTURE,Study1,S,61,38,Study,User,-,,Study/JOL,"Study Phase",2191,,,-1,-1,,,,1
5ece8aec61cfc90a2216bf22,2mtpxg6v8f,Nick_Dissertation_EX1,1,43,2020-06-13T09:51:05-07:00,2.452507019043,1,versionA_stim.csv,READVersionA.csv,"Read Version A","Dissertation, read only version A",NUMBER,AMOUNT,Study1,S,47,71,Study,User,-,,Study/JOL,"Study Phase",1851,,,-1,-1,,,,1
5ece8aec61cfc90a2216bf22,2mtpxg6v8f,Nick_Dissertation_EX1,1,44,2020-06-13T09:51:08-07:00,2.7628130912781,1,versionA_stim.csv,READVersionA.csv,"Read Version A","Dissertation, read only version A",SLEEP,DROWSY,Study1,B,41,58,Study,User,-,,Study/JOL,"Study Phase",2129,,,-1,-1,,,,1
5ece8aec61cfc90a2216bf22,2mtpxg6v8f,Nick_Dissertation_EX1,1,45,2020-06-13T09:51:10-07:00,2.1257209777832,1,versionA_stim.csv,READVersionA.csv,"Read Version A","Dissertation, read only version A",HUNGER,FAMINE,Study1,B,40,44,Study,User,-,,Study/JOL,"Study Phase",1596,,,-1,-1,,,,1
5ece8aec61cfc90a2216bf22,2mtpxg6v8f,Nick_Dissertation_EX1,1,46,2020-06-13T09:51:12-07:00,1.6983630657196,1,versionA_stim.csv,READVersionA.csv,"Read Version A","Dissertation, read only version A",GREAT,FANTASTIC,Study1,B,35,50,Study,User,-,,Study/JOL,"Study Phase",1178,,,-1,-1,,,,1
5ece8aec61cfc90a2216bf22,2mtpxg6v8f,Nick_Dissertation_EX1,1,47,2020-06-13T09:51:13-07:00,1.3990588188171,1,versionA_stim.csv,READVersionA.csv,"Read Version A","Dissertation, read only version A",MACHINE,POSITION,Study1,U,76,23,Study,User,-,,Study/JOL,"Study Phase",918,,,-1,-1,,,,1
5ece8aec61cfc90a2216bf22,2mtpxg6v8f,Nick_Dissertation_EX1,1,48,2020-06-13T09:51:15-07:00,1.8521761894226,1,versionA_stim.csv,READVersionA.csv,"Read Version A","Dissertation, read only version A",TUNA,FISH,Study1,F,25,45,Study,User,-,,Study/JOL,"Study Phase",1366,,,-1,-1,,,,1
5ece8aec61cfc90a2216bf22,2mtpxg6v8f,Nick_Dissertation_EX1,1,49,2020-06-13T09:51:16-07:00,1.4736828804016,1,versionA_stim.csv,READVersionA.csv,"Read Version A","Dissertation, read only version A",LETTUCE,SALAD,Study1,S,59,51,Study,User,-,,Study/JOL,"Study Phase",975,,,-1,-1,,,,1
5ece8aec61cfc90a2216bf22,2mtpxg6v8f,Nick_Dissertation_EX1,1,50,2020-06-13T09:51:18-07:00,1.7755110263824,1,versionA_stim.csv,READVersionA.csv,"Read Version A","Dissertation, read only version A",LAW,ATTORNEY,Study1,B,34,35,Study,User,-,,Study/JOL,"Study Phase",1283,,,-1,-1,,,,1
5ece8aec61cfc90a2216bf22,2mtpxg6v8f,Nick_Dissertation_EX1,1,51,2020-06-13T09:51:20-07:00,1.9437749385834,1,versionA_stim.csv,READVersionA.csv,"Read Version A","Dissertation, read only version A",DISCUSSION,TALK,Study1,F,21,36,Study,User,-,,Study/JOL,"Study Phase",1422,,,-1,-1,,,,1
5ece8aec61cfc90a2216bf22,2mtpxg6v8f,Nick_Dissertation_EX1,1,52,2020-06-13T09:51:22-07:00,1.6950719356537,1,versionA_stim.csv,READVersionA.csv,"Read Version A","Dissertation, read only version A",ORCHID,FLOWER,Study1,F,24,28,Study,User,-,,Study/JOL,"Study Phase",1158,,,-1,-1,,,,1
5ece8aec61cfc90a2216bf22,2mtpxg6v8f,Nick_Dissertation_EX1,1,53,2020-06-13T09:51:24-07:00,1.9247472286224,1,versionA_stim.csv,READVersionA.csv,"Read Version A","Dissertation, read only version A",BLOW,WIND,Study1,S,55,15,Study,User,-,,Study/JOL,"Study Phase",1443,,,-1,-1,,,,1
5ece8aec61cfc90a2216bf22,2mtpxg6v8f,Nick_Dissertation_EX1,1,54,2020-06-13T09:51:26-07:00,2.5081517696381,1,versionA_stim.csv,READVersionA.csv,"Read Version A","Dissertation, read only version A",HYGIENE,CLEAN,Study1,F,17,12,Study,User,-,,Study/JOL,"Study Phase",1930,,,-1,-1,,,,1
5ece8aec61cfc90a2216bf22,2mtpxg6v8f,Nick_Dissertation_EX1,1,55,2020-06-13T09:51:30-07:00,3.6144762039185,1,versionA_stim.csv,READVersionA.csv,"Read Version A","Dissertation, read only version A",HIDE,SICK,Study1,U,84,31,Study,User,-,,Study/JOL,"Study Phase",3047,,,-1,-1,,,,1
5ece8aec61cfc90a2216bf22,2mtpxg6v8f,Nick_Dissertation_EX1,1,56,2020-06-13T09:51:31-07:00,1.703400850296,1,versionA_stim.csv,READVersionA.csv,"Read Version A","Dissertation, read only version A",FIX,HAND,Study1,U,75,43,Study,User,-,,Study/JOL,"Study Phase",1216,,,-1,-1,,,,1
5ece8aec61cfc90a2216bf22,2mtpxg6v8f,Nick_Dissertation_EX1,1,57,2020-06-13T09:51:33-07:00,1.6050269603729,1,versionA_stim.csv,READVersionA.csv,"Read Version A","Dissertation, read only version A",SUGAR,RIDDLE,Study1,U,81,46,Study,User,-,,Study/JOL,"Study Phase",1113,,,-1,-1,,,,1
5ece8aec61cfc90a2216bf22,2mtpxg6v8f,Nick_Dissertation_EX1,1,58,2020-06-13T09:51:35-07:00,2.1080679893494,1,versionA_stim.csv,READVersionA.csv,"Read Version A","Dissertation, read only version A",PUSHER,CLUTTER,Study1,U,66,69,Study,User,-,,Study/JOL,"Study Phase",1605,,,-1,-1,,,,1
5ece8aec61cfc90a2216bf22,2mtpxg6v8f,Nick_Dissertation_EX1,1,59,2020-06-13T09:51:37-07:00,1.9760332107544,1,versionA_stim.csv,READVersionA.csv,"Read Version A","Dissertation, read only version A",ARCHITECTURE,DESIGN,Study1,S,51,17,Study,User,-,,Study/JOL,"Study Phase",1480,,,-1,-1,,,,1
5ece8aec61cfc90a2216bf22,2mtpxg6v8f,Nick_Dissertation_EX1,1,60,2020-06-13T09:51:39-07:00,1.9170279502869,1,versionA_stim.csv,READVersionA.csv,"Read Version A","Dissertation, read only version A",BITTER,COLD,Study1,F,12,82,Study,User,-,,Study/JOL,"Study Phase",1439,,,-1,-1,,,,1
5ece8aec61cfc90a2216bf22,2mtpxg6v8f,Nick_Dissertation_EX1,1,61,2020-06-13T09:51:41-07:00,1.6801960468292,1,versionA_stim.csv,READVersionA.csv,"Read Version A","Dissertation, read only version A",LOCATION,SITE,Study1,S,48,57,Study,User,-,,Study/JOL,"Study Phase",1177,,,-1,-1,,,,1
5ece8aec61cfc90a2216bf22,2mtpxg6v8f,Nick_Dissertation_EX1,1,62,2020-06-13T09:51:43-07:00,1.9180347919464,1,versionA_stim.csv,READVersionA.csv,"Read Version A","Dissertation, read only version A",SENTENCE,WORD,Study1,B,31,48,Study,User,-,,Study/JOL,"Study Phase",1383,,,-1,-1,,,,1
5ece8aec61cfc90a2216bf22,2mtpxg6v8f,Nick_Dissertation_EX1,1,63,2020-06-13T09:51:45-07:00,1.9624490737915,1,versionA_stim.csv,READVersionA.csv,"Read Version A","Dissertation, read only version A",ALLOW,TUCK,Study1,U,78,66,Study,User,-,,Study/JOL,"Study Phase",1470,,,-1,-1,,,,1
5ece8aec61cfc90a2216bf22,2mtpxg6v8f,Nick_Dissertation_EX1,1,64,2020-06-13T09:51:47-07:00,2.0352399349213,1,versionA_stim.csv,READVersionA.csv,"Read Version A","Dissertation, read only version A",TRIAL,JURY,Study1,S,50,56,Study,User,-,,Study/JOL,"Study Phase",1548,,,-1,-1,,,,1
5ece8aec61cfc90a2216bf22,2mtpxg6v8f,Nick_Dissertation_EX1,1,65,2020-06-13T09:51:48-07:00,1.8160610198975,1,versionA_stim.csv,READVersionA.csv,"Read Version A","Dissertation, read only version A",DUE,ASSIGNMENT,Study1,S,46,30,Study,User,-,,Study/JOL,"Study Phase",1336,,,-1,-1,,,,1
5ece8aec61cfc90a2216bf22,2mtpxg6v8f,Nick_Dissertation_EX1,1,66,2020-06-13T09:51:50-07:00,1.6516311168671,1,versionA_stim.csv,READVersionA.csv,"Read Version A","Dissertation, read only version A",CREDIT,CARD,Study1,F,23,59,Study,User,-,,Study/JOL,"Study Phase",1171,,,-1,-1,,,,1
5ece8aec61cfc90a2216bf22,2mtpxg6v8f,Nick_Dissertation_EX1,1,67,2020-06-13T09:51:52-07:00,1.8397970199585,1,versionA_stim.csv,READVersionA.csv,"Read Version A","Dissertation, read only version A",WAGE,MONEY,Study1,F,8,63,Study,User,-,,Study/JOL,"Study Phase",1352,,,-1,-1,,,,1
5ece8aec61cfc90a2216bf22,2mtpxg6v8f,Nick_Dissertation_EX1,1,68,2020-06-13T09:51:53-07:00,1.5121319293976,1,versionA_stim.csv,READVersionA.csv,"Read Version A","Dissertation, read only version A",PLANE,PILOT,Study1,B,44,73,Study,User,-,,Study/JOL,"Study Phase",1014,,,-1,-1,,,,1
5ece8aec61cfc90a2216bf22,2mtpxg6v8f,Nick_Dissertation_EX1,1,69,2020-06-13T09:51:56-07:00,2.0625810623169,1,versionA_stim.csv,READVersionA.csv,"Read Version A","Dissertation, read only version A",DEBATE,SIGHT,Study1,U,73,65,Study,User,-,,Study/JOL,"Study Phase",1565,,,-1,-1,,,,1
5ece8aec61cfc90a2216bf22,2mtpxg6v8f,Nick_Dissertation_EX1,1,70,2020-06-13T09:51:57-07:00,1.9568109512329,1,versionA_stim.csv,READVersionA.csv,"Read Version A","Dissertation, read only version A",VALLEY,ADD,Study1,U,82,16,Study,User,-,,Study/JOL,"Study Phase",1424,,,-1,-1,,,,1
5ece8aec61cfc90a2216bf22,2mtpxg6v8f,Nick_Dissertation_EX1,1,71,2020-06-13T09:51:59-07:00,1.8756229877472,1,versionA_stim.csv,READVersionA.csv,"Read Version A","Dissertation, read only version A",LIFT,WOMAN,Study1,U,69,76,Study,User,-,,Study/JOL,"Study Phase",1375,,,-1,-1,,,,1
5ece8aec61cfc90a2216bf22,2mtpxg6v8f,Nick_Dissertation_EX1,1,72,2020-06-13T09:52:01-07:00,1.6722240447998,1,versionA_stim.csv,READVersionA.csv,"Read Version A","Dissertation, read only version A",KEY,LATCH,Study1,B,36,14,Study,User,-,,Study/JOL,"Study Phase",1168,,,-1,-1,,,,1
5ece8aec61cfc90a2216bf22,2mtpxg6v8f,Nick_Dissertation_EX1,1,73,2020-06-13T09:52:02-07:00,1.3749330043793,1,versionA_stim.csv,READVersionA.csv,"Read Version A","Dissertation, read only version A",SOON,BELT,Study1,U,70,67,Study,User,-,,Study/JOL,"Study Phase",896,,,-1,-1,,,,1
5ece8aec61cfc90a2216bf22,2mtpxg6v8f,Nick_Dissertation_EX1,1,74,2020-06-13T09:52:04-07:00,1.9215669631958,1,versionA_stim.csv,READVersionA.csv,"Read Version A","Dissertation, read only version A",DIETARY,SACKING,Study1,U,67,32,Study,User,-,,Study/JOL,"Study Phase",1400,,,-1,-1,,,,1
5ece8aec61cfc90a2216bf22,2mtpxg6v8f,Nick_Dissertation_EX1,1,75,2020-06-13T09:52:06-07:00,1.560329914093,1,versionA_stim.csv,READVersionA.csv,"Read Version A","Dissertation, read only version A",EDITOR,NEWS,Study1,F,10,20,Study,User,-,,Study/JOL,"Study Phase",1046,,,-1,-1,,,,1
5ece8aec61cfc90a2216bf22,2mtpxg6v8f,Nick_Dissertation_EX1,1,76,2020-06-13T09:52:07-07:00,1.2065460681915,1,versionA_stim.csv,READVersionA.csv,"Read Version A","Dissertation, read only version A",TAKE,SEIZE,Study1,B,29,10,Study,User,-,,Study/JOL,"Study Phase",705,,,-1,-1,,,,1
5ece8aec61cfc90a2216bf22,2mtpxg6v8f,Nick_Dissertation_EX1,1,77,2020-06-13T09:52:09-07:00,1.4756979942322,1,versionA_stim.csv,READVersionA.csv,"Read Version A","Dissertation, read only version A",ROOT,PLANT,Study1,F,13,9,Study,User,-,,Study/JOL,"Study Phase",961,,,-1,-1,,,,1
5ece8aec61cfc90a2216bf22,2mtpxg6v8f,Nick_Dissertation_EX1,1,78,2020-06-13T09:52:10-07:00,1.4057450294495,1,versionA_stim.csv,READVersionA.csv,"Read Version A","Dissertation, read only version A",HORNET,STING,Study1,F,11,61,Study,User,-,,Study/JOL,"Study Phase",914,,,-1,-1,,,,1
5ece8aec61cfc90a2216bf22,2mtpxg6v8f,Nick_Dissertation_EX1,1,79,2020-06-13T09:52:12-07:00,1.8446230888367,1,versionA_stim.csv,READVersionA.csv,"Read Version A","Dissertation, read only version A",MATH,DIVISION,Study1,B,33,25,Study,User,-,,Study/JOL,"Study Phase",1351,,,-1,-1,,,,1
5ece8aec61cfc90a2216bf22,2mtpxg6v8f,Nick_Dissertation_EX1,1,80,2020-06-13T09:52:14-07:00,1.7422828674316,1,versionA_stim.csv,READVersionA.csv,"Read Version A","Dissertation, read only version A",FULL,ENOUGH,Study1,B,26,22,Study,User,-,,Study/JOL,"Study Phase",1247,,,-1,-1,,,,1
5ece8aec61cfc90a2216bf22,2mtpxg6v8f,Nick_Dissertation_EX1,1,81,2020-06-13T09:52:15-07:00,1.3761050701141,1,versionA_stim.csv,READVersionA.csv,"Read Version A","Dissertation, read only version A",PARK,HUNGRY,Study1,U,68,84,Study,User,-,,Study/JOL,"Study Phase",890,,,-1,-1,,,,1
5ece8aec61cfc90a2216bf22,2mtpxg6v8f,Nick_Dissertation_EX1,1,82,2020-06-13T09:52:17-07:00,1.6452479362488,1,versionA_stim.csv,READVersionA.csv,"Read Version A","Dissertation, read only version A",DUMP,WASTE,Study1,S,49,47,Study,User,-,,Study/JOL,"Study Phase",1144,,,-1,-1,,,,1
5ece8aec61cfc90a2216bf22,2mtpxg6v8f,Nick_Dissertation_EX1,1,83,2020-06-13T09:52:18-07:00,1.5800230503082,1,versionA_stim.csv,READVersionA.csv,"Read Version A","Dissertation, read only version A",ART,LION,Study1,U,79,81,Study,User,-,,Study/JOL,"Study Phase",1092,,,-1,-1,,,,1
5ece8aec61cfc90a2216bf22,2mtpxg6v8f,Nick_Dissertation_EX1,1,84,2020-06-13T09:52:20-07:00,2.1749660968781,1,versionA_stim.csv,READVersionA.csv,"Read Version A","Dissertation, read only version A",MEANING,DEFINITION,Study1,S,62,42,Study,User,-,,Study/JOL,"Study Phase",1682,,,-1,-1,,,,1
5ece8aec61cfc90a2216bf22,2mtpxg6v8f,Nick_Dissertation_EX1,1,85,2020-06-13T09:52:22-07:00,1.722051858902,1,versionA_stim.csv,READVersionA.csv,"Read Version A","Dissertation, read only version A",GRILL,BAR,Study1,S,52,34,Study,User,-,,Study/JOL,"Study Phase",1225,,,-1,-1,,,,1
5ece8aec61cfc90a2216bf22,2mtpxg6v8f,Nick_Dissertation_EX1,1,86,2020-06-13T09:52:24-07:00,1.694179058075,1,versionA_stim.csv,READVersionA.csv,"Read Version A","Dissertation, read only version A",POP,SODA,Study1,S,56,11,Study,User,-,,Study/JOL,"Study Phase",1178,,,-1,-1,,,,1
5ece8aec61cfc90a2216bf22,2mtpxg6v8f,Nick_Dissertation_EX1,1,87,2020-06-13T09:52:26-07:00,1.8109090328217,1,versionA_stim.csv,READVersionA.csv,"Read Version A","Dissertation, read only version A",GEESE,GOOSE,BUFFER2,Buffer,86,87,Study,User,-,,Study/JOL,BUFFER2,1292,,,-1,-1,,,,1
5ece8aec61cfc90a2216bf22,2mtpxg6v8f,Nick_Dissertation_EX1,1,88,2020-06-13T09:52:27-07:00,1.1588180065155,1,versionA_stim.csv,READVersionA.csv,"Read Version A","Dissertation, read only version A",MOON,SPACE,BUFFER2,Buffer,89,91,Study,User,-,,Study/JOL,BUFFER2,660,,,-1,-1,,,,1
5ece8aec61cfc90a2216bf22,2mtpxg6v8f,Nick_Dissertation_EX1,1,89,2020-06-13T09:52:28-07:00,1.0573749542236,1,versionA_stim.csv,READVersionA.csv,"Read Version A","Dissertation, read only version A",SHERRIF,POLICE,BUFFER2,Buffer,87,88,Study,User,-,,Study/JOL,BUFFER2,578,,,-1,-1,,,,1
5ece8aec61cfc90a2216bf22,2mtpxg6v8f,Nick_Dissertation_EX1,1,90,2020-06-13T09:52:29-07:00,1.2454640865326,1,versionA_stim.csv,READVersionA.csv,"Read Version A","Dissertation, read only version A",THING,STUFF,BUFFER2,Buffer,90,90,Study,User,-,,Study/JOL,BUFFER2,754,,,-1,-1,,,,1
5ece8aec61cfc90a2216bf22,2mtpxg6v8f,Nick_Dissertation_EX1,1,91,2020-06-13T09:52:31-07:00,2.0102088451385,1,versionA_stim.csv,READVersionA.csv,"Read Version A","Dissertation, read only version A",MALT,CHOCOLATE,BUFFER2,Buffer,88,89,Study,User,-,,Study/JOL,BUFFER2,1205,,,-1,-1,,,,1
5ece8aec61cfc90a2216bf22,2mtpxg6v8f,Nick_Dissertation_EX1,1,92,2020-06-13T09:52:39-07:00,7.6650240421295,1,versionA_stim.csv,READVersionA.csv,"Read Version A","Dissertation, read only version A",,,,,,0,Instruct,User,-,"You have completed this section. Please press Enter.",Filler_Instruction,Instruct2,6873,,,-1,-1,,,,1
5ece8aec61cfc90a2216bf22,2mtpxg6v8f,Nick_Dissertation_EX1,1,93,2020-06-13T09:54:40-07:00,121.61437106133,1,versionA_stim.csv,READVersionA.csv,"Read Version A","Dissertation, read only version A",,,,,,0,FreeRecall,120,120,"Please list the 50 US states in alphabetical order. The task will automatically advance to the next screen after two minutes.",,Filler1,120002,"Arizona Texas",0,106514,111931,0,0,,1
5ece8aec61cfc90a2216bf22,2mtpxg6v8f,Nick_Dissertation_EX1,1,94,2020-06-13T09:55:06-07:00,25.841902017593,1,versionA_stim.csv,READVersionA.csv,"Read Version A","Dissertation, read only version A",,,,,,0,Instruct,-,10,"You will now be presented with the first word from each of the previously studied item pairs. Please type the missing word. If you do not know the word, you may guess or press Enter to skip forward to the next pair.",,Instruct3,25240,,,-1,-1,,,,1
5ece8aec61cfc90a2216bf22,2mtpxg6v8f,Nick_Dissertation_EX1,1,95,2020-06-13T09:55:14-07:00,7.4927728176117,1,versionA_stim.csv,READVersionA.csv,"Read Version A","Dissertation, read only version A",DARK,CAVE,Study1,B,28,29,Test,User,-,,Recall,Recall1,6869,CAVE,100,2730,5113,1,1,,1
5ece8aec61cfc90a2216bf22,2mtpxg6v8f,Nick_Dissertation_EX1,1,96,2020-06-13T09:55:22-07:00,8.7314112186432,1,versionA_stim.csv,READVersionA.csv,"Read Version A","Dissertation, read only version A",PARK,HUNGRY,Study1,U,68,84,Test,User,-,,Recall,Recall1,8129,SIGHT,18.181818181818,5127,5807,0,0,,1
5ece8aec61cfc90a2216bf22,2mtpxg6v8f,Nick_Dissertation_EX1,1,97,2020-06-13T09:55:29-07:00,6.8032088279724,1,versionA_stim.csv,READVersionA.csv,"Read Version A","Dissertation, read only version A",ORCHID,FLOWER,Study1,F,24,28,Test,User,-,,Recall,Recall1,6172,GREEN,18.181818181818,3238,4111,0,0,,1
5ece8aec61cfc90a2216bf22,2mtpxg6v8f,Nick_Dissertation_EX1,1,98,2020-06-13T09:55:34-07:00,5.0503211021423,1,versionA_stim.csv,READVersionA.csv,"Read Version A","Dissertation, read only version A",WORK,CHORE,Study1,B,39,54,Test,User,-,,Recall,Recall1,4430,HARD,44.444444444444,2768,3328,0,0,,1
5ece8aec61cfc90a2216bf22,2mtpxg6v8f,Nick_Dissertation_EX1,1,99,2020-06-13T09:55:39-07:00,5.2549538612366,1,versionA_stim.csv,READVersionA.csv,"Read Version A","Dissertation, read only version A",CIRCLE,ROUND,Study1,S,65,79,Test,User,-,,Recall,Recall1,4656,ROUND,100,1602,2331,1,1,,1
5ece8aec61cfc90a2216bf22,2mtpxg6v8f,Nick_Dissertation_EX1,1,100,2020-06-13T09:55:44-07:00,4.0847911834717,1,versionA_stim.csv,READVersionA.csv,"Read Version A","Dissertation, read only version A",MACHINE,POSITION,Study1,U,76,23,Test,User,-,,Recall,Recall1,3490,LIFT,33.333333333333,1988,2748,0,0,,1
5ece8aec61cfc90a2216bf22,2mtpxg6v8f,Nick_Dissertation_EX1,1,101,2020-06-13T09:55:48-07:00,4.675586938858,1,versionA_stim.csv,READVersionA.csv,"Read Version A","Dissertation, read only version A",CLOTHES,ATTIRE,Study1,B,43,68,Test,User,-,,Recall,Recall1,4089,ATTIRE,100,1603,2507,1,1,,1
5ece8aec61cfc90a2216bf22,2mtpxg6v8f,Nick_Dissertation_EX1,1,102,2020-06-13T09:56:03-07:00,14.847630977631,1,versionA_stim.csv,READVersionA.csv,"Read Version A","Dissertation, read only version A",MATH,DIVISION,Study1,B,33,25,Test,User,-,,Recall,Recall1,14236,SCHOOL,28.571428571429,12037,12917,0,0,,1
5ece8aec61cfc90a2216bf22,2mtpxg6v8f,Nick_Dissertation_EX1,1,103,2020-06-13T09:56:07-07:00,4.3718020915985,1,versionA_stim.csv,READVersionA.csv,"Read Version A","Dissertation, read only version A",WAGE,MONEY,Study1,F,8,63,Test,User,-,,Recall,Recall1,3647,MONEY,100,1592,2208,1,1,,1
5ece8aec61cfc90a2216bf22,2mtpxg6v8f,Nick_Dissertation_EX1,1,104,2020-06-13T09:56:11-07:00,3.418548822403,1,versionA_stim.csv,READVersionA.csv,"Read Version A","Dissertation, read only version A",HONEY,BEE,Study1,S,63,19,Test,User,-,,Recall,Recall1,2821,BEE,100,1413,2037,1,1,,1
5ece8aec61cfc90a2216bf22,2mtpxg6v8f,Nick_Dissertation_EX1,1,105,2020-06-13T09:56:16-07:00,4.6615400314331,1,versionA_stim.csv,READVersionA.csv,"Read Version A","Dissertation, read only version A",ALLOW,TUCK,Study1,U,78,66,Test,User,-,,Recall,Recall1,4080,TUCK,100,2058,2778,1,1,,1
5ece8aec61cfc90a2216bf22,2mtpxg6v8f,Nick_Dissertation_EX1,1,106,2020-06-13T09:56:23-07:00,7.8454029560089,1,versionA_stim.csv,READVersionA.csv,"Read Version A","Dissertation, read only version A",MEANING,DEFINITION,Study1,S,62,42,Test,User,-,,Recall,Recall1,7248,DEFINITION,100,1497,3913,1,1,,1
5ece8aec61cfc90a2216bf22,2mtpxg6v8f,Nick_Dissertation_EX1,1,107,2020-06-13T09:56:29-07:00,5.6565170288086,1,versionA_stim.csv,READVersionA.csv,"Read Version A","Dissertation, read only version A",TRIAL,JURY,Study1,S,50,56,Test,User,-,,Recall,Recall1,4021,JURY,100,1946,2290,1,1,,1
5ece8aec61cfc90a2216bf22,2mtpxg6v8f,Nick_Dissertation_EX1,1,108,2020-06-13T09:56:39-07:00,10.304553985596,1,versionA_stim.csv,READVersionA.csv,"Read Version A","Dissertation, read only version A",POP,SODA,Study1,S,56,11,Test,User,-,,Recall,Recall1,9709,MUSIC,22.222222222222,2656,8544,0,0,,1
5ece8aec61cfc90a2216bf22,2mtpxg6v8f,Nick_Dissertation_EX1,1,109,2020-06-13T09:56:44-07:00,4.1965701580048,1,versionA_stim.csv,READVersionA.csv,"Read Version A","Dissertation, read only version A",BLOW,WIND,Study1,S,55,15,Test,User,-,,Recall,Recall1,3540,UP,0,1729,2049,0,0,,1
5ece8aec61cfc90a2216bf22,2mtpxg6v8f,Nick_Dissertation_EX1,1,110,2020-06-13T09:56:48-07:00,4.2850189208984,1,versionA_stim.csv,READVersionA.csv,"Read Version A","Dissertation, read only version A",SHOE,FOOT,Study1,S,60,7,Test,User,-,,Recall,Recall1,3637,LACE,0,1792,2320,0,0,,1
5ece8aec61cfc90a2216bf22,2mtpxg6v8f,Nick_Dissertation_EX1,1,111,2020-06-13T09:56:54-07:00,6.6500890254974,1,versionA_stim.csv,READVersionA.csv,"Read Version A","Dissertation, read only version A",PLANE,PILOT,Study1,B,44,73,Test,User,-,,Recall,Recall1,5067,AIR,25,3234,3569,0,0,,1
5ece8aec61cfc90a2216bf22,2mtpxg6v8f,Nick_Dissertation_EX1,1,112,2020-06-13T09:57:00-07:00,5.883770942688,1,versionA_stim.csv,READVersionA.csv,"Read Version A","Dissertation, read only version A",ARCHITECTURE,DESIGN,Study1,S,51,17,Test,User,-,,Recall,Recall1,5244,BUILD,18.181818181818,3312,4000,0,0,,1
5ece8aec61cfc90a2216bf22,2mtpxg6v8f,Nick_Dissertation_EX1,1,113,2020-06-13T09:57:08-07:00,7.9486079216003,1,versionA_stim.csv,READVersionA.csv,"Read Version A","Dissertation, read only version A",SENTENCE,WORD,Study1,B,31,48,Test,User,-,,Recall,Recall1,7340,WORDS,88.888888888889,2805,5268,0,1,,1
5ece8aec61cfc90a2216bf22,2mtpxg6v8f,Nick_Dissertation_EX1,1,114,2020-06-13T09:57:13-07:00,5.1430790424347,1,versionA_stim.csv,READVersionA.csv,"Read Version A","Dissertation, read only version A",BABY,CHILD,Study1,S,64,40,Test,User,-,,Recall,Recall1,4521,CHILD,100,2595,3187,1,1,,1
5ece8aec61cfc90a2216bf22,2mtpxg6v8f,Nick_Dissertation_EX1,1,115,2020-06-13T09:57:19-07:00,5.9641139507294,1,versionA_stim.csv,READVersionA.csv,"Read Version A","Dissertation, read only version A",BATHROOM,TOILET,Study1,S,58,86,Test,User,-,,Recall,Recall1,5386,ROOM,20,3002,4114,0,0,,1
5ece8aec61cfc90a2216bf22,2mtpxg6v8f,Nick_Dissertation_EX1,1,116,2020-06-13T09:57:24-07:00,4.2799000740051,1,versionA_stim.csv,READVersionA.csv,"Read Version A","Dissertation, read only version A",KIDNEY,LIVER,Study1,S,53,70,Test,User,-,,Recall,Recall1,3678,LIVER,100,1668,3084,1,1,,1
5ece8aec61cfc90a2216bf22,2mtpxg6v8f,Nick_Dissertation_EX1,1,117,2020-06-13T09:57:29-07:00,4.9651539325714,1,versionA_stim.csv,READVersionA.csv,"Read Version A","Dissertation, read only version A",VALLEY,ADD,Study1,U,82,16,Test,User,-,,Recall,Recall1,4338,WEST,0,2322,2778,0,0,,1
5ece8aec61cfc90a2216bf22,2mtpxg6v8f,Nick_Dissertation_EX1,1,118,2020-06-13T09:57:32-07:00,3.6574440002441,1,versionA_stim.csv,READVersionA.csv,"Read Version A","Dissertation, read only version A",TUNA,FISH,Study1,F,25,45,Test,User,-,,Recall,Recall1,3083,FISH,100,1324,1612,1,1,,1
5ece8aec61cfc90a2216bf22,2mtpxg6v8f,Nick_Dissertation_EX1,1,119,2020-06-13T09:57:44-07:00,11.591098070145,1,versionA_stim.csv,READVersionA.csv,"Read Version A","Dissertation, read only version A",DISCOVER,FLOOR,Study1,U,71,77,Test,User,-,,Recall,Recall1,10960,CHANNEL,16.666666666667,6664,9296,0,0,,1
5ece8aec61cfc90a2216bf22,2mtpxg6v8f,Nick_Dissertation_EX1,1,120,2020-06-13T09:57:49-07:00,5.4248189926147,1,versionA_stim.csv,READVersionA.csv,"Read Version A","Dissertation, read only version A",NUMBER,AMOUNT,Study1,S,47,71,Test,User,-,,Recall,Recall1,4701,GAME,40,3030,3398,0,0,,1
5ece8aec61cfc90a2216bf22,2mtpxg6v8f,Nick_Dissertation_EX1,1,121,2020-06-13T09:57:55-07:00,5.2570970058441,1,versionA_stim.csv,READVersionA.csv,"Read Version A","Dissertation, read only version A",DEBATE,SIGHT,Study1,U,73,65,Test,User,-,,Recall,Recall1,4661,LAW,0,2757,3061,0,0,,1
5ece8aec61cfc90a2216bf22,2mtpxg6v8f,Nick_Dissertation_EX1,1,122,2020-06-13T09:58:02-07:00,7.8725459575653,1,versionA_stim.csv,READVersionA.csv,"Read Version A","Dissertation, read only version A",DISCUSSION,TALK,Study1,F,21,36,Test,User,-,,Recall,Recall1,7278,TALK,100,1867,4091,1,1,,1
5ece8aec61cfc90a2216bf22,2mtpxg6v8f,Nick_Dissertation_EX1,1,123,2020-06-13T09:58:09-07:00,6.8479850292206,1,versionA_stim.csv,READVersionA.csv,"Read Version A","Dissertation, read only version A",HIDE,SICK,Study1,U,84,31,Test,User,-,,Recall,Recall1,6250,DARK,25,2267,3547,0,0,,1
5ece8aec61cfc90a2216bf22,2mtpxg6v8f,Nick_Dissertation_EX1,1,124,2020-06-13T09:58:16-07:00,6.5343451499939,1,versionA_stim.csv,READVersionA.csv,"Read Version A","Dissertation, read only version A",SLEEP,DROWSY,Study1,B,41,58,Test,User,-,,Recall,Recall1,5921,WAKE,20,3205,4821,0,0,,1
5ece8aec61cfc90a2216bf22,2mtpxg6v8f,Nick_Dissertation_EX1,1,125,2020-06-13T09:58:22-07:00,5.8045887947083,1,versionA_stim.csv,READVersionA.csv,"Read Version A","Dissertation, read only version A",CHISEL,HAMMER,Study1,F,9,80,Test,User,-,,Recall,Recall1,5225,HAMMER,100,1728,2328,1,1,,1
5ece8aec61cfc90a2216bf22,2mtpxg6v8f,Nick_Dissertation_EX1,1,126,2020-06-13T09:58:25-07:00,3.7716720104218,1,versionA_stim.csv,READVersionA.csv,"Read Version A","Dissertation, read only version A",DELINQUENT,BAD,Study1,F,6,41,Test,User,-,,Recall,Recall1,3179,BAD,100,1923,2163,1,1,,1
5ece8aec61cfc90a2216bf22,2mtpxg6v8f,Nick_Dissertation_EX1,1,127,2020-06-13T09:58:30-07:00,4.5710501670837,1,versionA_stim.csv,READVersionA.csv,"Read Version A","Dissertation, read only version A",FULL,ENOUGH,Study1,B,26,22,Test,User,-,,Recall,Recall1,3960,ENOUGH,100,1612,2580,1,1,,1
5ece8aec61cfc90a2216bf22,2mtpxg6v8f,Nick_Dissertation_EX1,1,128,2020-06-13T09:58:37-07:00,7.1814548969269,1,versionA_stim.csv,READVersionA.csv,"Read Version A","Dissertation, read only version A",DUMP,WASTE,Study1,S,49,47,Test,User,-,,Recall,Recall1,6579,DOWN,22.222222222222,4253,5325,0,0,,1
5ece8aec61cfc90a2216bf22,2mtpxg6v8f,Nick_Dissertation_EX1,1,129,2020-06-13T09:58:50-07:00,12.996645927429,1,versionA_stim.csv,READVersionA.csv,"Read Version A","Dissertation, read only version A",STRONG,ACCIDENT,Study1,U,80,78,Test,User,-,,Recall,Recall1,12373,LIFE,33.333333333333,6827,9699,0,0,,1
5ece8aec61cfc90a2216bf22,2mtpxg6v8f,Nick_Dissertation_EX1,1,130,2020-06-13T09:59:26-07:00,35.503015041351,1,versionA_stim.csv,READVersionA.csv,"Read Version A","Dissertation, read only version A",ART,LION,Study1,U,79,81,Test,User,-,,Recall,Recall1,34868,OOPS,25,21997,29124,0,0,,1
5ece8aec61cfc90a2216bf22,2mtpxg6v8f,Nick_Dissertation_EX1,1,131,2020-06-13T09:59:31-07:00,4.8477520942688,1,versionA_stim.csv,READVersionA.csv,"Read Version A","Dissertation, read only version A",EDITOR,NEWS,Study1,F,10,20,Test,User,-,,Recall,Recall1,4241,MAKER,22.222222222222,2593,3089,0,0,,1
5ece8aec61cfc90a2216bf22,2mtpxg6v8f,Nick_Dissertation_EX1,1,132,2020-06-13T09:59:37-07:00,6.1792888641357,1,versionA_stim.csv,READVersionA.csv,"Read Version A","Dissertation, read only version A",PAST,FUTURE,Study1,S,61,38,Test,User,-,,Recall,Recall1,5517,TIME,40,2009,4137,0,0,,1
5ece8aec61cfc90a2216bf22,2mtpxg6v8f,Nick_Dissertation_EX1,1,133,2020-06-13T09:59:48-07:00,11.292436122894,1,versionA_stim.csv,READVersionA.csv,"Read Version A","Dissertation, read only version A",LIFT,WOMAN,Study1,U,69,76,Test,User,-,,Recall,Recall1,10694,UP,0,5196,9132,0,0,,1
5ece8aec61cfc90a2216bf22,2mtpxg6v8f,Nick_Dissertation_EX1,1,134,2020-06-13T09:59:54-07:00,5.8165769577026,1,versionA_stim.csv,READVersionA.csv,"Read Version A","Dissertation, read only version A",DUE,ASSIGNMENT,Study1,S,46,30,Test,User,-,,Recall,Recall1,5039,ASSIGNMENT,100,2279,3703,1,1,,1
5ece8aec61cfc90a2216bf22,2mtpxg6v8f,Nick_Dissertation_EX1,1,135,2020-06-13T09:59:59-07:00,4.993087053299,1,versionA_stim.csv,READVersionA.csv,"Read Version A","Dissertation, read only version A",DRINK,SIP,Study1,B,27,13,Test,User,-,,Recall,Recall1,4377,LAST,28.571428571429,2600,3040,0,0,,1
5ece8aec61cfc90a2216bf22,2mtpxg6v8f,Nick_Dissertation_EX1,1,136,2020-06-13T10:00:06-07:00,7.0618600845337,1,versionA_stim.csv,READVersionA.csv,"Read Version A","Dissertation, read only version A",PUSHER,CLUTTER,Study1,U,66,69,Test,User,-,,Recall,Recall1,6468,PULL,18.181818181818,2950,4903,0,0,,1
5ece8aec61cfc90a2216bf22,2mtpxg6v8f,Nick_Dissertation_EX1,1,137,2020-06-13T10:00:12-07:00,5.7153677940369,1,versionA_stim.csv,READVersionA.csv,"Read Version A","Dissertation, read only version A",HOT,CHILI,Study1,B,37,62,Test,User,-,,Recall,Recall1,5111,DAY,0,3514,3858,0,0,,1
5ece8aec61cfc90a2216bf22,2mtpxg6v8f,Nick_Dissertation_EX1,1,138,2020-06-13T10:00:19-07:00,6.9159960746765,1,versionA_stim.csv,READVersionA.csv,"Read Version A","Dissertation, read only version A",SWAN,BIRD,Study1,F,14,72,Test,User,-,,Recall,Recall1,6252,BIRD,100,4183,4646,1,1,,1
5ece8aec61cfc90a2216bf22,2mtpxg6v8f,Nick_Dissertation_EX1,1,139,2020-06-13T10:00:32-07:00,13.308421134949,1,versionA_stim.csv,READVersionA.csv,"Read Version A","Dissertation, read only version A",GREAT,FANTASTIC,Study1,B,35,50,Test,User,-,,Recall,Recall1,12725,WEATHER,25,9525,11845,0,0,,1
5ece8aec61cfc90a2216bf22,2mtpxg6v8f,Nick_Dissertation_EX1,1,140,2020-06-13T10:00:43-07:00,11.060431003571,1,versionA_stim.csv,READVersionA.csv,"Read Version A","Dissertation, read only version A",HORNET,STING,Study1,F,11,61,Test,User,-,,Recall,Recall1,10478,STING,100,8230,9327,1,1,,1
5ece8aec61cfc90a2216bf22,2mtpxg6v8f,Nick_Dissertation_EX1,1,141,2020-06-13T10:00:53-07:00,10.418291807175,1,versionA_stim.csv,READVersionA.csv,"Read Version A","Dissertation, read only version A",LOCATION,SITE,Study1,S,48,57,Test,User,-,,Recall,Recall1,9666,PLACE,22.222222222222,1832,8144,0,0,,1
5ece8aec61cfc90a2216bf22,2mtpxg6v8f,Nick_Dissertation_EX1,1,142,2020-06-13T10:00:58-07:00,4.4824240207672,1,versionA_stim.csv,READVersionA.csv,"Read Version A","Dissertation, read only version A",TAKE,SEIZE,Study1,B,29,10,Test,User,-,,Recall,Recall1,3875,ME,28.571428571429,2088,2216,0,0,,1
5ece8aec61cfc90a2216bf22,2mtpxg6v8f,Nick_Dissertation_EX1,1,143,2020-06-13T10:01:10-07:00,12.545470952988,1,versionA_stim.csv,READVersionA.csv,"Read Version A","Dissertation, read only version A",SMELL,STENCH,Study1,B,42,18,Test,User,-,,Recall,Recall1,11945,STENCH,100,7912,10696,1,1,,1
5ece8aec61cfc90a2216bf22,2mtpxg6v8f,Nick_Dissertation_EX1,1,144,2020-06-13T10:01:17-07:00,6.2553851604462,1,versionA_stim.csv,READVersionA.csv,"Read Version A","Dissertation, read only version A",REVOLUTION,WAR,Study1,F,20,33,Test,User,-,,Recall,Recall1,5631,BEGINS,0,1594,2377,0,0,,1
5ece8aec61cfc90a2216bf22,2mtpxg6v8f,Nick_Dissertation_EX1,1,145,2020-06-13T10:01:25-07:00,8.2185709476471,1,versionA_stim.csv,READVersionA.csv,"Read Version A","Dissertation, read only version A",BITTER,COLD,Study1,F,12,82,Test,User,-,,Recall,Recall1,7594,SWEET,0,5602,6249,0,0,,1
5ece8aec61cfc90a2216bf22,2mtpxg6v8f,Nick_Dissertation_EX1,1,146,2020-06-13T10:01:35-07:00,10.695401906967,1,versionA_stim.csv,READVersionA.csv,"Read Version A","Dissertation, read only version A",SUGAR,RIDDLE,Study1,U,81,46,Test,User,-,,Recall,Recall1,10084,GOOD,20,5274,8914,0,0,,1
5ece8aec61cfc90a2216bf22,2mtpxg6v8f,Nick_Dissertation_EX1,1,147,2020-06-13T10:01:40-07:00,4.4957439899445,1,versionA_stim.csv,READVersionA.csv,"Read Version A","Dissertation, read only version A",HAPPY,CAR,Study1,U,77,37,Test,User,-,,Recall,Recall1,3754,WIFE,0,1903,2286,0,0,,1
5ece8aec61cfc90a2216bf22,2mtpxg6v8f,Nick_Dissertation_EX1,1,148,2020-06-13T10:01:58-07:00,18.133088111877,1,versionA_stim.csv,READVersionA.csv,"Read Version A","Dissertation, read only version A",GRILL,BAR,Study1,S,52,34,Test,User,-,,Recall,Recall1,17510,BBQ,33.333333333333,1281,15960,0,0,,1
5ece8aec61cfc90a2216bf22,2mtpxg6v8f,Nick_Dissertation_EX1,1,149,2020-06-13T10:02:05-07:00,7.045511007309,1,versionA_stim.csv,READVersionA.csv,"Read Version A","Dissertation, read only version A",LETTUCE,SALAD,Study1,S,59,51,Test,User,-,,Recall,Recall1,6339,GREEN,0,3089,4769,0,0,,1
5ece8aec61cfc90a2216bf22,2mtpxg6v8f,Nick_Dissertation_EX1,1,150,2020-06-13T10:02:15-07:00,10.020011901855,1,versionA_stim.csv,READVersionA.csv,"Read Version A","Dissertation, read only version A",KEY,LATCH,Study1,B,36,14,Test,User,-,,Recall,Recall1,9424,LOCK,44.444444444444,7538,8066,0,0,,0.848
5ece8aec61cfc90a2216bf22,2mtpxg6v8f,Nick_Dissertation_EX1,1,151,2020-06-13T10:02:23-07:00,7.7454161643982,1,versionA_stim.csv,READVersionA.csv,"Read Version A","Dissertation, read only version A",ROOT,PLANT,Study1,F,13,9,Test,User,-,,Recall,Recall1,7023,PROBLEM,33.333333333333,3206,5525,0,0,,1
5ece8aec61cfc90a2216bf22,2mtpxg6v8f,Nick_Dissertation_EX1,1,152,2020-06-13T10:02:29-07:00,6.3771078586578,1,versionA_stim.csv,READVersionA.csv,"Read Version A","Dissertation, read only version A",DEATH,BUSINESS,Study1,U,72,83,Test,User,-,,Recall,Recall1,5786,BUSINESS,100,2998,4406,1,1,,1
5ece8aec61cfc90a2216bf22,2mtpxg6v8f,Nick_Dissertation_EX1,1,153,2020-06-13T10:02:37-07:00,7.4004220962524,1,versionA_stim.csv,READVersionA.csv,"Read Version A","Dissertation, read only version A",FIRE,BLAZE,Study1,B,45,27,Test,User,-,,Recall,Recall1,6773,BURN,22.222222222222,5094,5494,0,0,,1
5ece8aec61cfc90a2216bf22,2mtpxg6v8f,Nick_Dissertation_EX1,1,154,2020-06-13T10:02:45-07:00,8.3889870643616,1,versionA_stim.csv,READVersionA.csv,"Read Version A","Dissertation, read only version A",FIX,HAND,Study1,U,75,43,Test,User,-,,Recall,Recall1,6702,SECURE,0,4071,5527,0,0,,1
5ece8aec61cfc90a2216bf22,2mtpxg6v8f,Nick_Dissertation_EX1,1,155,2020-06-13T10:02:51-07:00,5.5245959758759,1,versionA_stim.csv,READVersionA.csv,"Read Version A","Dissertation, read only version A",HERD,COW,Study1,F,22,26,Test,User,-,,Recall,Recall1,4887,COW,100,1491,2971,1,1,,1
5ece8aec61cfc90a2216bf22,2mtpxg6v8f,Nick_Dissertation_EX1,1,156,2020-06-13T10:03:01-07:00,10.81248497963,1,versionA_stim.csv,READVersionA.csv,"Read Version A","Dissertation, read only version A",HEIGHT,GROWTH,Study1,B,30,24,Test,User,-,,Recall,Recall1,10190,MEASURE,15.384615384615,7553,9057,0,0,,1
5ece8aec61cfc90a2216bf22,2mtpxg6v8f,Nick_Dissertation_EX1,1,157,2020-06-13T10:03:08-07:00,6.5384638309479,1,versionA_stim.csv,READVersionA.csv,"Read Version A","Dissertation, read only version A",CASH,WOULD,Study1,U,83,8,Test,User,-,,Recall,Recall1,5820,WAGE,22.222222222222,2005,4821,0,0,,1
5ece8aec61cfc90a2216bf22,2mtpxg6v8f,Nick_Dissertation_EX1,1,158,2020-06-13T10:03:15-07:00,7.2569181919098,1,versionA_stim.csv,READVersionA.csv,"Read Version A","Dissertation, read only version A",KING,VASE,Study1,U,85,55,Test,User,-,,Recall,Recall1,6638,MONARCH,18.181818181818,2931,5194,0,0,,1
5ece8aec61cfc90a2216bf22,2mtpxg6v8f,Nick_Dissertation_EX1,1,159,2020-06-13T10:03:26-07:00,10.77282500267,1,versionA_stim.csv,READVersionA.csv,"Read Version A","Dissertation, read only version A",BEGIN,END,Study1,S,54,74,Test,User,-,,Recall,Recall1,10170,JOB,0,8625,8928,0,0,,1
5ece8aec61cfc90a2216bf22,2mtpxg6v8f,Nick_Dissertation_EX1,1,160,2020-06-13T10:03:39-07:00,12.928177833557,1,versionA_stim.csv,READVersionA.csv,"Read Version A","Dissertation, read only version A",DIETARY,SACKING,Study1,U,67,32,Test,User,-,,Recall,Recall1,12329,HUNGER,30.769230769231,3477,11253,0,0,,1
5ece8aec61cfc90a2216bf22,2mtpxg6v8f,Nick_Dissertation_EX1,1,161,2020-06-13T10:03:43-07:00,4.1104230880737,1,versionA_stim.csv,READVersionA.csv,"Read Version A","Dissertation, read only version A",SOON,BELT,Study1,U,70,67,Test,User,-,,Recall,Recall1,3377,NOW,0,1803,2131,0,0,,1
5ece8aec61cfc90a2216bf22,2mtpxg6v8f,Nick_Dissertation_EX1,1,162,2020-06-13T10:03:47-07:00,4.0220530033112,1,versionA_stim.csv,READVersionA.csv,"Read Version A","Dissertation, read only version A",WINE,CHEESE,Study1,S,57,60,Test,User,-,,Recall,Recall1,3400,CHEESE,100,1606,2702,1,1,,1
5ece8aec61cfc90a2216bf22,2mtpxg6v8f,Nick_Dissertation_EX1,1,163,2020-06-13T10:03:51-07:00,3.6152780056,1,versionA_stim.csv,READVersionA.csv,"Read Version A","Dissertation, read only version A",PAW,DOG,Study1,F,15,52,Test,User,-,,Recall,Recall1,3022,DOG,100,1387,1755,1,1,,1
5ece8aec61cfc90a2216bf22,2mtpxg6v8f,Nick_Dissertation_EX1,1,164,2020-06-13T10:03:54-07:00,3.2466070652008,1,versionA_stim.csv,READVersionA.csv,"Read Version A","Dissertation, read only version A",CREDIT,CARD,Study1,F,23,59,Test,User,-,,Recall,Recall1,2658,CARD,100,1251,2051,1,1,,1
5ece8aec61cfc90a2216bf22,2mtpxg6v8f,Nick_Dissertation_EX1,1,165,2020-06-13T10:03:59-07:00,5.0720689296722,1,versionA_stim.csv,READVersionA.csv,"Read Version A","Dissertation, read only version A",LAW,ATTORNEY,Study1,B,34,35,Test,User,-,,Recall,Recall1,4477,ORDER,46.153846153846,2584,3208,0,0,,1
5ece8aec61cfc90a2216bf22,2mtpxg6v8f,Nick_Dissertation_EX1,1,166,2020-06-13T10:04:07-07:00,8.1634440422058,1,versionA_stim.csv,READVersionA.csv,"Read Version A","Dissertation, read only version A",WAY,OUT,Study1,F,16,49,Test,User,-,,Recall,Recall1,7553,BACK,0,5435,6051,0,0,,1
5ece8aec61cfc90a2216bf22,2mtpxg6v8f,Nick_Dissertation_EX1,1,167,2020-06-13T10:04:14-07:00,6.7243309020996,1,versionA_stim.csv,READVersionA.csv,"Read Version A","Dissertation, read only version A",HYGIENE,CLEAN,Study1,F,17,12,Test,User,-,,Recall,Recall1,6085,MANNERS,33.333333333333,4300,5172,0,0,,1
5ece8aec61cfc90a2216bf22,2mtpxg6v8f,Nick_Dissertation_EX1,1,168,2020-06-13T10:04:25-07:00,11.475470066071,1,versionA_stim.csv,READVersionA.csv,"Read Version A","Dissertation, read only version A",ARTERY,BRONZE,Study1,U,74,85,Test,User,-,,Recall,Recall1,10883,FLOW,20,9088,9488,0,0,,1
5ece8aec61cfc90a2216bf22,2mtpxg6v8f,Nick_Dissertation_EX1,1,169,2020-06-13T10:04:34-07:00,8.6404340267181,1,versionA_stim.csv,READVersionA.csv,"Read Version A","Dissertation, read only version A",BALL,RACKET,Study1,B,38,53,Test,User,-,,Recall,Recall1,7894,BAT,44.444444444444,3661,6525,0,0,,1
5ece8aec61cfc90a2216bf22,2mtpxg6v8f,Nick_Dissertation_EX1,1,170,2020-06-13T10:04:40-07:00,5.8000910282135,1,versionA_stim.csv,READVersionA.csv,"Read Version A","Dissertation, read only version A",BRIDGE,WATER,Study1,F,18,75,Test,User,-,,Recall,Recall1,5192,WATER,100,2995,4339,1,1,,1
5ece8aec61cfc90a2216bf22,2mtpxg6v8f,Nick_Dissertation_EX1,1,171,2020-06-13T10:04:48-07:00,8.3096709251404,1,versionA_stim.csv,READVersionA.csv,"Read Version A","Dissertation, read only version A",DIGESTION,STOMACH,Study1,F,7,64,Test,User,-,,Recall,Recall1,7598,COMPLETE,26.666666666667,4693,6196,0,0,,1
5ece8aec61cfc90a2216bf22,2mtpxg6v8f,Nick_Dissertation_EX1,1,172,2020-06-13T10:04:54-07:00,5.5616209506989,1,versionA_stim.csv,READVersionA.csv,"Read Version A","Dissertation, read only version A",BUG,WASP,Study1,B,32,39,Test,User,-,,Recall,Recall1,4608,WASP,100,2518,3158,1,1,,0.952
5ece8aec61cfc90a2216bf22,2mtpxg6v8f,Nick_Dissertation_EX1,1,173,2020-06-13T10:05:03-07:00,8.8418021202087,1,versionA_stim.csv,READVersionA.csv,"Read Version A","Dissertation, read only version A",GEOLOGY,ROCK,Study1,F,19,21,Test,User,-,,Recall,Recall1,8231,GEOGRAPHY,15.384615384615,2680,5527,0,0,,1
5ece8aec61cfc90a2216bf22,2mtpxg6v8f,Nick_Dissertation_EX1,1,174,2020-06-13T10:05:07-07:00,4.7546298503876,1,versionA_stim.csv,READVersionA.csv,"Read Version A","Dissertation, read only version A",HUNGER,FAMINE,Study1,B,40,44,Test,User,-,,Recall,Recall1,4060,EAT,22.222222222222,2022,2550,0,0,,1
5ece8aec61cfc90a2216bf22,2mtpxg6v8f,Nick_Dissertation_EX1,1,175,2020-06-13T10:05:34-07:00,26.236209154129,1,versionA_stim.csv,READVersionA.csv,"Read Version A","Dissertation, read only version A",,,,,,0,Instruct,-,10,"You will now be presented with a new set of word pairs. Please study each pair. Remember that your memory will be tested! When finished, press Enter to move to the next pair.",Initial_Instruct,Instruct4,25640,,,-1,-1,,,,1
5ece8aec61cfc90a2216bf22,2mtpxg6v8f,Nick_Dissertation_EX1,1,176,2020-06-13T10:05:46-07:00,12.819775819778,1,versionA_stim.csv,READVersionA.csv,"Read Version A","Dissertation, read only version A",SHRIMP,FISH,BUFFER3,Buffer,93,94,Study,User,-,,Study/JOL,BUFFER3,12221,,,-1,-1,,,,1
5ece8aec61cfc90a2216bf22,2mtpxg6v8f,Nick_Dissertation_EX1,1,177,2020-06-13T10:05:56-07:00,9.7762820720673,1,versionA_stim.csv,READVersionA.csv,"Read Version A","Dissertation, read only version A",NOODLE,STRING,BUFFER3,Buffer,92,95,Study,User,-,,Study/JOL,BUFFER3,9190,,,-1,-1,,,,1
5ece8aec61cfc90a2216bf22,2mtpxg6v8f,Nick_Dissertation_EX1,1,178,2020-06-13T10:05:59-07:00,3.054211139679,1,versionA_stim.csv,READVersionA.csv,"Read Version A","Dissertation, read only version A",ICE,FROZEN,BUFFER3,Buffer,94,96,Study,User,-,,Study/JOL,BUFFER3,1412,,,-1,-1,,,,1
5ece8aec61cfc90a2216bf22,2mtpxg6v8f,Nick_Dissertation_EX1,1,179,2020-06-13T10:06:03-07:00,3.8304169178009,1,versionA_stim.csv,READVersionA.csv,"Read Version A","Dissertation, read only version A",CARROT,POTATO,BUFFER3,Buffer,91,93,Study,User,-,,Study/JOL,BUFFER3,3223,,,-1,-1,,,,1
5ece8aec61cfc90a2216bf22,2mtpxg6v8f,Nick_Dissertation_EX1,1,180,2020-06-13T10:06:05-07:00,2.1775388717651,1,versionA_stim.csv,READVersionA.csv,"Read Version A","Dissertation, read only version A",CAMP,ADVENTURE,BUFFER3,Buffer,95,92,Study,User,-,,Study/JOL,BUFFER3,1680,,,-1,-1,,,,1
5ece8aec61cfc90a2216bf22,2mtpxg6v8f,Nick_Dissertation_EX1,1,181,2020-06-13T10:06:11-07:00,5.9398651123047,1,versionA_stim.csv,READVersionA.csv,"Read Version A","Dissertation, read only version A",SUN,TAN,Study2,S,155,159,Study,User,-,,Study/JOL,"Study Phase2",5348,,,-1,-1,,,,1
5ece8aec61cfc90a2216bf22,2mtpxg6v8f,Nick_Dissertation_EX1,1,182,2020-06-13T10:06:12-07:00,1.3707358837128,1,versionA_stim.csv,READVersionA.csv,"Read Version A","Dissertation, read only version A",DRY,WET,Study2,S,146,105,Study,User,-,,Study/JOL,"Study Phase2",869,,,-1,-1,,,,1
5ece8aec61cfc90a2216bf22,2mtpxg6v8f,Nick_Dissertation_EX1,1,183,2020-06-13T10:06:16-07:00,3.0940330028534,1,versionA_stim.csv,READVersionA.csv,"Read Version A","Dissertation, read only version A",LITTER,TRASH,Study2,F,103,119,Study,User,-,,Study/JOL,"Study Phase2",2499,,,-1,-1,,,,1
5ece8aec61cfc90a2216bf22,2mtpxg6v8f,Nick_Dissertation_EX1,1,184,2020-06-13T10:06:19-07:00,3.1281712055206,1,versionA_stim.csv,READVersionA.csv,"Read Version A","Dissertation, read only version A",MAIN,SCAR,Study2,U,175,103,Study,User,-,,Study/JOL,"Study Phase2",2456,,,-1,-1,,,,1
5ece8aec61cfc90a2216bf22,2mtpxg6v8f,Nick_Dissertation_EX1,1,185,2020-06-13T10:06:22-07:00,3.7602219581604,1,versionA_stim.csv,READVersionA.csv,"Read Version A","Dissertation, read only version A",DEAD,COFFIN,Study2,B,128,126,Study,User,-,,Study/JOL,"Study Phase2",3157,,,-1,-1,,,,1
5ece8aec61cfc90a2216bf22,2mtpxg6v8f,Nick_Dissertation_EX1,1,186,2020-06-13T10:06:24-07:00,1.3415770530701,1,versionA_stim.csv,READVersionA.csv,"Read Version A","Dissertation, read only version A",BIRD,PENGUIN,Study2,B,119,168,Study,User,-,,Study/JOL,"Study Phase2",845,,,-1,-1,,,,1
5ece8aec61cfc90a2216bf22,2mtpxg6v8f,Nick_Dissertation_EX1,1,187,2020-06-13T10:06:26-07:00,2.0008728504181,1,versionA_stim.csv,READVersionA.csv,"Read Version A","Dissertation, read only version A",SAFETY,SEATBELT,Study2,S,147,132,Study,User,-,,Study/JOL,"Study Phase2",1508,,,-1,-1,,,,1
5ece8aec61cfc90a2216bf22,2mtpxg6v8f,Nick_Dissertation_EX1,1,188,2020-06-13T10:06:27-07:00,1.3369400501251,1,versionA_stim.csv,READVersionA.csv,"Read Version A","Dissertation, read only version A",MULE,DONKEY,Study2,F,108,163,Study,User,-,,Study/JOL,"Study Phase2",826,,,-1,-1,,,,1
5ece8aec61cfc90a2216bf22,2mtpxg6v8f,Nick_Dissertation_EX1,1,189,2020-06-13T10:06:29-07:00,1.3776490688324,1,versionA_stim.csv,READVersionA.csv,"Read Version A","Dissertation, read only version A",FISH,SARDINE,Study2,B,130,134,Study,User,-,,Study/JOL,"Study Phase2",873,,,-1,-1,,,,1
5ece8aec61cfc90a2216bf22,2mtpxg6v8f,Nick_Dissertation_EX1,1,190,2020-06-13T10:06:30-07:00,1.0959208011627,1,versionA_stim.csv,READVersionA.csv,"Read Version A","Dissertation, read only version A",BEST,FAVORITE,Study2,B,125,165,Study,User,-,,Study/JOL,"Study Phase2",570,,,-1,-1,,,,1
5ece8aec61cfc90a2216bf22,2mtpxg6v8f,Nick_Dissertation_EX1,1,191,2020-06-13T10:06:32-07:00,1.8980071544647,1,versionA_stim.csv,READVersionA.csv,"Read Version A","Dissertation, read only version A",LOUD,NOISE,Study2,S,152,113,Study,User,-,,Study/JOL,"Study Phase2",1389,,,-1,-1,,,,1
5ece8aec61cfc90a2216bf22,2mtpxg6v8f,Nick_Dissertation_EX1,1,192,2020-06-13T10:06:33-07:00,1.845654964447,1,versionA_stim.csv,READVersionA.csv,"Read Version A","Dissertation, read only version A",TRUTH,LIE,Study2,S,148,125,Study,User,-,,Study/JOL,"Study Phase2",1340,,,-1,-1,,,,1
5ece8aec61cfc90a2216bf22,2mtpxg6v8f,Nick_Dissertation_EX1,1,193,2020-06-13T10:06:36-07:00,2.8419079780579,1,versionA_stim.csv,READVersionA.csv,"Read Version A","Dissertation, read only version A",ELEMENT,CARBON,Study2,S,141,121,Study,User,-,,Study/JOL,"Study Phase2",1768,,,-1,-1,,,,1
5ece8aec61cfc90a2216bf22,2mtpxg6v8f,Nick_Dissertation_EX1,1,194,2020-06-13T10:06:38-07:00,1.9080970287323,1,versionA_stim.csv,READVersionA.csv,"Read Version A","Dissertation, read only version A",AFFECTION,LOVE,Study2,F,115,137,Study,User,-,,Study/JOL,"Study Phase2",1415,,,-1,-1,,,,1
5ece8aec61cfc90a2216bf22,2mtpxg6v8f,Nick_Dissertation_EX1,1,195,2020-06-13T10:06:47-07:00,9.334981918335,1,versionA_stim.csv,READVersionA.csv,"Read Version A","Dissertation, read only version A",LISTEN,FICTION,Study2,U,164,170,Study,User,-,,Study/JOL,"Study Phase2",8722,,,-1,-1,,,,1
5ece8aec61cfc90a2216bf22,2mtpxg6v8f,Nick_Dissertation_EX1,1,196,2020-06-13T10:06:53-07:00,5.4302780628204,1,versionA_stim.csv,READVersionA.csv,"Read Version A","Dissertation, read only version A",GONE,AWAY,Study2,S,142,136,Study,User,-,,Study/JOL,"Study Phase2",4809,,,-1,-1,,,,1
5ece8aec61cfc90a2216bf22,2mtpxg6v8f,Nick_Dissertation_EX1,1,197,2020-06-13T10:06:56-07:00,2.7942440509796,1,versionA_stim.csv,READVersionA.csv,"Read Version A","Dissertation, read only version A",RIGHTS,EQUAL,Study2,S,137,156,Study,User,-,,Study/JOL,"Study Phase2",2204,,,-1,-1,,,,1
5ece8aec61cfc90a2216bf22,2mtpxg6v8f,Nick_Dissertation_EX1,1,198,2020-06-13T10:06:57-07:00,1.2145879268646,1,versionA_stim.csv,READVersionA.csv,"Read Version A","Dissertation, read only version A",JUSTICE,MAROON,Study2,U,156,104,Study,User,-,,Study/JOL,"Study Phase2",707,,,-1,-1,,,,1
5ece8aec61cfc90a2216bf22,2mtpxg6v8f,Nick_Dissertation_EX1,1,199,2020-06-13T10:07:02-07:00,4.6754269599915,1,versionA_stim.csv,READVersionA.csv,"Read Version A","Dissertation, read only version A",LOAN,SIGN,Study2,U,171,176,Study,User,-,,Study/JOL,"Study Phase2",4063,,,-1,-1,,,,1
5ece8aec61cfc90a2216bf22,2mtpxg6v8f,Nick_Dissertation_EX1,1,200,2020-06-13T10:07:04-07:00,2.0143940448761,1,versionA_stim.csv,READVersionA.csv,"Read Version A","Dissertation, read only version A",SHOELACE,TIE,Study2,F,99,116,Study,User,-,,Study/JOL,"Study Phase2",1520,,,-1,-1,,,,1
5ece8aec61cfc90a2216bf22,2mtpxg6v8f,Nick_Dissertation_EX1,1,201,2020-06-13T10:07:09-07:00,5.2811300754547,1,versionA_stim.csv,READVersionA.csv,"Read Version A","Dissertation, read only version A",WATER,DRINK,Study2,S,143,120,Study,User,-,,Study/JOL,"Study Phase2",4693,,,-1,-1,,,,0.8
5ece8aec61cfc90a2216bf22,2mtpxg6v8f,Nick_Dissertation_EX1,1,202,2020-06-13T10:07:11-07:00,1.6763858795166,1,versionA_stim.csv,READVersionA.csv,"Read Version A","Dissertation, read only version A",PHONE,COMMUNICATION,Study2,S,149,140,Study,User,-,,Study/JOL,"Study Phase2",1169,,,-1,-1,,,,1
5ece8aec61cfc90a2216bf22,2mtpxg6v8f,Nick_Dissertation_EX1,1,203,2020-06-13T10:07:13-07:00,2.1670761108398,1,versionA_stim.csv,READVersionA.csv,"Read Version A","Dissertation, read only version A",FEUD,FIGHT,Study2,F,113,154,Study,User,-,,Study/JOL,"Study Phase2",1673,,,-1,-1,,,,1
5ece8aec61cfc90a2216bf22,2mtpxg6v8f,Nick_Dissertation_EX1,1,204,2020-06-13T10:07:15-07:00,1.8058898448944,1,versionA_stim.csv,READVersionA.csv,"Read Version A","Dissertation, read only version A",DOCUMENT,PAPER,Study2,F,109,100,Study,User,-,,Study/JOL,"Study Phase2",1304,,,-1,-1,,,,1
5ece8aec61cfc90a2216bf22,2mtpxg6v8f,Nick_Dissertation_EX1,1,205,2020-06-13T10:07:17-07:00,2.1112680435181,1,versionA_stim.csv,READVersionA.csv,"Read Version A","Dissertation, read only version A",THREAD,THIMBLE,Study2,B,121,109,Study,User,-,,Study/JOL,"Study Phase2",1622,,,-1,-1,,,,1
5ece8aec61cfc90a2216bf22,2mtpxg6v8f,Nick_Dissertation_EX1,1,206,2020-06-13T10:07:18-07:00,1.6999151706696,1,versionA_stim.csv,READVersionA.csv,"Read Version A","Dissertation, read only version A",SCALP,HEAD,Study2,F,105,155,Study,User,-,,Study/JOL,"Study Phase2",1216,,,-1,-1,,,,1
5ece8aec61cfc90a2216bf22,2mtpxg6v8f,Nick_Dissertation_EX1,1,207,2020-06-13T10:07:30-07:00,12.015669822693,1,versionA_stim.csv,READVersionA.csv,"Read Version A","Dissertation, read only version A",TEMPERATURE,Morning,Study2,U,173,110,Study,User,-,,Study/JOL,"Study Phase2",11390,,,-1,-1,,,,1
5ece8aec61cfc90a2216bf22,2mtpxg6v8f,Nick_Dissertation_EX1,1,208,2020-06-13T10:07:32-07:00,1.5740840435028,1,versionA_stim.csv,READVersionA.csv,"Read Version A","Dissertation, read only version A",CHOP,CUT,Study2,F,107,174,Study,User,-,,Study/JOL,"Study Phase2",929,,,-1,-1,,,,1
5ece8aec61cfc90a2216bf22,2mtpxg6v8f,Nick_Dissertation_EX1,1,209,2020-06-13T10:07:36-07:00,3.9176781177521,1,versionA_stim.csv,READVersionA.csv,"Read Version A","Dissertation, read only version A",FIGHT,BRAWL,Study2,B,135,123,Study,User,-,,Study/JOL,"Study Phase2",3319,,,-1,-1,,,,1
5ece8aec61cfc90a2216bf22,2mtpxg6v8f,Nick_Dissertation_EX1,1,210,2020-06-13T10:07:41-07:00,5.3689658641815,1,versionA_stim.csv,READVersionA.csv,"Read Version A","Dissertation, read only version A",MAZE,ELECTION,Study2,U,159,164,Study,User,-,,Study/JOL,"Study Phase2",4778,,,-1,-1,,,,1
5ece8aec61cfc90a2216bf22,2mtpxg6v8f,Nick_Dissertation_EX1,1,211,2020-06-13T10:07:43-07:00,1.8000960350037,1,versionA_stim.csv,READVersionA.csv,"Read Version A","Dissertation, read only version A",FLEA,TICK,Study2,S,151,175,Study,User,-,,Study/JOL,"Study Phase2",1286,,,-1,-1,,,,1
5ece8aec61cfc90a2216bf22,2mtpxg6v8f,Nick_Dissertation_EX1,1,212,2020-06-13T10:07:44-07:00,1.4230310916901,1,versionA_stim.csv,READVersionA.csv,"Read Version A","Dissertation, read only version A",NAME,HATE,Study2,U,167,153,Study,User,-,,Study/JOL,"Study Phase2",930,,,-1,-1,,,,1
5ece8aec61cfc90a2216bf22,2mtpxg6v8f,Nick_Dissertation_EX1,1,213,2020-06-13T10:07:46-07:00,1.6268129348755,1,versionA_stim.csv,READVersionA.csv,"Read Version A","Dissertation, read only version A",KEYS,JOKE,Study2,U,165,117,Study,User,-,,Study/JOL,"Study Phase2",1136,,,-1,-1,,,,1
5ece8aec61cfc90a2216bf22,2mtpxg6v8f,Nick_Dissertation_EX1,1,214,2020-06-13T10:07:48-07:00,2.3904769420624,1,versionA_stim.csv,READVersionA.csv,"Read Version A","Dissertation, read only version A",FUZZY,BANG,Study2,U,168,152,Study,User,-,,Study/JOL,"Study Phase2",1741,,,-1,-1,,,,1
5ece8aec61cfc90a2216bf22,2mtpxg6v8f,Nick_Dissertation_EX1,1,215,2020-06-13T10:07:51-07:00,2.1649870872498,1,versionA_stim.csv,READVersionA.csv,"Read Version A","Dissertation, read only version A",PLANE,AIRCRAFT,Study2,B,129,111,Study,User,-,,Study/JOL,"Study Phase2",1652,,,-1,-1,,,,1
5ece8aec61cfc90a2216bf22,2mtpxg6v8f,Nick_Dissertation_EX1,1,216,2020-06-13T10:07:52-07:00,1.6594109535217,1,versionA_stim.csv,READVersionA.csv,"Read Version A","Dissertation, read only version A",GIVE,STEAK,Study2,U,158,128,Study,User,-,,Study/JOL,"Study Phase2",1151,,,-1,-1,,,,1
5ece8aec61cfc90a2216bf22,2mtpxg6v8f,Nick_Dissertation_EX1,1,217,2020-06-13T10:07:55-07:00,2.3995261192322,1,versionA_stim.csv,READVersionA.csv,"Read Version A","Dissertation, read only version A",LEASE,TOIL,Study2,U,170,143,Study,User,-,,Study/JOL,"Study Phase2",1714,,,-1,-1,,,,1
5ece8aec61cfc90a2216bf22,2mtpxg6v8f,Nick_Dissertation_EX1,1,218,2020-06-13T10:07:57-07:00,1.9198439121246,1,versionA_stim.csv,READVersionA.csv,"Read Version A","Dissertation, read only version A",STRETCH,CLOTH,Study2,U,157,144,Study,User,-,,Study/JOL,"Study Phase2",1428,,,-1,-1,,,,1
5ece8aec61cfc90a2216bf22,2mtpxg6v8f,Nick_Dissertation_EX1,1,219,2020-06-13T10:07:59-07:00,2.1296219825745,1,versionA_stim.csv,READVersionA.csv,"Read Version A","Dissertation, read only version A",ROD,REEL,Study2,S,150,131,Study,User,-,,Study/JOL,"Study Phase2",1619,,,-1,-1,,,,1
5ece8aec61cfc90a2216bf22,2mtpxg6v8f,Nick_Dissertation_EX1,1,220,2020-06-13T10:08:01-07:00,2.4588949680328,1,versionA_stim.csv,READVersionA.csv,"Read Version A","Dissertation, read only version A",HONEST,TRUTHFUL,Study2,B,133,129,Study,User,-,,Study/JOL,"Study Phase2",1848,,,-1,-1,,,,1
5ece8aec61cfc90a2216bf22,2mtpxg6v8f,Nick_Dissertation_EX1,1,221,2020-06-13T10:08:05-07:00,3.5290539264679,1,versionA_stim.csv,READVersionA.csv,"Read Version A","Dissertation, read only version A",EXTENSION,LONG,Study2,F,96,169,Study,User,-,,Study/JOL,"Study Phase2",2928,,,-1,-1,,,,1
5ece8aec61cfc90a2216bf22,2mtpxg6v8f,Nick_Dissertation_EX1,1,222,2020-06-13T10:08:07-07:00,2.5679981708527,1,versionA_stim.csv,READVersionA.csv,"Read Version A","Dissertation, read only version A",MIRROR,CHILDREN,Study2,U,174,115,Study,User,-,,Study/JOL,"Study Phase2",1980,,,-1,-1,,,,1
5ece8aec61cfc90a2216bf22,2mtpxg6v8f,Nick_Dissertation_EX1,1,223,2020-06-13T10:08:08-07:00,1.0188419818878,1,versionA_stim.csv,READVersionA.csv,"Read Version A","Dissertation, read only version A",CAT,PANTHER,Study2,B,126,99,Study,User,-,,Study/JOL,"Study Phase2",514,,,-1,-1,,,,1
5ece8aec61cfc90a2216bf22,2mtpxg6v8f,Nick_Dissertation_EX1,1,224,2020-06-13T10:08:10-07:00,1.5174999237061,1,versionA_stim.csv,READVersionA.csv,"Read Version A","Dissertation, read only version A",ADJOURN,END,Study2,F,101,146,Study,User,-,,Study/JOL,"Study Phase2",1009,,,-1,-1,,,,1
5ece8aec61cfc90a2216bf22,2mtpxg6v8f,Nick_Dissertation_EX1,1,225,2020-06-13T10:08:12-07:00,2.0357019901276,1,versionA_stim.csv,READVersionA.csv,"Read Version A","Dissertation, read only version A",GLASS,BREAKABLE,Study2,B,127,124,Study,User,-,,Study/JOL,"Study Phase2",1514,,,-1,-1,,,,1
5ece8aec61cfc90a2216bf22,2mtpxg6v8f,Nick_Dissertation_EX1,1,226,2020-06-13T10:08:15-07:00,2.8881831169128,1,versionA_stim.csv,READVersionA.csv,"Read Version A","Dissertation, read only version A",DINE,EAT,Study2,F,111,162,Study,User,-,,Study/JOL,"Study Phase2",2300,,,-1,-1,,,,1
5ece8aec61cfc90a2216bf22,2mtpxg6v8f,Nick_Dissertation_EX1,1,227,2020-06-13T10:08:17-07:00,2.4567368030548,1,versionA_stim.csv,READVersionA.csv,"Read Version A","Dissertation, read only version A",RAZOR,SHAVE,Study2,S,136,118,Study,User,-,,Study/JOL,"Study Phase2",1856,,,-1,-1,,,,1
5ece8aec61cfc90a2216bf22,2mtpxg6v8f,Nick_Dissertation_EX1,1,228,2020-06-13T10:08:19-07:00,1.6020021438599,1,versionA_stim.csv,READVersionA.csv,"Read Version A","Dissertation, read only version A",CHERRY,RED,Study2,F,104,102,Study,User,-,,Study/JOL,"Study Phase2",1107,,,-1,-1,,,,1
5ece8aec61cfc90a2216bf22,2mtpxg6v8f,Nick_Dissertation_EX1,1,229,2020-06-13T10:08:32-07:00,12.96364402771,1,versionA_stim.csv,READVersionA.csv,"Read Version A","Dissertation, read only version A",Shell,SHAKE,Study2,U,163,107,Study,User,-,,Study/JOL,"Study Phase2",12340,,,-1,-1,,,,1
5ece8aec61cfc90a2216bf22,2mtpxg6v8f,Nick_Dissertation_EX1,1,230,2020-06-13T10:08:36-07:00,4.5233199596405,1,versionA_stim.csv,READVersionA.csv,"Read Version A","Dissertation, read only version A",CAR,WINDSHIELD,Study2,B,117,166,Study,User,-,,Study/JOL,"Study Phase2",3919,,,-1,-1,,,,1
5ece8aec61cfc90a2216bf22,2mtpxg6v8f,Nick_Dissertation_EX1,1,231,2020-06-13T10:08:38-07:00,1.6366789340973,1,versionA_stim.csv,READVersionA.csv,"Read Version A","Dissertation, read only version A",TURN,FLIP,Study2,B,116,173,Study,User,-,,Study/JOL,"Study Phase2",1127,,,-1,-1,,,,1
5ece8aec61cfc90a2216bf22,2mtpxg6v8f,Nick_Dissertation_EX1,1,232,2020-06-13T10:08:39-07:00,1.5149259567261,1,versionA_stim.csv,READVersionA.csv,"Read Version A","Dissertation, read only version A",STAR,ACTRESS,Study2,B,120,98,Study,User,-,,Study/JOL,"Study Phase2",1012,,,-1,-1,,,,1
5ece8aec61cfc90a2216bf22,2mtpxg6v8f,Nick_Dissertation_EX1,1,233,2020-06-13T10:08:42-07:00,2.4265291690826,1,versionA_stim.csv,READVersionA.csv,"Read Version A","Dissertation, read only version A",DETECTIVE,MYSTERY,Study2,F,100,151,Study,User,-,,Study/JOL,"Study Phase2",1824,,,-1,-1,,,,1
5ece8aec61cfc90a2216bf22,2mtpxg6v8f,Nick_Dissertation_EX1,1,234,2020-06-13T10:08:43-07:00,1.5971858501434,1,versionA_stim.csv,READVersionA.csv,"Read Version A","Dissertation, read only version A",CLUE,GAME,Study2,F,97,157,Study,User,-,,Study/JOL,"Study Phase2",1067,,,-1,-1,,,,1
5ece8aec61cfc90a2216bf22,2mtpxg6v8f,Nick_Dissertation_EX1,1,235,2020-06-13T10:08:45-07:00,1.5641691684723,1,versionA_stim.csv,READVersionA.csv,"Read Version A","Dissertation, read only version A",SLEEP,NAP,Study2,B,134,172,Study,User,-,,Study/JOL,"Study Phase2",1073,,,-1,-1,,,,1
5ece8aec61cfc90a2216bf22,2mtpxg6v8f,Nick_Dissertation_EX1,1,236,2020-06-13T10:08:48-07:00,3.1632997989655,1,versionA_stim.csv,READVersionA.csv,"Read Version A","Dissertation, read only version A",EARTH,GROUND,Study2,S,144,130,Study,User,-,,Study/JOL,"Study Phase2",2573,,,-1,-1,,,,1
5ece8aec61cfc90a2216bf22,2mtpxg6v8f,Nick_Dissertation_EX1,1,237,2020-06-13T10:08:49-07:00,1.0042672157288,1,versionA_stim.csv,READVersionA.csv,"Read Version A","Dissertation, read only version A",BAD,VILLAIN,Study2,B,118,139,Study,User,-,,Study/JOL,"Study Phase2",499,,,-1,-1,,,,1
5ece8aec61cfc90a2216bf22,2mtpxg6v8f,Nick_Dissertation_EX1,1,238,2020-06-13T10:08:51-07:00,1.6154479980469,1,versionA_stim.csv,READVersionA.csv,"Read Version A","Dissertation, read only version A",CACTUS,PLANT,Study2,F,98,141,Study,User,-,,Study/JOL,"Study Phase2",1128,,,-1,-1,,,,1
5ece8aec61cfc90a2216bf22,2mtpxg6v8f,Nick_Dissertation_EX1,1,239,2020-06-13T10:08:52-07:00,1.2589519023895,1,versionA_stim.csv,READVersionA.csv,"Read Version A","Dissertation, read only version A",POP,BALLOON,Study2,B,123,142,Study,User,-,,Study/JOL,"Study Phase2",758,,,-1,-1,,,,1
5ece8aec61cfc90a2216bf22,2mtpxg6v8f,Nick_Dissertation_EX1,1,240,2020-06-13T10:08:53-07:00,0.95124793052673,1,versionA_stim.csv,READVersionA.csv,"Read Version A","Dissertation, read only version A",BOTH,OUNCE,Study2,U,172,148,Study,User,-,,Study/JOL,"Study Phase2",454,,,-1,-1,,,,1
5ece8aec61cfc90a2216bf22,2mtpxg6v8f,Nick_Dissertation_EX1,1,241,2020-06-13T10:08:54-07:00,0.9980890750885,1,versionA_stim.csv,READVersionA.csv,"Read Version A","Dissertation, read only version A",BASEBALL,LEAGUE,Study2,B,131,101,Study,User,-,,Study/JOL,"Study Phase2",492,,,-1,-1,,,,1
5ece8aec61cfc90a2216bf22,2mtpxg6v8f,Nick_Dissertation_EX1,1,242,2020-06-13T10:08:55-07:00,1.4240019321442,1,versionA_stim.csv,READVersionA.csv,"Read Version A","Dissertation, read only version A",DRIVER,CAR,Study2,F,106,106,Study,User,-,,Study/JOL,"Study Phase2",916,,,-1,-1,,,,1
5ece8aec61cfc90a2216bf22,2mtpxg6v8f,Nick_Dissertation_EX1,1,243,2020-06-13T10:09:02-07:00,6.1155140399933,1,versionA_stim.csv,READVersionA.csv,"Read Version A","Dissertation, read only version A",WRIST,BRACELET,Study2,S,140,138,Study,User,-,,Study/JOL,"Study Phase2",4484,,,-1,-1,,,,0.636
5ece8aec61cfc90a2216bf22,2mtpxg6v8f,Nick_Dissertation_EX1,1,244,2020-06-13T10:09:03-07:00,1.9013679027557,1,versionA_stim.csv,READVersionA.csv,"Read Version A","Dissertation, read only version A",SHEARS,SCISSORS,Study2,F,112,145,Study,User,-,,Study/JOL,"Study Phase2",1397,,,-1,-1,,,,1
5ece8aec61cfc90a2216bf22,2mtpxg6v8f,Nick_Dissertation_EX1,1,245,2020-06-13T10:09:04-07:00,1.055694103241,1,versionA_stim.csv,READVersionA.csv,"Read Version A","Dissertation, read only version A",ALONE,LONELY,Study2,S,145,122,Study,User,-,,Study/JOL,"Study Phase2",567,,,-1,-1,,,,1
5ece8aec61cfc90a2216bf22,2mtpxg6v8f,Nick_Dissertation_EX1,1,246,2020-06-13T10:09:06-07:00,1.398549079895,1,versionA_stim.csv,READVersionA.csv,"Read Version A","Dissertation, read only version A",CRACKLE,ABLE,Study2,U,162,171,Study,User,-,,Study/JOL,"Study Phase2",882,,,-1,-1,,,,1
5ece8aec61cfc90a2216bf22,2mtpxg6v8f,Nick_Dissertation_EX1,1,247,2020-06-13T10:09:08-07:00,1.9490489959717,1,versionA_stim.csv,READVersionA.csv,"Read Version A","Dissertation, read only version A",CHILL,COLD,Study2,F,114,97,Study,User,-,,Study/JOL,"Study Phase2",1456,,,-1,-1,,,,1
5ece8aec61cfc90a2216bf22,2mtpxg6v8f,Nick_Dissertation_EX1,1,248,2020-06-13T10:09:09-07:00,1.5460729598999,1,versionA_stim.csv,READVersionA.csv,"Read Version A","Dissertation, read only version A",MASON,JAR,Study2,S,138,149,Study,User,-,,Study/JOL,"Study Phase2",1053,,,-1,-1,,,,1
5ece8aec61cfc90a2216bf22,2mtpxg6v8f,Nick_Dissertation_EX1,1,249,2020-06-13T10:09:12-07:00,2.5184450149536,1,versionA_stim.csv,READVersionA.csv,"Read Version A","Dissertation, read only version A",MONEY,BANKER,Study2,B,132,160,Study,User,-,,Study/JOL,"Study Phase2",1930,,,-1,-1,,,,1
5ece8aec61cfc90a2216bf22,2mtpxg6v8f,Nick_Dissertation_EX1,1,250,2020-06-13T10:09:13-07:00,1.2344570159912,1,versionA_stim.csv,READVersionA.csv,"Read Version A","Dissertation, read only version A",FRUIT,STRAWBERRY,Study2,B,124,127,Study,User,-,,Study/JOL,"Study Phase2",730,,,-1,-1,,,,1
5ece8aec61cfc90a2216bf22,2mtpxg6v8f,Nick_Dissertation_EX1,1,251,2020-06-13T10:09:14-07:00,1.2107219696045,1,versionA_stim.csv,READVersionA.csv,"Read Version A","Dissertation, read only version A",FURRY,DOG,Study2,F,102,150,Study,User,-,,Study/JOL,"Study Phase2",697,,,-1,-1,,,,1
5ece8aec61cfc90a2216bf22,2mtpxg6v8f,Nick_Dissertation_EX1,1,252,2020-06-13T10:09:16-07:00,1.4215979576111,1,versionA_stim.csv,READVersionA.csv,"Read Version A","Dissertation, read only version A",INCENSE,SMELL,Study2,F,110,135,Study,User,-,,Study/JOL,"Study Phase2",927,,,-1,-1,,,,1
5ece8aec61cfc90a2216bf22,2mtpxg6v8f,Nick_Dissertation_EX1,1,253,2020-06-13T10:09:18-07:00,2.3976900577545,1,versionA_stim.csv,READVersionA.csv,"Read Version A","Dissertation, read only version A",EVEN,REVENGE,Study2,B,122,158,Study,User,-,,Study/JOL,"Study Phase2",1767,,,-1,-1,,,,1
5ece8aec61cfc90a2216bf22,2mtpxg6v8f,Nick_Dissertation_EX1,1,254,2020-06-13T10:09:20-07:00,2.1302628517151,1,versionA_stim.csv,READVersionA.csv,"Read Version A","Dissertation, read only version A",CANDLE,WAX,Study2,S,139,147,Study,User,-,,Study/JOL,"Study Phase2",1629,,,-1,-1,,,,1
5ece8aec61cfc90a2216bf22,2mtpxg6v8f,Nick_Dissertation_EX1,1,255,2020-06-13T10:09:21-07:00,1.1158990859985,1,versionA_stim.csv,READVersionA.csv,"Read Version A","Dissertation, read only version A",MOAT,CLEAR,Study2,U,169,114,Study,User,-,,Study/JOL,"Study Phase2",598,,,-1,-1,,,,1
5ece8aec61cfc90a2216bf22,2mtpxg6v8f,Nick_Dissertation_EX1,1,256,2020-06-13T10:09:27-07:00,5.4040501117706,1,versionA_stim.csv,READVersionA.csv,"Read Version A","Dissertation, read only version A",TANTRUM,TEMPER,Study2,S,154,133,Study,User,-,,Study/JOL,"Study Phase2",4784,,,-1,-1,,,,0.769
5ece8aec61cfc90a2216bf22,2mtpxg6v8f,Nick_Dissertation_EX1,1,257,2020-06-13T10:09:29-07:00,1.8800578117371,1,versionA_stim.csv,READVersionA.csv,"Read Version A","Dissertation, read only version A",VEHICLE,CHARM,Study2,U,160,108,Study,User,-,,Study/JOL,"Study Phase2",1367,,,-1,-1,,,,1
5ece8aec61cfc90a2216bf22,2mtpxg6v8f,Nick_Dissertation_EX1,1,258,2020-06-13T10:09:30-07:00,1.7049942016602,1,versionA_stim.csv,READVersionA.csv,"Read Version A","Dissertation, read only version A",MEAT,OBTAIN,Study2,U,161,161,Study,User,-,,Study/JOL,"Study Phase2",1209,,,-1,-1,,,,1
5ece8aec61cfc90a2216bf22,2mtpxg6v8f,Nick_Dissertation_EX1,1,259,2020-06-13T10:09:32-07:00,1.3914539813995,1,versionA_stim.csv,READVersionA.csv,"Read Version A","Dissertation, read only version A",OWN,HAVE,Study2,S,153,167,Study,User,-,,Study/JOL,"Study Phase2",882,,,-1,-1,,,,1
5ece8aec61cfc90a2216bf22,2mtpxg6v8f,Nick_Dissertation_EX1,1,260,2020-06-13T10:09:33-07:00,1.3456230163574,1,versionA_stim.csv,READVersionA.csv,"Read Version A","Dissertation, read only version A",CAKE,CLOTHES,Study2,U,166,112,Study,User,-,,Study/JOL,"Study Phase2",860,,,-1,-1,,,,1
5ece8aec61cfc90a2216bf22,2mtpxg6v8f,Nick_Dissertation_EX1,1,261,2020-06-13T10:09:35-07:00,1.3769249916077,1,versionA_stim.csv,READVersionA.csv,"Read Version A","Dissertation, read only version A",OCTOBER,SPOOKY,BUFFER4,Buffer,180,179,Study,User,-,,Study/JOL,BUFFER4,884,,,-1,-1,,,,1
5ece8aec61cfc90a2216bf22,2mtpxg6v8f,Nick_Dissertation_EX1,1,262,2020-06-13T10:09:36-07:00,1.1811048984528,1,versionA_stim.csv,READVersionA.csv,"Read Version A","Dissertation, read only version A",MONTH,YEAR,BUFFER4,Buffer,177,180,Study,User,-,,Study/JOL,BUFFER4,673,,,-1,-1,,,,1
5ece8aec61cfc90a2216bf22,2mtpxg6v8f,Nick_Dissertation_EX1,1,263,2020-06-13T10:09:37-07:00,1.429918050766,1,versionA_stim.csv,READVersionA.csv,"Read Version A","Dissertation, read only version A",TOOL,SHED,BUFFER4,Buffer,178,177,Study,User,-,,Study/JOL,BUFFER4,931,,,-1,-1,,,,1
5ece8aec61cfc90a2216bf22,2mtpxg6v8f,Nick_Dissertation_EX1,1,264,2020-06-13T10:09:38-07:00,1.3360998630524,1,versionA_stim.csv,READVersionA.csv,"Read Version A","Dissertation, read only version A",SPRING,MARCH,BUFFER4,Buffer,179,178,Study,User,-,,Study/JOL,BUFFER4,833,,,-1,-1,,,,1
5ece8aec61cfc90a2216bf22,2mtpxg6v8f,Nick_Dissertation_EX1,1,265,2020-06-13T10:09:40-07:00,1.5675270557404,1,versionA_stim.csv,READVersionA.csv,"Read Version A","Dissertation, read only version A",DAYS,WEAKS,BUFFER4,Buffer,176,181,Study,User,-,,Study/JOL,BUFFER4,1066,,,-1,-1,,,,1
5ece8aec61cfc90a2216bf22,2mtpxg6v8f,Nick_Dissertation_EX1,1,266,2020-06-13T10:09:43-07:00,3.4329371452332,1,versionA_stim.csv,READVersionA.csv,"Read Version A","Dissertation, read only version A",,,,,,0,Instruct,User,-,"You have completed this section. Please press Enter.",Filler_Instruction,Instruct5,2833,,,-1,-1,,,,1
5ece8aec61cfc90a2216bf22,2mtpxg6v8f,Nick_Dissertation_EX1,1,267,2020-06-13T10:11:44-07:00,120.64282488823,1,versionA_stim.csv,READVersionA.csv,"Read Version A","Dissertation, read only version A",,,,,,0,FreeRecall,120,120,"Please list the 50 US states in reverse alphabetical order (z - a). The task will automatically advance to the next screen after two minutes.",,Filler2,120002,"Washington Texas New York New Orleans California Arizona Alabamma",0,12388,102355,0,0,,1
5ece8aec61cfc90a2216bf22,2mtpxg6v8f,Nick_Dissertation_EX1,1,268,2020-06-13T10:12:07-07:00,23.319398880005,1,versionA_stim.csv,READVersionA.csv,"Read Version A","Dissertation, read only version A",,,,,,0,Instruct,-,10,"You will now be presented with the first word from each of the previously studied item pairs. Please type the missing word. If you do not know the word, you may guess or press Enter to skip forward to the next pair.",,Instruct6,22538,,,-1,-1,,,,0.803
5ece8aec61cfc90a2216bf22,2mtpxg6v8f,Nick_Dissertation_EX1,1,269,2020-06-13T10:12:19-07:00,11.361568212509,1,versionA_stim.csv,READVersionA.csv,"Read Version A","Dissertation, read only version A",PHONE,COMMUNICATION,Study2,S,149,140,Test,User,-,,Recall,Recall2,10609,COMMUNICATION,100,2810,8971,1,1,,1
5ece8aec61cfc90a2216bf22,2mtpxg6v8f,Nick_Dissertation_EX1,1,270,2020-06-13T10:12:24-07:00,5.5436189174652,1,versionA_stim.csv,READVersionA.csv,"Read Version A","Dissertation, read only version A",CRACKLE,ABLE,Study2,U,162,171,Test,User,-,,Recall,Recall2,4804,POP,0,2081,2385,0,0,,1
5ece8aec61cfc90a2216bf22,2mtpxg6v8f,Nick_Dissertation_EX1,1,271,2020-06-13T10:12:27-07:00,2.7280359268188,1,versionA_stim.csv,READVersionA.csv,"Read Version A","Dissertation, read only version A",MONEY,BANKER,Study2,B,132,160,Test,User,-,,Recall,Recall2,2134,,0,-1,-1,0,0,,1
5ece8aec61cfc90a2216bf22,2mtpxg6v8f,Nick_Dissertation_EX1,1,272,2020-06-13T10:12:31-07:00,4.1144731044769,1,versionA_stim.csv,READVersionA.csv,"Read Version A","Dissertation, read only version A",ALONE,LONELY,Study2,S,145,122,Test,User,-,,Recall,Recall2,3517,ME,25,2054,2182,0,0,,1
5ece8aec61cfc90a2216bf22,2mtpxg6v8f,Nick_Dissertation_EX1,1,273,2020-06-13T10:12:51-07:00,19.747895002365,1,versionA_stim.csv,READVersionA.csv,"Read Version A","Dissertation, read only version A",FISH,SARDINE,Study2,B,130,134,Test,User,-,,Recall,Recall2,18037,CRUEL,33.333333333333,9082,14482,0,0,,1
5ece8aec61cfc90a2216bf22,2mtpxg6v8f,Nick_Dissertation_EX1,1,274,2020-06-13T10:12:55-07:00,3.8997490406036,1,versionA_stim.csv,READVersionA.csv,"Read Version A","Dissertation, read only version A",CACTUS,PLANT,Study2,F,98,141,Test,User,-,,Recall,Recall2,3300,PLANT,100,1633,2176,1,1,,1
5ece8aec61cfc90a2216bf22,2mtpxg6v8f,Nick_Dissertation_EX1,1,275,2020-06-13T10:13:02-07:00,7.4900999069214,1,versionA_stim.csv,READVersionA.csv,"Read Version A","Dissertation, read only version A",BOTH,OUNCE,Study2,U,172,148,Test,User,-,,Recall,Recall2,6880,SINGULAR,15.384615384615,2889,5800,0,0,,1
5ece8aec61cfc90a2216bf22,2mtpxg6v8f,Nick_Dissertation_EX1,1,276,2020-06-13T10:13:07-07:00,4.9694800376892,1,versionA_stim.csv,READVersionA.csv,"Read Version A","Dissertation, read only version A",TURN,FLIP,Study2,B,116,173,Test,User,-,,Recall,Recall2,4365,AROUND,0,1434,3001,0,0,,1
5ece8aec61cfc90a2216bf22,2mtpxg6v8f,Nick_Dissertation_EX1,1,277,2020-06-13T10:13:50-07:00,42.89411687851,1,versionA_stim.csv,READVersionA.csv,"Read Version A","Dissertation, read only version A",JUSTICE,MAROON,Study2,U,156,104,Test,User,-,,Recall,Recall2,42266,MAROON,100,38171,41475,1,1,,0.884
5ece8aec61cfc90a2216bf22,2mtpxg6v8f,Nick_Dissertation_EX1,1,278,2020-06-13T10:13:59-07:00,8.8950099945068,1,versionA_stim.csv,READVersionA.csv,"Read Version A","Dissertation, read only version A",FIGHT,BRAWL,Study2,B,135,123,Test,User,-,,Recall,Recall2,8266,TEMPER,18.181818181818,4667,5354,0,0,,1
5ece8aec61cfc90a2216bf22,2mtpxg6v8f,Nick_Dissertation_EX1,1,279,2020-06-13T10:14:03-07:00,4.2888441085815,1,versionA_stim.csv,READVersionA.csv,"Read Version A","Dissertation, read only version A",OWN,HAVE,Study2,S,153,167,Test,User,-,,Recall,Recall2,3664,IT,0,2155,2306,0,0,,1
5ece8aec61cfc90a2216bf22,2mtpxg6v8f,Nick_Dissertation_EX1,1,280,2020-06-13T10:14:08-07:00,4.4083631038666,1,versionA_stim.csv,READVersionA.csv,"Read Version A","Dissertation, read only version A",DRIVER,CAR,Study2,F,106,106,Test,User,-,,Recall,Recall2,3812,DELIVER,20,1775,2582,0,0,,1
5ece8aec61cfc90a2216bf22,2mtpxg6v8f,Nick_Dissertation_EX1,1,281,2020-06-13T10:14:12-07:00,4.2428908348083,1,versionA_stim.csv,READVersionA.csv,"Read Version A","Dissertation, read only version A",DEAD,COFFIN,Study2,B,128,126,Test,User,-,,Recall,Recall2,3629,INSIDE,33.333333333333,1569,2185,0,0,,1
5ece8aec61cfc90a2216bf22,2mtpxg6v8f,Nick_Dissertation_EX1,1,282,2020-06-13T10:14:16-07:00,4.1654360294342,1,versionA_stim.csv,READVersionA.csv,"Read Version A","Dissertation, read only version A",TRUTH,LIE,Study2,S,148,125,Test,User,-,,Recall,Recall2,3552,LIE,100,2111,2422,1,1,,1
5ece8aec61cfc90a2216bf22,2mtpxg6v8f,Nick_Dissertation_EX1,1,283,2020-06-13T10:14:23-07:00,7.021959066391,1,versionA_stim.csv,READVersionA.csv,"Read Version A","Dissertation, read only version A",SHEARS,SCISSORS,Study2,F,112,145,Test,User,-,,Recall,Recall2,6429,SHEEP,15.384615384615,3391,3982,0,0,,1
5ece8aec61cfc90a2216bf22,2mtpxg6v8f,Nick_Dissertation_EX1,1,284,2020-06-13T10:15:43-07:00,80.066274881363,1,versionA_stim.csv,READVersionA.csv,"Read Version A","Dissertation, read only version A",GONE,AWAY,Study2,S,142,136,Test,User,-,,Recall,Recall2,79439,AWAY,100,76836,77283,1,1,,0.265
5ece8aec61cfc90a2216bf22,2mtpxg6v8f,Nick_Dissertation_EX1,1,285,2020-06-13T10:15:50-07:00,6.3836259841919,1,versionA_stim.csv,READVersionA.csv,"Read Version A","Dissertation, read only version A",DRY,WET,Study2,S,146,105,Test,User,-,,Recall,Recall2,5626,CLEAN,25,2029,4124,0,0,,1
5ece8aec61cfc90a2216bf22,2mtpxg6v8f,Nick_Dissertation_EX1,1,286,2020-06-13T10:15:56-07:00,6.8326170444489,1,versionA_stim.csv,READVersionA.csv,"Read Version A","Dissertation, read only version A",BAD,VILLAIN,Study2,B,118,139,Test,User,-,,Recall,Recall2,6208,BOYS,0,3541,5757,0,0,,1
5ece8aec61cfc90a2216bf22,2mtpxg6v8f,Nick_Dissertation_EX1,1,287,2020-06-13T10:15:59-07:00,2.2260580062866,1,versionA_stim.csv,READVersionA.csv,"Read Version A","Dissertation, read only version A",LISTEN,FICTION,Study2,U,164,170,Test,User,-,,Recall,Recall2,1666,,0,-1,-1,0,0,,1
5ece8aec61cfc90a2216bf22,2mtpxg6v8f,Nick_Dissertation_EX1,1,288,2020-06-13T10:16:03-07:00,4.0682201385498,1,versionA_stim.csv,READVersionA.csv,"Read Version A","Dissertation, read only version A",EARTH,GROUND,Study2,S,144,130,Test,User,-,,Recall,Recall2,3475,STORY,18.181818181818,2747,3234,0,0,,1
5ece8aec61cfc90a2216bf22,2mtpxg6v8f,Nick_Dissertation_EX1,1,289,2020-06-13T10:16:25-07:00,22.710316896439,1,versionA_stim.csv,READVersionA.csv,"Read Version A","Dissertation, read only version A",MEAT,OBTAIN,Study2,U,161,161,Test,User,-,,Recall,Recall2,22086,,0,-1,-1,0,0,,1
5ece8aec61cfc90a2216bf22,2mtpxg6v8f,Nick_Dissertation_EX1,1,290,2020-06-13T10:16:29-07:00,3.9087998867035,1,versionA_stim.csv,READVersionA.csv,"Read Version A","Dissertation, read only version A",VEHICLE,CHARM,Study2,U,160,108,Test,User,-,,Recall,Recall2,3166,CAR,75,1324,1684,0,1,,1
5ece8aec61cfc90a2216bf22,2mtpxg6v8f,Nick_Dissertation_EX1,1,291,2020-06-13T10:16:37-07:00,7.7708802223206,1,versionA_stim.csv,READVersionA.csv,"Read Version A","Dissertation, read only version A",DETECTIVE,MYSTERY,Study2,F,100,151,Test,User,-,,Recall,Recall2,7176,MYSTERY,100,3249,4465,1,1,,1
5ece8aec61cfc90a2216bf22,2mtpxg6v8f,Nick_Dissertation_EX1,1,292,2020-06-13T10:16:50-07:00,12.867316007614,1,versionA_stim.csv,READVersionA.csv,"Read Version A","Dissertation, read only version A",MIRROR,CHILDREN,Study2,U,174,115,Test,User,-,,Recall,Recall2,12211,REFLECTION,33.333333333333,7548,10292,0,0,,1
5ece8aec61cfc90a2216bf22,2mtpxg6v8f,Nick_Dissertation_EX1,1,293,2020-06-13T10:16:54-07:00,4.1009559631348,1,versionA_stim.csv,READVersionA.csv,"Read Version A","Dissertation, read only version A",AFFECTION,LOVE,Study2,F,115,137,Test,User,-,,Recall,Recall2,3484,LOVE,100,2089,2609,1,1,,1
5ece8aec61cfc90a2216bf22,2mtpxg6v8f,Nick_Dissertation_EX1,1,294,2020-06-13T10:17:04-07:00,10.107179880142,1,versionA_stim.csv,READVersionA.csv,"Read Version A","Dissertation, read only version A",LOAN,SIGN,Study2,U,171,176,Test,User,-,,Recall,Recall2,9484,BANK,25,1687,7214,0,0,,1
5ece8aec61cfc90a2216bf22,2mtpxg6v8f,Nick_Dissertation_EX1,1,295,2020-06-13T10:17:12-07:00,7.5167019367218,1,versionA_stim.csv,READVersionA.csv,"Read Version A","Dissertation, read only version A",MOAT,CLEAR,Study2,U,169,114,Test,User,-,,Recall,Recall2,6910,SURROUND,15.384615384615,2897,4224,0,0,,1
5ece8aec61cfc90a2216bf22,2mtpxg6v8f,Nick_Dissertation_EX1,1,296,2020-06-13T10:17:22-07:00,10.706196069717,1,versionA_stim.csv,READVersionA.csv,"Read Version A","Dissertation, read only version A",TEMPERATURE,Morning,Study2,U,173,110,Test,User,-,,Recall,Recall2,10105,morning,100,6650,8864,1,1,,1
5ece8aec61cfc90a2216bf22,2mtpxg6v8f,Nick_Dissertation_EX1,1,297,2020-06-13T10:17:28-07:00,5.8988840579987,1,versionA_stim.csv,READVersionA.csv,"Read Version A","Dissertation, read only version A",CANDLE,WAX,Study2,S,139,147,Test,User,-,,Recall,Recall2,5135,LIT,0,3479,3735,0,0,,1
5ece8aec61cfc90a2216bf22,2mtpxg6v8f,Nick_Dissertation_EX1,1,298,2020-06-13T10:17:33-07:00,4.6274518966675,1,versionA_stim.csv,READVersionA.csv,"Read Version A","Dissertation, read only version A",STRETCH,CLOTH,Study2,U,157,144,Test,User,-,,Recall,Recall2,4032,MARKS,0,1489,2008,0,0,,1
5ece8aec61cfc90a2216bf22,2mtpxg6v8f,Nick_Dissertation_EX1,1,299,2020-06-13T10:17:41-07:00,7.9694240093231,1,versionA_stim.csv,READVersionA.csv,"Read Version A","Dissertation, read only version A",TANTRUM,TEMPER,Study2,S,154,133,Test,User,-,,Recall,Recall2,7353,TEMPER,100,4195,5875,1,1,,1
5ece8aec61cfc90a2216bf22,2mtpxg6v8f,Nick_Dissertation_EX1,1,300,2020-06-13T10:17:46-07:00,5.519905090332,1,versionA_stim.csv,READVersionA.csv,"Read Version A","Dissertation, read only version A",RAZOR,SHAVE,Study2,S,136,118,Test,User,-,,Recall,Recall2,4918,SHAVE,100,1894,3734,1,1,,1
5ece8aec61cfc90a2216bf22,2mtpxg6v8f,Nick_Dissertation_EX1,1,301,2020-06-13T10:17:50-07:00,3.8810679912567,1,versionA_stim.csv,READVersionA.csv,"Read Version A","Dissertation, read only version A",STAR,ACTRESS,Study2,B,120,98,Test,User,-,,Recall,Recall2,3282,FREE,36.363636363636,2366,2886,0,0,,1
5ece8aec61cfc90a2216bf22,2mtpxg6v8f,Nick_Dissertation_EX1,1,302,2020-06-13T10:17:54-07:00,3.1453359127045,1,versionA_stim.csv,READVersionA.csv,"Read Version A","Dissertation, read only version A",SAFETY,SEATBELT,Study2,S,147,132,Test,User,-,,Recall,Recall2,2536,NET,36.363636363636,1646,2141,0,0,,1
5ece8aec61cfc90a2216bf22,2mtpxg6v8f,Nick_Dissertation_EX1,1,303,2020-06-13T10:18:00-07:00,6.9271459579468,1,versionA_stim.csv,READVersionA.csv,"Read Version A","Dissertation, read only version A",POP,BALLOON,Study2,B,123,142,Test,User,-,,Recall,Recall2,6341,,0,-1,-1,0,0,,1
5ece8aec61cfc90a2216bf22,2mtpxg6v8f,Nick_Dissertation_EX1,1,304,2020-06-13T10:18:07-07:00,6.4890611171722,1,versionA_stim.csv,READVersionA.csv,"Read Version A","Dissertation, read only version A",CHILL,COLD,Study2,F,114,97,Test,User,-,,Recall,Recall2,5883,COLD,100,4126,4534,1,1,,1
5ece8aec61cfc90a2216bf22,2mtpxg6v8f,Nick_Dissertation_EX1,1,305,2020-06-13T10:18:14-07:00,6.7855060100555,1,versionA_stim.csv,READVersionA.csv,"Read Version A","Dissertation, read only version A",LEASE,TOIL,Study2,U,170,143,Test,User,-,,Recall,Recall2,6193,DOCUMENT,16.666666666667,3489,4913,0,0,,1
5ece8aec61cfc90a2216bf22,2mtpxg6v8f,Nick_Dissertation_EX1,1,306,2020-06-13T10:18:18-07:00,4.7221519947052,1,versionA_stim.csv,READVersionA.csv,"Read Version A","Dissertation, read only version A",ELEMENT,CARBON,Study2,S,141,121,Test,User,-,,Recall,Recall2,4125,CARBON,100,1563,2843,1,1,,1
5ece8aec61cfc90a2216bf22,2mtpxg6v8f,Nick_Dissertation_EX1,1,307,2020-06-13T10:18:25-07:00,6.1132318973541,1,versionA_stim.csv,READVersionA.csv,"Read Version A","Dissertation, read only version A",CHOP,CUT,Study2,F,107,174,Test,User,-,,Recall,Recall2,5516,STEAK,25,2367,3310,0,0,,1
5ece8aec61cfc90a2216bf22,2mtpxg6v8f,Nick_Dissertation_EX1,1,308,2020-06-13T10:18:30-07:00,5.712916135788,1,versionA_stim.csv,READVersionA.csv,"Read Version A","Dissertation, read only version A",BASEBALL,LEAGUE,Study2,B,131,101,Test,User,-,,Recall,Recall2,5098,CATCHER,30.769230769231,2807,3806,0,0,,1
5ece8aec61cfc90a2216bf22,2mtpxg6v8f,Nick_Dissertation_EX1,1,309,2020-06-13T10:18:36-07:00,6.2363979816437,1,versionA_stim.csv,READVersionA.csv,"Read Version A","Dissertation, read only version A",CLUE,GAME,Study2,F,97,157,Test,User,-,,Recall,Recall2,4035,LESS,25,2136,2599,0,0,,1
5ece8aec61cfc90a2216bf22,2mtpxg6v8f,Nick_Dissertation_EX1,1,310,2020-06-13T10:18:41-07:00,4.1533060073853,1,versionA_stim.csv,READVersionA.csv,"Read Version A","Dissertation, read only version A",CAKE,CLOTHES,Study2,U,166,112,Test,User,-,,Recall,Recall2,3532,BATTER,30.769230769231,2065,2848,0,0,,1
5ece8aec61cfc90a2216bf22,2mtpxg6v8f,Nick_Dissertation_EX1,1,311,2020-06-13T10:18:47-07:00,6.3683350086212,1,versionA_stim.csv,READVersionA.csv,"Read Version A","Dissertation, read only version A",BEST,FAVORITE,Study2,B,125,165,Test,User,-,,Recall,Recall2,5774,FRIEND,57.142857142857,1989,4692,0,0,,1
5ece8aec61cfc90a2216bf22,2mtpxg6v8f,Nick_Dissertation_EX1,1,312,2020-06-13T10:19:19-07:00,31.76237487793,1,versionA_stim.csv,READVersionA.csv,"Read Version A","Dissertation, read only version A",BIRD,PENGUIN,Study2,B,119,168,Test,User,-,,Recall,Recall2,31129,OSTRITCH,13.333333333333,22338,29514,0,0,,0.964
5ece8aec61cfc90a2216bf22,2mtpxg6v8f,Nick_Dissertation_EX1,1,313,2020-06-13T10:19:23-07:00,4.3963329792023,1,versionA_stim.csv,READVersionA.csv,"Read Version A","Dissertation, read only version A",MULE,DONKEY,Study2,F,108,163,Test,User,-,,Recall,Recall2,3676,HORSE,36.363636363636,1664,2280,0,0,,1
5ece8aec61cfc90a2216bf22,2mtpxg6v8f,Nick_Dissertation_EX1,1,314,2020-06-13T10:19:39-07:00,16.122092008591,1,versionA_stim.csv,READVersionA.csv,"Read Version A","Dissertation, read only version A",KEYS,JOKE,Study2,U,165,117,Test,User,-,,Recall,Recall2,15521,JOKE,100,1658,2274,1,1,,1
5ece8aec61cfc90a2216bf22,2mtpxg6v8f,Nick_Dissertation_EX1,1,315,2020-06-13T10:19:44-07:00,4.3492531776428,1,versionA_stim.csv,READVersionA.csv,"Read Version A","Dissertation, read only version A",DOCUMENT,PAPER,Study2,F,109,100,Test,User,-,,Recall,Recall2,3720,,0,-1,-1,0,0,,1
5ece8aec61cfc90a2216bf22,2mtpxg6v8f,Nick_Dissertation_EX1,1,316,2020-06-13T10:19:47-07:00,3.6646628379822,1,versionA_stim.csv,READVersionA.csv,"Read Version A","Dissertation, read only version A",LITTER,TRASH,Study2,F,103,119,Test,User,-,,Recall,Recall2,3066,BIN,0,1669,2164,0,0,,1
5ece8aec61cfc90a2216bf22,2mtpxg6v8f,Nick_Dissertation_EX1,1,317,2020-06-13T10:19:53-07:00,5.9983510971069,1,versionA_stim.csv,READVersionA.csv,"Read Version A","Dissertation, read only version A",ROD,REEL,Study2,S,150,131,Test,User,-,,Recall,Recall2,5402,HOT,0,2047,4318,0,0,,1
5ece8aec61cfc90a2216bf22,2mtpxg6v8f,Nick_Dissertation_EX1,1,318,2020-06-13T10:20:01-07:00,7.6391899585724,1,versionA_stim.csv,READVersionA.csv,"Read Version A","Dissertation, read only version A",HONEST,TRUTHFUL,Study2,B,133,129,Test,User,-,,Recall,Recall2,7034,TRUTHFUL,100,3385,5136,1,1,,1
5ece8aec61cfc90a2216bf22,2mtpxg6v8f,Nick_Dissertation_EX1,1,319,2020-06-13T10:20:10-07:00,8.5819549560547,1,versionA_stim.csv,READVersionA.csv,"Read Version A","Dissertation, read only version A",INCENSE,SMELL,Study2,F,110,135,Test,User,-,,Recall,Recall2,7980,SMELL,100,4724,6596,1,1,,1
5ece8aec61cfc90a2216bf22,2mtpxg6v8f,Nick_Dissertation_EX1,1,320,2020-06-13T10:20:13-07:00,3.6666190624237,1,versionA_stim.csv,READVersionA.csv,"Read Version A","Dissertation, read only version A",SCALP,HEAD,Study2,F,105,155,Test,User,-,,Recall,Recall2,3041,HEAD,100,1528,1947,1,1,,1
5ece8aec61cfc90a2216bf22,2mtpxg6v8f,Nick_Dissertation_EX1,1,321,2020-06-13T10:20:17-07:00,3.7755119800568,1,versionA_stim.csv,READVersionA.csv,"Read Version A","Dissertation, read only version A",ADJOURN,END,Study2,F,101,146,Test,User,-,,Recall,Recall2,3162,,0,-1,-1,0,0,,1
5ece8aec61cfc90a2216bf22,2mtpxg6v8f,Nick_Dissertation_EX1,1,322,2020-06-13T10:20:25-07:00,8.0315871238708,1,versionA_stim.csv,READVersionA.csv,"Read Version A","Dissertation, read only version A",GLASS,BREAKABLE,Study2,B,127,124,Test,User,-,,Recall,Recall2,7394,FULL,15.384615384615,4185,4640,0,0,,1
5ece8aec61cfc90a2216bf22,2mtpxg6v8f,Nick_Dissertation_EX1,1,323,2020-06-13T10:20:35-07:00,10.186314821243,1,versionA_stim.csv,READVersionA.csv,"Read Version A","Dissertation, read only version A",FUZZY,BANG,Study2,U,168,152,Test,User,-,,Recall,Recall2,9579,BANG,100,7286,8597,1,1,,1
5ece8aec61cfc90a2216bf22,2mtpxg6v8f,Nick_Dissertation_EX1,1,324,2020-06-13T10:20:40-07:00,5.2724010944366,1,versionA_stim.csv,READVersionA.csv,"Read Version A","Dissertation, read only version A",MAIN,SCAR,Study2,U,175,103,Test,User,-,,Recall,Recall2,4677,MEAL,25,3219,3539,0,0,,1
5ece8aec61cfc90a2216bf22,2mtpxg6v8f,Nick_Dissertation_EX1,1,325,2020-06-13T10:20:46-07:00,5.3244960308075,1,versionA_stim.csv,READVersionA.csv,"Read Version A","Dissertation, read only version A",FLEA,TICK,Study2,S,151,175,Test,User,-,,Recall,Recall2,4723,TICK,100,3017,3369,1,1,,1
5ece8aec61cfc90a2216bf22,2mtpxg6v8f,Nick_Dissertation_EX1,1,326,2020-06-13T10:20:53-07:00,7.1902439594269,1,versionA_stim.csv,READVersionA.csv,"Read Version A","Dissertation, read only version A",FURRY,DOG,Study2,F,102,150,Test,User,-,,Recall,Recall2,6575,DOG,100,4394,5346,1,1,,1
5ece8aec61cfc90a2216bf22,2mtpxg6v8f,Nick_Dissertation_EX1,1,327,2020-06-13T10:20:59-07:00,6.1790609359741,1,versionA_stim.csv,READVersionA.csv,"Read Version A","Dissertation, read only version A",WATER,DRINK,Study2,S,143,120,Test,User,-,,Recall,Recall2,5560,DROP,44.444444444444,1756,2524,0,0,,1
5ece8aec61cfc90a2216bf22,2mtpxg6v8f,Nick_Dissertation_EX1,1,328,2020-06-13T10:21:07-07:00,7.41472697258,1,versionA_stim.csv,READVersionA.csv,"Read Version A","Dissertation, read only version A",EVEN,REVENGE,Study2,B,122,158,Test,User,-,,Recall,Recall2,6796,NUMBER,30.769230769231,4355,5099,0,0,,1
5ece8aec61cfc90a2216bf22,2mtpxg6v8f,Nick_Dissertation_EX1,1,329,2020-06-13T10:21:13-07:00,6.5215501785278,1,versionA_stim.csv,READVersionA.csv,"Read Version A","Dissertation, read only version A",WRIST,BRACELET,Study2,S,140,138,Test,User,-,,Recall,Recall2,5915,BAND,33.333333333333,1722,4321,0,0,,1
5ece8aec61cfc90a2216bf22,2mtpxg6v8f,Nick_Dissertation_EX1,1,330,2020-06-13T10:21:24-07:00,10.952327013016,1,versionA_stim.csv,READVersionA.csv,"Read Version A","Dissertation, read only version A",SLEEP,NAP,Study2,B,134,172,Test,User,-,,Recall,Recall2,10376,TROUBLE,0,8021,8789,0,0,,1
5ece8aec61cfc90a2216bf22,2mtpxg6v8f,Nick_Dissertation_EX1,1,331,2020-06-13T10:21:30-07:00,5.5172028541565,1,versionA_stim.csv,READVersionA.csv,"Read Version A","Dissertation, read only version A",CHERRY,RED,Study2,F,104,102,Test,User,-,,Recall,Recall2,4898,ABOVE,25,2900,3693,0,0,,1
5ece8aec61cfc90a2216bf22,2mtpxg6v8f,Nick_Dissertation_EX1,1,332,2020-06-13T10:21:32-07:00,2.4987540245056,1,versionA_stim.csv,READVersionA.csv,"Read Version A","Dissertation, read only version A",EXTENSION,LONG,Study2,F,96,169,Test,User,-,,Recall,Recall2,1902,,0,-1,-1,0,0,,1
5ece8aec61cfc90a2216bf22,2mtpxg6v8f,Nick_Dissertation_EX1,1,333,2020-06-13T10:21:44-07:00,12.314923048019,1,versionA_stim.csv,READVersionA.csv,"Read Version A","Dissertation, read only version A",RIGHTS,EQUAL,Study2,S,137,156,Test,User,-,,Recall,Recall2,11707,SPEECH,18.181818181818,4154,9537,0,0,,1
5ece8aec61cfc90a2216bf22,2mtpxg6v8f,Nick_Dissertation_EX1,1,334,2020-06-13T10:21:54-07:00,9.2534470558167,1,versionA_stim.csv,READVersionA.csv,"Read Version A","Dissertation, read only version A",SUN,TAN,Study2,S,155,159,Test,User,-,,Recall,Recall2,8658,HOT,33.333333333333,7333,8012,0,0,,1
5ece8aec61cfc90a2216bf22,2mtpxg6v8f,Nick_Dissertation_EX1,1,335,2020-06-13T10:21:59-07:00,5.7961738109589,1,versionA_stim.csv,READVersionA.csv,"Read Version A","Dissertation, read only version A",PLANE,AIRCRAFT,Study2,B,129,111,Test,User,-,,Recall,Recall2,5186,WINGS,15.384615384615,2051,3098,0,0,,1
5ece8aec61cfc90a2216bf22,2mtpxg6v8f,Nick_Dissertation_EX1,1,336,2020-06-13T10:22:03-07:00,3.089714050293,1,versionA_stim.csv,READVersionA.csv,"Read Version A","Dissertation, read only version A",MAZE,ELECTION,Study2,U,159,164,Test,User,-,,Recall,Recall2,2471,,0,-1,-1,0,0,,1
5ece8aec61cfc90a2216bf22,2mtpxg6v8f,Nick_Dissertation_EX1,1,337,2020-06-13T10:22:04-07:00,1.3812429904938,1,versionA_stim.csv,READVersionA.csv,"Read Version A","Dissertation, read only version A",LOUD,NOISE,Study2,S,152,113,Test,User,-,,Recall,Recall2,881,,0,-1,-1,0,0,,1
5ece8aec61cfc90a2216bf22,2mtpxg6v8f,Nick_Dissertation_EX1,1,338,2020-06-13T10:22:21-07:00,17.577633142471,1,versionA_stim.csv,READVersionA.csv,"Read Version A","Dissertation, read only version A",FRUIT,STRAWBERRY,Study2,B,124,127,Test,User,-,,Recall,Recall2,16992,STRAWBERRY,100,7538,9378,1,1,,1
5ece8aec61cfc90a2216bf22,2mtpxg6v8f,Nick_Dissertation_EX1,1,339,2020-06-13T10:22:31-07:00,9.3528640270233,1,versionA_stim.csv,READVersionA.csv,"Read Version A","Dissertation, read only version A",MASON,JAR,Study2,S,138,149,Test,User,-,,Recall,Recall2,8724,CHARLES,40,3356,7540,0,0,,1
5ece8aec61cfc90a2216bf22,2mtpxg6v8f,Nick_Dissertation_EX1,1,340,2020-06-13T10:22:36-07:00,5.2948868274689,1,versionA_stim.csv,READVersionA.csv,"Read Version A","Dissertation, read only version A",Shell,SHAKE,Study2,U,163,107,Test,User,-,,Recall,Recall2,4693,SHAKE,100,3178,3562,1,1,,1
5ece8aec61cfc90a2216bf22,2mtpxg6v8f,Nick_Dissertation_EX1,1,341,2020-06-13T10:22:41-07:00,5.0318839550018,1,versionA_stim.csv,READVersionA.csv,"Read Version A","Dissertation, read only version A",CAT,PANTHER,Study2,B,126,99,Test,User,-,,Recall,Recall2,4430,FUN,20,2455,2718,0,0,,1
5ece8aec61cfc90a2216bf22,2mtpxg6v8f,Nick_Dissertation_EX1,1,342,2020-06-13T10:22:43-07:00,2.0681750774384,1,versionA_stim.csv,READVersionA.csv,"Read Version A","Dissertation, read only version A",CAR,WINDSHIELD,Study2,B,117,166,Test,User,-,,Recall,Recall2,1553,,0,-1,-1,0,0,,1
5ece8aec61cfc90a2216bf22,2mtpxg6v8f,Nick_Dissertation_EX1,1,343,2020-06-13T10:22:45-07:00,1.4724371433258,1,versionA_stim.csv,READVersionA.csv,"Read Version A","Dissertation, read only version A",THREAD,THIMBLE,Study2,B,121,109,Test,User,-,,Recall,Recall2,971,,0,-1,-1,0,0,,1
5ece8aec61cfc90a2216bf22,2mtpxg6v8f,Nick_Dissertation_EX1,1,344,2020-06-13T10:22:49-07:00,4.3670389652252,1,versionA_stim.csv,READVersionA.csv,"Read Version A","Dissertation, read only version A",DINE,EAT,Study2,F,111,162,Test,User,-,,Recall,Recall2,3765,COME,28.571428571429,2230,2590,0,0,,1
5ece8aec61cfc90a2216bf22,2mtpxg6v8f,Nick_Dissertation_EX1,1,345,2020-06-13T10:22:54-07:00,4.6790249347687,1,versionA_stim.csv,READVersionA.csv,"Read Version A","Dissertation, read only version A",FEUD,FIGHT,Study2,F,113,154,Test,User,-,,Recall,Recall2,4082,FIGHT,100,2467,2739,1,1,,1
5ece8aec61cfc90a2216bf22,2mtpxg6v8f,Nick_Dissertation_EX1,1,346,2020-06-13T10:23:03-07:00,9.3821620941162,1,versionA_stim.csv,READVersionA.csv,"Read Version A","Dissertation, read only version A",GIVE,STEAK,Study2,U,158,128,Test,User,-,,Recall,Recall2,8768,UP,0,1925,7613,0,0,,1
5ece8aec61cfc90a2216bf22,2mtpxg6v8f,Nick_Dissertation_EX1,1,347,2020-06-13T10:23:07-07:00,3.7635309696198,1,versionA_stim.csv,READVersionA.csv,"Read Version A","Dissertation, read only version A",NAME,HATE,Study2,U,167,153,Test,User,-,,Recall,Recall2,3138,HATE,100,1557,1780,1,1,,1
