Username,ID,ExperimentName,Session,Trial,Date,TimeDif,"Condition Number","Stimuli File","Order File","Condition Description","Condition Notes",Stimuli*Cue,Stimuli*Answer,Stimuli*Shuffle,"Stimuli*Stimuli Notes",Stimuli*Value,Procedure*Item,"Procedure*Trial Type","Procedure*Max Time","Procedure*Min Time",Procedure*Text,"Procedure*Procedure Notes",Procedure*Shuffle,Response*RT,Response*Response,Response*Accuracy,Response*RTfirst,Response*RTlast,Response*strictAcc,Response*lenientAcc,Response*focus,Response*Focus
5e8f7b9103ad03270d48587f,huwrd1ut5e,Nick_Dissertation_EX1,1,1,2020-06-13T09:49:19-07:00,12.076888799667,3,versionC_stim.csv,READVersionC.csv,"Read Version C","Dissertation, read only version C",,,,,,0,Instruct,-,10,"Please study each of the following word pairs. Remember that your memory will be tested! When finished, press Enter to move to the next pair.",Initial_Instruct,Instruct1,11829,,,-1,-1,,,,1
5e8f7b9103ad03270d48587f,huwrd1ut5e,Nick_Dissertation_EX1,1,2,2020-06-13T09:49:24-07:00,5.3306879997253,3,versionC_stim.csv,READVersionC.csv,"Read Version C","Dissertation, read only version C",CATCHER,BASEBALL,BUFFER1,Buffer,2,4,Study,User,-,,Study/JOL,BUFFER,4947,,,-1,-1,,,,1
5e8f7b9103ad03270d48587f,huwrd1ut5e,Nick_Dissertation_EX1,1,3,2020-06-13T09:49:29-07:00,5.4499042034149,3,versionC_stim.csv,READVersionC.csv,"Read Version C","Dissertation, read only version C",HIDE,SCARE,BUFFER1,Buffer,4,6,Study,User,-,,Study/JOL,BUFFER,5068,,,-1,-1,,,,1
5e8f7b9103ad03270d48587f,huwrd1ut5e,Nick_Dissertation_EX1,1,4,2020-06-13T09:49:33-07:00,3.3033947944641,3,versionC_stim.csv,READVersionC.csv,"Read Version C","Dissertation, read only version C",JAM,SPACE,BUFFER1,Buffer,5,5,Study,User,-,,Study/JOL,BUFFER,2920,,,-1,-1,,,,1
5e8f7b9103ad03270d48587f,huwrd1ut5e,Nick_Dissertation_EX1,1,5,2020-06-13T09:49:34-07:00,1.203113079071,3,versionC_stim.csv,READVersionC.csv,"Read Version C","Dissertation, read only version C",BUTTER,PEANUT,BUFFER1,Buffer,3,3,Study,User,-,,Study/JOL,BUFFER,915,,,-1,-1,,,,1
5e8f7b9103ad03270d48587f,huwrd1ut5e,Nick_Dissertation_EX1,1,6,2020-06-13T09:49:35-07:00,1.3650710582733,3,versionC_stim.csv,READVersionC.csv,"Read Version C","Dissertation, read only version C",GREEN,TREES,BUFFER1,Buffer,1,2,Study,User,-,,Study/JOL,BUFFER,978,,,-1,-1,,,,1
5e8f7b9103ad03270d48587f,huwrd1ut5e,Nick_Dissertation_EX1,1,7,2020-06-13T09:49:37-07:00,1.6407220363617,3,versionC_stim.csv,READVersionC.csv,"Read Version C","Dissertation, read only version C",WASP,BUG,Study1,F,32,10,Study,User,-,,Study/JOL,"Study Phase",1255,,,-1,-1,,,,1
5e8f7b9103ad03270d48587f,huwrd1ut5e,Nick_Dissertation_EX1,1,8,2020-06-13T09:49:38-07:00,1.2161459922791,3,versionC_stim.csv,READVersionC.csv,"Read Version C","Dissertation, read only version C",WOULD,CASH,Study1,U,83,57,Study,User,-,,Study/JOL,"Study Phase",932,,,-1,-1,,,,1
5e8f7b9103ad03270d48587f,huwrd1ut5e,Nick_Dissertation_EX1,1,9,2020-06-13T09:49:41-07:00,3.2018899917603,3,versionC_stim.csv,READVersionC.csv,"Read Version C","Dissertation, read only version C",LIVER,KIDNEY,Study1,S,53,81,Study,User,-,,Study/JOL,"Study Phase",2819,,,-1,-1,,,,1
5e8f7b9103ad03270d48587f,huwrd1ut5e,Nick_Dissertation_EX1,1,10,2020-06-13T09:49:43-07:00,1.3643789291382,3,versionC_stim.csv,READVersionC.csv,"Read Version C","Dissertation, read only version C",STOMACH,DIGESTION,Study1,B,7,59,Study,User,-,,Study/JOL,"Study Phase",982,,,-1,-1,,,,1
5e8f7b9103ad03270d48587f,huwrd1ut5e,Nick_Dissertation_EX1,1,11,2020-06-13T09:49:44-07:00,1.3622980117798,3,versionC_stim.csv,READVersionC.csv,"Read Version C","Dissertation, read only version C",CHEESE,WINE,Study1,S,57,67,Study,User,-,,Study/JOL,"Study Phase",978,,,-1,-1,,,,1
5e8f7b9103ad03270d48587f,huwrd1ut5e,Nick_Dissertation_EX1,1,12,2020-06-13T09:49:45-07:00,1.3491320610046,3,versionC_stim.csv,READVersionC.csv,"Read Version C","Dissertation, read only version C",MONEY,WAGE,Study1,B,8,65,Study,User,-,,Study/JOL,"Study Phase",970,,,-1,-1,,,,1
5e8f7b9103ad03270d48587f,huwrd1ut5e,Nick_Dissertation_EX1,1,13,2020-06-13T09:49:48-07:00,2.5834829807281,3,versionC_stim.csv,READVersionC.csv,"Read Version C","Dissertation, read only version C",SICK,HIDE,Study1,U,84,69,Study,User,-,,Study/JOL,"Study Phase",2210,,,-1,-1,,,,1
5e8f7b9103ad03270d48587f,huwrd1ut5e,Nick_Dissertation_EX1,1,14,2020-06-13T09:49:51-07:00,3.4277999401093,3,versionC_stim.csv,READVersionC.csv,"Read Version C","Dissertation, read only version C",DESIGN,ARCHITECTURE,Study1,S,51,22,Study,User,-,,Study/JOL,"Study Phase",3036,,,-1,-1,,,,1
5e8f7b9103ad03270d48587f,huwrd1ut5e,Nick_Dissertation_EX1,1,15,2020-06-13T09:49:53-07:00,1.2320680618286,3,versionC_stim.csv,READVersionC.csv,"Read Version C","Dissertation, read only version C",SEIZE,TAKE,Study1,F,29,83,Study,User,-,,Study/JOL,"Study Phase",942,,,-1,-1,,,,1
5e8f7b9103ad03270d48587f,huwrd1ut5e,Nick_Dissertation_EX1,1,16,2020-06-13T09:49:55-07:00,2.008367061615,3,versionC_stim.csv,READVersionC.csv,"Read Version C","Dissertation, read only version C",CLUTTER,PUSHER,Study1,U,66,48,Study,User,-,,Study/JOL,"Study Phase",1600,,,-1,-1,,,,1
5e8f7b9103ad03270d48587f,huwrd1ut5e,Nick_Dissertation_EX1,1,17,2020-06-13T09:49:56-07:00,1.4174377918243,3,versionC_stim.csv,READVersionC.csv,"Read Version C","Dissertation, read only version C",BUSINESS,DEATH,Study1,U,72,74,Study,User,-,,Study/JOL,"Study Phase",1039,,,-1,-1,,,,1
5e8f7b9103ad03270d48587f,huwrd1ut5e,Nick_Dissertation_EX1,1,18,2020-06-13T09:49:58-07:00,2.2889971733093,3,versionC_stim.csv,READVersionC.csv,"Read Version C","Dissertation, read only version C",BAR,GRILL,Study1,S,52,8,Study,User,-,,Study/JOL,"Study Phase",909,,,-1,-1,,,,1
5e8f7b9103ad03270d48587f,huwrd1ut5e,Nick_Dissertation_EX1,1,19,2020-06-13T09:50:01-07:00,2.1625030040741,3,versionC_stim.csv,READVersionC.csv,"Read Version C","Dissertation, read only version C",ADD,VALLEY,Study1,U,82,40,Study,User,-,,Study/JOL,"Study Phase",1749,,,-1,-1,,,,1
5e8f7b9103ad03270d48587f,huwrd1ut5e,Nick_Dissertation_EX1,1,20,2020-06-13T09:50:02-07:00,1.4387338161469,3,versionC_stim.csv,READVersionC.csv,"Read Version C","Dissertation, read only version C",BELT,SOON,Study1,U,70,86,Study,User,-,,Study/JOL,"Study Phase",985,,,-1,-1,,,,1
5e8f7b9103ad03270d48587f,huwrd1ut5e,Nick_Dissertation_EX1,1,21,2020-06-13T09:50:03-07:00,1.0761830806732,3,versionC_stim.csv,READVersionC.csv,"Read Version C","Dissertation, read only version C",CHILI,HOT,Study1,F,37,15,Study,User,-,,Study/JOL,"Study Phase",790,,,-1,-1,,,,1
5e8f7b9103ad03270d48587f,huwrd1ut5e,Nick_Dissertation_EX1,1,22,2020-06-13T09:50:05-07:00,1.6078369617462,3,versionC_stim.csv,READVersionC.csv,"Read Version C","Dissertation, read only version C",VASE,KING,Study1,U,85,28,Study,User,-,,Study/JOL,"Study Phase",1219,,,-1,-1,,,,1
5e8f7b9103ad03270d48587f,huwrd1ut5e,Nick_Dissertation_EX1,1,23,2020-06-13T09:50:06-07:00,1.115266084671,3,versionC_stim.csv,READVersionC.csv,"Read Version C","Dissertation, read only version C",CAVE,DARK,Study1,F,28,76,Study,User,-,,Study/JOL,"Study Phase",823,,,-1,-1,,,,1
5e8f7b9103ad03270d48587f,huwrd1ut5e,Nick_Dissertation_EX1,1,24,2020-06-13T09:50:07-07:00,1.2182319164276,3,versionC_stim.csv,READVersionC.csv,"Read Version C","Dissertation, read only version C",CHORE,WORK,Study1,F,39,17,Study,User,-,,Study/JOL,"Study Phase",927,,,-1,-1,,,,1
5e8f7b9103ad03270d48587f,huwrd1ut5e,Nick_Dissertation_EX1,1,25,2020-06-13T09:50:08-07:00,1.1377980709076,3,versionC_stim.csv,READVersionC.csv,"Read Version C","Dissertation, read only version C",DOG,PAW,Study1,B,15,47,Study,User,-,,Study/JOL,"Study Phase",848,,,-1,-1,,,,1
5e8f7b9103ad03270d48587f,huwrd1ut5e,Nick_Dissertation_EX1,1,26,2020-06-13T09:50:09-07:00,0.93987798690796,3,versionC_stim.csv,READVersionC.csv,"Read Version C","Dissertation, read only version C",CARD,CREDIT,Study1,B,23,36,Study,User,-,,Study/JOL,"Study Phase",654,,,-1,-1,,,,1
5e8f7b9103ad03270d48587f,huwrd1ut5e,Nick_Dissertation_EX1,1,27,2020-06-13T09:50:10-07:00,1.3877990245819,3,versionC_stim.csv,READVersionC.csv,"Read Version C","Dissertation, read only version C",FOOT,SHOE,Study1,S,60,9,Study,User,-,,Study/JOL,"Study Phase",1006,,,-1,-1,,,,1
5e8f7b9103ad03270d48587f,huwrd1ut5e,Nick_Dissertation_EX1,1,28,2020-06-13T09:50:12-07:00,1.0975799560547,3,versionC_stim.csv,READVersionC.csv,"Read Version C","Dissertation, read only version C",LION,ART,Study1,U,79,61,Study,User,-,,Study/JOL,"Study Phase",787,,,-1,-1,,,,1
5e8f7b9103ad03270d48587f,huwrd1ut5e,Nick_Dissertation_EX1,1,29,2020-06-13T09:50:13-07:00,1.071515083313,3,versionC_stim.csv,READVersionC.csv,"Read Version C","Dissertation, read only version C",SIP,DRINK,Study1,F,27,77,Study,User,-,,Study/JOL,"Study Phase",780,,,-1,-1,,,,1
5e8f7b9103ad03270d48587f,huwrd1ut5e,Nick_Dissertation_EX1,1,30,2020-06-13T09:50:14-07:00,0.9994809627533,3,versionC_stim.csv,READVersionC.csv,"Read Version C","Dissertation, read only version C",ROCK,GEOLOGY,Study1,B,19,41,Study,User,-,,Study/JOL,"Study Phase",704,,,-1,-1,,,,1
5e8f7b9103ad03270d48587f,huwrd1ut5e,Nick_Dissertation_EX1,1,31,2020-06-13T09:50:15-07:00,0.942626953125,3,versionC_stim.csv,READVersionC.csv,"Read Version C","Dissertation, read only version C",FAMINE,HUNGER,Study1,F,40,73,Study,User,-,,Study/JOL,"Study Phase",653,,,-1,-1,,,,1
5e8f7b9103ad03270d48587f,huwrd1ut5e,Nick_Dissertation_EX1,1,32,2020-06-13T09:50:17-07:00,2.0431430339813,3,versionC_stim.csv,READVersionC.csv,"Read Version C","Dissertation, read only version C",ATTORNEY,LAW,Study1,F,34,16,Study,User,-,,Study/JOL,"Study Phase",732,,,-1,-1,,,,1
5e8f7b9103ad03270d48587f,huwrd1ut5e,Nick_Dissertation_EX1,1,33,2020-06-13T09:50:18-07:00,0.99014592170715,3,versionC_stim.csv,READVersionC.csv,"Read Version C","Dissertation, read only version C",CHILD,BABY,Study1,S,64,64,Study,User,-,,Study/JOL,"Study Phase",698,,,-1,-1,,,,1
5e8f7b9103ad03270d48587f,huwrd1ut5e,Nick_Dissertation_EX1,1,34,2020-06-13T09:50:19-07:00,1.0177979469299,3,versionC_stim.csv,READVersionC.csv,"Read Version C","Dissertation, read only version C",ASSIGNMENT,DUE,Study1,S,46,42,Study,User,-,,Study/JOL,"Study Phase",725,,,-1,-1,,,,1
5e8f7b9103ad03270d48587f,huwrd1ut5e,Nick_Dissertation_EX1,1,35,2020-06-13T09:50:20-07:00,0.95401906967163,3,versionC_stim.csv,READVersionC.csv,"Read Version C","Dissertation, read only version C",LATCH,KEY,Study1,F,36,21,Study,User,-,,Study/JOL,"Study Phase",661,,,-1,-1,,,,1
5e8f7b9103ad03270d48587f,huwrd1ut5e,Nick_Dissertation_EX1,1,36,2020-06-13T09:50:21-07:00,0.95385599136353,3,versionC_stim.csv,READVersionC.csv,"Read Version C","Dissertation, read only version C",WIND,BLOW,Study1,S,55,45,Study,User,-,,Study/JOL,"Study Phase",663,,,-1,-1,,,,1
5e8f7b9103ad03270d48587f,huwrd1ut5e,Nick_Dissertation_EX1,1,37,2020-06-13T09:50:21-07:00,0.93222093582153,3,versionC_stim.csv,READVersionC.csv,"Read Version C","Dissertation, read only version C",FANTASTIC,GREAT,Study1,F,35,70,Study,User,-,,Study/JOL,"Study Phase",640,,,-1,-1,,,,1
5e8f7b9103ad03270d48587f,huwrd1ut5e,Nick_Dissertation_EX1,1,38,2020-06-13T09:50:24-07:00,2.2063601016998,3,versionC_stim.csv,READVersionC.csv,"Read Version C","Dissertation, read only version C",BIRD,SWAN,Study1,B,14,12,Study,User,-,,Study/JOL,"Study Phase",822,,,-1,-1,,,,1
5e8f7b9103ad03270d48587f,huwrd1ut5e,Nick_Dissertation_EX1,1,39,2020-06-13T09:50:25-07:00,1.0062510967255,3,versionC_stim.csv,READVersionC.csv,"Read Version C","Dissertation, read only version C",TALK,DISCUSSION,Study1,B,21,26,Study,User,-,,Study/JOL,"Study Phase",718,,,-1,-1,,,,1
5e8f7b9103ad03270d48587f,huwrd1ut5e,Nick_Dissertation_EX1,1,40,2020-06-13T09:50:26-07:00,1.0776560306549,3,versionC_stim.csv,READVersionC.csv,"Read Version C","Dissertation, read only version C",JURY,TRIAL,Study1,S,50,46,Study,User,-,,Study/JOL,"Study Phase",787,,,-1,-1,,,,1
5e8f7b9103ad03270d48587f,huwrd1ut5e,Nick_Dissertation_EX1,1,41,2020-06-13T09:50:27-07:00,0.96031498908997,3,versionC_stim.csv,READVersionC.csv,"Read Version C","Dissertation, read only version C",WAR,REVOLUTION,Study1,B,20,38,Study,User,-,,Study/JOL,"Study Phase",664,,,-1,-1,,,,1
5e8f7b9103ad03270d48587f,huwrd1ut5e,Nick_Dissertation_EX1,1,42,2020-06-13T09:50:28-07:00,1.7423119544983,3,versionC_stim.csv,READVersionC.csv,"Read Version C","Dissertation, read only version C",PILOT,PLANE,Study1,F,44,18,Study,User,-,,Study/JOL,"Study Phase",1356,,,-1,-1,,,,1
5e8f7b9103ad03270d48587f,huwrd1ut5e,Nick_Dissertation_EX1,1,43,2020-06-13T09:50:30-07:00,1.0759279727936,3,versionC_stim.csv,READVersionC.csv,"Read Version C","Dissertation, read only version C",GROWTH,HEIGHT,Study1,F,30,75,Study,User,-,,Study/JOL,"Study Phase",783,,,-1,-1,,,,1
5e8f7b9103ad03270d48587f,huwrd1ut5e,Nick_Dissertation_EX1,1,44,2020-06-13T09:50:31-07:00,1.0124430656433,3,versionC_stim.csv,READVersionC.csv,"Read Version C","Dissertation, read only version C",HUNGRY,PARK,Study1,U,68,13,Study,User,-,,Study/JOL,"Study Phase",717,,,-1,-1,,,,1
5e8f7b9103ad03270d48587f,huwrd1ut5e,Nick_Dissertation_EX1,1,45,2020-06-13T09:50:31-07:00,0.91663599014282,3,versionC_stim.csv,READVersionC.csv,"Read Version C","Dissertation, read only version C",COW,HERD,Study1,B,22,33,Study,User,-,,Study/JOL,"Study Phase",620,,,-1,-1,,,,1
5e8f7b9103ad03270d48587f,huwrd1ut5e,Nick_Dissertation_EX1,1,46,2020-06-13T09:50:32-07:00,0.9167640209198,3,versionC_stim.csv,READVersionC.csv,"Read Version C","Dissertation, read only version C",CAR,HAPPY,Study1,U,77,30,Study,User,-,,Study/JOL,"Study Phase",619,,,-1,-1,,,,1
5e8f7b9103ad03270d48587f,huwrd1ut5e,Nick_Dissertation_EX1,1,47,2020-06-13T09:50:35-07:00,2.1995689868927,3,versionC_stim.csv,READVersionC.csv,"Read Version C","Dissertation, read only version C",NEWS,EDITOR,Study1,B,10,85,Study,User,-,,Study/JOL,"Study Phase",1810,,,-1,-1,,,,1
5e8f7b9103ad03270d48587f,huwrd1ut5e,Nick_Dissertation_EX1,1,48,2020-06-13T09:50:36-07:00,1.0945978164673,3,versionC_stim.csv,READVersionC.csv,"Read Version C","Dissertation, read only version C",RIDDLE,SUGAR,Study1,U,81,20,Study,User,-,,Study/JOL,"Study Phase",775,,,-1,-1,,,,1
5e8f7b9103ad03270d48587f,huwrd1ut5e,Nick_Dissertation_EX1,1,49,2020-06-13T09:50:37-07:00,1.6978940963745,3,versionC_stim.csv,READVersionC.csv,"Read Version C","Dissertation, read only version C",COLD,BITTER,Study1,B,12,51,Study,User,-,,Study/JOL,"Study Phase",1293,,,-1,-1,,,,1
5e8f7b9103ad03270d48587f,huwrd1ut5e,Nick_Dissertation_EX1,1,50,2020-06-13T09:50:38-07:00,0.84717202186584,3,versionC_stim.csv,READVersionC.csv,"Read Version C","Dissertation, read only version C",BRONZE,ARTERY,Study1,U,74,39,Study,User,-,,Study/JOL,"Study Phase",552,,,-1,-1,,,,1
5e8f7b9103ad03270d48587f,huwrd1ut5e,Nick_Dissertation_EX1,1,51,2020-06-13T09:50:39-07:00,1.1291570663452,3,versionC_stim.csv,READVersionC.csv,"Read Version C","Dissertation, read only version C",WASTE,DUMP,Study1,S,49,32,Study,User,-,,Study/JOL,"Study Phase",839,,,-1,-1,,,,1
5e8f7b9103ad03270d48587f,huwrd1ut5e,Nick_Dissertation_EX1,1,52,2020-06-13T09:50:40-07:00,1.0407898426056,3,versionC_stim.csv,READVersionC.csv,"Read Version C","Dissertation, read only version C",END,BEGIN,Study1,S,54,50,Study,User,-,,Study/JOL,"Study Phase",746,,,-1,-1,,,,1
5e8f7b9103ad03270d48587f,huwrd1ut5e,Nick_Dissertation_EX1,1,53,2020-06-13T09:50:41-07:00,1.0076501369476,3,versionC_stim.csv,READVersionC.csv,"Read Version C","Dissertation, read only version C",ENOUGH,FULL,Study1,F,26,79,Study,User,-,,Study/JOL,"Study Phase",713,,,-1,-1,,,,1
5e8f7b9103ad03270d48587f,huwrd1ut5e,Nick_Dissertation_EX1,1,54,2020-06-13T09:50:42-07:00,1.0303919315338,3,versionC_stim.csv,READVersionC.csv,"Read Version C","Dissertation, read only version C",STENCH,SMELL,Study1,F,42,63,Study,User,-,,Study/JOL,"Study Phase",732,,,-1,-1,,,,1
5e8f7b9103ad03270d48587f,huwrd1ut5e,Nick_Dissertation_EX1,1,55,2020-06-13T09:50:43-07:00,1.0383629798889,3,versionC_stim.csv,READVersionC.csv,"Read Version C","Dissertation, read only version C",FISH,TUNA,Study1,B,25,29,Study,User,-,,Study/JOL,"Study Phase",740,,,-1,-1,,,,1
5e8f7b9103ad03270d48587f,huwrd1ut5e,Nick_Dissertation_EX1,1,56,2020-06-13T09:50:45-07:00,1.0492420196533,3,versionC_stim.csv,READVersionC.csv,"Read Version C","Dissertation, read only version C",DROWSY,SLEEP,Study1,F,41,71,Study,User,-,,Study/JOL,"Study Phase",738,,,-1,-1,,,,1
5e8f7b9103ad03270d48587f,huwrd1ut5e,Nick_Dissertation_EX1,1,57,2020-06-13T09:50:46-07:00,1.0854520797729,3,versionC_stim.csv,READVersionC.csv,"Read Version C","Dissertation, read only version C",SITE,LOCATION,Study1,S,48,11,Study,User,-,,Study/JOL,"Study Phase",787,,,-1,-1,,,,1
5e8f7b9103ad03270d48587f,huwrd1ut5e,Nick_Dissertation_EX1,1,58,2020-06-13T09:50:47-07:00,1.1408958435059,3,versionC_stim.csv,READVersionC.csv,"Read Version C","Dissertation, read only version C",WORD,SENTENCE,Study1,F,31,53,Study,User,-,,Study/JOL,"Study Phase",838,,,-1,-1,,,,1
5e8f7b9103ad03270d48587f,huwrd1ut5e,Nick_Dissertation_EX1,1,59,2020-06-13T09:50:48-07:00,1.0129051208496,3,versionC_stim.csv,READVersionC.csv,"Read Version C","Dissertation, read only version C",WATER,BRIDGE,Study1,B,18,82,Study,User,-,,Study/JOL,"Study Phase",702,,,-1,-1,,,,1
5e8f7b9103ad03270d48587f,huwrd1ut5e,Nick_Dissertation_EX1,1,60,2020-06-13T09:50:49-07:00,1.1549718379974,3,versionC_stim.csv,READVersionC.csv,"Read Version C","Dissertation, read only version C",STING,HORNET,Study1,B,11,43,Study,User,-,,Study/JOL,"Study Phase",860,,,-1,-1,,,,1
5e8f7b9103ad03270d48587f,huwrd1ut5e,Nick_Dissertation_EX1,1,61,2020-06-13T09:50:50-07:00,0.90762901306152,3,versionC_stim.csv,READVersionC.csv,"Read Version C","Dissertation, read only version C",BEE,HONEY,Study1,S,63,34,Study,User,-,,Study/JOL,"Study Phase",607,,,-1,-1,,,,1
5e8f7b9103ad03270d48587f,huwrd1ut5e,Nick_Dissertation_EX1,1,62,2020-06-13T09:50:52-07:00,2.4802641868591,3,versionC_stim.csv,READVersionC.csv,"Read Version C","Dissertation, read only version C",HAND,FIX,Study1,U,75,68,Study,User,-,,Study/JOL,"Study Phase",980,,,-1,-1,,,,1
5e8f7b9103ad03270d48587f,huwrd1ut5e,Nick_Dissertation_EX1,1,63,2020-06-13T09:50:53-07:00,1.186548948288,3,versionC_stim.csv,READVersionC.csv,"Read Version C","Dissertation, read only version C",SALAD,LETTUCE,Study1,S,59,72,Study,User,-,,Study/JOL,"Study Phase",891,,,-1,-1,,,,1
5e8f7b9103ad03270d48587f,huwrd1ut5e,Nick_Dissertation_EX1,1,64,2020-06-13T09:50:55-07:00,1.1128389835358,3,versionC_stim.csv,READVersionC.csv,"Read Version C","Dissertation, read only version C",FLOOR,DISCOVER,Study1,U,71,56,Study,User,-,,Study/JOL,"Study Phase",821,,,-1,-1,,,,1
5e8f7b9103ad03270d48587f,huwrd1ut5e,Nick_Dissertation_EX1,1,65,2020-06-13T09:50:56-07:00,0.92129588127136,3,versionC_stim.csv,READVersionC.csv,"Read Version C","Dissertation, read only version C",FUTURE,PAST,Study1,S,61,58,Study,User,-,,Study/JOL,"Study Phase",630,,,-1,-1,,,,1
5e8f7b9103ad03270d48587f,huwrd1ut5e,Nick_Dissertation_EX1,1,66,2020-06-13T09:50:57-07:00,1.0395560264587,3,versionC_stim.csv,READVersionC.csv,"Read Version C","Dissertation, read only version C",RACKET,BALL,Study1,F,38,27,Study,User,-,,Study/JOL,"Study Phase",751,,,-1,-1,,,,1
5e8f7b9103ad03270d48587f,huwrd1ut5e,Nick_Dissertation_EX1,1,67,2020-06-13T09:50:58-07:00,1.1588950157166,3,versionC_stim.csv,READVersionC.csv,"Read Version C","Dissertation, read only version C",BAD,DELINQUENT,Study1,B,6,25,Study,User,-,,Study/JOL,"Study Phase",862,,,-1,-1,,,,1
5e8f7b9103ad03270d48587f,huwrd1ut5e,Nick_Dissertation_EX1,1,68,2020-06-13T09:50:59-07:00,0.98250508308411,3,versionC_stim.csv,READVersionC.csv,"Read Version C","Dissertation, read only version C",WOMAN,LIFT,Study1,U,69,60,Study,User,-,,Study/JOL,"Study Phase",681,,,-1,-1,,,,1
5e8f7b9103ad03270d48587f,huwrd1ut5e,Nick_Dissertation_EX1,1,69,2020-06-13T09:51:01-07:00,2.7046520709991,3,versionC_stim.csv,READVersionC.csv,"Read Version C","Dissertation, read only version C",SIGHT,DEBATE,Study1,U,73,23,Study,User,-,,Study/JOL,"Study Phase",2318,,,-1,-1,,,,1
5e8f7b9103ad03270d48587f,huwrd1ut5e,Nick_Dissertation_EX1,1,70,2020-06-13T09:51:02-07:00,0.88863682746887,3,versionC_stim.csv,READVersionC.csv,"Read Version C","Dissertation, read only version C",ROUND,CIRCLE,Study1,S,65,24,Study,User,-,,Study/JOL,"Study Phase",591,,,-1,-1,,,,1
5e8f7b9103ad03270d48587f,huwrd1ut5e,Nick_Dissertation_EX1,1,71,2020-06-13T09:51:03-07:00,0.8743109703064,3,versionC_stim.csv,READVersionC.csv,"Read Version C","Dissertation, read only version C",CLEAN,HYGIENE,Study1,B,17,66,Study,User,-,,Study/JOL,"Study Phase",580,,,-1,-1,,,,1
5e8f7b9103ad03270d48587f,huwrd1ut5e,Nick_Dissertation_EX1,1,72,2020-06-13T09:51:04-07:00,1.0282862186432,3,versionC_stim.csv,READVersionC.csv,"Read Version C","Dissertation, read only version C",PLANT,ROOT,Study1,B,13,55,Study,User,-,,Study/JOL,"Study Phase",729,,,-1,-1,,,,1
5e8f7b9103ad03270d48587f,huwrd1ut5e,Nick_Dissertation_EX1,1,73,2020-06-13T09:51:06-07:00,1.4985728263855,3,versionC_stim.csv,READVersionC.csv,"Read Version C","Dissertation, read only version C",DEFINITION,MEANING,Study1,S,62,49,Study,User,-,,Study/JOL,"Study Phase",1062,,,-1,-1,,,,1
5e8f7b9103ad03270d48587f,huwrd1ut5e,Nick_Dissertation_EX1,1,74,2020-06-13T09:51:07-07:00,1.1346161365509,3,versionC_stim.csv,READVersionC.csv,"Read Version C","Dissertation, read only version C",TUCK,ALLOW,Study1,U,78,19,Study,User,-,,Study/JOL,"Study Phase",839,,,-1,-1,,,,1
5e8f7b9103ad03270d48587f,huwrd1ut5e,Nick_Dissertation_EX1,1,75,2020-06-13T09:51:09-07:00,1.7330939769745,3,versionC_stim.csv,READVersionC.csv,"Read Version C","Dissertation, read only version C",ACCIDENT,STRONG,Study1,U,80,84,Study,User,-,,Study/JOL,"Study Phase",1343,,,-1,-1,,,,1
5e8f7b9103ad03270d48587f,huwrd1ut5e,Nick_Dissertation_EX1,1,76,2020-06-13T09:51:09-07:00,0.93993902206421,3,versionC_stim.csv,READVersionC.csv,"Read Version C","Dissertation, read only version C",OUT,WAY,Study1,B,16,31,Study,User,-,,Study/JOL,"Study Phase",647,,,-1,-1,,,,1
5e8f7b9103ad03270d48587f,huwrd1ut5e,Nick_Dissertation_EX1,1,77,2020-06-13T09:51:10-07:00,0.99037504196167,3,versionC_stim.csv,READVersionC.csv,"Read Version C","Dissertation, read only version C",HAMMER,CHISEL,Study1,B,9,78,Study,User,-,,Study/JOL,"Study Phase",698,,,-1,-1,,,,1
5e8f7b9103ad03270d48587f,huwrd1ut5e,Nick_Dissertation_EX1,1,78,2020-06-13T09:51:11-07:00,0.81908178329468,3,versionC_stim.csv,READVersionC.csv,"Read Version C","Dissertation, read only version C",BLAZE,FIRE,Study1,F,45,7,Study,User,-,,Study/JOL,"Study Phase",528,,,-1,-1,,,,1
5e8f7b9103ad03270d48587f,huwrd1ut5e,Nick_Dissertation_EX1,1,79,2020-06-13T09:51:12-07:00,0.8571240901947,3,versionC_stim.csv,READVersionC.csv,"Read Version C","Dissertation, read only version C",FLOWER,ORCHID,Study1,B,24,62,Study,User,-,,Study/JOL,"Study Phase",567,,,-1,-1,,,,1
5e8f7b9103ad03270d48587f,huwrd1ut5e,Nick_Dissertation_EX1,1,80,2020-06-13T09:51:13-07:00,1.055223941803,3,versionC_stim.csv,READVersionC.csv,"Read Version C","Dissertation, read only version C",SODA,POP,Study1,S,56,54,Study,User,-,,Study/JOL,"Study Phase",761,,,-1,-1,,,,1
5e8f7b9103ad03270d48587f,huwrd1ut5e,Nick_Dissertation_EX1,1,81,2020-06-13T09:51:14-07:00,1.0581221580505,3,versionC_stim.csv,READVersionC.csv,"Read Version C","Dissertation, read only version C",DIVISION,MATH,Study1,F,33,80,Study,User,-,,Study/JOL,"Study Phase",760,,,-1,-1,,,,1
5e8f7b9103ad03270d48587f,huwrd1ut5e,Nick_Dissertation_EX1,1,82,2020-06-13T09:51:15-07:00,0.98710489273071,3,versionC_stim.csv,READVersionC.csv,"Read Version C","Dissertation, read only version C",ATTIRE,CLOTHES,Study1,F,43,14,Study,User,-,,Study/JOL,"Study Phase",688,,,-1,-1,,,,1
5e8f7b9103ad03270d48587f,huwrd1ut5e,Nick_Dissertation_EX1,1,83,2020-06-13T09:51:16-07:00,1.1280651092529,3,versionC_stim.csv,READVersionC.csv,"Read Version C","Dissertation, read only version C",SACKING,DIETARY,Study1,U,67,44,Study,User,-,,Study/JOL,"Study Phase",832,,,-1,-1,,,,1
5e8f7b9103ad03270d48587f,huwrd1ut5e,Nick_Dissertation_EX1,1,84,2020-06-13T09:51:20-07:00,3.349723815918,3,versionC_stim.csv,READVersionC.csv,"Read Version C","Dissertation, read only version C",AMOUNT,NUMBER,Study1,S,47,35,Study,User,-,,Study/JOL,"Study Phase",2967,,,-1,-1,,,,1
5e8f7b9103ad03270d48587f,huwrd1ut5e,Nick_Dissertation_EX1,1,85,2020-06-13T09:51:21-07:00,1.1122059822083,3,versionC_stim.csv,READVersionC.csv,"Read Version C","Dissertation, read only version C",TOILET,BATHROOM,Study1,S,58,37,Study,User,-,,Study/JOL,"Study Phase",824,,,-1,-1,,,,1
5e8f7b9103ad03270d48587f,huwrd1ut5e,Nick_Dissertation_EX1,1,86,2020-06-13T09:51:22-07:00,1.5664510726929,3,versionC_stim.csv,READVersionC.csv,"Read Version C","Dissertation, read only version C",POSITION,MACHINE,Study1,U,76,52,Study,User,-,,Study/JOL,"Study Phase",1182,,,-1,-1,,,,1
5e8f7b9103ad03270d48587f,huwrd1ut5e,Nick_Dissertation_EX1,1,87,2020-06-13T09:51:23-07:00,1.0777690410614,3,versionC_stim.csv,READVersionC.csv,"Read Version C","Dissertation, read only version C",POLICE,SHERRIF,BUFFER2,Buffer,87,87,Study,User,-,,Study/JOL,BUFFER2,782,,,-1,-1,,,,1
5e8f7b9103ad03270d48587f,huwrd1ut5e,Nick_Dissertation_EX1,1,88,2020-06-13T09:51:25-07:00,1.6333858966827,3,versionC_stim.csv,READVersionC.csv,"Read Version C","Dissertation, read only version C",GOOSE,GEESE,BUFFER2,Buffer,86,88,Study,User,-,,Study/JOL,BUFFER2,1246,,,-1,-1,,,,1
5e8f7b9103ad03270d48587f,huwrd1ut5e,Nick_Dissertation_EX1,1,89,2020-06-13T09:51:26-07:00,0.9140031337738,3,versionC_stim.csv,READVersionC.csv,"Read Version C","Dissertation, read only version C",SPACE,MOON,BUFFER2,Buffer,89,90,Study,User,-,,Study/JOL,BUFFER2,616,,,-1,-1,,,,1
5e8f7b9103ad03270d48587f,huwrd1ut5e,Nick_Dissertation_EX1,1,90,2020-06-13T09:51:27-07:00,0.92400503158569,3,versionC_stim.csv,READVersionC.csv,"Read Version C","Dissertation, read only version C",CHOCOLATE,MALT,BUFFER2,Buffer,88,91,Study,User,-,,Study/JOL,BUFFER2,632,,,-1,-1,,,,1
5e8f7b9103ad03270d48587f,huwrd1ut5e,Nick_Dissertation_EX1,1,91,2020-06-13T09:51:28-07:00,1.1624100208282,3,versionC_stim.csv,READVersionC.csv,"Read Version C","Dissertation, read only version C",STUFF,THING,BUFFER2,Buffer,90,89,Study,User,-,,Study/JOL,BUFFER2,864,,,-1,-1,,,,1
5e8f7b9103ad03270d48587f,huwrd1ut5e,Nick_Dissertation_EX1,1,92,2020-06-13T09:51:31-07:00,2.8934898376465,3,versionC_stim.csv,READVersionC.csv,"Read Version C","Dissertation, read only version C",,,,,,0,Instruct,User,-,"You have completed this section. Please press Enter.",Filler_Instruction,Instruct2,1496,,,-1,-1,,,,1
5e8f7b9103ad03270d48587f,huwrd1ut5e,Nick_Dissertation_EX1,1,93,2020-06-13T09:53:31-07:00,120.46612596512,3,versionC_stim.csv,READVersionC.csv,"Read Version C","Dissertation, read only version C",,,,,,0,FreeRecall,120,120,"Please list the 50 US states in alphabetical order. The task will automatically advance to the next screen after two minutes.",,Filler1,120002,"Alabama, California, Dallas, Michigan, North Dakota, South Dakota, Texas, Utah, Virginia, Washington",0,5948,104585,0,0,,1
5e8f7b9103ad03270d48587f,huwrd1ut5e,Nick_Dissertation_EX1,1,94,2020-06-13T09:53:42-07:00,10.431353092194,3,versionC_stim.csv,READVersionC.csv,"Read Version C","Dissertation, read only version C",,,,,,0,Instruct,-,10,"You will now be presented with the first word from each of the previously studied item pairs. Please type the missing word. If you do not know the word, you may guess or press Enter to skip forward to the next pair.",,Instruct3,10036,,,-1,-1,,,,1
5e8f7b9103ad03270d48587f,huwrd1ut5e,Nick_Dissertation_EX1,1,95,2020-06-13T09:53:50-07:00,8.3132309913635,3,versionC_stim.csv,READVersionC.csv,"Read Version C","Dissertation, read only version C",ROCK,GEOLOGY,Study1,B,19,41,Test,User,-,,Recall,Recall1,7919,HARD,0,6177,6551,0,0,,1
5e8f7b9103ad03270d48587f,huwrd1ut5e,Nick_Dissertation_EX1,1,96,2020-06-13T09:53:53-07:00,3.0213799476624,3,versionC_stim.csv,READVersionC.csv,"Read Version C","Dissertation, read only version C",GROWTH,HEIGHT,Study1,F,30,75,Test,User,-,,Recall,Recall1,2634,HEIGHT,100,1713,2237,1,1,,1
5e8f7b9103ad03270d48587f,huwrd1ut5e,Nick_Dissertation_EX1,1,97,2020-06-13T09:54:01-07:00,7.2626709938049,3,versionC_stim.csv,READVersionC.csv,"Read Version C","Dissertation, read only version C",TOILET,BATHROOM,Study1,S,58,37,Test,User,-,,Recall,Recall1,6875,,0,-1,-1,0,0,,1
5e8f7b9103ad03270d48587f,huwrd1ut5e,Nick_Dissertation_EX1,1,98,2020-06-13T09:54:07-07:00,6.0371241569519,3,versionC_stim.csv,READVersionC.csv,"Read Version C","Dissertation, read only version C",CLEAN,HYGIENE,Study1,B,17,66,Test,User,-,,Recall,Recall1,5642,TIDY,18.181818181818,3265,5219,0,0,,1
5e8f7b9103ad03270d48587f,huwrd1ut5e,Nick_Dissertation_EX1,1,99,2020-06-13T09:54:11-07:00,4.489049911499,3,versionC_stim.csv,READVersionC.csv,"Read Version C","Dissertation, read only version C",BEE,HONEY,Study1,S,63,34,Test,User,-,,Recall,Recall1,4095,BUG,0,2243,2394,0,0,,1
5e8f7b9103ad03270d48587f,huwrd1ut5e,Nick_Dissertation_EX1,1,100,2020-06-13T09:54:15-07:00,3.7321920394897,3,versionC_stim.csv,READVersionC.csv,"Read Version C","Dissertation, read only version C",SACKING,DIETARY,Study1,U,67,44,Test,User,-,,Recall,Recall1,3343,,0,-1,-1,0,0,,1
5e8f7b9103ad03270d48587f,huwrd1ut5e,Nick_Dissertation_EX1,1,101,2020-06-13T09:54:19-07:00,4.0061390399933,3,versionC_stim.csv,READVersionC.csv,"Read Version C","Dissertation, read only version C",OUT,WAY,Study1,B,16,31,Test,User,-,,Recall,Recall1,3617,,0,-1,-1,0,0,,1
5e8f7b9103ad03270d48587f,huwrd1ut5e,Nick_Dissertation_EX1,1,102,2020-06-13T09:54:25-07:00,6.3898198604584,3,versionC_stim.csv,READVersionC.csv,"Read Version C","Dissertation, read only version C",PLANT,ROOT,Study1,B,13,55,Test,User,-,,Recall,Recall1,6002,FLOWER,20,4748,5846,0,0,,1
5e8f7b9103ad03270d48587f,huwrd1ut5e,Nick_Dissertation_EX1,1,103,2020-06-13T09:54:29-07:00,3.7103800773621,3,versionC_stim.csv,READVersionC.csv,"Read Version C","Dissertation, read only version C",WORD,SENTENCE,Study1,F,31,53,Test,User,-,,Recall,Recall1,3320,,0,-1,-1,0,0,,1
5e8f7b9103ad03270d48587f,huwrd1ut5e,Nick_Dissertation_EX1,1,104,2020-06-13T09:54:32-07:00,2.8968300819397,3,versionC_stim.csv,READVersionC.csv,"Read Version C","Dissertation, read only version C",END,BEGIN,Study1,S,54,50,Test,User,-,,Recall,Recall1,2508,,0,-1,-1,0,0,,1
5e8f7b9103ad03270d48587f,huwrd1ut5e,Nick_Dissertation_EX1,1,105,2020-06-13T09:54:34-07:00,2.1533069610596,3,versionC_stim.csv,READVersionC.csv,"Read Version C","Dissertation, read only version C",LION,ART,Study1,U,79,61,Test,User,-,,Recall,Recall1,1758,ART,100,1023,1367,1,1,,1
5e8f7b9103ad03270d48587f,huwrd1ut5e,Nick_Dissertation_EX1,1,106,2020-06-13T09:54:37-07:00,2.7594120502472,3,versionC_stim.csv,READVersionC.csv,"Read Version C","Dissertation, read only version C",DESIGN,ARCHITECTURE,Study1,S,51,22,Test,User,-,,Recall,Recall1,2373,,0,-1,-1,0,0,,1
5e8f7b9103ad03270d48587f,huwrd1ut5e,Nick_Dissertation_EX1,1,107,2020-06-13T09:54:41-07:00,4.7698078155518,3,versionC_stim.csv,READVersionC.csv,"Read Version C","Dissertation, read only version C",FANTASTIC,GREAT,Study1,F,35,70,Test,User,-,,Recall,Recall1,4371,,0,-1,-1,0,0,,1
5e8f7b9103ad03270d48587f,huwrd1ut5e,Nick_Dissertation_EX1,1,108,2020-06-13T09:54:44-07:00,2.587023973465,3,versionC_stim.csv,READVersionC.csv,"Read Version C","Dissertation, read only version C",SIGHT,DEBATE,Study1,U,73,23,Test,User,-,,Recall,Recall1,2200,,0,-1,-1,0,0,,1
5e8f7b9103ad03270d48587f,huwrd1ut5e,Nick_Dissertation_EX1,1,109,2020-06-13T09:54:46-07:00,2.294055223465,3,versionC_stim.csv,READVersionC.csv,"Read Version C","Dissertation, read only version C",WIND,BLOW,Study1,S,55,45,Test,User,-,,Recall,Recall1,1903,,0,-1,-1,0,0,,1
5e8f7b9103ad03270d48587f,huwrd1ut5e,Nick_Dissertation_EX1,1,110,2020-06-13T09:54:50-07:00,3.2615888118744,3,versionC_stim.csv,READVersionC.csv,"Read Version C","Dissertation, read only version C",SEIZE,TAKE,Study1,F,29,83,Test,User,-,,Recall,Recall1,2872,TAKE,100,1921,2360,1,1,,1
5e8f7b9103ad03270d48587f,huwrd1ut5e,Nick_Dissertation_EX1,1,111,2020-06-13T09:54:52-07:00,2.734188079834,3,versionC_stim.csv,READVersionC.csv,"Read Version C","Dissertation, read only version C",FUTURE,PAST,Study1,S,61,58,Test,User,-,,Recall,Recall1,2348,PAST,100,1620,1861,1,1,,1
5e8f7b9103ad03270d48587f,huwrd1ut5e,Nick_Dissertation_EX1,1,112,2020-06-13T09:54:59-07:00,6.9902460575104,3,versionC_stim.csv,READVersionC.csv,"Read Version C","Dissertation, read only version C",BIRD,SWAN,Study1,B,14,12,Test,User,-,,Recall,Recall1,6600,,0,-1,-1,0,0,,1
5e8f7b9103ad03270d48587f,huwrd1ut5e,Nick_Dissertation_EX1,1,113,2020-06-13T09:55:03-07:00,3.8767569065094,3,versionC_stim.csv,READVersionC.csv,"Read Version C","Dissertation, read only version C",FAMINE,HUNGER,Study1,F,40,73,Test,User,-,,Recall,Recall1,3477,HUNGER,100,1574,2497,1,1,,1
5e8f7b9103ad03270d48587f,huwrd1ut5e,Nick_Dissertation_EX1,1,114,2020-06-13T09:55:11-07:00,7.9367220401764,3,versionC_stim.csv,READVersionC.csv,"Read Version C","Dissertation, read only version C",BUSINESS,DEATH,Study1,U,72,74,Test,User,-,,Recall,Recall1,7546,,0,-1,-1,0,0,,1
5e8f7b9103ad03270d48587f,huwrd1ut5e,Nick_Dissertation_EX1,1,115,2020-06-13T09:55:15-07:00,4.0182869434357,3,versionC_stim.csv,READVersionC.csv,"Read Version C","Dissertation, read only version C",STOMACH,DIGESTION,Study1,B,7,59,Test,User,-,,Recall,Recall1,3499,KIDNEY,26.666666666667,2174,2770,0,0,,1
5e8f7b9103ad03270d48587f,huwrd1ut5e,Nick_Dissertation_EX1,1,116,2020-06-13T09:55:19-07:00,3.5218551158905,3,versionC_stim.csv,READVersionC.csv,"Read Version C","Dissertation, read only version C",BELT,SOON,Study1,U,70,86,Test,User,-,,Recall,Recall1,3033,BUCKLE,0,1945,2425,0,0,,1
5e8f7b9103ad03270d48587f,huwrd1ut5e,Nick_Dissertation_EX1,1,117,2020-06-13T09:55:20-07:00,1.7364490032196,3,versionC_stim.csv,READVersionC.csv,"Read Version C","Dissertation, read only version C",CARD,CREDIT,Study1,B,23,36,Test,User,-,,Recall,Recall1,1331,,0,-1,-1,0,0,,1
5e8f7b9103ad03270d48587f,huwrd1ut5e,Nick_Dissertation_EX1,1,118,2020-06-13T09:55:23-07:00,2.6332168579102,3,versionC_stim.csv,READVersionC.csv,"Read Version C","Dissertation, read only version C",FOOT,SHOE,Study1,S,60,9,Test,User,-,,Recall,Recall1,2250,SHOE,100,1534,1892,1,1,,1
5e8f7b9103ad03270d48587f,huwrd1ut5e,Nick_Dissertation_EX1,1,119,2020-06-13T09:55:26-07:00,2.5593831539154,3,versionC_stim.csv,READVersionC.csv,"Read Version C","Dissertation, read only version C",ADD,VALLEY,Study1,U,82,40,Test,User,-,,Recall,Recall1,2171,,0,-1,-1,0,0,,1
5e8f7b9103ad03270d48587f,huwrd1ut5e,Nick_Dissertation_EX1,1,120,2020-06-13T09:55:32-07:00,6.4777429103851,3,versionC_stim.csv,READVersionC.csv,"Read Version C","Dissertation, read only version C",RIDDLE,SUGAR,Study1,U,81,20,Test,User,-,,Recall,Recall1,6087,WORD,22.222222222222,5550,5830,0,0,,1
5e8f7b9103ad03270d48587f,huwrd1ut5e,Nick_Dissertation_EX1,1,121,2020-06-13T09:55:37-07:00,4.483274936676,3,versionC_stim.csv,READVersionC.csv,"Read Version C","Dissertation, read only version C",ENOUGH,FULL,Study1,F,26,79,Test,User,-,,Recall,Recall1,4093,,0,-1,-1,0,0,,1
5e8f7b9103ad03270d48587f,huwrd1ut5e,Nick_Dissertation_EX1,1,122,2020-06-13T09:55:45-07:00,8.9060120582581,3,versionC_stim.csv,READVersionC.csv,"Read Version C","Dissertation, read only version C",AMOUNT,NUMBER,Study1,S,47,35,Test,User,-,,Recall,Recall1,8521,,0,-1,-1,0,0,,1
5e8f7b9103ad03270d48587f,huwrd1ut5e,Nick_Dissertation_EX1,1,123,2020-06-13T09:55:50-07:00,4.8227779865265,3,versionC_stim.csv,READVersionC.csv,"Read Version C","Dissertation, read only version C",COLD,BITTER,Study1,B,12,51,Test,User,-,,Recall,Recall1,4435,,0,-1,-1,0,0,,1
5e8f7b9103ad03270d48587f,huwrd1ut5e,Nick_Dissertation_EX1,1,124,2020-06-13T09:55:57-07:00,6.7230010032654,3,versionC_stim.csv,READVersionC.csv,"Read Version C","Dissertation, read only version C",HAND,FIX,Study1,U,75,68,Test,User,-,,Recall,Recall1,6336,GLOVE,0,5596,5965,0,0,,1
5e8f7b9103ad03270d48587f,huwrd1ut5e,Nick_Dissertation_EX1,1,125,2020-06-13T09:56:02-07:00,4.6479890346527,3,versionC_stim.csv,READVersionC.csv,"Read Version C","Dissertation, read only version C",LATCH,KEY,Study1,F,36,21,Test,User,-,,Recall,Recall1,4258,KEY,100,3603,3797,1,1,,1
5e8f7b9103ad03270d48587f,huwrd1ut5e,Nick_Dissertation_EX1,1,126,2020-06-13T09:56:06-07:00,4.8172669410706,3,versionC_stim.csv,READVersionC.csv,"Read Version C","Dissertation, read only version C",JURY,TRIAL,Study1,S,50,46,Test,User,-,,Recall,Recall1,4428,,0,-1,-1,0,0,,1
5e8f7b9103ad03270d48587f,huwrd1ut5e,Nick_Dissertation_EX1,1,127,2020-06-13T09:56:10-07:00,3.1769871711731,3,versionC_stim.csv,READVersionC.csv,"Read Version C","Dissertation, read only version C",STENCH,SMELL,Study1,F,42,63,Test,User,-,,Recall,Recall1,2783,SMELL,100,1916,2335,1,1,,1
5e8f7b9103ad03270d48587f,huwrd1ut5e,Nick_Dissertation_EX1,1,128,2020-06-13T09:56:13-07:00,3.3100647926331,3,versionC_stim.csv,READVersionC.csv,"Read Version C","Dissertation, read only version C",WASP,BUG,Study1,F,32,10,Test,User,-,,Recall,Recall1,2916,BUG,100,2345,2491,1,1,,1
5e8f7b9103ad03270d48587f,huwrd1ut5e,Nick_Dissertation_EX1,1,129,2020-06-13T09:56:17-07:00,3.7787091732025,3,versionC_stim.csv,READVersionC.csv,"Read Version C","Dissertation, read only version C",WOMAN,LIFT,Study1,U,69,60,Test,User,-,,Recall,Recall1,3381,MAN,0,2584,2762,0,0,,1
5e8f7b9103ad03270d48587f,huwrd1ut5e,Nick_Dissertation_EX1,1,130,2020-06-13T09:56:20-07:00,3.4428999423981,3,versionC_stim.csv,READVersionC.csv,"Read Version C","Dissertation, read only version C",ATTIRE,CLOTHES,Study1,F,43,14,Test,User,-,,Recall,Recall1,3040,DRESS,33.333333333333,2375,2836,0,0,,1
5e8f7b9103ad03270d48587f,huwrd1ut5e,Nick_Dissertation_EX1,1,131,2020-06-13T09:56:23-07:00,2.7517609596252,3,versionC_stim.csv,READVersionC.csv,"Read Version C","Dissertation, read only version C",NEWS,EDITOR,Study1,B,10,85,Test,User,-,,Recall,Recall1,1348,,0,-1,-1,0,0,,1
5e8f7b9103ad03270d48587f,huwrd1ut5e,Nick_Dissertation_EX1,1,132,2020-06-13T09:56:26-07:00,3.1712079048157,3,versionC_stim.csv,READVersionC.csv,"Read Version C","Dissertation, read only version C",DOG,PAW,Study1,B,15,47,Test,User,-,,Recall,Recall1,2768,CAT,33.333333333333,2051,2255,0,0,,1
5e8f7b9103ad03270d48587f,huwrd1ut5e,Nick_Dissertation_EX1,1,133,2020-06-13T09:56:30-07:00,3.5470662117004,3,versionC_stim.csv,READVersionC.csv,"Read Version C","Dissertation, read only version C",STING,HORNET,Study1,B,11,43,Test,User,-,,Recall,Recall1,3155,WASP,0,2452,2768,0,0,,1
5e8f7b9103ad03270d48587f,huwrd1ut5e,Nick_Dissertation_EX1,1,134,2020-06-13T09:56:33-07:00,3.089781999588,3,versionC_stim.csv,READVersionC.csv,"Read Version C","Dissertation, read only version C",CHORE,WORK,Study1,F,39,17,Test,User,-,,Recall,Recall1,2699,WORK,100,1214,1477,1,1,,1
5e8f7b9103ad03270d48587f,huwrd1ut5e,Nick_Dissertation_EX1,1,135,2020-06-13T09:56:38-07:00,4.9740428924561,3,versionC_stim.csv,READVersionC.csv,"Read Version C","Dissertation, read only version C",FLOOR,DISCOVER,Study1,U,71,56,Test,User,-,,Recall,Recall1,4582,CEILING,26.666666666667,3398,4099,0,0,,1
5e8f7b9103ad03270d48587f,huwrd1ut5e,Nick_Dissertation_EX1,1,136,2020-06-13T09:56:41-07:00,2.8729679584503,3,versionC_stim.csv,READVersionC.csv,"Read Version C","Dissertation, read only version C",POSITION,MACHINE,Study1,U,76,52,Test,User,-,,Recall,Recall1,2487,,0,-1,-1,0,0,,1
5e8f7b9103ad03270d48587f,huwrd1ut5e,Nick_Dissertation_EX1,1,137,2020-06-13T09:56:44-07:00,3.3220889568329,3,versionC_stim.csv,READVersionC.csv,"Read Version C","Dissertation, read only version C",SALAD,LETTUCE,Study1,S,59,72,Test,User,-,,Recall,Recall1,2932,LETTUCE,100,1245,2519,1,1,,1
5e8f7b9103ad03270d48587f,huwrd1ut5e,Nick_Dissertation_EX1,1,138,2020-06-13T09:56:46-07:00,1.9780972003937,3,versionC_stim.csv,READVersionC.csv,"Read Version C","Dissertation, read only version C",BLAZE,FIRE,Study1,F,45,7,Test,User,-,,Recall,Recall1,1589,FIRE,100,1112,1369,1,1,,1
5e8f7b9103ad03270d48587f,huwrd1ut5e,Nick_Dissertation_EX1,1,139,2020-06-13T09:56:51-07:00,4.9746148586273,3,versionC_stim.csv,READVersionC.csv,"Read Version C","Dissertation, read only version C",WATER,BRIDGE,Study1,B,18,82,Test,User,-,,Recall,Recall1,4581,,0,-1,-1,0,0,,1
5e8f7b9103ad03270d48587f,huwrd1ut5e,Nick_Dissertation_EX1,1,140,2020-06-13T09:56:53-07:00,2.3172540664673,3,versionC_stim.csv,READVersionC.csv,"Read Version C","Dissertation, read only version C",DROWSY,SLEEP,Study1,F,41,71,Test,User,-,,Recall,Recall1,1906,SLEEP,100,1124,1569,1,1,,1
5e8f7b9103ad03270d48587f,huwrd1ut5e,Nick_Dissertation_EX1,1,141,2020-06-13T09:56:56-07:00,3.1746990680695,3,versionC_stim.csv,READVersionC.csv,"Read Version C","Dissertation, read only version C",WAR,REVOLUTION,Study1,B,20,38,Test,User,-,,Recall,Recall1,2783,PEACE,13.333333333333,1908,2401,0,0,,1
5e8f7b9103ad03270d48587f,huwrd1ut5e,Nick_Dissertation_EX1,1,142,2020-06-13T09:56:59-07:00,2.3139729499817,3,versionC_stim.csv,READVersionC.csv,"Read Version C","Dissertation, read only version C",CHEESE,WINE,Study1,S,57,67,Test,User,-,,Recall,Recall1,1926,WINE,100,1246,1506,1,1,,1
5e8f7b9103ad03270d48587f,huwrd1ut5e,Nick_Dissertation_EX1,1,143,2020-06-13T09:57:08-07:00,9.2577838897705,3,versionC_stim.csv,READVersionC.csv,"Read Version C","Dissertation, read only version C",HAMMER,CHISEL,Study1,B,9,78,Test,User,-,,Recall,Recall1,8859,STRIKE,33.333333333333,3111,8387,0,0,,1
5e8f7b9103ad03270d48587f,huwrd1ut5e,Nick_Dissertation_EX1,1,144,2020-06-13T09:57:11-07:00,3.1272990703583,3,versionC_stim.csv,READVersionC.csv,"Read Version C","Dissertation, read only version C",BAD,DELINQUENT,Study1,B,6,25,Test,User,-,,Recall,Recall1,2736,,0,-1,-1,0,0,,1
5e8f7b9103ad03270d48587f,huwrd1ut5e,Nick_Dissertation_EX1,1,145,2020-06-13T09:57:15-07:00,4.3757560253143,3,versionC_stim.csv,READVersionC.csv,"Read Version C","Dissertation, read only version C",RACKET,BALL,Study1,F,38,27,Test,User,-,,Recall,Recall1,3984,TENNIS,0,3038,3677,0,0,,1
5e8f7b9103ad03270d48587f,huwrd1ut5e,Nick_Dissertation_EX1,1,146,2020-06-13T09:57:18-07:00,2.5994720458984,3,versionC_stim.csv,READVersionC.csv,"Read Version C","Dissertation, read only version C",COW,HERD,Study1,B,22,33,Test,User,-,,Recall,Recall1,2207,MILK,0,1554,1867,0,0,,1
5e8f7b9103ad03270d48587f,huwrd1ut5e,Nick_Dissertation_EX1,1,147,2020-06-13T09:57:23-07:00,5.0471999645233,3,versionC_stim.csv,READVersionC.csv,"Read Version C","Dissertation, read only version C",FISH,TUNA,Study1,B,25,29,Test,User,-,,Recall,Recall1,4652,CHIPS,0,3921,4256,0,0,,1
5e8f7b9103ad03270d48587f,huwrd1ut5e,Nick_Dissertation_EX1,1,148,2020-06-13T09:57:27-07:00,3.5813088417053,3,versionC_stim.csv,READVersionC.csv,"Read Version C","Dissertation, read only version C",ACCIDENT,STRONG,Study1,U,80,84,Test,User,-,,Recall,Recall1,3186,CAR,22.222222222222,2529,2645,0,0,,1
5e8f7b9103ad03270d48587f,huwrd1ut5e,Nick_Dissertation_EX1,1,149,2020-06-13T09:57:30-07:00,3.6895871162415,3,versionC_stim.csv,READVersionC.csv,"Read Version C","Dissertation, read only version C",MONEY,WAGE,Study1,B,8,65,Test,User,-,,Recall,Recall1,3293,WAGE,100,2590,2958,1,1,,1
5e8f7b9103ad03270d48587f,huwrd1ut5e,Nick_Dissertation_EX1,1,150,2020-06-13T09:57:32-07:00,1.6362199783325,3,versionC_stim.csv,READVersionC.csv,"Read Version C","Dissertation, read only version C",FLOWER,ORCHID,Study1,B,24,62,Test,User,-,,Recall,Recall1,1240,,0,-1,-1,0,0,,1
5e8f7b9103ad03270d48587f,huwrd1ut5e,Nick_Dissertation_EX1,1,151,2020-06-13T09:57:34-07:00,2.1102468967438,3,versionC_stim.csv,READVersionC.csv,"Read Version C","Dissertation, read only version C",TALK,DISCUSSION,Study1,B,21,26,Test,User,-,,Recall,Recall1,1716,,0,-1,-1,0,0,,1
5e8f7b9103ad03270d48587f,huwrd1ut5e,Nick_Dissertation_EX1,1,152,2020-06-13T09:57:39-07:00,4.6394670009613,3,versionC_stim.csv,READVersionC.csv,"Read Version C","Dissertation, read only version C",ASSIGNMENT,DUE,Study1,S,46,42,Test,User,-,,Recall,Recall1,4244,WORK,0,3649,3893,0,0,,1
5e8f7b9103ad03270d48587f,huwrd1ut5e,Nick_Dissertation_EX1,1,153,2020-06-13T09:57:44-07:00,5.2950131893158,3,versionC_stim.csv,READVersionC.csv,"Read Version C","Dissertation, read only version C",SICK,HIDE,Study1,U,84,69,Test,User,-,,Recall,Recall1,4900,ILLNESS,36.363636363636,2227,4638,0,0,,1
5e8f7b9103ad03270d48587f,huwrd1ut5e,Nick_Dissertation_EX1,1,154,2020-06-13T09:57:47-07:00,3.2614369392395,3,versionC_stim.csv,READVersionC.csv,"Read Version C","Dissertation, read only version C",CAVE,DARK,Study1,F,28,76,Test,User,-,,Recall,Recall1,2864,,0,-1,-1,0,0,,1
5e8f7b9103ad03270d48587f,huwrd1ut5e,Nick_Dissertation_EX1,1,155,2020-06-13T09:57:51-07:00,3.5712730884552,3,versionC_stim.csv,READVersionC.csv,"Read Version C","Dissertation, read only version C",HUNGRY,PARK,Study1,U,68,13,Test,User,-,,Recall,Recall1,3163,FOOD,0,1597,2044,0,0,,1
5e8f7b9103ad03270d48587f,huwrd1ut5e,Nick_Dissertation_EX1,1,156,2020-06-13T09:57:53-07:00,2.5368678569794,3,versionC_stim.csv,READVersionC.csv,"Read Version C","Dissertation, read only version C",VASE,KING,Study1,U,85,28,Test,User,-,,Recall,Recall1,2140,FLOWER,0,1233,1941,0,0,,1
5e8f7b9103ad03270d48587f,huwrd1ut5e,Nick_Dissertation_EX1,1,157,2020-06-13T09:57:58-07:00,4.1786451339722,3,versionC_stim.csv,READVersionC.csv,"Read Version C","Dissertation, read only version C",DEFINITION,MEANING,Study1,S,62,49,Test,User,-,,Recall,Recall1,3782,MEANING,100,1844,2434,1,1,,1
5e8f7b9103ad03270d48587f,huwrd1ut5e,Nick_Dissertation_EX1,1,158,2020-06-13T09:58:03-07:00,5.2621188163757,3,versionC_stim.csv,READVersionC.csv,"Read Version C","Dissertation, read only version C",LIVER,KIDNEY,Study1,S,53,81,Test,User,-,,Recall,Recall1,4864,HEART,18.181818181818,3885,4309,0,0,,1
5e8f7b9103ad03270d48587f,huwrd1ut5e,Nick_Dissertation_EX1,1,159,2020-06-13T09:58:06-07:00,2.8481199741364,3,versionC_stim.csv,READVersionC.csv,"Read Version C","Dissertation, read only version C",ATTORNEY,LAW,Study1,F,34,16,Test,User,-,,Recall,Recall1,2441,LAW,100,1487,2112,1,1,,1
5e8f7b9103ad03270d48587f,huwrd1ut5e,Nick_Dissertation_EX1,1,160,2020-06-13T09:58:09-07:00,3.3007352352142,3,versionC_stim.csv,READVersionC.csv,"Read Version C","Dissertation, read only version C",PILOT,PLANE,Study1,F,44,18,Test,User,-,,Recall,Recall1,1906,PLANE,100,1132,1563,1,1,,1
5e8f7b9103ad03270d48587f,huwrd1ut5e,Nick_Dissertation_EX1,1,161,2020-06-13T09:58:14-07:00,4.9129679203033,3,versionC_stim.csv,READVersionC.csv,"Read Version C","Dissertation, read only version C",ROUND,CIRCLE,Study1,S,65,24,Test,User,-,,Recall,Recall1,4414,BALL,20,2016,2393,0,0,,1
5e8f7b9103ad03270d48587f,huwrd1ut5e,Nick_Dissertation_EX1,1,162,2020-06-13T09:58:20-07:00,5.6607029438019,3,versionC_stim.csv,READVersionC.csv,"Read Version C","Dissertation, read only version C",SODA,POP,Study1,S,56,54,Test,User,-,,Recall,Recall1,5265,CAN,0,2049,4907,0,0,,1
5e8f7b9103ad03270d48587f,huwrd1ut5e,Nick_Dissertation_EX1,1,163,2020-06-13T09:58:21-07:00,1.8257360458374,3,versionC_stim.csv,READVersionC.csv,"Read Version C","Dissertation, read only version C",BAR,GRILL,Study1,S,52,8,Test,User,-,,Recall,Recall1,1433,,0,-1,-1,0,0,,1
5e8f7b9103ad03270d48587f,huwrd1ut5e,Nick_Dissertation_EX1,1,164,2020-06-13T09:58:23-07:00,2.0755710601807,3,versionC_stim.csv,READVersionC.csv,"Read Version C","Dissertation, read only version C",WOULD,CASH,Study1,U,83,57,Test,User,-,,Recall,Recall1,1591,,0,-1,-1,0,0,,1
5e8f7b9103ad03270d48587f,huwrd1ut5e,Nick_Dissertation_EX1,1,165,2020-06-13T09:58:26-07:00,2.6532080173492,3,versionC_stim.csv,READVersionC.csv,"Read Version C","Dissertation, read only version C",SIP,DRINK,Study1,F,27,77,Test,User,-,,Recall,Recall1,2181,DRINK,100,1155,1649,1,1,,1
5e8f7b9103ad03270d48587f,huwrd1ut5e,Nick_Dissertation_EX1,1,166,2020-06-13T09:58:30-07:00,3.6226899623871,3,versionC_stim.csv,READVersionC.csv,"Read Version C","Dissertation, read only version C",BRONZE,ARTERY,Study1,U,74,39,Test,User,-,,Recall,Recall1,3214,,0,-1,-1,0,0,,1
5e8f7b9103ad03270d48587f,huwrd1ut5e,Nick_Dissertation_EX1,1,167,2020-06-13T09:58:32-07:00,2.2748668193817,3,versionC_stim.csv,READVersionC.csv,"Read Version C","Dissertation, read only version C",CHILI,HOT,Study1,F,37,15,Test,User,-,,Recall,Recall1,1880,HOT,100,1217,1352,1,1,,1
5e8f7b9103ad03270d48587f,huwrd1ut5e,Nick_Dissertation_EX1,1,168,2020-06-13T09:58:36-07:00,3.8794941902161,3,versionC_stim.csv,READVersionC.csv,"Read Version C","Dissertation, read only version C",SITE,LOCATION,Study1,S,48,11,Test,User,-,,Recall,Recall1,3489,,0,-1,-1,0,0,,1
5e8f7b9103ad03270d48587f,huwrd1ut5e,Nick_Dissertation_EX1,1,169,2020-06-13T09:58:40-07:00,3.819876909256,3,versionC_stim.csv,READVersionC.csv,"Read Version C","Dissertation, read only version C",WASTE,DUMP,Study1,S,49,32,Test,User,-,,Recall,Recall1,3392,TRASH,0,2272,2722,0,0,,1
5e8f7b9103ad03270d48587f,huwrd1ut5e,Nick_Dissertation_EX1,1,170,2020-06-13T09:58:41-07:00,1.7019729614258,3,versionC_stim.csv,READVersionC.csv,"Read Version C","Dissertation, read only version C",DIVISION,MATH,Study1,F,33,80,Test,User,-,,Recall,Recall1,1311,,0,-1,-1,0,0,,1
5e8f7b9103ad03270d48587f,huwrd1ut5e,Nick_Dissertation_EX1,1,171,2020-06-13T09:58:49-07:00,7.8518240451813,3,versionC_stim.csv,READVersionC.csv,"Read Version C","Dissertation, read only version C",CLUTTER,PUSHER,Study1,U,66,48,Test,User,-,,Recall,Recall1,7456,,0,-1,-1,0,0,,1
5e8f7b9103ad03270d48587f,huwrd1ut5e,Nick_Dissertation_EX1,1,172,2020-06-13T09:58:57-07:00,8.1335160732269,3,versionC_stim.csv,READVersionC.csv,"Read Version C","Dissertation, read only version C",CAR,HAPPY,Study1,U,77,30,Test,User,-,,Recall,Recall1,6732,,0,-1,-1,0,0,,1
5e8f7b9103ad03270d48587f,huwrd1ut5e,Nick_Dissertation_EX1,1,173,2020-06-13T09:59:00-07:00,2.2048528194427,3,versionC_stim.csv,READVersionC.csv,"Read Version C","Dissertation, read only version C",CHILD,BABY,Study1,S,64,64,Test,User,-,,Recall,Recall1,1805,,0,-1,-1,0,0,,1
5e8f7b9103ad03270d48587f,huwrd1ut5e,Nick_Dissertation_EX1,1,174,2020-06-13T09:59:02-07:00,2.6670451164246,3,versionC_stim.csv,READVersionC.csv,"Read Version C","Dissertation, read only version C",TUCK,ALLOW,Study1,U,78,19,Test,User,-,,Recall,Recall1,2267,ROLL,44.444444444444,1452,1844,0,0,,1
5e8f7b9103ad03270d48587f,huwrd1ut5e,Nick_Dissertation_EX1,1,175,2020-06-13T09:59:14-07:00,12.069859027863,3,versionC_stim.csv,READVersionC.csv,"Read Version C","Dissertation, read only version C",,,,,,0,Instruct,-,10,"You will now be presented with a new set of word pairs. Please study each pair. Remember that your memory will be tested! When finished, press Enter to move to the next pair.",Initial_Instruct,Instruct4,11674,,,-1,-1,,,,1
5e8f7b9103ad03270d48587f,huwrd1ut5e,Nick_Dissertation_EX1,1,176,2020-06-13T09:59:17-07:00,2.335401058197,3,versionC_stim.csv,READVersionC.csv,"Read Version C","Dissertation, read only version C",STRING,NOODLE,BUFFER3,Buffer,92,95,Study,User,-,,Study/JOL,BUFFER3,1942,,,-1,-1,,,,1
5e8f7b9103ad03270d48587f,huwrd1ut5e,Nick_Dissertation_EX1,1,177,2020-06-13T09:59:18-07:00,1.1474378108978,3,versionC_stim.csv,READVersionC.csv,"Read Version C","Dissertation, read only version C",ADVENTURE,CAMP,BUFFER3,Buffer,95,93,Study,User,-,,Study/JOL,BUFFER3,837,,,-1,-1,,,,1
5e8f7b9103ad03270d48587f,huwrd1ut5e,Nick_Dissertation_EX1,1,178,2020-06-13T09:59:19-07:00,1.2427451610565,3,versionC_stim.csv,READVersionC.csv,"Read Version C","Dissertation, read only version C",FISH,SHRIMP,BUFFER3,Buffer,93,92,Study,User,-,,Study/JOL,BUFFER3,934,,,-1,-1,,,,1
5e8f7b9103ad03270d48587f,huwrd1ut5e,Nick_Dissertation_EX1,1,179,2020-06-13T09:59:21-07:00,1.4686870574951,3,versionC_stim.csv,READVersionC.csv,"Read Version C","Dissertation, read only version C",POTATO,CARROT,BUFFER3,Buffer,91,96,Study,User,-,,Study/JOL,BUFFER3,1067,,,-1,-1,,,,1
5e8f7b9103ad03270d48587f,huwrd1ut5e,Nick_Dissertation_EX1,1,180,2020-06-13T09:59:22-07:00,1.2576279640198,3,versionC_stim.csv,READVersionC.csv,"Read Version C","Dissertation, read only version C",FROZEN,ICE,BUFFER3,Buffer,94,94,Study,User,-,,Study/JOL,BUFFER3,934,,,-1,-1,,,,1
5e8f7b9103ad03270d48587f,huwrd1ut5e,Nick_Dissertation_EX1,1,181,2020-06-13T09:59:23-07:00,1.1773548126221,3,versionC_stim.csv,READVersionC.csv,"Read Version C","Dissertation, read only version C",SARDINE,FISH,Study2,F,130,113,Study,User,-,,Study/JOL,"Study Phase2",875,,,-1,-1,,,,1
5e8f7b9103ad03270d48587f,huwrd1ut5e,Nick_Dissertation_EX1,1,182,2020-06-13T09:59:24-07:00,1.2050302028656,3,versionC_stim.csv,READVersionC.csv,"Read Version C","Dissertation, read only version C",STEAK,GIVE,Study2,U,158,140,Study,User,-,,Study/JOL,"Study Phase2",898,,,-1,-1,,,,1
5e8f7b9103ad03270d48587f,huwrd1ut5e,Nick_Dissertation_EX1,1,183,2020-06-13T09:59:26-07:00,1.4474968910217,3,versionC_stim.csv,READVersionC.csv,"Read Version C","Dissertation, read only version C",SHAVE,RAZOR,Study2,S,136,133,Study,User,-,,Study/JOL,"Study Phase2",1047,,,-1,-1,,,,1
5e8f7b9103ad03270d48587f,huwrd1ut5e,Nick_Dissertation_EX1,1,184,2020-06-13T09:59:28-07:00,2.3087589740753,3,versionC_stim.csv,READVersionC.csv,"Read Version C","Dissertation, read only version C",SCAR,MAIN,Study2,U,175,132,Study,User,-,,Study/JOL,"Study Phase2",922,,,-1,-1,,,,1
5e8f7b9103ad03270d48587f,huwrd1ut5e,Nick_Dissertation_EX1,1,185,2020-06-13T09:59:30-07:00,1.8753681182861,3,versionC_stim.csv,READVersionC.csv,"Read Version C","Dissertation, read only version C",SHAKE,Shell,Study2,U,163,117,Study,User,-,,Study/JOL,"Study Phase2",1462,,,-1,-1,,,,1
5e8f7b9103ad03270d48587f,huwrd1ut5e,Nick_Dissertation_EX1,1,186,2020-06-13T09:59:31-07:00,1.1545269489288,3,versionC_stim.csv,READVersionC.csv,"Read Version C","Dissertation, read only version C",HATE,NAME,Study2,U,167,174,Study,User,-,,Study/JOL,"Study Phase2",851,,,-1,-1,,,,1
5e8f7b9103ad03270d48587f,huwrd1ut5e,Nick_Dissertation_EX1,1,187,2020-06-13T09:59:32-07:00,1.0279409885406,3,versionC_stim.csv,READVersionC.csv,"Read Version C","Dissertation, read only version C",BALLOON,POP,Study2,F,123,118,Study,User,-,,Study/JOL,"Study Phase2",725,,,-1,-1,,,,1
5e8f7b9103ad03270d48587f,huwrd1ut5e,Nick_Dissertation_EX1,1,188,2020-06-13T09:59:33-07:00,1.0753419399261,3,versionC_stim.csv,READVersionC.csv,"Read Version C","Dissertation, read only version C",GAME,CLUE,Study2,B,97,163,Study,User,-,,Study/JOL,"Study Phase2",775,,,-1,-1,,,,1
5e8f7b9103ad03270d48587f,huwrd1ut5e,Nick_Dissertation_EX1,1,189,2020-06-13T09:59:34-07:00,1.097892999649,3,versionC_stim.csv,READVersionC.csv,"Read Version C","Dissertation, read only version C",JAR,MASON,Study2,S,138,141,Study,User,-,,Study/JOL,"Study Phase2",781,,,-1,-1,,,,1
5e8f7b9103ad03270d48587f,huwrd1ut5e,Nick_Dissertation_EX1,1,190,2020-06-13T09:59:35-07:00,1.146947145462,3,versionC_stim.csv,READVersionC.csv,"Read Version C","Dissertation, read only version C",TRUTHFUL,HONEST,Study2,F,133,147,Study,User,-,,Study/JOL,"Study Phase2",834,,,-1,-1,,,,1
5e8f7b9103ad03270d48587f,huwrd1ut5e,Nick_Dissertation_EX1,1,191,2020-06-13T09:59:37-07:00,1.4443788528442,3,versionC_stim.csv,READVersionC.csv,"Read Version C","Dissertation, read only version C",Morning,TEMPERATURE,Study2,U,173,171,Study,User,-,,Study/JOL,"Study Phase2",1032,,,-1,-1,,,,1
5e8f7b9103ad03270d48587f,huwrd1ut5e,Nick_Dissertation_EX1,1,192,2020-06-13T09:59:38-07:00,1.2655971050262,3,versionC_stim.csv,READVersionC.csv,"Read Version C","Dissertation, read only version C",HEAD,SCALP,Study2,B,105,160,Study,User,-,,Study/JOL,"Study Phase2",958,,,-1,-1,,,,1
5e8f7b9103ad03270d48587f,huwrd1ut5e,Nick_Dissertation_EX1,1,193,2020-06-13T09:59:39-07:00,1.0658030509949,3,versionC_stim.csv,READVersionC.csv,"Read Version C","Dissertation, read only version C",LIE,TRUTH,Study2,S,148,161,Study,User,-,,Study/JOL,"Study Phase2",764,,,-1,-1,,,,1
5e8f7b9103ad03270d48587f,huwrd1ut5e,Nick_Dissertation_EX1,1,194,2020-06-13T09:59:40-07:00,1.0993328094482,3,versionC_stim.csv,READVersionC.csv,"Read Version C","Dissertation, read only version C",PANTHER,CAT,Study2,F,126,120,Study,User,-,,Study/JOL,"Study Phase2",796,,,-1,-1,,,,1
5e8f7b9103ad03270d48587f,huwrd1ut5e,Nick_Dissertation_EX1,1,195,2020-06-13T09:59:41-07:00,1.0524611473083,3,versionC_stim.csv,READVersionC.csv,"Read Version C","Dissertation, read only version C",PAPER,DOCUMENT,Study2,B,109,135,Study,User,-,,Study/JOL,"Study Phase2",744,,,-1,-1,,,,1
5e8f7b9103ad03270d48587f,huwrd1ut5e,Nick_Dissertation_EX1,1,196,2020-06-13T09:59:42-07:00,0.99588894844055,3,versionC_stim.csv,READVersionC.csv,"Read Version C","Dissertation, read only version C",BRACELET,WRIST,Study2,S,140,128,Study,User,-,,Study/JOL,"Study Phase2",691,,,-1,-1,,,,1
5e8f7b9103ad03270d48587f,huwrd1ut5e,Nick_Dissertation_EX1,1,197,2020-06-13T09:59:43-07:00,1.0850839614868,3,versionC_stim.csv,READVersionC.csv,"Read Version C","Dissertation, read only version C",CHILDREN,MIRROR,Study2,U,174,153,Study,User,-,,Study/JOL,"Study Phase2",774,,,-1,-1,,,,1
5e8f7b9103ad03270d48587f,huwrd1ut5e,Nick_Dissertation_EX1,1,198,2020-06-13T09:59:44-07:00,0.92327809333801,3,versionC_stim.csv,READVersionC.csv,"Read Version C","Dissertation, read only version C",NAP,SLEEP,Study2,F,134,176,Study,User,-,,Study/JOL,"Study Phase2",607,,,-1,-1,,,,1
5e8f7b9103ad03270d48587f,huwrd1ut5e,Nick_Dissertation_EX1,1,199,2020-06-13T09:59:45-07:00,0.91902995109558,3,versionC_stim.csv,READVersionC.csv,"Read Version C","Dissertation, read only version C",LOVE,AFFECTION,Study2,B,115,143,Study,User,-,,Study/JOL,"Study Phase2",614,,,-1,-1,,,,1
5e8f7b9103ad03270d48587f,huwrd1ut5e,Nick_Dissertation_EX1,1,200,2020-06-13T09:59:46-07:00,0.95931696891785,3,versionC_stim.csv,READVersionC.csv,"Read Version C","Dissertation, read only version C",TEMPER,TANTRUM,Study2,S,154,155,Study,User,-,,Study/JOL,"Study Phase2",657,,,-1,-1,,,,1
5e8f7b9103ad03270d48587f,huwrd1ut5e,Nick_Dissertation_EX1,1,201,2020-06-13T09:59:48-07:00,1.970468044281,3,versionC_stim.csv,READVersionC.csv,"Read Version C","Dissertation, read only version C",CAR,DRIVER,Study2,B,106,106,Study,User,-,,Study/JOL,"Study Phase2",624,,,-1,-1,,,,1
5e8f7b9103ad03270d48587f,huwrd1ut5e,Nick_Dissertation_EX1,1,202,2020-06-13T09:59:49-07:00,1.2374129295349,3,versionC_stim.csv,READVersionC.csv,"Read Version C","Dissertation, read only version C",FIGHT,FEUD,Study2,B,113,129,Study,User,-,,Study/JOL,"Study Phase2",933,,,-1,-1,,,,1
5e8f7b9103ad03270d48587f,huwrd1ut5e,Nick_Dissertation_EX1,1,203,2020-06-13T09:59:51-07:00,1.7182581424713,3,versionC_stim.csv,READVersionC.csv,"Read Version C","Dissertation, read only version C",FAVORITE,BEST,Study2,F,125,124,Study,User,-,,Study/JOL,"Study Phase2",1322,,,-1,-1,,,,1
5e8f7b9103ad03270d48587f,huwrd1ut5e,Nick_Dissertation_EX1,1,204,2020-06-13T09:59:52-07:00,0.95260000228882,3,versionC_stim.csv,READVersionC.csv,"Read Version C","Dissertation, read only version C",TAN,SUN,Study2,S,155,130,Study,User,-,,Study/JOL,"Study Phase2",650,,,-1,-1,,,,1
5e8f7b9103ad03270d48587f,huwrd1ut5e,Nick_Dissertation_EX1,1,205,2020-06-13T09:59:53-07:00,0.99049377441406,3,versionC_stim.csv,READVersionC.csv,"Read Version C","Dissertation, read only version C",TIE,SHOELACE,Study2,B,99,158,Study,User,-,,Study/JOL,"Study Phase2",691,,,-1,-1,,,,1
5e8f7b9103ad03270d48587f,huwrd1ut5e,Nick_Dissertation_EX1,1,206,2020-06-13T09:59:54-07:00,1.142783164978,3,versionC_stim.csv,READVersionC.csv,"Read Version C","Dissertation, read only version C",BANG,FUZZY,Study2,U,168,152,Study,User,-,,Study/JOL,"Study Phase2",834,,,-1,-1,,,,1
5e8f7b9103ad03270d48587f,huwrd1ut5e,Nick_Dissertation_EX1,1,207,2020-06-13T09:59:56-07:00,1.6621630191803,3,versionC_stim.csv,READVersionC.csv,"Read Version C","Dissertation, read only version C",HAVE,OWN,Study2,S,153,148,Study,User,-,,Study/JOL,"Study Phase2",1261,,,-1,-1,,,,1
5e8f7b9103ad03270d48587f,huwrd1ut5e,Nick_Dissertation_EX1,1,208,2020-06-13T09:59:58-07:00,1.9967529773712,3,versionC_stim.csv,READVersionC.csv,"Read Version C","Dissertation, read only version C",SMELL,INCENSE,Study2,B,110,116,Study,User,-,,Study/JOL,"Study Phase2",683,,,-1,-1,,,,1
5e8f7b9103ad03270d48587f,huwrd1ut5e,Nick_Dissertation_EX1,1,209,2020-06-13T09:59:59-07:00,1.245591878891,3,versionC_stim.csv,READVersionC.csv,"Read Version C","Dissertation, read only version C",BRAWL,FIGHT,Study2,F,135,168,Study,User,-,,Study/JOL,"Study Phase2",887,,,-1,-1,,,,1
5e8f7b9103ad03270d48587f,huwrd1ut5e,Nick_Dissertation_EX1,1,210,2020-06-13T10:00:00-07:00,0.94428396224976,3,versionC_stim.csv,READVersionC.csv,"Read Version C","Dissertation, read only version C",MYSTERY,DETECTIVE,Study2,B,100,100,Study,User,-,,Study/JOL,"Study Phase2",635,,,-1,-1,,,,1
5e8f7b9103ad03270d48587f,huwrd1ut5e,Nick_Dissertation_EX1,1,211,2020-06-13T10:00:01-07:00,0.94248700141907,3,versionC_stim.csv,READVersionC.csv,"Read Version C","Dissertation, read only version C",CARBON,ELEMENT,Study2,S,141,170,Study,User,-,,Study/JOL,"Study Phase2",640,,,-1,-1,,,,1
5e8f7b9103ad03270d48587f,huwrd1ut5e,Nick_Dissertation_EX1,1,212,2020-06-13T10:00:02-07:00,0.94803309440613,3,versionC_stim.csv,READVersionC.csv,"Read Version C","Dissertation, read only version C",EAT,DINE,Study2,B,111,122,Study,User,-,,Study/JOL,"Study Phase2",642,,,-1,-1,,,,1
5e8f7b9103ad03270d48587f,huwrd1ut5e,Nick_Dissertation_EX1,1,213,2020-06-13T10:00:03-07:00,1.0604779720306,3,versionC_stim.csv,READVersionC.csv,"Read Version C","Dissertation, read only version C",DONKEY,MULE,Study2,B,108,104,Study,User,-,,Study/JOL,"Study Phase2",752,,,-1,-1,,,,1
5e8f7b9103ad03270d48587f,huwrd1ut5e,Nick_Dissertation_EX1,1,214,2020-06-13T10:00:04-07:00,0.99848794937134,3,versionC_stim.csv,READVersionC.csv,"Read Version C","Dissertation, read only version C",TICK,FLEA,Study2,S,151,119,Study,User,-,,Study/JOL,"Study Phase2",693,,,-1,-1,,,,1
5e8f7b9103ad03270d48587f,huwrd1ut5e,Nick_Dissertation_EX1,1,215,2020-06-13T10:00:05-07:00,0.86330199241638,3,versionC_stim.csv,READVersionC.csv,"Read Version C","Dissertation, read only version C",REVENGE,EVEN,Study2,F,122,109,Study,User,-,,Study/JOL,"Study Phase2",548,,,-1,-1,,,,1
5e8f7b9103ad03270d48587f,huwrd1ut5e,Nick_Dissertation_EX1,1,216,2020-06-13T10:00:06-07:00,1.378585100174,3,versionC_stim.csv,READVersionC.csv,"Read Version C","Dissertation, read only version C",END,ADJOURN,Study2,B,101,111,Study,User,-,,Study/JOL,"Study Phase2",981,,,-1,-1,,,,1
5e8f7b9103ad03270d48587f,huwrd1ut5e,Nick_Dissertation_EX1,1,217,2020-06-13T10:00:07-07:00,1.150260925293,3,versionC_stim.csv,READVersionC.csv,"Read Version C","Dissertation, read only version C",WINDSHIELD,CAR,Study2,F,117,165,Study,User,-,,Study/JOL,"Study Phase2",842,,,-1,-1,,,,1
5e8f7b9103ad03270d48587f,huwrd1ut5e,Nick_Dissertation_EX1,1,218,2020-06-13T10:00:08-07:00,1.1270070075989,3,versionC_stim.csv,READVersionC.csv,"Read Version C","Dissertation, read only version C",STRAWBERRY,FRUIT,Study2,F,124,138,Study,User,-,,Study/JOL,"Study Phase2",817,,,-1,-1,,,,1
5e8f7b9103ad03270d48587f,huwrd1ut5e,Nick_Dissertation_EX1,1,219,2020-06-13T10:00:09-07:00,0.99376797676086,3,versionC_stim.csv,READVersionC.csv,"Read Version C","Dissertation, read only version C",SCISSORS,SHEARS,Study2,B,112,175,Study,User,-,,Study/JOL,"Study Phase2",686,,,-1,-1,,,,1
5e8f7b9103ad03270d48587f,huwrd1ut5e,Nick_Dissertation_EX1,1,220,2020-06-13T10:00:11-07:00,1.0743391513824,3,versionC_stim.csv,READVersionC.csv,"Read Version C","Dissertation, read only version C",AIRCRAFT,PLANE,Study2,F,129,157,Study,User,-,,Study/JOL,"Study Phase2",765,,,-1,-1,,,,1
5e8f7b9103ad03270d48587f,huwrd1ut5e,Nick_Dissertation_EX1,1,221,2020-06-13T10:00:13-07:00,2.4482259750366,3,versionC_stim.csv,READVersionC.csv,"Read Version C","Dissertation, read only version C",CLEAR,MOAT,Study2,U,169,144,Study,User,-,,Study/JOL,"Study Phase2",1048,,,-1,-1,,,,1
5e8f7b9103ad03270d48587f,huwrd1ut5e,Nick_Dissertation_EX1,1,222,2020-06-13T10:00:14-07:00,0.92976307868958,3,versionC_stim.csv,READVersionC.csv,"Read Version C","Dissertation, read only version C",SEATBELT,SAFETY,Study2,S,147,167,Study,User,-,,Study/JOL,"Study Phase2",589,,,-1,-1,,,,1
5e8f7b9103ad03270d48587f,huwrd1ut5e,Nick_Dissertation_EX1,1,223,2020-06-13T10:00:15-07:00,1.3695158958435,3,versionC_stim.csv,READVersionC.csv,"Read Version C","Dissertation, read only version C",REEL,ROD,Study2,S,150,169,Study,User,-,,Study/JOL,"Study Phase2",972,,,-1,-1,,,,1
5e8f7b9103ad03270d48587f,huwrd1ut5e,Nick_Dissertation_EX1,1,224,2020-06-13T10:00:16-07:00,0.95087695121765,3,versionC_stim.csv,READVersionC.csv,"Read Version C","Dissertation, read only version C",PENGUIN,BIRD,Study2,F,119,107,Study,User,-,,Study/JOL,"Study Phase2",649,,,-1,-1,,,,1
5e8f7b9103ad03270d48587f,huwrd1ut5e,Nick_Dissertation_EX1,1,225,2020-06-13T10:00:18-07:00,1.3967430591583,3,versionC_stim.csv,READVersionC.csv,"Read Version C","Dissertation, read only version C",LONG,EXTENSION,Study2,B,96,112,Study,User,-,,Study/JOL,"Study Phase2",999,,,-1,-1,,,,1
5e8f7b9103ad03270d48587f,huwrd1ut5e,Nick_Dissertation_EX1,1,226,2020-06-13T10:00:19-07:00,1.4974429607391,3,versionC_stim.csv,READVersionC.csv,"Read Version C","Dissertation, read only version C",TRASH,LITTER,Study2,B,103,102,Study,User,-,,Study/JOL,"Study Phase2",1094,,,-1,-1,,,,1
5e8f7b9103ad03270d48587f,huwrd1ut5e,Nick_Dissertation_EX1,1,227,2020-06-13T10:00:20-07:00,0.97566103935242,3,versionC_stim.csv,READVersionC.csv,"Read Version C","Dissertation, read only version C",WAX,CANDLE,Study2,S,139,99,Study,User,-,,Study/JOL,"Study Phase2",668,,,-1,-1,,,,1
5e8f7b9103ad03270d48587f,huwrd1ut5e,Nick_Dissertation_EX1,1,228,2020-06-13T10:00:21-07:00,0.95277190208435,3,versionC_stim.csv,READVersionC.csv,"Read Version C","Dissertation, read only version C",CLOTH,STRETCH,Study2,U,157,127,Study,User,-,,Study/JOL,"Study Phase2",652,,,-1,-1,,,,1
5e8f7b9103ad03270d48587f,huwrd1ut5e,Nick_Dissertation_EX1,1,229,2020-06-13T10:00:22-07:00,0.93070006370544,3,versionC_stim.csv,READVersionC.csv,"Read Version C","Dissertation, read only version C",CHARM,VEHICLE,Study2,U,160,156,Study,User,-,,Study/JOL,"Study Phase2",626,,,-1,-1,,,,1
5e8f7b9103ad03270d48587f,huwrd1ut5e,Nick_Dissertation_EX1,1,230,2020-06-13T10:00:23-07:00,1.2182500362396,3,versionC_stim.csv,READVersionC.csv,"Read Version C","Dissertation, read only version C",WET,DRY,Study2,S,146,137,Study,User,-,,Study/JOL,"Study Phase2",915,,,-1,-1,,,,1
5e8f7b9103ad03270d48587f,huwrd1ut5e,Nick_Dissertation_EX1,1,231,2020-06-13T10:00:24-07:00,1.0845510959625,3,versionC_stim.csv,READVersionC.csv,"Read Version C","Dissertation, read only version C",TOIL,LEASE,Study2,U,170,173,Study,User,-,,Study/JOL,"Study Phase2",786,,,-1,-1,,,,1
5e8f7b9103ad03270d48587f,huwrd1ut5e,Nick_Dissertation_EX1,1,232,2020-06-13T10:00:26-07:00,1.9483478069305,3,versionC_stim.csv,READVersionC.csv,"Read Version C","Dissertation, read only version C",NOISE,LOUD,Study2,S,152,159,Study,User,-,,Study/JOL,"Study Phase2",646,,,-1,-1,,,,1
5e8f7b9103ad03270d48587f,huwrd1ut5e,Nick_Dissertation_EX1,1,233,2020-06-13T10:00:27-07:00,0.96655297279358,3,versionC_stim.csv,READVersionC.csv,"Read Version C","Dissertation, read only version C",LONELY,ALONE,Study2,S,145,101,Study,User,-,,Study/JOL,"Study Phase2",570,,,-1,-1,,,,1
5e8f7b9103ad03270d48587f,huwrd1ut5e,Nick_Dissertation_EX1,1,234,2020-06-13T10:00:28-07:00,1.0674431324005,3,versionC_stim.csv,READVersionC.csv,"Read Version C","Dissertation, read only version C",FLIP,TURN,Study2,F,116,162,Study,User,-,,Study/JOL,"Study Phase2",756,,,-1,-1,,,,1
5e8f7b9103ad03270d48587f,huwrd1ut5e,Nick_Dissertation_EX1,1,235,2020-06-13T10:00:29-07:00,0.87009596824646,3,versionC_stim.csv,READVersionC.csv,"Read Version C","Dissertation, read only version C",ABLE,CRACKLE,Study2,U,162,149,Study,User,-,,Study/JOL,"Study Phase2",559,,,-1,-1,,,,1
5e8f7b9103ad03270d48587f,huwrd1ut5e,Nick_Dissertation_EX1,1,236,2020-06-13T10:00:30-07:00,1.0607199668884,3,versionC_stim.csv,READVersionC.csv,"Read Version C","Dissertation, read only version C",PLANT,CACTUS,Study2,B,98,126,Study,User,-,,Study/JOL,"Study Phase2",747,,,-1,-1,,,,1
5e8f7b9103ad03270d48587f,huwrd1ut5e,Nick_Dissertation_EX1,1,237,2020-06-13T10:00:31-07:00,1.03457903862,3,versionC_stim.csv,READVersionC.csv,"Read Version C","Dissertation, read only version C",DOG,FURRY,Study2,B,102,105,Study,User,-,,Study/JOL,"Study Phase2",732,,,-1,-1,,,,1
5e8f7b9103ad03270d48587f,huwrd1ut5e,Nick_Dissertation_EX1,1,238,2020-06-13T10:00:32-07:00,1.0688440799713,3,versionC_stim.csv,READVersionC.csv,"Read Version C","Dissertation, read only version C",THIMBLE,THREAD,Study2,F,121,146,Study,User,-,,Study/JOL,"Study Phase2",756,,,-1,-1,,,,1
5e8f7b9103ad03270d48587f,huwrd1ut5e,Nick_Dissertation_EX1,1,239,2020-06-13T10:00:33-07:00,0.83188796043396,3,versionC_stim.csv,READVersionC.csv,"Read Version C","Dissertation, read only version C",CLOTHES,CAKE,Study2,U,166,114,Study,User,-,,Study/JOL,"Study Phase2",526,,,-1,-1,,,,1
5e8f7b9103ad03270d48587f,huwrd1ut5e,Nick_Dissertation_EX1,1,240,2020-06-13T10:00:34-07:00,0.92263388633728,3,versionC_stim.csv,READVersionC.csv,"Read Version C","Dissertation, read only version C",COFFIN,DEAD,Study2,F,128,108,Study,User,-,,Study/JOL,"Study Phase2",623,,,-1,-1,,,,1
5e8f7b9103ad03270d48587f,huwrd1ut5e,Nick_Dissertation_EX1,1,241,2020-06-13T10:00:35-07:00,0.8597891330719,3,versionC_stim.csv,READVersionC.csv,"Read Version C","Dissertation, read only version C",OBTAIN,MEAT,Study2,U,161,150,Study,User,-,,Study/JOL,"Study Phase2",559,,,-1,-1,,,,1
5e8f7b9103ad03270d48587f,huwrd1ut5e,Nick_Dissertation_EX1,1,242,2020-06-13T10:00:36-07:00,0.8777768611908,3,versionC_stim.csv,READVersionC.csv,"Read Version C","Dissertation, read only version C",ELECTION,MAZE,Study2,U,159,142,Study,User,-,,Study/JOL,"Study Phase2",576,,,-1,-1,,,,1
5e8f7b9103ad03270d48587f,huwrd1ut5e,Nick_Dissertation_EX1,1,243,2020-06-13T10:00:37-07:00,0.8627290725708,3,versionC_stim.csv,READVersionC.csv,"Read Version C","Dissertation, read only version C",COMMUNICATION,PHONE,Study2,S,149,123,Study,User,-,,Study/JOL,"Study Phase2",559,,,-1,-1,,,,1
5e8f7b9103ad03270d48587f,huwrd1ut5e,Nick_Dissertation_EX1,1,244,2020-06-13T10:00:38-07:00,1.0066471099854,3,versionC_stim.csv,READVersionC.csv,"Read Version C","Dissertation, read only version C",OUNCE,BOTH,Study2,U,172,172,Study,User,-,,Study/JOL,"Study Phase2",704,,,-1,-1,,,,1
5e8f7b9103ad03270d48587f,huwrd1ut5e,Nick_Dissertation_EX1,1,245,2020-06-13T10:00:38-07:00,0.82363796234131,3,versionC_stim.csv,READVersionC.csv,"Read Version C","Dissertation, read only version C",DRINK,WATER,Study2,S,143,166,Study,User,-,,Study/JOL,"Study Phase2",525,,,-1,-1,,,,1
5e8f7b9103ad03270d48587f,huwrd1ut5e,Nick_Dissertation_EX1,1,246,2020-06-13T10:00:39-07:00,0.85363793373108,3,versionC_stim.csv,READVersionC.csv,"Read Version C","Dissertation, read only version C",FICTION,LISTEN,Study2,U,164,136,Study,User,-,,Study/JOL,"Study Phase2",541,,,-1,-1,,,,1
5e8f7b9103ad03270d48587f,huwrd1ut5e,Nick_Dissertation_EX1,1,247,2020-06-13T10:00:40-07:00,0.88001990318298,3,versionC_stim.csv,READVersionC.csv,"Read Version C","Dissertation, read only version C",JOKE,KEYS,Study2,U,165,103,Study,User,-,,Study/JOL,"Study Phase2",577,,,-1,-1,,,,1
5e8f7b9103ad03270d48587f,huwrd1ut5e,Nick_Dissertation_EX1,1,248,2020-06-13T10:00:41-07:00,0.94833111763,3,versionC_stim.csv,READVersionC.csv,"Read Version C","Dissertation, read only version C",ACTRESS,STAR,Study2,F,120,98,Study,User,-,,Study/JOL,"Study Phase2",642,,,-1,-1,,,,1
5e8f7b9103ad03270d48587f,huwrd1ut5e,Nick_Dissertation_EX1,1,249,2020-06-13T10:00:42-07:00,0.96588706970215,3,versionC_stim.csv,READVersionC.csv,"Read Version C","Dissertation, read only version C",BREAKABLE,GLASS,Study2,F,127,97,Study,User,-,,Study/JOL,"Study Phase2",655,,,-1,-1,,,,1
5e8f7b9103ad03270d48587f,huwrd1ut5e,Nick_Dissertation_EX1,1,250,2020-06-13T10:00:43-07:00,0.81197190284729,3,versionC_stim.csv,READVersionC.csv,"Read Version C","Dissertation, read only version C",LEAGUE,BASEBALL,Study2,F,131,139,Study,User,-,,Study/JOL,"Study Phase2",503,,,-1,-1,,,,1
5e8f7b9103ad03270d48587f,huwrd1ut5e,Nick_Dissertation_EX1,1,251,2020-06-13T10:00:44-07:00,0.82437801361084,3,versionC_stim.csv,READVersionC.csv,"Read Version C","Dissertation, read only version C",BANKER,MONEY,Study2,F,132,125,Study,User,-,,Study/JOL,"Study Phase2",511,,,-1,-1,,,,1
5e8f7b9103ad03270d48587f,huwrd1ut5e,Nick_Dissertation_EX1,1,252,2020-06-13T10:00:45-07:00,0.86667990684509,3,versionC_stim.csv,READVersionC.csv,"Read Version C","Dissertation, read only version C",RED,CHERRY,Study2,B,104,134,Study,User,-,,Study/JOL,"Study Phase2",538,,,-1,-1,,,,1
5e8f7b9103ad03270d48587f,huwrd1ut5e,Nick_Dissertation_EX1,1,253,2020-06-13T10:00:46-07:00,0.875324010849,3,versionC_stim.csv,READVersionC.csv,"Read Version C","Dissertation, read only version C",MAROON,JUSTICE,Study2,U,156,121,Study,User,-,,Study/JOL,"Study Phase2",566,,,-1,-1,,,,1
5e8f7b9103ad03270d48587f,huwrd1ut5e,Nick_Dissertation_EX1,1,254,2020-06-13T10:00:46-07:00,0.84213399887085,3,versionC_stim.csv,READVersionC.csv,"Read Version C","Dissertation, read only version C",COLD,CHILL,Study2,B,114,131,Study,User,-,,Study/JOL,"Study Phase2",527,,,-1,-1,,,,1
5e8f7b9103ad03270d48587f,huwrd1ut5e,Nick_Dissertation_EX1,1,255,2020-06-13T10:00:49-07:00,2.1769931316376,3,versionC_stim.csv,READVersionC.csv,"Read Version C","Dissertation, read only version C",EQUAL,RIGHTS,Study2,S,137,110,Study,User,-,,Study/JOL,"Study Phase2",1768,,,-1,-1,,,,1
5e8f7b9103ad03270d48587f,huwrd1ut5e,Nick_Dissertation_EX1,1,256,2020-06-13T10:00:49-07:00,0.87475800514221,3,versionC_stim.csv,READVersionC.csv,"Read Version C","Dissertation, read only version C",VILLAIN,BAD,Study2,F,118,151,Study,User,-,,Study/JOL,"Study Phase2",559,,,-1,-1,,,,1
5e8f7b9103ad03270d48587f,huwrd1ut5e,Nick_Dissertation_EX1,1,257,2020-06-13T10:00:50-07:00,1.0201909542084,3,versionC_stim.csv,READVersionC.csv,"Read Version C","Dissertation, read only version C",AWAY,GONE,Study2,S,142,164,Study,User,-,,Study/JOL,"Study Phase2",708,,,-1,-1,,,,1
5e8f7b9103ad03270d48587f,huwrd1ut5e,Nick_Dissertation_EX1,1,258,2020-06-13T10:00:52-07:00,1.9099469184875,3,versionC_stim.csv,READVersionC.csv,"Read Version C","Dissertation, read only version C",GROUND,EARTH,Study2,S,144,115,Study,User,-,,Study/JOL,"Study Phase2",547,,,-1,-1,,,,1
5e8f7b9103ad03270d48587f,huwrd1ut5e,Nick_Dissertation_EX1,1,259,2020-06-13T10:00:53-07:00,0.89024305343628,3,versionC_stim.csv,READVersionC.csv,"Read Version C","Dissertation, read only version C",CUT,CHOP,Study2,B,107,145,Study,User,-,,Study/JOL,"Study Phase2",579,,,-1,-1,,,,1
5e8f7b9103ad03270d48587f,huwrd1ut5e,Nick_Dissertation_EX1,1,260,2020-06-13T10:00:54-07:00,0.91507697105408,3,versionC_stim.csv,READVersionC.csv,"Read Version C","Dissertation, read only version C",SIGN,LOAN,Study2,U,171,154,Study,User,-,,Study/JOL,"Study Phase2",609,,,-1,-1,,,,1
5e8f7b9103ad03270d48587f,huwrd1ut5e,Nick_Dissertation_EX1,1,261,2020-06-13T10:00:55-07:00,0.86423707008362,3,versionC_stim.csv,READVersionC.csv,"Read Version C","Dissertation, read only version C",YEAR,MONTH,BUFFER4,Buffer,177,179,Study,User,-,,Study/JOL,BUFFER4,554,,,-1,-1,,,,1
5e8f7b9103ad03270d48587f,huwrd1ut5e,Nick_Dissertation_EX1,1,262,2020-06-13T10:00:56-07:00,0.96961307525635,3,versionC_stim.csv,READVersionC.csv,"Read Version C","Dissertation, read only version C",SHED,TOOL,BUFFER4,Buffer,178,181,Study,User,-,,Study/JOL,BUFFER4,627,,,-1,-1,,,,1
5e8f7b9103ad03270d48587f,huwrd1ut5e,Nick_Dissertation_EX1,1,263,2020-06-13T10:00:57-07:00,0.96234488487244,3,versionC_stim.csv,READVersionC.csv,"Read Version C","Dissertation, read only version C",WEAKS,DAYS,BUFFER4,Buffer,176,180,Study,User,-,,Study/JOL,BUFFER4,632,,,-1,-1,,,,1
5e8f7b9103ad03270d48587f,huwrd1ut5e,Nick_Dissertation_EX1,1,264,2020-06-13T10:00:58-07:00,1.2496340274811,3,versionC_stim.csv,READVersionC.csv,"Read Version C","Dissertation, read only version C",SPOOKY,OCTOBER,BUFFER4,Buffer,180,178,Study,User,-,,Study/JOL,BUFFER4,940,,,-1,-1,,,,1
5e8f7b9103ad03270d48587f,huwrd1ut5e,Nick_Dissertation_EX1,1,265,2020-06-13T10:00:59-07:00,0.85958409309387,3,versionC_stim.csv,READVersionC.csv,"Read Version C","Dissertation, read only version C",MARCH,SPRING,BUFFER4,Buffer,179,177,Study,User,-,,Study/JOL,BUFFER4,547,,,-1,-1,,,,1
5e8f7b9103ad03270d48587f,huwrd1ut5e,Nick_Dissertation_EX1,1,266,2020-06-13T10:01:01-07:00,1.8099298477173,3,versionC_stim.csv,READVersionC.csv,"Read Version C","Dissertation, read only version C",,,,,,0,Instruct,User,-,"You have completed this section. Please press Enter.",Filler_Instruction,Instruct5,1393,,,-1,-1,,,,1
5e8f7b9103ad03270d48587f,huwrd1ut5e,Nick_Dissertation_EX1,1,267,2020-06-13T10:03:01-07:00,120.41884708405,3,versionC_stim.csv,READVersionC.csv,"Read Version C","Dissertation, read only version C",,,,,,0,FreeRecall,120,120,"Please list the 50 US states in reverse alphabetical order (z - a). The task will automatically advance to the next screen after two minutes.",,Filler2,120002,Texas,0,8389,9536,0,0,,0.988
5e8f7b9103ad03270d48587f,huwrd1ut5e,Nick_Dissertation_EX1,1,268,2020-06-13T10:03:14-07:00,12.384762048721,3,versionC_stim.csv,READVersionC.csv,"Read Version C","Dissertation, read only version C",,,,,,0,Instruct,-,10,"You will now be presented with the first word from each of the previously studied item pairs. Please type the missing word. If you do not know the word, you may guess or press Enter to skip forward to the next pair.",,Instruct6,11988,,,-1,-1,,,,1
5e8f7b9103ad03270d48587f,huwrd1ut5e,Nick_Dissertation_EX1,1,269,2020-06-13T10:03:19-07:00,5.050815820694,3,versionC_stim.csv,READVersionC.csv,"Read Version C","Dissertation, read only version C",NAP,SLEEP,Study2,F,134,176,Test,User,-,,Recall,Recall2,4643,SLEEP,100,1215,4104,1,1,,1
5e8f7b9103ad03270d48587f,huwrd1ut5e,Nick_Dissertation_EX1,1,270,2020-06-13T10:03:21-07:00,2.1683940887451,3,versionC_stim.csv,READVersionC.csv,"Read Version C","Dissertation, read only version C",STRAWBERRY,FRUIT,Study2,F,124,138,Test,User,-,,Recall,Recall2,1772,FRUIT,100,1053,1489,1,1,,1
5e8f7b9103ad03270d48587f,huwrd1ut5e,Nick_Dissertation_EX1,1,271,2020-06-13T10:03:24-07:00,3.2972650527954,3,versionC_stim.csv,READVersionC.csv,"Read Version C","Dissertation, read only version C",JAR,MASON,Study2,S,138,141,Test,User,-,,Recall,Recall2,2895,MASON,100,1467,2539,1,1,,1
5e8f7b9103ad03270d48587f,huwrd1ut5e,Nick_Dissertation_EX1,1,272,2020-06-13T10:03:35-07:00,10.855499982834,3,versionC_stim.csv,READVersionC.csv,"Read Version C","Dissertation, read only version C",GAME,CLUE,Study2,B,97,163,Test,User,-,,Recall,Recall2,10422,BALL,25,6635,10103,0,0,,1
5e8f7b9103ad03270d48587f,huwrd1ut5e,Nick_Dissertation_EX1,1,273,2020-06-13T10:03:38-07:00,3.4319539070129,3,versionC_stim.csv,READVersionC.csv,"Read Version C","Dissertation, read only version C",MAROON,JUSTICE,Study2,U,156,121,Test,User,-,,Recall,Recall2,3034,ISLAND,15.384615384615,2353,2792,0,0,,1
5e8f7b9103ad03270d48587f,huwrd1ut5e,Nick_Dissertation_EX1,1,274,2020-06-13T10:03:43-07:00,4.2503621578217,3,versionC_stim.csv,READVersionC.csv,"Read Version C","Dissertation, read only version C",SMELL,INCENSE,Study2,B,110,116,Test,User,-,,Recall,Recall2,3847,TASTE,33.333333333333,3078,3384,0,0,,1
5e8f7b9103ad03270d48587f,huwrd1ut5e,Nick_Dissertation_EX1,1,275,2020-06-13T10:03:45-07:00,1.8508579730988,3,versionC_stim.csv,READVersionC.csv,"Read Version C","Dissertation, read only version C",CHARM,VEHICLE,Study2,U,160,156,Test,User,-,,Recall,Recall2,1440,,0,-1,-1,0,0,,1
5e8f7b9103ad03270d48587f,huwrd1ut5e,Nick_Dissertation_EX1,1,276,2020-06-13T10:03:47-07:00,2.6032748222351,3,versionC_stim.csv,READVersionC.csv,"Read Version C","Dissertation, read only version C",CARBON,ELEMENT,Study2,S,141,170,Test,User,-,,Recall,Recall2,2201,ELEMENT,100,1351,1927,1,1,,1
5e8f7b9103ad03270d48587f,huwrd1ut5e,Nick_Dissertation_EX1,1,277,2020-06-13T10:03:49-07:00,2.0757241249084,3,versionC_stim.csv,READVersionC.csv,"Read Version C","Dissertation, read only version C",SARDINE,FISH,Study2,F,130,113,Test,User,-,,Recall,Recall2,1674,FISH,100,1119,1357,1,1,,1
5e8f7b9103ad03270d48587f,huwrd1ut5e,Nick_Dissertation_EX1,1,278,2020-06-13T10:03:54-07:00,4.4150528907776,3,versionC_stim.csv,READVersionC.csv,"Read Version C","Dissertation, read only version C",SHAVE,RAZOR,Study2,S,136,133,Test,User,-,,Recall,Recall2,4000,RAZOR,100,2900,3673,1,1,,1
5e8f7b9103ad03270d48587f,huwrd1ut5e,Nick_Dissertation_EX1,1,279,2020-06-13T10:03:57-07:00,3.7979860305786,3,versionC_stim.csv,READVersionC.csv,"Read Version C","Dissertation, read only version C",CLOTH,STRETCH,Study2,U,157,127,Test,User,-,,Recall,Recall2,3392,"STRETCH ",100,1623,2916,1,1,,1
5e8f7b9103ad03270d48587f,huwrd1ut5e,Nick_Dissertation_EX1,1,280,2020-06-13T10:04:02-07:00,4.5701351165771,3,versionC_stim.csv,READVersionC.csv,"Read Version C","Dissertation, read only version C",LONG,EXTENSION,Study2,B,96,112,Test,User,-,,Recall,Recall2,4164,,0,-1,-1,0,0,,1
5e8f7b9103ad03270d48587f,huwrd1ut5e,Nick_Dissertation_EX1,1,281,2020-06-13T10:04:13-07:00,10.592053890228,3,versionC_stim.csv,READVersionC.csv,"Read Version C","Dissertation, read only version C",EQUAL,RIGHTS,Study2,S,137,110,Test,User,-,,Recall,Recall2,9146,,0,-1,-1,0,0,,1
5e8f7b9103ad03270d48587f,huwrd1ut5e,Nick_Dissertation_EX1,1,282,2020-06-13T10:04:19-07:00,6.2754771709442,3,versionC_stim.csv,READVersionC.csv,"Read Version C","Dissertation, read only version C",REVENGE,EVEN,Study2,F,122,109,Test,User,-,,Recall,Recall2,5782,HINIUR,20,5034,5607,0,0,,1
5e8f7b9103ad03270d48587f,huwrd1ut5e,Nick_Dissertation_EX1,1,283,2020-06-13T10:04:25-07:00,5.7153768539429,3,versionC_stim.csv,READVersionC.csv,"Read Version C","Dissertation, read only version C",HEAD,SCALP,Study2,B,105,160,Test,User,-,,Recall,Recall2,5283,,0,-1,-1,0,0,,1
5e8f7b9103ad03270d48587f,huwrd1ut5e,Nick_Dissertation_EX1,1,284,2020-06-13T10:04:28-07:00,2.9393930435181,3,versionC_stim.csv,READVersionC.csv,"Read Version C","Dissertation, read only version C",SEATBELT,SAFETY,Study2,S,147,167,Test,User,-,,Recall,Recall2,2536,SAFETY,100,1215,2004,1,1,,1
5e8f7b9103ad03270d48587f,huwrd1ut5e,Nick_Dissertation_EX1,1,285,2020-06-13T10:04:34-07:00,6.0899879932404,3,versionC_stim.csv,READVersionC.csv,"Read Version C","Dissertation, read only version C",END,ADJOURN,Study2,B,101,111,Test,User,-,,Recall,Recall2,5660,"FINISH ",15.384615384615,3357,4837,0,0,,1
5e8f7b9103ad03270d48587f,huwrd1ut5e,Nick_Dissertation_EX1,1,286,2020-06-13T10:04:35-07:00,1.6025290489197,3,versionC_stim.csv,READVersionC.csv,"Read Version C","Dissertation, read only version C",BREAKABLE,GLASS,Study2,F,127,97,Test,User,-,,Recall,Recall2,1182,,0,-1,-1,0,0,,1
5e8f7b9103ad03270d48587f,huwrd1ut5e,Nick_Dissertation_EX1,1,287,2020-06-13T10:04:39-07:00,3.3279728889465,3,versionC_stim.csv,READVersionC.csv,"Read Version C","Dissertation, read only version C",FICTION,LISTEN,Study2,U,164,136,Test,User,-,,Recall,Recall2,2917,FACT,20,2202,2427,0,0,,1
5e8f7b9103ad03270d48587f,huwrd1ut5e,Nick_Dissertation_EX1,1,288,2020-06-13T10:04:41-07:00,1.9731931686401,3,versionC_stim.csv,READVersionC.csv,"Read Version C","Dissertation, read only version C",BRACELET,WRIST,Study2,S,140,128,Test,User,-,,Recall,Recall2,1567,,0,-1,-1,0,0,,1
5e8f7b9103ad03270d48587f,huwrd1ut5e,Nick_Dissertation_EX1,1,289,2020-06-13T10:04:43-07:00,2.6648809909821,3,versionC_stim.csv,READVersionC.csv,"Read Version C","Dissertation, read only version C",GROUND,EARTH,Study2,S,144,115,Test,User,-,,Recall,Recall2,2264,EARTH,100,1145,1778,1,1,,1
5e8f7b9103ad03270d48587f,huwrd1ut5e,Nick_Dissertation_EX1,1,290,2020-06-13T10:04:47-07:00,3.7273409366608,3,versionC_stim.csv,READVersionC.csv,"Read Version C","Dissertation, read only version C",REEL,ROD,Study2,S,150,169,Test,User,-,,Recall,Recall2,3318,ROD,100,1156,3035,1,1,,1
5e8f7b9103ad03270d48587f,huwrd1ut5e,Nick_Dissertation_EX1,1,291,2020-06-13T10:04:55-07:00,7.9759738445282,3,versionC_stim.csv,READVersionC.csv,"Read Version C","Dissertation, read only version C",Morning,TEMPERATURE,Study2,U,173,171,Test,User,-,,Recall,Recall2,7573,TEMPERATURE,100,2507,7176,1,1,,1
5e8f7b9103ad03270d48587f,huwrd1ut5e,Nick_Dissertation_EX1,1,292,2020-06-13T10:04:58-07:00,3.1848661899567,3,versionC_stim.csv,READVersionC.csv,"Read Version C","Dissertation, read only version C",LIE,TRUTH,Study2,S,148,161,Test,User,-,,Recall,Recall2,2774,TRUTH,100,1783,2397,1,1,,1
5e8f7b9103ad03270d48587f,huwrd1ut5e,Nick_Dissertation_EX1,1,293,2020-06-13T10:05:02-07:00,3.533488035202,3,versionC_stim.csv,READVersionC.csv,"Read Version C","Dissertation, read only version C",FLIP,TURN,Study2,F,116,162,Test,User,-,,Recall,Recall2,3128,COIN,25,2432,2788,0,0,,1
5e8f7b9103ad03270d48587f,huwrd1ut5e,Nick_Dissertation_EX1,1,294,2020-06-13T10:05:03-07:00,1.7416019439697,3,versionC_stim.csv,READVersionC.csv,"Read Version C","Dissertation, read only version C",PAPER,DOCUMENT,Study2,B,109,135,Test,User,-,,Recall,Recall2,1320,,0,-1,-1,0,0,,1
5e8f7b9103ad03270d48587f,huwrd1ut5e,Nick_Dissertation_EX1,1,295,2020-06-13T10:05:07-07:00,3.2600870132446,3,versionC_stim.csv,READVersionC.csv,"Read Version C","Dissertation, read only version C",PENGUIN,BIRD,Study2,F,119,107,Test,User,-,,Recall,Recall2,2826,BIRD,100,2186,2498,1,1,,1
5e8f7b9103ad03270d48587f,huwrd1ut5e,Nick_Dissertation_EX1,1,296,2020-06-13T10:05:08-07:00,1.8687028884888,3,versionC_stim.csv,READVersionC.csv,"Read Version C","Dissertation, read only version C",SIGN,LOAN,Study2,U,171,154,Test,User,-,,Recall,Recall2,1447,,0,-1,-1,0,0,,1
5e8f7b9103ad03270d48587f,huwrd1ut5e,Nick_Dissertation_EX1,1,297,2020-06-13T10:05:13-07:00,4.9154410362244,3,versionC_stim.csv,READVersionC.csv,"Read Version C","Dissertation, read only version C",NOISE,LOUD,Study2,S,152,159,Test,User,-,,Recall,Recall2,4512,QUIET,22.222222222222,3777,4172,0,0,,1
5e8f7b9103ad03270d48587f,huwrd1ut5e,Nick_Dissertation_EX1,1,298,2020-06-13T10:05:18-07:00,4.1238889694214,3,versionC_stim.csv,READVersionC.csv,"Read Version C","Dissertation, read only version C",CLEAR,MOAT,Study2,U,169,144,Test,User,-,,Recall,Recall2,3704,,0,-1,-1,0,0,,1
5e8f7b9103ad03270d48587f,huwrd1ut5e,Nick_Dissertation_EX1,1,299,2020-06-13T10:05:22-07:00,4.3322041034698,3,versionC_stim.csv,READVersionC.csv,"Read Version C","Dissertation, read only version C",COLD,CHILL,Study2,B,114,131,Test,User,-,,Recall,Recall2,3927,CHILLI,90.909090909091,2614,3182,0,1,,1
5e8f7b9103ad03270d48587f,huwrd1ut5e,Nick_Dissertation_EX1,1,300,2020-06-13T10:05:28-07:00,5.9173839092255,3,versionC_stim.csv,READVersionC.csv,"Read Version C","Dissertation, read only version C",CUT,CHOP,Study2,B,107,145,Test,User,-,,Recall,Recall2,5512,,0,-1,-1,0,0,,1
5e8f7b9103ad03270d48587f,huwrd1ut5e,Nick_Dissertation_EX1,1,301,2020-06-13T10:05:31-07:00,2.9788451194763,3,versionC_stim.csv,READVersionC.csv,"Read Version C","Dissertation, read only version C",EAT,DINE,Study2,B,111,122,Test,User,-,,Recall,Recall2,2526,,0,-1,-1,0,0,,1
5e8f7b9103ad03270d48587f,huwrd1ut5e,Nick_Dissertation_EX1,1,302,2020-06-13T10:05:34-07:00,2.8466649055481,3,versionC_stim.csv,READVersionC.csv,"Read Version C","Dissertation, read only version C",BALLOON,POP,Study2,F,123,118,Test,User,-,,Recall,Recall2,2442,POP,100,1145,1999,1,1,,1
5e8f7b9103ad03270d48587f,huwrd1ut5e,Nick_Dissertation_EX1,1,303,2020-06-13T10:05:38-07:00,4.8005909919739,3,versionC_stim.csv,READVersionC.csv,"Read Version C","Dissertation, read only version C",TIE,SHOELACE,Study2,B,99,158,Test,User,-,,Recall,Recall2,4391,BOW,18.181818181818,3693,3835,0,0,,1
5e8f7b9103ad03270d48587f,huwrd1ut5e,Nick_Dissertation_EX1,1,304,2020-06-13T10:05:42-07:00,3.9581398963928,3,versionC_stim.csv,READVersionC.csv,"Read Version C","Dissertation, read only version C",TEMPER,TANTRUM,Study2,S,154,155,Test,User,-,,Recall,Recall2,3540,TANTRUM,100,1324,2693,1,1,,1
5e8f7b9103ad03270d48587f,huwrd1ut5e,Nick_Dissertation_EX1,1,305,2020-06-13T10:05:45-07:00,2.9006881713867,3,versionC_stim.csv,READVersionC.csv,"Read Version C","Dissertation, read only version C",AWAY,GONE,Study2,S,142,164,Test,User,-,,Recall,Recall2,2498,GONE,100,1863,2167,1,1,,1
5e8f7b9103ad03270d48587f,huwrd1ut5e,Nick_Dissertation_EX1,1,306,2020-06-13T10:05:49-07:00,3.2474818229675,3,versionC_stim.csv,READVersionC.csv,"Read Version C","Dissertation, read only version C",SCAR,MAIN,Study2,U,175,132,Test,User,-,,Recall,Recall2,2828,,0,-1,-1,0,0,,1
5e8f7b9103ad03270d48587f,huwrd1ut5e,Nick_Dissertation_EX1,1,307,2020-06-13T10:05:53-07:00,4.8189651966095,3,versionC_stim.csv,READVersionC.csv,"Read Version C","Dissertation, read only version C",ELECTION,MAZE,Study2,U,159,142,Test,User,-,,Recall,Recall2,4399,,0,-1,-1,0,0,,1
5e8f7b9103ad03270d48587f,huwrd1ut5e,Nick_Dissertation_EX1,1,308,2020-06-13T10:06:00-07:00,7.1082358360291,3,versionC_stim.csv,READVersionC.csv,"Read Version C","Dissertation, read only version C",WAX,CANDLE,Study2,S,139,99,Test,User,-,,Recall,Recall2,5659,CANDLE,100,1553,5341,1,1,,1
5e8f7b9103ad03270d48587f,huwrd1ut5e,Nick_Dissertation_EX1,1,309,2020-06-13T10:06:07-07:00,6.3867030143738,3,versionC_stim.csv,READVersionC.csv,"Read Version C","Dissertation, read only version C",LOVE,AFFECTION,Study2,B,115,143,Test,User,-,,Recall,Recall2,5979,AFFECTION,100,1651,3941,1,1,,1
5e8f7b9103ad03270d48587f,huwrd1ut5e,Nick_Dissertation_EX1,1,310,2020-06-13T10:06:10-07:00,3.3307991027832,3,versionC_stim.csv,READVersionC.csv,"Read Version C","Dissertation, read only version C",WET,DRY,Study2,S,146,137,Test,User,-,,Recall,Recall2,2922,DRY,100,2415,2772,1,1,,1
5e8f7b9103ad03270d48587f,huwrd1ut5e,Nick_Dissertation_EX1,1,311,2020-06-13T10:06:16-07:00,5.4924600124359,3,versionC_stim.csv,READVersionC.csv,"Read Version C","Dissertation, read only version C",CAR,DRIVER,Study2,B,106,106,Test,User,-,,Recall,Recall2,5086,,0,-1,-1,0,0,,1
5e8f7b9103ad03270d48587f,huwrd1ut5e,Nick_Dissertation_EX1,1,312,2020-06-13T10:06:19-07:00,3.5428638458252,3,versionC_stim.csv,READVersionC.csv,"Read Version C","Dissertation, read only version C",SHAKE,Shell,Study2,U,163,117,Test,User,-,,Recall,Recall2,3133,,0,-1,-1,0,0,,1
5e8f7b9103ad03270d48587f,huwrd1ut5e,Nick_Dissertation_EX1,1,313,2020-06-13T10:06:37-07:00,18.017693042755,3,versionC_stim.csv,READVersionC.csv,"Read Version C","Dissertation, read only version C",ACTRESS,STAR,Study2,F,120,98,Test,User,-,,Recall,Recall2,16831,,0,-1,-1,0,0,,1
5e8f7b9103ad03270d48587f,huwrd1ut5e,Nick_Dissertation_EX1,1,314,2020-06-13T10:06:40-07:00,2.5431470870972,3,versionC_stim.csv,READVersionC.csv,"Read Version C","Dissertation, read only version C",BANG,FUZZY,Study2,U,168,152,Test,User,-,,Recall,Recall2,2043,,0,-1,-1,0,0,,1
5e8f7b9103ad03270d48587f,huwrd1ut5e,Nick_Dissertation_EX1,1,315,2020-06-13T10:06:43-07:00,3.3070778846741,3,versionC_stim.csv,READVersionC.csv,"Read Version C","Dissertation, read only version C",HATE,NAME,Study2,U,167,174,Test,User,-,,Recall,Recall2,2902,LOVE,25,1349,1516,0,0,,1
5e8f7b9103ad03270d48587f,huwrd1ut5e,Nick_Dissertation_EX1,1,316,2020-06-13T10:06:47-07:00,3.4634881019592,3,versionC_stim.csv,READVersionC.csv,"Read Version C","Dissertation, read only version C",COMMUNICATION,PHONE,Study2,S,149,123,Test,User,-,,Recall,Recall2,3060,,0,-1,-1,0,0,,1
5e8f7b9103ad03270d48587f,huwrd1ut5e,Nick_Dissertation_EX1,1,317,2020-06-13T10:06:56-07:00,9.2418320178986,3,versionC_stim.csv,READVersionC.csv,"Read Version C","Dissertation, read only version C",TRASH,LITTER,Study2,B,103,102,Test,User,-,,Recall,Recall2,8841,WASTE,36.363636363636,7636,8353,0,0,,1
5e8f7b9103ad03270d48587f,huwrd1ut5e,Nick_Dissertation_EX1,1,318,2020-06-13T10:06:59-07:00,2.8266820907593,3,versionC_stim.csv,READVersionC.csv,"Read Version C","Dissertation, read only version C",DONKEY,MULE,Study2,B,108,104,Test,User,-,,Recall,Recall2,2402,MULE,100,1665,2010,1,1,,1
5e8f7b9103ad03270d48587f,huwrd1ut5e,Nick_Dissertation_EX1,1,319,2020-06-13T10:07:04-07:00,5.5887138843536,3,versionC_stim.csv,READVersionC.csv,"Read Version C","Dissertation, read only version C",HAVE,OWN,Study2,S,153,148,Test,User,-,,Recall,Recall2,5167,OWN,100,3736,3890,1,1,,1
5e8f7b9103ad03270d48587f,huwrd1ut5e,Nick_Dissertation_EX1,1,320,2020-06-13T10:07:08-07:00,3.8755569458008,3,versionC_stim.csv,READVersionC.csv,"Read Version C","Dissertation, read only version C",TRUTHFUL,HONEST,Study2,F,133,147,Test,User,-,,Recall,Recall2,3396,LIE,22.222222222222,2712,2847,0,0,,1
5e8f7b9103ad03270d48587f,huwrd1ut5e,Nick_Dissertation_EX1,1,321,2020-06-13T10:07:13-07:00,4.9888660907745,3,versionC_stim.csv,READVersionC.csv,"Read Version C","Dissertation, read only version C",MYSTERY,DETECTIVE,Study2,B,100,100,Test,User,-,,Recall,Recall2,4544,DETECTIVE,100,3305,4147,1,1,,1
5e8f7b9103ad03270d48587f,huwrd1ut5e,Nick_Dissertation_EX1,1,322,2020-06-13T10:07:16-07:00,2.8400988578796,3,versionC_stim.csv,READVersionC.csv,"Read Version C","Dissertation, read only version C",TICK,FLEA,Study2,S,151,119,Test,User,-,,Recall,Recall2,2423,,0,-1,-1,0,0,,1
5e8f7b9103ad03270d48587f,huwrd1ut5e,Nick_Dissertation_EX1,1,323,2020-06-13T10:07:19-07:00,3.1933801174164,3,versionC_stim.csv,READVersionC.csv,"Read Version C","Dissertation, read only version C",TOIL,LEASE,Study2,U,170,173,Test,User,-,,Recall,Recall2,2776,WORK,0,1646,1866,0,0,,1
5e8f7b9103ad03270d48587f,huwrd1ut5e,Nick_Dissertation_EX1,1,324,2020-06-13T10:07:22-07:00,2.8880438804626,3,versionC_stim.csv,READVersionC.csv,"Read Version C","Dissertation, read only version C",OBTAIN,MEAT,Study2,U,161,150,Test,User,-,,Recall,Recall2,2208,HAVE,25,1305,1557,0,0,,1
5e8f7b9103ad03270d48587f,huwrd1ut5e,Nick_Dissertation_EX1,1,325,2020-06-13T10:07:27-07:00,4.6212501525879,3,versionC_stim.csv,READVersionC.csv,"Read Version C","Dissertation, read only version C",VILLAIN,BAD,Study2,F,118,151,Test,User,-,,Recall,Recall2,4208,BAD,100,3590,3917,1,1,,1
5e8f7b9103ad03270d48587f,huwrd1ut5e,Nick_Dissertation_EX1,1,326,2020-06-13T10:07:28-07:00,1.8364808559418,3,versionC_stim.csv,READVersionC.csv,"Read Version C","Dissertation, read only version C",BANKER,MONEY,Study2,F,132,125,Test,User,-,,Recall,Recall2,1431,,0,-1,-1,0,0,,1
5e8f7b9103ad03270d48587f,huwrd1ut5e,Nick_Dissertation_EX1,1,327,2020-06-13T10:07:31-07:00,2.7437291145325,3,versionC_stim.csv,READVersionC.csv,"Read Version C","Dissertation, read only version C",OUNCE,BOTH,Study2,U,172,172,Test,User,-,,Recall,Recall2,2331,,0,-1,-1,0,0,,1
5e8f7b9103ad03270d48587f,huwrd1ut5e,Nick_Dissertation_EX1,1,328,2020-06-13T10:07:33-07:00,2.2167119979858,3,versionC_stim.csv,READVersionC.csv,"Read Version C","Dissertation, read only version C",SCISSORS,SHEARS,Study2,B,112,175,Test,User,-,,Recall,Recall2,1799,CUT,0,1263,1491,0,0,,1
5e8f7b9103ad03270d48587f,huwrd1ut5e,Nick_Dissertation_EX1,1,329,2020-06-13T10:07:37-07:00,3.8141000270844,3,versionC_stim.csv,READVersionC.csv,"Read Version C","Dissertation, read only version C",DOG,FURRY,Study2,B,102,105,Test,User,-,,Recall,Recall2,3362,,0,-1,-1,0,0,,1
5e8f7b9103ad03270d48587f,huwrd1ut5e,Nick_Dissertation_EX1,1,330,2020-06-13T10:07:40-07:00,2.4245510101318,3,versionC_stim.csv,READVersionC.csv,"Read Version C","Dissertation, read only version C",BRAWL,FIGHT,Study2,F,135,168,Test,User,-,,Recall,Recall2,2018,FIGHT,100,1330,1664,1,1,,1
5e8f7b9103ad03270d48587f,huwrd1ut5e,Nick_Dissertation_EX1,1,331,2020-06-13T10:07:41-07:00,1.2316579818726,3,versionC_stim.csv,READVersionC.csv,"Read Version C","Dissertation, read only version C",CHILDREN,MIRROR,Study2,U,174,153,Test,User,-,,Recall,Recall2,916,,0,-1,-1,0,0,,1
5e8f7b9103ad03270d48587f,huwrd1ut5e,Nick_Dissertation_EX1,1,332,2020-06-13T10:07:44-07:00,2.6801278591156,3,versionC_stim.csv,READVersionC.csv,"Read Version C","Dissertation, read only version C",THIMBLE,THREAD,Study2,F,121,146,Test,User,-,,Recall,Recall2,2273,,0,-1,-1,0,0,,1
5e8f7b9103ad03270d48587f,huwrd1ut5e,Nick_Dissertation_EX1,1,333,2020-06-13T10:07:46-07:00,2.8631610870361,3,versionC_stim.csv,READVersionC.csv,"Read Version C","Dissertation, read only version C",FIGHT,FEUD,Study2,B,113,129,Test,User,-,,Recall,Recall2,2456,BRAWL,0,1401,1903,0,0,,1
5e8f7b9103ad03270d48587f,huwrd1ut5e,Nick_Dissertation_EX1,1,334,2020-06-13T10:07:48-07:00,2.0027530193329,3,versionC_stim.csv,READVersionC.csv,"Read Version C","Dissertation, read only version C",PANTHER,CAT,Study2,F,126,120,Test,User,-,,Recall,Recall2,1596,CAT,100,1060,1374,1,1,,1
5e8f7b9103ad03270d48587f,huwrd1ut5e,Nick_Dissertation_EX1,1,335,2020-06-13T10:07:51-07:00,2.3201730251312,3,versionC_stim.csv,READVersionC.csv,"Read Version C","Dissertation, read only version C",FAVORITE,BEST,Study2,F,125,124,Test,User,-,,Recall,Recall2,1894,BEST,100,1288,1662,1,1,,1
5e8f7b9103ad03270d48587f,huwrd1ut5e,Nick_Dissertation_EX1,1,336,2020-06-13T10:07:53-07:00,2.166298866272,3,versionC_stim.csv,READVersionC.csv,"Read Version C","Dissertation, read only version C",LONELY,ALONE,Study2,S,145,101,Test,User,-,,Recall,Recall2,1766,ALONE,100,1044,1441,1,1,,1
5e8f7b9103ad03270d48587f,huwrd1ut5e,Nick_Dissertation_EX1,1,337,2020-06-13T10:07:55-07:00,2.0838270187378,3,versionC_stim.csv,READVersionC.csv,"Read Version C","Dissertation, read only version C",TAN,SUN,Study2,S,155,130,Test,User,-,,Recall,Recall2,1678,SUN,100,1035,1166,1,1,,1
5e8f7b9103ad03270d48587f,huwrd1ut5e,Nick_Dissertation_EX1,1,338,2020-06-13T10:07:59-07:00,4.345673084259,3,versionC_stim.csv,READVersionC.csv,"Read Version C","Dissertation, read only version C",LEAGUE,BASEBALL,Study2,F,131,139,Test,User,-,,Recall,Recall2,3938,BASEBALL,100,1254,3444,1,1,,1
5e8f7b9103ad03270d48587f,huwrd1ut5e,Nick_Dissertation_EX1,1,339,2020-06-13T10:08:02-07:00,2.3228559494019,3,versionC_stim.csv,READVersionC.csv,"Read Version C","Dissertation, read only version C",AIRCRAFT,PLANE,Study2,F,129,157,Test,User,-,,Recall,Recall2,1920,PLANE,100,962,1460,1,1,,1
5e8f7b9103ad03270d48587f,huwrd1ut5e,Nick_Dissertation_EX1,1,340,2020-06-13T10:08:04-07:00,2.0446889400482,3,versionC_stim.csv,READVersionC.csv,"Read Version C","Dissertation, read only version C",DRINK,WATER,Study2,S,143,166,Test,User,-,,Recall,Recall2,1630,SODA,22.222222222222,1167,1447,0,0,,1
5e8f7b9103ad03270d48587f,huwrd1ut5e,Nick_Dissertation_EX1,1,341,2020-06-13T10:08:06-07:00,1.9937391281128,3,versionC_stim.csv,READVersionC.csv,"Read Version C","Dissertation, read only version C",WINDSHIELD,CAR,Study2,F,117,165,Test,User,-,,Recall,Recall2,1553,CAR,100,1069,1329,1,1,,1
5e8f7b9103ad03270d48587f,huwrd1ut5e,Nick_Dissertation_EX1,1,342,2020-06-13T10:08:08-07:00,2.5519618988037,3,versionC_stim.csv,READVersionC.csv,"Read Version C","Dissertation, read only version C",ABLE,CRACKLE,Study2,U,162,149,Test,User,-,,Recall,Recall2,2129,,0,-1,-1,0,0,,1
5e8f7b9103ad03270d48587f,huwrd1ut5e,Nick_Dissertation_EX1,1,343,2020-06-13T10:08:11-07:00,3.1621789932251,3,versionC_stim.csv,READVersionC.csv,"Read Version C","Dissertation, read only version C",JOKE,KEYS,Study2,U,165,103,Test,User,-,,Recall,Recall2,2751,,0,-1,-1,0,0,,1
5e8f7b9103ad03270d48587f,huwrd1ut5e,Nick_Dissertation_EX1,1,344,2020-06-13T10:08:15-07:00,3.8817641735077,3,versionC_stim.csv,READVersionC.csv,"Read Version C","Dissertation, read only version C",RED,CHERRY,Study2,B,104,134,Test,User,-,,Recall,Recall2,3455,,0,-1,-1,0,0,,1
5e8f7b9103ad03270d48587f,huwrd1ut5e,Nick_Dissertation_EX1,1,345,2020-06-13T10:08:19-07:00,3.5633299350739,3,versionC_stim.csv,READVersionC.csv,"Read Version C","Dissertation, read only version C",PLANT,CACTUS,Study2,B,98,126,Test,User,-,,Recall,Recall2,3153,,0,-1,-1,0,0,,1
5e8f7b9103ad03270d48587f,huwrd1ut5e,Nick_Dissertation_EX1,1,346,2020-06-13T10:08:21-07:00,2.4877760410309,3,versionC_stim.csv,READVersionC.csv,"Read Version C","Dissertation, read only version C",CLOTHES,CAKE,Study2,U,166,114,Test,User,-,,Recall,Recall2,2074,,0,-1,-1,0,0,,1
5e8f7b9103ad03270d48587f,huwrd1ut5e,Nick_Dissertation_EX1,1,347,2020-06-13T10:08:26-07:00,4.9035398960114,3,versionC_stim.csv,READVersionC.csv,"Read Version C","Dissertation, read only version C",STEAK,GIVE,Study2,U,158,140,Test,User,-,,Recall,Recall2,4491,MEAT,25,3880,4253,0,0,,1
5e8f7b9103ad03270d48587f,huwrd1ut5e,Nick_Dissertation_EX1,1,348,2020-06-13T10:08:28-07:00,2.1530201435089,3,versionC_stim.csv,READVersionC.csv,"Read Version C","Dissertation, read only version C",COFFIN,DEAD,Study2,F,128,108,Test,User,-,,Recall,Recall2,1745,DEAD,100,1044,1394,1,1,,1
5e8f7b9103ad03270d48587f,huwrd1ut5e,Nick_Dissertation_EX1,1,349,2020-06-13T10:08:29-07:00,1.0213959217072,3,versionC_stim.csv,READVersionC.csv,"Read Version C","Dissertation, read only version C",,,,,,0,Instruct,User,-,"You have completed this section. Please press Enter.",,Instruct7,694,,,-1,-1,,,,1
5e8f7b9103ad03270d48587f,huwrd1ut5e,Nick_Dissertation_EX1,1,350,2020-06-13T10:08:31-07:00,2.0101270675659,3,versionC_stim.csv,READVersionC.csv,"Read Version C","Dissertation, read only version C",,,,,,0,Instruct,User,-,"The following screen will ask you a few questions abour your experience today. You must complete these questions to receive credit.",,Instruct8,1582,,,-1,-1,,,,1
