Username,ID,ExperimentName,Session,Trial,Date,TimeDif,"Condition Number","Stimuli File","Order File","Condition Description","Condition Notes",Stimuli*Cue,Stimuli*Answer,Stimuli*Shuffle,"Stimuli*Stimuli Notes",Stimuli*Value,Procedure*Item,"Procedure*Trial Type","Procedure*Max Time","Procedure*Min Time",Procedure*Text,"Procedure*Procedure Notes",Procedure*Shuffle,Response*RT,Response*Response,Response*Accuracy,Response*RTfirst,Response*RTlast,Response*strictAcc,Response*lenientAcc,Response*focus,Response*Focus
5ec530f7aa5afd49a06b00a2,pl773sod28,Nick_Dissertation_EX1,1,1,2020-06-02T09:25:15-07:00,12.517068147659,3,versionC_stim.csv,READVersionC.csv,"Read Version C","Dissertation, read only version C",,,,,,0,Instruct,-,10,"Please study each of the following word pairs. Remember that your memory will be tested! When finished, press Enter to move to the next pair.",Initial_Instruct,Instruct1,12150,,,-1,-1,,,,1
5ec530f7aa5afd49a06b00a2,pl773sod28,Nick_Dissertation_EX1,1,2,2020-06-02T09:25:18-07:00,2.6323418617249,3,versionC_stim.csv,READVersionC.csv,"Read Version C","Dissertation, read only version C",GREEN,TREES,BUFFER1,Buffer,1,4,Study,User,-,,Study/JOL,BUFFER,2242,,,-1,-1,,,,1
5ec530f7aa5afd49a06b00a2,pl773sod28,Nick_Dissertation_EX1,1,3,2020-06-02T09:25:21-07:00,3.672600030899,3,versionC_stim.csv,READVersionC.csv,"Read Version C","Dissertation, read only version C",JAM,SPACE,BUFFER1,Buffer,5,6,Study,User,-,,Study/JOL,BUFFER,3289,,,-1,-1,,,,1
5ec530f7aa5afd49a06b00a2,pl773sod28,Nick_Dissertation_EX1,1,4,2020-06-02T09:25:28-07:00,6.6754570007324,3,versionC_stim.csv,READVersionC.csv,"Read Version C","Dissertation, read only version C",CATCHER,BASEBALL,BUFFER1,Buffer,2,5,Study,User,-,,Study/JOL,BUFFER,6213,,,-1,-1,,,,1
5ec530f7aa5afd49a06b00a2,pl773sod28,Nick_Dissertation_EX1,1,5,2020-06-02T09:25:35-07:00,7.2127170562744,3,versionC_stim.csv,READVersionC.csv,"Read Version C","Dissertation, read only version C",HIDE,SCARE,BUFFER1,Buffer,4,3,Study,User,-,,Study/JOL,BUFFER,6799,,,-1,-1,,,,1
5ec530f7aa5afd49a06b00a2,pl773sod28,Nick_Dissertation_EX1,1,6,2020-06-02T09:25:44-07:00,8.5296258926392,3,versionC_stim.csv,READVersionC.csv,"Read Version C","Dissertation, read only version C",BUTTER,PEANUT,BUFFER1,Buffer,3,2,Study,User,-,,Study/JOL,BUFFER,8131,,,-1,-1,,,,1
5ec530f7aa5afd49a06b00a2,pl773sod28,Nick_Dissertation_EX1,1,7,2020-06-02T09:25:51-07:00,7.4771890640259,3,versionC_stim.csv,READVersionC.csv,"Read Version C","Dissertation, read only version C",RIDDLE,SUGAR,Study1,U,81,70,Study,User,-,,Study/JOL,"Study Phase",7030,,,-1,-1,,,,1
5ec530f7aa5afd49a06b00a2,pl773sod28,Nick_Dissertation_EX1,1,8,2020-06-02T09:25:56-07:00,4.227089881897,3,versionC_stim.csv,READVersionC.csv,"Read Version C","Dissertation, read only version C",HUNGRY,PARK,Study1,U,68,58,Study,User,-,,Study/JOL,"Study Phase",3813,,,-1,-1,,,,1
5ec530f7aa5afd49a06b00a2,pl773sod28,Nick_Dissertation_EX1,1,9,2020-06-02T09:25:59-07:00,3.0134341716766,3,versionC_stim.csv,READVersionC.csv,"Read Version C","Dissertation, read only version C",LIVER,KIDNEY,Study1,S,53,69,Study,User,-,,Study/JOL,"Study Phase",2587,,,-1,-1,,,,1
5ec530f7aa5afd49a06b00a2,pl773sod28,Nick_Dissertation_EX1,1,10,2020-06-02T09:26:02-07:00,3.5531208515167,3,versionC_stim.csv,READVersionC.csv,"Read Version C","Dissertation, read only version C",CLUTTER,PUSHER,Study1,U,66,22,Study,User,-,,Study/JOL,"Study Phase",3160,,,-1,-1,,,,1
5ec530f7aa5afd49a06b00a2,pl773sod28,Nick_Dissertation_EX1,1,11,2020-06-02T09:26:05-07:00,3.2055850028992,3,versionC_stim.csv,READVersionC.csv,"Read Version C","Dissertation, read only version C",VASE,KING,Study1,U,85,11,Study,User,-,,Study/JOL,"Study Phase",2839,,,-1,-1,,,,1
5ec530f7aa5afd49a06b00a2,pl773sod28,Nick_Dissertation_EX1,1,12,2020-06-02T09:26:08-07:00,3.0041739940643,3,versionC_stim.csv,READVersionC.csv,"Read Version C","Dissertation, read only version C",SIP,DRINK,Study1,F,27,57,Study,User,-,,Study/JOL,"Study Phase",2571,,,-1,-1,,,,1
5ec530f7aa5afd49a06b00a2,pl773sod28,Nick_Dissertation_EX1,1,13,2020-06-02T09:26:13-07:00,4.3524091243744,3,versionC_stim.csv,READVersionC.csv,"Read Version C","Dissertation, read only version C",SEIZE,TAKE,Study1,F,29,72,Study,User,-,,Study/JOL,"Study Phase",3960,,,-1,-1,,,,1
5ec530f7aa5afd49a06b00a2,pl773sod28,Nick_Dissertation_EX1,1,14,2020-06-02T09:26:14-07:00,1.5568969249725,3,versionC_stim.csv,READVersionC.csv,"Read Version C","Dissertation, read only version C",STING,HORNET,Study1,B,11,41,Study,User,-,,Study/JOL,"Study Phase",1138,,,-1,-1,,,,1
5ec530f7aa5afd49a06b00a2,pl773sod28,Nick_Dissertation_EX1,1,15,2020-06-02T09:26:17-07:00,2.4849281311035,3,versionC_stim.csv,READVersionC.csv,"Read Version C","Dissertation, read only version C",PILOT,PLANE,Study1,F,44,7,Study,User,-,,Study/JOL,"Study Phase",2099,,,-1,-1,,,,1
5ec530f7aa5afd49a06b00a2,pl773sod28,Nick_Dissertation_EX1,1,16,2020-06-02T09:26:19-07:00,2.4650208950043,3,versionC_stim.csv,READVersionC.csv,"Read Version C","Dissertation, read only version C",JURY,TRIAL,Study1,S,50,20,Study,User,-,,Study/JOL,"Study Phase",2094,,,-1,-1,,,,1
5ec530f7aa5afd49a06b00a2,pl773sod28,Nick_Dissertation_EX1,1,17,2020-06-02T09:26:24-07:00,5.1378240585327,3,versionC_stim.csv,READVersionC.csv,"Read Version C","Dissertation, read only version C",WAR,REVOLUTION,Study1,B,20,67,Study,User,-,,Study/JOL,"Study Phase",4707,,,-1,-1,,,,1
5ec530f7aa5afd49a06b00a2,pl773sod28,Nick_Dissertation_EX1,1,18,2020-06-02T09:26:27-07:00,3.0859370231628,3,versionC_stim.csv,READVersionC.csv,"Read Version C","Dissertation, read only version C",CHILD,BABY,Study1,S,64,62,Study,User,-,,Study/JOL,"Study Phase",2691,,,-1,-1,,,,1
5ec530f7aa5afd49a06b00a2,pl773sod28,Nick_Dissertation_EX1,1,19,2020-06-02T09:26:32-07:00,4.4036748409271,3,versionC_stim.csv,READVersionC.csv,"Read Version C","Dissertation, read only version C",CLEAN,HYGIENE,Study1,B,17,8,Study,User,-,,Study/JOL,"Study Phase",3005,,,-1,-1,,,,1
5ec530f7aa5afd49a06b00a2,pl773sod28,Nick_Dissertation_EX1,1,20,2020-06-02T09:26:34-07:00,2.6195411682129,3,versionC_stim.csv,READVersionC.csv,"Read Version C","Dissertation, read only version C",BLAZE,FIRE,Study1,F,45,65,Study,User,-,,Study/JOL,"Study Phase",2218,,,-1,-1,,,,1
5ec530f7aa5afd49a06b00a2,pl773sod28,Nick_Dissertation_EX1,1,21,2020-06-02T09:26:39-07:00,4.4426019191742,3,versionC_stim.csv,READVersionC.csv,"Read Version C","Dissertation, read only version C",TALK,DISCUSSION,Study1,B,21,66,Study,User,-,,Study/JOL,"Study Phase",4023,,,-1,-1,,,,1
5ec530f7aa5afd49a06b00a2,pl773sod28,Nick_Dissertation_EX1,1,22,2020-06-02T09:26:41-07:00,2.1300029754639,3,versionC_stim.csv,READVersionC.csv,"Read Version C","Dissertation, read only version C",END,BEGIN,Study1,S,54,29,Study,User,-,,Study/JOL,"Study Phase",1751,,,-1,-1,,,,1
5ec530f7aa5afd49a06b00a2,pl773sod28,Nick_Dissertation_EX1,1,23,2020-06-02T09:26:46-07:00,4.6014471054077,3,versionC_stim.csv,READVersionC.csv,"Read Version C","Dissertation, read only version C",POSITION,MACHINE,Study1,U,76,71,Study,User,-,,Study/JOL,"Study Phase",4206,,,-1,-1,,,,1
5ec530f7aa5afd49a06b00a2,pl773sod28,Nick_Dissertation_EX1,1,24,2020-06-02T09:26:54-07:00,8.9266738891602,3,versionC_stim.csv,READVersionC.csv,"Read Version C","Dissertation, read only version C",ROUND,CIRCLE,Study1,S,65,15,Study,User,-,,Study/JOL,"Study Phase",7439,,,-1,-1,,,,0.763
5ec530f7aa5afd49a06b00a2,pl773sod28,Nick_Dissertation_EX1,1,25,2020-06-02T09:26:57-07:00,2.6867570877075,3,versionC_stim.csv,READVersionC.csv,"Read Version C","Dissertation, read only version C",FAMINE,HUNGER,Study1,F,40,35,Study,User,-,,Study/JOL,"Study Phase",2286,,,-1,-1,,,,1
5ec530f7aa5afd49a06b00a2,pl773sod28,Nick_Dissertation_EX1,1,26,2020-06-02T09:27:00-07:00,2.504595041275,3,versionC_stim.csv,READVersionC.csv,"Read Version C","Dissertation, read only version C",CHILI,HOT,Study1,F,37,44,Study,User,-,,Study/JOL,"Study Phase",2146,,,-1,-1,,,,1
5ec530f7aa5afd49a06b00a2,pl773sod28,Nick_Dissertation_EX1,1,27,2020-06-02T09:27:03-07:00,3.0246369838715,3,versionC_stim.csv,READVersionC.csv,"Read Version C","Dissertation, read only version C",STOMACH,DIGESTION,Study1,B,7,73,Study,User,-,,Study/JOL,"Study Phase",2674,,,-1,-1,,,,1
5ec530f7aa5afd49a06b00a2,pl773sod28,Nick_Dissertation_EX1,1,28,2020-06-02T09:27:06-07:00,3.1211009025574,3,versionC_stim.csv,READVersionC.csv,"Read Version C","Dissertation, read only version C",RACKET,BALL,Study1,F,38,79,Study,User,-,,Study/JOL,"Study Phase",2733,,,-1,-1,,,,1
5ec530f7aa5afd49a06b00a2,pl773sod28,Nick_Dissertation_EX1,1,29,2020-06-02T09:27:16-07:00,9.993644952774,3,versionC_stim.csv,READVersionC.csv,"Read Version C","Dissertation, read only version C",BELT,SOON,Study1,U,70,51,Study,User,-,,Study/JOL,"Study Phase",9622,,,-1,-1,,,,1
5ec530f7aa5afd49a06b00a2,pl773sod28,Nick_Dissertation_EX1,1,30,2020-06-02T09:27:18-07:00,2.0475749969482,3,versionC_stim.csv,READVersionC.csv,"Read Version C","Dissertation, read only version C",TOILET,BATHROOM,Study1,S,58,34,Study,User,-,,Study/JOL,"Study Phase",1684,,,-1,-1,,,,1
5ec530f7aa5afd49a06b00a2,pl773sod28,Nick_Dissertation_EX1,1,31,2020-06-02T09:27:20-07:00,2.4677591323853,3,versionC_stim.csv,READVersionC.csv,"Read Version C","Dissertation, read only version C",WATER,BRIDGE,Study1,B,18,10,Study,User,-,,Study/JOL,"Study Phase",2076,,,-1,-1,,,,1
5ec530f7aa5afd49a06b00a2,pl773sod28,Nick_Dissertation_EX1,1,32,2020-06-02T09:27:23-07:00,2.1575169563293,3,versionC_stim.csv,READVersionC.csv,"Read Version C","Dissertation, read only version C",MONEY,WAGE,Study1,B,8,43,Study,User,-,,Study/JOL,"Study Phase",1761,,,-1,-1,,,,1
5ec530f7aa5afd49a06b00a2,pl773sod28,Nick_Dissertation_EX1,1,33,2020-06-02T09:27:25-07:00,2.2603719234467,3,versionC_stim.csv,READVersionC.csv,"Read Version C","Dissertation, read only version C",PLANT,ROOT,Study1,B,13,60,Study,User,-,,Study/JOL,"Study Phase",1849,,,-1,-1,,,,1
5ec530f7aa5afd49a06b00a2,pl773sod28,Nick_Dissertation_EX1,1,34,2020-06-02T09:27:26-07:00,1.6537640094757,3,versionC_stim.csv,READVersionC.csv,"Read Version C","Dissertation, read only version C",FUTURE,PAST,Study1,S,61,18,Study,User,-,,Study/JOL,"Study Phase",1283,,,-1,-1,,,,1
5ec530f7aa5afd49a06b00a2,pl773sod28,Nick_Dissertation_EX1,1,35,2020-06-02T09:27:38-07:00,11.131078004837,3,versionC_stim.csv,READVersionC.csv,"Read Version C","Dissertation, read only version C",WOULD,CASH,Study1,U,83,76,Study,User,-,,Study/JOL,"Study Phase",10669,,,-1,-1,,,,1
5ec530f7aa5afd49a06b00a2,pl773sod28,Nick_Dissertation_EX1,1,36,2020-06-02T09:27:42-07:00,4.7057271003723,3,versionC_stim.csv,READVersionC.csv,"Read Version C","Dissertation, read only version C",TUCK,ALLOW,Study1,U,78,52,Study,User,-,,Study/JOL,"Study Phase",4315,,,-1,-1,,,,1
5ec530f7aa5afd49a06b00a2,pl773sod28,Nick_Dissertation_EX1,1,37,2020-06-02T09:27:45-07:00,2.9496829509735,3,versionC_stim.csv,READVersionC.csv,"Read Version C","Dissertation, read only version C",CARD,CREDIT,Study1,B,23,55,Study,User,-,,Study/JOL,"Study Phase",2564,,,-1,-1,,,,1
5ec530f7aa5afd49a06b00a2,pl773sod28,Nick_Dissertation_EX1,1,38,2020-06-02T09:27:48-07:00,2.753534078598,3,versionC_stim.csv,READVersionC.csv,"Read Version C","Dissertation, read only version C",GROWTH,HEIGHT,Study1,F,30,25,Study,User,-,,Study/JOL,"Study Phase",2368,,,-1,-1,,,,1
5ec530f7aa5afd49a06b00a2,pl773sod28,Nick_Dissertation_EX1,1,39,2020-06-02T09:27:50-07:00,2.3962769508362,3,versionC_stim.csv,READVersionC.csv,"Read Version C","Dissertation, read only version C",ROCK,GEOLOGY,Study1,B,19,54,Study,User,-,,Study/JOL,"Study Phase",2014,,,-1,-1,,,,1
5ec530f7aa5afd49a06b00a2,pl773sod28,Nick_Dissertation_EX1,1,40,2020-06-02T09:27:54-07:00,3.1746158599854,3,versionC_stim.csv,READVersionC.csv,"Read Version C","Dissertation, read only version C",HAND,FIX,Study1,U,75,85,Study,User,-,,Study/JOL,"Study Phase",2838,,,-1,-1,,,,1
5ec530f7aa5afd49a06b00a2,pl773sod28,Nick_Dissertation_EX1,1,41,2020-06-02T09:27:56-07:00,2.2699360847473,3,versionC_stim.csv,READVersionC.csv,"Read Version C","Dissertation, read only version C",AMOUNT,NUMBER,Study1,S,47,74,Study,User,-,,Study/JOL,"Study Phase",1893,,,-1,-1,,,,1
5ec530f7aa5afd49a06b00a2,pl773sod28,Nick_Dissertation_EX1,1,42,2020-06-02T09:27:58-07:00,2.2619709968567,3,versionC_stim.csv,READVersionC.csv,"Read Version C","Dissertation, read only version C",FANTASTIC,GREAT,Study1,F,35,81,Study,User,-,,Study/JOL,"Study Phase",1888,,,-1,-1,,,,1
5ec530f7aa5afd49a06b00a2,pl773sod28,Nick_Dissertation_EX1,1,43,2020-06-02T09:28:00-07:00,1.836030960083,3,versionC_stim.csv,READVersionC.csv,"Read Version C","Dissertation, read only version C",FOOT,SHOE,Study1,S,60,36,Study,User,-,,Study/JOL,"Study Phase",1451,,,-1,-1,,,,1
5ec530f7aa5afd49a06b00a2,pl773sod28,Nick_Dissertation_EX1,1,44,2020-06-02T09:28:02-07:00,2.3885021209717,3,versionC_stim.csv,READVersionC.csv,"Read Version C","Dissertation, read only version C",BIRD,SWAN,Study1,B,14,12,Study,User,-,,Study/JOL,"Study Phase",2014,,,-1,-1,,,,1
5ec530f7aa5afd49a06b00a2,pl773sod28,Nick_Dissertation_EX1,1,45,2020-06-02T09:28:04-07:00,2.1124758720398,3,versionC_stim.csv,READVersionC.csv,"Read Version C","Dissertation, read only version C",DROWSY,SLEEP,Study1,F,41,45,Study,User,-,,Study/JOL,"Study Phase",1726,,,-1,-1,,,,1
5ec530f7aa5afd49a06b00a2,pl773sod28,Nick_Dissertation_EX1,1,46,2020-06-02T09:28:06-07:00,1.7003800868988,3,versionC_stim.csv,READVersionC.csv,"Read Version C","Dissertation, read only version C",FLOWER,ORCHID,Study1,B,24,46,Study,User,-,,Study/JOL,"Study Phase",1309,,,-1,-1,,,,1
5ec530f7aa5afd49a06b00a2,pl773sod28,Nick_Dissertation_EX1,1,47,2020-06-02T09:28:08-07:00,1.6019220352173,3,versionC_stim.csv,READVersionC.csv,"Read Version C","Dissertation, read only version C",WASTE,DUMP,Study1,S,49,64,Study,User,-,,Study/JOL,"Study Phase",1213,,,-1,-1,,,,1
5ec530f7aa5afd49a06b00a2,pl773sod28,Nick_Dissertation_EX1,1,48,2020-06-02T09:28:14-07:00,6.4374098777771,3,versionC_stim.csv,READVersionC.csv,"Read Version C","Dissertation, read only version C",BRONZE,ARTERY,Study1,U,74,28,Study,User,-,,Study/JOL,"Study Phase",5974,,,-1,-1,,,,1
5ec530f7aa5afd49a06b00a2,pl773sod28,Nick_Dissertation_EX1,1,49,2020-06-02T09:28:19-07:00,5.1184630393982,3,versionC_stim.csv,READVersionC.csv,"Read Version C","Dissertation, read only version C",ADD,VALLEY,Study1,U,82,32,Study,User,-,,Study/JOL,"Study Phase",3715,,,-1,-1,,,,1
5ec530f7aa5afd49a06b00a2,pl773sod28,Nick_Dissertation_EX1,1,50,2020-06-02T09:28:21-07:00,2.225830078125,3,versionC_stim.csv,READVersionC.csv,"Read Version C","Dissertation, read only version C",HAMMER,CHISEL,Study1,B,9,26,Study,User,-,,Study/JOL,"Study Phase",867,,,-1,-1,,,,1
5ec530f7aa5afd49a06b00a2,pl773sod28,Nick_Dissertation_EX1,1,51,2020-06-02T09:28:23-07:00,1.4481680393219,3,versionC_stim.csv,READVersionC.csv,"Read Version C","Dissertation, read only version C",ATTIRE,CLOTHES,Study1,F,43,17,Study,User,-,,Study/JOL,"Study Phase",1099,,,-1,-1,,,,1
5ec530f7aa5afd49a06b00a2,pl773sod28,Nick_Dissertation_EX1,1,52,2020-06-02T09:28:24-07:00,1.4638059139252,3,versionC_stim.csv,READVersionC.csv,"Read Version C","Dissertation, read only version C",OUT,WAY,Study1,B,16,9,Study,User,-,,Study/JOL,"Study Phase",1095,,,-1,-1,,,,1
5ec530f7aa5afd49a06b00a2,pl773sod28,Nick_Dissertation_EX1,1,53,2020-06-02T09:28:26-07:00,1.8692970275879,3,versionC_stim.csv,READVersionC.csv,"Read Version C","Dissertation, read only version C",DOG,PAW,Study1,B,15,75,Study,User,-,,Study/JOL,"Study Phase",1509,,,-1,-1,,,,1
5ec530f7aa5afd49a06b00a2,pl773sod28,Nick_Dissertation_EX1,1,54,2020-06-02T09:28:28-07:00,1.7201099395752,3,versionC_stim.csv,READVersionC.csv,"Read Version C","Dissertation, read only version C",NEWS,EDITOR,Study1,B,10,14,Study,User,-,,Study/JOL,"Study Phase",1377,,,-1,-1,,,,1
5ec530f7aa5afd49a06b00a2,pl773sod28,Nick_Dissertation_EX1,1,55,2020-06-02T09:28:30-07:00,2.3570461273193,3,versionC_stim.csv,READVersionC.csv,"Read Version C","Dissertation, read only version C",BEE,HONEY,Study1,S,63,80,Study,User,-,,Study/JOL,"Study Phase",1882,,,-1,-1,,,,1
5ec530f7aa5afd49a06b00a2,pl773sod28,Nick_Dissertation_EX1,1,56,2020-06-02T09:28:32-07:00,1.6306998729706,3,versionC_stim.csv,READVersionC.csv,"Read Version C","Dissertation, read only version C",FISH,TUNA,Study1,B,25,19,Study,User,-,,Study/JOL,"Study Phase",1246,,,-1,-1,,,,1
5ec530f7aa5afd49a06b00a2,pl773sod28,Nick_Dissertation_EX1,1,57,2020-06-02T09:28:35-07:00,2.5794949531555,3,versionC_stim.csv,READVersionC.csv,"Read Version C","Dissertation, read only version C",COW,HERD,Study1,B,22,50,Study,User,-,,Study/JOL,"Study Phase",2209,,,-1,-1,,,,1
5ec530f7aa5afd49a06b00a2,pl773sod28,Nick_Dissertation_EX1,1,58,2020-06-02T09:28:38-07:00,3.4823930263519,3,versionC_stim.csv,READVersionC.csv,"Read Version C","Dissertation, read only version C",DESIGN,ARCHITECTURE,Study1,S,51,82,Study,User,-,,Study/JOL,"Study Phase",2139,,,-1,-1,,,,1
5ec530f7aa5afd49a06b00a2,pl773sod28,Nick_Dissertation_EX1,1,59,2020-06-02T09:28:41-07:00,2.808445930481,3,versionC_stim.csv,READVersionC.csv,"Read Version C","Dissertation, read only version C",SODA,POP,Study1,S,56,49,Study,User,-,,Study/JOL,"Study Phase",2414,,,-1,-1,,,,1
5ec530f7aa5afd49a06b00a2,pl773sod28,Nick_Dissertation_EX1,1,60,2020-06-02T09:28:47-07:00,6.6573920249939,3,versionC_stim.csv,READVersionC.csv,"Read Version C","Dissertation, read only version C",WASP,BUG,Study1,F,32,83,Study,User,-,,Study/JOL,"Study Phase",6294,,,-1,-1,,,,1
5ec530f7aa5afd49a06b00a2,pl773sod28,Nick_Dissertation_EX1,1,61,2020-06-02T09:28:50-07:00,2.2936410903931,3,versionC_stim.csv,READVersionC.csv,"Read Version C","Dissertation, read only version C",WOMAN,LIFT,Study1,U,69,53,Study,User,-,,Study/JOL,"Study Phase",1934,,,-1,-1,,,,1
5ec530f7aa5afd49a06b00a2,pl773sod28,Nick_Dissertation_EX1,1,62,2020-06-02T09:28:55-07:00,4.7445368766785,3,versionC_stim.csv,READVersionC.csv,"Read Version C","Dissertation, read only version C",SACKING,DIETARY,Study1,U,67,48,Study,User,-,,Study/JOL,"Study Phase",4387,,,-1,-1,,,,1
5ec530f7aa5afd49a06b00a2,pl773sod28,Nick_Dissertation_EX1,1,63,2020-06-02T09:28:57-07:00,2.7119340896606,3,versionC_stim.csv,READVersionC.csv,"Read Version C","Dissertation, read only version C",BAD,DELINQUENT,Study1,B,6,21,Study,User,-,,Study/JOL,"Study Phase",2309,,,-1,-1,,,,1
5ec530f7aa5afd49a06b00a2,pl773sod28,Nick_Dissertation_EX1,1,64,2020-06-02T09:28:59-07:00,2.1414680480957,3,versionC_stim.csv,READVersionC.csv,"Read Version C","Dissertation, read only version C",ENOUGH,FULL,Study1,F,26,39,Study,User,-,,Study/JOL,"Study Phase",1735,,,-1,-1,,,,1
5ec530f7aa5afd49a06b00a2,pl773sod28,Nick_Dissertation_EX1,1,65,2020-06-02T09:29:01-07:00,1.6585850715637,3,versionC_stim.csv,READVersionC.csv,"Read Version C","Dissertation, read only version C",SITE,LOCATION,Study1,S,48,16,Study,User,-,,Study/JOL,"Study Phase",1269,,,-1,-1,,,,1
5ec530f7aa5afd49a06b00a2,pl773sod28,Nick_Dissertation_EX1,1,66,2020-06-02T09:29:03-07:00,1.6967790126801,3,versionC_stim.csv,READVersionC.csv,"Read Version C","Dissertation, read only version C",SALAD,LETTUCE,Study1,S,59,23,Study,User,-,,Study/JOL,"Study Phase",1328,,,-1,-1,,,,1
5ec530f7aa5afd49a06b00a2,pl773sod28,Nick_Dissertation_EX1,1,67,2020-06-02T09:29:06-07:00,2.7918949127197,3,versionC_stim.csv,READVersionC.csv,"Read Version C","Dissertation, read only version C",ATTORNEY,LAW,Study1,F,34,59,Study,User,-,,Study/JOL,"Study Phase",1413,,,-1,-1,,,,1
5ec530f7aa5afd49a06b00a2,pl773sod28,Nick_Dissertation_EX1,1,68,2020-06-02T09:29:08-07:00,2.3963930606842,3,versionC_stim.csv,READVersionC.csv,"Read Version C","Dissertation, read only version C",LION,ART,Study1,U,79,37,Study,User,-,,Study/JOL,"Study Phase",1952,,,-1,-1,,,,1
5ec530f7aa5afd49a06b00a2,pl773sod28,Nick_Dissertation_EX1,1,69,2020-06-02T09:29:17-07:00,9.08669090271,3,versionC_stim.csv,READVersionC.csv,"Read Version C","Dissertation, read only version C",STENCH,SMELL,Study1,F,42,86,Study,User,-,,Study/JOL,"Study Phase",8683,,,-1,-1,,,,1
5ec530f7aa5afd49a06b00a2,pl773sod28,Nick_Dissertation_EX1,1,70,2020-06-02T09:29:19-07:00,1.9562940597534,3,versionC_stim.csv,READVersionC.csv,"Read Version C","Dissertation, read only version C",ACCIDENT,STRONG,Study1,U,80,38,Study,User,-,,Study/JOL,"Study Phase",1584,,,-1,-1,,,,1
5ec530f7aa5afd49a06b00a2,pl773sod28,Nick_Dissertation_EX1,1,71,2020-06-02T09:29:21-07:00,1.643739938736,3,versionC_stim.csv,READVersionC.csv,"Read Version C","Dissertation, read only version C",CHEESE,WINE,Study1,S,57,68,Study,User,-,,Study/JOL,"Study Phase",1262,,,-1,-1,,,,1
5ec530f7aa5afd49a06b00a2,pl773sod28,Nick_Dissertation_EX1,1,72,2020-06-02T09:29:22-07:00,1.5536749362946,3,versionC_stim.csv,READVersionC.csv,"Read Version C","Dissertation, read only version C",CHORE,WORK,Study1,F,39,42,Study,User,-,,Study/JOL,"Study Phase",1168,,,-1,-1,,,,1
5ec530f7aa5afd49a06b00a2,pl773sod28,Nick_Dissertation_EX1,1,73,2020-06-02T09:29:24-07:00,1.8767030239105,3,versionC_stim.csv,READVersionC.csv,"Read Version C","Dissertation, read only version C",CAR,HAPPY,Study1,U,77,56,Study,User,-,,Study/JOL,"Study Phase",1397,,,-1,-1,,,,1
5ec530f7aa5afd49a06b00a2,pl773sod28,Nick_Dissertation_EX1,1,74,2020-06-02T09:29:26-07:00,1.8750081062317,3,versionC_stim.csv,READVersionC.csv,"Read Version C","Dissertation, read only version C",DEFINITION,MEANING,Study1,S,62,61,Study,User,-,,Study/JOL,"Study Phase",1510,,,-1,-1,,,,1
5ec530f7aa5afd49a06b00a2,pl773sod28,Nick_Dissertation_EX1,1,75,2020-06-02T09:29:27-07:00,1.3960769176483,3,versionC_stim.csv,READVersionC.csv,"Read Version C","Dissertation, read only version C",BUSINESS,DEATH,Study1,U,72,30,Study,User,-,,Study/JOL,"Study Phase",1040,,,-1,-1,,,,1
5ec530f7aa5afd49a06b00a2,pl773sod28,Nick_Dissertation_EX1,1,76,2020-06-02T09:29:29-07:00,1.9267520904541,3,versionC_stim.csv,READVersionC.csv,"Read Version C","Dissertation, read only version C",FLOOR,DISCOVER,Study1,U,71,40,Study,User,-,,Study/JOL,"Study Phase",1549,,,-1,-1,,,,1
5ec530f7aa5afd49a06b00a2,pl773sod28,Nick_Dissertation_EX1,1,77,2020-06-02T09:29:31-07:00,1.55739402771,3,versionC_stim.csv,READVersionC.csv,"Read Version C","Dissertation, read only version C",CAVE,DARK,Study1,F,28,78,Study,User,-,,Study/JOL,"Study Phase",1202,,,-1,-1,,,,1
5ec530f7aa5afd49a06b00a2,pl773sod28,Nick_Dissertation_EX1,1,78,2020-06-02T09:29:33-07:00,1.7078719139099,3,versionC_stim.csv,READVersionC.csv,"Read Version C","Dissertation, read only version C",LATCH,KEY,Study1,F,36,33,Study,User,-,,Study/JOL,"Study Phase",1327,,,-1,-1,,,,1
5ec530f7aa5afd49a06b00a2,pl773sod28,Nick_Dissertation_EX1,1,79,2020-06-02T09:29:34-07:00,1.3029370307922,3,versionC_stim.csv,READVersionC.csv,"Read Version C","Dissertation, read only version C",ASSIGNMENT,DUE,Study1,S,46,84,Study,User,-,,Study/JOL,"Study Phase",936,,,-1,-1,,,,1
5ec530f7aa5afd49a06b00a2,pl773sod28,Nick_Dissertation_EX1,1,80,2020-06-02T09:29:36-07:00,1.7636909484863,3,versionC_stim.csv,READVersionC.csv,"Read Version C","Dissertation, read only version C",DIVISION,MATH,Study1,F,33,47,Study,User,-,,Study/JOL,"Study Phase",1399,,,-1,-1,,,,1
5ec530f7aa5afd49a06b00a2,pl773sod28,Nick_Dissertation_EX1,1,81,2020-06-02T09:29:37-07:00,1.4245870113373,3,versionC_stim.csv,READVersionC.csv,"Read Version C","Dissertation, read only version C",SICK,HIDE,Study1,U,84,77,Study,User,-,,Study/JOL,"Study Phase",1048,,,-1,-1,,,,1
5ec530f7aa5afd49a06b00a2,pl773sod28,Nick_Dissertation_EX1,1,82,2020-06-02T09:29:39-07:00,2.0457830429077,3,versionC_stim.csv,READVersionC.csv,"Read Version C","Dissertation, read only version C",SIGHT,DEBATE,Study1,U,73,13,Study,User,-,,Study/JOL,"Study Phase",1671,,,-1,-1,,,,1
5ec530f7aa5afd49a06b00a2,pl773sod28,Nick_Dissertation_EX1,1,83,2020-06-02T09:29:41-07:00,2.3105530738831,3,versionC_stim.csv,READVersionC.csv,"Read Version C","Dissertation, read only version C",COLD,BITTER,Study1,B,12,24,Study,User,-,,Study/JOL,"Study Phase",1949,,,-1,-1,,,,1
5ec530f7aa5afd49a06b00a2,pl773sod28,Nick_Dissertation_EX1,1,84,2020-06-02T09:29:43-07:00,1.8388619422913,3,versionC_stim.csv,READVersionC.csv,"Read Version C","Dissertation, read only version C",BAR,GRILL,Study1,S,52,27,Study,User,-,,Study/JOL,"Study Phase",1443,,,-1,-1,,,,1
5ec530f7aa5afd49a06b00a2,pl773sod28,Nick_Dissertation_EX1,1,85,2020-06-02T09:29:45-07:00,1.5357980728149,3,versionC_stim.csv,READVersionC.csv,"Read Version C","Dissertation, read only version C",WIND,BLOW,Study1,S,55,31,Study,User,-,,Study/JOL,"Study Phase",1148,,,-1,-1,,,,1
5ec530f7aa5afd49a06b00a2,pl773sod28,Nick_Dissertation_EX1,1,86,2020-06-02T09:29:46-07:00,1.5778629779816,3,versionC_stim.csv,READVersionC.csv,"Read Version C","Dissertation, read only version C",WORD,SENTENCE,Study1,F,31,63,Study,User,-,,Study/JOL,"Study Phase",1215,,,-1,-1,,,,1
5ec530f7aa5afd49a06b00a2,pl773sod28,Nick_Dissertation_EX1,1,87,2020-06-02T09:29:48-07:00,1.2822518348694,3,versionC_stim.csv,READVersionC.csv,"Read Version C","Dissertation, read only version C",STUFF,THING,BUFFER2,Buffer,90,91,Study,User,-,,Study/JOL,BUFFER2,888,,,-1,-1,,,,1
5ec530f7aa5afd49a06b00a2,pl773sod28,Nick_Dissertation_EX1,1,88,2020-06-02T09:29:49-07:00,1.5356090068817,3,versionC_stim.csv,READVersionC.csv,"Read Version C","Dissertation, read only version C",GOOSE,GEESE,BUFFER2,Buffer,86,89,Study,User,-,,Study/JOL,BUFFER2,1166,,,-1,-1,,,,1
5ec530f7aa5afd49a06b00a2,pl773sod28,Nick_Dissertation_EX1,1,89,2020-06-02T09:29:51-07:00,1.9604680538177,3,versionC_stim.csv,READVersionC.csv,"Read Version C","Dissertation, read only version C",SPACE,MOON,BUFFER2,Buffer,89,87,Study,User,-,,Study/JOL,BUFFER2,1570,,,-1,-1,,,,1
5ec530f7aa5afd49a06b00a2,pl773sod28,Nick_Dissertation_EX1,1,90,2020-06-02T09:29:54-07:00,2.4472000598907,3,versionC_stim.csv,READVersionC.csv,"Read Version C","Dissertation, read only version C",POLICE,SHERRIF,BUFFER2,Buffer,87,90,Study,User,-,,Study/JOL,BUFFER2,1970,,,-1,-1,,,,1
5ec530f7aa5afd49a06b00a2,pl773sod28,Nick_Dissertation_EX1,1,91,2020-06-02T09:29:55-07:00,1.8427188396454,3,versionC_stim.csv,READVersionC.csv,"Read Version C","Dissertation, read only version C",CHOCOLATE,MALT,BUFFER2,Buffer,88,88,Study,User,-,,Study/JOL,BUFFER2,1477,,,-1,-1,,,,1
5ec530f7aa5afd49a06b00a2,pl773sod28,Nick_Dissertation_EX1,1,92,2020-06-02T09:29:57-07:00,1.575355052948,3,versionC_stim.csv,READVersionC.csv,"Read Version C","Dissertation, read only version C",,,,,,0,Instruct,User,-,"You have completed this section. Please press Enter.",Filler_Instruction,Instruct2,1185,,,-1,-1,,,,1
5ec530f7aa5afd49a06b00a2,pl773sod28,Nick_Dissertation_EX1,1,93,2020-06-02T09:31:57-07:00,120.50484395027,3,versionC_stim.csv,READVersionC.csv,"Read Version C","Dissertation, read only version C",,,,,,0,FreeRecall,120,120,"Please list the 50 US states in alphabetical order. The task will automatically advance to the next screen after two minutes.",,Filler1,120001,"alabama alaska c florida hawai Idaho montana nebraska North dakota south dakota texas Utah washington",0,16677,118748,0,0,,1
5ec530f7aa5afd49a06b00a2,pl773sod28,Nick_Dissertation_EX1,1,94,2020-06-02T09:32:18-07:00,20.99612402916,3,versionC_stim.csv,READVersionC.csv,"Read Version C","Dissertation, read only version C",,,,,,0,Instruct,-,10,"You will now be presented with the first word from each of the previously studied item pairs. Please type the missing word. If you do not know the word, you may guess or press Enter to skip forward to the next pair.",,Instruct3,20546,,,-1,-1,,,,1
5ec530f7aa5afd49a06b00a2,pl773sod28,Nick_Dissertation_EX1,1,95,2020-06-02T09:32:27-07:00,8.7878110408783,3,versionC_stim.csv,READVersionC.csv,"Read Version C","Dissertation, read only version C",PLANT,ROOT,Study1,B,13,60,Test,User,-,,Recall,Recall1,8376,Green,22.222222222222,4126,7987,0,0,,1
5ec530f7aa5afd49a06b00a2,pl773sod28,Nick_Dissertation_EX1,1,96,2020-06-02T09:32:31-07:00,3.6986861228943,3,versionC_stim.csv,READVersionC.csv,"Read Version C","Dissertation, read only version C",COW,HERD,Study1,B,22,50,Test,User,-,,Recall,Recall1,3144,herd,100,1671,2095,1,1,,1
5ec530f7aa5afd49a06b00a2,pl773sod28,Nick_Dissertation_EX1,1,97,2020-06-02T09:32:36-07:00,4.6773619651794,3,versionC_stim.csv,READVersionC.csv,"Read Version C","Dissertation, read only version C",DIVISION,MATH,Study1,F,33,47,Test,User,-,,Recall,Recall1,4295,site,25,3331,3646,0,0,,1
5ec530f7aa5afd49a06b00a2,pl773sod28,Nick_Dissertation_EX1,1,98,2020-06-02T09:32:39-07:00,3.5244040489197,3,versionC_stim.csv,READVersionC.csv,"Read Version C","Dissertation, read only version C",TALK,DISCUSSION,Study1,B,21,66,Test,User,-,,Recall,Recall1,3153,word,14.285714285714,2546,2979,0,0,,1
5ec530f7aa5afd49a06b00a2,pl773sod28,Nick_Dissertation_EX1,1,99,2020-06-02T09:32:44-07:00,5.1763617992401,3,versionC_stim.csv,READVersionC.csv,"Read Version C","Dissertation, read only version C",FLOWER,ORCHID,Study1,B,24,46,Test,User,-,,Recall,Recall1,4768,pot,22.222222222222,4038,4282,0,0,,1
5ec530f7aa5afd49a06b00a2,pl773sod28,Nick_Dissertation_EX1,1,100,2020-06-02T09:32:47-07:00,2.9520812034607,3,versionC_stim.csv,READVersionC.csv,"Read Version C","Dissertation, read only version C",LIVER,KIDNEY,Study1,S,53,69,Test,User,-,,Recall,Recall1,2528,kidney,100,1335,2297,1,1,,1
5ec530f7aa5afd49a06b00a2,pl773sod28,Nick_Dissertation_EX1,1,101,2020-06-02T09:32:59-07:00,11.990176916122,3,versionC_stim.csv,READVersionC.csv,"Read Version C","Dissertation, read only version C",WASTE,DUMP,Study1,S,49,64,Test,User,-,,Recall,Recall1,11510,time,25,8787,11371,0,0,,1
5ec530f7aa5afd49a06b00a2,pl773sod28,Nick_Dissertation_EX1,1,102,2020-06-02T09:33:04-07:00,4.9694979190826,3,versionC_stim.csv,READVersionC.csv,"Read Version C","Dissertation, read only version C",FISH,TUNA,Study1,B,25,19,Test,User,-,,Recall,Recall1,4589,tuna,100,3849,4195,1,1,,1
5ec530f7aa5afd49a06b00a2,pl773sod28,Nick_Dissertation_EX1,1,103,2020-06-02T09:33:06-07:00,1.9257340431213,3,versionC_stim.csv,READVersionC.csv,"Read Version C","Dissertation, read only version C",SODA,POP,Study1,S,56,49,Test,User,-,,Recall,Recall1,1540,pop,100,971,1259,1,1,,1
5ec530f7aa5afd49a06b00a2,pl773sod28,Nick_Dissertation_EX1,1,104,2020-06-02T09:33:09-07:00,3.1067080497742,3,versionC_stim.csv,READVersionC.csv,"Read Version C","Dissertation, read only version C",TUCK,ALLOW,Study1,U,78,52,Test,User,-,,Recall,Recall1,2704,roll,44.444444444444,2034,2512,0,0,,1
5ec530f7aa5afd49a06b00a2,pl773sod28,Nick_Dissertation_EX1,1,105,2020-06-02T09:33:12-07:00,2.5102598667145,3,versionC_stim.csv,READVersionC.csv,"Read Version C","Dissertation, read only version C",SIGHT,DEBATE,Study1,U,73,13,Test,User,-,,Recall,Recall1,2115,eye,44.444444444444,1425,1732,0,0,,1
5ec530f7aa5afd49a06b00a2,pl773sod28,Nick_Dissertation_EX1,1,106,2020-06-02T09:33:14-07:00,2.411915063858,3,versionC_stim.csv,READVersionC.csv,"Read Version C","Dissertation, read only version C",CLEAN,HYGIENE,Study1,B,17,8,Test,User,-,,Recall,Recall1,2011,tidy,18.181818181818,1522,1893,0,0,,1
5ec530f7aa5afd49a06b00a2,pl773sod28,Nick_Dissertation_EX1,1,107,2020-06-02T09:33:22-07:00,7.6675789356232,3,versionC_stim.csv,READVersionC.csv,"Read Version C","Dissertation, read only version C",WORD,SENTENCE,Study1,F,31,63,Test,User,-,,Recall,Recall1,7308,play,0,1547,6960,0,0,,1
5ec530f7aa5afd49a06b00a2,pl773sod28,Nick_Dissertation_EX1,1,108,2020-06-02T09:33:26-07:00,4.5580041408539,3,versionC_stim.csv,READVersionC.csv,"Read Version C","Dissertation, read only version C",NEWS,EDITOR,Study1,B,10,14,Test,User,-,,Recall,Recall1,4145,,0,-1,-1,0,0,,1
5ec530f7aa5afd49a06b00a2,pl773sod28,Nick_Dissertation_EX1,1,109,2020-06-02T09:33:29-07:00,2.8602230548859,3,versionC_stim.csv,READVersionC.csv,"Read Version C","Dissertation, read only version C",LATCH,KEY,Study1,F,36,33,Test,User,-,,Recall,Recall1,2463,open,28.571428571429,1958,2320,0,0,,1
5ec530f7aa5afd49a06b00a2,pl773sod28,Nick_Dissertation_EX1,1,110,2020-06-02T09:33:33-07:00,4.1658918857574,3,versionC_stim.csv,READVersionC.csv,"Read Version C","Dissertation, read only version C",BIRD,SWAN,Study1,B,14,12,Test,User,-,,Recall,Recall1,3750,tree,0,1356,2276,0,0,,1
5ec530f7aa5afd49a06b00a2,pl773sod28,Nick_Dissertation_EX1,1,111,2020-06-02T09:33:38-07:00,4.3100459575653,3,versionC_stim.csv,READVersionC.csv,"Read Version C","Dissertation, read only version C",SEIZE,TAKE,Study1,F,29,72,Test,User,-,,Recall,Recall1,3924,hold,0,3238,3727,0,0,,1
5ec530f7aa5afd49a06b00a2,pl773sod28,Nick_Dissertation_EX1,1,112,2020-06-02T09:33:40-07:00,2.3730161190033,3,versionC_stim.csv,READVersionC.csv,"Read Version C","Dissertation, read only version C",CHEESE,WINE,Study1,S,57,68,Test,User,-,,Recall,Recall1,2004,wine,100,1538,1802,1,1,,1
5ec530f7aa5afd49a06b00a2,pl773sod28,Nick_Dissertation_EX1,1,113,2020-06-02T09:33:43-07:00,3.1863009929657,3,versionC_stim.csv,READVersionC.csv,"Read Version C","Dissertation, read only version C",ATTIRE,CLOTHES,Study1,F,43,17,Test,User,-,,Recall,Recall1,2794,clothes,100,1532,2367,1,1,,1
5ec530f7aa5afd49a06b00a2,pl773sod28,Nick_Dissertation_EX1,1,114,2020-06-02T09:33:47-07:00,3.4043979644775,3,versionC_stim.csv,READVersionC.csv,"Read Version C","Dissertation, read only version C",CLUTTER,PUSHER,Study1,U,66,22,Test,User,-,,Recall,Recall1,3052,messy,18.181818181818,1866,2898,0,0,,1
5ec530f7aa5afd49a06b00a2,pl773sod28,Nick_Dissertation_EX1,1,115,2020-06-02T09:33:49-07:00,2.6463050842285,3,versionC_stim.csv,READVersionC.csv,"Read Version C","Dissertation, read only version C",STENCH,SMELL,Study1,F,42,86,Test,User,-,,Recall,Recall1,2250,smell,100,1345,2079,1,1,,1
5ec530f7aa5afd49a06b00a2,pl773sod28,Nick_Dissertation_EX1,1,116,2020-06-02T09:33:53-07:00,3.7565159797668,3,versionC_stim.csv,READVersionC.csv,"Read Version C","Dissertation, read only version C",MONEY,WAGE,Study1,B,8,43,Test,User,-,,Recall,Recall1,3389,work,25,1974,3165,0,0,,1
5ec530f7aa5afd49a06b00a2,pl773sod28,Nick_Dissertation_EX1,1,117,2020-06-02T09:33:57-07:00,3.7048528194427,3,versionC_stim.csv,READVersionC.csv,"Read Version C","Dissertation, read only version C",FOOT,SHOE,Study1,S,60,36,Test,User,-,,Recall,Recall1,3345,hand,25,2738,3073,0,0,,1
5ec530f7aa5afd49a06b00a2,pl773sod28,Nick_Dissertation_EX1,1,118,2020-06-02T09:34:02-07:00,5.0929591655731,3,versionC_stim.csv,READVersionC.csv,"Read Version C","Dissertation, read only version C",CAR,HAPPY,Study1,U,77,56,Test,User,-,,Recall,Recall1,4720,drive,0,2874,4299,0,0,,1
5ec530f7aa5afd49a06b00a2,pl773sod28,Nick_Dissertation_EX1,1,119,2020-06-02T09:34:06-07:00,3.8767518997192,3,versionC_stim.csv,READVersionC.csv,"Read Version C","Dissertation, read only version C",ENOUGH,FULL,Study1,F,26,39,Test,User,-,,Recall,Recall1,3467,,0,-1,-1,0,0,,1
5ec530f7aa5afd49a06b00a2,pl773sod28,Nick_Dissertation_EX1,1,120,2020-06-02T09:34:09-07:00,2.7461581230164,3,versionC_stim.csv,READVersionC.csv,"Read Version C","Dissertation, read only version C",ROCK,GEOLOGY,Study1,B,19,54,Test,User,-,,Recall,Recall1,2401,hard,0,1862,2297,0,0,,1
5ec530f7aa5afd49a06b00a2,pl773sod28,Nick_Dissertation_EX1,1,121,2020-06-02T09:34:13-07:00,4.9228618144989,3,versionC_stim.csv,READVersionC.csv,"Read Version C","Dissertation, read only version C",DESIGN,ARCHITECTURE,Study1,S,51,82,Test,User,-,,Recall,Recall1,4539,clothes,31.578947368421,3273,4033,0,0,,1
5ec530f7aa5afd49a06b00a2,pl773sod28,Nick_Dissertation_EX1,1,122,2020-06-02T09:34:18-07:00,4.7621130943298,3,versionC_stim.csv,READVersionC.csv,"Read Version C","Dissertation, read only version C",DROWSY,SLEEP,Study1,F,41,45,Test,User,-,,Recall,Recall1,3369,tired,20,2283,2863,0,0,,1
5ec530f7aa5afd49a06b00a2,pl773sod28,Nick_Dissertation_EX1,1,123,2020-06-02T09:34:25-07:00,7.1335411071777,3,versionC_stim.csv,READVersionC.csv,"Read Version C","Dissertation, read only version C",TOILET,BATHROOM,Study1,S,58,34,Test,User,-,,Recall,Recall1,6757,sink,0,5396,5763,0,0,,1
5ec530f7aa5afd49a06b00a2,pl773sod28,Nick_Dissertation_EX1,1,124,2020-06-02T09:34:29-07:00,3.4793329238892,3,versionC_stim.csv,READVersionC.csv,"Read Version C","Dissertation, read only version C",BEE,HONEY,Study1,S,63,80,Test,User,-,,Recall,Recall1,3098,sting,20,1940,2620,0,0,,1
5ec530f7aa5afd49a06b00a2,pl773sod28,Nick_Dissertation_EX1,1,125,2020-06-02T09:34:31-07:00,2.3666679859161,3,versionC_stim.csv,READVersionC.csv,"Read Version C","Dissertation, read only version C",BLAZE,FIRE,Study1,F,45,65,Test,User,-,,Recall,Recall1,1989,fire,100,1485,1799,1,1,,1
5ec530f7aa5afd49a06b00a2,pl773sod28,Nick_Dissertation_EX1,1,126,2020-06-02T09:34:37-07:00,5.3656280040741,3,versionC_stim.csv,READVersionC.csv,"Read Version C","Dissertation, read only version C",JURY,TRIAL,Study1,S,50,20,Test,User,-,,Recall,Recall1,5005,trial,100,2680,4717,1,1,,1
5ec530f7aa5afd49a06b00a2,pl773sod28,Nick_Dissertation_EX1,1,127,2020-06-02T09:34:41-07:00,4.5497269630432,3,versionC_stim.csv,READVersionC.csv,"Read Version C","Dissertation, read only version C",CARD,CREDIT,Study1,B,23,55,Test,User,-,,Recall,Recall1,3177,credit,100,1773,2646,1,1,,1
5ec530f7aa5afd49a06b00a2,pl773sod28,Nick_Dissertation_EX1,1,128,2020-06-02T09:34:46-07:00,4.4101409912109,3,versionC_stim.csv,READVersionC.csv,"Read Version C","Dissertation, read only version C",WAR,REVOLUTION,Study1,B,20,67,Test,User,-,,Recall,Recall1,4053,revolution,100,2154,3648,1,1,,1
5ec530f7aa5afd49a06b00a2,pl773sod28,Nick_Dissertation_EX1,1,129,2020-06-02T09:34:49-07:00,3.7371189594269,3,versionC_stim.csv,READVersionC.csv,"Read Version C","Dissertation, read only version C",SIP,DRINK,Study1,F,27,57,Test,User,-,,Recall,Recall1,3337,drink,100,1869,3028,1,1,,1
5ec530f7aa5afd49a06b00a2,pl773sod28,Nick_Dissertation_EX1,1,130,2020-06-02T09:34:52-07:00,2.3434340953827,3,versionC_stim.csv,READVersionC.csv,"Read Version C","Dissertation, read only version C",ATTORNEY,LAW,Study1,F,34,59,Test,User,-,,Recall,Recall1,1973,law,100,1167,1503,1,1,,1
5ec530f7aa5afd49a06b00a2,pl773sod28,Nick_Dissertation_EX1,1,131,2020-06-02T09:34:58-07:00,6.5206649303436,3,versionC_stim.csv,READVersionC.csv,"Read Version C","Dissertation, read only version C",CAVE,DARK,Study1,F,28,78,Test,User,-,,Recall,Recall1,6116,dark,100,5477,5929,1,1,,1
5ec530f7aa5afd49a06b00a2,pl773sod28,Nick_Dissertation_EX1,1,132,2020-06-02T09:35:03-07:00,4.5949161052704,3,versionC_stim.csv,READVersionC.csv,"Read Version C","Dissertation, read only version C",WOMAN,LIFT,Study1,U,69,53,Test,User,-,,Recall,Recall1,4218,,0,2409,2580,0,0,,1
5ec530f7aa5afd49a06b00a2,pl773sod28,Nick_Dissertation_EX1,1,133,2020-06-02T09:35:06-07:00,3.4277589321136,3,versionC_stim.csv,READVersionC.csv,"Read Version C","Dissertation, read only version C",BAR,GRILL,Study1,S,52,27,Test,User,-,,Recall,Recall1,3033,drink,40,2225,2788,0,0,,1
5ec530f7aa5afd49a06b00a2,pl773sod28,Nick_Dissertation_EX1,1,134,2020-06-02T09:35:09-07:00,2.8821439743042,3,versionC_stim.csv,READVersionC.csv,"Read Version C","Dissertation, read only version C",STING,HORNET,Study1,B,11,41,Test,User,-,,Recall,Recall1,2485,wasp,0,1486,2172,0,0,,1
5ec530f7aa5afd49a06b00a2,pl773sod28,Nick_Dissertation_EX1,1,135,2020-06-02T09:35:12-07:00,3.2630181312561,3,versionC_stim.csv,READVersionC.csv,"Read Version C","Dissertation, read only version C",ASSIGNMENT,DUE,Study1,S,46,84,Test,User,-,,Recall,Recall1,2874,due,100,2266,2500,1,1,,1
5ec530f7aa5afd49a06b00a2,pl773sod28,Nick_Dissertation_EX1,1,136,2020-06-02T09:35:24-07:00,11.78800702095,3,versionC_stim.csv,READVersionC.csv,"Read Version C","Dissertation, read only version C",BELT,SOON,Study1,U,70,51,Test,User,-,,Recall,Recall1,11337,soon,100,3009,3631,1,1,,1
5ec530f7aa5afd49a06b00a2,pl773sod28,Nick_Dissertation_EX1,1,137,2020-06-02T09:35:28-07:00,4.1712439060211,3,versionC_stim.csv,READVersionC.csv,"Read Version C","Dissertation, read only version C",SALAD,LETTUCE,Study1,S,59,23,Test,User,-,,Recall,Recall1,3752,dressing,13.333333333333,2465,3602,0,0,,1
5ec530f7aa5afd49a06b00a2,pl773sod28,Nick_Dissertation_EX1,1,138,2020-06-02T09:35:31-07:00,2.775899887085,3,versionC_stim.csv,READVersionC.csv,"Read Version C","Dissertation, read only version C",BUSINESS,DEATH,Study1,U,72,30,Test,User,-,,Recall,Recall1,2350,work,0,1871,2174,0,0,,1
5ec530f7aa5afd49a06b00a2,pl773sod28,Nick_Dissertation_EX1,1,139,2020-06-02T09:35:33-07:00,2.3596050739288,3,versionC_stim.csv,READVersionC.csv,"Read Version C","Dissertation, read only version C",WATER,BRIDGE,Study1,B,18,10,Test,User,-,,Recall,Recall1,1958,drink,36.363636363636,1223,1776,0,0,,1
5ec530f7aa5afd49a06b00a2,pl773sod28,Nick_Dissertation_EX1,1,140,2020-06-02T09:35:36-07:00,2.4857220649719,3,versionC_stim.csv,READVersionC.csv,"Read Version C","Dissertation, read only version C",RIDDLE,SUGAR,Study1,U,81,70,Test,User,-,,Recall,Recall1,2116,joke,0,1573,2045,0,0,,1
5ec530f7aa5afd49a06b00a2,pl773sod28,Nick_Dissertation_EX1,1,141,2020-06-02T09:35:40-07:00,4.3865029811859,3,versionC_stim.csv,READVersionC.csv,"Read Version C","Dissertation, read only version C",CHILI,HOT,Study1,F,37,44,Test,User,-,,Recall,Recall1,3985,hot,100,1485,3814,1,1,,1
5ec530f7aa5afd49a06b00a2,pl773sod28,Nick_Dissertation_EX1,1,142,2020-06-02T09:35:43-07:00,2.7127439975739,3,versionC_stim.csv,READVersionC.csv,"Read Version C","Dissertation, read only version C",SICK,HIDE,Study1,U,84,77,Test,User,-,,Recall,Recall1,2290,tired,44.444444444444,1645,2198,0,0,,1
5ec530f7aa5afd49a06b00a2,pl773sod28,Nick_Dissertation_EX1,1,143,2020-06-02T09:35:53-07:00,10.295059919357,3,versionC_stim.csv,READVersionC.csv,"Read Version C","Dissertation, read only version C",FANTASTIC,GREAT,Study1,F,35,81,Test,User,-,,Recall,Recall1,9820,awesome,16.666666666667,8380,9474,0,0,,1
5ec530f7aa5afd49a06b00a2,pl773sod28,Nick_Dissertation_EX1,1,144,2020-06-02T09:35:58-07:00,4.3976099491119,3,versionC_stim.csv,READVersionC.csv,"Read Version C","Dissertation, read only version C",HUNGRY,PARK,Study1,U,68,58,Test,User,-,,Recall,Recall1,3976,eat,28.571428571429,2566,2921,0,0,,1
5ec530f7aa5afd49a06b00a2,pl773sod28,Nick_Dissertation_EX1,1,145,2020-06-02T09:36:02-07:00,3.9852821826935,3,versionC_stim.csv,READVersionC.csv,"Read Version C","Dissertation, read only version C",SACKING,DIETARY,Study1,U,67,48,Test,User,-,,Recall,Recall1,3597,,0,-1,-1,0,0,,1
5ec530f7aa5afd49a06b00a2,pl773sod28,Nick_Dissertation_EX1,1,146,2020-06-02T09:36:05-07:00,3.4028618335724,3,versionC_stim.csv,READVersionC.csv,"Read Version C","Dissertation, read only version C",ADD,VALLEY,Study1,U,82,32,Test,User,-,,Recall,Recall1,2987,subtract,14.285714285714,1457,2791,0,0,,1
5ec530f7aa5afd49a06b00a2,pl773sod28,Nick_Dissertation_EX1,1,147,2020-06-02T09:36:10-07:00,5.0230209827423,3,versionC_stim.csv,READVersionC.csv,"Read Version C","Dissertation, read only version C",STOMACH,DIGESTION,Study1,B,7,73,Test,User,-,,Recall,Recall1,4633,ache,15.384615384615,3697,4112,0,0,,1
5ec530f7aa5afd49a06b00a2,pl773sod28,Nick_Dissertation_EX1,1,148,2020-06-02T09:36:12-07:00,2.4135310649872,3,versionC_stim.csv,READVersionC.csv,"Read Version C","Dissertation, read only version C",HAND,FIX,Study1,U,75,85,Test,User,-,,Recall,Recall1,2011,foot,28.571428571429,1219,1793,0,0,,1
5ec530f7aa5afd49a06b00a2,pl773sod28,Nick_Dissertation_EX1,1,149,2020-06-02T09:36:15-07:00,2.4624030590057,3,versionC_stim.csv,READVersionC.csv,"Read Version C","Dissertation, read only version C",CHORE,WORK,Study1,F,39,42,Test,User,-,,Recall,Recall1,2086,work,100,1288,1852,1,1,,1
5ec530f7aa5afd49a06b00a2,pl773sod28,Nick_Dissertation_EX1,1,150,2020-06-02T09:36:18-07:00,2.7072229385376,3,versionC_stim.csv,READVersionC.csv,"Read Version C","Dissertation, read only version C",CHILD,BABY,Study1,S,64,62,Test,User,-,,Recall,Recall1,2170,baby,100,1222,1844,1,1,,1
5ec530f7aa5afd49a06b00a2,pl773sod28,Nick_Dissertation_EX1,1,151,2020-06-02T09:36:22-07:00,4.2860081195831,3,versionC_stim.csv,READVersionC.csv,"Read Version C","Dissertation, read only version C",WIND,BLOW,Study1,S,55,31,Test,User,-,,Recall,Recall1,3888,sun,0,3296,3609,0,0,,1
5ec530f7aa5afd49a06b00a2,pl773sod28,Nick_Dissertation_EX1,1,152,2020-06-02T09:36:26-07:00,4.1452419757843,3,versionC_stim.csv,READVersionC.csv,"Read Version C","Dissertation, read only version C",OUT,WAY,Study1,B,16,9,Test,User,-,,Recall,Recall1,3736,in,0,3464,3549,0,0,,1
5ec530f7aa5afd49a06b00a2,pl773sod28,Nick_Dissertation_EX1,1,153,2020-06-02T09:36:34-07:00,8.368262052536,3,versionC_stim.csv,READVersionC.csv,"Read Version C","Dissertation, read only version C",BAD,DELINQUENT,Study1,B,6,21,Test,User,-,,Recall,Recall1,7990,work,0,7475,7773,0,0,,1
5ec530f7aa5afd49a06b00a2,pl773sod28,Nick_Dissertation_EX1,1,154,2020-06-02T09:36:39-07:00,4.576180934906,3,versionC_stim.csv,READVersionC.csv,"Read Version C","Dissertation, read only version C",DOG,PAW,Study1,B,15,75,Test,User,-,,Recall,Recall1,2501,cat,33.333333333333,1769,2081,0,0,,1
5ec530f7aa5afd49a06b00a2,pl773sod28,Nick_Dissertation_EX1,1,155,2020-06-02T09:36:42-07:00,2.8046729564667,3,versionC_stim.csv,READVersionC.csv,"Read Version C","Dissertation, read only version C",AMOUNT,NUMBER,Study1,S,47,74,Test,User,-,,Recall,Recall1,2416,money,36.363636363636,1836,2262,0,0,,1
5ec530f7aa5afd49a06b00a2,pl773sod28,Nick_Dissertation_EX1,1,156,2020-06-02T09:36:44-07:00,2.0924079418182,3,versionC_stim.csv,READVersionC.csv,"Read Version C","Dissertation, read only version C",FUTURE,PAST,Study1,S,61,18,Test,User,-,,Recall,Recall1,1706,past,100,1077,1581,1,1,,1
5ec530f7aa5afd49a06b00a2,pl773sod28,Nick_Dissertation_EX1,1,157,2020-06-02T09:36:48-07:00,3.7397720813751,3,versionC_stim.csv,READVersionC.csv,"Read Version C","Dissertation, read only version C",HAMMER,CHISEL,Study1,B,9,26,Test,User,-,,Recall,Recall1,3365,chisel,100,1358,2124,1,1,,1
5ec530f7aa5afd49a06b00a2,pl773sod28,Nick_Dissertation_EX1,1,158,2020-06-02T09:36:50-07:00,2.3590619564056,3,versionC_stim.csv,READVersionC.csv,"Read Version C","Dissertation, read only version C",VASE,KING,Study1,U,85,11,Test,User,-,,Recall,Recall1,1990,plant,22.222222222222,1299,1852,0,0,,1
5ec530f7aa5afd49a06b00a2,pl773sod28,Nick_Dissertation_EX1,1,159,2020-06-02T09:36:52-07:00,2.163253068924,3,versionC_stim.csv,READVersionC.csv,"Read Version C","Dissertation, read only version C",COLD,BITTER,Study1,B,12,24,Test,User,-,,Recall,Recall1,1781,warm,20,1151,1651,0,0,,1
5ec530f7aa5afd49a06b00a2,pl773sod28,Nick_Dissertation_EX1,1,160,2020-06-02T09:36:55-07:00,2.7800979614258,3,versionC_stim.csv,READVersionC.csv,"Read Version C","Dissertation, read only version C",ROUND,CIRCLE,Study1,S,65,15,Test,User,-,,Recall,Recall1,2423,circle,100,1163,2024,1,1,,1
5ec530f7aa5afd49a06b00a2,pl773sod28,Nick_Dissertation_EX1,1,161,2020-06-02T09:36:58-07:00,2.7207820415497,3,versionC_stim.csv,READVersionC.csv,"Read Version C","Dissertation, read only version C",POSITION,MACHINE,Study1,U,76,71,Test,User,-,,Recall,Recall1,2356,place,50,1729,2253,0,0,,1
5ec530f7aa5afd49a06b00a2,pl773sod28,Nick_Dissertation_EX1,1,162,2020-06-02T09:37:00-07:00,2.7636690139771,3,versionC_stim.csv,READVersionC.csv,"Read Version C","Dissertation, read only version C",SITE,LOCATION,Study1,S,48,16,Test,User,-,,Recall,Recall1,2362,location,100,1110,2006,1,1,,1
5ec530f7aa5afd49a06b00a2,pl773sod28,Nick_Dissertation_EX1,1,163,2020-06-02T09:37:04-07:00,3.6096479892731,3,versionC_stim.csv,READVersionC.csv,"Read Version C","Dissertation, read only version C",LION,ART,Study1,U,79,37,Test,User,-,,Recall,Recall1,3223,tiger,25,2601,3098,0,0,,1
5ec530f7aa5afd49a06b00a2,pl773sod28,Nick_Dissertation_EX1,1,164,2020-06-02T09:37:09-07:00,5.0644929409027,3,versionC_stim.csv,READVersionC.csv,"Read Version C","Dissertation, read only version C",ACCIDENT,STRONG,Study1,U,80,38,Test,User,-,,Recall,Recall1,4644,injury,16.666666666667,3117,4052,0,0,,1
5ec530f7aa5afd49a06b00a2,pl773sod28,Nick_Dissertation_EX1,1,165,2020-06-02T09:37:13-07:00,3.5034620761871,3,versionC_stim.csv,READVersionC.csv,"Read Version C","Dissertation, read only version C",FLOOR,DISCOVER,Study1,U,71,40,Test,User,-,,Recall,Recall1,3116,wall,0,2420,2908,0,0,,1
5ec530f7aa5afd49a06b00a2,pl773sod28,Nick_Dissertation_EX1,1,166,2020-06-02T09:37:18-07:00,5.812029838562,3,versionC_stim.csv,READVersionC.csv,"Read Version C","Dissertation, read only version C",PILOT,PLANE,Study1,F,44,7,Test,User,-,,Recall,Recall1,5414,plane,100,2602,4334,1,1,,1
5ec530f7aa5afd49a06b00a2,pl773sod28,Nick_Dissertation_EX1,1,167,2020-06-02T09:37:20-07:00,2.0324079990387,3,versionC_stim.csv,READVersionC.csv,"Read Version C","Dissertation, read only version C",RACKET,BALL,Study1,F,38,79,Test,User,-,,Recall,Recall1,1666,ball,100,1021,1473,1,1,,1
5ec530f7aa5afd49a06b00a2,pl773sod28,Nick_Dissertation_EX1,1,168,2020-06-02T09:37:39-07:00,18.796845197678,3,versionC_stim.csv,READVersionC.csv,"Read Version C","Dissertation, read only version C",BRONZE,ARTERY,Study1,U,74,28,Test,User,-,,Recall,Recall1,18315,vein,20,3459,6283,0,0,,0.932
5ec530f7aa5afd49a06b00a2,pl773sod28,Nick_Dissertation_EX1,1,169,2020-06-02T09:37:43-07:00,3.5877587795258,3,versionC_stim.csv,READVersionC.csv,"Read Version C","Dissertation, read only version C",DEFINITION,MEANING,Study1,S,62,61,Test,User,-,,Recall,Recall1,3177,word,0,2683,3082,0,0,,1
5ec530f7aa5afd49a06b00a2,pl773sod28,Nick_Dissertation_EX1,1,170,2020-06-02T09:37:45-07:00,2.5082681179047,3,versionC_stim.csv,READVersionC.csv,"Read Version C","Dissertation, read only version C",WASP,BUG,Study1,F,32,83,Test,User,-,,Recall,Recall1,2122,sting,25,1094,1748,0,0,,1
5ec530f7aa5afd49a06b00a2,pl773sod28,Nick_Dissertation_EX1,1,171,2020-06-02T09:37:49-07:00,3.1514220237732,3,versionC_stim.csv,READVersionC.csv,"Read Version C","Dissertation, read only version C",FAMINE,HUNGER,Study1,F,40,35,Test,User,-,,Recall,Recall1,2780,hunger,100,1998,2678,1,1,,1
5ec530f7aa5afd49a06b00a2,pl773sod28,Nick_Dissertation_EX1,1,172,2020-06-02T09:37:52-07:00,3.2741439342499,3,versionC_stim.csv,READVersionC.csv,"Read Version C","Dissertation, read only version C",END,BEGIN,Study1,S,54,29,Test,User,-,,Recall,Recall1,2875,begin,100,1790,2380,1,1,,1
5ec530f7aa5afd49a06b00a2,pl773sod28,Nick_Dissertation_EX1,1,173,2020-06-02T09:37:55-07:00,3.0570471286774,3,versionC_stim.csv,READVersionC.csv,"Read Version C","Dissertation, read only version C",WOULD,CASH,Study1,U,83,76,Test,User,-,,Recall,Recall1,1789,could,22.222222222222,1090,1494,0,0,,1
5ec530f7aa5afd49a06b00a2,pl773sod28,Nick_Dissertation_EX1,1,174,2020-06-02T09:38:05-07:00,9.9203078746796,3,versionC_stim.csv,READVersionC.csv,"Read Version C","Dissertation, read only version C",GROWTH,HEIGHT,Study1,F,30,25,Test,User,-,,Recall,Recall1,9436,height,100,2279,9031,1,1,,1
5ec530f7aa5afd49a06b00a2,pl773sod28,Nick_Dissertation_EX1,1,175,2020-06-02T09:38:57-07:00,52.23508810997,3,versionC_stim.csv,READVersionC.csv,"Read Version C","Dissertation, read only version C",,,,,,0,Instruct,-,10,"You will now be presented with a new set of word pairs. Please study each pair. Remember that your memory will be tested! When finished, press Enter to move to the next pair.",Initial_Instruct,Instruct4,51783,,,-1,-1,,,,1
5ec530f7aa5afd49a06b00a2,pl773sod28,Nick_Dissertation_EX1,1,176,2020-06-02T09:39:00-07:00,2.5699770450592,3,versionC_stim.csv,READVersionC.csv,"Read Version C","Dissertation, read only version C",FROZEN,ICE,BUFFER3,Buffer,94,92,Study,User,-,,Study/JOL,BUFFER3,2193,,,-1,-1,,,,1
5ec530f7aa5afd49a06b00a2,pl773sod28,Nick_Dissertation_EX1,1,177,2020-06-02T09:39:01-07:00,1.8821167945862,3,versionC_stim.csv,READVersionC.csv,"Read Version C","Dissertation, read only version C",POTATO,CARROT,BUFFER3,Buffer,91,93,Study,User,-,,Study/JOL,BUFFER3,1504,,,-1,-1,,,,1
5ec530f7aa5afd49a06b00a2,pl773sod28,Nick_Dissertation_EX1,1,178,2020-06-02T09:39:04-07:00,2.0662801265717,3,versionC_stim.csv,READVersionC.csv,"Read Version C","Dissertation, read only version C",ADVENTURE,CAMP,BUFFER3,Buffer,95,95,Study,User,-,,Study/JOL,BUFFER3,1712,,,-1,-1,,,,1
5ec530f7aa5afd49a06b00a2,pl773sod28,Nick_Dissertation_EX1,1,179,2020-06-02T09:39:07-07:00,3.285835981369,3,versionC_stim.csv,READVersionC.csv,"Read Version C","Dissertation, read only version C",STRING,NOODLE,BUFFER3,Buffer,92,94,Study,User,-,,Study/JOL,BUFFER3,2921,,,-1,-1,,,,1
5ec530f7aa5afd49a06b00a2,pl773sod28,Nick_Dissertation_EX1,1,180,2020-06-02T09:39:12-07:00,5.151468038559,3,versionC_stim.csv,READVersionC.csv,"Read Version C","Dissertation, read only version C",FISH,SHRIMP,BUFFER3,Buffer,93,96,Study,User,-,,Study/JOL,BUFFER3,4788,,,-1,-1,,,,1
5ec530f7aa5afd49a06b00a2,pl773sod28,Nick_Dissertation_EX1,1,181,2020-06-02T09:39:15-07:00,2.9249739646912,3,versionC_stim.csv,READVersionC.csv,"Read Version C","Dissertation, read only version C",PAPER,DOCUMENT,Study2,B,109,124,Study,User,-,,Study/JOL,"Study Phase2",2551,,,-1,-1,,,,1
5ec530f7aa5afd49a06b00a2,pl773sod28,Nick_Dissertation_EX1,1,182,2020-06-02T09:39:18-07:00,2.7891099452972,3,versionC_stim.csv,READVersionC.csv,"Read Version C","Dissertation, read only version C",SARDINE,FISH,Study2,F,130,155,Study,User,-,,Study/JOL,"Study Phase2",2419,,,-1,-1,,,,1
5ec530f7aa5afd49a06b00a2,pl773sod28,Nick_Dissertation_EX1,1,183,2020-06-02T09:39:20-07:00,2.8064520359039,3,versionC_stim.csv,READVersionC.csv,"Read Version C","Dissertation, read only version C",LONG,EXTENSION,Study2,B,96,141,Study,User,-,,Study/JOL,"Study Phase2",2416,,,-1,-1,,,,1
5ec530f7aa5afd49a06b00a2,pl773sod28,Nick_Dissertation_EX1,1,184,2020-06-02T09:39:28-07:00,7.9297559261322,3,versionC_stim.csv,READVersionC.csv,"Read Version C","Dissertation, read only version C",AIRCRAFT,PLANE,Study2,F,129,125,Study,User,-,,Study/JOL,"Study Phase2",7572,,,-1,-1,,,,1
5ec530f7aa5afd49a06b00a2,pl773sod28,Nick_Dissertation_EX1,1,185,2020-06-02T09:39:31-07:00,2.9995770454407,3,versionC_stim.csv,READVersionC.csv,"Read Version C","Dissertation, read only version C",CARBON,ELEMENT,Study2,S,141,172,Study,User,-,,Study/JOL,"Study Phase2",2620,,,-1,-1,,,,1
5ec530f7aa5afd49a06b00a2,pl773sod28,Nick_Dissertation_EX1,1,186,2020-06-02T09:39:33-07:00,1.8480219841003,3,versionC_stim.csv,READVersionC.csv,"Read Version C","Dissertation, read only version C",CUT,CHOP,Study2,B,107,129,Study,User,-,,Study/JOL,"Study Phase2",1484,,,-1,-1,,,,1
5ec530f7aa5afd49a06b00a2,pl773sod28,Nick_Dissertation_EX1,1,187,2020-06-02T09:39:35-07:00,1.9994111061096,3,versionC_stim.csv,READVersionC.csv,"Read Version C","Dissertation, read only version C",TIE,SHOELACE,Study2,B,99,130,Study,User,-,,Study/JOL,"Study Phase2",1637,,,-1,-1,,,,1
5ec530f7aa5afd49a06b00a2,pl773sod28,Nick_Dissertation_EX1,1,188,2020-06-02T09:39:38-07:00,2.9493880271912,3,versionC_stim.csv,READVersionC.csv,"Read Version C","Dissertation, read only version C",OBTAIN,MEAT,Study2,U,161,144,Study,User,-,,Study/JOL,"Study Phase2",2570,,,-1,-1,,,,1
5ec530f7aa5afd49a06b00a2,pl773sod28,Nick_Dissertation_EX1,1,189,2020-06-02T09:39:43-07:00,4.4087657928467,3,versionC_stim.csv,READVersionC.csv,"Read Version C","Dissertation, read only version C",OUNCE,BOTH,Study2,U,172,142,Study,User,-,,Study/JOL,"Study Phase2",4033,,,-1,-1,,,,1
5ec530f7aa5afd49a06b00a2,pl773sod28,Nick_Dissertation_EX1,1,190,2020-06-02T09:39:45-07:00,2.4615080356598,3,versionC_stim.csv,READVersionC.csv,"Read Version C","Dissertation, read only version C",BALLOON,POP,Study2,F,123,107,Study,User,-,,Study/JOL,"Study Phase2",2078,,,-1,-1,,,,1
5ec530f7aa5afd49a06b00a2,pl773sod28,Nick_Dissertation_EX1,1,191,2020-06-02T09:39:47-07:00,1.9521989822388,3,versionC_stim.csv,READVersionC.csv,"Read Version C","Dissertation, read only version C",REEL,ROD,Study2,S,150,173,Study,User,-,,Study/JOL,"Study Phase2",1559,,,-1,-1,,,,1
5ec530f7aa5afd49a06b00a2,pl773sod28,Nick_Dissertation_EX1,1,192,2020-06-02T09:39:51-07:00,3.794517993927,3,versionC_stim.csv,READVersionC.csv,"Read Version C","Dissertation, read only version C",FICTION,LISTEN,Study2,U,164,117,Study,User,-,,Study/JOL,"Study Phase2",3427,,,-1,-1,,,,1
5ec530f7aa5afd49a06b00a2,pl773sod28,Nick_Dissertation_EX1,1,193,2020-06-02T09:39:53-07:00,2.469544172287,3,versionC_stim.csv,READVersionC.csv,"Read Version C","Dissertation, read only version C",ACTRESS,STAR,Study2,F,120,140,Study,User,-,,Study/JOL,"Study Phase2",2083,,,-1,-1,,,,1
5ec530f7aa5afd49a06b00a2,pl773sod28,Nick_Dissertation_EX1,1,194,2020-06-02T09:39:57-07:00,3.4663739204407,3,versionC_stim.csv,READVersionC.csv,"Read Version C","Dissertation, read only version C",MAROON,JUSTICE,Study2,U,156,133,Study,User,-,,Study/JOL,"Study Phase2",3067,,,-1,-1,,,,1
5ec530f7aa5afd49a06b00a2,pl773sod28,Nick_Dissertation_EX1,1,195,2020-06-02T09:39:59-07:00,2.0020370483398,3,versionC_stim.csv,READVersionC.csv,"Read Version C","Dissertation, read only version C",SHAVE,RAZOR,Study2,S,136,121,Study,User,-,,Study/JOL,"Study Phase2",1622,,,-1,-1,,,,1
5ec530f7aa5afd49a06b00a2,pl773sod28,Nick_Dissertation_EX1,1,196,2020-06-02T09:40:01-07:00,2.5479528903961,3,versionC_stim.csv,READVersionC.csv,"Read Version C","Dissertation, read only version C",PLANT,CACTUS,Study2,B,98,138,Study,User,-,,Study/JOL,"Study Phase2",2158,,,-1,-1,,,,1
5ec530f7aa5afd49a06b00a2,pl773sod28,Nick_Dissertation_EX1,1,197,2020-06-02T09:40:07-07:00,5.9912450313568,3,versionC_stim.csv,READVersionC.csv,"Read Version C","Dissertation, read only version C",REVENGE,EVEN,Study2,F,122,123,Study,User,-,,Study/JOL,"Study Phase2",5605,,,-1,-1,,,,1
5ec530f7aa5afd49a06b00a2,pl773sod28,Nick_Dissertation_EX1,1,198,2020-06-02T09:40:09-07:00,1.9051461219788,3,versionC_stim.csv,READVersionC.csv,"Read Version C","Dissertation, read only version C",HEAD,SCALP,Study2,B,105,167,Study,User,-,,Study/JOL,"Study Phase2",1548,,,-1,-1,,,,1
5ec530f7aa5afd49a06b00a2,pl773sod28,Nick_Dissertation_EX1,1,199,2020-06-02T09:40:12-07:00,2.5391738414764,3,versionC_stim.csv,READVersionC.csv,"Read Version C","Dissertation, read only version C",BRAWL,FIGHT,Study2,F,135,145,Study,User,-,,Study/JOL,"Study Phase2",2186,,,-1,-1,,,,1
5ec530f7aa5afd49a06b00a2,pl773sod28,Nick_Dissertation_EX1,1,200,2020-06-02T09:40:16-07:00,4.0439050197601,3,versionC_stim.csv,READVersionC.csv,"Read Version C","Dissertation, read only version C",ELECTION,MAZE,Study2,U,159,111,Study,User,-,,Study/JOL,"Study Phase2",3673,,,-1,-1,,,,1
5ec530f7aa5afd49a06b00a2,pl773sod28,Nick_Dissertation_EX1,1,201,2020-06-02T09:40:18-07:00,2.4899611473083,3,versionC_stim.csv,READVersionC.csv,"Read Version C","Dissertation, read only version C",BANKER,MONEY,Study2,F,132,116,Study,User,-,,Study/JOL,"Study Phase2",2094,,,-1,-1,,,,1
5ec530f7aa5afd49a06b00a2,pl773sod28,Nick_Dissertation_EX1,1,202,2020-06-02T09:40:20-07:00,2.0472450256348,3,versionC_stim.csv,READVersionC.csv,"Read Version C","Dissertation, read only version C",LONELY,ALONE,Study2,S,145,158,Study,User,-,,Study/JOL,"Study Phase2",1662,,,-1,-1,,,,1
5ec530f7aa5afd49a06b00a2,pl773sod28,Nick_Dissertation_EX1,1,203,2020-06-02T09:40:24-07:00,3.567923784256,3,versionC_stim.csv,READVersionC.csv,"Read Version C","Dissertation, read only version C",CLEAR,MOAT,Study2,U,169,169,Study,User,-,,Study/JOL,"Study Phase2",3183,,,-1,-1,,,,1
5ec530f7aa5afd49a06b00a2,pl773sod28,Nick_Dissertation_EX1,1,204,2020-06-02T09:40:26-07:00,2.2747139930725,3,versionC_stim.csv,READVersionC.csv,"Read Version C","Dissertation, read only version C",MYSTERY,DETECTIVE,Study2,B,100,170,Study,User,-,,Study/JOL,"Study Phase2",1807,,,-1,-1,,,,1
5ec530f7aa5afd49a06b00a2,pl773sod28,Nick_Dissertation_EX1,1,205,2020-06-02T09:40:28-07:00,1.9615960121155,3,versionC_stim.csv,READVersionC.csv,"Read Version C","Dissertation, read only version C",COLD,CHILL,Study2,B,114,150,Study,User,-,,Study/JOL,"Study Phase2",1556,,,-1,-1,,,,1
5ec530f7aa5afd49a06b00a2,pl773sod28,Nick_Dissertation_EX1,1,206,2020-06-02T09:40:30-07:00,2.1406621932983,3,versionC_stim.csv,READVersionC.csv,"Read Version C","Dissertation, read only version C",CLOTHES,CAKE,Study2,U,166,137,Study,User,-,,Study/JOL,"Study Phase2",1752,,,-1,-1,,,,1
5ec530f7aa5afd49a06b00a2,pl773sod28,Nick_Dissertation_EX1,1,207,2020-06-02T09:40:32-07:00,2.140969991684,3,versionC_stim.csv,READVersionC.csv,"Read Version C","Dissertation, read only version C",SHAKE,Shell,Study2,U,163,160,Study,User,-,,Study/JOL,"Study Phase2",1773,,,-1,-1,,,,1
5ec530f7aa5afd49a06b00a2,pl773sod28,Nick_Dissertation_EX1,1,208,2020-06-02T09:40:38-07:00,6.0201618671417,3,versionC_stim.csv,READVersionC.csv,"Read Version C","Dissertation, read only version C",JAR,MASON,Study2,S,138,99,Study,User,-,,Study/JOL,"Study Phase2",5026,,,-1,-1,,,,1
5ec530f7aa5afd49a06b00a2,pl773sod28,Nick_Dissertation_EX1,1,209,2020-06-02T09:40:41-07:00,2.7205259799957,3,versionC_stim.csv,READVersionC.csv,"Read Version C","Dissertation, read only version C",GAME,CLUE,Study2,B,97,105,Study,User,-,,Study/JOL,"Study Phase2",2323,,,-1,-1,,,,1
5ec530f7aa5afd49a06b00a2,pl773sod28,Nick_Dissertation_EX1,1,210,2020-06-02T09:40:45-07:00,3.3434460163116,3,versionC_stim.csv,READVersionC.csv,"Read Version C","Dissertation, read only version C",BANG,FUZZY,Study2,U,168,148,Study,User,-,,Study/JOL,"Study Phase2",2893,,,-1,-1,,,,1
5ec530f7aa5afd49a06b00a2,pl773sod28,Nick_Dissertation_EX1,1,211,2020-06-02T09:40:46-07:00,1.5594811439514,3,versionC_stim.csv,READVersionC.csv,"Read Version C","Dissertation, read only version C",FLIP,TURN,Study2,F,116,106,Study,User,-,,Study/JOL,"Study Phase2",1158,,,-1,-1,,,,1
5ec530f7aa5afd49a06b00a2,pl773sod28,Nick_Dissertation_EX1,1,212,2020-06-02T09:40:48-07:00,1.4752199649811,3,versionC_stim.csv,READVersionC.csv,"Read Version C","Dissertation, read only version C",WET,DRY,Study2,S,146,152,Study,User,-,,Study/JOL,"Study Phase2",1080,,,-1,-1,,,,1
5ec530f7aa5afd49a06b00a2,pl773sod28,Nick_Dissertation_EX1,1,213,2020-06-02T09:40:49-07:00,1.8499109745026,3,versionC_stim.csv,READVersionC.csv,"Read Version C","Dissertation, read only version C",BREAKABLE,GLASS,Study2,F,127,104,Study,User,-,,Study/JOL,"Study Phase2",1455,,,-1,-1,,,,1
5ec530f7aa5afd49a06b00a2,pl773sod28,Nick_Dissertation_EX1,1,214,2020-06-02T09:40:52-07:00,2.1314790248871,3,versionC_stim.csv,READVersionC.csv,"Read Version C","Dissertation, read only version C",END,ADJOURN,Study2,B,101,134,Study,User,-,,Study/JOL,"Study Phase2",1745,,,-1,-1,,,,1
5ec530f7aa5afd49a06b00a2,pl773sod28,Nick_Dissertation_EX1,1,215,2020-06-02T09:40:53-07:00,1.6182088851929,3,versionC_stim.csv,READVersionC.csv,"Read Version C","Dissertation, read only version C",NAP,SLEEP,Study2,F,134,128,Study,User,-,,Study/JOL,"Study Phase2",1262,,,-1,-1,,,,1
5ec530f7aa5afd49a06b00a2,pl773sod28,Nick_Dissertation_EX1,1,216,2020-06-02T09:40:55-07:00,1.9054989814758,3,versionC_stim.csv,READVersionC.csv,"Read Version C","Dissertation, read only version C",GROUND,EARTH,Study2,S,144,168,Study,User,-,,Study/JOL,"Study Phase2",1504,,,-1,-1,,,,1
5ec530f7aa5afd49a06b00a2,pl773sod28,Nick_Dissertation_EX1,1,217,2020-06-02T09:40:57-07:00,1.8183350563049,3,versionC_stim.csv,READVersionC.csv,"Read Version C","Dissertation, read only version C",LIE,TRUTH,Study2,S,148,132,Study,User,-,,Study/JOL,"Study Phase2",1414,,,-1,-1,,,,1
5ec530f7aa5afd49a06b00a2,pl773sod28,Nick_Dissertation_EX1,1,218,2020-06-02T09:40:59-07:00,1.7854061126709,3,versionC_stim.csv,READVersionC.csv,"Read Version C","Dissertation, read only version C",SIGN,LOAN,Study2,U,171,161,Study,User,-,,Study/JOL,"Study Phase2",1426,,,-1,-1,,,,1
5ec530f7aa5afd49a06b00a2,pl773sod28,Nick_Dissertation_EX1,1,219,2020-06-02T09:41:00-07:00,1.6782529354095,3,versionC_stim.csv,READVersionC.csv,"Read Version C","Dissertation, read only version C",PENGUIN,BIRD,Study2,F,119,154,Study,User,-,,Study/JOL,"Study Phase2",1311,,,-1,-1,,,,1
5ec530f7aa5afd49a06b00a2,pl773sod28,Nick_Dissertation_EX1,1,220,2020-06-02T09:41:09-07:00,8.7781748771667,3,versionC_stim.csv,READVersionC.csv,"Read Version C","Dissertation, read only version C",SCAR,MAIN,Study2,U,175,151,Study,User,-,,Study/JOL,"Study Phase2",8302,,,-1,-1,,,,1
5ec530f7aa5afd49a06b00a2,pl773sod28,Nick_Dissertation_EX1,1,221,2020-06-02T09:41:10-07:00,1.3796651363373,3,versionC_stim.csv,READVersionC.csv,"Read Version C","Dissertation, read only version C",TRASH,LITTER,Study2,B,103,163,Study,User,-,,Study/JOL,"Study Phase2",981,,,-1,-1,,,,1
5ec530f7aa5afd49a06b00a2,pl773sod28,Nick_Dissertation_EX1,1,222,2020-06-02T09:41:12-07:00,1.5853819847107,3,versionC_stim.csv,READVersionC.csv,"Read Version C","Dissertation, read only version C",TEMPER,TANTRUM,Study2,S,154,97,Study,User,-,,Study/JOL,"Study Phase2",1218,,,-1,-1,,,,1
5ec530f7aa5afd49a06b00a2,pl773sod28,Nick_Dissertation_EX1,1,223,2020-06-02T09:41:14-07:00,1.6782500743866,3,versionC_stim.csv,READVersionC.csv,"Read Version C","Dissertation, read only version C",SCISSORS,SHEARS,Study2,B,112,102,Study,User,-,,Study/JOL,"Study Phase2",1262,,,-1,-1,,,,1
5ec530f7aa5afd49a06b00a2,pl773sod28,Nick_Dissertation_EX1,1,224,2020-06-02T09:41:15-07:00,1.6566939353943,3,versionC_stim.csv,READVersionC.csv,"Read Version C","Dissertation, read only version C",TICK,FLEA,Study2,S,151,147,Study,User,-,,Study/JOL,"Study Phase2",1138,,,-1,-1,,,,1
5ec530f7aa5afd49a06b00a2,pl773sod28,Nick_Dissertation_EX1,1,225,2020-06-02T09:41:17-07:00,1.6695580482483,3,versionC_stim.csv,READVersionC.csv,"Read Version C","Dissertation, read only version C",COFFIN,DEAD,Study2,F,128,175,Study,User,-,,Study/JOL,"Study Phase2",1265,,,-1,-1,,,,1
5ec530f7aa5afd49a06b00a2,pl773sod28,Nick_Dissertation_EX1,1,226,2020-06-02T09:41:19-07:00,1.7244188785553,3,versionC_stim.csv,READVersionC.csv,"Read Version C","Dissertation, read only version C",THIMBLE,THREAD,Study2,F,121,139,Study,User,-,,Study/JOL,"Study Phase2",1328,,,-1,-1,,,,1
5ec530f7aa5afd49a06b00a2,pl773sod28,Nick_Dissertation_EX1,1,227,2020-06-02T09:41:20-07:00,1.593955039978,3,versionC_stim.csv,READVersionC.csv,"Read Version C","Dissertation, read only version C",DOG,FURRY,Study2,B,102,112,Study,User,-,,Study/JOL,"Study Phase2",1241,,,-1,-1,,,,1
5ec530f7aa5afd49a06b00a2,pl773sod28,Nick_Dissertation_EX1,1,228,2020-06-02T09:41:22-07:00,1.9677369594574,3,versionC_stim.csv,READVersionC.csv,"Read Version C","Dissertation, read only version C",SEATBELT,SAFETY,Study2,S,147,100,Study,User,-,,Study/JOL,"Study Phase2",1614,,,-1,-1,,,,1
5ec530f7aa5afd49a06b00a2,pl773sod28,Nick_Dissertation_EX1,1,229,2020-06-02T09:41:25-07:00,2.7840120792389,3,versionC_stim.csv,READVersionC.csv,"Read Version C","Dissertation, read only version C",FAVORITE,BEST,Study2,F,125,166,Study,User,-,,Study/JOL,"Study Phase2",2366,,,-1,-1,,,,1
5ec530f7aa5afd49a06b00a2,pl773sod28,Nick_Dissertation_EX1,1,230,2020-06-02T09:41:26-07:00,1.3430650234222,3,versionC_stim.csv,READVersionC.csv,"Read Version C","Dissertation, read only version C",RED,CHERRY,Study2,B,104,101,Study,User,-,,Study/JOL,"Study Phase2",943,,,-1,-1,,,,1
5ec530f7aa5afd49a06b00a2,pl773sod28,Nick_Dissertation_EX1,1,231,2020-06-02T09:41:28-07:00,1.2283828258514,3,versionC_stim.csv,READVersionC.csv,"Read Version C","Dissertation, read only version C",LOVE,AFFECTION,Study2,B,115,153,Study,User,-,,Study/JOL,"Study Phase2",860,,,-1,-1,,,,1
5ec530f7aa5afd49a06b00a2,pl773sod28,Nick_Dissertation_EX1,1,232,2020-06-02T09:41:33-07:00,4.9075360298157,3,versionC_stim.csv,READVersionC.csv,"Read Version C","Dissertation, read only version C",STEAK,GIVE,Study2,U,158,114,Study,User,-,,Study/JOL,"Study Phase2",4363,,,-1,-1,,,,1
5ec530f7aa5afd49a06b00a2,pl773sod28,Nick_Dissertation_EX1,1,233,2020-06-02T09:42:29-07:00,56.357825994492,3,versionC_stim.csv,READVersionC.csv,"Read Version C","Dissertation, read only version C",SMELL,INCENSE,Study2,B,110,109,Study,User,-,,Study/JOL,"Study Phase2",8993,,,-1,-1,,,,0.667
5ec530f7aa5afd49a06b00a2,pl773sod28,Nick_Dissertation_EX1,1,234,2020-06-02T09:42:33-07:00,3.5899760723114,3,versionC_stim.csv,READVersionC.csv,"Read Version C","Dissertation, read only version C",HATE,NAME,Study2,U,167,127,Study,User,-,,Study/JOL,"Study Phase2",3162,,,-1,-1,,,,1
5ec530f7aa5afd49a06b00a2,pl773sod28,Nick_Dissertation_EX1,1,235,2020-06-02T09:42:35-07:00,2.3109900951385,3,versionC_stim.csv,READVersionC.csv,"Read Version C","Dissertation, read only version C",HAVE,OWN,Study2,S,153,176,Study,User,-,,Study/JOL,"Study Phase2",1944,,,-1,-1,,,,1
5ec530f7aa5afd49a06b00a2,pl773sod28,Nick_Dissertation_EX1,1,236,2020-06-02T09:42:37-07:00,2.4735789299011,3,versionC_stim.csv,READVersionC.csv,"Read Version C","Dissertation, read only version C",TOIL,LEASE,Study2,U,170,113,Study,User,-,,Study/JOL,"Study Phase2",2104,,,-1,-1,,,,1
5ec530f7aa5afd49a06b00a2,pl773sod28,Nick_Dissertation_EX1,1,237,2020-06-02T09:42:39-07:00,1.7737278938293,3,versionC_stim.csv,READVersionC.csv,"Read Version C","Dissertation, read only version C",EAT,DINE,Study2,B,111,157,Study,User,-,,Study/JOL,"Study Phase2",1388,,,-1,-1,,,,1
5ec530f7aa5afd49a06b00a2,pl773sod28,Nick_Dissertation_EX1,1,238,2020-06-02T09:42:41-07:00,1.9544591903687,3,versionC_stim.csv,READVersionC.csv,"Read Version C","Dissertation, read only version C",Morning,TEMPERATURE,Study2,U,173,118,Study,User,-,,Study/JOL,"Study Phase2",1592,,,-1,-1,,,,1
5ec530f7aa5afd49a06b00a2,pl773sod28,Nick_Dissertation_EX1,1,239,2020-06-02T09:42:43-07:00,2.2776148319244,3,versionC_stim.csv,READVersionC.csv,"Read Version C","Dissertation, read only version C",PANTHER,CAT,Study2,F,126,156,Study,User,-,,Study/JOL,"Study Phase2",1825,,,-1,-1,,,,1
5ec530f7aa5afd49a06b00a2,pl773sod28,Nick_Dissertation_EX1,1,240,2020-06-02T09:42:45-07:00,1.8143091201782,3,versionC_stim.csv,READVersionC.csv,"Read Version C","Dissertation, read only version C",LEAGUE,BASEBALL,Study2,F,131,143,Study,User,-,,Study/JOL,"Study Phase2",1406,,,-1,-1,,,,1
5ec530f7aa5afd49a06b00a2,pl773sod28,Nick_Dissertation_EX1,1,241,2020-06-02T09:42:47-07:00,2.1181378364563,3,versionC_stim.csv,READVersionC.csv,"Read Version C","Dissertation, read only version C",COMMUNICATION,PHONE,Study2,S,149,119,Study,User,-,,Study/JOL,"Study Phase2",1736,,,-1,-1,,,,1
5ec530f7aa5afd49a06b00a2,pl773sod28,Nick_Dissertation_EX1,1,242,2020-06-02T09:42:49-07:00,1.4969282150269,3,versionC_stim.csv,READVersionC.csv,"Read Version C","Dissertation, read only version C",CAR,DRIVER,Study2,B,106,120,Study,User,-,,Study/JOL,"Study Phase2",1114,,,-1,-1,,,,1
5ec530f7aa5afd49a06b00a2,pl773sod28,Nick_Dissertation_EX1,1,243,2020-06-02T09:42:51-07:00,2.3975567817688,3,versionC_stim.csv,READVersionC.csv,"Read Version C","Dissertation, read only version C",STRAWBERRY,FRUIT,Study2,F,124,136,Study,User,-,,Study/JOL,"Study Phase2",2016,,,-1,-1,,,,1
5ec530f7aa5afd49a06b00a2,pl773sod28,Nick_Dissertation_EX1,1,244,2020-06-02T09:42:53-07:00,2.1785759925842,3,versionC_stim.csv,READVersionC.csv,"Read Version C","Dissertation, read only version C",CHILDREN,MIRROR,Study2,U,174,122,Study,User,-,,Study/JOL,"Study Phase2",1792,,,-1,-1,,,,1
5ec530f7aa5afd49a06b00a2,pl773sod28,Nick_Dissertation_EX1,1,245,2020-06-02T09:42:57-07:00,3.6069071292877,3,versionC_stim.csv,READVersionC.csv,"Read Version C","Dissertation, read only version C",TRUTHFUL,HONEST,Study2,F,133,159,Study,User,-,,Study/JOL,"Study Phase2",3207,,,-1,-1,,,,1
5ec530f7aa5afd49a06b00a2,pl773sod28,Nick_Dissertation_EX1,1,246,2020-06-02T09:43:00-07:00,2.6905660629272,3,versionC_stim.csv,READVersionC.csv,"Read Version C","Dissertation, read only version C",NOISE,LOUD,Study2,S,152,162,Study,User,-,,Study/JOL,"Study Phase2",2300,,,-1,-1,,,,1
5ec530f7aa5afd49a06b00a2,pl773sod28,Nick_Dissertation_EX1,1,247,2020-06-02T09:43:01-07:00,1.7944459915161,3,versionC_stim.csv,READVersionC.csv,"Read Version C","Dissertation, read only version C",JOKE,KEYS,Study2,U,165,174,Study,User,-,,Study/JOL,"Study Phase2",1429,,,-1,-1,,,,1
5ec530f7aa5afd49a06b00a2,pl773sod28,Nick_Dissertation_EX1,1,248,2020-06-02T09:43:05-07:00,3.0584378242493,3,versionC_stim.csv,READVersionC.csv,"Read Version C","Dissertation, read only version C",CLOTH,STRETCH,Study2,U,157,103,Study,User,-,,Study/JOL,"Study Phase2",2658,,,-1,-1,,,,1
5ec530f7aa5afd49a06b00a2,pl773sod28,Nick_Dissertation_EX1,1,249,2020-06-02T09:43:07-07:00,2.8485281467438,3,versionC_stim.csv,READVersionC.csv,"Read Version C","Dissertation, read only version C",FIGHT,FEUD,Study2,B,113,126,Study,User,-,,Study/JOL,"Study Phase2",2411,,,-1,-1,,,,1
5ec530f7aa5afd49a06b00a2,pl773sod28,Nick_Dissertation_EX1,1,250,2020-06-02T09:43:13-07:00,6.1281230449677,3,versionC_stim.csv,READVersionC.csv,"Read Version C","Dissertation, read only version C",DRINK,WATER,Study2,S,143,135,Study,User,-,,Study/JOL,"Study Phase2",5734,,,-1,-1,,,,1
5ec530f7aa5afd49a06b00a2,pl773sod28,Nick_Dissertation_EX1,1,251,2020-06-02T09:43:16-07:00,2.3144459724426,3,versionC_stim.csv,READVersionC.csv,"Read Version C","Dissertation, read only version C",VILLAIN,BAD,Study2,F,118,149,Study,User,-,,Study/JOL,"Study Phase2",1939,,,-1,-1,,,,1
5ec530f7aa5afd49a06b00a2,pl773sod28,Nick_Dissertation_EX1,1,252,2020-06-02T09:43:18-07:00,1.8008658885956,3,versionC_stim.csv,READVersionC.csv,"Read Version C","Dissertation, read only version C",CHARM,VEHICLE,Study2,U,160,165,Study,User,-,,Study/JOL,"Study Phase2",1429,,,-1,-1,,,,1
5ec530f7aa5afd49a06b00a2,pl773sod28,Nick_Dissertation_EX1,1,253,2020-06-02T09:43:19-07:00,1.4225950241089,3,versionC_stim.csv,READVersionC.csv,"Read Version C","Dissertation, read only version C",AWAY,GONE,Study2,S,142,164,Study,User,-,,Study/JOL,"Study Phase2",1031,,,-1,-1,,,,1
5ec530f7aa5afd49a06b00a2,pl773sod28,Nick_Dissertation_EX1,1,254,2020-06-02T09:43:23-07:00,3.6920170783997,3,versionC_stim.csv,READVersionC.csv,"Read Version C","Dissertation, read only version C",TAN,SUN,Study2,S,155,171,Study,User,-,,Study/JOL,"Study Phase2",3316,,,-1,-1,,,,1
5ec530f7aa5afd49a06b00a2,pl773sod28,Nick_Dissertation_EX1,1,255,2020-06-02T09:43:29-07:00,6.4481239318848,3,versionC_stim.csv,READVersionC.csv,"Read Version C","Dissertation, read only version C",EQUAL,RIGHTS,Study2,S,137,110,Study,User,-,,Study/JOL,"Study Phase2",6063,,,-1,-1,,,,1
5ec530f7aa5afd49a06b00a2,pl773sod28,Nick_Dissertation_EX1,1,256,2020-06-02T09:43:36-07:00,6.4959750175476,3,versionC_stim.csv,READVersionC.csv,"Read Version C","Dissertation, read only version C",ABLE,CRACKLE,Study2,U,162,98,Study,User,-,,Study/JOL,"Study Phase2",6103,,,-1,-1,,,,1
5ec530f7aa5afd49a06b00a2,pl773sod28,Nick_Dissertation_EX1,1,257,2020-06-02T09:43:37-07:00,1.1388840675354,3,versionC_stim.csv,READVersionC.csv,"Read Version C","Dissertation, read only version C",WINDSHIELD,CAR,Study2,F,117,108,Study,User,-,,Study/JOL,"Study Phase2",714,,,-1,-1,,,,1
5ec530f7aa5afd49a06b00a2,pl773sod28,Nick_Dissertation_EX1,1,258,2020-06-02T09:43:39-07:00,2.3032698631287,3,versionC_stim.csv,READVersionC.csv,"Read Version C","Dissertation, read only version C",DONKEY,MULE,Study2,B,108,115,Study,User,-,,Study/JOL,"Study Phase2",1891,,,-1,-1,,,,1
5ec530f7aa5afd49a06b00a2,pl773sod28,Nick_Dissertation_EX1,1,259,2020-06-02T09:43:40-07:00,0.94413614273071,3,versionC_stim.csv,READVersionC.csv,"Read Version C","Dissertation, read only version C",WAX,CANDLE,Study2,S,139,146,Study,User,-,,Study/JOL,"Study Phase2",539,,,-1,-1,,,,1
5ec530f7aa5afd49a06b00a2,pl773sod28,Nick_Dissertation_EX1,1,260,2020-06-02T09:43:42-07:00,1.4555819034576,3,versionC_stim.csv,READVersionC.csv,"Read Version C","Dissertation, read only version C",BRACELET,WRIST,Study2,S,140,131,Study,User,-,,Study/JOL,"Study Phase2",1029,,,-1,-1,,,,1
5ec530f7aa5afd49a06b00a2,pl773sod28,Nick_Dissertation_EX1,1,261,2020-06-02T09:43:43-07:00,1.0129990577698,3,versionC_stim.csv,READVersionC.csv,"Read Version C","Dissertation, read only version C",WEAKS,DAYS,BUFFER4,Buffer,176,179,Study,User,-,,Study/JOL,BUFFER4,636,,,-1,-1,,,,1
5ec530f7aa5afd49a06b00a2,pl773sod28,Nick_Dissertation_EX1,1,262,2020-06-02T09:43:45-07:00,1.9951028823853,3,versionC_stim.csv,READVersionC.csv,"Read Version C","Dissertation, read only version C",SPOOKY,OCTOBER,BUFFER4,Buffer,180,181,Study,User,-,,Study/JOL,BUFFER4,1600,,,-1,-1,,,,1
5ec530f7aa5afd49a06b00a2,pl773sod28,Nick_Dissertation_EX1,1,263,2020-06-02T09:43:47-07:00,2.0389361381531,3,versionC_stim.csv,READVersionC.csv,"Read Version C","Dissertation, read only version C",YEAR,MONTH,BUFFER4,Buffer,177,177,Study,User,-,,Study/JOL,BUFFER4,1623,,,-1,-1,,,,1
5ec530f7aa5afd49a06b00a2,pl773sod28,Nick_Dissertation_EX1,1,264,2020-06-02T09:43:48-07:00,1.70960688591,3,versionC_stim.csv,READVersionC.csv,"Read Version C","Dissertation, read only version C",SHED,TOOL,BUFFER4,Buffer,178,180,Study,User,-,,Study/JOL,BUFFER4,1306,,,-1,-1,,,,1
5ec530f7aa5afd49a06b00a2,pl773sod28,Nick_Dissertation_EX1,1,265,2020-06-02T09:43:49-07:00,1.0207140445709,3,versionC_stim.csv,READVersionC.csv,"Read Version C","Dissertation, read only version C",MARCH,SPRING,BUFFER4,Buffer,179,178,Study,User,-,,Study/JOL,BUFFER4,632,,,-1,-1,,,,1
5ec530f7aa5afd49a06b00a2,pl773sod28,Nick_Dissertation_EX1,1,266,2020-06-02T09:44:14-07:00,24.648479938507,3,versionC_stim.csv,READVersionC.csv,"Read Version C","Dissertation, read only version C",,,,,,0,Instruct,User,-,"You have completed this section. Please press Enter.",Filler_Instruction,Instruct5,24172,,,-1,-1,,,,1
5ec530f7aa5afd49a06b00a2,pl773sod28,Nick_Dissertation_EX1,1,267,2020-06-02T09:46:14-07:00,120.51159310341,3,versionC_stim.csv,READVersionC.csv,"Read Version C","Dissertation, read only version C",,,,,,0,FreeRecall,120,120,"Please list the 50 US states in reverse alphabetical order (z - a). The task will automatically advance to the next screen after two minutes.",,Filler2,120003,"Washington Virginia Utah Texas South Dakota North Dakota nebraska Montana Idaho Hawai Colorado Alaska Alabama ",0,8221,115072,0,0,,0.991
5ec530f7aa5afd49a06b00a2,pl773sod28,Nick_Dissertation_EX1,1,268,2020-06-02T09:46:28-07:00,13.269299983978,3,versionC_stim.csv,READVersionC.csv,"Read Version C","Dissertation, read only version C",,,,,,0,Instruct,-,10,"You will now be presented with the first word from each of the previously studied item pairs. Please type the missing word. If you do not know the word, you may guess or press Enter to skip forward to the next pair.",,Instruct6,12767,,,-1,-1,,,,1
5ec530f7aa5afd49a06b00a2,pl773sod28,Nick_Dissertation_EX1,1,269,2020-06-02T09:46:32-07:00,4.4633910655975,3,versionC_stim.csv,READVersionC.csv,"Read Version C","Dissertation, read only version C",LIE,TRUTH,Study2,S,148,132,Test,User,-,,Recall,Recall2,4044,Truth,100,3231,3804,1,1,,1
5ec530f7aa5afd49a06b00a2,pl773sod28,Nick_Dissertation_EX1,1,270,2020-06-02T09:46:38-07:00,6.1671738624573,3,versionC_stim.csv,READVersionC.csv,"Read Version C","Dissertation, read only version C",HAVE,OWN,Study2,S,153,176,Test,User,-,,Recall,Recall2,5717,Get,0,2075,5504,0,0,,1
5ec530f7aa5afd49a06b00a2,pl773sod28,Nick_Dissertation_EX1,1,271,2020-06-02T09:46:43-07:00,4.2503559589386,3,versionC_stim.csv,READVersionC.csv,"Read Version C","Dissertation, read only version C",SIGN,LOAN,Study2,U,171,161,Test,User,-,,Recall,Recall2,3869,language,50,2264,3554,0,0,,1
5ec530f7aa5afd49a06b00a2,pl773sod28,Nick_Dissertation_EX1,1,272,2020-06-02T09:46:45-07:00,1.9805021286011,3,versionC_stim.csv,READVersionC.csv,"Read Version C","Dissertation, read only version C",REEL,ROD,Study2,S,150,173,Test,User,-,,Recall,Recall2,1554,rod,100,1227,1464,1,1,,1
5ec530f7aa5afd49a06b00a2,pl773sod28,Nick_Dissertation_EX1,1,273,2020-06-02T09:46:48-07:00,3.4013659954071,3,versionC_stim.csv,READVersionC.csv,"Read Version C","Dissertation, read only version C",SHAVE,RAZOR,Study2,S,136,121,Test,User,-,,Recall,Recall2,2979,razor,100,1319,2037,1,1,,1
5ec530f7aa5afd49a06b00a2,pl773sod28,Nick_Dissertation_EX1,1,274,2020-06-02T09:46:52-07:00,3.7567830085754,3,versionC_stim.csv,READVersionC.csv,"Read Version C","Dissertation, read only version C",BRACELET,WRIST,Study2,S,140,131,Test,User,-,,Recall,Recall2,3340,wrist,100,1511,2100,1,1,,1
5ec530f7aa5afd49a06b00a2,pl773sod28,Nick_Dissertation_EX1,1,275,2020-06-02T09:46:55-07:00,3.4036679267883,3,versionC_stim.csv,READVersionC.csv,"Read Version C","Dissertation, read only version C",TICK,FLEA,Study2,S,151,147,Test,User,-,,Recall,Recall2,3033,flea,100,2002,2336,1,1,,1
5ec530f7aa5afd49a06b00a2,pl773sod28,Nick_Dissertation_EX1,1,276,2020-06-02T09:47:00-07:00,5.2576420307159,3,versionC_stim.csv,READVersionC.csv,"Read Version C","Dissertation, read only version C",MAROON,JUSTICE,Study2,U,156,133,Test,User,-,,Recall,Recall2,4848,leave,16.666666666667,4236,4703,0,0,,1
5ec530f7aa5afd49a06b00a2,pl773sod28,Nick_Dissertation_EX1,1,277,2020-06-02T09:47:04-07:00,3.1753721237183,3,versionC_stim.csv,READVersionC.csv,"Read Version C","Dissertation, read only version C",MYSTERY,DETECTIVE,Study2,B,100,170,Test,User,-,,Recall,Recall2,2778,clue,30.769230769231,2258,2572,0,0,,1
5ec530f7aa5afd49a06b00a2,pl773sod28,Nick_Dissertation_EX1,1,278,2020-06-02T09:47:07-07:00,3.7896008491516,3,versionC_stim.csv,READVersionC.csv,"Read Version C","Dissertation, read only version C",CLEAR,MOAT,Study2,U,169,169,Test,User,-,,Recall,Recall2,3313,moat,100,2600,3195,1,1,,1
5ec530f7aa5afd49a06b00a2,pl773sod28,Nick_Dissertation_EX1,1,279,2020-06-02T09:47:10-07:00,3.124706029892,3,versionC_stim.csv,READVersionC.csv,"Read Version C","Dissertation, read only version C",TEMPER,TANTRUM,Study2,S,154,97,Test,User,-,,Recall,Recall2,2739,tantrum,100,1477,2466,1,1,,1
5ec530f7aa5afd49a06b00a2,pl773sod28,Nick_Dissertation_EX1,1,280,2020-06-02T09:47:14-07:00,3.4562549591064,3,versionC_stim.csv,READVersionC.csv,"Read Version C","Dissertation, read only version C",HEAD,SCALP,Study2,B,105,167,Test,User,-,,Recall,Recall2,3058,hair,22.222222222222,2112,2382,0,0,,1
5ec530f7aa5afd49a06b00a2,pl773sod28,Nick_Dissertation_EX1,1,281,2020-06-02T09:47:17-07:00,3.095174074173,3,versionC_stim.csv,READVersionC.csv,"Read Version C","Dissertation, read only version C",LEAGUE,BASEBALL,Study2,F,131,143,Test,User,-,,Recall,Recall2,2708,baseball,100,1357,2526,1,1,,1
5ec530f7aa5afd49a06b00a2,pl773sod28,Nick_Dissertation_EX1,1,282,2020-06-02T09:47:20-07:00,2.9014120101929,3,versionC_stim.csv,READVersionC.csv,"Read Version C","Dissertation, read only version C",AWAY,GONE,Study2,S,142,164,Test,User,-,,Recall,Recall2,2532,go,66.666666666667,1381,1425,0,0,,1
5ec530f7aa5afd49a06b00a2,pl773sod28,Nick_Dissertation_EX1,1,283,2020-06-02T09:47:27-07:00,6.6338839530945,3,versionC_stim.csv,READVersionC.csv,"Read Version C","Dissertation, read only version C",LONG,EXTENSION,Study2,B,96,141,Test,User,-,,Recall,Recall2,6271,short,28.571428571429,1974,6111,0,0,,1
5ec530f7aa5afd49a06b00a2,pl773sod28,Nick_Dissertation_EX1,1,284,2020-06-02T09:47:30-07:00,3.4468190670013,3,versionC_stim.csv,READVersionC.csv,"Read Version C","Dissertation, read only version C",STEAK,GIVE,Study2,U,158,114,Test,User,-,,Recall,Recall2,3064,give,100,1915,2169,1,1,,1
5ec530f7aa5afd49a06b00a2,pl773sod28,Nick_Dissertation_EX1,1,285,2020-06-02T09:47:36-07:00,5.7507848739624,3,versionC_stim.csv,READVersionC.csv,"Read Version C","Dissertation, read only version C",EQUAL,RIGHTS,Study2,S,137,110,Test,User,-,,Recall,Recall2,5341,rights,100,4732,5199,1,1,,1
5ec530f7aa5afd49a06b00a2,pl773sod28,Nick_Dissertation_EX1,1,286,2020-06-02T09:47:38-07:00,2.2792460918427,3,versionC_stim.csv,READVersionC.csv,"Read Version C","Dissertation, read only version C",WINDSHIELD,CAR,Study2,F,117,108,Test,User,-,,Recall,Recall2,1874,car,100,1469,1731,1,1,,1
5ec530f7aa5afd49a06b00a2,pl773sod28,Nick_Dissertation_EX1,1,287,2020-06-02T09:47:41-07:00,3.3860940933228,3,versionC_stim.csv,READVersionC.csv,"Read Version C","Dissertation, read only version C",ELECTION,MAZE,Study2,U,159,111,Test,User,-,,Recall,Recall2,2915,maze,100,2090,2499,1,1,,1
5ec530f7aa5afd49a06b00a2,pl773sod28,Nick_Dissertation_EX1,1,288,2020-06-02T09:47:44-07:00,2.5356688499451,3,versionC_stim.csv,READVersionC.csv,"Read Version C","Dissertation, read only version C",SMELL,INCENSE,Study2,B,110,109,Test,User,-,,Recall,Recall2,2117,nose,54.545454545455,1661,1974,0,0,,1
5ec530f7aa5afd49a06b00a2,pl773sod28,Nick_Dissertation_EX1,1,289,2020-06-02T09:47:50-07:00,5.9105789661407,3,versionC_stim.csv,READVersionC.csv,"Read Version C","Dissertation, read only version C",CAR,DRIVER,Study2,B,106,120,Test,User,-,,Recall,Recall2,5510,windshield,25,1196,2690,0,0,,1
5ec530f7aa5afd49a06b00a2,pl773sod28,Nick_Dissertation_EX1,1,290,2020-06-02T09:47:57-07:00,7.3009450435638,3,versionC_stim.csv,READVersionC.csv,"Read Version C","Dissertation, read only version C",VILLAIN,BAD,Study2,F,118,149,Test,User,-,,Recall,Recall2,6926,evil,0,4262,5959,0,0,,1
5ec530f7aa5afd49a06b00a2,pl773sod28,Nick_Dissertation_EX1,1,291,2020-06-02T09:48:03-07:00,5.3672051429749,3,versionC_stim.csv,READVersionC.csv,"Read Version C","Dissertation, read only version C",AIRCRAFT,PLANE,Study2,F,129,125,Test,User,-,,Recall,Recall2,4995,plane,100,3836,4643,1,1,,1
5ec530f7aa5afd49a06b00a2,pl773sod28,Nick_Dissertation_EX1,1,292,2020-06-02T09:48:05-07:00,2.894898891449,3,versionC_stim.csv,READVersionC.csv,"Read Version C","Dissertation, read only version C",FIGHT,FEUD,Study2,B,113,126,Test,User,-,,Recall,Recall2,2485,bar,0,2019,2292,0,0,,1
5ec530f7aa5afd49a06b00a2,pl773sod28,Nick_Dissertation_EX1,1,293,2020-06-02T09:48:08-07:00,2.3731169700623,3,versionC_stim.csv,READVersionC.csv,"Read Version C","Dissertation, read only version C",WET,DRY,Study2,S,146,152,Test,User,-,,Recall,Recall2,1969,water,25,1308,1852,0,0,,1
5ec530f7aa5afd49a06b00a2,pl773sod28,Nick_Dissertation_EX1,1,294,2020-06-02T09:48:10-07:00,1.9353170394897,3,versionC_stim.csv,READVersionC.csv,"Read Version C","Dissertation, read only version C",HATE,NAME,Study2,U,167,127,Test,User,-,,Recall,Recall2,1560,love,25,1017,1436,0,0,,1
5ec530f7aa5afd49a06b00a2,pl773sod28,Nick_Dissertation_EX1,1,295,2020-06-02T09:48:13-07:00,3.0039188861847,3,versionC_stim.csv,READVersionC.csv,"Read Version C","Dissertation, read only version C",OBTAIN,MEAT,Study2,U,161,144,Test,User,-,,Recall,Recall2,2636,get,57.142857142857,2308,2534,0,0,,1
5ec530f7aa5afd49a06b00a2,pl773sod28,Nick_Dissertation_EX1,1,296,2020-06-02T09:48:16-07:00,3.1153500080109,3,versionC_stim.csv,READVersionC.csv,"Read Version C","Dissertation, read only version C",WAX,CANDLE,Study2,S,139,146,Test,User,-,,Recall,Recall2,2728,candle,100,1474,2178,1,1,,1
5ec530f7aa5afd49a06b00a2,pl773sod28,Nick_Dissertation_EX1,1,297,2020-06-02T09:48:22-07:00,5.6646451950073,3,versionC_stim.csv,READVersionC.csv,"Read Version C","Dissertation, read only version C",CHILDREN,MIRROR,Study2,U,174,122,Test,User,-,,Recall,Recall2,5288,baby,0,2394,3212,0,0,,1
5ec530f7aa5afd49a06b00a2,pl773sod28,Nick_Dissertation_EX1,1,298,2020-06-02T09:48:24-07:00,2.8991048336029,3,versionC_stim.csv,READVersionC.csv,"Read Version C","Dissertation, read only version C",DOG,FURRY,Study2,B,102,112,Test,User,-,,Recall,Recall2,2485,cayt,22.222222222222,1979,2299,0,0,,1
5ec530f7aa5afd49a06b00a2,pl773sod28,Nick_Dissertation_EX1,1,299,2020-06-02T09:48:27-07:00,2.3635129928589,3,versionC_stim.csv,READVersionC.csv,"Read Version C","Dissertation, read only version C",BALLOON,POP,Study2,F,123,107,Test,User,-,,Recall,Recall2,1988,pop,100,1334,1631,1,1,,1
5ec530f7aa5afd49a06b00a2,pl773sod28,Nick_Dissertation_EX1,1,300,2020-06-02T09:48:30-07:00,3.6138920783997,3,versionC_stim.csv,READVersionC.csv,"Read Version C","Dissertation, read only version C",FAVORITE,BEST,Study2,F,125,166,Test,User,-,,Recall,Recall2,3213,best,100,2670,3057,1,1,,1
5ec530f7aa5afd49a06b00a2,pl773sod28,Nick_Dissertation_EX1,1,301,2020-06-02T09:48:35-07:00,4.8981320858002,3,versionC_stim.csv,READVersionC.csv,"Read Version C","Dissertation, read only version C",TIE,SHOELACE,Study2,B,99,130,Test,User,-,,Recall,Recall2,4500,shoe,66.666666666667,3181,3436,0,0,,1
5ec530f7aa5afd49a06b00a2,pl773sod28,Nick_Dissertation_EX1,1,302,2020-06-02T09:48:37-07:00,1.9815168380737,3,versionC_stim.csv,READVersionC.csv,"Read Version C","Dissertation, read only version C",SARDINE,FISH,Study2,F,130,155,Test,User,-,,Recall,Recall2,1603,fish,100,1113,1460,1,1,,1
5ec530f7aa5afd49a06b00a2,pl773sod28,Nick_Dissertation_EX1,1,303,2020-06-02T09:48:40-07:00,3.0385251045227,3,versionC_stim.csv,READVersionC.csv,"Read Version C","Dissertation, read only version C",PAPER,DOCUMENT,Study2,B,109,124,Test,User,-,,Recall,Recall2,2619,rock,33.333333333333,2109,2454,0,0,,1
5ec530f7aa5afd49a06b00a2,pl773sod28,Nick_Dissertation_EX1,1,304,2020-06-02T09:48:43-07:00,2.8027520179749,3,versionC_stim.csv,READVersionC.csv,"Read Version C","Dissertation, read only version C",GROUND,EARTH,Study2,S,144,168,Test,User,-,,Recall,Recall2,2438,earth,100,1597,2250,1,1,,1
5ec530f7aa5afd49a06b00a2,pl773sod28,Nick_Dissertation_EX1,1,305,2020-06-02T09:48:45-07:00,2.1287019252777,3,versionC_stim.csv,READVersionC.csv,"Read Version C","Dissertation, read only version C",NOISE,LOUD,Study2,S,152,162,Test,User,-,,Recall,Recall2,1728,loud,100,1100,1621,1,1,,1
5ec530f7aa5afd49a06b00a2,pl773sod28,Nick_Dissertation_EX1,1,306,2020-06-02T09:48:50-07:00,4.303288936615,3,versionC_stim.csv,READVersionC.csv,"Read Version C","Dissertation, read only version C",CLOTHES,CAKE,Study2,U,166,137,Test,User,-,,Recall,Recall2,3924,,0,2217,2217,0,0,,1
5ec530f7aa5afd49a06b00a2,pl773sod28,Nick_Dissertation_EX1,1,307,2020-06-02T09:48:55-07:00,5.1136531829834,3,versionC_stim.csv,READVersionC.csv,"Read Version C","Dissertation, read only version C",REVENGE,EVEN,Study2,F,122,123,Test,User,-,,Recall,Recall2,4717,even,100,2410,4329,1,1,,1
5ec530f7aa5afd49a06b00a2,pl773sod28,Nick_Dissertation_EX1,1,308,2020-06-02T09:48:57-07:00,2.6390528678894,3,versionC_stim.csv,READVersionC.csv,"Read Version C","Dissertation, read only version C",JOKE,KEYS,Study2,U,165,174,Test,User,-,,Recall,Recall2,2256,riddle,20,1543,2138,0,0,,1
5ec530f7aa5afd49a06b00a2,pl773sod28,Nick_Dissertation_EX1,1,309,2020-06-02T09:48:59-07:00,2.0182409286499,3,versionC_stim.csv,READVersionC.csv,"Read Version C","Dissertation, read only version C",LOVE,AFFECTION,Study2,B,115,153,Test,User,-,,Recall,Recall2,1617,hate,30.769230769231,1035,1500,0,0,,1
5ec530f7aa5afd49a06b00a2,pl773sod28,Nick_Dissertation_EX1,1,310,2020-06-02T09:49:14-07:00,14.653892040253,3,versionC_stim.csv,READVersionC.csv,"Read Version C","Dissertation, read only version C",SCAR,MAIN,Study2,U,175,151,Test,User,-,,Recall,Recall2,14187,main,100,8282,12611,1,1,,1
5ec530f7aa5afd49a06b00a2,pl773sod28,Nick_Dissertation_EX1,1,311,2020-06-02T09:49:27-07:00,12.921669006348,3,versionC_stim.csv,READVersionC.csv,"Read Version C","Dissertation, read only version C",ABLE,CRACKLE,Study2,U,162,98,Test,User,-,,Recall,Recall2,12420,"capable ",57.142857142857,2508,9178,0,0,,1
5ec530f7aa5afd49a06b00a2,pl773sod28,Nick_Dissertation_EX1,1,312,2020-06-02T09:49:50-07:00,22.589490175247,3,versionC_stim.csv,READVersionC.csv,"Read Version C","Dissertation, read only version C",Morning,TEMPERATURE,Study2,U,173,118,Test,User,-,,Recall,Recall2,22083,sun,14.285714285714,21472,21769,0,0,,1
5ec530f7aa5afd49a06b00a2,pl773sod28,Nick_Dissertation_EX1,1,313,2020-06-02T09:49:52-07:00,2.8760938644409,3,versionC_stim.csv,READVersionC.csv,"Read Version C","Dissertation, read only version C",END,ADJOURN,Study2,B,101,134,Test,User,-,,Recall,Recall2,2450,begin,16.666666666667,1279,2093,0,0,,1
5ec530f7aa5afd49a06b00a2,pl773sod28,Nick_Dissertation_EX1,1,314,2020-06-02T09:49:55-07:00,2.4625599384308,3,versionC_stim.csv,READVersionC.csv,"Read Version C","Dissertation, read only version C",GAME,CLUE,Study2,B,97,105,Test,User,-,,Recall,Recall2,2020,clue,100,1559,1890,1,1,,1
5ec530f7aa5afd49a06b00a2,pl773sod28,Nick_Dissertation_EX1,1,315,2020-06-02T09:49:58-07:00,2.9313721656799,3,versionC_stim.csv,READVersionC.csv,"Read Version C","Dissertation, read only version C",ACTRESS,STAR,Study2,F,120,140,Test,User,-,,Recall,Recall2,2502,star,100,1509,2256,1,1,,1
5ec530f7aa5afd49a06b00a2,pl773sod28,Nick_Dissertation_EX1,1,316,2020-06-02T09:50:06-07:00,7.7948429584503,3,versionC_stim.csv,READVersionC.csv,"Read Version C","Dissertation, read only version C",FLIP,TURN,Study2,F,116,106,Test,User,-,,Recall,Recall2,7396,turn,100,1009,5907,1,1,,1
5ec530f7aa5afd49a06b00a2,pl773sod28,Nick_Dissertation_EX1,1,317,2020-06-02T09:50:10-07:00,4.2233579158783,3,versionC_stim.csv,READVersionC.csv,"Read Version C","Dissertation, read only version C",OUNCE,BOTH,Study2,U,172,142,Test,User,-,,Recall,Recall2,3781,cup,0,3329,3546,0,0,,1
5ec530f7aa5afd49a06b00a2,pl773sod28,Nick_Dissertation_EX1,1,318,2020-06-02T09:50:13-07:00,3.5442819595337,3,versionC_stim.csv,READVersionC.csv,"Read Version C","Dissertation, read only version C",CUT,CHOP,Study2,B,107,129,Test,User,-,,Recall,Recall2,3092,scissors,33.333333333333,1842,2963,0,0,,1
5ec530f7aa5afd49a06b00a2,pl773sod28,Nick_Dissertation_EX1,1,319,2020-06-02T09:50:16-07:00,2.5329740047455,3,versionC_stim.csv,READVersionC.csv,"Read Version C","Dissertation, read only version C",BREAKABLE,GLASS,Study2,F,127,104,Test,User,-,,Recall,Recall2,2126,glass,100,1392,2030,1,1,,1
5ec530f7aa5afd49a06b00a2,pl773sod28,Nick_Dissertation_EX1,1,320,2020-06-02T09:50:18-07:00,2.0254909992218,3,versionC_stim.csv,READVersionC.csv,"Read Version C","Dissertation, read only version C",SEATBELT,SAFETY,Study2,S,147,100,Test,User,-,,Recall,Recall2,1601,car,22.222222222222,1132,1457,0,0,,1
5ec530f7aa5afd49a06b00a2,pl773sod28,Nick_Dissertation_EX1,1,321,2020-06-02T09:50:20-07:00,2.4264371395111,3,versionC_stim.csv,READVersionC.csv,"Read Version C","Dissertation, read only version C",COLD,CHILL,Study2,B,114,150,Test,User,-,,Recall,Recall2,1991,warm,0,1076,1650,0,0,,1
5ec530f7aa5afd49a06b00a2,pl773sod28,Nick_Dissertation_EX1,1,322,2020-06-02T09:50:26-07:00,5.2351169586182,3,versionC_stim.csv,READVersionC.csv,"Read Version C","Dissertation, read only version C",JAR,MASON,Study2,S,138,99,Test,User,-,,Recall,Recall2,4838,jam,25,1895,4198,0,0,,1
5ec530f7aa5afd49a06b00a2,pl773sod28,Nick_Dissertation_EX1,1,323,2020-06-02T09:50:28-07:00,2.4514439105988,3,versionC_stim.csv,READVersionC.csv,"Read Version C","Dissertation, read only version C",PANTHER,CAT,Study2,F,126,156,Test,User,-,,Recall,Recall2,2034,cat,100,1401,1852,1,1,,1
5ec530f7aa5afd49a06b00a2,pl773sod28,Nick_Dissertation_EX1,1,324,2020-06-02T09:50:38-07:00,10.162794113159,3,versionC_stim.csv,READVersionC.csv,"Read Version C","Dissertation, read only version C",SHAKE,Shell,Study2,U,163,160,Test,User,-,,Recall,Recall2,9654,,0,-1,-1,0,0,,1
5ec530f7aa5afd49a06b00a2,pl773sod28,Nick_Dissertation_EX1,1,325,2020-06-02T09:50:42-07:00,3.8950979709625,3,versionC_stim.csv,READVersionC.csv,"Read Version C","Dissertation, read only version C",NAP,SLEEP,Study2,F,134,128,Test,User,-,,Recall,Recall2,3486,sleep,100,2162,3017,1,1,,1
5ec530f7aa5afd49a06b00a2,pl773sod28,Nick_Dissertation_EX1,1,326,2020-06-02T09:50:45-07:00,3.1427900791168,3,versionC_stim.csv,READVersionC.csv,"Read Version C","Dissertation, read only version C",CARBON,ELEMENT,Study2,S,141,172,Test,User,-,,Recall,Recall2,2709,element,100,1474,2292,1,1,,1
5ec530f7aa5afd49a06b00a2,pl773sod28,Nick_Dissertation_EX1,1,327,2020-06-02T09:50:49-07:00,3.2956337928772,3,versionC_stim.csv,READVersionC.csv,"Read Version C","Dissertation, read only version C",PENGUIN,BIRD,Study2,F,119,154,Test,User,-,,Recall,Recall2,2852,cold,25,2299,2734,0,0,,1
5ec530f7aa5afd49a06b00a2,pl773sod28,Nick_Dissertation_EX1,1,328,2020-06-02T09:50:52-07:00,3.1032252311707,3,versionC_stim.csv,READVersionC.csv,"Read Version C","Dissertation, read only version C",TRASH,LITTER,Study2,B,103,163,Test,User,-,,Recall,Recall2,2675,garbage,15.384615384615,1205,2253,0,0,,1
5ec530f7aa5afd49a06b00a2,pl773sod28,Nick_Dissertation_EX1,1,329,2020-06-02T09:50:55-07:00,3.2512009143829,3,versionC_stim.csv,READVersionC.csv,"Read Version C","Dissertation, read only version C",TOIL,LEASE,Study2,U,170,113,Test,User,-,,Recall,Recall2,2863,work,0,1582,2517,0,0,,1
5ec530f7aa5afd49a06b00a2,pl773sod28,Nick_Dissertation_EX1,1,330,2020-06-02T09:50:59-07:00,4.3099429607391,3,versionC_stim.csv,READVersionC.csv,"Read Version C","Dissertation, read only version C",SCISSORS,SHEARS,Study2,B,112,102,Test,User,-,,Recall,Recall2,3900,shears,100,1304,3782,1,1,,1
5ec530f7aa5afd49a06b00a2,pl773sod28,Nick_Dissertation_EX1,1,331,2020-06-02T09:51:02-07:00,3.2468180656433,3,versionC_stim.csv,READVersionC.csv,"Read Version C","Dissertation, read only version C",BANG,FUZZY,Study2,U,168,148,Test,User,-,,Recall,Recall2,2821,pop,0,1603,1847,0,0,,1
5ec530f7aa5afd49a06b00a2,pl773sod28,Nick_Dissertation_EX1,1,332,2020-06-02T09:51:04-07:00,2.0586819648743,3,versionC_stim.csv,READVersionC.csv,"Read Version C","Dissertation, read only version C",TAN,SUN,Study2,S,155,171,Test,User,-,,Recall,Recall2,1633,sun,100,1266,1536,1,1,,1
5ec530f7aa5afd49a06b00a2,pl773sod28,Nick_Dissertation_EX1,1,333,2020-06-02T09:51:10-07:00,5.8861210346222,3,versionC_stim.csv,READVersionC.csv,"Read Version C","Dissertation, read only version C",CLOTH,STRETCH,Study2,U,157,103,Test,User,-,,Recall,Recall2,5415,clothes,28.571428571429,1533,5218,0,0,,1
5ec530f7aa5afd49a06b00a2,pl773sod28,Nick_Dissertation_EX1,1,334,2020-06-02T09:51:14-07:00,3.682245016098,3,versionC_stim.csv,READVersionC.csv,"Read Version C","Dissertation, read only version C",LONELY,ALONE,Study2,S,145,158,Test,User,-,,Recall,Recall2,2217,shy,0,1393,1588,0,0,,1
5ec530f7aa5afd49a06b00a2,pl773sod28,Nick_Dissertation_EX1,1,335,2020-06-02T09:51:17-07:00,2.5014808177948,3,versionC_stim.csv,READVersionC.csv,"Read Version C","Dissertation, read only version C",EAT,DINE,Study2,B,111,157,Test,User,-,,Recall,Recall2,2094,food,25,1607,2032,0,0,,1
5ec530f7aa5afd49a06b00a2,pl773sod28,Nick_Dissertation_EX1,1,336,2020-06-02T09:51:21-07:00,4.6820101737976,3,versionC_stim.csv,READVersionC.csv,"Read Version C","Dissertation, read only version C",DRINK,WATER,Study2,S,143,135,Test,User,-,,Recall,Recall2,4288,sip,0,3688,3925,0,0,,1
5ec530f7aa5afd49a06b00a2,pl773sod28,Nick_Dissertation_EX1,1,337,2020-06-02T09:51:24-07:00,2.7603850364685,3,versionC_stim.csv,READVersionC.csv,"Read Version C","Dissertation, read only version C",COFFIN,DEAD,Study2,F,128,175,Test,User,-,,Recall,Recall2,2311,dead,100,1337,1894,1,1,,1
5ec530f7aa5afd49a06b00a2,pl773sod28,Nick_Dissertation_EX1,1,338,2020-06-02T09:51:28-07:00,4.1000819206238,3,versionC_stim.csv,READVersionC.csv,"Read Version C","Dissertation, read only version C",BANKER,MONEY,Study2,F,132,116,Test,User,-,,Recall,Recall2,3683,work,22.222222222222,3081,3347,0,0,,1
5ec530f7aa5afd49a06b00a2,pl773sod28,Nick_Dissertation_EX1,1,339,2020-06-02T09:51:32-07:00,3.4229249954224,3,versionC_stim.csv,READVersionC.csv,"Read Version C","Dissertation, read only version C",STRAWBERRY,FRUIT,Study2,F,124,136,Test,User,-,,Recall,Recall2,2975,fruit,100,1220,2804,1,1,,1
5ec530f7aa5afd49a06b00a2,pl773sod28,Nick_Dissertation_EX1,1,340,2020-06-02T09:51:37-07:00,5.3552169799805,3,versionC_stim.csv,READVersionC.csv,"Read Version C","Dissertation, read only version C",FICTION,LISTEN,Study2,U,164,117,Test,User,-,,Recall,Recall2,4887,listen,100,2967,3707,1,1,,1
5ec530f7aa5afd49a06b00a2,pl773sod28,Nick_Dissertation_EX1,1,341,2020-06-02T09:51:40-07:00,3.5939080715179,3,versionC_stim.csv,READVersionC.csv,"Read Version C","Dissertation, read only version C",PLANT,CACTUS,Study2,B,98,138,Test,User,-,,Recall,Recall2,3175,flower,0,2207,2755,0,0,,1
5ec530f7aa5afd49a06b00a2,pl773sod28,Nick_Dissertation_EX1,1,342,2020-06-02T09:51:43-07:00,2.1066219806671,3,versionC_stim.csv,READVersionC.csv,"Read Version C","Dissertation, read only version C",TRUTHFUL,HONEST,Study2,F,133,159,Test,User,-,,Recall,Recall2,1699,lie,22.222222222222,1146,1375,0,0,,1
5ec530f7aa5afd49a06b00a2,pl773sod28,Nick_Dissertation_EX1,1,343,2020-06-02T09:51:47-07:00,3.9368770122528,3,versionC_stim.csv,READVersionC.csv,"Read Version C","Dissertation, read only version C",THIMBLE,THREAD,Study2,F,121,139,Test,User,-,,Recall,Recall2,3504,thumb,36.363636363636,2334,2896,0,0,,1
5ec530f7aa5afd49a06b00a2,pl773sod28,Nick_Dissertation_EX1,1,344,2020-06-02T09:51:50-07:00,3.0569870471954,3,versionC_stim.csv,READVersionC.csv,"Read Version C","Dissertation, read only version C",BRAWL,FIGHT,Study2,F,135,145,Test,User,-,,Recall,Recall2,2629,bar,0,2117,2411,0,0,,1
5ec530f7aa5afd49a06b00a2,pl773sod28,Nick_Dissertation_EX1,1,345,2020-06-02T09:51:52-07:00,2.3735048770905,3,versionC_stim.csv,READVersionC.csv,"Read Version C","Dissertation, read only version C",DONKEY,MULE,Study2,B,108,115,Test,User,-,,Recall,Recall2,1943,mule,100,1327,1783,1,1,,1
5ec530f7aa5afd49a06b00a2,pl773sod28,Nick_Dissertation_EX1,1,346,2020-06-02T09:51:55-07:00,3.3905460834503,3,versionC_stim.csv,READVersionC.csv,"Read Version C","Dissertation, read only version C",COMMUNICATION,PHONE,Study2,S,149,119,Test,User,-,,Recall,Recall2,2977,talk,0,2401,2735,0,0,,1
5ec530f7aa5afd49a06b00a2,pl773sod28,Nick_Dissertation_EX1,1,347,2020-06-02T09:51:59-07:00,3.2553360462189,3,versionC_stim.csv,READVersionC.csv,"Read Version C","Dissertation, read only version C",RED,CHERRY,Study2,B,104,101,Test,User,-,,Recall,Recall2,2830,green,18.181818181818,1744,2562,0,0,,1
