Username,ID,ExperimentName,Session,Trial,Date,TimeDif,"Condition Number","Stimuli File","Order File","Condition Description","Condition Notes",Stimuli*Cue,Stimuli*Answer,Stimuli*Shuffle,"Stimuli*Stimuli Notes",Stimuli*Value,Procedure*Item,"Procedure*Trial Type","Procedure*Max Time","Procedure*Min Time",Procedure*Text,"Procedure*Procedure Notes",Procedure*Shuffle,Response*RT,Response*Response,Response*Accuracy,Response*RTfirst,Response*RTlast,Response*strictAcc,Response*lenientAcc,Response*focus,Response*Focus
5d5ac177d5610d001ad9c24c,6fjw5o1tni,Nick_Dissertation_EX1,1,1,2020-07-08T14:39:05-07:00,13.850929021835,4,versionC_stim.csv,READVersionD.csv,"Read Version D","Dissertation, read only version D",,,,,,0,Instruct,-,10,"Please study each of the following word pairs. Remember that your memory will be tested! When finished, press Enter to move to the next pair.",Initial_Instruct,Instruct1,13606,,,-1,-1,,,,1
5d5ac177d5610d001ad9c24c,6fjw5o1tni,Nick_Dissertation_EX1,1,2,2020-07-08T14:39:06-07:00,1.4565100669861,4,versionC_stim.csv,READVersionD.csv,"Read Version D","Dissertation, read only version D",FROZEN,ICE,BUFFER3,Buffer,94,93,Study,User,-,,Study/JOL,BUFFER,1182,,,-1,-1,,,,1
5d5ac177d5610d001ad9c24c,6fjw5o1tni,Nick_Dissertation_EX1,1,3,2020-07-08T14:39:09-07:00,2.6863260269165,4,versionC_stim.csv,READVersionD.csv,"Read Version D","Dissertation, read only version D",STRING,NOODLE,BUFFER3,Buffer,92,94,Study,User,-,,Study/JOL,BUFFER,2402,,,-1,-1,,,,1
5d5ac177d5610d001ad9c24c,6fjw5o1tni,Nick_Dissertation_EX1,1,4,2020-07-08T14:39:10-07:00,1.5525848865509,4,versionC_stim.csv,READVersionD.csv,"Read Version D","Dissertation, read only version D",POTATO,CARROT,BUFFER3,Buffer,91,92,Study,User,-,,Study/JOL,BUFFER,1275,,,-1,-1,,,,1
5d5ac177d5610d001ad9c24c,6fjw5o1tni,Nick_Dissertation_EX1,1,5,2020-07-08T14:39:11-07:00,1.1259820461273,4,versionC_stim.csv,READVersionD.csv,"Read Version D","Dissertation, read only version D",FISH,SHRIMP,BUFFER3,Buffer,93,96,Study,User,-,,Study/JOL,BUFFER,871,,,-1,-1,,,,1
5d5ac177d5610d001ad9c24c,6fjw5o1tni,Nick_Dissertation_EX1,1,6,2020-07-08T14:39:13-07:00,1.183315038681,4,versionC_stim.csv,READVersionD.csv,"Read Version D","Dissertation, read only version D",ADVENTURE,CAMP,BUFFER3,Buffer,95,95,Study,User,-,,Study/JOL,BUFFER,885,,,-1,-1,,,,1
5d5ac177d5610d001ad9c24c,6fjw5o1tni,Nick_Dissertation_EX1,1,7,2020-07-08T14:39:13-07:00,0.88977098464966,4,versionC_stim.csv,READVersionD.csv,"Read Version D","Dissertation, read only version D",MAROON,JUSTICE,Study2,U,156,109,Study,User,-,,Study/JOL,"Study Phase",603,,,-1,-1,,,,1
5d5ac177d5610d001ad9c24c,6fjw5o1tni,Nick_Dissertation_EX1,1,8,2020-07-08T14:39:16-07:00,2.2052109241486,4,versionC_stim.csv,READVersionD.csv,"Read Version D","Dissertation, read only version D",ABLE,CRACKLE,Study2,U,162,143,Study,User,-,,Study/JOL,"Study Phase",1886,,,-1,-1,,,,1
5d5ac177d5610d001ad9c24c,6fjw5o1tni,Nick_Dissertation_EX1,1,9,2020-07-08T14:39:17-07:00,1.0417680740356,4,versionC_stim.csv,READVersionD.csv,"Read Version D","Dissertation, read only version D",REEL,ROD,Study2,S,150,128,Study,User,-,,Study/JOL,"Study Phase",762,,,-1,-1,,,,1
5d5ac177d5610d001ad9c24c,6fjw5o1tni,Nick_Dissertation_EX1,1,10,2020-07-08T14:39:18-07:00,1.0595738887787,4,versionC_stim.csv,READVersionD.csv,"Read Version D","Dissertation, read only version D",DONKEY,MULE,Study2,B,108,145,Study,User,-,,Study/JOL,"Study Phase",808,,,-1,-1,,,,1
5d5ac177d5610d001ad9c24c,6fjw5o1tni,Nick_Dissertation_EX1,1,11,2020-07-08T14:39:19-07:00,1.531347990036,4,versionC_stim.csv,READVersionD.csv,"Read Version D","Dissertation, read only version D",WAX,CANDLE,Study2,S,139,111,Study,User,-,,Study/JOL,"Study Phase",1277,,,-1,-1,,,,1
5d5ac177d5610d001ad9c24c,6fjw5o1tni,Nick_Dissertation_EX1,1,12,2020-07-08T14:39:22-07:00,2.20166015625,4,versionC_stim.csv,READVersionD.csv,"Read Version D","Dissertation, read only version D",BREAKABLE,GLASS,Study2,F,127,124,Study,User,-,,Study/JOL,"Study Phase",934,,,-1,-1,,,,1
5d5ac177d5610d001ad9c24c,6fjw5o1tni,Nick_Dissertation_EX1,1,13,2020-07-08T14:39:23-07:00,1.1853048801422,4,versionC_stim.csv,READVersionD.csv,"Read Version D","Dissertation, read only version D",FAVORITE,BEST,Study2,F,125,112,Study,User,-,,Study/JOL,"Study Phase",885,,,-1,-1,,,,1
5d5ac177d5610d001ad9c24c,6fjw5o1tni,Nick_Dissertation_EX1,1,14,2020-07-08T14:39:24-07:00,1.7662250995636,4,versionC_stim.csv,READVersionD.csv,"Read Version D","Dissertation, read only version D",TRUTHFUL,HONEST,Study2,F,133,127,Study,User,-,,Study/JOL,"Study Phase",1518,,,-1,-1,,,,1
5d5ac177d5610d001ad9c24c,6fjw5o1tni,Nick_Dissertation_EX1,1,15,2020-07-08T14:39:26-07:00,1.4413630962372,4,versionC_stim.csv,READVersionD.csv,"Read Version D","Dissertation, read only version D",OBTAIN,MEAT,Study2,U,161,135,Study,User,-,,Study/JOL,"Study Phase",1166,,,-1,-1,,,,1
5d5ac177d5610d001ad9c24c,6fjw5o1tni,Nick_Dissertation_EX1,1,16,2020-07-08T14:39:27-07:00,1.0586478710175,4,versionC_stim.csv,READVersionD.csv,"Read Version D","Dissertation, read only version D",WINDSHIELD,CAR,Study2,F,117,167,Study,User,-,,Study/JOL,"Study Phase",774,,,-1,-1,,,,1
5d5ac177d5610d001ad9c24c,6fjw5o1tni,Nick_Dissertation_EX1,1,17,2020-07-08T14:39:29-07:00,1.6910219192505,4,versionC_stim.csv,READVersionD.csv,"Read Version D","Dissertation, read only version D",SMELL,INCENSE,Study2,B,110,133,Study,User,-,,Study/JOL,"Study Phase",1400,,,-1,-1,,,,1
5d5ac177d5610d001ad9c24c,6fjw5o1tni,Nick_Dissertation_EX1,1,18,2020-07-08T14:39:30-07:00,1.3525660037994,4,versionC_stim.csv,READVersionD.csv,"Read Version D","Dissertation, read only version D",COLD,CHILL,Study2,B,114,136,Study,User,-,,Study/JOL,"Study Phase",1065,,,-1,-1,,,,1
5d5ac177d5610d001ad9c24c,6fjw5o1tni,Nick_Dissertation_EX1,1,19,2020-07-08T14:39:31-07:00,1.0765881538391,4,versionC_stim.csv,READVersionD.csv,"Read Version D","Dissertation, read only version D",MYSTERY,DETECTIVE,Study2,B,100,150,Study,User,-,,Study/JOL,"Study Phase",765,,,-1,-1,,,,1
5d5ac177d5610d001ad9c24c,6fjw5o1tni,Nick_Dissertation_EX1,1,20,2020-07-08T14:39:32-07:00,1.0627160072327,4,versionC_stim.csv,READVersionD.csv,"Read Version D","Dissertation, read only version D",AWAY,GONE,Study2,S,142,139,Study,User,-,,Study/JOL,"Study Phase",733,,,-1,-1,,,,1
5d5ac177d5610d001ad9c24c,6fjw5o1tni,Nick_Dissertation_EX1,1,21,2020-07-08T14:39:34-07:00,1.3501219749451,4,versionC_stim.csv,READVersionD.csv,"Read Version D","Dissertation, read only version D",HAVE,OWN,Study2,S,153,169,Study,User,-,,Study/JOL,"Study Phase",1044,,,-1,-1,,,,1
5d5ac177d5610d001ad9c24c,6fjw5o1tni,Nick_Dissertation_EX1,1,22,2020-07-08T14:39:35-07:00,1.0795209407806,4,versionC_stim.csv,READVersionD.csv,"Read Version D","Dissertation, read only version D",AIRCRAFT,PLANE,Study2,F,129,151,Study,User,-,,Study/JOL,"Study Phase",764,,,-1,-1,,,,1
5d5ac177d5610d001ad9c24c,6fjw5o1tni,Nick_Dissertation_EX1,1,23,2020-07-08T14:39:36-07:00,1.385843038559,4,versionC_stim.csv,READVersionD.csv,"Read Version D","Dissertation, read only version D",STRAWBERRY,FRUIT,Study2,F,124,98,Study,User,-,,Study/JOL,"Study Phase",1096,,,-1,-1,,,,1
5d5ac177d5610d001ad9c24c,6fjw5o1tni,Nick_Dissertation_EX1,1,24,2020-07-08T14:39:37-07:00,1.3039889335632,4,versionC_stim.csv,READVersionD.csv,"Read Version D","Dissertation, read only version D",DOG,FURRY,Study2,B,102,163,Study,User,-,,Study/JOL,"Study Phase",1001,,,-1,-1,,,,1
5d5ac177d5610d001ad9c24c,6fjw5o1tni,Nick_Dissertation_EX1,1,25,2020-07-08T14:39:39-07:00,1.4880080223083,4,versionC_stim.csv,READVersionD.csv,"Read Version D","Dissertation, read only version D",EQUAL,RIGHTS,Study2,S,137,110,Study,User,-,,Study/JOL,"Study Phase",1235,,,-1,-1,,,,1
5d5ac177d5610d001ad9c24c,6fjw5o1tni,Nick_Dissertation_EX1,1,26,2020-07-08T14:39:41-07:00,1.9133670330048,4,versionC_stim.csv,READVersionD.csv,"Read Version D","Dissertation, read only version D",BRACELET,WRIST,Study2,S,140,106,Study,User,-,,Study/JOL,"Study Phase",1592,,,-1,-1,,,,1
5d5ac177d5610d001ad9c24c,6fjw5o1tni,Nick_Dissertation_EX1,1,27,2020-07-08T14:39:43-07:00,2.2194240093231,4,versionC_stim.csv,READVersionD.csv,"Read Version D","Dissertation, read only version D",LONELY,ALONE,Study2,S,145,119,Study,User,-,,Study/JOL,"Study Phase",1862,,,-1,-1,,,,1
5d5ac177d5610d001ad9c24c,6fjw5o1tni,Nick_Dissertation_EX1,1,28,2020-07-08T14:39:44-07:00,0.75598788261414,4,versionC_stim.csv,READVersionD.csv,"Read Version D","Dissertation, read only version D",NAP,SLEEP,Study2,F,134,165,Study,User,-,,Study/JOL,"Study Phase",462,,,-1,-1,,,,1
5d5ac177d5610d001ad9c24c,6fjw5o1tni,Nick_Dissertation_EX1,1,29,2020-07-08T14:39:44-07:00,0.76499509811401,4,versionC_stim.csv,READVersionD.csv,"Read Version D","Dissertation, read only version D",PAPER,DOCUMENT,Study2,B,109,138,Study,User,-,,Study/JOL,"Study Phase",490,,,-1,-1,,,,1
5d5ac177d5610d001ad9c24c,6fjw5o1tni,Nick_Dissertation_EX1,1,30,2020-07-08T14:39:45-07:00,0.72142791748047,4,versionC_stim.csv,READVersionD.csv,"Read Version D","Dissertation, read only version D",GAME,CLUE,Study2,B,97,175,Study,User,-,,Study/JOL,"Study Phase",453,,,-1,-1,,,,1
5d5ac177d5610d001ad9c24c,6fjw5o1tni,Nick_Dissertation_EX1,1,31,2020-07-08T14:39:46-07:00,1.0411269664764,4,versionC_stim.csv,READVersionD.csv,"Read Version D","Dissertation, read only version D",LIE,TRUTH,Study2,S,148,107,Study,User,-,,Study/JOL,"Study Phase",755,,,-1,-1,,,,1
5d5ac177d5610d001ad9c24c,6fjw5o1tni,Nick_Dissertation_EX1,1,32,2020-07-08T14:39:47-07:00,1.2223711013794,4,versionC_stim.csv,READVersionD.csv,"Read Version D","Dissertation, read only version D",LEAGUE,BASEBALL,Study2,F,131,158,Study,User,-,,Study/JOL,"Study Phase",952,,,-1,-1,,,,1
5d5ac177d5610d001ad9c24c,6fjw5o1tni,Nick_Dissertation_EX1,1,33,2020-07-08T14:39:49-07:00,1.1534581184387,4,versionC_stim.csv,READVersionD.csv,"Read Version D","Dissertation, read only version D",Morning,TEMPERATURE,Study2,U,173,147,Study,User,-,,Study/JOL,"Study Phase",858,,,-1,-1,,,,1
5d5ac177d5610d001ad9c24c,6fjw5o1tni,Nick_Dissertation_EX1,1,34,2020-07-08T14:39:50-07:00,1.7674598693848,4,versionC_stim.csv,READVersionD.csv,"Read Version D","Dissertation, read only version D",CARBON,ELEMENT,Study2,S,141,114,Study,User,-,,Study/JOL,"Study Phase",1473,,,-1,-1,,,,1
5d5ac177d5610d001ad9c24c,6fjw5o1tni,Nick_Dissertation_EX1,1,35,2020-07-08T14:39:51-07:00,0.74948406219482,4,versionC_stim.csv,READVersionD.csv,"Read Version D","Dissertation, read only version D",DRINK,WATER,Study2,S,143,137,Study,User,-,,Study/JOL,"Study Phase",475,,,-1,-1,,,,1
5d5ac177d5610d001ad9c24c,6fjw5o1tni,Nick_Dissertation_EX1,1,36,2020-07-08T14:39:52-07:00,0.93807196617126,4,versionC_stim.csv,READVersionD.csv,"Read Version D","Dissertation, read only version D",TEMPER,TANTRUM,Study2,S,154,120,Study,User,-,,Study/JOL,"Study Phase",637,,,-1,-1,,,,1
5d5ac177d5610d001ad9c24c,6fjw5o1tni,Nick_Dissertation_EX1,1,37,2020-07-08T14:39:53-07:00,1.321799993515,4,versionC_stim.csv,READVersionD.csv,"Read Version D","Dissertation, read only version D",VILLAIN,BAD,Study2,F,118,130,Study,User,-,,Study/JOL,"Study Phase",1030,,,-1,-1,,,,1
5d5ac177d5610d001ad9c24c,6fjw5o1tni,Nick_Dissertation_EX1,1,38,2020-07-08T14:39:54-07:00,0.9555459022522,4,versionC_stim.csv,READVersionD.csv,"Read Version D","Dissertation, read only version D",COMMUNICATION,PHONE,Study2,S,149,100,Study,User,-,,Study/JOL,"Study Phase",646,,,-1,-1,,,,1
5d5ac177d5610d001ad9c24c,6fjw5o1tni,Nick_Dissertation_EX1,1,39,2020-07-08T14:39:55-07:00,0.81911015510559,4,versionC_stim.csv,READVersionD.csv,"Read Version D","Dissertation, read only version D",TOIL,LEASE,Study2,U,170,116,Study,User,-,,Study/JOL,"Study Phase",542,,,-1,-1,,,,1
5d5ac177d5610d001ad9c24c,6fjw5o1tni,Nick_Dissertation_EX1,1,40,2020-07-08T14:39:56-07:00,1.0592648983002,4,versionC_stim.csv,READVersionD.csv,"Read Version D","Dissertation, read only version D",HEAD,SCALP,Study2,B,105,122,Study,User,-,,Study/JOL,"Study Phase",766,,,-1,-1,,,,1
5d5ac177d5610d001ad9c24c,6fjw5o1tni,Nick_Dissertation_EX1,1,41,2020-07-08T14:39:57-07:00,0.73720598220825,4,versionC_stim.csv,READVersionD.csv,"Read Version D","Dissertation, read only version D",CAR,DRIVER,Study2,B,106,166,Study,User,-,,Study/JOL,"Study Phase",435,,,-1,-1,,,,1
5d5ac177d5610d001ad9c24c,6fjw5o1tni,Nick_Dissertation_EX1,1,42,2020-07-08T14:39:58-07:00,0.74181008338928,4,versionC_stim.csv,READVersionD.csv,"Read Version D","Dissertation, read only version D",TAN,SUN,Study2,S,155,123,Study,User,-,,Study/JOL,"Study Phase",484,,,-1,-1,,,,1
5d5ac177d5610d001ad9c24c,6fjw5o1tni,Nick_Dissertation_EX1,1,43,2020-07-08T14:39:58-07:00,0.73379993438721,4,versionC_stim.csv,READVersionD.csv,"Read Version D","Dissertation, read only version D",SARDINE,FISH,Study2,F,130,155,Study,User,-,,Study/JOL,"Study Phase",419,,,-1,-1,,,,1
5d5ac177d5610d001ad9c24c,6fjw5o1tni,Nick_Dissertation_EX1,1,44,2020-07-08T14:40:00-07:00,1.1739859580994,4,versionC_stim.csv,READVersionD.csv,"Read Version D","Dissertation, read only version D",BANG,FUZZY,Study2,U,168,156,Study,User,-,,Study/JOL,"Study Phase",875,,,-1,-1,,,,1
5d5ac177d5610d001ad9c24c,6fjw5o1tni,Nick_Dissertation_EX1,1,45,2020-07-08T14:40:00-07:00,0.75876116752625,4,versionC_stim.csv,READVersionD.csv,"Read Version D","Dissertation, read only version D",JOKE,KEYS,Study2,U,165,121,Study,User,-,,Study/JOL,"Study Phase",493,,,-1,-1,,,,1
5d5ac177d5610d001ad9c24c,6fjw5o1tni,Nick_Dissertation_EX1,1,46,2020-07-08T14:40:01-07:00,0.8165328502655,4,versionC_stim.csv,READVersionD.csv,"Read Version D","Dissertation, read only version D",CLOTHES,CAKE,Study2,U,166,142,Study,User,-,,Study/JOL,"Study Phase",516,,,-1,-1,,,,1
5d5ac177d5610d001ad9c24c,6fjw5o1tni,Nick_Dissertation_EX1,1,47,2020-07-08T14:40:03-07:00,1.8449110984802,4,versionC_stim.csv,READVersionD.csv,"Read Version D","Dissertation, read only version D",HATE,NAME,Study2,U,167,146,Study,User,-,,Study/JOL,"Study Phase",1528,,,-1,-1,,,,1
5d5ac177d5610d001ad9c24c,6fjw5o1tni,Nick_Dissertation_EX1,1,48,2020-07-08T14:40:05-07:00,1.6875360012054,4,versionC_stim.csv,READVersionD.csv,"Read Version D","Dissertation, read only version D",SIGN,LOAN,Study2,U,171,131,Study,User,-,,Study/JOL,"Study Phase",1396,,,-1,-1,,,,1
5d5ac177d5610d001ad9c24c,6fjw5o1tni,Nick_Dissertation_EX1,1,49,2020-07-08T14:40:06-07:00,1.0742959976196,4,versionC_stim.csv,READVersionD.csv,"Read Version D","Dissertation, read only version D",JAR,MASON,Study2,S,138,159,Study,User,-,,Study/JOL,"Study Phase",803,,,-1,-1,,,,1
5d5ac177d5610d001ad9c24c,6fjw5o1tni,Nick_Dissertation_EX1,1,50,2020-07-08T14:40:07-07:00,1.5984089374542,4,versionC_stim.csv,READVersionD.csv,"Read Version D","Dissertation, read only version D",ELECTION,MAZE,Study2,U,159,164,Study,User,-,,Study/JOL,"Study Phase",1321,,,-1,-1,,,,1
5d5ac177d5610d001ad9c24c,6fjw5o1tni,Nick_Dissertation_EX1,1,51,2020-07-08T14:40:09-07:00,1.3729720115662,4,versionC_stim.csv,READVersionD.csv,"Read Version D","Dissertation, read only version D",PENGUIN,BIRD,Study2,F,119,141,Study,User,-,,Study/JOL,"Study Phase",1032,,,-1,-1,,,,1
5d5ac177d5610d001ad9c24c,6fjw5o1tni,Nick_Dissertation_EX1,1,52,2020-07-08T14:40:12-07:00,3.5084500312805,4,versionC_stim.csv,READVersionD.csv,"Read Version D","Dissertation, read only version D",END,ADJOURN,Study2,B,101,115,Study,User,-,,Study/JOL,"Study Phase",3170,,,-1,-1,,,,1
5d5ac177d5610d001ad9c24c,6fjw5o1tni,Nick_Dissertation_EX1,1,53,2020-07-08T14:40:14-07:00,1.997298002243,4,versionC_stim.csv,READVersionD.csv,"Read Version D","Dissertation, read only version D",SHAKE,Shell,Study2,U,163,118,Study,User,-,,Study/JOL,"Study Phase",1705,,,-1,-1,,,,1
5d5ac177d5610d001ad9c24c,6fjw5o1tni,Nick_Dissertation_EX1,1,54,2020-07-08T14:40:17-07:00,2.9502930641174,4,versionC_stim.csv,READVersionD.csv,"Read Version D","Dissertation, read only version D",TIE,SHOELACE,Study2,B,99,149,Study,User,-,,Study/JOL,"Study Phase",2648,,,-1,-1,,,,1
5d5ac177d5610d001ad9c24c,6fjw5o1tni,Nick_Dissertation_EX1,1,55,2020-07-08T14:40:22-07:00,4.5310418605804,4,versionC_stim.csv,READVersionD.csv,"Read Version D","Dissertation, read only version D",CHARM,VEHICLE,Study2,U,160,148,Study,User,-,,Study/JOL,"Study Phase",4245,,,-1,-1,,,,1
5d5ac177d5610d001ad9c24c,6fjw5o1tni,Nick_Dissertation_EX1,1,56,2020-07-08T14:40:24-07:00,2.8040289878845,4,versionC_stim.csv,READVersionD.csv,"Read Version D","Dissertation, read only version D",STEAK,GIVE,Study2,U,158,134,Study,User,-,,Study/JOL,"Study Phase",2478,,,-1,-1,,,,1
5d5ac177d5610d001ad9c24c,6fjw5o1tni,Nick_Dissertation_EX1,1,57,2020-07-08T14:40:25-07:00,0.78647303581238,4,versionC_stim.csv,READVersionD.csv,"Read Version D","Dissertation, read only version D",RED,CHERRY,Study2,B,104,104,Study,User,-,,Study/JOL,"Study Phase",523,,,-1,-1,,,,1
5d5ac177d5610d001ad9c24c,6fjw5o1tni,Nick_Dissertation_EX1,1,58,2020-07-08T14:40:26-07:00,0.7792501449585,4,versionC_stim.csv,READVersionD.csv,"Read Version D","Dissertation, read only version D",NOISE,LOUD,Study2,S,152,162,Study,User,-,,Study/JOL,"Study Phase",482,,,-1,-1,,,,1
5d5ac177d5610d001ad9c24c,6fjw5o1tni,Nick_Dissertation_EX1,1,59,2020-07-08T14:40:27-07:00,0.93072986602783,4,versionC_stim.csv,READVersionD.csv,"Read Version D","Dissertation, read only version D",SCISSORS,SHEARS,Study2,B,112,173,Study,User,-,,Study/JOL,"Study Phase",623,,,-1,-1,,,,1
5d5ac177d5610d001ad9c24c,6fjw5o1tni,Nick_Dissertation_EX1,1,60,2020-07-08T14:40:28-07:00,0.93303799629211,4,versionC_stim.csv,READVersionD.csv,"Read Version D","Dissertation, read only version D",GROUND,EARTH,Study2,S,144,105,Study,User,-,,Study/JOL,"Study Phase",615,,,-1,-1,,,,1
5d5ac177d5610d001ad9c24c,6fjw5o1tni,Nick_Dissertation_EX1,1,61,2020-07-08T14:40:29-07:00,0.96381807327271,4,versionC_stim.csv,READVersionD.csv,"Read Version D","Dissertation, read only version D",SEATBELT,SAFETY,Study2,S,147,99,Study,User,-,,Study/JOL,"Study Phase",657,,,-1,-1,,,,1
5d5ac177d5610d001ad9c24c,6fjw5o1tni,Nick_Dissertation_EX1,1,62,2020-07-08T14:40:30-07:00,0.79110407829285,4,versionC_stim.csv,READVersionD.csv,"Read Version D","Dissertation, read only version D",CHILDREN,MIRROR,Study2,U,174,140,Study,User,-,,Study/JOL,"Study Phase",479,,,-1,-1,,,,1
5d5ac177d5610d001ad9c24c,6fjw5o1tni,Nick_Dissertation_EX1,1,63,2020-07-08T14:40:30-07:00,0.77112197875977,4,versionC_stim.csv,READVersionD.csv,"Read Version D","Dissertation, read only version D",CUT,CHOP,Study2,B,107,154,Study,User,-,,Study/JOL,"Study Phase",449,,,-1,-1,,,,1
5d5ac177d5610d001ad9c24c,6fjw5o1tni,Nick_Dissertation_EX1,1,64,2020-07-08T14:40:32-07:00,1.2051467895508,4,versionC_stim.csv,READVersionD.csv,"Read Version D","Dissertation, read only version D",LONG,EXTENSION,Study2,B,96,172,Study,User,-,,Study/JOL,"Study Phase",894,,,-1,-1,,,,1
5d5ac177d5610d001ad9c24c,6fjw5o1tni,Nick_Dissertation_EX1,1,65,2020-07-08T14:40:33-07:00,0.86221408843994,4,versionC_stim.csv,READVersionD.csv,"Read Version D","Dissertation, read only version D",ACTRESS,STAR,Study2,F,120,144,Study,User,-,,Study/JOL,"Study Phase",573,,,-1,-1,,,,1
5d5ac177d5610d001ad9c24c,6fjw5o1tni,Nick_Dissertation_EX1,1,66,2020-07-08T14:40:33-07:00,0.82713508605957,4,versionC_stim.csv,READVersionD.csv,"Read Version D","Dissertation, read only version D",SHAVE,RAZOR,Study2,S,136,168,Study,User,-,,Study/JOL,"Study Phase",522,,,-1,-1,,,,1
5d5ac177d5610d001ad9c24c,6fjw5o1tni,Nick_Dissertation_EX1,1,67,2020-07-08T14:40:34-07:00,0.79388904571533,4,versionC_stim.csv,READVersionD.csv,"Read Version D","Dissertation, read only version D",PLANT,CACTUS,Study2,B,98,108,Study,User,-,,Study/JOL,"Study Phase",512,,,-1,-1,,,,1
5d5ac177d5610d001ad9c24c,6fjw5o1tni,Nick_Dissertation_EX1,1,68,2020-07-08T14:40:35-07:00,0.69782996177673,4,versionC_stim.csv,READVersionD.csv,"Read Version D","Dissertation, read only version D",OUNCE,BOTH,Study2,U,172,101,Study,User,-,,Study/JOL,"Study Phase",440,,,-1,-1,,,,1
5d5ac177d5610d001ad9c24c,6fjw5o1tni,Nick_Dissertation_EX1,1,69,2020-07-08T14:40:36-07:00,1.1263918876648,4,versionC_stim.csv,READVersionD.csv,"Read Version D","Dissertation, read only version D",TICK,FLEA,Study2,S,151,113,Study,User,-,,Study/JOL,"Study Phase",815,,,-1,-1,,,,1
5d5ac177d5610d001ad9c24c,6fjw5o1tni,Nick_Dissertation_EX1,1,70,2020-07-08T14:40:38-07:00,1.8413381576538,4,versionC_stim.csv,READVersionD.csv,"Read Version D","Dissertation, read only version D",THIMBLE,THREAD,Study2,F,121,174,Study,User,-,,Study/JOL,"Study Phase",1556,,,-1,-1,,,,1
5d5ac177d5610d001ad9c24c,6fjw5o1tni,Nick_Dissertation_EX1,1,71,2020-07-08T14:40:39-07:00,0.7323739528656,4,versionC_stim.csv,READVersionD.csv,"Read Version D","Dissertation, read only version D",FIGHT,FEUD,Study2,B,113,161,Study,User,-,,Study/JOL,"Study Phase",442,,,-1,-1,,,,1
5d5ac177d5610d001ad9c24c,6fjw5o1tni,Nick_Dissertation_EX1,1,72,2020-07-08T14:40:40-07:00,1.1645219326019,4,versionC_stim.csv,READVersionD.csv,"Read Version D","Dissertation, read only version D",FICTION,LISTEN,Study2,U,164,171,Study,User,-,,Study/JOL,"Study Phase",847,,,-1,-1,,,,1
5d5ac177d5610d001ad9c24c,6fjw5o1tni,Nick_Dissertation_EX1,1,73,2020-07-08T14:40:41-07:00,1.0098679065704,4,versionC_stim.csv,READVersionD.csv,"Read Version D","Dissertation, read only version D",BANKER,MONEY,Study2,F,132,103,Study,User,-,,Study/JOL,"Study Phase",704,,,-1,-1,,,,1
5d5ac177d5610d001ad9c24c,6fjw5o1tni,Nick_Dissertation_EX1,1,74,2020-07-08T14:40:42-07:00,0.99947500228882,4,versionC_stim.csv,READVersionD.csv,"Read Version D","Dissertation, read only version D",TRASH,LITTER,Study2,B,103,117,Study,User,-,,Study/JOL,"Study Phase",691,,,-1,-1,,,,1
5d5ac177d5610d001ad9c24c,6fjw5o1tni,Nick_Dissertation_EX1,1,75,2020-07-08T14:40:42-07:00,0.76219820976257,4,versionC_stim.csv,READVersionD.csv,"Read Version D","Dissertation, read only version D",REVENGE,EVEN,Study2,F,122,160,Study,User,-,,Study/JOL,"Study Phase",432,,,-1,-1,,,,1
5d5ac177d5610d001ad9c24c,6fjw5o1tni,Nick_Dissertation_EX1,1,76,2020-07-08T14:40:44-07:00,1.054575920105,4,versionC_stim.csv,READVersionD.csv,"Read Version D","Dissertation, read only version D",BRAWL,FIGHT,Study2,F,135,153,Study,User,-,,Study/JOL,"Study Phase",757,,,-1,-1,,,,1
5d5ac177d5610d001ad9c24c,6fjw5o1tni,Nick_Dissertation_EX1,1,77,2020-07-08T14:40:44-07:00,0.77529692649841,4,versionC_stim.csv,READVersionD.csv,"Read Version D","Dissertation, read only version D",SCAR,MAIN,Study2,U,175,102,Study,User,-,,Study/JOL,"Study Phase",467,,,-1,-1,,,,1
5d5ac177d5610d001ad9c24c,6fjw5o1tni,Nick_Dissertation_EX1,1,78,2020-07-08T14:40:45-07:00,0.87018013000488,4,versionC_stim.csv,READVersionD.csv,"Read Version D","Dissertation, read only version D",COFFIN,DEAD,Study2,F,128,129,Study,User,-,,Study/JOL,"Study Phase",530,,,-1,-1,,,,1
5d5ac177d5610d001ad9c24c,6fjw5o1tni,Nick_Dissertation_EX1,1,79,2020-07-08T14:40:46-07:00,0.75920295715332,4,versionC_stim.csv,READVersionD.csv,"Read Version D","Dissertation, read only version D",EAT,DINE,Study2,B,111,157,Study,User,-,,Study/JOL,"Study Phase",453,,,-1,-1,,,,1
5d5ac177d5610d001ad9c24c,6fjw5o1tni,Nick_Dissertation_EX1,1,80,2020-07-08T14:40:47-07:00,0.79720091819763,4,versionC_stim.csv,READVersionD.csv,"Read Version D","Dissertation, read only version D",WET,DRY,Study2,S,146,170,Study,User,-,,Study/JOL,"Study Phase",507,,,-1,-1,,,,1
5d5ac177d5610d001ad9c24c,6fjw5o1tni,Nick_Dissertation_EX1,1,81,2020-07-08T14:40:48-07:00,0.91363596916199,4,versionC_stim.csv,READVersionD.csv,"Read Version D","Dissertation, read only version D",CLEAR,MOAT,Study2,U,169,176,Study,User,-,,Study/JOL,"Study Phase",647,,,-1,-1,,,,1
5d5ac177d5610d001ad9c24c,6fjw5o1tni,Nick_Dissertation_EX1,1,82,2020-07-08T14:40:49-07:00,1.4305579662323,4,versionC_stim.csv,READVersionD.csv,"Read Version D","Dissertation, read only version D",PANTHER,CAT,Study2,F,126,126,Study,User,-,,Study/JOL,"Study Phase",1116,,,-1,-1,,,,1
5d5ac177d5610d001ad9c24c,6fjw5o1tni,Nick_Dissertation_EX1,1,83,2020-07-08T14:40:50-07:00,0.70262002944946,4,versionC_stim.csv,READVersionD.csv,"Read Version D","Dissertation, read only version D",LOVE,AFFECTION,Study2,B,115,125,Study,User,-,,Study/JOL,"Study Phase",423,,,-1,-1,,,,1
5d5ac177d5610d001ad9c24c,6fjw5o1tni,Nick_Dissertation_EX1,1,84,2020-07-08T14:40:50-07:00,0.72005295753479,4,versionC_stim.csv,READVersionD.csv,"Read Version D","Dissertation, read only version D",CLOTH,STRETCH,Study2,U,157,152,Study,User,-,,Study/JOL,"Study Phase",408,,,-1,-1,,,,1
5d5ac177d5610d001ad9c24c,6fjw5o1tni,Nick_Dissertation_EX1,1,85,2020-07-08T14:40:51-07:00,0.6767430305481,4,versionC_stim.csv,READVersionD.csv,"Read Version D","Dissertation, read only version D",FLIP,TURN,Study2,F,116,132,Study,User,-,,Study/JOL,"Study Phase",380,,,-1,-1,,,,1
5d5ac177d5610d001ad9c24c,6fjw5o1tni,Nick_Dissertation_EX1,1,86,2020-07-08T14:40:52-07:00,0.61999702453613,4,versionC_stim.csv,READVersionD.csv,"Read Version D","Dissertation, read only version D",BALLOON,POP,Study2,F,123,97,Study,User,-,,Study/JOL,"Study Phase",349,,,-1,-1,,,,1
5d5ac177d5610d001ad9c24c,6fjw5o1tni,Nick_Dissertation_EX1,1,87,2020-07-08T14:40:52-07:00,0.66861510276794,4,versionC_stim.csv,READVersionD.csv,"Read Version D","Dissertation, read only version D",YEAR,MONTH,BUFFER4,Buffer,177,179,Study,User,-,,Study/JOL,BUFFER2,374,,,-1,-1,,,,1
5d5ac177d5610d001ad9c24c,6fjw5o1tni,Nick_Dissertation_EX1,1,88,2020-07-08T14:40:53-07:00,0.71836090087891,4,versionC_stim.csv,READVersionD.csv,"Read Version D","Dissertation, read only version D",WEAKS,DAYS,BUFFER4,Buffer,176,177,Study,User,-,,Study/JOL,BUFFER2,366,,,-1,-1,,,,1
5d5ac177d5610d001ad9c24c,6fjw5o1tni,Nick_Dissertation_EX1,1,89,2020-07-08T14:40:54-07:00,0.74983096122742,4,versionC_stim.csv,READVersionD.csv,"Read Version D","Dissertation, read only version D",SPOOKY,OCTOBER,BUFFER4,Buffer,180,181,Study,User,-,,Study/JOL,BUFFER2,419,,,-1,-1,,,,1
5d5ac177d5610d001ad9c24c,6fjw5o1tni,Nick_Dissertation_EX1,1,90,2020-07-08T14:40:55-07:00,0.81289720535278,4,versionC_stim.csv,READVersionD.csv,"Read Version D","Dissertation, read only version D",MARCH,SPRING,BUFFER4,Buffer,179,180,Study,User,-,,Study/JOL,BUFFER2,507,,,-1,-1,,,,1
5d5ac177d5610d001ad9c24c,6fjw5o1tni,Nick_Dissertation_EX1,1,91,2020-07-08T14:40:55-07:00,0.7233247756958,4,versionC_stim.csv,READVersionD.csv,"Read Version D","Dissertation, read only version D",SHED,TOOL,BUFFER4,Buffer,178,178,Study,User,-,,Study/JOL,BUFFER2,412,,,-1,-1,,,,1
5d5ac177d5610d001ad9c24c,6fjw5o1tni,Nick_Dissertation_EX1,1,92,2020-07-08T14:40:57-07:00,1.6529581546783,4,versionC_stim.csv,READVersionD.csv,"Read Version D","Dissertation, read only version D",,,,,,0,Instruct,User,-,"You have completed this section. Please press Enter.",Filler_Instruction,Instruct2,1360,,,-1,-1,,,,1
5d5ac177d5610d001ad9c24c,6fjw5o1tni,Nick_Dissertation_EX1,1,93,2020-07-08T14:42:57-07:00,120.33771800995,4,versionC_stim.csv,READVersionD.csv,"Read Version D","Dissertation, read only version D",,,,,,0,FreeRecall,120,120,"Please list the 50 US states in alphabetical order. The task will automatically advance to the next screen after two minutes.",,Filler1,120005,"Alabama Alaska Arizona California Colorado Connecticut Delaware Georgia Hawaii Illinois Indiana Iowa Kentucky Louisiana Massachusettes Mississippi Missouri Montana New Hampshire New Jersey New Mexico Nevada",0,6308,118678,0,0,,1
5d5ac177d5610d001ad9c24c,6fjw5o1tni,Nick_Dissertation_EX1,1,94,2020-07-08T14:43:09-07:00,11.516809940338,4,versionC_stim.csv,READVersionD.csv,"Read Version D","Dissertation, read only version D",,,,,,0,Instruct,-,10,"You will now be presented with the first word from each of the previously studied item pairs. Please type the missing word. If you do not know the word, you may guess or press Enter to skip forward to the next pair.",,Instruct3,11198,,,-1,-1,,,,1
5d5ac177d5610d001ad9c24c,6fjw5o1tni,Nick_Dissertation_EX1,1,95,2020-07-08T14:43:15-07:00,6.3096339702606,4,versionC_stim.csv,READVersionD.csv,"Read Version D","Dissertation, read only version D",TRASH,LITTER,Study2,B,103,117,Test,User,-,,Recall,Recall1,5979,LITTER,100,3627,5672,1,1,,1
5d5ac177d5610d001ad9c24c,6fjw5o1tni,Nick_Dissertation_EX1,1,96,2020-07-08T14:43:21-07:00,5.8519690036774,4,versionC_stim.csv,READVersionD.csv,"Read Version D","Dissertation, read only version D",REVENGE,EVEN,Study2,F,122,160,Test,User,-,,Recall,Recall1,5563,ANGER,22.222222222222,2845,5266,0,0,,1
5d5ac177d5610d001ad9c24c,6fjw5o1tni,Nick_Dissertation_EX1,1,97,2020-07-08T14:43:23-07:00,2.1916620731354,4,versionC_stim.csv,READVersionD.csv,"Read Version D","Dissertation, read only version D",TAN,SUN,Study2,S,155,123,Test,User,-,,Recall,Recall1,1888,OIL,0,1247,1571,0,0,,1
5d5ac177d5610d001ad9c24c,6fjw5o1tni,Nick_Dissertation_EX1,1,98,2020-07-08T14:43:25-07:00,1.936066865921,4,versionC_stim.csv,READVersionD.csv,"Read Version D","Dissertation, read only version D",WINDSHIELD,CAR,Study2,F,117,167,Test,User,-,,Recall,Recall1,1626,CAR,100,1121,1368,1,1,,1
5d5ac177d5610d001ad9c24c,6fjw5o1tni,Nick_Dissertation_EX1,1,99,2020-07-08T14:43:28-07:00,2.8269309997559,4,versionC_stim.csv,READVersionD.csv,"Read Version D","Dissertation, read only version D",ELECTION,MAZE,Study2,U,159,164,Test,User,-,,Recall,Recall1,2486,OUTCOME,36.363636363636,1496,2196,0,0,,1
5d5ac177d5610d001ad9c24c,6fjw5o1tni,Nick_Dissertation_EX1,1,100,2020-07-08T14:43:35-07:00,6.8830051422119,4,versionC_stim.csv,READVersionD.csv,"Read Version D","Dissertation, read only version D",TRUTHFUL,HONEST,Study2,F,133,127,Test,User,-,,Recall,Recall1,6486,LIE,22.222222222222,2103,5969,0,0,,1
5d5ac177d5610d001ad9c24c,6fjw5o1tni,Nick_Dissertation_EX1,1,101,2020-07-08T14:43:37-07:00,1.9334230422974,4,versionC_stim.csv,READVersionD.csv,"Read Version D","Dissertation, read only version D",JAR,MASON,Study2,S,138,159,Test,User,-,,Recall,Recall1,1655,MASON,100,869,1238,1,1,,1
5d5ac177d5610d001ad9c24c,6fjw5o1tni,Nick_Dissertation_EX1,1,102,2020-07-08T14:43:41-07:00,3.9710829257965,4,versionC_stim.csv,READVersionD.csv,"Read Version D","Dissertation, read only version D",SARDINE,FISH,Study2,F,130,155,Test,User,-,,Recall,Recall1,3670,CRACKERS,16.666666666667,1156,2991,0,0,,1
5d5ac177d5610d001ad9c24c,6fjw5o1tni,Nick_Dissertation_EX1,1,103,2020-07-08T14:43:45-07:00,4.3741090297699,4,versionC_stim.csv,READVersionD.csv,"Read Version D","Dissertation, read only version D",CLOTH,STRETCH,Study2,U,157,152,Test,User,-,,Recall,Recall1,4090,HANGER,15.384615384615,2459,3768,0,0,,1
5d5ac177d5610d001ad9c24c,6fjw5o1tni,Nick_Dissertation_EX1,1,104,2020-07-08T14:43:51-07:00,5.2920520305634,4,versionC_stim.csv,READVersionD.csv,"Read Version D","Dissertation, read only version D",BANG,FUZZY,Study2,U,168,156,Test,User,-,,Recall,Recall1,5019,LOUD,22.222222222222,1559,4711,0,0,,1
5d5ac177d5610d001ad9c24c,6fjw5o1tni,Nick_Dissertation_EX1,1,105,2020-07-08T14:43:52-07:00,1.9471409320831,4,versionC_stim.csv,READVersionD.csv,"Read Version D","Dissertation, read only version D",BALLOON,POP,Study2,F,123,97,Test,User,-,,Recall,Recall1,1557,AIR,0,1211,1417,0,0,,1
5d5ac177d5610d001ad9c24c,6fjw5o1tni,Nick_Dissertation_EX1,1,106,2020-07-08T14:43:55-07:00,2.3298718929291,4,versionC_stim.csv,READVersionD.csv,"Read Version D","Dissertation, read only version D",REEL,ROD,Study2,S,150,128,Test,User,-,,Recall,Recall1,1809,ROD,100,1487,1654,1,1,,1
5d5ac177d5610d001ad9c24c,6fjw5o1tni,Nick_Dissertation_EX1,1,107,2020-07-08T14:44:01-07:00,6.0198061466217,4,versionC_stim.csv,READVersionD.csv,"Read Version D","Dissertation, read only version D",DONKEY,MULE,Study2,B,108,145,Test,User,-,,Recall,Recall1,5573,MULE,100,4913,5301,1,1,,1
5d5ac177d5610d001ad9c24c,6fjw5o1tni,Nick_Dissertation_EX1,1,108,2020-07-08T14:44:07-07:00,5.9282400608063,4,versionC_stim.csv,READVersionD.csv,"Read Version D","Dissertation, read only version D",FICTION,LISTEN,Study2,U,164,171,Test,User,-,,Recall,Recall1,5649,LISTEN,100,2870,5313,1,1,,1
5d5ac177d5610d001ad9c24c,6fjw5o1tni,Nick_Dissertation_EX1,1,109,2020-07-08T14:44:09-07:00,2.6347138881683,4,versionC_stim.csv,READVersionD.csv,"Read Version D","Dissertation, read only version D",COFFIN,DEAD,Study2,F,128,129,Test,User,-,,Recall,Recall1,2359,DEATH,66.666666666667,1316,2035,0,0,,1
5d5ac177d5610d001ad9c24c,6fjw5o1tni,Nick_Dissertation_EX1,1,110,2020-07-08T14:44:14-07:00,4.1092739105225,4,versionC_stim.csv,READVersionD.csv,"Read Version D","Dissertation, read only version D",RED,CHERRY,Study2,B,104,104,Test,User,-,,Recall,Recall1,3801,BLUE,20,1294,3473,0,0,,1
5d5ac177d5610d001ad9c24c,6fjw5o1tni,Nick_Dissertation_EX1,1,111,2020-07-08T14:44:16-07:00,2.0534310340881,4,versionC_stim.csv,READVersionD.csv,"Read Version D","Dissertation, read only version D",VILLAIN,BAD,Study2,F,118,130,Test,User,-,,Recall,Recall1,1743,BAD,100,1036,1377,1,1,,1
5d5ac177d5610d001ad9c24c,6fjw5o1tni,Nick_Dissertation_EX1,1,112,2020-07-08T14:44:23-07:00,7.5497090816498,4,versionC_stim.csv,READVersionD.csv,"Read Version D","Dissertation, read only version D",CUT,CHOP,Study2,B,107,154,Test,User,-,,Recall,Recall1,7248,KNIT,0,3569,6902,0,0,,1
5d5ac177d5610d001ad9c24c,6fjw5o1tni,Nick_Dissertation_EX1,1,113,2020-07-08T14:44:27-07:00,3.7447190284729,4,versionC_stim.csv,READVersionD.csv,"Read Version D","Dissertation, read only version D",SHAKE,Shell,Study2,U,163,118,Test,User,-,,Recall,Recall1,3472,SHOOK,40,2293,3131,0,0,,1
5d5ac177d5610d001ad9c24c,6fjw5o1tni,Nick_Dissertation_EX1,1,114,2020-07-08T14:44:29-07:00,1.7574470043182,4,versionC_stim.csv,READVersionD.csv,"Read Version D","Dissertation, read only version D",WET,DRY,Study2,S,146,170,Test,User,-,,Recall,Recall1,1470,DRY,100,890,1182,1,1,,1
5d5ac177d5610d001ad9c24c,6fjw5o1tni,Nick_Dissertation_EX1,1,115,2020-07-08T14:44:31-07:00,2.6309340000153,4,versionC_stim.csv,READVersionD.csv,"Read Version D","Dissertation, read only version D",JOKE,KEYS,Study2,U,165,121,Test,User,-,,Recall,Recall1,2304,FUNNY,22.222222222222,1166,1669,0,0,,1
5d5ac177d5610d001ad9c24c,6fjw5o1tni,Nick_Dissertation_EX1,1,116,2020-07-08T14:44:38-07:00,6.9121329784393,4,versionC_stim.csv,READVersionD.csv,"Read Version D","Dissertation, read only version D",CHARM,VEHICLE,Study2,U,160,148,Test,User,-,,Recall,Recall1,6483,CHARISMA,13.333333333333,5223,6106,0,0,,1
5d5ac177d5610d001ad9c24c,6fjw5o1tni,Nick_Dissertation_EX1,1,117,2020-07-08T14:44:42-07:00,3.7724769115448,4,versionC_stim.csv,READVersionD.csv,"Read Version D","Dissertation, read only version D",LONG,EXTENSION,Study2,B,96,172,Test,User,-,,Recall,Recall1,2352,SHORT,28.571428571429,1542,2037,0,0,,1
5d5ac177d5610d001ad9c24c,6fjw5o1tni,Nick_Dissertation_EX1,1,118,2020-07-08T14:44:44-07:00,2.1266691684723,4,versionC_stim.csv,READVersionD.csv,"Read Version D","Dissertation, read only version D",NAP,SLEEP,Study2,F,134,165,Test,User,-,,Recall,Recall1,1833,SLEEP,100,1049,1478,1,1,,1
5d5ac177d5610d001ad9c24c,6fjw5o1tni,Nick_Dissertation_EX1,1,119,2020-07-08T14:44:46-07:00,1.9780039787292,4,versionC_stim.csv,READVersionD.csv,"Read Version D","Dissertation, read only version D",GAME,CLUE,Study2,B,97,175,Test,User,-,,Recall,Recall1,1704,PLAY,25,1021,1367,0,0,,1
5d5ac177d5610d001ad9c24c,6fjw5o1tni,Nick_Dissertation_EX1,1,120,2020-07-08T14:44:48-07:00,1.9642779827118,4,versionC_stim.csv,READVersionD.csv,"Read Version D","Dissertation, read only version D",PANTHER,CAT,Study2,F,126,126,Test,User,-,,Recall,Recall1,1652,CAT,100,1091,1349,1,1,,1
5d5ac177d5610d001ad9c24c,6fjw5o1tni,Nick_Dissertation_EX1,1,121,2020-07-08T14:44:58-07:00,9.9719488620758,4,versionC_stim.csv,READVersionD.csv,"Read Version D","Dissertation, read only version D",MYSTERY,DETECTIVE,Study2,B,100,150,Test,User,-,,Recall,Recall1,9566,UNKNOWN,0,6061,9067,0,0,,1
5d5ac177d5610d001ad9c24c,6fjw5o1tni,Nick_Dissertation_EX1,1,122,2020-07-08T14:45:03-07:00,4.7441101074219,4,versionC_stim.csv,READVersionD.csv,"Read Version D","Dissertation, read only version D",NOISE,LOUD,Study2,S,152,162,Test,User,-,,Recall,Recall1,4381,LOUD,100,3329,3909,1,1,,1
5d5ac177d5610d001ad9c24c,6fjw5o1tni,Nick_Dissertation_EX1,1,123,2020-07-08T14:45:07-07:00,4.08336186409,4,versionC_stim.csv,READVersionD.csv,"Read Version D","Dissertation, read only version D",SEATBELT,SAFETY,Study2,S,147,99,Test,User,-,,Recall,Recall1,3785,SAFETY,100,2750,3401,1,1,,1
5d5ac177d5610d001ad9c24c,6fjw5o1tni,Nick_Dissertation_EX1,1,124,2020-07-08T14:45:10-07:00,2.9656891822815,4,versionC_stim.csv,READVersionD.csv,"Read Version D","Dissertation, read only version D",HEAD,SCALP,Study2,B,105,122,Test,User,-,,Recall,Recall1,2678,HAT,25,2058,2340,0,0,,1
5d5ac177d5610d001ad9c24c,6fjw5o1tni,Nick_Dissertation_EX1,1,125,2020-07-08T14:45:12-07:00,2.6796720027924,4,versionC_stim.csv,READVersionD.csv,"Read Version D","Dissertation, read only version D",SCAR,MAIN,Study2,U,175,102,Test,User,-,,Recall,Recall1,2384,WOUND,22.222222222222,1689,2080,0,0,,1
5d5ac177d5610d001ad9c24c,6fjw5o1tni,Nick_Dissertation_EX1,1,126,2020-07-08T14:45:16-07:00,3.3600258827209,4,versionC_stim.csv,READVersionD.csv,"Read Version D","Dissertation, read only version D",ACTRESS,STAR,Study2,F,120,144,Test,User,-,,Recall,Recall1,3092,SINGER,40,1076,2719,0,0,,1
5d5ac177d5610d001ad9c24c,6fjw5o1tni,Nick_Dissertation_EX1,1,127,2020-07-08T14:45:19-07:00,3.1974329948425,4,versionC_stim.csv,READVersionD.csv,"Read Version D","Dissertation, read only version D",WAX,CANDLE,Study2,S,139,111,Test,User,-,,Recall,Recall1,2907,OIL,22.222222222222,1120,2519,0,0,,1
5d5ac177d5610d001ad9c24c,6fjw5o1tni,Nick_Dissertation_EX1,1,128,2020-07-08T14:45:22-07:00,3.4613220691681,4,versionC_stim.csv,READVersionD.csv,"Read Version D","Dissertation, read only version D",BANKER,MONEY,Study2,F,132,103,Test,User,-,,Recall,Recall1,3160,MONEY,100,2110,2461,1,1,,1
5d5ac177d5610d001ad9c24c,6fjw5o1tni,Nick_Dissertation_EX1,1,129,2020-07-08T14:45:25-07:00,2.090616941452,4,versionC_stim.csv,READVersionD.csv,"Read Version D","Dissertation, read only version D",BRACELET,WRIST,Study2,S,140,106,Test,User,-,,Recall,Recall1,1822,WRIST,100,1039,1413,1,1,,1
5d5ac177d5610d001ad9c24c,6fjw5o1tni,Nick_Dissertation_EX1,1,130,2020-07-08T14:45:28-07:00,3.6969931125641,4,versionC_stim.csv,READVersionD.csv,"Read Version D","Dissertation, read only version D",DOG,FURRY,Study2,B,102,163,Test,User,-,,Recall,Recall1,3387,WOLF,22.222222222222,2542,2950,0,0,,1
5d5ac177d5610d001ad9c24c,6fjw5o1tni,Nick_Dissertation_EX1,1,131,2020-07-08T14:45:34-07:00,5.7107179164886,4,versionC_stim.csv,READVersionD.csv,"Read Version D","Dissertation, read only version D",BREAKABLE,GLASS,Study2,F,127,124,Test,User,-,,Recall,Recall1,5382,FRAGILE,16.666666666667,4376,5054,0,0,,1
5d5ac177d5610d001ad9c24c,6fjw5o1tni,Nick_Dissertation_EX1,1,132,2020-07-08T14:45:37-07:00,2.7131569385529,4,versionC_stim.csv,READVersionD.csv,"Read Version D","Dissertation, read only version D",HATE,NAME,Study2,U,167,146,Test,User,-,,Recall,Recall1,2401,LOVE,25,1746,2055,0,0,,1
5d5ac177d5610d001ad9c24c,6fjw5o1tni,Nick_Dissertation_EX1,1,133,2020-07-08T14:45:40-07:00,2.9575710296631,4,versionC_stim.csv,READVersionD.csv,"Read Version D","Dissertation, read only version D",OBTAIN,MEAT,Study2,U,161,135,Test,User,-,,Recall,Recall1,1675,GET,57.142857142857,1147,1353,0,0,,1
5d5ac177d5610d001ad9c24c,6fjw5o1tni,Nick_Dissertation_EX1,1,134,2020-07-08T14:45:44-07:00,4.5189321041107,4,versionC_stim.csv,READVersionD.csv,"Read Version D","Dissertation, read only version D",STEAK,GIVE,Study2,U,158,134,Test,User,-,,Recall,Recall1,4235,WELLDONE,16.666666666667,2692,3873,0,0,,1
5d5ac177d5610d001ad9c24c,6fjw5o1tni,Nick_Dissertation_EX1,1,135,2020-07-08T14:45:47-07:00,3.1184279918671,4,versionC_stim.csv,READVersionD.csv,"Read Version D","Dissertation, read only version D",SMELL,INCENSE,Study2,B,110,133,Test,User,-,,Recall,Recall1,2834,TASTE,33.333333333333,1908,2487,0,0,,1
5d5ac177d5610d001ad9c24c,6fjw5o1tni,Nick_Dissertation_EX1,1,136,2020-07-08T14:45:50-07:00,2.8709800243378,4,versionC_stim.csv,READVersionD.csv,"Read Version D","Dissertation, read only version D",COMMUNICATION,PHONE,Study2,S,149,100,Test,User,-,,Recall,Recall1,2578,PHONE,100,1885,2244,1,1,,1
5d5ac177d5610d001ad9c24c,6fjw5o1tni,Nick_Dissertation_EX1,1,137,2020-07-08T14:45:52-07:00,2.2935609817505,4,versionC_stim.csv,READVersionD.csv,"Read Version D","Dissertation, read only version D",MAROON,JUSTICE,Study2,U,156,109,Test,User,-,,Recall,Recall1,2011,RED,20,1504,1722,0,0,,1
5d5ac177d5610d001ad9c24c,6fjw5o1tni,Nick_Dissertation_EX1,1,138,2020-07-08T14:45:57-07:00,4.9484798908234,4,versionC_stim.csv,READVersionD.csv,"Read Version D","Dissertation, read only version D",FLIP,TURN,Study2,F,116,132,Test,User,-,,Recall,Recall1,4658,TURN,100,841,4328,1,1,,1
5d5ac177d5610d001ad9c24c,6fjw5o1tni,Nick_Dissertation_EX1,1,139,2020-07-08T14:46:02-07:00,4.4602479934692,4,versionC_stim.csv,READVersionD.csv,"Read Version D","Dissertation, read only version D",LEAGUE,BASEBALL,Study2,F,131,158,Test,User,-,,Recall,Recall1,4147,ZONE,16.666666666667,3462,3802,0,0,,1
5d5ac177d5610d001ad9c24c,6fjw5o1tni,Nick_Dissertation_EX1,1,140,2020-07-08T14:46:05-07:00,3.3697309494019,4,versionC_stim.csv,READVersionD.csv,"Read Version D","Dissertation, read only version D",TICK,FLEA,Study2,S,151,113,Test,User,-,,Recall,Recall1,3055,SPIDER,20,1222,1973,0,0,,1
5d5ac177d5610d001ad9c24c,6fjw5o1tni,Nick_Dissertation_EX1,1,141,2020-07-08T14:46:10-07:00,4.8100831508636,4,versionC_stim.csv,READVersionD.csv,"Read Version D","Dissertation, read only version D",PLANT,CACTUS,Study2,B,98,108,Test,User,-,,Recall,Recall1,4491,CACTUS,100,3513,4124,1,1,,1
5d5ac177d5610d001ad9c24c,6fjw5o1tni,Nick_Dissertation_EX1,1,142,2020-07-08T14:46:14-07:00,3.5715370178223,4,versionC_stim.csv,READVersionD.csv,"Read Version D","Dissertation, read only version D",EQUAL,RIGHTS,Study2,S,137,110,Test,User,-,,Recall,Recall1,3246,RIGHTS,100,1898,2882,1,1,,1
5d5ac177d5610d001ad9c24c,6fjw5o1tni,Nick_Dissertation_EX1,1,143,2020-07-08T14:46:17-07:00,2.9092228412628,4,versionC_stim.csv,READVersionD.csv,"Read Version D","Dissertation, read only version D",END,ADJOURN,Study2,B,101,115,Test,User,-,,Recall,Recall1,2620,DONE,54.545454545455,1927,2162,0,0,,1
5d5ac177d5610d001ad9c24c,6fjw5o1tni,Nick_Dissertation_EX1,1,144,2020-07-08T14:46:25-07:00,8.4937281608582,4,versionC_stim.csv,READVersionD.csv,"Read Version D","Dissertation, read only version D",STRAWBERRY,FRUIT,Study2,F,124,98,Test,User,-,,Recall,Recall1,8154,FRUIT,100,5489,7859,1,1,,1
5d5ac177d5610d001ad9c24c,6fjw5o1tni,Nick_Dissertation_EX1,1,145,2020-07-08T14:46:29-07:00,4.4252619743347,4,versionC_stim.csv,READVersionD.csv,"Read Version D","Dissertation, read only version D",TOIL,LEASE,Study2,U,170,116,Test,User,-,,Recall,Recall1,4104,TOGGLE,36.363636363636,2209,3807,0,0,,1
5d5ac177d5610d001ad9c24c,6fjw5o1tni,Nick_Dissertation_EX1,1,146,2020-07-08T14:46:31-07:00,1.6832728385925,4,versionC_stim.csv,READVersionD.csv,"Read Version D","Dissertation, read only version D",HAVE,OWN,Study2,S,153,169,Test,User,-,,Recall,Recall1,1418,GET,0,959,1138,0,0,,1
5d5ac177d5610d001ad9c24c,6fjw5o1tni,Nick_Dissertation_EX1,1,147,2020-07-08T14:46:34-07:00,2.4127810001373,4,versionC_stim.csv,READVersionD.csv,"Read Version D","Dissertation, read only version D",BRAWL,FIGHT,Study2,F,135,153,Test,User,-,,Recall,Recall1,2112,FIGHT,100,1094,1753,1,1,,1
5d5ac177d5610d001ad9c24c,6fjw5o1tni,Nick_Dissertation_EX1,1,148,2020-07-08T14:46:37-07:00,3.3066201210022,4,versionC_stim.csv,READVersionD.csv,"Read Version D","Dissertation, read only version D",DRINK,WATER,Study2,S,143,137,Test,User,-,,Recall,Recall1,2999,WATER,100,2191,2693,1,1,,1
5d5ac177d5610d001ad9c24c,6fjw5o1tni,Nick_Dissertation_EX1,1,149,2020-07-08T14:46:40-07:00,2.7969949245453,4,versionC_stim.csv,READVersionD.csv,"Read Version D","Dissertation, read only version D",CLEAR,MOAT,Study2,U,169,176,Test,User,-,,Recall,Recall1,2509,CRYSTAL,18.181818181818,1349,2176,0,0,,1
5d5ac177d5610d001ad9c24c,6fjw5o1tni,Nick_Dissertation_EX1,1,150,2020-07-08T14:46:44-07:00,4.6236100196838,4,versionC_stim.csv,READVersionD.csv,"Read Version D","Dissertation, read only version D",SIGN,LOAN,Study2,U,171,131,Test,User,-,,Recall,Recall1,4309,POST,25,3664,3976,0,0,,1
5d5ac177d5610d001ad9c24c,6fjw5o1tni,Nick_Dissertation_EX1,1,151,2020-07-08T14:46:46-07:00,2.0024769306183,4,versionC_stim.csv,READVersionD.csv,"Read Version D","Dissertation, read only version D",TIE,SHOELACE,Study2,B,99,149,Test,User,-,,Recall,Recall1,1626,KNOT,16.666666666667,993,1295,0,0,,1
5d5ac177d5610d001ad9c24c,6fjw5o1tni,Nick_Dissertation_EX1,1,152,2020-07-08T14:46:50-07:00,3.2591412067413,4,versionC_stim.csv,READVersionD.csv,"Read Version D","Dissertation, read only version D",CHILDREN,MIRROR,Study2,U,174,140,Test,User,-,,Recall,Recall1,2867,PLAY,0,2097,2548,0,0,,1
5d5ac177d5610d001ad9c24c,6fjw5o1tni,Nick_Dissertation_EX1,1,153,2020-07-08T14:46:57-07:00,7.9320018291473,4,versionC_stim.csv,READVersionD.csv,"Read Version D","Dissertation, read only version D",LONELY,ALONE,Study2,S,145,119,Test,User,-,,Recall,Recall1,7622,ALONE,100,4818,5325,1,1,,1
5d5ac177d5610d001ad9c24c,6fjw5o1tni,Nick_Dissertation_EX1,1,154,2020-07-08T14:47:02-07:00,4.9035079479218,4,versionC_stim.csv,READVersionD.csv,"Read Version D","Dissertation, read only version D",COLD,CHILL,Study2,B,114,136,Test,User,-,,Recall,Recall1,4633,HOT,25,4032,4289,0,0,,1
5d5ac177d5610d001ad9c24c,6fjw5o1tni,Nick_Dissertation_EX1,1,155,2020-07-08T14:47:05-07:00,2.289323091507,4,versionC_stim.csv,READVersionD.csv,"Read Version D","Dissertation, read only version D",TEMPER,TANTRUM,Study2,S,154,120,Test,User,-,,Recall,Recall1,2008,TANTRUM,100,857,1692,1,1,,1
5d5ac177d5610d001ad9c24c,6fjw5o1tni,Nick_Dissertation_EX1,1,156,2020-07-08T14:47:08-07:00,3.2441980838776,4,versionC_stim.csv,READVersionD.csv,"Read Version D","Dissertation, read only version D",EAT,DINE,Study2,B,111,157,Test,User,-,,Recall,Recall1,2948,FOOD,25,1386,2602,0,0,,1
5d5ac177d5610d001ad9c24c,6fjw5o1tni,Nick_Dissertation_EX1,1,157,2020-07-08T14:47:12-07:00,3.7352259159088,4,versionC_stim.csv,READVersionD.csv,"Read Version D","Dissertation, read only version D",GROUND,EARTH,Study2,S,144,105,Test,User,-,,Recall,Recall1,3444,SKY,0,2869,3116,0,0,,1
5d5ac177d5610d001ad9c24c,6fjw5o1tni,Nick_Dissertation_EX1,1,158,2020-07-08T14:47:16-07:00,4.3592641353607,4,versionC_stim.csv,READVersionD.csv,"Read Version D","Dissertation, read only version D",Morning,TEMPERATURE,Study2,U,173,147,Test,User,-,,Recall,Recall1,4069,EVENING,22.222222222222,3006,3595,0,0,,1
5d5ac177d5610d001ad9c24c,6fjw5o1tni,Nick_Dissertation_EX1,1,159,2020-07-08T14:47:18-07:00,1.9303138256073,4,versionC_stim.csv,READVersionD.csv,"Read Version D","Dissertation, read only version D",LOVE,AFFECTION,Study2,B,115,125,Test,User,-,,Recall,Recall1,1635,HATE,30.769230769231,953,1287,0,0,,1
5d5ac177d5610d001ad9c24c,6fjw5o1tni,Nick_Dissertation_EX1,1,160,2020-07-08T14:47:21-07:00,3.4142050743103,4,versionC_stim.csv,READVersionD.csv,"Read Version D","Dissertation, read only version D",FAVORITE,BEST,Study2,F,125,112,Test,User,-,,Recall,Recall1,3119,,0,-1,-1,0,0,,1
5d5ac177d5610d001ad9c24c,6fjw5o1tni,Nick_Dissertation_EX1,1,161,2020-07-08T14:47:24-07:00,2.9412450790405,4,versionC_stim.csv,READVersionD.csv,"Read Version D","Dissertation, read only version D",PENGUIN,BIRD,Study2,F,119,141,Test,User,-,,Recall,Recall1,2667,COLD,25,1977,2368,0,0,,1
5d5ac177d5610d001ad9c24c,6fjw5o1tni,Nick_Dissertation_EX1,1,162,2020-07-08T14:47:27-07:00,2.46364402771,4,versionC_stim.csv,READVersionD.csv,"Read Version D","Dissertation, read only version D",AIRCRAFT,PLANE,Study2,F,129,151,Test,User,-,,Recall,Recall1,2155,FLY,25,1573,1812,0,0,,1
5d5ac177d5610d001ad9c24c,6fjw5o1tni,Nick_Dissertation_EX1,1,163,2020-07-08T14:47:31-07:00,4.2961030006409,4,versionC_stim.csv,READVersionD.csv,"Read Version D","Dissertation, read only version D",LIE,TRUTH,Study2,S,148,107,Test,User,-,,Recall,Recall1,4009,DECEIVE,0,2560,3511,0,0,,1
5d5ac177d5610d001ad9c24c,6fjw5o1tni,Nick_Dissertation_EX1,1,164,2020-07-08T14:47:33-07:00,2.2026438713074,4,versionC_stim.csv,READVersionD.csv,"Read Version D","Dissertation, read only version D",FIGHT,FEUD,Study2,B,113,161,Test,User,-,,Recall,Recall1,1927,BRAWL,0,915,1443,0,0,,1
5d5ac177d5610d001ad9c24c,6fjw5o1tni,Nick_Dissertation_EX1,1,165,2020-07-08T14:47:36-07:00,3.0220460891724,4,versionC_stim.csv,READVersionD.csv,"Read Version D","Dissertation, read only version D",CLOTHES,CAKE,Study2,U,166,142,Test,User,-,,Recall,Recall1,2667,TIE,28.571428571429,1606,1877,0,0,,1
5d5ac177d5610d001ad9c24c,6fjw5o1tni,Nick_Dissertation_EX1,1,166,2020-07-08T14:47:40-07:00,3.2786159515381,4,versionC_stim.csv,READVersionD.csv,"Read Version D","Dissertation, read only version D",OUNCE,BOTH,Study2,U,172,101,Test,User,-,,Recall,Recall1,2919,MEASURE,0,1314,2536,0,0,,1
5d5ac177d5610d001ad9c24c,6fjw5o1tni,Nick_Dissertation_EX1,1,167,2020-07-08T14:47:43-07:00,3.3610129356384,4,versionC_stim.csv,READVersionD.csv,"Read Version D","Dissertation, read only version D",PAPER,DOCUMENT,Study2,B,109,138,Test,User,-,,Recall,Recall1,3086,AIRPLANE,12.5,1802,2713,0,0,,1
5d5ac177d5610d001ad9c24c,6fjw5o1tni,Nick_Dissertation_EX1,1,168,2020-07-08T14:47:46-07:00,3.1776969432831,4,versionC_stim.csv,READVersionD.csv,"Read Version D","Dissertation, read only version D",CAR,DRIVER,Study2,B,106,166,Test,User,-,,Recall,Recall1,2906,WINDSHIELD,25,1695,2574,0,0,,1
5d5ac177d5610d001ad9c24c,6fjw5o1tni,Nick_Dissertation_EX1,1,169,2020-07-08T14:47:49-07:00,3.0694332122803,4,versionC_stim.csv,READVersionD.csv,"Read Version D","Dissertation, read only version D",AWAY,GONE,Study2,S,142,139,Test,User,-,,Recall,Recall1,2753,GONE,100,2029,2339,1,1,,1
5d5ac177d5610d001ad9c24c,6fjw5o1tni,Nick_Dissertation_EX1,1,170,2020-07-08T14:47:55-07:00,5.3893489837646,4,versionC_stim.csv,READVersionD.csv,"Read Version D","Dissertation, read only version D",THIMBLE,THREAD,Study2,F,121,174,Test,User,-,,Recall,Recall1,5056,NIMBLE,16.666666666667,1513,4705,0,0,,1
5d5ac177d5610d001ad9c24c,6fjw5o1tni,Nick_Dissertation_EX1,1,171,2020-07-08T14:47:58-07:00,3.0835628509521,4,versionC_stim.csv,READVersionD.csv,"Read Version D","Dissertation, read only version D",SCISSORS,SHEARS,Study2,B,112,173,Test,User,-,,Recall,Recall1,1756,CUT,0,1126,1382,0,0,,1
5d5ac177d5610d001ad9c24c,6fjw5o1tni,Nick_Dissertation_EX1,1,172,2020-07-08T14:48:00-07:00,2.5290250778198,4,versionC_stim.csv,READVersionD.csv,"Read Version D","Dissertation, read only version D",CARBON,ELEMENT,Study2,S,141,114,Test,User,-,,Recall,Recall1,2212,FIBER,16.666666666667,1237,1834,0,0,,1
5d5ac177d5610d001ad9c24c,6fjw5o1tni,Nick_Dissertation_EX1,1,173,2020-07-08T14:48:02-07:00,2.1245529651642,4,versionC_stim.csv,READVersionD.csv,"Read Version D","Dissertation, read only version D",SHAVE,RAZOR,Study2,S,136,168,Test,User,-,,Recall,Recall1,1822,CUT,0,1216,1447,0,0,,1
5d5ac177d5610d001ad9c24c,6fjw5o1tni,Nick_Dissertation_EX1,1,174,2020-07-08T14:48:07-07:00,4.5913350582123,4,versionC_stim.csv,READVersionD.csv,"Read Version D","Dissertation, read only version D",ABLE,CRACKLE,Study2,U,162,143,Test,User,-,,Recall,Recall1,4251,POSSIBLE,26.666666666667,3168,3959,0,0,,1
5d5ac177d5610d001ad9c24c,6fjw5o1tni,Nick_Dissertation_EX1,1,175,2020-07-08T14:48:21-07:00,14.113940000534,4,versionC_stim.csv,READVersionD.csv,"Read Version D","Dissertation, read only version D",,,,,,0,Instruct,-,10,"You will now be presented with a new set of word pairs. Please study each pair. Remember that your memory will be tested! When finished, press Enter to move to the next pair.",Initial_Instruct,Instruct4,13788,,,-1,-1,,,,0.882
5d5ac177d5610d001ad9c24c,6fjw5o1tni,Nick_Dissertation_EX1,1,176,2020-07-08T14:48:23-07:00,2.5082008838654,4,versionC_stim.csv,READVersionD.csv,"Read Version D","Dissertation, read only version D",HIDE,SCARE,BUFFER1,Buffer,4,2,Study,User,-,,Study/JOL,BUFFER3,2233,,,-1,-1,,,,1
5d5ac177d5610d001ad9c24c,6fjw5o1tni,Nick_Dissertation_EX1,1,177,2020-07-08T14:48:25-07:00,1.081041097641,4,versionC_stim.csv,READVersionD.csv,"Read Version D","Dissertation, read only version D",GREEN,TREES,BUFFER1,Buffer,1,5,Study,User,-,,Study/JOL,BUFFER3,790,,,-1,-1,,,,1
5d5ac177d5610d001ad9c24c,6fjw5o1tni,Nick_Dissertation_EX1,1,178,2020-07-08T14:48:25-07:00,0.89079284667969,4,versionC_stim.csv,READVersionD.csv,"Read Version D","Dissertation, read only version D",BUTTER,PEANUT,BUFFER1,Buffer,3,4,Study,User,-,,Study/JOL,BUFFER3,513,,,-1,-1,,,,1
5d5ac177d5610d001ad9c24c,6fjw5o1tni,Nick_Dissertation_EX1,1,179,2020-07-08T14:48:27-07:00,1.6037430763245,4,versionC_stim.csv,READVersionD.csv,"Read Version D","Dissertation, read only version D",JAM,SPACE,BUFFER1,Buffer,5,3,Study,User,-,,Study/JOL,BUFFER3,1289,,,-1,-1,,,,1
5d5ac177d5610d001ad9c24c,6fjw5o1tni,Nick_Dissertation_EX1,1,180,2020-07-08T14:48:28-07:00,1.1705479621887,4,versionC_stim.csv,READVersionD.csv,"Read Version D","Dissertation, read only version D",CATCHER,BASEBALL,BUFFER1,Buffer,2,6,Study,User,-,,Study/JOL,BUFFER3,867,,,-1,-1,,,,1
5d5ac177d5610d001ad9c24c,6fjw5o1tni,Nick_Dissertation_EX1,1,181,2020-07-08T14:48:29-07:00,1.1282291412354,4,versionC_stim.csv,READVersionD.csv,"Read Version D","Dissertation, read only version D",CAVE,DARK,Study1,F,28,23,Study,User,-,,Study/JOL,"Study Phase2",853,,,-1,-1,,,,1
5d5ac177d5610d001ad9c24c,6fjw5o1tni,Nick_Dissertation_EX1,1,182,2020-07-08T14:48:31-07:00,1.9859800338745,4,versionC_stim.csv,READVersionD.csv,"Read Version D","Dissertation, read only version D",BLAZE,FIRE,Study1,F,45,22,Study,User,-,,Study/JOL,"Study Phase2",608,,,-1,-1,,,,1
5d5ac177d5610d001ad9c24c,6fjw5o1tni,Nick_Dissertation_EX1,1,183,2020-07-08T14:48:33-07:00,1.2411859035492,4,versionC_stim.csv,READVersionD.csv,"Read Version D","Dissertation, read only version D",WAR,REVOLUTION,Study1,B,20,59,Study,User,-,,Study/JOL,"Study Phase2",900,,,-1,-1,,,,1
5d5ac177d5610d001ad9c24c,6fjw5o1tni,Nick_Dissertation_EX1,1,184,2020-07-08T14:48:34-07:00,1.0074059963226,4,versionC_stim.csv,READVersionD.csv,"Read Version D","Dissertation, read only version D",WASTE,DUMP,Study1,S,49,45,Study,User,-,,Study/JOL,"Study Phase2",717,,,-1,-1,,,,1
5d5ac177d5610d001ad9c24c,6fjw5o1tni,Nick_Dissertation_EX1,1,185,2020-07-08T14:48:35-07:00,1.2936270236969,4,versionC_stim.csv,READVersionD.csv,"Read Version D","Dissertation, read only version D",ROCK,GEOLOGY,Study1,B,19,29,Study,User,-,,Study/JOL,"Study Phase2",1013,,,-1,-1,,,,1
5d5ac177d5610d001ad9c24c,6fjw5o1tni,Nick_Dissertation_EX1,1,186,2020-07-08T14:48:36-07:00,0.93783688545227,4,versionC_stim.csv,READVersionD.csv,"Read Version D","Dissertation, read only version D",LATCH,KEY,Study1,F,36,85,Study,User,-,,Study/JOL,"Study Phase2",621,,,-1,-1,,,,1
5d5ac177d5610d001ad9c24c,6fjw5o1tni,Nick_Dissertation_EX1,1,187,2020-07-08T14:48:39-07:00,3.3708930015564,4,versionC_stim.csv,READVersionD.csv,"Read Version D","Dissertation, read only version D",BAR,GRILL,Study1,S,52,39,Study,User,-,,Study/JOL,"Study Phase2",3054,,,-1,-1,,,,1
5d5ac177d5610d001ad9c24c,6fjw5o1tni,Nick_Dissertation_EX1,1,188,2020-07-08T14:48:40-07:00,1.1902401447296,4,versionC_stim.csv,READVersionD.csv,"Read Version D","Dissertation, read only version D",FISH,TUNA,Study1,B,25,81,Study,User,-,,Study/JOL,"Study Phase2",930,,,-1,-1,,,,1
5d5ac177d5610d001ad9c24c,6fjw5o1tni,Nick_Dissertation_EX1,1,189,2020-07-08T14:48:42-07:00,1.196084022522,4,versionC_stim.csv,READVersionD.csv,"Read Version D","Dissertation, read only version D",DIVISION,MATH,Study1,F,33,46,Study,User,-,,Study/JOL,"Study Phase2",881,,,-1,-1,,,,1
5d5ac177d5610d001ad9c24c,6fjw5o1tni,Nick_Dissertation_EX1,1,190,2020-07-08T14:48:43-07:00,1.0998659133911,4,versionC_stim.csv,READVersionD.csv,"Read Version D","Dissertation, read only version D",MONEY,WAGE,Study1,B,8,16,Study,User,-,,Study/JOL,"Study Phase2",817,,,-1,-1,,,,1
5d5ac177d5610d001ad9c24c,6fjw5o1tni,Nick_Dissertation_EX1,1,191,2020-07-08T14:48:44-07:00,0.84879994392395,4,versionC_stim.csv,READVersionD.csv,"Read Version D","Dissertation, read only version D",RACKET,BALL,Study1,F,38,8,Study,User,-,,Study/JOL,"Study Phase2",562,,,-1,-1,,,,1
5d5ac177d5610d001ad9c24c,6fjw5o1tni,Nick_Dissertation_EX1,1,192,2020-07-08T14:48:45-07:00,1.5983781814575,4,versionC_stim.csv,READVersionD.csv,"Read Version D","Dissertation, read only version D",WOULD,CASH,Study1,U,83,52,Study,User,-,,Study/JOL,"Study Phase2",1285,,,-1,-1,,,,1
5d5ac177d5610d001ad9c24c,6fjw5o1tni,Nick_Dissertation_EX1,1,193,2020-07-08T14:48:46-07:00,1.1438398361206,4,versionC_stim.csv,READVersionD.csv,"Read Version D","Dissertation, read only version D",CARD,CREDIT,Study1,B,23,75,Study,User,-,,Study/JOL,"Study Phase2",846,,,-1,-1,,,,1
5d5ac177d5610d001ad9c24c,6fjw5o1tni,Nick_Dissertation_EX1,1,194,2020-07-08T14:48:48-07:00,1.7761740684509,4,versionC_stim.csv,READVersionD.csv,"Read Version D","Dissertation, read only version D",AMOUNT,NUMBER,Study1,S,47,40,Study,User,-,,Study/JOL,"Study Phase2",1488,,,-1,-1,,,,1
5d5ac177d5610d001ad9c24c,6fjw5o1tni,Nick_Dissertation_EX1,1,195,2020-07-08T14:48:49-07:00,0.81012201309204,4,versionC_stim.csv,READVersionD.csv,"Read Version D","Dissertation, read only version D",HAMMER,CHISEL,Study1,B,9,53,Study,User,-,,Study/JOL,"Study Phase2",535,,,-1,-1,,,,1
5d5ac177d5610d001ad9c24c,6fjw5o1tni,Nick_Dissertation_EX1,1,196,2020-07-08T14:48:51-07:00,1.847265958786,4,versionC_stim.csv,READVersionD.csv,"Read Version D","Dissertation, read only version D",FLOWER,ORCHID,Study1,B,24,35,Study,User,-,,Study/JOL,"Study Phase2",1539,,,-1,-1,,,,1
5d5ac177d5610d001ad9c24c,6fjw5o1tni,Nick_Dissertation_EX1,1,197,2020-07-08T14:48:52-07:00,0.97706389427185,4,versionC_stim.csv,READVersionD.csv,"Read Version D","Dissertation, read only version D",CHILD,BABY,Study1,S,64,57,Study,User,-,,Study/JOL,"Study Phase2",693,,,-1,-1,,,,1
5d5ac177d5610d001ad9c24c,6fjw5o1tni,Nick_Dissertation_EX1,1,198,2020-07-08T14:48:53-07:00,0.84668517112732,4,versionC_stim.csv,READVersionD.csv,"Read Version D","Dissertation, read only version D",PILOT,PLANE,Study1,F,44,38,Study,User,-,,Study/JOL,"Study Phase2",511,,,-1,-1,,,,1
5d5ac177d5610d001ad9c24c,6fjw5o1tni,Nick_Dissertation_EX1,1,199,2020-07-08T14:48:53-07:00,0.69230699539185,4,versionC_stim.csv,READVersionD.csv,"Read Version D","Dissertation, read only version D",TOILET,BATHROOM,Study1,S,58,50,Study,User,-,,Study/JOL,"Study Phase2",387,,,-1,-1,,,,1
5d5ac177d5610d001ad9c24c,6fjw5o1tni,Nick_Dissertation_EX1,1,200,2020-07-08T14:48:54-07:00,0.84304594993591,4,versionC_stim.csv,READVersionD.csv,"Read Version D","Dissertation, read only version D",ASSIGNMENT,DUE,Study1,S,46,25,Study,User,-,,Study/JOL,"Study Phase2",524,,,-1,-1,,,,1
5d5ac177d5610d001ad9c24c,6fjw5o1tni,Nick_Dissertation_EX1,1,201,2020-07-08T14:48:55-07:00,0.71343302726746,4,versionC_stim.csv,READVersionD.csv,"Read Version D","Dissertation, read only version D",LIVER,KIDNEY,Study1,S,53,71,Study,User,-,,Study/JOL,"Study Phase2",381,,,-1,-1,,,,1
5d5ac177d5610d001ad9c24c,6fjw5o1tni,Nick_Dissertation_EX1,1,202,2020-07-08T14:48:56-07:00,1.5776019096375,4,versionC_stim.csv,READVersionD.csv,"Read Version D","Dissertation, read only version D",NEWS,EDITOR,Study1,B,10,86,Study,User,-,,Study/JOL,"Study Phase2",1285,,,-1,-1,,,,1
5d5ac177d5610d001ad9c24c,6fjw5o1tni,Nick_Dissertation_EX1,1,203,2020-07-08T14:48:57-07:00,0.86367416381836,4,versionC_stim.csv,READVersionD.csv,"Read Version D","Dissertation, read only version D",COLD,BITTER,Study1,B,12,84,Study,User,-,,Study/JOL,"Study Phase2",528,,,-1,-1,,,,1
5d5ac177d5610d001ad9c24c,6fjw5o1tni,Nick_Dissertation_EX1,1,204,2020-07-08T14:48:58-07:00,0.92578101158142,4,versionC_stim.csv,READVersionD.csv,"Read Version D","Dissertation, read only version D",BRONZE,ARTERY,Study1,U,74,78,Study,User,-,,Study/JOL,"Study Phase2",619,,,-1,-1,,,,1
5d5ac177d5610d001ad9c24c,6fjw5o1tni,Nick_Dissertation_EX1,1,205,2020-07-08T14:49:01-07:00,2.5291697978973,4,versionC_stim.csv,READVersionD.csv,"Read Version D","Dissertation, read only version D",WORD,SENTENCE,Study1,F,31,9,Study,User,-,,Study/JOL,"Study Phase2",2173,,,-1,-1,,,,1
5d5ac177d5610d001ad9c24c,6fjw5o1tni,Nick_Dissertation_EX1,1,206,2020-07-08T14:49:02-07:00,1.2622029781342,4,versionC_stim.csv,READVersionD.csv,"Read Version D","Dissertation, read only version D",STOMACH,DIGESTION,Study1,B,7,37,Study,User,-,,Study/JOL,"Study Phase2",933,,,-1,-1,,,,1
5d5ac177d5610d001ad9c24c,6fjw5o1tni,Nick_Dissertation_EX1,1,207,2020-07-08T14:49:03-07:00,1.0619871616364,4,versionC_stim.csv,READVersionD.csv,"Read Version D","Dissertation, read only version D",OUT,WAY,Study1,B,16,34,Study,User,-,,Study/JOL,"Study Phase2",761,,,-1,-1,,,,1
5d5ac177d5610d001ad9c24c,6fjw5o1tni,Nick_Dissertation_EX1,1,208,2020-07-08T14:49:04-07:00,1.1774568557739,4,versionC_stim.csv,READVersionD.csv,"Read Version D","Dissertation, read only version D",FANTASTIC,GREAT,Study1,F,35,15,Study,User,-,,Study/JOL,"Study Phase2",866,,,-1,-1,,,,1
5d5ac177d5610d001ad9c24c,6fjw5o1tni,Nick_Dissertation_EX1,1,209,2020-07-08T14:49:05-07:00,0.95894408226013,4,versionC_stim.csv,READVersionD.csv,"Read Version D","Dissertation, read only version D",CLUTTER,PUSHER,Study1,U,66,82,Study,User,-,,Study/JOL,"Study Phase2",575,,,-1,-1,,,,1
5d5ac177d5610d001ad9c24c,6fjw5o1tni,Nick_Dissertation_EX1,1,210,2020-07-08T14:49:06-07:00,0.8170530796051,4,versionC_stim.csv,READVersionD.csv,"Read Version D","Dissertation, read only version D",SALAD,LETTUCE,Study1,S,59,12,Study,User,-,,Study/JOL,"Study Phase2",494,,,-1,-1,,,,1
5d5ac177d5610d001ad9c24c,6fjw5o1tni,Nick_Dissertation_EX1,1,211,2020-07-08T14:49:07-07:00,0.87020897865295,4,versionC_stim.csv,READVersionD.csv,"Read Version D","Dissertation, read only version D",CLEAN,HYGIENE,Study1,B,17,73,Study,User,-,,Study/JOL,"Study Phase2",565,,,-1,-1,,,,1
5d5ac177d5610d001ad9c24c,6fjw5o1tni,Nick_Dissertation_EX1,1,212,2020-07-08T14:49:08-07:00,0.99052095413208,4,versionC_stim.csv,READVersionD.csv,"Read Version D","Dissertation, read only version D",FAMINE,HUNGER,Study1,F,40,17,Study,User,-,,Study/JOL,"Study Phase2",692,,,-1,-1,,,,1
5d5ac177d5610d001ad9c24c,6fjw5o1tni,Nick_Dissertation_EX1,1,213,2020-07-08T14:49:09-07:00,0.95255303382874,4,versionC_stim.csv,READVersionD.csv,"Read Version D","Dissertation, read only version D",SIGHT,DEBATE,Study1,U,73,42,Study,User,-,,Study/JOL,"Study Phase2",660,,,-1,-1,,,,1
5d5ac177d5610d001ad9c24c,6fjw5o1tni,Nick_Dissertation_EX1,1,214,2020-07-08T14:49:10-07:00,0.90363001823425,4,versionC_stim.csv,READVersionD.csv,"Read Version D","Dissertation, read only version D",WOMAN,LIFT,Study1,U,69,43,Study,User,-,,Study/JOL,"Study Phase2",610,,,-1,-1,,,,1
5d5ac177d5610d001ad9c24c,6fjw5o1tni,Nick_Dissertation_EX1,1,215,2020-07-08T14:49:11-07:00,0.92682385444641,4,versionC_stim.csv,READVersionD.csv,"Read Version D","Dissertation, read only version D",LION,ART,Study1,U,79,64,Study,User,-,,Study/JOL,"Study Phase2",594,,,-1,-1,,,,1
5d5ac177d5610d001ad9c24c,6fjw5o1tni,Nick_Dissertation_EX1,1,216,2020-07-08T14:49:12-07:00,1.310366153717,4,versionC_stim.csv,READVersionD.csv,"Read Version D","Dissertation, read only version D",RIDDLE,SUGAR,Study1,U,81,83,Study,User,-,,Study/JOL,"Study Phase2",1015,,,-1,-1,,,,1
5d5ac177d5610d001ad9c24c,6fjw5o1tni,Nick_Dissertation_EX1,1,217,2020-07-08T14:49:13-07:00,0.78176784515381,4,versionC_stim.csv,READVersionD.csv,"Read Version D","Dissertation, read only version D",POSITION,MACHINE,Study1,U,76,33,Study,User,-,,Study/JOL,"Study Phase2",506,,,-1,-1,,,,1
5d5ac177d5610d001ad9c24c,6fjw5o1tni,Nick_Dissertation_EX1,1,218,2020-07-08T14:49:13-07:00,0.76254415512085,4,versionC_stim.csv,READVersionD.csv,"Read Version D","Dissertation, read only version D",ADD,VALLEY,Study1,U,82,11,Study,User,-,,Study/JOL,"Study Phase2",488,,,-1,-1,,,,1
5d5ac177d5610d001ad9c24c,6fjw5o1tni,Nick_Dissertation_EX1,1,219,2020-07-08T14:49:15-07:00,1.2499270439148,4,versionC_stim.csv,READVersionD.csv,"Read Version D","Dissertation, read only version D",SEIZE,TAKE,Study1,F,29,67,Study,User,-,,Study/JOL,"Study Phase2",945,,,-1,-1,,,,1
5d5ac177d5610d001ad9c24c,6fjw5o1tni,Nick_Dissertation_EX1,1,220,2020-07-08T14:49:16-07:00,1.4054629802704,4,versionC_stim.csv,READVersionD.csv,"Read Version D","Dissertation, read only version D",BUSINESS,DEATH,Study1,U,72,47,Study,User,-,,Study/JOL,"Study Phase2",1119,,,-1,-1,,,,1
5d5ac177d5610d001ad9c24c,6fjw5o1tni,Nick_Dissertation_EX1,1,221,2020-07-08T14:49:17-07:00,0.8773398399353,4,versionC_stim.csv,READVersionD.csv,"Read Version D","Dissertation, read only version D",SODA,POP,Study1,S,56,44,Study,User,-,,Study/JOL,"Study Phase2",586,,,-1,-1,,,,1
5d5ac177d5610d001ad9c24c,6fjw5o1tni,Nick_Dissertation_EX1,1,222,2020-07-08T14:49:19-07:00,1.5330860614777,4,versionC_stim.csv,READVersionD.csv,"Read Version D","Dissertation, read only version D",FLOOR,DISCOVER,Study1,U,71,28,Study,User,-,,Study/JOL,"Study Phase2",1215,,,-1,-1,,,,1
5d5ac177d5610d001ad9c24c,6fjw5o1tni,Nick_Dissertation_EX1,1,223,2020-07-08T14:49:19-07:00,0.71594309806824,4,versionC_stim.csv,READVersionD.csv,"Read Version D","Dissertation, read only version D",SITE,LOCATION,Study1,S,48,32,Study,User,-,,Study/JOL,"Study Phase2",414,,,-1,-1,,,,1
5d5ac177d5610d001ad9c24c,6fjw5o1tni,Nick_Dissertation_EX1,1,224,2020-07-08T14:49:20-07:00,0.66043782234192,4,versionC_stim.csv,READVersionD.csv,"Read Version D","Dissertation, read only version D",COW,HERD,Study1,B,22,13,Study,User,-,,Study/JOL,"Study Phase2",381,,,-1,-1,,,,1
5d5ac177d5610d001ad9c24c,6fjw5o1tni,Nick_Dissertation_EX1,1,225,2020-07-08T14:49:21-07:00,1.0843501091003,4,versionC_stim.csv,READVersionD.csv,"Read Version D","Dissertation, read only version D",FOOT,SHOE,Study1,S,60,76,Study,User,-,,Study/JOL,"Study Phase2",753,,,-1,-1,,,,1
5d5ac177d5610d001ad9c24c,6fjw5o1tni,Nick_Dissertation_EX1,1,226,2020-07-08T14:49:22-07:00,0.70963501930237,4,versionC_stim.csv,READVersionD.csv,"Read Version D","Dissertation, read only version D",DROWSY,SLEEP,Study1,F,41,26,Study,User,-,,Study/JOL,"Study Phase2",380,,,-1,-1,,,,1
5d5ac177d5610d001ad9c24c,6fjw5o1tni,Nick_Dissertation_EX1,1,227,2020-07-08T14:49:22-07:00,0.73163604736328,4,versionC_stim.csv,READVersionD.csv,"Read Version D","Dissertation, read only version D",VASE,KING,Study1,U,85,30,Study,User,-,,Study/JOL,"Study Phase2",414,,,-1,-1,,,,1
5d5ac177d5610d001ad9c24c,6fjw5o1tni,Nick_Dissertation_EX1,1,228,2020-07-08T14:49:23-07:00,0.96975183486938,4,versionC_stim.csv,READVersionD.csv,"Read Version D","Dissertation, read only version D",JURY,TRIAL,Study1,S,50,24,Study,User,-,,Study/JOL,"Study Phase2",654,,,-1,-1,,,,1
5d5ac177d5610d001ad9c24c,6fjw5o1tni,Nick_Dissertation_EX1,1,229,2020-07-08T14:49:26-07:00,2.1471819877625,4,versionC_stim.csv,READVersionD.csv,"Read Version D","Dissertation, read only version D",SACKING,DIETARY,Study1,U,67,65,Study,User,-,,Study/JOL,"Study Phase2",835,,,-1,-1,,,,1
5d5ac177d5610d001ad9c24c,6fjw5o1tni,Nick_Dissertation_EX1,1,230,2020-07-08T14:49:27-07:00,1.0647201538086,4,versionC_stim.csv,READVersionD.csv,"Read Version D","Dissertation, read only version D",STING,HORNET,Study1,B,11,58,Study,User,-,,Study/JOL,"Study Phase2",709,,,-1,-1,,,,1
5d5ac177d5610d001ad9c24c,6fjw5o1tni,Nick_Dissertation_EX1,1,231,2020-07-08T14:49:28-07:00,1.0677008628845,4,versionC_stim.csv,READVersionD.csv,"Read Version D","Dissertation, read only version D",BAD,DELINQUENT,Study1,B,6,49,Study,User,-,,Study/JOL,"Study Phase2",751,,,-1,-1,,,,1
5d5ac177d5610d001ad9c24c,6fjw5o1tni,Nick_Dissertation_EX1,1,232,2020-07-08T14:49:29-07:00,1.6632730960846,4,versionC_stim.csv,READVersionD.csv,"Read Version D","Dissertation, read only version D",CHILI,HOT,Study1,F,37,36,Study,User,-,,Study/JOL,"Study Phase2",1350,,,-1,-1,,,,1
5d5ac177d5610d001ad9c24c,6fjw5o1tni,Nick_Dissertation_EX1,1,233,2020-07-08T14:49:30-07:00,0.72620987892151,4,versionC_stim.csv,READVersionD.csv,"Read Version D","Dissertation, read only version D",TALK,DISCUSSION,Study1,B,21,41,Study,User,-,,Study/JOL,"Study Phase2",425,,,-1,-1,,,,1
5d5ac177d5610d001ad9c24c,6fjw5o1tni,Nick_Dissertation_EX1,1,234,2020-07-08T14:49:31-07:00,0.77721810340881,4,versionC_stim.csv,READVersionD.csv,"Read Version D","Dissertation, read only version D",ATTIRE,CLOTHES,Study1,F,43,54,Study,User,-,,Study/JOL,"Study Phase2",465,,,-1,-1,,,,1
5d5ac177d5610d001ad9c24c,6fjw5o1tni,Nick_Dissertation_EX1,1,235,2020-07-08T14:49:32-07:00,0.80844902992249,4,versionC_stim.csv,READVersionD.csv,"Read Version D","Dissertation, read only version D",DOG,PAW,Study1,B,15,21,Study,User,-,,Study/JOL,"Study Phase2",499,,,-1,-1,,,,1
5d5ac177d5610d001ad9c24c,6fjw5o1tni,Nick_Dissertation_EX1,1,236,2020-07-08T14:49:32-07:00,0.81138396263123,4,versionC_stim.csv,READVersionD.csv,"Read Version D","Dissertation, read only version D",SIP,DRINK,Study1,F,27,63,Study,User,-,,Study/JOL,"Study Phase2",466,,,-1,-1,,,,1
5d5ac177d5610d001ad9c24c,6fjw5o1tni,Nick_Dissertation_EX1,1,237,2020-07-08T14:49:33-07:00,0.72998905181885,4,versionC_stim.csv,READVersionD.csv,"Read Version D","Dissertation, read only version D",WASP,BUG,Study1,F,32,51,Study,User,-,,Study/JOL,"Study Phase2",398,,,-1,-1,,,,1
5d5ac177d5610d001ad9c24c,6fjw5o1tni,Nick_Dissertation_EX1,1,238,2020-07-08T14:49:34-07:00,0.74160504341125,4,versionC_stim.csv,READVersionD.csv,"Read Version D","Dissertation, read only version D",WATER,BRIDGE,Study1,B,18,66,Study,User,-,,Study/JOL,"Study Phase2",415,,,-1,-1,,,,1
5d5ac177d5610d001ad9c24c,6fjw5o1tni,Nick_Dissertation_EX1,1,239,2020-07-08T14:49:35-07:00,0.82072901725769,4,versionC_stim.csv,READVersionD.csv,"Read Version D","Dissertation, read only version D",DESIGN,ARCHITECTURE,Study1,S,51,27,Study,User,-,,Study/JOL,"Study Phase2",519,,,-1,-1,,,,1
5d5ac177d5610d001ad9c24c,6fjw5o1tni,Nick_Dissertation_EX1,1,240,2020-07-08T14:49:35-07:00,0.71757388114929,4,versionC_stim.csv,READVersionD.csv,"Read Version D","Dissertation, read only version D",HUNGRY,PARK,Study1,U,68,69,Study,User,-,,Study/JOL,"Study Phase2",419,,,-1,-1,,,,1
5d5ac177d5610d001ad9c24c,6fjw5o1tni,Nick_Dissertation_EX1,1,241,2020-07-08T14:49:36-07:00,0.824294090271,4,versionC_stim.csv,READVersionD.csv,"Read Version D","Dissertation, read only version D",ENOUGH,FULL,Study1,F,26,68,Study,User,-,,Study/JOL,"Study Phase2",540,,,-1,-1,,,,1
5d5ac177d5610d001ad9c24c,6fjw5o1tni,Nick_Dissertation_EX1,1,242,2020-07-08T14:49:38-07:00,1.2791500091553,4,versionC_stim.csv,READVersionD.csv,"Read Version D","Dissertation, read only version D",CHORE,WORK,Study1,F,39,18,Study,User,-,,Study/JOL,"Study Phase2",968,,,-1,-1,,,,1
5d5ac177d5610d001ad9c24c,6fjw5o1tni,Nick_Dissertation_EX1,1,243,2020-07-08T14:49:38-07:00,0.90990781784058,4,versionC_stim.csv,READVersionD.csv,"Read Version D","Dissertation, read only version D",ROUND,CIRCLE,Study1,S,65,72,Study,User,-,,Study/JOL,"Study Phase2",599,,,-1,-1,,,,1
5d5ac177d5610d001ad9c24c,6fjw5o1tni,Nick_Dissertation_EX1,1,244,2020-07-08T14:49:39-07:00,0.85774803161621,4,versionC_stim.csv,READVersionD.csv,"Read Version D","Dissertation, read only version D",STENCH,SMELL,Study1,F,42,70,Study,User,-,,Study/JOL,"Study Phase2",517,,,-1,-1,,,,1
5d5ac177d5610d001ad9c24c,6fjw5o1tni,Nick_Dissertation_EX1,1,245,2020-07-08T14:49:40-07:00,0.89442706108093,4,versionC_stim.csv,READVersionD.csv,"Read Version D","Dissertation, read only version D",BEE,HONEY,Study1,S,63,10,Study,User,-,,Study/JOL,"Study Phase2",581,,,-1,-1,,,,1
5d5ac177d5610d001ad9c24c,6fjw5o1tni,Nick_Dissertation_EX1,1,246,2020-07-08T14:49:41-07:00,0.80096888542175,4,versionC_stim.csv,READVersionD.csv,"Read Version D","Dissertation, read only version D",CAR,HAPPY,Study1,U,77,14,Study,User,-,,Study/JOL,"Study Phase2",463,,,-1,-1,,,,1
5d5ac177d5610d001ad9c24c,6fjw5o1tni,Nick_Dissertation_EX1,1,247,2020-07-08T14:49:42-07:00,0.9305431842804,4,versionC_stim.csv,READVersionD.csv,"Read Version D","Dissertation, read only version D",HAND,FIX,Study1,U,75,56,Study,User,-,,Study/JOL,"Study Phase2",613,,,-1,-1,,,,1
5d5ac177d5610d001ad9c24c,6fjw5o1tni,Nick_Dissertation_EX1,1,248,2020-07-08T14:49:43-07:00,0.90469598770142,4,versionC_stim.csv,READVersionD.csv,"Read Version D","Dissertation, read only version D",SICK,HIDE,Study1,U,84,60,Study,User,-,,Study/JOL,"Study Phase2",595,,,-1,-1,,,,1
5d5ac177d5610d001ad9c24c,6fjw5o1tni,Nick_Dissertation_EX1,1,249,2020-07-08T14:49:45-07:00,1.850921869278,4,versionC_stim.csv,READVersionD.csv,"Read Version D","Dissertation, read only version D",BELT,SOON,Study1,U,70,80,Study,User,-,,Study/JOL,"Study Phase2",544,,,-1,-1,,,,1
5d5ac177d5610d001ad9c24c,6fjw5o1tni,Nick_Dissertation_EX1,1,250,2020-07-08T14:49:46-07:00,0.85889005661011,4,versionC_stim.csv,READVersionD.csv,"Read Version D","Dissertation, read only version D",WIND,BLOW,Study1,S,55,61,Study,User,-,,Study/JOL,"Study Phase2",514,,,-1,-1,,,,1
5d5ac177d5610d001ad9c24c,6fjw5o1tni,Nick_Dissertation_EX1,1,251,2020-07-08T14:49:46-07:00,0.73669695854187,4,versionC_stim.csv,READVersionD.csv,"Read Version D","Dissertation, read only version D",PLANT,ROOT,Study1,B,13,31,Study,User,-,,Study/JOL,"Study Phase2",432,,,-1,-1,,,,1
5d5ac177d5610d001ad9c24c,6fjw5o1tni,Nick_Dissertation_EX1,1,252,2020-07-08T14:49:47-07:00,0.76872396469116,4,versionC_stim.csv,READVersionD.csv,"Read Version D","Dissertation, read only version D",CHEESE,WINE,Study1,S,57,62,Study,User,-,,Study/JOL,"Study Phase2",436,,,-1,-1,,,,1
5d5ac177d5610d001ad9c24c,6fjw5o1tni,Nick_Dissertation_EX1,1,253,2020-07-08T14:49:48-07:00,0.90396618843079,4,versionC_stim.csv,READVersionD.csv,"Read Version D","Dissertation, read only version D",FUTURE,PAST,Study1,S,61,20,Study,User,-,,Study/JOL,"Study Phase2",628,,,-1,-1,,,,1
5d5ac177d5610d001ad9c24c,6fjw5o1tni,Nick_Dissertation_EX1,1,254,2020-07-08T14:49:49-07:00,0.90263795852661,4,versionC_stim.csv,READVersionD.csv,"Read Version D","Dissertation, read only version D",DEFINITION,MEANING,Study1,S,62,19,Study,User,-,,Study/JOL,"Study Phase2",592,,,-1,-1,,,,1
5d5ac177d5610d001ad9c24c,6fjw5o1tni,Nick_Dissertation_EX1,1,255,2020-07-08T14:49:50-07:00,0.87115597724915,4,versionC_stim.csv,READVersionD.csv,"Read Version D","Dissertation, read only version D",BIRD,SWAN,Study1,B,14,55,Study,User,-,,Study/JOL,"Study Phase2",589,,,-1,-1,,,,1
5d5ac177d5610d001ad9c24c,6fjw5o1tni,Nick_Dissertation_EX1,1,256,2020-07-08T14:49:51-07:00,0.87334704399109,4,versionC_stim.csv,READVersionD.csv,"Read Version D","Dissertation, read only version D",TUCK,ALLOW,Study1,U,78,79,Study,User,-,,Study/JOL,"Study Phase2",540,,,-1,-1,,,,1
5d5ac177d5610d001ad9c24c,6fjw5o1tni,Nick_Dissertation_EX1,1,257,2020-07-08T14:49:51-07:00,0.81452083587646,4,versionC_stim.csv,READVersionD.csv,"Read Version D","Dissertation, read only version D",ATTORNEY,LAW,Study1,F,34,7,Study,User,-,,Study/JOL,"Study Phase2",521,,,-1,-1,,,,1
5d5ac177d5610d001ad9c24c,6fjw5o1tni,Nick_Dissertation_EX1,1,258,2020-07-08T14:49:52-07:00,0.78106498718262,4,versionC_stim.csv,READVersionD.csv,"Read Version D","Dissertation, read only version D",END,BEGIN,Study1,S,54,77,Study,User,-,,Study/JOL,"Study Phase2",484,,,-1,-1,,,,1
5d5ac177d5610d001ad9c24c,6fjw5o1tni,Nick_Dissertation_EX1,1,259,2020-07-08T14:49:53-07:00,0.74489998817444,4,versionC_stim.csv,READVersionD.csv,"Read Version D","Dissertation, read only version D",GROWTH,HEIGHT,Study1,F,30,48,Study,User,-,,Study/JOL,"Study Phase2",429,,,-1,-1,,,,1
5d5ac177d5610d001ad9c24c,6fjw5o1tni,Nick_Dissertation_EX1,1,260,2020-07-08T14:49:54-07:00,0.77626705169678,4,versionC_stim.csv,READVersionD.csv,"Read Version D","Dissertation, read only version D",ACCIDENT,STRONG,Study1,U,80,74,Study,User,-,,Study/JOL,"Study Phase2",489,,,-1,-1,,,,1
5d5ac177d5610d001ad9c24c,6fjw5o1tni,Nick_Dissertation_EX1,1,261,2020-07-08T14:49:55-07:00,1.1654920578003,4,versionC_stim.csv,READVersionD.csv,"Read Version D","Dissertation, read only version D",SPACE,MOON,BUFFER2,Buffer,89,91,Study,User,-,,Study/JOL,BUFFER4,854,,,-1,-1,,,,1
5d5ac177d5610d001ad9c24c,6fjw5o1tni,Nick_Dissertation_EX1,1,262,2020-07-08T14:49:56-07:00,0.78982496261597,4,versionC_stim.csv,READVersionD.csv,"Read Version D","Dissertation, read only version D",CHOCOLATE,MALT,BUFFER2,Buffer,88,87,Study,User,-,,Study/JOL,BUFFER4,505,,,-1,-1,,,,1
5d5ac177d5610d001ad9c24c,6fjw5o1tni,Nick_Dissertation_EX1,1,263,2020-07-08T14:49:56-07:00,0.80060696601868,4,versionC_stim.csv,READVersionD.csv,"Read Version D","Dissertation, read only version D",STUFF,THING,BUFFER2,Buffer,90,88,Study,User,-,,Study/JOL,BUFFER4,491,,,-1,-1,,,,1
5d5ac177d5610d001ad9c24c,6fjw5o1tni,Nick_Dissertation_EX1,1,264,2020-07-08T14:49:57-07:00,0.79629111289978,4,versionC_stim.csv,READVersionD.csv,"Read Version D","Dissertation, read only version D",GOOSE,GEESE,BUFFER2,Buffer,86,90,Study,User,-,,Study/JOL,BUFFER4,458,,,-1,-1,,,,1
5d5ac177d5610d001ad9c24c,6fjw5o1tni,Nick_Dissertation_EX1,1,265,2020-07-08T14:49:59-07:00,1.8660500049591,4,versionC_stim.csv,READVersionD.csv,"Read Version D","Dissertation, read only version D",POLICE,SHERRIF,BUFFER2,Buffer,87,89,Study,User,-,,Study/JOL,BUFFER4,514,,,-1,-1,,,,1
5d5ac177d5610d001ad9c24c,6fjw5o1tni,Nick_Dissertation_EX1,1,266,2020-07-08T14:50:01-07:00,1.5456490516663,4,versionC_stim.csv,READVersionD.csv,"Read Version D","Dissertation, read only version D",,,,,,0,Instruct,User,-,"You have completed this section. Please press Enter.",Filler_Instruction,Instruct5,1214,,,-1,-1,,,,1
5d5ac177d5610d001ad9c24c,6fjw5o1tni,Nick_Dissertation_EX1,1,267,2020-07-08T14:52:01-07:00,120.36314082146,4,versionC_stim.csv,READVersionD.csv,"Read Version D","Dissertation, read only version D",,,,,,0,FreeRecall,120,120,"Please list the 50 US states in reverse alphabetical order (z - a). The task will automatically advance to the next screen after two minutes.",,Filler2,120002,"Wyoming West Virginia Virginia Vermont Utah Texas Tennessee South Dakota South Carolina Pennsylvania Oregon Nevada New Mexico New Jersey New Hampshire Montana Missouri Mississippi Massachuses",0,8909,119921,0,0,,1
5d5ac177d5610d001ad9c24c,6fjw5o1tni,Nick_Dissertation_EX1,1,268,2020-07-08T14:52:13-07:00,11.484869003296,4,versionC_stim.csv,READVersionD.csv,"Read Version D","Dissertation, read only version D",,,,,,0,Instruct,-,10,"You will now be presented with the first word from each of the previously studied item pairs. Please type the missing word. If you do not know the word, you may guess or press Enter to skip forward to the next pair.",,Instruct6,11119,,,-1,-1,,,,1
5d5ac177d5610d001ad9c24c,6fjw5o1tni,Nick_Dissertation_EX1,1,269,2020-07-08T14:52:16-07:00,3.1689231395721,4,versionC_stim.csv,READVersionD.csv,"Read Version D","Dissertation, read only version D",CAR,HAPPY,Study1,U,77,14,Test,User,-,,Recall,Recall2,2853,DRIVE,0,2194,2572,0,0,,1
5d5ac177d5610d001ad9c24c,6fjw5o1tni,Nick_Dissertation_EX1,1,270,2020-07-08T14:52:18-07:00,2.5445258617401,4,versionC_stim.csv,READVersionD.csv,"Read Version D","Dissertation, read only version D",CARD,CREDIT,Study1,B,23,75,Test,User,-,,Recall,Recall2,2148,CREDIT,100,1205,1826,1,1,,1
5d5ac177d5610d001ad9c24c,6fjw5o1tni,Nick_Dissertation_EX1,1,271,2020-07-08T14:52:20-07:00,2.0939490795135,4,versionC_stim.csv,READVersionD.csv,"Read Version D","Dissertation, read only version D",STENCH,SMELL,Study1,F,42,70,Test,User,-,,Recall,Recall2,1624,SMELL,100,903,1331,1,1,,1
5d5ac177d5610d001ad9c24c,6fjw5o1tni,Nick_Dissertation_EX1,1,272,2020-07-08T14:52:24-07:00,4.0025129318237,4,versionC_stim.csv,READVersionD.csv,"Read Version D","Dissertation, read only version D",END,BEGIN,Study1,S,54,77,Test,User,-,,Recall,Recall2,3687,TERMINATE,42.857142857143,2619,3391,0,0,,1
5d5ac177d5610d001ad9c24c,6fjw5o1tni,Nick_Dissertation_EX1,1,273,2020-07-08T14:52:31-07:00,6.7442979812622,4,versionC_stim.csv,READVersionD.csv,"Read Version D","Dissertation, read only version D",SEIZE,TAKE,Study1,F,29,67,Test,User,-,,Recall,Recall2,6445,TAKE,100,2752,6154,1,1,,1
5d5ac177d5610d001ad9c24c,6fjw5o1tni,Nick_Dissertation_EX1,1,274,2020-07-08T14:52:34-07:00,2.3962771892548,4,versionC_stim.csv,READVersionD.csv,"Read Version D","Dissertation, read only version D",WIND,BLOW,Study1,S,55,61,Test,User,-,,Recall,Recall2,2012,BLOW,100,1043,1385,1,1,,1
5d5ac177d5610d001ad9c24c,6fjw5o1tni,Nick_Dissertation_EX1,1,275,2020-07-08T14:52:36-07:00,2.7363328933716,4,versionC_stim.csv,READVersionD.csv,"Read Version D","Dissertation, read only version D",RIDDLE,SUGAR,Study1,U,81,83,Test,User,-,,Recall,Recall2,2303,PUZZLE,18.181818181818,1479,2006,0,0,,1
5d5ac177d5610d001ad9c24c,6fjw5o1tni,Nick_Dissertation_EX1,1,276,2020-07-08T14:52:42-07:00,5.4984939098358,4,versionC_stim.csv,READVersionD.csv,"Read Version D","Dissertation, read only version D",NEWS,EDITOR,Study1,B,10,86,Test,User,-,,Recall,Recall2,4114,EDITOR,100,1403,3729,1,1,,1
5d5ac177d5610d001ad9c24c,6fjw5o1tni,Nick_Dissertation_EX1,1,277,2020-07-08T14:52:44-07:00,2.133052110672,4,versionC_stim.csv,READVersionD.csv,"Read Version D","Dissertation, read only version D",FUTURE,PAST,Study1,S,61,20,Test,User,-,,Recall,Recall2,1814,PAST,100,1036,1518,1,1,,1
5d5ac177d5610d001ad9c24c,6fjw5o1tni,Nick_Dissertation_EX1,1,278,2020-07-08T14:52:48-07:00,3.8450129032135,4,versionC_stim.csv,READVersionD.csv,"Read Version D","Dissertation, read only version D",GROWTH,HEIGHT,Study1,F,30,48,Test,User,-,,Recall,Recall2,3545,EXPAND,16.666666666667,2597,3215,0,0,,1
5d5ac177d5610d001ad9c24c,6fjw5o1tni,Nick_Dissertation_EX1,1,279,2020-07-08T14:52:50-07:00,1.8067691326141,4,versionC_stim.csv,READVersionD.csv,"Read Version D","Dissertation, read only version D",POSITION,MACHINE,Study1,U,76,33,Test,User,-,,Recall,Recall2,1511,,0,-1,-1,0,0,,1
5d5ac177d5610d001ad9c24c,6fjw5o1tni,Nick_Dissertation_EX1,1,280,2020-07-08T14:52:51-07:00,1.9152729511261,4,versionC_stim.csv,READVersionD.csv,"Read Version D","Dissertation, read only version D",SITE,LOCATION,Study1,S,48,32,Test,User,-,,Recall,Recall2,1594,,0,-1,-1,0,0,,1
5d5ac177d5610d001ad9c24c,6fjw5o1tni,Nick_Dissertation_EX1,1,281,2020-07-08T14:52:54-07:00,2.32275390625,4,versionC_stim.csv,READVersionD.csv,"Read Version D","Dissertation, read only version D",LIVER,KIDNEY,Study1,S,53,71,Test,User,-,,Recall,Recall2,1993,KIDNEY,100,1058,1572,1,1,,1
5d5ac177d5610d001ad9c24c,6fjw5o1tni,Nick_Dissertation_EX1,1,282,2020-07-08T14:53:02-07:00,7.8445601463318,4,versionC_stim.csv,READVersionD.csv,"Read Version D","Dissertation, read only version D",ASSIGNMENT,DUE,Study1,S,46,25,Test,User,-,,Recall,Recall2,7549,HOMEWORK,18.181818181818,1353,7279,0,0,,1
5d5ac177d5610d001ad9c24c,6fjw5o1tni,Nick_Dissertation_EX1,1,283,2020-07-08T14:53:04-07:00,2.0368938446045,4,versionC_stim.csv,READVersionD.csv,"Read Version D","Dissertation, read only version D",WASTE,DUMP,Study1,S,49,45,Test,User,-,,Recall,Recall2,1711,BIN,0,887,1223,0,0,,1
5d5ac177d5610d001ad9c24c,6fjw5o1tni,Nick_Dissertation_EX1,1,284,2020-07-08T14:53:06-07:00,2.4389970302582,4,versionC_stim.csv,READVersionD.csv,"Read Version D","Dissertation, read only version D",RACKET,BALL,Study1,F,38,8,Test,User,-,,Recall,Recall2,2113,RUCKUS,0,999,1614,0,0,,1
5d5ac177d5610d001ad9c24c,6fjw5o1tni,Nick_Dissertation_EX1,1,285,2020-07-08T14:53:09-07:00,2.5454070568085,4,versionC_stim.csv,READVersionD.csv,"Read Version D","Dissertation, read only version D",ACCIDENT,STRONG,Study1,U,80,74,Test,User,-,,Recall,Recall2,2246,CAR,22.222222222222,1236,1483,0,0,,1
5d5ac177d5610d001ad9c24c,6fjw5o1tni,Nick_Dissertation_EX1,1,286,2020-07-08T14:53:13-07:00,4.6112940311432,4,versionC_stim.csv,READVersionD.csv,"Read Version D","Dissertation, read only version D",DEFINITION,MEANING,Study1,S,62,19,Test,User,-,,Recall,Recall2,4302,EXPLANATION,55.555555555556,2247,3394,0,0,,1
5d5ac177d5610d001ad9c24c,6fjw5o1tni,Nick_Dissertation_EX1,1,287,2020-07-08T14:53:17-07:00,3.7902870178223,4,versionC_stim.csv,READVersionD.csv,"Read Version D","Dissertation, read only version D",CHORE,WORK,Study1,F,39,18,Test,User,-,,Recall,Recall2,3492,WORK,100,2896,3200,1,1,,1
5d5ac177d5610d001ad9c24c,6fjw5o1tni,Nick_Dissertation_EX1,1,288,2020-07-08T14:53:19-07:00,1.9158029556274,4,versionC_stim.csv,READVersionD.csv,"Read Version D","Dissertation, read only version D",LION,ART,Study1,U,79,64,Test,User,-,,Recall,Recall2,1633,CAT,66.666666666667,1044,1311,0,0,,1
5d5ac177d5610d001ad9c24c,6fjw5o1tni,Nick_Dissertation_EX1,1,289,2020-07-08T14:53:22-07:00,2.9800100326538,4,versionC_stim.csv,READVersionD.csv,"Read Version D","Dissertation, read only version D",CLEAN,HYGIENE,Study1,B,17,73,Test,User,-,,Recall,Recall2,2691,DIRTY,16.666666666667,1760,2289,0,0,,1
5d5ac177d5610d001ad9c24c,6fjw5o1tni,Nick_Dissertation_EX1,1,290,2020-07-08T14:53:26-07:00,3.8476369380951,4,versionC_stim.csv,READVersionD.csv,"Read Version D","Dissertation, read only version D",STOMACH,DIGESTION,Study1,B,7,37,Test,User,-,,Recall,Recall2,3568,DIGEST,80,2031,3283,0,1,,1
5d5ac177d5610d001ad9c24c,6fjw5o1tni,Nick_Dissertation_EX1,1,291,2020-07-08T14:53:28-07:00,2.2133500576019,4,versionC_stim.csv,READVersionD.csv,"Read Version D","Dissertation, read only version D",WOMAN,LIFT,Study1,U,69,43,Test,User,-,,Recall,Recall2,1816,POWER,0,1195,1552,0,0,,1
5d5ac177d5610d001ad9c24c,6fjw5o1tni,Nick_Dissertation_EX1,1,292,2020-07-08T14:53:33-07:00,4.6606380939484,4,versionC_stim.csv,READVersionD.csv,"Read Version D","Dissertation, read only version D",ADD,VALLEY,Study1,U,82,11,Test,User,-,,Recall,Recall2,4282,SUBTRACT,14.285714285714,2035,3991,0,0,,1
5d5ac177d5610d001ad9c24c,6fjw5o1tni,Nick_Dissertation_EX1,1,293,2020-07-08T14:53:37-07:00,3.9451417922974,4,versionC_stim.csv,READVersionD.csv,"Read Version D","Dissertation, read only version D",SALAD,LETTUCE,Study1,S,59,12,Test,User,-,,Recall,Recall2,3665,HEALTHY,28.571428571429,1532,3397,0,0,,1
5d5ac177d5610d001ad9c24c,6fjw5o1tni,Nick_Dissertation_EX1,1,294,2020-07-08T14:53:40-07:00,3.6116302013397,4,versionC_stim.csv,READVersionD.csv,"Read Version D","Dissertation, read only version D",BUSINESS,DEATH,Study1,U,72,47,Test,User,-,,Recall,Recall2,3282,MONEY,20,2434,2793,0,0,,1
5d5ac177d5610d001ad9c24c,6fjw5o1tni,Nick_Dissertation_EX1,1,295,2020-07-08T14:53:43-07:00,2.7070348262787,4,versionC_stim.csv,READVersionD.csv,"Read Version D","Dissertation, read only version D",WOULD,CASH,Study1,U,83,52,Test,User,-,,Recall,Recall2,2412,SHOULD,40,1150,2097,0,0,,1
5d5ac177d5610d001ad9c24c,6fjw5o1tni,Nick_Dissertation_EX1,1,296,2020-07-08T14:53:46-07:00,2.9557011127472,4,versionC_stim.csv,READVersionD.csv,"Read Version D","Dissertation, read only version D",FOOT,SHOE,Study1,S,60,76,Test,User,-,,Recall,Recall2,2690,SHOE,100,2129,2405,1,1,,1
5d5ac177d5610d001ad9c24c,6fjw5o1tni,Nick_Dissertation_EX1,1,297,2020-07-08T14:53:48-07:00,2.250874042511,4,versionC_stim.csv,READVersionD.csv,"Read Version D","Dissertation, read only version D",WORD,SENTENCE,Study1,F,31,9,Test,User,-,,Recall,Recall2,1961,SENTENCE,100,1040,1768,1,1,,1
5d5ac177d5610d001ad9c24c,6fjw5o1tni,Nick_Dissertation_EX1,1,298,2020-07-08T14:53:51-07:00,2.8826239109039,4,versionC_stim.csv,READVersionD.csv,"Read Version D","Dissertation, read only version D",SIGHT,DEBATE,Study1,U,73,42,Test,User,-,,Recall,Recall2,2612,SMELL,18.181818181818,1491,2108,0,0,,1
5d5ac177d5610d001ad9c24c,6fjw5o1tni,Nick_Dissertation_EX1,1,299,2020-07-08T14:53:54-07:00,3.0297861099243,4,versionC_stim.csv,READVersionD.csv,"Read Version D","Dissertation, read only version D",FANTASTIC,GREAT,Study1,F,35,15,Test,User,-,,Recall,Recall2,2738,WONDERFUL,14.285714285714,1085,2454,0,0,,1
5d5ac177d5610d001ad9c24c,6fjw5o1tni,Nick_Dissertation_EX1,1,300,2020-07-08T14:54:00-07:00,5.6148138046265,4,versionC_stim.csv,READVersionD.csv,"Read Version D","Dissertation, read only version D",TUCK,ALLOW,Study1,U,78,79,Test,User,-,,Recall,Recall2,5319,SHIRT,0,2499,5002,0,0,,1
5d5ac177d5610d001ad9c24c,6fjw5o1tni,Nick_Dissertation_EX1,1,301,2020-07-08T14:54:01-07:00,1.1996781826019,4,versionC_stim.csv,READVersionD.csv,"Read Version D","Dissertation, read only version D",SACKING,DIETARY,Study1,U,67,65,Test,User,-,,Recall,Recall2,906,,0,-1,-1,0,0,,1
5d5ac177d5610d001ad9c24c,6fjw5o1tni,Nick_Dissertation_EX1,1,302,2020-07-08T14:54:04-07:00,3.1478939056396,4,versionC_stim.csv,READVersionD.csv,"Read Version D","Dissertation, read only version D",STING,HORNET,Study1,B,11,58,Test,User,-,,Recall,Recall2,2850,BEE,22.222222222222,1094,2542,0,0,,1
5d5ac177d5610d001ad9c24c,6fjw5o1tni,Nick_Dissertation_EX1,1,303,2020-07-08T14:54:07-07:00,2.8673961162567,4,versionC_stim.csv,READVersionD.csv,"Read Version D","Dissertation, read only version D",ATTORNEY,LAW,Study1,F,34,7,Test,User,-,,Recall,Recall2,2573,GENERAL,20,1057,2189,0,0,,1
5d5ac177d5610d001ad9c24c,6fjw5o1tni,Nick_Dissertation_EX1,1,304,2020-07-08T14:54:09-07:00,2.2147278785706,4,versionC_stim.csv,READVersionD.csv,"Read Version D","Dissertation, read only version D",TOILET,BATHROOM,Study1,S,58,50,Test,User,-,,Recall,Recall2,1924,FLUSH,15.384615384615,1258,1634,0,0,,1
5d5ac177d5610d001ad9c24c,6fjw5o1tni,Nick_Dissertation_EX1,1,305,2020-07-08T14:54:12-07:00,2.5739679336548,4,versionC_stim.csv,READVersionD.csv,"Read Version D","Dissertation, read only version D",DROWSY,SLEEP,Study1,F,41,26,Test,User,-,,Recall,Recall2,2220,TIRED,20,1483,1857,0,0,,1
5d5ac177d5610d001ad9c24c,6fjw5o1tni,Nick_Dissertation_EX1,1,306,2020-07-08T14:54:15-07:00,2.9627640247345,4,versionC_stim.csv,READVersionD.csv,"Read Version D","Dissertation, read only version D",BIRD,SWAN,Study1,B,14,55,Test,User,-,,Recall,Recall2,2648,SONG,50,2088,2338,0,0,,1
5d5ac177d5610d001ad9c24c,6fjw5o1tni,Nick_Dissertation_EX1,1,307,2020-07-08T14:54:22-07:00,7.6572620868683,4,versionC_stim.csv,READVersionD.csv,"Read Version D","Dissertation, read only version D",HAMMER,CHISEL,Study1,B,9,53,Test,User,-,,Recall,Recall2,7330,CHISEL,100,6602,7007,1,1,,1
5d5ac177d5610d001ad9c24c,6fjw5o1tni,Nick_Dissertation_EX1,1,308,2020-07-08T14:54:24-07:00,1.6624739170074,4,versionC_stim.csv,READVersionD.csv,"Read Version D","Dissertation, read only version D",BEE,HONEY,Study1,S,63,10,Test,User,-,,Recall,Recall2,1312,STING,20,742,1046,0,0,,1
5d5ac177d5610d001ad9c24c,6fjw5o1tni,Nick_Dissertation_EX1,1,309,2020-07-08T14:54:27-07:00,2.9335360527039,4,versionC_stim.csv,READVersionD.csv,"Read Version D","Dissertation, read only version D",ATTIRE,CLOTHES,Study1,F,43,54,Test,User,-,,Recall,Recall2,2644,PROPER,30.769230769231,1839,2292,0,0,,1
5d5ac177d5610d001ad9c24c,6fjw5o1tni,Nick_Dissertation_EX1,1,310,2020-07-08T14:54:30-07:00,2.751128911972,4,versionC_stim.csv,READVersionD.csv,"Read Version D","Dissertation, read only version D",ROUND,CIRCLE,Study1,S,65,72,Test,User,-,,Recall,Recall2,2463,CIRCLE,100,1639,2181,1,1,,1
5d5ac177d5610d001ad9c24c,6fjw5o1tni,Nick_Dissertation_EX1,1,311,2020-07-08T14:54:32-07:00,2.5002360343933,4,versionC_stim.csv,READVersionD.csv,"Read Version D","Dissertation, read only version D",VASE,KING,Study1,U,85,30,Test,User,-,,Recall,Recall2,2152,PLANT,22.222222222222,1390,1766,0,0,,1
5d5ac177d5610d001ad9c24c,6fjw5o1tni,Nick_Dissertation_EX1,1,312,2020-07-08T14:54:34-07:00,1.6094260215759,4,versionC_stim.csv,READVersionD.csv,"Read Version D","Dissertation, read only version D",SODA,POP,Study1,S,56,44,Test,User,-,,Recall,Recall2,1299,POP,100,750,907,1,1,,1
5d5ac177d5610d001ad9c24c,6fjw5o1tni,Nick_Dissertation_EX1,1,313,2020-07-08T14:54:37-07:00,3.506912946701,4,versionC_stim.csv,READVersionD.csv,"Read Version D","Dissertation, read only version D",CHILI,HOT,Study1,F,37,36,Test,User,-,,Recall,Recall2,2707,MEAT,28.571428571429,2081,2422,0,0,,1
5d5ac177d5610d001ad9c24c,6fjw5o1tni,Nick_Dissertation_EX1,1,314,2020-07-08T14:54:39-07:00,2.2702400684357,4,versionC_stim.csv,READVersionD.csv,"Read Version D","Dissertation, read only version D",BLAZE,FIRE,Study1,F,45,22,Test,User,-,,Recall,Recall2,1969,FIRE,100,1442,1704,1,1,,1
5d5ac177d5610d001ad9c24c,6fjw5o1tni,Nick_Dissertation_EX1,1,315,2020-07-08T14:54:42-07:00,2.6605279445648,4,versionC_stim.csv,READVersionD.csv,"Read Version D","Dissertation, read only version D",BRONZE,ARTERY,Study1,U,74,78,Test,User,-,,Recall,Recall2,2355,,0,-1,-1,0,0,,1
5d5ac177d5610d001ad9c24c,6fjw5o1tni,Nick_Dissertation_EX1,1,316,2020-07-08T14:54:44-07:00,1.8284349441528,4,versionC_stim.csv,READVersionD.csv,"Read Version D","Dissertation, read only version D",COW,HERD,Study1,B,22,13,Test,User,-,,Recall,Recall2,1521,HERD,100,909,1199,1,1,,1
5d5ac177d5610d001ad9c24c,6fjw5o1tni,Nick_Dissertation_EX1,1,317,2020-07-08T14:54:47-07:00,2.7145700454712,4,versionC_stim.csv,READVersionD.csv,"Read Version D","Dissertation, read only version D",WATER,BRIDGE,Study1,B,18,66,Test,User,-,,Recall,Recall2,2415,ICE,44.444444444444,1917,2134,0,0,,1
5d5ac177d5610d001ad9c24c,6fjw5o1tni,Nick_Dissertation_EX1,1,318,2020-07-08T14:54:49-07:00,2.4274501800537,4,versionC_stim.csv,READVersionD.csv,"Read Version D","Dissertation, read only version D",CHILD,BABY,Study1,S,64,57,Test,User,-,,Recall,Recall2,2129,BABY,100,1101,1867,1,1,,1
5d5ac177d5610d001ad9c24c,6fjw5o1tni,Nick_Dissertation_EX1,1,319,2020-07-08T14:54:52-07:00,2.5200068950653,4,versionC_stim.csv,READVersionD.csv,"Read Version D","Dissertation, read only version D",FAMINE,HUNGER,Study1,F,40,17,Test,User,-,,Recall,Recall2,2208,HUNGER,100,1417,1940,1,1,,1
5d5ac177d5610d001ad9c24c,6fjw5o1tni,Nick_Dissertation_EX1,1,320,2020-07-08T14:54:54-07:00,2.791424036026,4,versionC_stim.csv,READVersionD.csv,"Read Version D","Dissertation, read only version D",SICK,HIDE,Study1,U,84,60,Test,User,-,,Recall,Recall2,2495,ILL,28.571428571429,1908,2196,0,0,,1
5d5ac177d5610d001ad9c24c,6fjw5o1tni,Nick_Dissertation_EX1,1,321,2020-07-08T14:54:57-07:00,2.0949828624725,4,versionC_stim.csv,READVersionD.csv,"Read Version D","Dissertation, read only version D",SIP,DRINK,Study1,F,27,63,Test,User,-,,Recall,Recall2,1807,DRINK,100,1177,1504,1,1,,1
5d5ac177d5610d001ad9c24c,6fjw5o1tni,Nick_Dissertation_EX1,1,322,2020-07-08T14:55:00-07:00,3.1028070449829,4,versionC_stim.csv,READVersionD.csv,"Read Version D","Dissertation, read only version D",PILOT,PLANE,Study1,F,44,38,Test,User,-,,Recall,Recall2,2795,AIRPLANE,76.923076923077,1160,2455,0,1,,1
5d5ac177d5610d001ad9c24c,6fjw5o1tni,Nick_Dissertation_EX1,1,323,2020-07-08T14:55:01-07:00,1.615443944931,4,versionC_stim.csv,READVersionD.csv,"Read Version D","Dissertation, read only version D",CHEESE,WINE,Study1,S,57,62,Test,User,-,,Recall,Recall2,1309,WINE,100,824,1045,1,1,,1
5d5ac177d5610d001ad9c24c,6fjw5o1tni,Nick_Dissertation_EX1,1,324,2020-07-08T14:55:04-07:00,3.0111660957336,4,versionC_stim.csv,READVersionD.csv,"Read Version D","Dissertation, read only version D",AMOUNT,NUMBER,Study1,S,47,40,Test,User,-,,Recall,Recall2,2623,MONEY,36.363636363636,1860,2313,0,0,,1
5d5ac177d5610d001ad9c24c,6fjw5o1tni,Nick_Dissertation_EX1,1,325,2020-07-08T14:55:07-07:00,2.8256049156189,4,versionC_stim.csv,READVersionD.csv,"Read Version D","Dissertation, read only version D",MONEY,WAGE,Study1,B,8,16,Test,User,-,,Recall,Recall2,2372,AMOUNT,20,931,2067,0,0,,1
5d5ac177d5610d001ad9c24c,6fjw5o1tni,Nick_Dissertation_EX1,1,326,2020-07-08T14:55:12-07:00,5.2679011821747,4,versionC_stim.csv,READVersionD.csv,"Read Version D","Dissertation, read only version D",TALK,DISCUSSION,Study1,B,21,41,Test,User,-,,Recall,Recall2,4925,CHATTER,11.764705882353,1051,4053,0,0,,1
5d5ac177d5610d001ad9c24c,6fjw5o1tni,Nick_Dissertation_EX1,1,327,2020-07-08T14:55:15-07:00,3.1328217983246,4,versionC_stim.csv,READVersionD.csv,"Read Version D","Dissertation, read only version D",HUNGRY,PARK,Study1,U,68,69,Test,User,-,,Recall,Recall2,2827,STOMACHE,16.666666666667,1419,2540,0,0,,1
5d5ac177d5610d001ad9c24c,6fjw5o1tni,Nick_Dissertation_EX1,1,328,2020-07-08T14:55:18-07:00,2.7226221561432,4,versionC_stim.csv,READVersionD.csv,"Read Version D","Dissertation, read only version D",WASP,BUG,Study1,F,32,51,Test,User,-,,Recall,Recall2,2422,HORNET,0,1228,2098,0,0,,1
5d5ac177d5610d001ad9c24c,6fjw5o1tni,Nick_Dissertation_EX1,1,329,2020-07-08T14:55:22-07:00,3.3925309181213,4,versionC_stim.csv,READVersionD.csv,"Read Version D","Dissertation, read only version D",ENOUGH,FULL,Study1,F,26,68,Test,User,-,,Recall,Recall2,3099,ABUNDANT,16.666666666667,1506,2708,0,0,,1
5d5ac177d5610d001ad9c24c,6fjw5o1tni,Nick_Dissertation_EX1,1,330,2020-07-08T14:55:26-07:00,4.7757620811462,4,versionC_stim.csv,READVersionD.csv,"Read Version D","Dissertation, read only version D",COLD,BITTER,Study1,B,12,84,Test,User,-,,Recall,Recall2,4432,ICE,44.444444444444,1343,4145,0,0,,1
5d5ac177d5610d001ad9c24c,6fjw5o1tni,Nick_Dissertation_EX1,1,331,2020-07-08T14:55:33-07:00,6.8367159366608,4,versionC_stim.csv,READVersionD.csv,"Read Version D","Dissertation, read only version D",FLOOR,DISCOVER,Study1,U,71,28,Test,User,-,,Recall,Recall2,6532,MOP,18.181818181818,5941,6147,0,0,,1
5d5ac177d5610d001ad9c24c,6fjw5o1tni,Nick_Dissertation_EX1,1,332,2020-07-08T14:55:36-07:00,2.372486114502,4,versionC_stim.csv,READVersionD.csv,"Read Version D","Dissertation, read only version D",WAR,REVOLUTION,Study1,B,20,59,Test,User,-,,Recall,Recall2,2070,FAMINE,25,1274,1736,0,0,,1
5d5ac177d5610d001ad9c24c,6fjw5o1tni,Nick_Dissertation_EX1,1,333,2020-07-08T14:56:45-07:00,69.296857833862,4,versionC_stim.csv,READVersionD.csv,"Read Version D","Dissertation, read only version D",OUT,WAY,Study1,B,16,34,Test,User,-,,Recall,Recall2,5007,ESCAPE,22.222222222222,3356,4641,0,0,,1
5d5ac177d5610d001ad9c24c,6fjw5o1tni,Nick_Dissertation_EX1,1,334,2020-07-08T14:56:47-07:00,1.9813070297241,4,versionC_stim.csv,READVersionD.csv,"Read Version D","Dissertation, read only version D",LATCH,KEY,Study1,F,36,85,Test,User,-,,Recall,Recall2,1678,KEY,100,1192,1417,1,1,,1
5d5ac177d5610d001ad9c24c,6fjw5o1tni,Nick_Dissertation_EX1,1,335,2020-07-08T14:56:49-07:00,2.2285311222076,4,versionC_stim.csv,READVersionD.csv,"Read Version D","Dissertation, read only version D",CAVE,DARK,Study1,F,28,23,Test,User,-,,Recall,Recall2,1932,HIDE,25,1372,1656,0,0,,1
5d5ac177d5610d001ad9c24c,6fjw5o1tni,Nick_Dissertation_EX1,1,336,2020-07-08T14:56:54-07:00,4.6486828327179,4,versionC_stim.csv,READVersionD.csv,"Read Version D","Dissertation, read only version D",FISH,TUNA,Study1,B,25,81,Test,User,-,,Recall,Recall2,4274,TUNA,100,1296,3958,1,1,,1
5d5ac177d5610d001ad9c24c,6fjw5o1tni,Nick_Dissertation_EX1,1,337,2020-07-08T14:56:58-07:00,4.6873881816864,4,versionC_stim.csv,READVersionD.csv,"Read Version D","Dissertation, read only version D",BAD,DELINQUENT,Study1,B,6,49,Test,User,-,,Recall,Recall2,4375,VILLAIN,35.294117647059,1589,3993,0,0,,1
5d5ac177d5610d001ad9c24c,6fjw5o1tni,Nick_Dissertation_EX1,1,338,2020-07-08T14:57:01-07:00,2.914666891098,4,versionC_stim.csv,READVersionD.csv,"Read Version D","Dissertation, read only version D",JURY,TRIAL,Study1,S,50,24,Test,User,-,,Recall,Recall2,2587,TRIAL,100,828,2236,1,1,,1
5d5ac177d5610d001ad9c24c,6fjw5o1tni,Nick_Dissertation_EX1,1,339,2020-07-08T14:57:08-07:00,6.2806720733643,4,versionC_stim.csv,READVersionD.csv,"Read Version D","Dissertation, read only version D",CLUTTER,PUSHER,Study1,U,66,82,Test,User,-,,Recall,Recall2,5978,CLUMSY,33.333333333333,2921,5678,0,0,,1
5d5ac177d5610d001ad9c24c,6fjw5o1tni,Nick_Dissertation_EX1,1,340,2020-07-08T14:57:11-07:00,2.9605848789215,4,versionC_stim.csv,READVersionD.csv,"Read Version D","Dissertation, read only version D",ROCK,GEOLOGY,Study1,B,19,29,Test,User,-,,Recall,Recall2,2640,CAVE,18.181818181818,2016,2320,0,0,,1
5d5ac177d5610d001ad9c24c,6fjw5o1tni,Nick_Dissertation_EX1,1,341,2020-07-08T14:57:14-07:00,3.554172039032,4,versionC_stim.csv,READVersionD.csv,"Read Version D","Dissertation, read only version D",HAND,FIX,Study1,U,75,56,Test,User,-,,Recall,Recall2,3269,GLOVES,0,2376,2885,0,0,,1
5d5ac177d5610d001ad9c24c,6fjw5o1tni,Nick_Dissertation_EX1,1,342,2020-07-08T14:57:17-07:00,3.2249739170074,4,versionC_stim.csv,READVersionD.csv,"Read Version D","Dissertation, read only version D",DOG,PAW,Study1,B,15,21,Test,User,-,,Recall,Recall2,2919,WOLF,28.571428571429,2314,2625,0,0,,1
5d5ac177d5610d001ad9c24c,6fjw5o1tni,Nick_Dissertation_EX1,1,343,2020-07-08T14:57:20-07:00,2.723571062088,4,versionC_stim.csv,READVersionD.csv,"Read Version D","Dissertation, read only version D",FLOWER,ORCHID,Study1,B,24,35,Test,User,-,,Recall,Recall2,2427,VASE,0,1127,2122,0,0,,1
5d5ac177d5610d001ad9c24c,6fjw5o1tni,Nick_Dissertation_EX1,1,344,2020-07-08T14:57:22-07:00,2.2178289890289,4,versionC_stim.csv,READVersionD.csv,"Read Version D","Dissertation, read only version D",DIVISION,MATH,Study1,F,33,46,Test,User,-,,Recall,Recall2,1895,MATH,100,1082,1469,1,1,,1
5d5ac177d5610d001ad9c24c,6fjw5o1tni,Nick_Dissertation_EX1,1,345,2020-07-08T14:57:25-07:00,2.2324230670929,4,versionC_stim.csv,READVersionD.csv,"Read Version D","Dissertation, read only version D",BAR,GRILL,Study1,S,52,39,Test,User,-,,Recall,Recall2,1864,LID,25,1392,1555,0,0,,1
5d5ac177d5610d001ad9c24c,6fjw5o1tni,Nick_Dissertation_EX1,1,346,2020-07-08T14:57:26-07:00,1.1408660411835,4,versionC_stim.csv,READVersionD.csv,"Read Version D","Dissertation, read only version D",DESIGN,ARCHITECTURE,Study1,S,51,27,Test,User,-,,Recall,Recall2,847,,0,-1,-1,0,0,,1
