Username,ID,ExperimentName,Session,Trial,Date,TimeDif,Condition Number,Stimuli File,Order File,Condition Description,Condition Notes,Stimuli*Cue,Stimuli*Answer,Stimuli*Shuffle,Stimuli*Stimuli Notes,Stimuli*Value,Procedure*Item,Procedure*Trial Type,Procedure*Max Time,Procedure*Min Time,Procedure*Text,Procedure*Procedure Notes,Procedure*Shuffle,Response*RT,Response*Response,Response*Accuracy,Response*RTfirst,Response*RTlast,Response*strictAcc,Response*lenientAcc,Response*focus,Response*Focus
w985086,haapup81ii,Nick_Dissertation_EX1,1,1,2020-04-06T09:38:02-07:00,13.17740011,3,versionC_stim.csv,READVersionC.csv,Read Version C,"Dissertation, read only version C",,,,,,0,Instruct,-,10,"Please study each of the following word pairs. Remember that your memory will be tested! When finished, press Enter to move to the next pair.",Initial_Instruct,Instruct1,12895,,,-1,-1,,,,1
w985086,haapup81ii,Nick_Dissertation_EX1,1,2,2020-04-06T09:38:05-07:00,2.623658895,3,versionC_stim.csv,READVersionC.csv,Read Version C,"Dissertation, read only version C",HIDE,SCARE,BUFFER1,Buffer,4,6,Study,User,-,,Study/JOL,BUFFER,2298,,,-1,-1,,,,1
w985086,haapup81ii,Nick_Dissertation_EX1,1,3,2020-04-06T09:38:08-07:00,3.433377981,3,versionC_stim.csv,READVersionC.csv,Read Version C,"Dissertation, read only version C",CATCHER,BASEBALL,BUFFER1,Buffer,2,5,Study,User,-,,Study/JOL,BUFFER,3143,,,-1,-1,,,,1
w985086,haapup81ii,Nick_Dissertation_EX1,1,4,2020-04-06T09:38:11-07:00,2.737981081,3,versionC_stim.csv,READVersionC.csv,Read Version C,"Dissertation, read only version C",GREEN,TREES,BUFFER1,Buffer,1,4,Study,User,-,,Study/JOL,BUFFER,2440,,,-1,-1,,,,1
w985086,haapup81ii,Nick_Dissertation_EX1,1,5,2020-04-06T09:38:14-07:00,2.859102011,3,versionC_stim.csv,READVersionC.csv,Read Version C,"Dissertation, read only version C",BUTTER,PEANUT,BUFFER1,Buffer,3,3,Study,User,-,,Study/JOL,BUFFER,2560,,,-1,-1,,,,1
w985086,haapup81ii,Nick_Dissertation_EX1,1,6,2020-04-06T09:38:16-07:00,2.035475016,3,versionC_stim.csv,READVersionC.csv,Read Version C,"Dissertation, read only version C",JAM,SPACE,BUFFER1,Buffer,5,2,Study,User,-,,Study/JOL,BUFFER,1751,,,-1,-1,,,,1
w985086,haapup81ii,Nick_Dissertation_EX1,1,7,2020-04-06T09:38:19-07:00,3.6485219,3,versionC_stim.csv,READVersionC.csv,Read Version C,"Dissertation, read only version C",DIVISION,MATH,Study1,F,33,63,Study,User,-,,Study/JOL,Study Phase,3358,,,-1,-1,,,,1
w985086,haapup81ii,Nick_Dissertation_EX1,1,8,2020-04-06T09:38:22-07:00,2.848119974,3,versionC_stim.csv,READVersionC.csv,Read Version C,"Dissertation, read only version C",FANTASTIC,GREAT,Study1,F,35,73,Study,User,-,,Study/JOL,Study Phase,2548,,,-1,-1,,,,1
w985086,haapup81ii,Nick_Dissertation_EX1,1,9,2020-04-06T09:38:25-07:00,2.378400087,3,versionC_stim.csv,READVersionC.csv,Read Version C,"Dissertation, read only version C",OUT,WAY,Study1,B,16,27,Study,User,-,,Study/JOL,Study Phase,2093,,,-1,-1,,,,1
w985086,haapup81ii,Nick_Dissertation_EX1,1,10,2020-04-06T09:38:27-07:00,2.361754894,3,versionC_stim.csv,READVersionC.csv,Read Version C,"Dissertation, read only version C",CHORE,WORK,Study1,F,39,84,Study,User,-,,Study/JOL,Study Phase,2067,,,-1,-1,,,,1
w985086,haapup81ii,Nick_Dissertation_EX1,1,11,2020-04-06T09:38:30-07:00,2.775531054,3,versionC_stim.csv,READVersionC.csv,Read Version C,"Dissertation, read only version C",ASSIGNMENT,DUE,Study1,S,46,30,Study,User,-,,Study/JOL,Study Phase,2455,,,-1,-1,,,,1
w985086,haapup81ii,Nick_Dissertation_EX1,1,12,2020-04-06T09:38:32-07:00,2.247516155,3,versionC_stim.csv,READVersionC.csv,Read Version C,"Dissertation, read only version C",DOG,PAW,Study1,B,15,62,Study,User,-,,Study/JOL,Study Phase,1968,,,-1,-1,,,,1
w985086,haapup81ii,Nick_Dissertation_EX1,1,13,2020-04-06T09:38:35-07:00,2.549806833,3,versionC_stim.csv,READVersionC.csv,Read Version C,"Dissertation, read only version C",COLD,BITTER,Study1,B,12,81,Study,User,-,,Study/JOL,Study Phase,2194,,,-1,-1,,,,1
w985086,haapup81ii,Nick_Dissertation_EX1,1,14,2020-04-06T09:38:38-07:00,3.569832087,3,versionC_stim.csv,READVersionC.csv,Read Version C,"Dissertation, read only version C",TALK,DISCUSSION,Study1,B,21,57,Study,User,-,,Study/JOL,Study Phase,3065,,,-1,-1,,,,1
w985086,haapup81ii,Nick_Dissertation_EX1,1,15,2020-04-06T09:38:41-07:00,2.485078096,3,versionC_stim.csv,READVersionC.csv,Read Version C,"Dissertation, read only version C",SITE,LOCATION,Study1,S,48,19,Study,User,-,,Study/JOL,Study Phase,2206,,,-1,-1,,,,1
w985086,haapup81ii,Nick_Dissertation_EX1,1,16,2020-04-06T09:38:43-07:00,2.661001921,3,versionC_stim.csv,READVersionC.csv,Read Version C,"Dissertation, read only version C",PLANT,ROOT,Study1,B,13,75,Study,User,-,,Study/JOL,Study Phase,2365,,,-1,-1,,,,1
w985086,haapup81ii,Nick_Dissertation_EX1,1,17,2020-04-06T09:38:46-07:00,2.798420906,3,versionC_stim.csv,READVersionC.csv,Read Version C,"Dissertation, read only version C",BAD,DELINQUENT,Study1,B,6,52,Study,User,-,,Study/JOL,Study Phase,2293,,,-1,-1,,,,1
w985086,haapup81ii,Nick_Dissertation_EX1,1,18,2020-04-06T09:38:49-07:00,2.736929178,3,versionC_stim.csv,READVersionC.csv,Read Version C,"Dissertation, read only version C",FOOT,SHOE,Study1,S,60,15,Study,User,-,,Study/JOL,Study Phase,2446,,,-1,-1,,,,1
w985086,haapup81ii,Nick_Dissertation_EX1,1,19,2020-04-06T09:38:51-07:00,2.319412947,3,versionC_stim.csv,READVersionC.csv,Read Version C,"Dissertation, read only version C",STING,HORNET,Study1,B,11,60,Study,User,-,,Study/JOL,Study Phase,1998,,,-1,-1,,,,1
w985086,haapup81ii,Nick_Dissertation_EX1,1,20,2020-04-06T09:38:53-07:00,2.124438047,3,versionC_stim.csv,READVersionC.csv,Read Version C,"Dissertation, read only version C",BAR,GRILL,Study1,S,52,66,Study,User,-,,Study/JOL,Study Phase,1799,,,-1,-1,,,,1
w985086,haapup81ii,Nick_Dissertation_EX1,1,21,2020-04-06T09:39:01-07:00,8.068987846,3,versionC_stim.csv,READVersionC.csv,Read Version C,"Dissertation, read only version C",POSITION,MACHINE,Study1,U,76,42,Study,User,-,,Study/JOL,Study Phase,1860,,,-1,-1,,,,1
w985086,haapup81ii,Nick_Dissertation_EX1,1,22,2020-04-06T09:39:04-07:00,2.514886141,3,versionC_stim.csv,READVersionC.csv,Read Version C,"Dissertation, read only version C",SICK,HIDE,Study1,U,84,69,Study,User,-,,Study/JOL,Study Phase,2181,,,-1,-1,,,,1
w985086,haapup81ii,Nick_Dissertation_EX1,1,23,2020-04-06T09:39:06-07:00,2.602787971,3,versionC_stim.csv,READVersionC.csv,Read Version C,"Dissertation, read only version C",COW,HERD,Study1,B,22,58,Study,User,-,,Study/JOL,Study Phase,2273,,,-1,-1,,,,1
w985086,haapup81ii,Nick_Dissertation_EX1,1,24,2020-04-06T09:39:09-07:00,2.324831009,3,versionC_stim.csv,READVersionC.csv,Read Version C,"Dissertation, read only version C",HAMMER,CHISEL,Study1,B,9,70,Study,User,-,,Study/JOL,Study Phase,2043,,,-1,-1,,,,1
w985086,haapup81ii,Nick_Dissertation_EX1,1,25,2020-04-06T09:39:11-07:00,2.722360849,3,versionC_stim.csv,READVersionC.csv,Read Version C,"Dissertation, read only version C",CHILD,BABY,Study1,S,64,41,Study,User,-,,Study/JOL,Study Phase,2194,,,-1,-1,,,,1
w985086,haapup81ii,Nick_Dissertation_EX1,1,26,2020-04-06T09:39:15-07:00,3.036568165,3,versionC_stim.csv,READVersionC.csv,Read Version C,"Dissertation, read only version C",ADD,VALLEY,Study1,U,82,24,Study,User,-,,Study/JOL,Study Phase,2729,,,-1,-1,,,,1
w985086,haapup81ii,Nick_Dissertation_EX1,1,27,2020-04-06T09:39:17-07:00,2.53143096,3,versionC_stim.csv,READVersionC.csv,Read Version C,"Dissertation, read only version C",CLUTTER,PUSHER,Study1,U,66,33,Study,User,-,,Study/JOL,Study Phase,2223,,,-1,-1,,,,1
w985086,haapup81ii,Nick_Dissertation_EX1,1,28,2020-04-06T09:39:20-07:00,2.489249945,3,versionC_stim.csv,READVersionC.csv,Read Version C,"Dissertation, read only version C",BLAZE,FIRE,Study1,F,45,35,Study,User,-,,Study/JOL,Study Phase,2181,,,-1,-1,,,,1
w985086,haapup81ii,Nick_Dissertation_EX1,1,29,2020-04-06T09:39:22-07:00,2.299268007,3,versionC_stim.csv,READVersionC.csv,Read Version C,"Dissertation, read only version C",DEFINITION,MEANING,Study1,S,62,39,Study,User,-,,Study/JOL,Study Phase,1999,,,-1,-1,,,,1
w985086,haapup81ii,Nick_Dissertation_EX1,1,30,2020-04-06T09:39:24-07:00,2.433302879,3,versionC_stim.csv,READVersionC.csv,Read Version C,"Dissertation, read only version C",BEE,HONEY,Study1,S,63,74,Study,User,-,,Study/JOL,Study Phase,2077,,,-1,-1,,,,1
w985086,haapup81ii,Nick_Dissertation_EX1,1,31,2020-04-06T09:39:27-07:00,2.380828142,3,versionC_stim.csv,READVersionC.csv,Read Version C,"Dissertation, read only version C",SIGHT,DEBATE,Study1,U,73,7,Study,User,-,,Study/JOL,Study Phase,1885,,,-1,-1,,,,1
w985086,haapup81ii,Nick_Dissertation_EX1,1,32,2020-04-06T09:39:29-07:00,2.465591908,3,versionC_stim.csv,READVersionC.csv,Read Version C,"Dissertation, read only version C",FAMINE,HUNGER,Study1,F,40,86,Study,User,-,,Study/JOL,Study Phase,1942,,,-1,-1,,,,1
w985086,haapup81ii,Nick_Dissertation_EX1,1,33,2020-04-06T09:39:32-07:00,2.702097178,3,versionC_stim.csv,READVersionC.csv,Read Version C,"Dissertation, read only version C",ENOUGH,FULL,Study1,F,26,49,Study,User,-,,Study/JOL,Study Phase,2098,,,-1,-1,,,,1
w985086,haapup81ii,Nick_Dissertation_EX1,1,34,2020-04-06T09:39:34-07:00,1.87664485,3,versionC_stim.csv,READVersionC.csv,Read Version C,"Dissertation, read only version C",RACKET,BALL,Study1,F,38,8,Study,User,-,,Study/JOL,Study Phase,1588,,,-1,-1,,,,1
w985086,haapup81ii,Nick_Dissertation_EX1,1,35,2020-04-06T09:39:36-07:00,2.312597036,3,versionC_stim.csv,READVersionC.csv,Read Version C,"Dissertation, read only version C",BRONZE,ARTERY,Study1,U,74,9,Study,User,-,,Study/JOL,Study Phase,2020,,,-1,-1,,,,1
w985086,haapup81ii,Nick_Dissertation_EX1,1,36,2020-04-06T09:39:38-07:00,2.359916925,3,versionC_stim.csv,READVersionC.csv,Read Version C,"Dissertation, read only version C",WASP,BUG,Study1,F,32,78,Study,User,-,,Study/JOL,Study Phase,2005,,,-1,-1,,,,1
w985086,haapup81ii,Nick_Dissertation_EX1,1,37,2020-04-06T09:39:41-07:00,2.513454199,3,versionC_stim.csv,READVersionC.csv,Read Version C,"Dissertation, read only version C",MONEY,WAGE,Study1,B,8,34,Study,User,-,,Study/JOL,Study Phase,2203,,,-1,-1,,,,1
w985086,haapup81ii,Nick_Dissertation_EX1,1,38,2020-04-06T09:39:43-07:00,2.621675968,3,versionC_stim.csv,READVersionC.csv,Read Version C,"Dissertation, read only version C",SIP,DRINK,Study1,F,27,83,Study,User,-,,Study/JOL,Study Phase,2033,,,-1,-1,,,,1
w985086,haapup81ii,Nick_Dissertation_EX1,1,39,2020-04-06T09:39:45-07:00,1.778687,3,versionC_stim.csv,READVersionC.csv,Read Version C,"Dissertation, read only version C",TUCK,ALLOW,Study1,U,78,10,Study,User,-,,Study/JOL,Study Phase,1475,,,-1,-1,,,,1
w985086,haapup81ii,Nick_Dissertation_EX1,1,40,2020-04-06T09:39:47-07:00,2.048499823,3,versionC_stim.csv,READVersionC.csv,Read Version C,"Dissertation, read only version C",RIDDLE,SUGAR,Study1,U,81,79,Study,User,-,,Study/JOL,Study Phase,1762,,,-1,-1,,,,1
w985086,haapup81ii,Nick_Dissertation_EX1,1,41,2020-04-06T09:39:49-07:00,1.961732149,3,versionC_stim.csv,READVersionC.csv,Read Version C,"Dissertation, read only version C",WOMAN,LIFT,Study1,U,69,21,Study,User,-,,Study/JOL,Study Phase,1626,,,-1,-1,,,,1
w985086,haapup81ii,Nick_Dissertation_EX1,1,42,2020-04-06T09:39:51-07:00,2.125063896,3,versionC_stim.csv,READVersionC.csv,Read Version C,"Dissertation, read only version C",CLEAN,HYGIENE,Study1,B,17,56,Study,User,-,,Study/JOL,Study Phase,1812,,,-1,-1,,,,1
w985086,haapup81ii,Nick_Dissertation_EX1,1,43,2020-04-06T09:39:53-07:00,1.978604078,3,versionC_stim.csv,READVersionC.csv,Read Version C,"Dissertation, read only version C",FLOWER,ORCHID,Study1,B,24,18,Study,User,-,,Study/JOL,Study Phase,1683,,,-1,-1,,,,1
w985086,haapup81ii,Nick_Dissertation_EX1,1,44,2020-04-06T09:39:55-07:00,1.681802034,3,versionC_stim.csv,READVersionC.csv,Read Version C,"Dissertation, read only version C",NEWS,EDITOR,Study1,B,10,47,Study,User,-,,Study/JOL,Study Phase,1142,,,-1,-1,,,,1
w985086,haapup81ii,Nick_Dissertation_EX1,1,45,2020-04-06T09:39:57-07:00,1.850729942,3,versionC_stim.csv,READVersionC.csv,Read Version C,"Dissertation, read only version C",JURY,TRIAL,Study1,S,50,50,Study,User,-,,Study/JOL,Study Phase,1571,,,-1,-1,,,,1
w985086,haapup81ii,Nick_Dissertation_EX1,1,46,2020-04-06T09:39:59-07:00,1.705653906,3,versionC_stim.csv,READVersionC.csv,Read Version C,"Dissertation, read only version C",STENCH,SMELL,Study1,F,42,55,Study,User,-,,Study/JOL,Study Phase,1422,,,-1,-1,,,,1
w985086,haapup81ii,Nick_Dissertation_EX1,1,47,2020-04-06T09:40:00-07:00,1.622956038,3,versionC_stim.csv,READVersionC.csv,Read Version C,"Dissertation, read only version C",CAR,HAPPY,Study1,U,77,43,Study,User,-,,Study/JOL,Study Phase,1327,,,-1,-1,,,,1
w985086,haapup81ii,Nick_Dissertation_EX1,1,48,2020-04-06T09:40:02-07:00,1.377355099,3,versionC_stim.csv,READVersionC.csv,Read Version C,"Dissertation, read only version C",LATCH,KEY,Study1,F,36,20,Study,User,-,,Study/JOL,Study Phase,1077,,,-1,-1,,,,1
w985086,haapup81ii,Nick_Dissertation_EX1,1,49,2020-04-06T09:40:05-07:00,3.335265875,3,versionC_stim.csv,READVersionC.csv,Read Version C,"Dissertation, read only version C",WAR,REVOLUTION,Study1,B,20,85,Study,User,-,,Study/JOL,Study Phase,780,,,-1,-1,,,,1
w985086,haapup81ii,Nick_Dissertation_EX1,1,50,2020-04-06T09:40:07-07:00,2.43938899,3,versionC_stim.csv,READVersionC.csv,Read Version C,"Dissertation, read only version C",ROUND,CIRCLE,Study1,S,65,67,Study,User,-,,Study/JOL,Study Phase,2110,,,-1,-1,,,,1
w985086,haapup81ii,Nick_Dissertation_EX1,1,51,2020-04-06T09:40:11-07:00,3.500674009,3,versionC_stim.csv,READVersionC.csv,Read Version C,"Dissertation, read only version C",WASTE,DUMP,Study1,S,49,40,Study,User,-,,Study/JOL,Study Phase,1134,,,-1,-1,,,,1
w985086,haapup81ii,Nick_Dissertation_EX1,1,52,2020-04-06T09:40:12-07:00,1.481592178,3,versionC_stim.csv,READVersionC.csv,Read Version C,"Dissertation, read only version C",CARD,CREDIT,Study1,B,23,71,Study,User,-,,Study/JOL,Study Phase,1173,,,-1,-1,,,,1
w985086,haapup81ii,Nick_Dissertation_EX1,1,53,2020-04-06T09:40:14-07:00,1.427087784,3,versionC_stim.csv,READVersionC.csv,Read Version C,"Dissertation, read only version C",ATTORNEY,LAW,Study1,F,34,77,Study,User,-,,Study/JOL,Study Phase,1143,,,-1,-1,,,,1
w985086,haapup81ii,Nick_Dissertation_EX1,1,54,2020-04-06T09:40:15-07:00,1.07537508,3,versionC_stim.csv,READVersionC.csv,Read Version C,"Dissertation, read only version C",FLOOR,DISCOVER,Study1,U,71,32,Study,User,-,,Study/JOL,Study Phase,780,,,-1,-1,,,,1
w985086,haapup81ii,Nick_Dissertation_EX1,1,55,2020-04-06T09:40:16-07:00,1.535068035,3,versionC_stim.csv,READVersionC.csv,Read Version C,"Dissertation, read only version C",WORD,SENTENCE,Study1,F,31,64,Study,User,-,,Study/JOL,Study Phase,1234,,,-1,-1,,,,1
w985086,haapup81ii,Nick_Dissertation_EX1,1,56,2020-04-06T09:40:19-07:00,2.096615076,3,versionC_stim.csv,READVersionC.csv,Read Version C,"Dissertation, read only version C",ACCIDENT,STRONG,Study1,U,80,38,Study,User,-,,Study/JOL,Study Phase,1486,,,-1,-1,,,,1
w985086,haapup81ii,Nick_Dissertation_EX1,1,57,2020-04-06T09:40:20-07:00,1.875550985,3,versionC_stim.csv,READVersionC.csv,Read Version C,"Dissertation, read only version C",WATER,BRIDGE,Study1,B,18,45,Study,User,-,,Study/JOL,Study Phase,1565,,,-1,-1,,,,1
w985086,haapup81ii,Nick_Dissertation_EX1,1,58,2020-04-06T09:40:22-07:00,1.192520857,3,versionC_stim.csv,READVersionC.csv,Read Version C,"Dissertation, read only version C",SEIZE,TAKE,Study1,F,29,76,Study,User,-,,Study/JOL,Study Phase,851,,,-1,-1,,,,1
w985086,haapup81ii,Nick_Dissertation_EX1,1,59,2020-04-06T09:40:23-07:00,1.258234978,3,versionC_stim.csv,READVersionC.csv,Read Version C,"Dissertation, read only version C",CAVE,DARK,Study1,F,28,13,Study,User,-,,Study/JOL,Study Phase,957,,,-1,-1,,,,1
w985086,haapup81ii,Nick_Dissertation_EX1,1,60,2020-04-06T09:40:24-07:00,1.157703161,3,versionC_stim.csv,READVersionC.csv,Read Version C,"Dissertation, read only version C",HAND,FIX,Study1,U,75,54,Study,User,-,,Study/JOL,Study Phase,857,,,-1,-1,,,,1
w985086,haapup81ii,Nick_Dissertation_EX1,1,61,2020-04-06T09:40:25-07:00,1.185659885,3,versionC_stim.csv,READVersionC.csv,Read Version C,"Dissertation, read only version C",SACKING,DIETARY,Study1,U,67,53,Study,User,-,,Study/JOL,Study Phase,897,,,-1,-1,,,,1
w985086,haapup81ii,Nick_Dissertation_EX1,1,62,2020-04-06T09:40:27-07:00,1.461168051,3,versionC_stim.csv,READVersionC.csv,Read Version C,"Dissertation, read only version C",CHEESE,WINE,Study1,S,57,61,Study,User,-,,Study/JOL,Study Phase,1175,,,-1,-1,,,,1
w985086,haapup81ii,Nick_Dissertation_EX1,1,63,2020-04-06T09:40:28-07:00,1.282005072,3,versionC_stim.csv,READVersionC.csv,Read Version C,"Dissertation, read only version C",DESIGN,ARCHITECTURE,Study1,S,51,17,Study,User,-,,Study/JOL,Study Phase,992,,,-1,-1,,,,1
w985086,haapup81ii,Nick_Dissertation_EX1,1,64,2020-04-06T09:40:30-07:00,2.357417822,3,versionC_stim.csv,READVersionC.csv,Read Version C,"Dissertation, read only version C",DROWSY,SLEEP,Study1,F,41,46,Study,User,-,,Study/JOL,Study Phase,2076,,,-1,-1,,,,1
w985086,haapup81ii,Nick_Dissertation_EX1,1,65,2020-04-06T09:40:31-07:00,1.102539063,3,versionC_stim.csv,READVersionC.csv,Read Version C,"Dissertation, read only version C",FUTURE,PAST,Study1,S,61,16,Study,User,-,,Study/JOL,Study Phase,825,,,-1,-1,,,,1
w985086,haapup81ii,Nick_Dissertation_EX1,1,66,2020-04-06T09:40:32-07:00,1.029453993,3,versionC_stim.csv,READVersionC.csv,Read Version C,"Dissertation, read only version C",BELT,SOON,Study1,U,70,26,Study,User,-,,Study/JOL,Study Phase,740,,,-1,-1,,,,1
w985086,haapup81ii,Nick_Dissertation_EX1,1,67,2020-04-06T09:40:34-07:00,1.790161133,3,versionC_stim.csv,READVersionC.csv,Read Version C,"Dissertation, read only version C",SALAD,LETTUCE,Study1,S,59,23,Study,User,-,,Study/JOL,Study Phase,1498,,,-1,-1,,,,1
w985086,haapup81ii,Nick_Dissertation_EX1,1,68,2020-04-06T09:40:36-07:00,1.370548964,3,versionC_stim.csv,READVersionC.csv,Read Version C,"Dissertation, read only version C",WIND,BLOW,Study1,S,55,72,Study,User,-,,Study/JOL,Study Phase,1083,,,-1,-1,,,,1
w985086,haapup81ii,Nick_Dissertation_EX1,1,69,2020-04-06T09:40:37-07:00,1.023612976,3,versionC_stim.csv,READVersionC.csv,Read Version C,"Dissertation, read only version C",LIVER,KIDNEY,Study1,S,53,28,Study,User,-,,Study/JOL,Study Phase,728,,,-1,-1,,,,1
w985086,haapup81ii,Nick_Dissertation_EX1,1,70,2020-04-06T09:40:38-07:00,0.996716976,3,versionC_stim.csv,READVersionC.csv,Read Version C,"Dissertation, read only version C",FISH,TUNA,Study1,B,25,82,Study,User,-,,Study/JOL,Study Phase,696,,,-1,-1,,,,1
w985086,haapup81ii,Nick_Dissertation_EX1,1,71,2020-04-06T09:40:38-07:00,0.899028063,3,versionC_stim.csv,READVersionC.csv,Read Version C,"Dissertation, read only version C",BUSINESS,DEATH,Study1,U,72,12,Study,User,-,,Study/JOL,Study Phase,603,,,-1,-1,,,,1
w985086,haapup81ii,Nick_Dissertation_EX1,1,72,2020-04-06T09:40:40-07:00,1.71429801,3,versionC_stim.csv,READVersionC.csv,Read Version C,"Dissertation, read only version C",TOILET,BATHROOM,Study1,S,58,37,Study,User,-,,Study/JOL,Study Phase,1442,,,-1,-1,,,,1
w985086,haapup81ii,Nick_Dissertation_EX1,1,73,2020-04-06T09:40:43-07:00,3.175297022,3,versionC_stim.csv,READVersionC.csv,Read Version C,"Dissertation, read only version C",GROWTH,HEIGHT,Study1,F,30,36,Study,User,-,,Study/JOL,Study Phase,682,,,-1,-1,,,,1
w985086,haapup81ii,Nick_Dissertation_EX1,1,74,2020-04-06T09:40:45-07:00,1.276633024,3,versionC_stim.csv,READVersionC.csv,Read Version C,"Dissertation, read only version C",ROCK,GEOLOGY,Study1,B,19,29,Study,User,-,,Study/JOL,Study Phase,986,,,-1,-1,,,,1
w985086,haapup81ii,Nick_Dissertation_EX1,1,75,2020-04-06T09:40:46-07:00,1.135284901,3,versionC_stim.csv,READVersionC.csv,Read Version C,"Dissertation, read only version C",PILOT,PLANE,Study1,F,44,11,Study,User,-,,Study/JOL,Study Phase,848,,,-1,-1,,,,1
w985086,haapup81ii,Nick_Dissertation_EX1,1,76,2020-04-06T09:40:47-07:00,0.915363073,3,versionC_stim.csv,READVersionC.csv,Read Version C,"Dissertation, read only version C",HUNGRY,PARK,Study1,U,68,14,Study,User,-,,Study/JOL,Study Phase,634,,,-1,-1,,,,1
w985086,haapup81ii,Nick_Dissertation_EX1,1,77,2020-04-06T09:40:48-07:00,0.958124876,3,versionC_stim.csv,READVersionC.csv,Read Version C,"Dissertation, read only version C",ATTIRE,CLOTHES,Study1,F,43,25,Study,User,-,,Study/JOL,Study Phase,673,,,-1,-1,,,,1
w985086,haapup81ii,Nick_Dissertation_EX1,1,78,2020-04-06T09:40:49-07:00,0.94236207,3,versionC_stim.csv,READVersionC.csv,Read Version C,"Dissertation, read only version C",BIRD,SWAN,Study1,B,14,44,Study,User,-,,Study/JOL,Study Phase,649,,,-1,-1,,,,1
w985086,haapup81ii,Nick_Dissertation_EX1,1,79,2020-04-06T09:40:50-07:00,1.092756033,3,versionC_stim.csv,READVersionC.csv,Read Version C,"Dissertation, read only version C",AMOUNT,NUMBER,Study1,S,47,48,Study,User,-,,Study/JOL,Study Phase,803,,,-1,-1,,,,1
w985086,haapup81ii,Nick_Dissertation_EX1,1,80,2020-04-06T09:40:51-07:00,0.941359043,3,versionC_stim.csv,READVersionC.csv,Read Version C,"Dissertation, read only version C",WOULD,CASH,Study1,U,83,51,Study,User,-,,Study/JOL,Study Phase,649,,,-1,-1,,,,1
w985086,haapup81ii,Nick_Dissertation_EX1,1,81,2020-04-06T09:40:52-07:00,0.915746927,3,versionC_stim.csv,READVersionC.csv,Read Version C,"Dissertation, read only version C",VASE,KING,Study1,U,85,80,Study,User,-,,Study/JOL,Study Phase,632,,,-1,-1,,,,1
w985086,haapup81ii,Nick_Dissertation_EX1,1,82,2020-04-06T09:40:52-07:00,0.919245958,3,versionC_stim.csv,READVersionC.csv,Read Version C,"Dissertation, read only version C",STOMACH,DIGESTION,Study1,B,7,22,Study,User,-,,Study/JOL,Study Phase,634,,,-1,-1,,,,1
w985086,haapup81ii,Nick_Dissertation_EX1,1,83,2020-04-06T09:40:54-07:00,1.730184078,3,versionC_stim.csv,READVersionC.csv,Read Version C,"Dissertation, read only version C",END,BEGIN,Study1,S,54,31,Study,User,-,,Study/JOL,Study Phase,1453,,,-1,-1,,,,1
w985086,haapup81ii,Nick_Dissertation_EX1,1,84,2020-04-06T09:40:55-07:00,0.974228859,3,versionC_stim.csv,READVersionC.csv,Read Version C,"Dissertation, read only version C",LION,ART,Study1,U,79,65,Study,User,-,,Study/JOL,Study Phase,685,,,-1,-1,,,,1
w985086,haapup81ii,Nick_Dissertation_EX1,1,85,2020-04-06T09:40:56-07:00,0.882510185,3,versionC_stim.csv,READVersionC.csv,Read Version C,"Dissertation, read only version C",CHILI,HOT,Study1,F,37,68,Study,User,-,,Study/JOL,Study Phase,584,,,-1,-1,,,,1
w985086,haapup81ii,Nick_Dissertation_EX1,1,86,2020-04-06T09:40:57-07:00,1.342486858,3,versionC_stim.csv,READVersionC.csv,Read Version C,"Dissertation, read only version C",SODA,POP,Study1,S,56,59,Study,User,-,,Study/JOL,Study Phase,1035,,,-1,-1,,,,1
w985086,haapup81ii,Nick_Dissertation_EX1,1,87,2020-04-06T09:40:58-07:00,0.810745001,3,versionC_stim.csv,READVersionC.csv,Read Version C,"Dissertation, read only version C",POLICE,SHERRIF,BUFFER2,Buffer,87,91,Study,User,-,,Study/JOL,BUFFER2,514,,,-1,-1,,,,1
w985086,haapup81ii,Nick_Dissertation_EX1,1,88,2020-04-06T09:41:00-07:00,2.253976107,3,versionC_stim.csv,READVersionC.csv,Read Version C,"Dissertation, read only version C",SPACE,MOON,BUFFER2,Buffer,89,90,Study,User,-,,Study/JOL,BUFFER2,1871,,,-1,-1,,,,1
w985086,haapup81ii,Nick_Dissertation_EX1,1,89,2020-04-06T09:41:01-07:00,0.753209829,3,versionC_stim.csv,READVersionC.csv,Read Version C,"Dissertation, read only version C",STUFF,THING,BUFFER2,Buffer,90,87,Study,User,-,,Study/JOL,BUFFER2,474,,,-1,-1,,,,1
w985086,haapup81ii,Nick_Dissertation_EX1,1,90,2020-04-06T09:41:02-07:00,0.820788145,3,versionC_stim.csv,READVersionC.csv,Read Version C,"Dissertation, read only version C",GOOSE,GEESE,BUFFER2,Buffer,86,88,Study,User,-,,Study/JOL,BUFFER2,529,,,-1,-1,,,,1
w985086,haapup81ii,Nick_Dissertation_EX1,1,91,2020-04-06T09:41:03-07:00,0.86281395,3,versionC_stim.csv,READVersionC.csv,Read Version C,"Dissertation, read only version C",CHOCOLATE,MALT,BUFFER2,Buffer,88,89,Study,User,-,,Study/JOL,BUFFER2,546,,,-1,-1,,,,1
w985086,haapup81ii,Nick_Dissertation_EX1,1,92,2020-04-06T09:41:05-07:00,2.178275108,3,versionC_stim.csv,READVersionC.csv,Read Version C,"Dissertation, read only version C",,,,,,0,Instruct,User,-,You have completed this section. Please press Enter.,Filler_Instruction,Instruct2,1883,,,-1,-1,,,,1
w985086,haapup81ii,Nick_Dissertation_EX1,1,93,2020-04-06T09:43:05-07:00,120.3852348,3,versionC_stim.csv,READVersionC.csv,Read Version C,"Dissertation, read only version C",,,,,,0,FreeRecall,120,120,Please list the 50 US states in alphabetical order. The task will automatically advance to the next screen after two minutes.,,Filler1,120007,Alabama California CT Delawere Florida Georgia Hawaii Idaho Illinois Inniepolis ,0,5248,106829,0,0,,1
w985086,haapup81ii,Nick_Dissertation_EX1,1,94,2020-04-06T09:43:17-07:00,11.40859294,3,versionC_stim.csv,READVersionC.csv,Read Version C,"Dissertation, read only version C",,,,,,0,Instruct,-,10,"You will now be presented with the first word from each of the previously studied item pairs. Please type the missing word. If you do not know the word, you may guess or press Enter to skip forward to the next pair.",,Instruct3,11009,,,-1,-1,,,,1
w985086,haapup81ii,Nick_Dissertation_EX1,1,95,2020-04-06T09:43:26-07:00,8.998834133,3,versionC_stim.csv,READVersionC.csv,Read Version C,"Dissertation, read only version C",CLEAN,HYGIENE,Study1,B,17,56,Test,User,-,,Recall,Recall1,8678,WORk,0,7001,8457,0,0,,1
w985086,haapup81ii,Nick_Dissertation_EX1,1,96,2020-04-06T09:43:29-07:00,2.912280083,3,versionC_stim.csv,READVersionC.csv,Read Version C,"Dissertation, read only version C",ENOUGH,FULL,Study1,F,26,49,Test,User,-,,Recall,Recall1,2574,,0,-1,-1,0,0,,1
w985086,haapup81ii,Nick_Dissertation_EX1,1,97,2020-04-06T09:43:34-07:00,5.596699953,3,versionC_stim.csv,READVersionC.csv,Read Version C,"Dissertation, read only version C",BRONZE,ARTERY,Study1,U,74,9,Test,User,-,,Recall,Recall1,5274,MEDAL,18.18181818,3998,5089,0,0,,1
w985086,haapup81ii,Nick_Dissertation_EX1,1,98,2020-04-06T09:43:37-07:00,2.747585058,3,versionC_stim.csv,READVersionC.csv,Read Version C,"Dissertation, read only version C",COW,HERD,Study1,B,22,58,Test,User,-,,Recall,Recall1,2439,HERD,100,1625,1997,1,1,,1
w985086,haapup81ii,Nick_Dissertation_EX1,1,99,2020-04-06T09:43:39-07:00,2.235317945,3,versionC_stim.csv,READVersionC.csv,Read Version C,"Dissertation, read only version C",CARD,CREDIT,Study1,B,23,71,Test,User,-,,Recall,Recall1,1939,CREDIT,100,1083,1695,1,1,,1
w985086,haapup81ii,Nick_Dissertation_EX1,1,100,2020-04-06T09:43:43-07:00,3.217476845,3,versionC_stim.csv,READVersionC.csv,Read Version C,"Dissertation, read only version C",SODA,POP,Study1,S,56,59,Test,User,-,,Recall,Recall1,2918,POP,100,1482,2574,1,1,,1
w985086,haapup81ii,Nick_Dissertation_EX1,1,101,2020-04-06T09:43:47-07:00,3.968236208,3,versionC_stim.csv,READVersionC.csv,Read Version C,"Dissertation, read only version C",FOOT,SHOE,Study1,S,60,15,Test,User,-,,Recall,Recall1,3666,ANKLE,22.22222222,2885,3508,0,0,,1
w985086,haapup81ii,Nick_Dissertation_EX1,1,102,2020-04-06T09:43:51-07:00,4.322274923,3,versionC_stim.csv,READVersionC.csv,Read Version C,"Dissertation, read only version C",JURY,TRIAL,Study1,S,50,50,Test,User,-,,Recall,Recall1,4006,JUDGE,0,2933,3817,0,0,,1
w985086,haapup81ii,Nick_Dissertation_EX1,1,103,2020-04-06T09:43:53-07:00,2.009803057,3,versionC_stim.csv,READVersionC.csv,Read Version C,"Dissertation, read only version C",LATCH,KEY,Study1,F,36,20,Test,User,-,,Recall,Recall1,1705,KEY,100,1236,1491,1,1,,1
w985086,haapup81ii,Nick_Dissertation_EX1,1,104,2020-04-06T09:43:59-07:00,6.278159857,3,versionC_stim.csv,READVersionC.csv,Read Version C,"Dissertation, read only version C",TOILET,BATHROOM,Study1,S,58,37,Test,User,-,,Recall,Recall1,5977,SINK,0,2409,5675,0,0,,1
w985086,haapup81ii,Nick_Dissertation_EX1,1,105,2020-04-06T09:44:05-07:00,5.818938017,3,versionC_stim.csv,READVersionC.csv,Read Version C,"Dissertation, read only version C",NEWS,EDITOR,Study1,B,10,47,Test,User,-,,Recall,Recall1,2896,EDITOR,100,1890,2529,1,1,,1
w985086,haapup81ii,Nick_Dissertation_EX1,1,106,2020-04-06T09:44:07-07:00,2.154448986,3,versionC_stim.csv,READVersionC.csv,Read Version C,"Dissertation, read only version C",BELT,SOON,Study1,U,70,26,Test,User,-,,Recall,Recall1,1802,SOON,100,1185,1569,1,1,,1
w985086,haapup81ii,Nick_Dissertation_EX1,1,107,2020-04-06T09:44:09-07:00,2.174962044,3,versionC_stim.csv,READVersionC.csv,Read Version C,"Dissertation, read only version C",DIVISION,MATH,Study1,F,33,63,Test,User,-,,Recall,Recall1,1875,MAH,85.71428571,1098,1562,0,1,,1
w985086,haapup81ii,Nick_Dissertation_EX1,1,108,2020-04-06T09:44:13-07:00,3.936652899,3,versionC_stim.csv,READVersionC.csv,Read Version C,"Dissertation, read only version C",HAMMER,CHISEL,Study1,B,9,70,Test,User,-,,Recall,Recall1,3594,,0,2885,2885,0,0,,1
w985086,haapup81ii,Nick_Dissertation_EX1,1,109,2020-04-06T09:44:15-07:00,1.328200102,3,versionC_stim.csv,READVersionC.csv,Read Version C,"Dissertation, read only version C",PILOT,PLANE,Study1,F,44,11,Test,User,-,,Recall,Recall1,1015,,0,-1,-1,0,0,,1
w985086,haapup81ii,Nick_Dissertation_EX1,1,110,2020-04-06T09:44:16-07:00,1.533934116,3,versionC_stim.csv,READVersionC.csv,Read Version C,"Dissertation, read only version C",ADD,VALLEY,Study1,U,82,24,Test,User,-,,Recall,Recall1,1235,,0,-1,-1,0,0,,1
w985086,haapup81ii,Nick_Dissertation_EX1,1,111,2020-04-06T09:44:20-07:00,4.305857897,3,versionC_stim.csv,READVersionC.csv,Read Version C,"Dissertation, read only version C",BAD,DELINQUENT,Study1,B,6,52,Test,User,-,,Recall,Recall1,4003,DELIQUENT,94.73684211,1625,3624,0,1,,1
w985086,haapup81ii,Nick_Dissertation_EX1,1,112,2020-04-06T09:44:22-07:00,1.886219025,3,versionC_stim.csv,READVersionC.csv,Read Version C,"Dissertation, read only version C",BLAZE,FIRE,Study1,F,45,35,Test,User,-,,Recall,Recall1,1587,FIRE,100,1083,1379,1,1,,1
w985086,haapup81ii,Nick_Dissertation_EX1,1,113,2020-04-06T09:44:24-07:00,1.555490017,3,versionC_stim.csv,READVersionC.csv,Read Version C,"Dissertation, read only version C",FISH,TUNA,Study1,B,25,82,Test,User,-,,Recall,Recall1,1155,,0,-1,-1,0,0,,1
w985086,haapup81ii,Nick_Dissertation_EX1,1,114,2020-04-06T09:44:25-07:00,1.50967288,3,versionC_stim.csv,READVersionC.csv,Read Version C,"Dissertation, read only version C",HUNGRY,PARK,Study1,U,68,14,Test,User,-,,Recall,Recall1,1211,,0,-1,-1,0,0,,1
w985086,haapup81ii,Nick_Dissertation_EX1,1,115,2020-04-06T09:44:28-07:00,2.222799063,3,versionC_stim.csv,READVersionC.csv,Read Version C,"Dissertation, read only version C",SALAD,LETTUCE,Study1,S,59,23,Test,User,-,,Recall,Recall1,1932,LETTUCE,100,885,1696,1,1,,1
w985086,haapup81ii,Nick_Dissertation_EX1,1,116,2020-04-06T09:44:29-07:00,1.713676929,3,versionC_stim.csv,READVersionC.csv,Read Version C,"Dissertation, read only version C",BAR,GRILL,Study1,S,52,66,Test,User,-,,Recall,Recall1,1346,,0,-1,-1,0,0,,1
w985086,haapup81ii,Nick_Dissertation_EX1,1,117,2020-04-06T09:44:32-07:00,2.406800032,3,versionC_stim.csv,READVersionC.csv,Read Version C,"Dissertation, read only version C",CLUTTER,PUSHER,Study1,U,66,33,Test,User,-,,Recall,Recall1,2122,MESS,20,1483,1791,0,0,,1
w985086,haapup81ii,Nick_Dissertation_EX1,1,118,2020-04-06T09:44:34-07:00,2.668722153,3,versionC_stim.csv,READVersionC.csv,Read Version C,"Dissertation, read only version C",FLOWER,ORCHID,Study1,B,24,18,Test,User,-,,Recall,Recall1,2367,ORCHID,100,1152,1972,1,1,,1
w985086,haapup81ii,Nick_Dissertation_EX1,1,119,2020-04-06T09:44:37-07:00,2.616335869,3,versionC_stim.csv,READVersionC.csv,Read Version C,"Dissertation, read only version C",BUSINESS,DEATH,Study1,U,72,12,Test,User,-,,Recall,Recall1,2308,DEATH,100,1608,2079,1,1,,1
w985086,haapup81ii,Nick_Dissertation_EX1,1,120,2020-04-06T09:44:38-07:00,1.428319931,3,versionC_stim.csv,READVersionC.csv,Read Version C,"Dissertation, read only version C",BIRD,SWAN,Study1,B,14,44,Test,User,-,,Recall,Recall1,1131,,0,-1,-1,0,0,,1
w985086,haapup81ii,Nick_Dissertation_EX1,1,121,2020-04-06T09:44:40-07:00,1.18072319,3,versionC_stim.csv,READVersionC.csv,Read Version C,"Dissertation, read only version C",SITE,LOCATION,Study1,S,48,19,Test,User,-,,Recall,Recall1,876,,0,-1,-1,0,0,,1
w985086,haapup81ii,Nick_Dissertation_EX1,1,122,2020-04-06T09:44:42-07:00,2.012861013,3,versionC_stim.csv,READVersionC.csv,Read Version C,"Dissertation, read only version C",TALK,DISCUSSION,Study1,B,21,57,Test,User,-,,Recall,Recall1,1719,,0,-1,-1,0,0,,1
w985086,haapup81ii,Nick_Dissertation_EX1,1,123,2020-04-06T09:44:44-07:00,2.458121777,3,versionC_stim.csv,READVersionC.csv,Read Version C,"Dissertation, read only version C",STING,HORNET,Study1,B,11,60,Test,User,-,,Recall,Recall1,2159,WASP,0,1433,1777,0,0,,1
w985086,haapup81ii,Nick_Dissertation_EX1,1,124,2020-04-06T09:44:47-07:00,2.877639055,3,versionC_stim.csv,READVersionC.csv,Read Version C,"Dissertation, read only version C",SACKING,DIETARY,Study1,U,67,53,Test,User,-,,Recall,Recall1,2582,,0,-1,-1,0,0,,1
w985086,haapup81ii,Nick_Dissertation_EX1,1,125,2020-04-06T09:44:49-07:00,1.950251102,3,versionC_stim.csv,READVersionC.csv,Read Version C,"Dissertation, read only version C",TUCK,ALLOW,Study1,U,78,10,Test,User,-,,Recall,Recall1,1548,,0,-1,-1,0,0,,1
w985086,haapup81ii,Nick_Dissertation_EX1,1,126,2020-04-06T09:44:52-07:00,2.811049938,3,versionC_stim.csv,READVersionC.csv,Read Version C,"Dissertation, read only version C",POSITION,MACHINE,Study1,U,76,42,Test,User,-,,Recall,Recall1,2506,LOCATION,40,1259,2118,0,0,,1
w985086,haapup81ii,Nick_Dissertation_EX1,1,127,2020-04-06T09:44:54-07:00,1.869982004,3,versionC_stim.csv,READVersionC.csv,Read Version C,"Dissertation, read only version C",CAVE,DARK,Study1,F,28,13,Test,User,-,,Recall,Recall1,1568,DARK,100,1074,1378,1,1,,1
w985086,haapup81ii,Nick_Dissertation_EX1,1,128,2020-04-06T09:44:58-07:00,3.922596931,3,versionC_stim.csv,READVersionC.csv,Read Version C,"Dissertation, read only version C",WAR,REVOLUTION,Study1,B,20,85,Test,User,-,,Recall,Recall1,3623,REVOLUTION,100,1286,3373,1,1,,1
w985086,haapup81ii,Nick_Dissertation_EX1,1,129,2020-04-06T09:45:04-07:00,6.381155968,3,versionC_stim.csv,READVersionC.csv,Read Version C,"Dissertation, read only version C",HAND,FIX,Study1,U,75,54,Test,User,-,,Recall,Recall1,6076,FIX,100,3346,5935,1,1,,1
w985086,haapup81ii,Nick_Dissertation_EX1,1,130,2020-04-06T09:45:05-07:00,1.319129229,3,versionC_stim.csv,READVersionC.csv,Read Version C,"Dissertation, read only version C",FUTURE,PAST,Study1,S,61,16,Test,User,-,,Recall,Recall1,1030,,0,-1,-1,0,0,,1
w985086,haapup81ii,Nick_Dissertation_EX1,1,131,2020-04-06T09:45:09-07:00,3.759320974,3,versionC_stim.csv,READVersionC.csv,Read Version C,"Dissertation, read only version C",WASTE,DUMP,Study1,S,49,40,Test,User,-,,Recall,Recall1,1412,,0,-1,-1,0,0,,1
w985086,haapup81ii,Nick_Dissertation_EX1,1,132,2020-04-06T09:45:12-07:00,3.055203915,3,versionC_stim.csv,READVersionC.csv,Read Version C,"Dissertation, read only version C",STENCH,SMELL,Study1,F,42,55,Test,User,-,,Recall,Recall1,2760,SMELL,100,2156,2606,1,1,,1
w985086,haapup81ii,Nick_Dissertation_EX1,1,133,2020-04-06T09:45:13-07:00,1.162827015,3,versionC_stim.csv,READVersionC.csv,Read Version C,"Dissertation, read only version C",CHEESE,WINE,Study1,S,57,61,Test,User,-,,Recall,Recall1,861,,0,-1,-1,0,0,,1
w985086,haapup81ii,Nick_Dissertation_EX1,1,134,2020-04-06T09:45:14-07:00,1.110882998,3,versionC_stim.csv,READVersionC.csv,Read Version C,"Dissertation, read only version C",ROCK,GEOLOGY,Study1,B,19,29,Test,User,-,,Recall,Recall1,784,,0,-1,-1,0,0,,1
w985086,haapup81ii,Nick_Dissertation_EX1,1,135,2020-04-06T09:45:17-07:00,2.25782299,3,versionC_stim.csv,READVersionC.csv,Read Version C,"Dissertation, read only version C",CHILI,HOT,Study1,F,37,68,Test,User,-,,Recall,Recall1,1969,HOT,100,1538,1772,1,1,,1
w985086,haapup81ii,Nick_Dissertation_EX1,1,136,2020-04-06T09:45:19-07:00,2.884958982,3,versionC_stim.csv,READVersionC.csv,Read Version C,"Dissertation, read only version C",WASP,BUG,Study1,F,32,78,Test,User,-,,Recall,Recall1,2532,BUG,100,2148,2426,1,1,,1
w985086,haapup81ii,Nick_Dissertation_EX1,1,137,2020-04-06T09:45:22-07:00,2.545047998,3,versionC_stim.csv,READVersionC.csv,Read Version C,"Dissertation, read only version C",FANTASTIC,GREAT,Study1,F,35,73,Test,User,-,,Recall,Recall1,2242,GREAT,100,1537,2008,1,1,,1
w985086,haapup81ii,Nick_Dissertation_EX1,1,138,2020-04-06T09:45:24-07:00,1.689080954,3,versionC_stim.csv,READVersionC.csv,Read Version C,"Dissertation, read only version C",CHORE,WORK,Study1,F,39,84,Test,User,-,,Recall,Recall1,1388,WORK,100,970,1259,1,1,,1
w985086,haapup81ii,Nick_Dissertation_EX1,1,139,2020-04-06T09:45:26-07:00,2.232012033,3,versionC_stim.csv,READVersionC.csv,Read Version C,"Dissertation, read only version C",LIVER,KIDNEY,Study1,S,53,28,Test,User,-,,Recall,Recall1,1913,KIDNEY,100,986,1711,1,1,,1
w985086,haapup81ii,Nick_Dissertation_EX1,1,140,2020-04-06T09:45:30-07:00,3.877524137,3,versionC_stim.csv,READVersionC.csv,Read Version C,"Dissertation, read only version C",AMOUNT,NUMBER,Study1,S,47,48,Test,User,-,,Recall,Recall1,1548,,0,-1,-1,0,0,,1
w985086,haapup81ii,Nick_Dissertation_EX1,1,141,2020-04-06T09:45:33-07:00,3.442965984,3,versionC_stim.csv,READVersionC.csv,Read Version C,"Dissertation, read only version C",BEE,HONEY,Study1,S,63,74,Test,User,-,,Recall,Recall1,3144,WASPS,0,1939,2954,0,0,,1
w985086,haapup81ii,Nick_Dissertation_EX1,1,142,2020-04-06T09:45:40-07:00,7.010414839,3,versionC_stim.csv,READVersionC.csv,Read Version C,"Dissertation, read only version C",DESIGN,ARCHITECTURE,Study1,S,51,17,Test,User,-,,Recall,Recall1,6698,ARTITECTURE,86.95652174,2981,5927,0,1,,1
w985086,haapup81ii,Nick_Dissertation_EX1,1,143,2020-04-06T09:45:44-07:00,4.205703974,3,versionC_stim.csv,READVersionC.csv,Read Version C,"Dissertation, read only version C",GROWTH,HEIGHT,Study1,F,30,36,Test,User,-,,Recall,Recall1,3892,,0,-1,-1,0,0,,1
w985086,haapup81ii,Nick_Dissertation_EX1,1,144,2020-04-06T09:45:49-07:00,4.31183219,3,versionC_stim.csv,READVersionC.csv,Read Version C,"Dissertation, read only version C",ACCIDENT,STRONG,Study1,U,80,38,Test,User,-,,Recall,Recall1,4004,HUGE,20,2918,3194,0,0,,1
w985086,haapup81ii,Nick_Dissertation_EX1,1,145,2020-04-06T09:45:50-07:00,1.258345842,3,versionC_stim.csv,READVersionC.csv,Read Version C,"Dissertation, read only version C",WOULD,CASH,Study1,U,83,51,Test,User,-,,Recall,Recall1,950,,0,-1,-1,0,0,,1
w985086,haapup81ii,Nick_Dissertation_EX1,1,146,2020-04-06T09:45:51-07:00,1.199879169,3,versionC_stim.csv,READVersionC.csv,Read Version C,"Dissertation, read only version C",SEIZE,TAKE,Study1,F,29,76,Test,User,-,,Recall,Recall1,874,,0,-1,-1,0,0,,1
w985086,haapup81ii,Nick_Dissertation_EX1,1,147,2020-04-06T09:45:53-07:00,2.242548943,3,versionC_stim.csv,READVersionC.csv,Read Version C,"Dissertation, read only version C",SICK,HIDE,Study1,U,84,69,Test,User,-,,Recall,Recall1,1934,HIDE,100,1271,1565,1,1,,1
w985086,haapup81ii,Nick_Dissertation_EX1,1,148,2020-04-06T09:45:56-07:00,2.244170904,3,versionC_stim.csv,READVersionC.csv,Read Version C,"Dissertation, read only version C",VASE,KING,Study1,U,85,80,Test,User,-,,Recall,Recall1,1889,BREAK,22.22222222,1338,1678,0,0,,1
w985086,haapup81ii,Nick_Dissertation_EX1,1,149,2020-04-06T09:45:58-07:00,2.258445024,3,versionC_stim.csv,READVersionC.csv,Read Version C,"Dissertation, read only version C",COLD,BITTER,Study1,B,12,81,Test,User,-,,Recall,Recall1,1909,BITTER,100,1251,1820,1,1,,1
w985086,haapup81ii,Nick_Dissertation_EX1,1,150,2020-04-06T09:46:01-07:00,2.974816084,3,versionC_stim.csv,READVersionC.csv,Read Version C,"Dissertation, read only version C",FLOOR,DISCOVER,Study1,U,71,32,Test,User,-,,Recall,Recall1,2685,,0,-1,-1,0,0,,1
w985086,haapup81ii,Nick_Dissertation_EX1,1,151,2020-04-06T09:46:06-07:00,4.59958005,3,versionC_stim.csv,READVersionC.csv,Read Version C,"Dissertation, read only version C",LION,ART,Study1,U,79,65,Test,User,-,,Recall,Recall1,1860,,0,-1,-1,0,0,,1
w985086,haapup81ii,Nick_Dissertation_EX1,1,152,2020-04-06T09:46:08-07:00,2.528833866,3,versionC_stim.csv,READVersionC.csv,Read Version C,"Dissertation, read only version C",CAR,HAPPY,Study1,U,77,43,Test,User,-,,Recall,Recall1,2192,,0,-1,-1,0,0,,1
w985086,haapup81ii,Nick_Dissertation_EX1,1,153,2020-04-06T09:46:09-07:00,1.086246014,3,versionC_stim.csv,READVersionC.csv,Read Version C,"Dissertation, read only version C",DROWSY,SLEEP,Study1,F,41,46,Test,User,-,,Recall,Recall1,792,,0,-1,-1,0,0,,1
w985086,haapup81ii,Nick_Dissertation_EX1,1,154,2020-04-06T09:46:11-07:00,1.581628084,3,versionC_stim.csv,READVersionC.csv,Read Version C,"Dissertation, read only version C",DOG,PAW,Study1,B,15,62,Test,User,-,,Recall,Recall1,1246,,0,-1,-1,0,0,,1
w985086,haapup81ii,Nick_Dissertation_EX1,1,155,2020-04-06T09:46:12-07:00,1.142585993,3,versionC_stim.csv,READVersionC.csv,Read Version C,"Dissertation, read only version C",WATER,BRIDGE,Study1,B,18,45,Test,User,-,,Recall,Recall1,835,,0,-1,-1,0,0,,1
w985086,haapup81ii,Nick_Dissertation_EX1,1,156,2020-04-06T09:46:13-07:00,1.164258003,3,versionC_stim.csv,READVersionC.csv,Read Version C,"Dissertation, read only version C",ATTIRE,CLOTHES,Study1,F,43,25,Test,User,-,,Recall,Recall1,788,,0,-1,-1,0,0,,1
w985086,haapup81ii,Nick_Dissertation_EX1,1,157,2020-04-06T09:46:14-07:00,1.21508503,3,versionC_stim.csv,READVersionC.csv,Read Version C,"Dissertation, read only version C",SIGHT,DEBATE,Study1,U,73,7,Test,User,-,,Recall,Recall1,915,,0,-1,-1,0,0,,1
w985086,haapup81ii,Nick_Dissertation_EX1,1,158,2020-04-06T09:46:16-07:00,1.382993937,3,versionC_stim.csv,READVersionC.csv,Read Version C,"Dissertation, read only version C",ROUND,CIRCLE,Study1,S,65,67,Test,User,-,,Recall,Recall1,1069,,0,-1,-1,0,0,,1
w985086,haapup81ii,Nick_Dissertation_EX1,1,159,2020-04-06T09:46:17-07:00,1.409600019,3,versionC_stim.csv,READVersionC.csv,Read Version C,"Dissertation, read only version C",WORD,SENTENCE,Study1,F,31,64,Test,User,-,,Recall,Recall1,1073,,0,-1,-1,0,0,,1
w985086,haapup81ii,Nick_Dissertation_EX1,1,160,2020-04-06T09:46:20-07:00,2.802253962,3,versionC_stim.csv,READVersionC.csv,Read Version C,"Dissertation, read only version C",CHILD,BABY,Study1,S,64,41,Test,User,-,,Recall,Recall1,2465,BABY,100,1544,2172,1,1,,1
w985086,haapup81ii,Nick_Dissertation_EX1,1,161,2020-04-06T09:46:21-07:00,1.639452934,3,versionC_stim.csv,READVersionC.csv,Read Version C,"Dissertation, read only version C",ATTORNEY,LAW,Study1,F,34,77,Test,User,-,,Recall,Recall1,1346,LAW,100,1036,1215,1,1,,1
w985086,haapup81ii,Nick_Dissertation_EX1,1,162,2020-04-06T09:46:23-07:00,1.164551973,3,versionC_stim.csv,READVersionC.csv,Read Version C,"Dissertation, read only version C",RIDDLE,SUGAR,Study1,U,81,79,Test,User,-,,Recall,Recall1,867,,0,-1,-1,0,0,,1
w985086,haapup81ii,Nick_Dissertation_EX1,1,163,2020-04-06T09:46:25-07:00,1.967852116,3,versionC_stim.csv,READVersionC.csv,Read Version C,"Dissertation, read only version C",SIP,DRINK,Study1,F,27,83,Test,User,-,,Recall,Recall1,1682,,0,-1,-1,0,0,,1
w985086,haapup81ii,Nick_Dissertation_EX1,1,164,2020-04-06T09:46:26-07:00,1.596343994,3,versionC_stim.csv,READVersionC.csv,Read Version C,"Dissertation, read only version C",STOMACH,DIGESTION,Study1,B,7,22,Test,User,-,,Recall,Recall1,1293,,0,-1,-1,0,0,,1
w985086,haapup81ii,Nick_Dissertation_EX1,1,165,2020-04-06T09:46:28-07:00,1.341727972,3,versionC_stim.csv,READVersionC.csv,Read Version C,"Dissertation, read only version C",WOMAN,LIFT,Study1,U,69,21,Test,User,-,,Recall,Recall1,1050,,0,-1,-1,0,0,,1
w985086,haapup81ii,Nick_Dissertation_EX1,1,166,2020-04-06T09:46:30-07:00,2.052965879,3,versionC_stim.csv,READVersionC.csv,Read Version C,"Dissertation, read only version C",WIND,BLOW,Study1,S,55,72,Test,User,-,,Recall,Recall1,1754,BLOW,100,974,1398,1,1,,1
w985086,haapup81ii,Nick_Dissertation_EX1,1,167,2020-04-06T09:46:32-07:00,2.090528011,3,versionC_stim.csv,READVersionC.csv,Read Version C,"Dissertation, read only version C",FAMINE,HUNGER,Study1,F,40,86,Test,User,-,,Recall,Recall1,1783,WAR,22.22222222,1494,1690,0,0,,1
w985086,haapup81ii,Nick_Dissertation_EX1,1,168,2020-04-06T09:46:34-07:00,2.598806143,3,versionC_stim.csv,READVersionC.csv,Read Version C,"Dissertation, read only version C",DEFINITION,MEANING,Study1,S,62,39,Test,User,-,,Recall,Recall1,2312,MEANING,100,1518,2065,1,1,,1
w985086,haapup81ii,Nick_Dissertation_EX1,1,169,2020-04-06T09:46:37-07:00,2.728692055,3,versionC_stim.csv,READVersionC.csv,Read Version C,"Dissertation, read only version C",RACKET,BALL,Study1,F,38,8,Test,User,-,,Recall,Recall1,2394,BALL,100,1957,2275,1,1,,1
w985086,haapup81ii,Nick_Dissertation_EX1,1,170,2020-04-06T09:46:39-07:00,1.809727907,3,versionC_stim.csv,READVersionC.csv,Read Version C,"Dissertation, read only version C",OUT,WAY,Study1,B,16,27,Test,User,-,,Recall,Recall1,1475,WAY,100,1117,1292,1,1,,1
w985086,haapup81ii,Nick_Dissertation_EX1,1,171,2020-04-06T09:46:41-07:00,2.209997892,3,versionC_stim.csv,READVersionC.csv,Read Version C,"Dissertation, read only version C",ASSIGNMENT,DUE,Study1,S,46,30,Test,User,-,,Recall,Recall1,1869,DUE,100,1564,1780,1,1,,1
w985086,haapup81ii,Nick_Dissertation_EX1,1,172,2020-04-06T09:46:44-07:00,2.813673019,3,versionC_stim.csv,READVersionC.csv,Read Version C,"Dissertation, read only version C",PLANT,ROOT,Study1,B,13,75,Test,User,-,,Recall,Recall1,2025,,0,-1,-1,0,0,,1
w985086,haapup81ii,Nick_Dissertation_EX1,1,173,2020-04-06T09:46:46-07:00,1.769793034,3,versionC_stim.csv,READVersionC.csv,Read Version C,"Dissertation, read only version C",MONEY,WAGE,Study1,B,8,34,Test,User,-,,Recall,Recall1,1463,,0,-1,-1,0,0,,1
w985086,haapup81ii,Nick_Dissertation_EX1,1,174,2020-04-06T09:46:47-07:00,1.224954128,3,versionC_stim.csv,READVersionC.csv,Read Version C,"Dissertation, read only version C",END,BEGIN,Study1,S,54,31,Test,User,-,,Recall,Recall1,911,,0,-1,-1,0,0,,1
w985086,haapup81ii,Nick_Dissertation_EX1,1,175,2020-04-06T09:46:59-07:00,11.82443285,3,versionC_stim.csv,READVersionC.csv,Read Version C,"Dissertation, read only version C",,,,,,0,Instruct,-,10,"You will now be presented with a new set of word pairs. Please study each pair. Remember that your memory will be tested! When finished, press Enter to move to the next pair.",Initial_Instruct,Instruct4,11457,,,-1,-1,,,,1
w985086,haapup81ii,Nick_Dissertation_EX1,1,176,2020-04-06T09:47:00-07:00,1.792063951,3,versionC_stim.csv,READVersionC.csv,Read Version C,"Dissertation, read only version C",FISH,SHRIMP,BUFFER3,Buffer,93,94,Study,User,-,,Study/JOL,BUFFER3,1504,,,-1,-1,,,,1
w985086,haapup81ii,Nick_Dissertation_EX1,1,177,2020-04-06T09:47:02-07:00,1.390688181,3,versionC_stim.csv,READVersionC.csv,Read Version C,"Dissertation, read only version C",FROZEN,ICE,BUFFER3,Buffer,94,93,Study,User,-,,Study/JOL,BUFFER3,1076,,,-1,-1,,,,1
w985086,haapup81ii,Nick_Dissertation_EX1,1,178,2020-04-06T09:47:03-07:00,1.359089851,3,versionC_stim.csv,READVersionC.csv,Read Version C,"Dissertation, read only version C",ADVENTURE,CAMP,BUFFER3,Buffer,95,96,Study,User,-,,Study/JOL,BUFFER3,1051,,,-1,-1,,,,1
w985086,haapup81ii,Nick_Dissertation_EX1,1,179,2020-04-06T09:47:04-07:00,1.171024084,3,versionC_stim.csv,READVersionC.csv,Read Version C,"Dissertation, read only version C",STRING,NOODLE,BUFFER3,Buffer,92,92,Study,User,-,,Study/JOL,BUFFER3,877,,,-1,-1,,,,1
w985086,haapup81ii,Nick_Dissertation_EX1,1,180,2020-04-06T09:47:06-07:00,1.295665026,3,versionC_stim.csv,READVersionC.csv,Read Version C,"Dissertation, read only version C",POTATO,CARROT,BUFFER3,Buffer,91,95,Study,User,-,,Study/JOL,BUFFER3,991,,,-1,-1,,,,1
w985086,haapup81ii,Nick_Dissertation_EX1,1,181,2020-04-06T09:47:08-07:00,1.939800024,3,versionC_stim.csv,READVersionC.csv,Read Version C,"Dissertation, read only version C",MYSTERY,DETECTIVE,Study2,B,100,127,Study,User,-,,Study/JOL,Study Phase2,1641,,,-1,-1,,,,1
w985086,haapup81ii,Nick_Dissertation_EX1,1,182,2020-04-06T09:47:09-07:00,1.200649977,3,versionC_stim.csv,READVersionC.csv,Read Version C,"Dissertation, read only version C",STRAWBERRY,FRUIT,Study2,F,124,128,Study,User,-,,Study/JOL,Study Phase2,898,,,-1,-1,,,,1
w985086,haapup81ii,Nick_Dissertation_EX1,1,183,2020-04-06T09:47:10-07:00,1.085419893,3,versionC_stim.csv,READVersionC.csv,Read Version C,"Dissertation, read only version C",CHILDREN,MIRROR,Study2,U,174,120,Study,User,-,,Study/JOL,Study Phase2,767,,,-1,-1,,,,1
w985086,haapup81ii,Nick_Dissertation_EX1,1,184,2020-04-06T09:47:11-07:00,1.449378014,3,versionC_stim.csv,READVersionC.csv,Read Version C,"Dissertation, read only version C",GROUND,EARTH,Study2,S,144,100,Study,User,-,,Study/JOL,Study Phase2,1127,,,-1,-1,,,,1
w985086,haapup81ii,Nick_Dissertation_EX1,1,185,2020-04-06T09:47:13-07:00,1.560369015,3,versionC_stim.csv,READVersionC.csv,Read Version C,"Dissertation, read only version C",CARBON,ELEMENT,Study2,S,141,139,Study,User,-,,Study/JOL,Study Phase2,1272,,,-1,-1,,,,1
w985086,haapup81ii,Nick_Dissertation_EX1,1,186,2020-04-06T09:47:14-07:00,1.23331809,3,versionC_stim.csv,READVersionC.csv,Read Version C,"Dissertation, read only version C",STEAK,GIVE,Study2,U,158,146,Study,User,-,,Study/JOL,Study Phase2,938,,,-1,-1,,,,1
w985086,haapup81ii,Nick_Dissertation_EX1,1,187,2020-04-06T09:47:15-07:00,1.21753788,3,versionC_stim.csv,READVersionC.csv,Read Version C,"Dissertation, read only version C",SEATBELT,SAFETY,Study2,S,147,105,Study,User,-,,Study/JOL,Study Phase2,919,,,-1,-1,,,,1
w985086,haapup81ii,Nick_Dissertation_EX1,1,188,2020-04-06T09:47:17-07:00,1.304165125,3,versionC_stim.csv,READVersionC.csv,Read Version C,"Dissertation, read only version C",COLD,CHILL,Study2,B,114,135,Study,User,-,,Study/JOL,Study Phase2,958,,,-1,-1,,,,1
w985086,haapup81ii,Nick_Dissertation_EX1,1,189,2020-04-06T09:47:18-07:00,1.330644846,3,versionC_stim.csv,READVersionC.csv,Read Version C,"Dissertation, read only version C",BRAWL,FIGHT,Study2,F,135,162,Study,User,-,,Study/JOL,Study Phase2,1015,,,-1,-1,,,,1
w985086,haapup81ii,Nick_Dissertation_EX1,1,190,2020-04-06T09:47:19-07:00,1.329793215,3,versionC_stim.csv,READVersionC.csv,Read Version C,"Dissertation, read only version C",ABLE,CRACKLE,Study2,U,162,136,Study,User,-,,Study/JOL,Study Phase2,965,,,-1,-1,,,,1
w985086,haapup81ii,Nick_Dissertation_EX1,1,191,2020-04-06T09:47:21-07:00,1.619571924,3,versionC_stim.csv,READVersionC.csv,Read Version C,"Dissertation, read only version C",WINDSHIELD,CAR,Study2,F,117,157,Study,User,-,,Study/JOL,Study Phase2,1313,,,-1,-1,,,,1
w985086,haapup81ii,Nick_Dissertation_EX1,1,192,2020-04-06T09:47:22-07:00,1.239142895,3,versionC_stim.csv,READVersionC.csv,Read Version C,"Dissertation, read only version C",GAME,CLUE,Study2,B,97,170,Study,User,-,,Study/JOL,Study Phase2,933,,,-1,-1,,,,1
w985086,haapup81ii,Nick_Dissertation_EX1,1,193,2020-04-06T09:47:24-07:00,1.911056995,3,versionC_stim.csv,READVersionC.csv,Read Version C,"Dissertation, read only version C",TRASH,LITTER,Study2,B,103,110,Study,User,-,,Study/JOL,Study Phase2,1605,,,-1,-1,,,,1
w985086,haapup81ii,Nick_Dissertation_EX1,1,194,2020-04-06T09:47:25-07:00,1.156263113,3,versionC_stim.csv,READVersionC.csv,Read Version C,"Dissertation, read only version C",COMMUNICATION,PHONE,Study2,S,149,134,Study,User,-,,Study/JOL,Study Phase2,850,,,-1,-1,,,,1
w985086,haapup81ii,Nick_Dissertation_EX1,1,195,2020-04-06T09:47:27-07:00,1.256670952,3,versionC_stim.csv,READVersionC.csv,Read Version C,"Dissertation, read only version C",BANKER,MONEY,Study2,F,132,125,Study,User,-,,Study/JOL,Study Phase2,962,,,-1,-1,,,,1
w985086,haapup81ii,Nick_Dissertation_EX1,1,196,2020-04-06T09:47:28-07:00,1.170418978,3,versionC_stim.csv,READVersionC.csv,Read Version C,"Dissertation, read only version C",CHARM,VEHICLE,Study2,U,160,114,Study,User,-,,Study/JOL,Study Phase2,865,,,-1,-1,,,,1
w985086,haapup81ii,Nick_Dissertation_EX1,1,197,2020-04-06T09:47:29-07:00,1.404873133,3,versionC_stim.csv,READVersionC.csv,Read Version C,"Dissertation, read only version C",OUNCE,BOTH,Study2,U,172,97,Study,User,-,,Study/JOL,Study Phase2,1108,,,-1,-1,,,,1
w985086,haapup81ii,Nick_Dissertation_EX1,1,198,2020-04-06T09:47:30-07:00,0.993799925,3,versionC_stim.csv,READVersionC.csv,Read Version C,"Dissertation, read only version C",SMELL,INCENSE,Study2,B,110,143,Study,User,-,,Study/JOL,Study Phase2,675,,,-1,-1,,,,1
w985086,haapup81ii,Nick_Dissertation_EX1,1,199,2020-04-06T09:47:31-07:00,0.932697058,3,versionC_stim.csv,READVersionC.csv,Read Version C,"Dissertation, read only version C",SHAKE,Shell,Study2,U,163,164,Study,User,-,,Study/JOL,Study Phase2,616,,,-1,-1,,,,1
w985086,haapup81ii,Nick_Dissertation_EX1,1,200,2020-04-06T09:47:32-07:00,0.877125978,3,versionC_stim.csv,READVersionC.csv,Read Version C,"Dissertation, read only version C",LIE,TRUTH,Study2,S,148,117,Study,User,-,,Study/JOL,Study Phase2,581,,,-1,-1,,,,1
w985086,haapup81ii,Nick_Dissertation_EX1,1,201,2020-04-06T09:47:33-07:00,0.916353941,3,versionC_stim.csv,READVersionC.csv,Read Version C,"Dissertation, read only version C",BANG,FUZZY,Study2,U,168,99,Study,User,-,,Study/JOL,Study Phase2,628,,,-1,-1,,,,1
w985086,haapup81ii,Nick_Dissertation_EX1,1,202,2020-04-06T09:47:34-07:00,0.759330988,3,versionC_stim.csv,READVersionC.csv,Read Version C,"Dissertation, read only version C",RED,CHERRY,Study2,B,104,141,Study,User,-,,Study/JOL,Study Phase2,464,,,-1,-1,,,,1
w985086,haapup81ii,Nick_Dissertation_EX1,1,203,2020-04-06T09:47:35-07:00,1.299362898,3,versionC_stim.csv,READVersionC.csv,Read Version C,"Dissertation, read only version C",CLEAR,MOAT,Study2,U,169,140,Study,User,-,,Study/JOL,Study Phase2,1003,,,-1,-1,,,,1
w985086,haapup81ii,Nick_Dissertation_EX1,1,204,2020-04-06T09:47:36-07:00,1.264968157,3,versionC_stim.csv,READVersionC.csv,Read Version C,"Dissertation, read only version C",NOISE,LOUD,Study2,S,152,112,Study,User,-,,Study/JOL,Study Phase2,971,,,-1,-1,,,,1
w985086,haapup81ii,Nick_Dissertation_EX1,1,205,2020-04-06T09:47:37-07:00,1.14851594,3,versionC_stim.csv,READVersionC.csv,Read Version C,"Dissertation, read only version C",LEAGUE,BASEBALL,Study2,F,131,130,Study,User,-,,Study/JOL,Study Phase2,854,,,-1,-1,,,,1
w985086,haapup81ii,Nick_Dissertation_EX1,1,206,2020-04-06T09:47:39-07:00,1.361222982,3,versionC_stim.csv,READVersionC.csv,Read Version C,"Dissertation, read only version C",TEMPER,TANTRUM,Study2,S,154,168,Study,User,-,,Study/JOL,Study Phase2,535,,,-1,-1,,,,1
w985086,haapup81ii,Nick_Dissertation_EX1,1,207,2020-04-06T09:47:40-07:00,1.107631922,3,versionC_stim.csv,READVersionC.csv,Read Version C,"Dissertation, read only version C",CUT,CHOP,Study2,B,107,101,Study,User,-,,Study/JOL,Study Phase2,815,,,-1,-1,,,,1
w985086,haapup81ii,Nick_Dissertation_EX1,1,208,2020-04-06T09:47:41-07:00,1.31014514,3,versionC_stim.csv,READVersionC.csv,Read Version C,"Dissertation, read only version C",FIGHT,FEUD,Study2,B,113,142,Study,User,-,,Study/JOL,Study Phase2,989,,,-1,-1,,,,1
w985086,haapup81ii,Nick_Dissertation_EX1,1,209,2020-04-06T09:47:42-07:00,1.025686979,3,versionC_stim.csv,READVersionC.csv,Read Version C,"Dissertation, read only version C",SIGN,LOAN,Study2,U,171,167,Study,User,-,,Study/JOL,Study Phase2,719,,,-1,-1,,,,1
w985086,haapup81ii,Nick_Dissertation_EX1,1,210,2020-04-06T09:47:44-07:00,1.738466978,3,versionC_stim.csv,READVersionC.csv,Read Version C,"Dissertation, read only version C",FICTION,LISTEN,Study2,U,164,144,Study,User,-,,Study/JOL,Study Phase2,1424,,,-1,-1,,,,1
w985086,haapup81ii,Nick_Dissertation_EX1,1,211,2020-04-06T09:47:46-07:00,1.87204504,3,versionC_stim.csv,READVersionC.csv,Read Version C,"Dissertation, read only version C",OBTAIN,MEAT,Study2,U,161,111,Study,User,-,,Study/JOL,Study Phase2,1575,,,-1,-1,,,,1
w985086,haapup81ii,Nick_Dissertation_EX1,1,212,2020-04-06T09:47:47-07:00,1.262028933,3,versionC_stim.csv,READVersionC.csv,Read Version C,"Dissertation, read only version C",VILLAIN,BAD,Study2,F,118,176,Study,User,-,,Study/JOL,Study Phase2,972,,,-1,-1,,,,1
w985086,haapup81ii,Nick_Dissertation_EX1,1,213,2020-04-06T09:47:48-07:00,1.10926199,3,versionC_stim.csv,READVersionC.csv,Read Version C,"Dissertation, read only version C",PLANT,CACTUS,Study2,B,98,102,Study,User,-,,Study/JOL,Study Phase2,798,,,-1,-1,,,,1
w985086,haapup81ii,Nick_Dissertation_EX1,1,214,2020-04-06T09:47:50-07:00,1.897312164,3,versionC_stim.csv,READVersionC.csv,Read Version C,"Dissertation, read only version C",END,ADJOURN,Study2,B,101,118,Study,User,-,,Study/JOL,Study Phase2,1566,,,-1,-1,,,,1
w985086,haapup81ii,Nick_Dissertation_EX1,1,215,2020-04-06T09:47:52-07:00,2.005945921,3,versionC_stim.csv,READVersionC.csv,Read Version C,"Dissertation, read only version C",CAR,DRIVER,Study2,B,106,160,Study,User,-,,Study/JOL,Study Phase2,1704,,,-1,-1,,,,1
w985086,haapup81ii,Nick_Dissertation_EX1,1,216,2020-04-06T09:47:54-07:00,1.635529995,3,versionC_stim.csv,READVersionC.csv,Read Version C,"Dissertation, read only version C",DONKEY,MULE,Study2,B,108,155,Study,User,-,,Study/JOL,Study Phase2,1334,,,-1,-1,,,,1
w985086,haapup81ii,Nick_Dissertation_EX1,1,217,2020-04-06T09:47:55-07:00,1.311455011,3,versionC_stim.csv,READVersionC.csv,Read Version C,"Dissertation, read only version C",EAT,DINE,Study2,B,111,104,Study,User,-,,Study/JOL,Study Phase2,1020,,,-1,-1,,,,1
w985086,haapup81ii,Nick_Dissertation_EX1,1,218,2020-04-06T09:47:56-07:00,1.165878057,3,versionC_stim.csv,READVersionC.csv,Read Version C,"Dissertation, read only version C",CLOTHES,CAKE,Study2,U,166,153,Study,User,-,,Study/JOL,Study Phase2,868,,,-1,-1,,,,1
w985086,haapup81ii,Nick_Dissertation_EX1,1,219,2020-04-06T09:47:57-07:00,1.251506805,3,versionC_stim.csv,READVersionC.csv,Read Version C,"Dissertation, read only version C",CLOTH,STRETCH,Study2,U,157,108,Study,User,-,,Study/JOL,Study Phase2,958,,,-1,-1,,,,1
w985086,haapup81ii,Nick_Dissertation_EX1,1,220,2020-04-06T09:47:59-07:00,1.218429089,3,versionC_stim.csv,READVersionC.csv,Read Version C,"Dissertation, read only version C",SHAVE,RAZOR,Study2,S,136,123,Study,User,-,,Study/JOL,Study Phase2,900,,,-1,-1,,,,1
w985086,haapup81ii,Nick_Dissertation_EX1,1,221,2020-04-06T09:48:00-07:00,1.314301968,3,versionC_stim.csv,READVersionC.csv,Read Version C,"Dissertation, read only version C",THIMBLE,THREAD,Study2,F,121,115,Study,User,-,,Study/JOL,Study Phase2,1005,,,-1,-1,,,,1
w985086,haapup81ii,Nick_Dissertation_EX1,1,222,2020-04-06T09:48:01-07:00,1.243595123,3,versionC_stim.csv,READVersionC.csv,Read Version C,"Dissertation, read only version C",SARDINE,FISH,Study2,F,130,137,Study,User,-,,Study/JOL,Study Phase2,927,,,-1,-1,,,,1
w985086,haapup81ii,Nick_Dissertation_EX1,1,223,2020-04-06T09:48:02-07:00,1.204663992,3,versionC_stim.csv,READVersionC.csv,Read Version C,"Dissertation, read only version C",DRINK,WATER,Study2,S,143,166,Study,User,-,,Study/JOL,Study Phase2,911,,,-1,-1,,,,1
w985086,haapup81ii,Nick_Dissertation_EX1,1,224,2020-04-06T09:48:04-07:00,1.418148041,3,versionC_stim.csv,READVersionC.csv,Read Version C,"Dissertation, read only version C",HATE,NAME,Study2,U,167,151,Study,User,-,,Study/JOL,Study Phase2,1124,,,-1,-1,,,,1
w985086,haapup81ii,Nick_Dissertation_EX1,1,225,2020-04-06T09:48:07-07:00,2.789036989,3,versionC_stim.csv,READVersionC.csv,Read Version C,"Dissertation, read only version C",MAROON,JUSTICE,Study2,U,156,173,Study,User,-,,Study/JOL,Study Phase2,2485,,,-1,-1,,,,1
w985086,haapup81ii,Nick_Dissertation_EX1,1,226,2020-04-06T09:48:10-07:00,3.110786915,3,versionC_stim.csv,READVersionC.csv,Read Version C,"Dissertation, read only version C",FAVORITE,BEST,Study2,F,125,145,Study,User,-,,Study/JOL,Study Phase2,2819,,,-1,-1,,,,1
w985086,haapup81ii,Nick_Dissertation_EX1,1,227,2020-04-06T09:48:11-07:00,1.532723904,3,versionC_stim.csv,READVersionC.csv,Read Version C,"Dissertation, read only version C",COFFIN,DEAD,Study2,F,128,103,Study,User,-,,Study/JOL,Study Phase2,1233,,,-1,-1,,,,1
w985086,haapup81ii,Nick_Dissertation_EX1,1,228,2020-04-06T09:48:15-07:00,3.727087021,3,versionC_stim.csv,READVersionC.csv,Read Version C,"Dissertation, read only version C",WET,DRY,Study2,S,146,163,Study,User,-,,Study/JOL,Study Phase2,1374,,,-1,-1,,,,1
w985086,haapup81ii,Nick_Dissertation_EX1,1,229,2020-04-06T09:48:16-07:00,1.31035614,3,versionC_stim.csv,READVersionC.csv,Read Version C,"Dissertation, read only version C",LOVE,AFFECTION,Study2,B,115,172,Study,User,-,,Study/JOL,Study Phase2,972,,,-1,-1,,,,1
w985086,haapup81ii,Nick_Dissertation_EX1,1,230,2020-04-06T09:48:17-07:00,1.186509848,3,versionC_stim.csv,READVersionC.csv,Read Version C,"Dissertation, read only version C",BALLOON,POP,Study2,F,123,147,Study,User,-,,Study/JOL,Study Phase2,891,,,-1,-1,,,,1
w985086,haapup81ii,Nick_Dissertation_EX1,1,231,2020-04-06T09:48:18-07:00,1.061980009,3,versionC_stim.csv,READVersionC.csv,Read Version C,"Dissertation, read only version C",AWAY,GONE,Study2,S,142,149,Study,User,-,,Study/JOL,Study Phase2,745,,,-1,-1,,,,1
w985086,haapup81ii,Nick_Dissertation_EX1,1,232,2020-04-06T09:48:19-07:00,0.923237085,3,versionC_stim.csv,READVersionC.csv,Read Version C,"Dissertation, read only version C",LONG,EXTENSION,Study2,B,96,152,Study,User,-,,Study/JOL,Study Phase2,588,,,-1,-1,,,,1
w985086,haapup81ii,Nick_Dissertation_EX1,1,233,2020-04-06T09:48:20-07:00,1.08406496,3,versionC_stim.csv,READVersionC.csv,Read Version C,"Dissertation, read only version C",REVENGE,EVEN,Study2,F,122,107,Study,User,-,,Study/JOL,Study Phase2,794,,,-1,-1,,,,1
w985086,haapup81ii,Nick_Dissertation_EX1,1,234,2020-04-06T09:48:22-07:00,1.324073076,3,versionC_stim.csv,READVersionC.csv,Read Version C,"Dissertation, read only version C",BREAKABLE,GLASS,Study2,F,127,175,Study,User,-,,Study/JOL,Study Phase2,1034,,,-1,-1,,,,1
w985086,haapup81ii,Nick_Dissertation_EX1,1,235,2020-04-06T09:48:25-07:00,2.978524923,3,versionC_stim.csv,READVersionC.csv,Read Version C,"Dissertation, read only version C",PANTHER,CAT,Study2,F,126,122,Study,User,-,,Study/JOL,Study Phase2,2678,,,-1,-1,,,,1
w985086,haapup81ii,Nick_Dissertation_EX1,1,236,2020-04-06T09:48:26-07:00,1.135119915,3,versionC_stim.csv,READVersionC.csv,Read Version C,"Dissertation, read only version C",HAVE,OWN,Study2,S,153,156,Study,User,-,,Study/JOL,Study Phase2,839,,,-1,-1,,,,1
w985086,haapup81ii,Nick_Dissertation_EX1,1,237,2020-04-06T09:48:27-07:00,0.889042139,3,versionC_stim.csv,READVersionC.csv,Read Version C,"Dissertation, read only version C",REEL,ROD,Study2,S,150,171,Study,User,-,,Study/JOL,Study Phase2,584,,,-1,-1,,,,1
w985086,haapup81ii,Nick_Dissertation_EX1,1,238,2020-04-06T09:48:30-07:00,3.48277092,3,versionC_stim.csv,READVersionC.csv,Read Version C,"Dissertation, read only version C",PENGUIN,BIRD,Study2,F,119,174,Study,User,-,,Study/JOL,Study Phase2,1067,,,-1,-1,,,,1
w985086,haapup81ii,Nick_Dissertation_EX1,1,239,2020-04-06T09:48:31-07:00,0.747468948,3,versionC_stim.csv,READVersionC.csv,Read Version C,"Dissertation, read only version C",SCAR,MAIN,Study2,U,175,154,Study,User,-,,Study/JOL,Study Phase2,453,,,-1,-1,,,,1
w985086,haapup81ii,Nick_Dissertation_EX1,1,240,2020-04-06T09:48:32-07:00,1.192155123,3,versionC_stim.csv,READVersionC.csv,Read Version C,"Dissertation, read only version C",EQUAL,RIGHTS,Study2,S,137,121,Study,User,-,,Study/JOL,Study Phase2,899,,,-1,-1,,,,1
w985086,haapup81ii,Nick_Dissertation_EX1,1,241,2020-04-06T09:48:33-07:00,0.922683954,3,versionC_stim.csv,READVersionC.csv,Read Version C,"Dissertation, read only version C",HEAD,SCALP,Study2,B,105,124,Study,User,-,,Study/JOL,Study Phase2,622,,,-1,-1,,,,1
w985086,haapup81ii,Nick_Dissertation_EX1,1,242,2020-04-06T09:48:34-07:00,0.852831125,3,versionC_stim.csv,READVersionC.csv,Read Version C,"Dissertation, read only version C",SCISSORS,SHEARS,Study2,B,112,148,Study,User,-,,Study/JOL,Study Phase2,560,,,-1,-1,,,,1
w985086,haapup81ii,Nick_Dissertation_EX1,1,243,2020-04-06T09:48:36-07:00,1.821391821,3,versionC_stim.csv,READVersionC.csv,Read Version C,"Dissertation, read only version C",TRUTHFUL,HONEST,Study2,F,133,161,Study,User,-,,Study/JOL,Study Phase2,1492,,,-1,-1,,,,1
w985086,haapup81ii,Nick_Dissertation_EX1,1,244,2020-04-06T09:48:37-07:00,0.770863056,3,versionC_stim.csv,READVersionC.csv,Read Version C,"Dissertation, read only version C",DOG,FURRY,Study2,B,102,113,Study,User,-,,Study/JOL,Study Phase2,452,,,-1,-1,,,,1
w985086,haapup81ii,Nick_Dissertation_EX1,1,245,2020-04-06T09:48:41-07:00,4.484857082,3,versionC_stim.csv,READVersionC.csv,Read Version C,"Dissertation, read only version C",TAN,SUN,Study2,S,155,126,Study,User,-,,Study/JOL,Study Phase2,4126,,,-1,-1,,,,1
w985086,haapup81ii,Nick_Dissertation_EX1,1,246,2020-04-06T09:48:42-07:00,0.744823933,3,versionC_stim.csv,READVersionC.csv,Read Version C,"Dissertation, read only version C",ACTRESS,STAR,Study2,F,120,133,Study,User,-,,Study/JOL,Study Phase2,443,,,-1,-1,,,,1
w985086,haapup81ii,Nick_Dissertation_EX1,1,247,2020-04-06T09:48:44-07:00,1.805144072,3,versionC_stim.csv,READVersionC.csv,Read Version C,"Dissertation, read only version C",AIRCRAFT,PLANE,Study2,F,129,138,Study,User,-,,Study/JOL,Study Phase2,1327,,,-1,-1,,,,1
w985086,haapup81ii,Nick_Dissertation_EX1,1,248,2020-04-06T09:48:44-07:00,0.802875996,3,versionC_stim.csv,READVersionC.csv,Read Version C,"Dissertation, read only version C",JOKE,KEYS,Study2,U,165,132,Study,User,-,,Study/JOL,Study Phase2,485,,,-1,-1,,,,1
w985086,haapup81ii,Nick_Dissertation_EX1,1,249,2020-04-06T09:48:46-07:00,1.600879908,3,versionC_stim.csv,READVersionC.csv,Read Version C,"Dissertation, read only version C",TOIL,LEASE,Study2,U,170,129,Study,User,-,,Study/JOL,Study Phase2,1297,,,-1,-1,,,,1
w985086,haapup81ii,Nick_Dissertation_EX1,1,250,2020-04-06T09:48:47-07:00,1.461321115,3,versionC_stim.csv,READVersionC.csv,Read Version C,"Dissertation, read only version C",FLIP,TURN,Study2,F,116,119,Study,User,-,,Study/JOL,Study Phase2,902,,,-1,-1,,,,1
w985086,haapup81ii,Nick_Dissertation_EX1,1,251,2020-04-06T09:48:48-07:00,0.946240902,3,versionC_stim.csv,READVersionC.csv,Read Version C,"Dissertation, read only version C",ELECTION,MAZE,Study2,U,159,106,Study,User,-,,Study/JOL,Study Phase2,651,,,-1,-1,,,,1
w985086,haapup81ii,Nick_Dissertation_EX1,1,252,2020-04-06T09:48:49-07:00,0.762382984,3,versionC_stim.csv,READVersionC.csv,Read Version C,"Dissertation, read only version C",TICK,FLEA,Study2,S,151,158,Study,User,-,,Study/JOL,Study Phase2,446,,,-1,-1,,,,1
w985086,haapup81ii,Nick_Dissertation_EX1,1,253,2020-04-06T09:48:50-07:00,1.02761507,3,versionC_stim.csv,READVersionC.csv,Read Version C,"Dissertation, read only version C",BRACELET,WRIST,Study2,S,140,165,Study,User,-,,Study/JOL,Study Phase2,713,,,-1,-1,,,,1
w985086,haapup81ii,Nick_Dissertation_EX1,1,254,2020-04-06T09:48:52-07:00,1.515742064,3,versionC_stim.csv,READVersionC.csv,Read Version C,"Dissertation, read only version C",Morning,TEMPERATURE,Study2,U,173,116,Study,User,-,,Study/JOL,Study Phase2,1198,,,-1,-1,,,,1
w985086,haapup81ii,Nick_Dissertation_EX1,1,255,2020-04-06T09:48:53-07:00,1.015325785,3,versionC_stim.csv,READVersionC.csv,Read Version C,"Dissertation, read only version C",TIE,SHOELACE,Study2,B,99,131,Study,User,-,,Study/JOL,Study Phase2,697,,,-1,-1,,,,1
w985086,haapup81ii,Nick_Dissertation_EX1,1,256,2020-04-06T09:49:00-07:00,7.373992205,3,versionC_stim.csv,READVersionC.csv,Read Version C,"Dissertation, read only version C",PAPER,DOCUMENT,Study2,B,109,109,Study,User,-,,Study/JOL,Study Phase2,7077,,,-1,-1,,,,1
w985086,haapup81ii,Nick_Dissertation_EX1,1,257,2020-04-06T09:49:01-07:00,0.655297995,3,versionC_stim.csv,READVersionC.csv,Read Version C,"Dissertation, read only version C",JAR,MASON,Study2,S,138,98,Study,User,-,,Study/JOL,Study Phase2,359,,,-1,-1,,,,1
w985086,haapup81ii,Nick_Dissertation_EX1,1,258,2020-04-06T09:49:03-07:00,2.411685944,3,versionC_stim.csv,READVersionC.csv,Read Version C,"Dissertation, read only version C",WAX,CANDLE,Study2,S,139,169,Study,User,-,,Study/JOL,Study Phase2,2110,,,-1,-1,,,,1
w985086,haapup81ii,Nick_Dissertation_EX1,1,259,2020-04-06T09:49:04-07:00,0.724120855,3,versionC_stim.csv,READVersionC.csv,Read Version C,"Dissertation, read only version C",NAP,SLEEP,Study2,F,134,150,Study,User,-,,Study/JOL,Study Phase2,362,,,-1,-1,,,,1
w985086,haapup81ii,Nick_Dissertation_EX1,1,260,2020-04-06T09:49:05-07:00,0.829367161,3,versionC_stim.csv,READVersionC.csv,Read Version C,"Dissertation, read only version C",LONELY,ALONE,Study2,S,145,159,Study,User,-,,Study/JOL,Study Phase2,505,,,-1,-1,,,,1
w985086,haapup81ii,Nick_Dissertation_EX1,1,261,2020-04-06T09:49:05-07:00,0.743185997,3,versionC_stim.csv,READVersionC.csv,Read Version C,"Dissertation, read only version C",YEAR,MONTH,BUFFER4,Buffer,177,178,Study,User,-,,Study/JOL,BUFFER4,410,,,-1,-1,,,,1
w985086,haapup81ii,Nick_Dissertation_EX1,1,262,2020-04-06T09:49:06-07:00,0.747964859,3,versionC_stim.csv,READVersionC.csv,Read Version C,"Dissertation, read only version C",SPOOKY,OCTOBER,BUFFER4,Buffer,180,181,Study,User,-,,Study/JOL,BUFFER4,411,,,-1,-1,,,,1
w985086,haapup81ii,Nick_Dissertation_EX1,1,263,2020-04-06T09:49:07-07:00,1.053059101,3,versionC_stim.csv,READVersionC.csv,Read Version C,"Dissertation, read only version C",WEAKS,DAYS,BUFFER4,Buffer,176,179,Study,User,-,,Study/JOL,BUFFER4,728,,,-1,-1,,,,1
w985086,haapup81ii,Nick_Dissertation_EX1,1,264,2020-04-06T09:49:08-07:00,0.743277073,3,versionC_stim.csv,READVersionC.csv,Read Version C,"Dissertation, read only version C",SHED,TOOL,BUFFER4,Buffer,178,177,Study,User,-,,Study/JOL,BUFFER4,412,,,-1,-1,,,,1
w985086,haapup81ii,Nick_Dissertation_EX1,1,265,2020-04-06T09:49:09-07:00,0.674403906,3,versionC_stim.csv,READVersionC.csv,Read Version C,"Dissertation, read only version C",MARCH,SPRING,BUFFER4,Buffer,179,180,Study,User,-,,Study/JOL,BUFFER4,369,,,-1,-1,,,,1
w985086,haapup81ii,Nick_Dissertation_EX1,1,266,2020-04-06T09:49:11-07:00,1.966187954,3,versionC_stim.csv,READVersionC.csv,Read Version C,"Dissertation, read only version C",,,,,,0,Instruct,User,-,You have completed this section. Please press Enter.,Filler_Instruction,Instruct5,1654,,,-1,-1,,,,1
w985086,haapup81ii,Nick_Dissertation_EX1,1,267,2020-04-06T09:51:11-07:00,120.350914,3,versionC_stim.csv,READVersionC.csv,Read Version C,"Dissertation, read only version C",,,,,,0,FreeRecall,120,120,Please list the 50 US states in reverse alphabetical order (z - a). The task will automatically advance to the next screen after two minutes.,,Filler2,120002,WYOMING WEST VIRGINA WASHINTON UTAH SOUTH DAKOTA SOUTH CAROLINA RHODE ISLAND ,0,20627,105714,0,0,,1
w985086,haapup81ii,Nick_Dissertation_EX1,1,268,2020-04-06T09:51:23-07:00,11.89858603,3,versionC_stim.csv,READVersionC.csv,Read Version C,"Dissertation, read only version C",,,,,,0,Instruct,-,10,"You will now be presented with the first word from each of the previously studied item pairs. Please type the missing word. If you do not know the word, you may guess or press Enter to skip forward to the next pair.",,Instruct6,11552,,,-1,-1,,,,1
w985086,haapup81ii,Nick_Dissertation_EX1,1,269,2020-04-06T09:51:26-07:00,2.888447046,3,versionC_stim.csv,READVersionC.csv,Read Version C,"Dissertation, read only version C",BREAKABLE,GLASS,Study2,F,127,175,Test,User,-,,Recall,Recall2,2536,GLASS,100,1845,2421,1,1,,1
w985086,haapup81ii,Nick_Dissertation_EX1,1,270,2020-04-06T09:51:28-07:00,2.521552086,3,versionC_stim.csv,READVersionC.csv,Read Version C,"Dissertation, read only version C",COLD,CHILL,Study2,B,114,135,Test,User,-,,Recall,Recall2,2204,BITTER,18.18181818,978,2148,0,0,,1
w985086,haapup81ii,Nick_Dissertation_EX1,1,271,2020-04-06T09:51:31-07:00,2.849692822,3,versionC_stim.csv,READVersionC.csv,Read Version C,"Dissertation, read only version C",SIGN,LOAN,Study2,U,171,167,Test,User,-,,Recall,Recall2,2486,T,0,1486,1662,0,0,,1
w985086,haapup81ii,Nick_Dissertation_EX1,1,272,2020-04-06T09:51:33-07:00,2.039597988,3,versionC_stim.csv,READVersionC.csv,Read Version C,"Dissertation, read only version C",EQUAL,RIGHTS,Study2,S,137,121,Test,User,-,,Recall,Recall2,1729,RIGHTS,100,1097,1619,1,1,,1
w985086,haapup81ii,Nick_Dissertation_EX1,1,273,2020-04-06T09:51:37-07:00,3.605697155,3,versionC_stim.csv,READVersionC.csv,Read Version C,"Dissertation, read only version C",SCISSORS,SHEARS,Study2,B,112,148,Test,User,-,,Recall,Recall2,3290,SHEATHS,76.92307692,1009,3047,0,1,,1
w985086,haapup81ii,Nick_Dissertation_EX1,1,274,2020-04-06T09:51:40-07:00,2.764236927,3,versionC_stim.csv,READVersionC.csv,Read Version C,"Dissertation, read only version C",HEAD,SCALP,Study2,B,105,124,Test,User,-,,Recall,Recall2,2399,SCALP,100,1310,2125,1,1,,1
w985086,haapup81ii,Nick_Dissertation_EX1,1,275,2020-04-06T09:51:46-07:00,6.432864904,3,versionC_stim.csv,READVersionC.csv,Read Version C,"Dissertation, read only version C",CHARM,VEHICLE,Study2,U,160,114,Test,User,-,,Recall,Recall2,6108,COW,20,4650,5964,0,0,,1
w985086,haapup81ii,Nick_Dissertation_EX1,1,276,2020-04-06T09:51:48-07:00,1.675364017,3,versionC_stim.csv,READVersionC.csv,Read Version C,"Dissertation, read only version C",ABLE,CRACKLE,Study2,U,162,136,Test,User,-,,Recall,Recall2,985,,0,-1,-1,0,0,,1
w985086,haapup81ii,Nick_Dissertation_EX1,1,277,2020-04-06T09:51:49-07:00,1.676491976,3,versionC_stim.csv,READVersionC.csv,Read Version C,"Dissertation, read only version C",FAVORITE,BEST,Study2,F,125,145,Test,User,-,,Recall,Recall2,1353,,0,-1,-1,0,0,,1
w985086,haapup81ii,Nick_Dissertation_EX1,1,278,2020-04-06T09:51:53-07:00,3.401099205,3,versionC_stim.csv,READVersionC.csv,Read Version C,"Dissertation, read only version C",LEAGUE,BASEBALL,Study2,F,131,130,Test,User,-,,Recall,Recall2,3103,BASEBALL,100,1295,2962,1,1,,1
w985086,haapup81ii,Nick_Dissertation_EX1,1,279,2020-04-06T09:51:55-07:00,2.094703913,3,versionC_stim.csv,READVersionC.csv,Read Version C,"Dissertation, read only version C",NAP,SLEEP,Study2,F,134,150,Test,User,-,,Recall,Recall2,1781,SLEEP,100,1187,1630,1,1,,1
w985086,haapup81ii,Nick_Dissertation_EX1,1,280,2020-04-06T09:51:58-07:00,2.944434881,3,versionC_stim.csv,READVersionC.csv,Read Version C,"Dissertation, read only version C",REVENGE,EVEN,Study2,F,122,107,Test,User,-,,Recall,Recall2,2629,,0,-1,-1,0,0,,1
w985086,haapup81ii,Nick_Dissertation_EX1,1,281,2020-04-06T09:51:59-07:00,1.051362038,3,versionC_stim.csv,READVersionC.csv,Read Version C,"Dissertation, read only version C",THIMBLE,THREAD,Study2,F,121,115,Test,User,-,,Recall,Recall2,737,,0,-1,-1,0,0,,1
w985086,haapup81ii,Nick_Dissertation_EX1,1,282,2020-04-06T09:52:00-07:00,1.580949068,3,versionC_stim.csv,READVersionC.csv,Read Version C,"Dissertation, read only version C",DRINK,WATER,Study2,S,143,166,Test,User,-,,Recall,Recall2,1273,,0,-1,-1,0,0,,1
w985086,haapup81ii,Nick_Dissertation_EX1,1,283,2020-04-06T09:52:02-07:00,1.128308058,3,versionC_stim.csv,READVersionC.csv,Read Version C,"Dissertation, read only version C",PLANT,CACTUS,Study2,B,98,102,Test,User,-,,Recall,Recall2,823,,0,-1,-1,0,0,,1
w985086,haapup81ii,Nick_Dissertation_EX1,1,284,2020-04-06T09:52:05-07:00,3.624724865,3,versionC_stim.csv,READVersionC.csv,Read Version C,"Dissertation, read only version C",COMMUNICATION,PHONE,Study2,S,149,134,Test,User,-,,Recall,Recall2,3312,JOB,25,2092,2998,0,0,,1
w985086,haapup81ii,Nick_Dissertation_EX1,1,285,2020-04-06T09:52:15-07:00,9.960930109,3,versionC_stim.csv,READVersionC.csv,Read Version C,"Dissertation, read only version C",JOKE,KEYS,Study2,U,165,132,Test,User,-,,Recall,Recall2,9601,KEY,85.71428571,9077,9369,0,1,,1
w985086,haapup81ii,Nick_Dissertation_EX1,1,286,2020-04-06T09:52:16-07:00,1.299604893,3,versionC_stim.csv,READVersionC.csv,Read Version C,"Dissertation, read only version C",LONG,EXTENSION,Study2,B,96,152,Test,User,-,,Recall,Recall2,955,,0,-1,-1,0,0,,1
w985086,haapup81ii,Nick_Dissertation_EX1,1,287,2020-04-06T09:52:21-07:00,4.471639156,3,versionC_stim.csv,READVersionC.csv,Read Version C,"Dissertation, read only version C",CLOTH,STRETCH,Study2,U,157,108,Test,User,-,,Recall,Recall2,4149,,0,-1,-1,0,0,,1
w985086,haapup81ii,Nick_Dissertation_EX1,1,288,2020-04-06T09:52:25-07:00,3.963239908,3,versionC_stim.csv,READVersionC.csv,Read Version C,"Dissertation, read only version C",FLIP,TURN,Study2,F,116,119,Test,User,-,,Recall,Recall2,1211,,0,-1,-1,0,0,,1
w985086,haapup81ii,Nick_Dissertation_EX1,1,289,2020-04-06T09:52:27-07:00,2.585079908,3,versionC_stim.csv,READVersionC.csv,Read Version C,"Dissertation, read only version C",Morning,TEMPERATURE,Study2,U,173,116,Test,User,-,,Recall,Recall2,2190,NIGHT,12.5,1655,2082,0,0,,1
w985086,haapup81ii,Nick_Dissertation_EX1,1,290,2020-04-06T09:52:29-07:00,1.168088198,3,versionC_stim.csv,READVersionC.csv,Read Version C,"Dissertation, read only version C",AIRCRAFT,PLANE,Study2,F,129,138,Test,User,-,,Recall,Recall2,869,,0,-1,-1,0,0,,1
w985086,haapup81ii,Nick_Dissertation_EX1,1,291,2020-04-06T09:52:32-07:00,2.995893955,3,versionC_stim.csv,READVersionC.csv,Read Version C,"Dissertation, read only version C",SCAR,MAIN,Study2,U,175,154,Test,User,-,,Recall,Recall2,2686,CUT,0,2317,2581,0,0,,1
w985086,haapup81ii,Nick_Dissertation_EX1,1,292,2020-04-06T09:52:35-07:00,3.227723837,3,versionC_stim.csv,READVersionC.csv,Read Version C,"Dissertation, read only version C",SMELL,INCENSE,Study2,B,110,143,Test,User,-,,Recall,Recall2,2842,,0,-1,-1,0,0,,1
w985086,haapup81ii,Nick_Dissertation_EX1,1,293,2020-04-06T09:52:36-07:00,1.280802011,3,versionC_stim.csv,READVersionC.csv,Read Version C,"Dissertation, read only version C",TIE,SHOELACE,Study2,B,99,131,Test,User,-,,Recall,Recall2,962,,0,-1,-1,0,0,,1
w985086,haapup81ii,Nick_Dissertation_EX1,1,294,2020-04-06T09:52:38-07:00,1.709603071,3,versionC_stim.csv,READVersionC.csv,Read Version C,"Dissertation, read only version C",GROUND,EARTH,Study2,S,144,100,Test,User,-,,Recall,Recall2,1300,,0,-1,-1,0,0,,1
w985086,haapup81ii,Nick_Dissertation_EX1,1,295,2020-04-06T09:52:40-07:00,2.068803072,3,versionC_stim.csv,READVersionC.csv,Read Version C,"Dissertation, read only version C",TAN,SUN,Study2,S,155,126,Test,User,-,,Recall,Recall2,1736,SUN,100,1267,1583,1,1,,1
w985086,haapup81ii,Nick_Dissertation_EX1,1,296,2020-04-06T09:52:43-07:00,3.189878941,3,versionC_stim.csv,READVersionC.csv,Read Version C,"Dissertation, read only version C",NOISE,LOUD,Study2,S,152,112,Test,User,-,,Recall,Recall2,2860,LOUD,100,2001,2673,1,1,,1
w985086,haapup81ii,Nick_Dissertation_EX1,1,297,2020-04-06T09:52:44-07:00,1.166759014,3,versionC_stim.csv,READVersionC.csv,Read Version C,"Dissertation, read only version C",OBTAIN,MEAT,Study2,U,161,111,Test,User,-,,Recall,Recall2,848,,0,-1,-1,0,0,,1
w985086,haapup81ii,Nick_Dissertation_EX1,1,298,2020-04-06T09:52:46-07:00,2.127883911,3,versionC_stim.csv,READVersionC.csv,Read Version C,"Dissertation, read only version C",LONELY,ALONE,Study2,S,145,159,Test,User,-,,Recall,Recall2,1816,,0,-1,-1,0,0,,1
w985086,haapup81ii,Nick_Dissertation_EX1,1,299,2020-04-06T09:52:49-07:00,2.710713148,3,versionC_stim.csv,READVersionC.csv,Read Version C,"Dissertation, read only version C",WET,DRY,Study2,S,146,163,Test,User,-,,Recall,Recall2,2396,DRY,100,1913,2197,1,1,,1
w985086,haapup81ii,Nick_Dissertation_EX1,1,300,2020-04-06T09:52:50-07:00,1.127497911,3,versionC_stim.csv,READVersionC.csv,Read Version C,"Dissertation, read only version C",DONKEY,MULE,Study2,B,108,155,Test,User,-,,Recall,Recall2,810,,0,-1,-1,0,0,,1
w985086,haapup81ii,Nick_Dissertation_EX1,1,301,2020-04-06T09:52:53-07:00,2.959991932,3,versionC_stim.csv,READVersionC.csv,Read Version C,"Dissertation, read only version C",CAR,DRIVER,Study2,B,106,160,Test,User,-,,Recall,Recall2,2658,CHARM,18.18181818,1759,2468,0,0,,1
w985086,haapup81ii,Nick_Dissertation_EX1,1,302,2020-04-06T09:52:59-07:00,5.49920702,3,versionC_stim.csv,READVersionC.csv,Read Version C,"Dissertation, read only version C",HATE,NAME,Study2,U,167,151,Test,User,-,,Recall,Recall2,5166,,0,-1,-1,0,0,,1
w985086,haapup81ii,Nick_Dissertation_EX1,1,303,2020-04-06T09:53:00-07:00,1.737812042,3,versionC_stim.csv,READVersionC.csv,Read Version C,"Dissertation, read only version C",STEAK,GIVE,Study2,U,158,146,Test,User,-,,Recall,Recall2,1429,,0,-1,-1,0,0,,1
w985086,haapup81ii,Nick_Dissertation_EX1,1,304,2020-04-06T09:53:02-07:00,1.907069921,3,versionC_stim.csv,READVersionC.csv,Read Version C,"Dissertation, read only version C",CUT,CHOP,Study2,B,107,101,Test,User,-,,Recall,Recall2,1599,CHOP,100,1064,1442,1,1,,1
w985086,haapup81ii,Nick_Dissertation_EX1,1,305,2020-04-06T09:53:04-07:00,1.267028093,3,versionC_stim.csv,READVersionC.csv,Read Version C,"Dissertation, read only version C",RED,CHERRY,Study2,B,104,141,Test,User,-,,Recall,Recall2,952,,0,-1,-1,0,0,,1
w985086,haapup81ii,Nick_Dissertation_EX1,1,306,2020-04-06T09:53:07-07:00,3.321223974,3,versionC_stim.csv,READVersionC.csv,Read Version C,"Dissertation, read only version C",AWAY,GONE,Study2,S,142,149,Test,User,-,,Recall,Recall2,3014,',0,2462,2462,0,0,,1
w985086,haapup81ii,Nick_Dissertation_EX1,1,307,2020-04-06T09:53:13-07:00,5.845693111,3,versionC_stim.csv,READVersionC.csv,Read Version C,"Dissertation, read only version C",BRACELET,WRIST,Study2,S,140,165,Test,User,-,,Recall,Recall2,5520,WRIST,100,5009,5404,1,1,,1
w985086,haapup81ii,Nick_Dissertation_EX1,1,308,2020-04-06T09:53:14-07:00,1.269572973,3,versionC_stim.csv,READVersionC.csv,Read Version C,"Dissertation, read only version C",TRASH,LITTER,Study2,B,103,110,Test,User,-,,Recall,Recall2,941,,0,-1,-1,0,0,,1
w985086,haapup81ii,Nick_Dissertation_EX1,1,309,2020-04-06T09:53:16-07:00,2.119507074,3,versionC_stim.csv,READVersionC.csv,Read Version C,"Dissertation, read only version C",BANKER,MONEY,Study2,F,132,125,Test,User,-,,Recall,Recall2,1779,MONEY,100,1181,1605,1,1,,1
w985086,haapup81ii,Nick_Dissertation_EX1,1,310,2020-04-06T09:53:19-07:00,2.576032877,3,versionC_stim.csv,READVersionC.csv,Read Version C,"Dissertation, read only version C",CLOTHES,CAKE,Study2,U,166,153,Test,User,-,,Recall,Recall2,2236,,0,-1,-1,0,0,,1
w985086,haapup81ii,Nick_Dissertation_EX1,1,311,2020-04-06T09:53:21-07:00,2.667774916,3,versionC_stim.csv,READVersionC.csv,Read Version C,"Dissertation, read only version C",END,ADJOURN,Study2,B,101,118,Test,User,-,,Recall,Recall2,2343,,0,-1,-1,0,0,,1
w985086,haapup81ii,Nick_Dissertation_EX1,1,312,2020-04-06T09:53:24-07:00,2.379212141,3,versionC_stim.csv,READVersionC.csv,Read Version C,"Dissertation, read only version C",SHAVE,RAZOR,Study2,S,136,123,Test,User,-,,Recall,Recall2,2014,,0,-1,-1,0,0,,1
w985086,haapup81ii,Nick_Dissertation_EX1,1,313,2020-04-06T09:53:25-07:00,1.235424995,3,versionC_stim.csv,READVersionC.csv,Read Version C,"Dissertation, read only version C",TICK,FLEA,Study2,S,151,158,Test,User,-,,Recall,Recall2,892,,0,-1,-1,0,0,,1
w985086,haapup81ii,Nick_Dissertation_EX1,1,314,2020-04-06T09:53:27-07:00,1.845807076,3,versionC_stim.csv,READVersionC.csv,Read Version C,"Dissertation, read only version C",CLEAR,MOAT,Study2,U,169,140,Test,User,-,,Recall,Recall2,1523,,0,-1,-1,0,0,,1
w985086,haapup81ii,Nick_Dissertation_EX1,1,315,2020-04-06T09:53:33-07:00,6.367281914,3,versionC_stim.csv,READVersionC.csv,Read Version C,"Dissertation, read only version C",STRAWBERRY,FRUIT,Study2,F,124,128,Test,User,-,,Recall,Recall2,6051,FRUIT,100,4204,5789,1,1,,1
w985086,haapup81ii,Nick_Dissertation_EX1,1,316,2020-04-06T09:53:35-07:00,1.371589899,3,versionC_stim.csv,READVersionC.csv,Read Version C,"Dissertation, read only version C",EAT,DINE,Study2,B,111,104,Test,User,-,,Recall,Recall2,1045,,0,-1,-1,0,0,,1
w985086,haapup81ii,Nick_Dissertation_EX1,1,317,2020-04-06T09:53:39-07:00,4.672049999,3,versionC_stim.csv,READVersionC.csv,Read Version C,"Dissertation, read only version C",CHILDREN,MIRROR,Study2,U,174,120,Test,User,-,,Recall,Recall2,4360,MIRROR,100,2973,4211,1,1,,1
w985086,haapup81ii,Nick_Dissertation_EX1,1,318,2020-04-06T09:53:43-07:00,3.583739996,3,versionC_stim.csv,READVersionC.csv,Read Version C,"Dissertation, read only version C",TOIL,LEASE,Study2,U,170,129,Test,User,-,,Recall,Recall2,1145,,0,-1,-1,0,0,,1
w985086,haapup81ii,Nick_Dissertation_EX1,1,319,2020-04-06T09:53:44-07:00,1.195262194,3,versionC_stim.csv,READVersionC.csv,Read Version C,"Dissertation, read only version C",BALLOON,POP,Study2,F,123,147,Test,User,-,,Recall,Recall2,871,,0,-1,-1,0,0,,1
w985086,haapup81ii,Nick_Dissertation_EX1,1,320,2020-04-06T09:53:47-07:00,3.203751802,3,versionC_stim.csv,READVersionC.csv,Read Version C,"Dissertation, read only version C",FIGHT,FEUD,Study2,B,113,142,Test,User,-,,Recall,Recall2,2894,FEUD,100,2249,2738,1,1,,1
w985086,haapup81ii,Nick_Dissertation_EX1,1,321,2020-04-06T09:53:48-07:00,1.138291121,3,versionC_stim.csv,READVersionC.csv,Read Version C,"Dissertation, read only version C",MYSTERY,DETECTIVE,Study2,B,100,127,Test,User,-,,Recall,Recall2,811,,0,-1,-1,0,0,,1
w985086,haapup81ii,Nick_Dissertation_EX1,1,322,2020-04-06T09:53:50-07:00,1.218225002,3,versionC_stim.csv,READVersionC.csv,Read Version C,"Dissertation, read only version C",LOVE,AFFECTION,Study2,B,115,172,Test,User,-,,Recall,Recall2,903,,0,-1,-1,0,0,,1
w985086,haapup81ii,Nick_Dissertation_EX1,1,323,2020-04-06T09:53:51-07:00,1.111953974,3,versionC_stim.csv,READVersionC.csv,Read Version C,"Dissertation, read only version C",GAME,CLUE,Study2,B,97,170,Test,User,-,,Recall,Recall2,804,,0,-1,-1,0,0,,1
w985086,haapup81ii,Nick_Dissertation_EX1,1,324,2020-04-06T09:53:52-07:00,1.569384098,3,versionC_stim.csv,READVersionC.csv,Read Version C,"Dissertation, read only version C",VILLAIN,BAD,Study2,F,118,176,Test,User,-,,Recall,Recall2,1236,BAD,100,879,1110,1,1,,1
w985086,haapup81ii,Nick_Dissertation_EX1,1,325,2020-04-06T09:53:57-07:00,4.883231878,3,versionC_stim.csv,READVersionC.csv,Read Version C,"Dissertation, read only version C",MAROON,JUSTICE,Study2,U,156,173,Test,User,-,,Recall,Recall2,4559,HERO,18.18181818,2580,4223,0,0,,1
w985086,haapup81ii,Nick_Dissertation_EX1,1,326,2020-04-06T09:54:00-07:00,2.804513931,3,versionC_stim.csv,READVersionC.csv,Read Version C,"Dissertation, read only version C",BANG,FUZZY,Study2,U,168,99,Test,User,-,,Recall,Recall2,2492,,0,-1,-1,0,0,,1
w985086,haapup81ii,Nick_Dissertation_EX1,1,327,2020-04-06T09:54:01-07:00,1.154076099,3,versionC_stim.csv,READVersionC.csv,Read Version C,"Dissertation, read only version C",PENGUIN,BIRD,Study2,F,119,174,Test,User,-,,Recall,Recall2,817,,0,-1,-1,0,0,,1
w985086,haapup81ii,Nick_Dissertation_EX1,1,328,2020-04-06T09:54:02-07:00,1.034093857,3,versionC_stim.csv,READVersionC.csv,Read Version C,"Dissertation, read only version C",PANTHER,CAT,Study2,F,126,122,Test,User,-,,Recall,Recall2,690,,0,-1,-1,0,0,,1
w985086,haapup81ii,Nick_Dissertation_EX1,1,329,2020-04-06T09:54:03-07:00,0.994077206,3,versionC_stim.csv,READVersionC.csv,Read Version C,"Dissertation, read only version C",OUNCE,BOTH,Study2,U,172,97,Test,User,-,,Recall,Recall2,665,,0,-1,-1,0,0,,1
w985086,haapup81ii,Nick_Dissertation_EX1,1,330,2020-04-06T09:54:04-07:00,0.921154976,3,versionC_stim.csv,READVersionC.csv,Read Version C,"Dissertation, read only version C",CARBON,ELEMENT,Study2,S,141,139,Test,User,-,,Recall,Recall2,604,,0,-1,-1,0,0,,1
w985086,haapup81ii,Nick_Dissertation_EX1,1,331,2020-04-06T09:54:07-07:00,2.386034012,3,versionC_stim.csv,READVersionC.csv,Read Version C,"Dissertation, read only version C",BRAWL,FIGHT,Study2,F,135,162,Test,User,-,,Recall,Recall2,2068,,0,-1,-1,0,0,,1
w985086,haapup81ii,Nick_Dissertation_EX1,1,332,2020-04-06T09:54:08-07:00,1.125473976,3,versionC_stim.csv,READVersionC.csv,Read Version C,"Dissertation, read only version C",ELECTION,MAZE,Study2,U,159,106,Test,User,-,,Recall,Recall2,823,,0,-1,-1,0,0,,1
w985086,haapup81ii,Nick_Dissertation_EX1,1,333,2020-04-06T09:54:09-07:00,1.662948847,3,versionC_stim.csv,READVersionC.csv,Read Version C,"Dissertation, read only version C",WAX,CANDLE,Study2,S,139,169,Test,User,-,,Recall,Recall2,1351,,0,665,665,0,0,,1
w985086,haapup81ii,Nick_Dissertation_EX1,1,334,2020-04-06T09:54:11-07:00,1.506128073,3,versionC_stim.csv,READVersionC.csv,Read Version C,"Dissertation, read only version C",SEATBELT,SAFETY,Study2,S,147,105,Test,User,-,,Recall,Recall2,1187,,0,-1,-1,0,0,,1
w985086,haapup81ii,Nick_Dissertation_EX1,1,335,2020-04-06T09:54:12-07:00,1.18253994,3,versionC_stim.csv,READVersionC.csv,Read Version C,"Dissertation, read only version C",TRUTHFUL,HONEST,Study2,F,133,161,Test,User,-,,Recall,Recall2,818,,0,-1,-1,0,0,,1
w985086,haapup81ii,Nick_Dissertation_EX1,1,336,2020-04-06T09:54:14-07:00,2.031800985,3,versionC_stim.csv,READVersionC.csv,Read Version C,"Dissertation, read only version C",DOG,FURRY,Study2,B,102,113,Test,User,-,,Recall,Recall2,1686,,0,-1,-1,0,0,,1
w985086,haapup81ii,Nick_Dissertation_EX1,1,337,2020-04-06T09:54:17-07:00,2.580059052,3,versionC_stim.csv,READVersionC.csv,Read Version C,"Dissertation, read only version C",REEL,ROD,Study2,S,150,171,Test,User,-,,Recall,Recall2,2132,,0,-1,-1,0,0,,1
w985086,haapup81ii,Nick_Dissertation_EX1,1,338,2020-04-06T09:54:19-07:00,2.3220191,3,versionC_stim.csv,READVersionC.csv,Read Version C,"Dissertation, read only version C",LIE,TRUTH,Study2,S,148,117,Test,User,-,,Recall,Recall2,1965,,0,-1,-1,0,0,,1
w985086,haapup81ii,Nick_Dissertation_EX1,1,339,2020-04-06T09:54:21-07:00,1.723585844,3,versionC_stim.csv,READVersionC.csv,Read Version C,"Dissertation, read only version C",HAVE,OWN,Study2,S,153,156,Test,User,-,,Recall,Recall2,1384,,0,-1,-1,0,0,,1
w985086,haapup81ii,Nick_Dissertation_EX1,1,340,2020-04-06T09:54:23-07:00,2.836197138,3,versionC_stim.csv,READVersionC.csv,Read Version C,"Dissertation, read only version C",COFFIN,DEAD,Study2,F,128,103,Test,User,-,,Recall,Recall2,2501,DEAD,100,1200,2387,1,1,,1
w985086,haapup81ii,Nick_Dissertation_EX1,1,341,2020-04-06T09:54:25-07:00,1.90852499,3,versionC_stim.csv,READVersionC.csv,Read Version C,"Dissertation, read only version C",SHAKE,Shell,Study2,U,163,164,Test,User,-,,Recall,Recall2,1579,,0,-1,-1,0,0,,1
w985086,haapup81ii,Nick_Dissertation_EX1,1,342,2020-04-06T09:54:27-07:00,1.899996996,3,versionC_stim.csv,READVersionC.csv,Read Version C,"Dissertation, read only version C",SARDINE,FISH,Study2,F,130,137,Test,User,-,,Recall,Recall2,1592,FISH,100,1114,1405,1,1,,1
w985086,haapup81ii,Nick_Dissertation_EX1,1,343,2020-04-06T09:54:29-07:00,1.290299892,3,versionC_stim.csv,READVersionC.csv,Read Version C,"Dissertation, read only version C",TEMPER,TANTRUM,Study2,S,154,168,Test,User,-,,Recall,Recall2,903,,0,-1,-1,0,0,,1
w985086,haapup81ii,Nick_Dissertation_EX1,1,344,2020-04-06T09:54:30-07:00,1.259361982,3,versionC_stim.csv,READVersionC.csv,Read Version C,"Dissertation, read only version C",WINDSHIELD,CAR,Study2,F,117,157,Test,User,-,,Recall,Recall2,903,,0,-1,-1,0,0,,1
w985086,haapup81ii,Nick_Dissertation_EX1,1,345,2020-04-06T09:54:31-07:00,1.379127026,3,versionC_stim.csv,READVersionC.csv,Read Version C,"Dissertation, read only version C",ACTRESS,STAR,Study2,F,120,133,Test,User,-,,Recall,Recall2,1059,,0,-1,-1,0,0,,1
w985086,haapup81ii,Nick_Dissertation_EX1,1,346,2020-04-06T09:54:32-07:00,1.022519112,3,versionC_stim.csv,READVersionC.csv,Read Version C,"Dissertation, read only version C",JAR,MASON,Study2,S,138,98,Test,User,-,,Recall,Recall2,650,,0,-1,-1,0,0,,1
w985086,haapup81ii,Nick_Dissertation_EX1,1,347,2020-04-06T09:54:33-07:00,0.922316074,3,versionC_stim.csv,READVersionC.csv,Read Version C,"Dissertation, read only version C",PAPER,DOCUMENT,Study2,B,109,109,Test,User,-,,Recall,Recall2,605,,0,-1,-1,0,0,,1
w985086,haapup81ii,Nick_Dissertation_EX1,1,348,2020-04-06T09:54:39-07:00,5.780303955,3,versionC_stim.csv,READVersionC.csv,Read Version C,"Dissertation, read only version C",FICTION,LISTEN,Study2,U,164,144,Test,User,-,,Recall,Recall2,5422,LISTEN,100,4122,5225,1,1,,1
w985086,haapup81ii,Nick_Dissertation_EX1,1,349,2020-04-06T09:54:41-07:00,1.96427083,3,versionC_stim.csv,READVersionC.csv,Read Version C,"Dissertation, read only version C",,,,,,0,Instruct,User,-,You have completed this section. Please press Enter.,,Instruct7,1641,,,-1,-1,,,,1
w985086,haapup81ii,Nick_Dissertation_EX1,1,350,2020-04-06T09:54:44-07:00,2.713604212,3,versionC_stim.csv,READVersionC.csv,Read Version C,"Dissertation, read only version C",,,,,,0,Instruct,User,-,The following screen will ask you a few questions abour your experience today. You must complete these questions to receive credit.,,Instruct8,2389,,,-1,-1,,,,1
