Username,ID,ExperimentName,Session,Trial,Date,TimeDif,"Condition Number","Stimuli File","Order File","Condition Description","Condition Notes",Stimuli*Cue,Stimuli*Answer,Stimuli*Shuffle,"Stimuli*Stimuli Notes",Stimuli*Value,Procedure*Item,"Procedure*Trial Type","Procedure*Max Time","Procedure*Min Time",Procedure*Text,"Procedure*Procedure Notes",Procedure*Shuffle,Response*RT,Response*Response,Response*Accuracy,Response*RTfirst,Response*RTlast,Response*strictAcc,Response*lenientAcc,Response*focus,Response*Focus
w10024560_tlv,izk8mkznsk,Nick_Dissertation_EX1,1,1,2020-04-28T20:57:05-07:00,18.168090820312,2,versionA_stim.csv,READVersionB.csv,"Read Version B","Dissertation, read only version B",,,,,,0,Instruct,-,10,"Please study each of the following word pairs. Remember that your memory will be tested! When finished, press Enter to move to the next pair.",Initial_Instruct,Instruct1,17651,,,-1,-1,,,,1
w10024560_tlv,izk8mkznsk,Nick_Dissertation_EX1,1,2,2020-04-28T20:57:08-07:00,3.7162401676178,2,versionA_stim.csv,READVersionB.csv,"Read Version B","Dissertation, read only version B",NOODLE,STRING,BUFFER3,Buffer,92,93,Study,User,-,,Study/JOL,BUFFER,2743,,,-1,-1,,,,1
w10024560_tlv,izk8mkznsk,Nick_Dissertation_EX1,1,3,2020-04-28T20:57:10-07:00,1.9911699295044,2,versionA_stim.csv,READVersionB.csv,"Read Version B","Dissertation, read only version B",ICE,FROZEN,BUFFER3,Buffer,94,92,Study,User,-,,Study/JOL,BUFFER,1466,,,-1,-1,,,,1
w10024560_tlv,izk8mkznsk,Nick_Dissertation_EX1,1,4,2020-04-28T20:57:16-07:00,5.2984359264374,2,versionA_stim.csv,READVersionB.csv,"Read Version B","Dissertation, read only version B",CAMP,ADVENTURE,BUFFER3,Buffer,95,94,Study,User,-,,Study/JOL,BUFFER,4732,,,-1,-1,,,,1
w10024560_tlv,izk8mkznsk,Nick_Dissertation_EX1,1,5,2020-04-28T20:57:19-07:00,3.0628740787506,2,versionA_stim.csv,READVersionB.csv,"Read Version B","Dissertation, read only version B",SHRIMP,FISH,BUFFER3,Buffer,93,96,Study,User,-,,Study/JOL,BUFFER,2439,,,-1,-1,,,,1
w10024560_tlv,izk8mkznsk,Nick_Dissertation_EX1,1,6,2020-04-28T20:57:21-07:00,2.411276102066,2,versionA_stim.csv,READVersionB.csv,"Read Version B","Dissertation, read only version B",CARROT,POTATO,BUFFER3,Buffer,91,95,Study,User,-,,Study/JOL,BUFFER,1846,,,-1,-1,,,,1
w10024560_tlv,izk8mkznsk,Nick_Dissertation_EX1,1,7,2020-04-28T20:57:23-07:00,2.0641868114471,2,versionA_stim.csv,READVersionB.csv,"Read Version B","Dissertation, read only version B",ALONE,LONELY,Study2,S,145,116,Study,User,-,,Study/JOL,"Study Phase",1538,,,-1,-1,,,,1
w10024560_tlv,izk8mkznsk,Nick_Dissertation_EX1,1,8,2020-04-28T20:57:25-07:00,2.0525012016296,2,versionA_stim.csv,READVersionB.csv,"Read Version B","Dissertation, read only version B",GIVE,STEAK,Study2,U,158,151,Study,User,-,,Study/JOL,"Study Phase",1466,,,-1,-1,,,,1
w10024560_tlv,izk8mkznsk,Nick_Dissertation_EX1,1,9,2020-04-28T20:57:27-07:00,1.9526448249817,2,versionA_stim.csv,READVersionB.csv,"Read Version B","Dissertation, read only version B",RAZOR,SHAVE,Study2,S,136,158,Study,User,-,,Study/JOL,"Study Phase",1398,,,-1,-1,,,,1
w10024560_tlv,izk8mkznsk,Nick_Dissertation_EX1,1,10,2020-04-28T20:57:29-07:00,1.8582291603088,2,versionA_stim.csv,READVersionB.csv,"Read Version B","Dissertation, read only version B",MAIN,SCAR,Study2,U,175,128,Study,User,-,,Study/JOL,"Study Phase",1362,,,-1,-1,,,,1
w10024560_tlv,izk8mkznsk,Nick_Dissertation_EX1,1,11,2020-04-28T20:57:31-07:00,2.1083688735962,2,versionA_stim.csv,READVersionB.csv,"Read Version B","Dissertation, read only version B",SUN,TAN,Study2,S,155,144,Study,User,-,,Study/JOL,"Study Phase",1584,,,-1,-1,,,,1
w10024560_tlv,izk8mkznsk,Nick_Dissertation_EX1,1,12,2020-04-28T20:57:33-07:00,1.8699150085449,2,versionA_stim.csv,READVersionB.csv,"Read Version B","Dissertation, read only version B",STRETCH,CLOTH,Study2,U,157,131,Study,User,-,,Study/JOL,"Study Phase",1340,,,-1,-1,,,,1
w10024560_tlv,izk8mkznsk,Nick_Dissertation_EX1,1,13,2020-04-28T20:57:35-07:00,1.7338969707489,2,versionA_stim.csv,READVersionB.csv,"Read Version B","Dissertation, read only version B",Shell,SHAKE,Study2,U,163,120,Study,User,-,,Study/JOL,"Study Phase",1182,,,-1,-1,,,,1
w10024560_tlv,izk8mkznsk,Nick_Dissertation_EX1,1,14,2020-04-28T20:57:36-07:00,1.7749049663544,2,versionA_stim.csv,READVersionB.csv,"Read Version B","Dissertation, read only version B",LISTEN,FICTION,Study2,U,164,134,Study,User,-,,Study/JOL,"Study Phase",1262,,,-1,-1,,,,1
w10024560_tlv,izk8mkznsk,Nick_Dissertation_EX1,1,15,2020-04-28T20:57:38-07:00,1.9828140735626,2,versionA_stim.csv,READVersionB.csv,"Read Version B","Dissertation, read only version B",DEAD,COFFIN,Study2,B,128,111,Study,User,-,,Study/JOL,"Study Phase",1447,,,-1,-1,,,,1
w10024560_tlv,izk8mkznsk,Nick_Dissertation_EX1,1,16,2020-04-28T20:57:40-07:00,1.9669840335846,2,versionA_stim.csv,READVersionB.csv,"Read Version B","Dissertation, read only version B",WRIST,BRACELET,Study2,S,140,143,Study,User,-,,Study/JOL,"Study Phase",1427,,,-1,-1,,,,1
w10024560_tlv,izk8mkznsk,Nick_Dissertation_EX1,1,17,2020-04-28T20:57:42-07:00,2.0671660900116,2,versionA_stim.csv,READVersionB.csv,"Read Version B","Dissertation, read only version B",TANTRUM,TEMPER,Study2,S,154,173,Study,User,-,,Study/JOL,"Study Phase",1495,,,-1,-1,,,,1
w10024560_tlv,izk8mkznsk,Nick_Dissertation_EX1,1,18,2020-04-28T20:57:44-07:00,1.8695209026337,2,versionA_stim.csv,READVersionB.csv,"Read Version B","Dissertation, read only version B",FIGHT,BRAWL,Study2,B,135,100,Study,User,-,,Study/JOL,"Study Phase",1239,,,-1,-1,,,,1
w10024560_tlv,izk8mkznsk,Nick_Dissertation_EX1,1,19,2020-04-28T20:57:46-07:00,1.7655808925629,2,versionA_stim.csv,READVersionB.csv,"Read Version B","Dissertation, read only version B",RIGHTS,EQUAL,Study2,S,137,136,Study,User,-,,Study/JOL,"Study Phase",1208,,,-1,-1,,,,1
w10024560_tlv,izk8mkznsk,Nick_Dissertation_EX1,1,20,2020-04-28T20:57:48-07:00,1.8775970935822,2,versionA_stim.csv,READVersionB.csv,"Read Version B","Dissertation, read only version B",BIRD,PENGUIN,Study2,B,119,104,Study,User,-,,Study/JOL,"Study Phase",1332,,,-1,-1,,,,1
w10024560_tlv,izk8mkznsk,Nick_Dissertation_EX1,1,21,2020-04-28T20:57:50-07:00,1.573991060257,2,versionA_stim.csv,READVersionB.csv,"Read Version B","Dissertation, read only version B",LOAN,SIGN,Study2,U,171,138,Study,User,-,,Study/JOL,"Study Phase",1051,,,-1,-1,,,,1
w10024560_tlv,izk8mkznsk,Nick_Dissertation_EX1,1,22,2020-04-28T20:57:51-07:00,1.7664659023285,2,versionA_stim.csv,READVersionB.csv,"Read Version B","Dissertation, read only version B",CHILL,COLD,Study2,F,114,102,Study,User,-,,Study/JOL,"Study Phase",1245,,,-1,-1,,,,1
w10024560_tlv,izk8mkznsk,Nick_Dissertation_EX1,1,23,2020-04-28T20:57:53-07:00,1.5709929466248,2,versionA_stim.csv,READVersionB.csv,"Read Version B","Dissertation, read only version B",MAZE,ELECTION,Study2,U,159,155,Study,User,-,,Study/JOL,"Study Phase",1027,,,-1,-1,,,,1
w10024560_tlv,izk8mkznsk,Nick_Dissertation_EX1,1,24,2020-04-28T20:57:54-07:00,1.5787570476532,2,versionA_stim.csv,READVersionB.csv,"Read Version B","Dissertation, read only version B",GONE,AWAY,Study2,S,142,113,Study,User,-,,Study/JOL,"Study Phase",1038,,,-1,-1,,,,1
w10024560_tlv,izk8mkznsk,Nick_Dissertation_EX1,1,25,2020-04-28T20:57:57-07:00,2.1665480136871,2,versionA_stim.csv,READVersionB.csv,"Read Version B","Dissertation, read only version B",CAR,WINDSHIELD,Study2,B,117,125,Study,User,-,,Study/JOL,"Study Phase",1606,,,-1,-1,,,,1
w10024560_tlv,izk8mkznsk,Nick_Dissertation_EX1,1,26,2020-04-28T20:58:01-07:00,3.9709579944611,2,versionA_stim.csv,READVersionB.csv,"Read Version B","Dissertation, read only version B",CRACKLE,ABLE,Study2,U,162,162,Study,User,-,,Study/JOL,"Study Phase",3377,,,-1,-1,,,,1
w10024560_tlv,izk8mkznsk,Nick_Dissertation_EX1,1,27,2020-04-28T20:58:02-07:00,1.8444991111755,2,versionA_stim.csv,READVersionB.csv,"Read Version B","Dissertation, read only version B",CHOP,CUT,Study2,F,107,164,Study,User,-,,Study/JOL,"Study Phase",1236,,,-1,-1,,,,1
w10024560_tlv,izk8mkznsk,Nick_Dissertation_EX1,1,28,2020-04-28T20:58:04-07:00,1.3408989906311,2,versionA_stim.csv,READVersionB.csv,"Read Version B","Dissertation, read only version B",CANDLE,WAX,Study2,S,139,98,Study,User,-,,Study/JOL,"Study Phase",757,,,-1,-1,,,,1
w10024560_tlv,izk8mkznsk,Nick_Dissertation_EX1,1,29,2020-04-28T20:58:06-07:00,1.8751528263092,2,versionA_stim.csv,READVersionB.csv,"Read Version B","Dissertation, read only version B",SAFETY,SEATBELT,Study2,S,147,124,Study,User,-,,Study/JOL,"Study Phase",1352,,,-1,-1,,,,1
w10024560_tlv,izk8mkznsk,Nick_Dissertation_EX1,1,30,2020-04-28T20:58:07-07:00,1.0558371543884,2,versionA_stim.csv,READVersionB.csv,"Read Version B","Dissertation, read only version B",EARTH,GROUND,Study2,S,144,114,Study,User,-,,Study/JOL,"Study Phase",530,,,-1,-1,,,,1
w10024560_tlv,izk8mkznsk,Nick_Dissertation_EX1,1,31,2020-04-28T20:58:08-07:00,1.6997020244598,2,versionA_stim.csv,READVersionB.csv,"Read Version B","Dissertation, read only version B",ELEMENT,CARBON,Study2,S,141,172,Study,User,-,,Study/JOL,"Study Phase",1213,,,-1,-1,,,,1
w10024560_tlv,izk8mkznsk,Nick_Dissertation_EX1,1,32,2020-04-28T20:58:10-07:00,1.5028138160706,2,versionA_stim.csv,READVersionB.csv,"Read Version B","Dissertation, read only version B",LOUD,NOISE,Study2,S,152,119,Study,User,-,,Study/JOL,"Study Phase",953,,,-1,-1,,,,1
w10024560_tlv,izk8mkznsk,Nick_Dissertation_EX1,1,33,2020-04-28T20:58:11-07:00,1.4381840229034,2,versionA_stim.csv,READVersionB.csv,"Read Version B","Dissertation, read only version B",HONEST,TRUTHFUL,Study2,B,133,154,Study,User,-,,Study/JOL,"Study Phase",849,,,-1,-1,,,,1
w10024560_tlv,izk8mkznsk,Nick_Dissertation_EX1,1,34,2020-04-28T20:58:13-07:00,1.4438421726227,2,versionA_stim.csv,READVersionB.csv,"Read Version B","Dissertation, read only version B",SHOELACE,TIE,Study2,F,99,110,Study,User,-,,Study/JOL,"Study Phase",842,,,-1,-1,,,,1
w10024560_tlv,izk8mkznsk,Nick_Dissertation_EX1,1,35,2020-04-28T20:58:14-07:00,1.2035009860992,2,versionA_stim.csv,READVersionB.csv,"Read Version B","Dissertation, read only version B",OWN,HAVE,Study2,S,153,170,Study,User,-,,Study/JOL,"Study Phase",681,,,-1,-1,,,,1
w10024560_tlv,izk8mkznsk,Nick_Dissertation_EX1,1,36,2020-04-28T20:58:16-07:00,1.4914858341217,2,versionA_stim.csv,READVersionB.csv,"Read Version B","Dissertation, read only version B",DETECTIVE,MYSTERY,Study2,F,100,147,Study,User,-,,Study/JOL,"Study Phase",916,,,-1,-1,,,,1
w10024560_tlv,izk8mkznsk,Nick_Dissertation_EX1,1,37,2020-04-28T20:58:17-07:00,1.9458160400391,2,versionA_stim.csv,READVersionB.csv,"Read Version B","Dissertation, read only version B",MIRROR,CHILDREN,Study2,U,174,160,Study,User,-,,Study/JOL,"Study Phase",1312,,,-1,-1,,,,1
w10024560_tlv,izk8mkznsk,Nick_Dissertation_EX1,1,38,2020-04-28T20:58:21-07:00,3.5869131088257,2,versionA_stim.csv,READVersionB.csv,"Read Version B","Dissertation, read only version B",FLEA,TICK,Study2,S,151,129,Study,User,-,,Study/JOL,"Study Phase",3029,,,-1,-1,,,,1
w10024560_tlv,izk8mkznsk,Nick_Dissertation_EX1,1,39,2020-04-28T20:58:24-07:00,3.2491989135742,2,versionA_stim.csv,READVersionB.csv,"Read Version B","Dissertation, read only version B",CACTUS,PLANT,Study2,F,98,145,Study,User,-,,Study/JOL,"Study Phase",2366,,,-1,-1,,,,1
w10024560_tlv,izk8mkznsk,Nick_Dissertation_EX1,1,40,2020-04-28T20:58:26-07:00,1.8023400306702,2,versionA_stim.csv,READVersionB.csv,"Read Version B","Dissertation, read only version B",VEHICLE,CHARM,Study2,U,160,130,Study,User,-,,Study/JOL,"Study Phase",936,,,-1,-1,,,,1
w10024560_tlv,izk8mkznsk,Nick_Dissertation_EX1,1,41,2020-04-28T20:58:28-07:00,1.5426650047302,2,versionA_stim.csv,READVersionB.csv,"Read Version B","Dissertation, read only version B",AFFECTION,LOVE,Study2,F,115,103,Study,User,-,,Study/JOL,"Study Phase",1022,,,-1,-1,,,,1
w10024560_tlv,izk8mkznsk,Nick_Dissertation_EX1,1,42,2020-04-28T20:58:29-07:00,1.8002018928528,2,versionA_stim.csv,READVersionB.csv,"Read Version B","Dissertation, read only version B",FISH,SARDINE,Study2,B,130,152,Study,User,-,,Study/JOL,"Study Phase",1309,,,-1,-1,,,,1
w10024560_tlv,izk8mkznsk,Nick_Dissertation_EX1,1,43,2020-04-28T20:58:31-07:00,1.4896562099457,2,versionA_stim.csv,READVersionB.csv,"Read Version B","Dissertation, read only version B",BOTH,OUNCE,Study2,U,172,166,Study,User,-,,Study/JOL,"Study Phase",880,,,-1,-1,,,,1
w10024560_tlv,izk8mkznsk,Nick_Dissertation_EX1,1,44,2020-04-28T20:58:32-07:00,1.4353938102722,2,versionA_stim.csv,READVersionB.csv,"Read Version B","Dissertation, read only version B",SCALP,HEAD,Study2,F,105,126,Study,User,-,,Study/JOL,"Study Phase",900,,,-1,-1,,,,1
w10024560_tlv,izk8mkznsk,Nick_Dissertation_EX1,1,45,2020-04-28T20:58:34-07:00,1.5103220939636,2,versionA_stim.csv,READVersionB.csv,"Read Version B","Dissertation, read only version B",KEYS,JOKE,Study2,U,165,140,Study,User,-,,Study/JOL,"Study Phase",945,,,-1,-1,,,,1
w10024560_tlv,izk8mkznsk,Nick_Dissertation_EX1,1,46,2020-04-28T20:58:35-07:00,1.5238749980927,2,versionA_stim.csv,READVersionB.csv,"Read Version B","Dissertation, read only version B",ADJOURN,END,Study2,F,101,175,Study,User,-,,Study/JOL,"Study Phase",917,,,-1,-1,,,,1
w10024560_tlv,izk8mkznsk,Nick_Dissertation_EX1,1,47,2020-04-28T20:58:37-07:00,1.1526610851288,2,versionA_stim.csv,READVersionB.csv,"Read Version B","Dissertation, read only version B",DRIVER,CAR,Study2,F,106,169,Study,User,-,,Study/JOL,"Study Phase",622,,,-1,-1,,,,1
w10024560_tlv,izk8mkznsk,Nick_Dissertation_EX1,1,48,2020-04-28T20:58:39-07:00,2.4358320236206,2,versionA_stim.csv,READVersionB.csv,"Read Version B","Dissertation, read only version B",DINE,EAT,Study2,F,111,168,Study,User,-,,Study/JOL,"Study Phase",1911,,,-1,-1,,,,1
w10024560_tlv,izk8mkznsk,Nick_Dissertation_EX1,1,49,2020-04-28T20:58:41-07:00,1.6596257686615,2,versionA_stim.csv,READVersionB.csv,"Read Version B","Dissertation, read only version B",ROD,REEL,Study2,S,150,157,Study,User,-,,Study/JOL,"Study Phase",1110,,,-1,-1,,,,1
w10024560_tlv,izk8mkznsk,Nick_Dissertation_EX1,1,50,2020-04-28T20:58:43-07:00,2.2317490577698,2,versionA_stim.csv,READVersionB.csv,"Read Version B","Dissertation, read only version B",JUSTICE,MAROON,Study2,U,156,97,Study,User,-,,Study/JOL,"Study Phase",1709,,,-1,-1,,,,1
w10024560_tlv,izk8mkznsk,Nick_Dissertation_EX1,1,51,2020-04-28T20:58:45-07:00,2.4698951244354,2,versionA_stim.csv,READVersionB.csv,"Read Version B","Dissertation, read only version B",THREAD,THIMBLE,Study2,B,121,139,Study,User,-,,Study/JOL,"Study Phase",1924,,,-1,-1,,,,1
w10024560_tlv,izk8mkznsk,Nick_Dissertation_EX1,1,52,2020-04-28T20:58:47-07:00,1.6386058330536,2,versionA_stim.csv,READVersionB.csv,"Read Version B","Dissertation, read only version B",BAD,VILLAIN,Study2,B,118,150,Study,User,-,,Study/JOL,"Study Phase",1096,,,-1,-1,,,,1
w10024560_tlv,izk8mkznsk,Nick_Dissertation_EX1,1,53,2020-04-28T20:58:49-07:00,1.5375001430511,2,versionA_stim.csv,READVersionB.csv,"Read Version B","Dissertation, read only version B",MONEY,BANKER,Study2,B,132,105,Study,User,-,,Study/JOL,"Study Phase",1035,,,-1,-1,,,,1
w10024560_tlv,izk8mkznsk,Nick_Dissertation_EX1,1,54,2020-04-28T20:58:50-07:00,1.6070818901062,2,versionA_stim.csv,READVersionB.csv,"Read Version B","Dissertation, read only version B",PHONE,COMMUNICATION,Study2,S,149,122,Study,User,-,,Study/JOL,"Study Phase",1107,,,-1,-1,,,,1
w10024560_tlv,izk8mkznsk,Nick_Dissertation_EX1,1,55,2020-04-28T20:58:52-07:00,1.4676649570465,2,versionA_stim.csv,READVersionB.csv,"Read Version B","Dissertation, read only version B",FUZZY,BANG,Study2,U,168,112,Study,User,-,,Study/JOL,"Study Phase",953,,,-1,-1,,,,1
w10024560_tlv,izk8mkznsk,Nick_Dissertation_EX1,1,56,2020-04-28T20:58:53-07:00,1.7988522052765,2,versionA_stim.csv,READVersionB.csv,"Read Version B","Dissertation, read only version B",FEUD,FIGHT,Study2,F,113,99,Study,User,-,,Study/JOL,"Study Phase",1276,,,-1,-1,,,,1
w10024560_tlv,izk8mkznsk,Nick_Dissertation_EX1,1,57,2020-04-28T20:58:55-07:00,1.6330659389496,2,versionA_stim.csv,READVersionB.csv,"Read Version B","Dissertation, read only version B",NAME,HATE,Study2,U,167,121,Study,User,-,,Study/JOL,"Study Phase",1075,,,-1,-1,,,,1
w10024560_tlv,izk8mkznsk,Nick_Dissertation_EX1,1,58,2020-04-28T20:58:57-07:00,1.7430379390717,2,versionA_stim.csv,READVersionB.csv,"Read Version B","Dissertation, read only version B",MOAT,CLEAR,Study2,U,169,142,Study,User,-,,Study/JOL,"Study Phase",1235,,,-1,-1,,,,1
w10024560_tlv,izk8mkznsk,Nick_Dissertation_EX1,1,59,2020-04-28T20:58:58-07:00,1.6391460895538,2,versionA_stim.csv,READVersionB.csv,"Read Version B","Dissertation, read only version B",TRUTH,LIE,Study2,S,148,156,Study,User,-,,Study/JOL,"Study Phase",1124,,,-1,-1,,,,1
w10024560_tlv,izk8mkznsk,Nick_Dissertation_EX1,1,60,2020-04-28T20:59:00-07:00,1.4219419956207,2,versionA_stim.csv,READVersionB.csv,"Read Version B","Dissertation, read only version B",POP,BALLOON,Study2,B,123,135,Study,User,-,,Study/JOL,"Study Phase",895,,,-1,-1,,,,1
w10024560_tlv,izk8mkznsk,Nick_Dissertation_EX1,1,61,2020-04-28T20:59:02-07:00,1.9424879550934,2,versionA_stim.csv,READVersionB.csv,"Read Version B","Dissertation, read only version B",CAT,PANTHER,Study2,B,126,148,Study,User,-,,Study/JOL,"Study Phase",1401,,,-1,-1,,,,1
w10024560_tlv,izk8mkznsk,Nick_Dissertation_EX1,1,62,2020-04-28T20:59:04-07:00,2.2053070068359,2,versionA_stim.csv,READVersionB.csv,"Read Version B","Dissertation, read only version B",LITTER,TRASH,Study2,F,103,149,Study,User,-,,Study/JOL,"Study Phase",1649,,,-1,-1,,,,1
w10024560_tlv,izk8mkznsk,Nick_Dissertation_EX1,1,63,2020-04-28T20:59:06-07:00,1.7069580554962,2,versionA_stim.csv,READVersionB.csv,"Read Version B","Dissertation, read only version B",CHERRY,RED,Study2,F,104,161,Study,User,-,,Study/JOL,"Study Phase",1174,,,-1,-1,,,,1
w10024560_tlv,izk8mkznsk,Nick_Dissertation_EX1,1,64,2020-04-28T20:59:07-07:00,1.3869400024414,2,versionA_stim.csv,READVersionB.csv,"Read Version B","Dissertation, read only version B",FURRY,DOG,Study2,F,102,153,Study,User,-,,Study/JOL,"Study Phase",853,,,-1,-1,,,,1
w10024560_tlv,izk8mkznsk,Nick_Dissertation_EX1,1,65,2020-04-28T20:59:09-07:00,1.6623659133911,2,versionA_stim.csv,READVersionB.csv,"Read Version B","Dissertation, read only version B",TURN,FLIP,Study2,B,116,107,Study,User,-,,Study/JOL,"Study Phase",1155,,,-1,-1,,,,1
w10024560_tlv,izk8mkznsk,Nick_Dissertation_EX1,1,66,2020-04-28T20:59:10-07:00,1.4026999473572,2,versionA_stim.csv,READVersionB.csv,"Read Version B","Dissertation, read only version B",DRY,WET,Study2,S,146,133,Study,User,-,,Study/JOL,"Study Phase",867,,,-1,-1,,,,1
w10024560_tlv,izk8mkznsk,Nick_Dissertation_EX1,1,67,2020-04-28T20:59:12-07:00,1.9311330318451,2,versionA_stim.csv,READVersionB.csv,"Read Version B","Dissertation, read only version B",SHEARS,SCISSORS,Study2,F,112,118,Study,User,-,,Study/JOL,"Study Phase",1397,,,-1,-1,,,,1
w10024560_tlv,izk8mkznsk,Nick_Dissertation_EX1,1,68,2020-04-28T20:59:14-07:00,1.525071144104,2,versionA_stim.csv,READVersionB.csv,"Read Version B","Dissertation, read only version B",DOCUMENT,PAPER,Study2,F,109,171,Study,User,-,,Study/JOL,"Study Phase",959,,,-1,-1,,,,1
w10024560_tlv,izk8mkznsk,Nick_Dissertation_EX1,1,69,2020-04-28T20:59:15-07:00,1.4643049240112,2,versionA_stim.csv,READVersionB.csv,"Read Version B","Dissertation, read only version B",BEST,FAVORITE,Study2,B,125,165,Study,User,-,,Study/JOL,"Study Phase",935,,,-1,-1,,,,1
w10024560_tlv,izk8mkznsk,Nick_Dissertation_EX1,1,70,2020-04-28T20:59:17-07:00,1.4337759017944,2,versionA_stim.csv,READVersionB.csv,"Read Version B","Dissertation, read only version B",TEMPERATURE,Morning,Study2,U,173,174,Study,User,-,,Study/JOL,"Study Phase",906,,,-1,-1,,,,1
w10024560_tlv,izk8mkznsk,Nick_Dissertation_EX1,1,71,2020-04-28T20:59:18-07:00,1.4081871509552,2,versionA_stim.csv,READVersionB.csv,"Read Version B","Dissertation, read only version B",STAR,ACTRESS,Study2,B,120,167,Study,User,-,,Study/JOL,"Study Phase",877,,,-1,-1,,,,1
w10024560_tlv,izk8mkznsk,Nick_Dissertation_EX1,1,72,2020-04-28T20:59:20-07:00,1.623291015625,2,versionA_stim.csv,READVersionB.csv,"Read Version B","Dissertation, read only version B",EVEN,REVENGE,Study2,B,122,123,Study,User,-,,Study/JOL,"Study Phase",1097,,,-1,-1,,,,1
w10024560_tlv,izk8mkznsk,Nick_Dissertation_EX1,1,73,2020-04-28T20:59:21-07:00,1.7643868923187,2,versionA_stim.csv,READVersionB.csv,"Read Version B","Dissertation, read only version B",CLUE,GAME,Study2,F,97,117,Study,User,-,,Study/JOL,"Study Phase",1232,,,-1,-1,,,,1
w10024560_tlv,izk8mkznsk,Nick_Dissertation_EX1,1,74,2020-04-28T20:59:22-07:00,1.0934090614319,2,versionA_stim.csv,READVersionB.csv,"Read Version B","Dissertation, read only version B",CAKE,CLOTHES,Study2,U,166,109,Study,User,-,,Study/JOL,"Study Phase",576,,,-1,-1,,,,1
w10024560_tlv,izk8mkznsk,Nick_Dissertation_EX1,1,75,2020-04-28T20:59:24-07:00,1.3535480499268,2,versionA_stim.csv,READVersionB.csv,"Read Version B","Dissertation, read only version B",LEASE,TOIL,Study2,U,170,115,Study,User,-,,Study/JOL,"Study Phase",830,,,-1,-1,,,,1
w10024560_tlv,izk8mkznsk,Nick_Dissertation_EX1,1,76,2020-04-28T20:59:27-07:00,3.686429977417,2,versionA_stim.csv,READVersionB.csv,"Read Version B","Dissertation, read only version B",MEAT,OBTAIN,Study2,U,161,108,Study,User,-,,Study/JOL,"Study Phase",3105,,,-1,-1,,,,1
w10024560_tlv,izk8mkznsk,Nick_Dissertation_EX1,1,77,2020-04-28T20:59:29-07:00,1.6166009902954,2,versionA_stim.csv,READVersionB.csv,"Read Version B","Dissertation, read only version B",PLANE,AIRCRAFT,Study2,B,129,141,Study,User,-,,Study/JOL,"Study Phase",1067,,,-1,-1,,,,1
w10024560_tlv,izk8mkznsk,Nick_Dissertation_EX1,1,78,2020-04-28T20:59:31-07:00,2.1188650131226,2,versionA_stim.csv,READVersionB.csv,"Read Version B","Dissertation, read only version B",SLEEP,NAP,Study2,B,134,176,Study,User,-,,Study/JOL,"Study Phase",1585,,,-1,-1,,,,1
w10024560_tlv,izk8mkznsk,Nick_Dissertation_EX1,1,79,2020-04-28T20:59:33-07:00,1.8623199462891,2,versionA_stim.csv,READVersionB.csv,"Read Version B","Dissertation, read only version B",MASON,JAR,Study2,S,138,163,Study,User,-,,Study/JOL,"Study Phase",1323,,,-1,-1,,,,1
w10024560_tlv,izk8mkznsk,Nick_Dissertation_EX1,1,80,2020-04-28T20:59:35-07:00,1.7235310077667,2,versionA_stim.csv,READVersionB.csv,"Read Version B","Dissertation, read only version B",WATER,DRINK,Study2,S,143,146,Study,User,-,,Study/JOL,"Study Phase",1174,,,-1,-1,,,,1
w10024560_tlv,izk8mkznsk,Nick_Dissertation_EX1,1,81,2020-04-28T20:59:36-07:00,1.6572749614716,2,versionA_stim.csv,READVersionB.csv,"Read Version B","Dissertation, read only version B",FRUIT,STRAWBERRY,Study2,B,124,159,Study,User,-,,Study/JOL,"Study Phase",1130,,,-1,-1,,,,1
w10024560_tlv,izk8mkznsk,Nick_Dissertation_EX1,1,82,2020-04-28T20:59:39-07:00,2.3147749900818,2,versionA_stim.csv,READVersionB.csv,"Read Version B","Dissertation, read only version B",GLASS,BREAKABLE,Study2,B,127,127,Study,User,-,,Study/JOL,"Study Phase",1746,,,-1,-1,,,,1
w10024560_tlv,izk8mkznsk,Nick_Dissertation_EX1,1,83,2020-04-28T20:59:41-07:00,2.3469429016113,2,versionA_stim.csv,READVersionB.csv,"Read Version B","Dissertation, read only version B",INCENSE,SMELL,Study2,F,110,137,Study,User,-,,Study/JOL,"Study Phase",1824,,,-1,-1,,,,1
w10024560_tlv,izk8mkznsk,Nick_Dissertation_EX1,1,84,2020-04-28T20:59:43-07:00,1.4751482009888,2,versionA_stim.csv,READVersionB.csv,"Read Version B","Dissertation, read only version B",BASEBALL,LEAGUE,Study2,B,131,106,Study,User,-,,Study/JOL,"Study Phase",925,,,-1,-1,,,,1
w10024560_tlv,izk8mkznsk,Nick_Dissertation_EX1,1,85,2020-04-28T20:59:44-07:00,1.8907837867737,2,versionA_stim.csv,READVersionB.csv,"Read Version B","Dissertation, read only version B",EXTENSION,LONG,Study2,F,96,101,Study,User,-,,Study/JOL,"Study Phase",1351,,,-1,-1,,,,1
w10024560_tlv,izk8mkznsk,Nick_Dissertation_EX1,1,86,2020-04-28T20:59:46-07:00,1.6973991394043,2,versionA_stim.csv,READVersionB.csv,"Read Version B","Dissertation, read only version B",MULE,DONKEY,Study2,F,108,132,Study,User,-,,Study/JOL,"Study Phase",1175,,,-1,-1,,,,1
w10024560_tlv,izk8mkznsk,Nick_Dissertation_EX1,1,87,2020-04-28T20:59:48-07:00,1.7018990516663,2,versionA_stim.csv,READVersionB.csv,"Read Version B","Dissertation, read only version B",DAYS,WEAKS,BUFFER4,Buffer,176,181,Study,User,-,,Study/JOL,BUFFER2,1149,,,-1,-1,,,,1
w10024560_tlv,izk8mkznsk,Nick_Dissertation_EX1,1,88,2020-04-28T20:59:50-07:00,1.8599188327789,2,versionA_stim.csv,READVersionB.csv,"Read Version B","Dissertation, read only version B",TOOL,SHED,BUFFER4,Buffer,178,179,Study,User,-,,Study/JOL,BUFFER2,1340,,,-1,-1,,,,1
w10024560_tlv,izk8mkznsk,Nick_Dissertation_EX1,1,89,2020-04-28T20:59:51-07:00,1.5025761127472,2,versionA_stim.csv,READVersionB.csv,"Read Version B","Dissertation, read only version B",OCTOBER,SPOOKY,BUFFER4,Buffer,180,177,Study,User,-,,Study/JOL,BUFFER2,978,,,-1,-1,,,,1
w10024560_tlv,izk8mkznsk,Nick_Dissertation_EX1,1,90,2020-04-28T20:59:52-07:00,1.1953029632568,2,versionA_stim.csv,READVersionB.csv,"Read Version B","Dissertation, read only version B",SPRING,MARCH,BUFFER4,Buffer,179,180,Study,User,-,,Study/JOL,BUFFER2,672,,,-1,-1,,,,1
w10024560_tlv,izk8mkznsk,Nick_Dissertation_EX1,1,91,2020-04-28T20:59:54-07:00,1.5621950626373,2,versionA_stim.csv,READVersionB.csv,"Read Version B","Dissertation, read only version B",MONTH,YEAR,BUFFER4,Buffer,177,178,Study,User,-,,Study/JOL,BUFFER2,1047,,,-1,-1,,,,1
w10024560_tlv,izk8mkznsk,Nick_Dissertation_EX1,1,92,2020-04-28T20:59:56-07:00,2.3598229885101,2,versionA_stim.csv,READVersionB.csv,"Read Version B","Dissertation, read only version B",,,,,,0,Instruct,User,-,"You have completed this section. Please press Enter.",Filler_Instruction,Instruct2,1833,,,-1,-1,,,,1
w10024560_tlv,izk8mkznsk,Nick_Dissertation_EX1,1,93,2020-04-28T21:01:57-07:00,120.62792396545,2,versionA_stim.csv,READVersionB.csv,"Read Version B","Dissertation, read only version B",,,,,,0,FreeRecall,120,120,"Please list the 50 US states in alphabetical order. The task will automatically advance to the next screen after two minutes.",,Filler1,120012,"Alabama Alaska Arizona Arkansas California Colorado Conneticut Delaware Georgia Hawaii Illionois Indiana Iowa Kansas",0,6099,118817,0,0,,1
w10024560_tlv,izk8mkznsk,Nick_Dissertation_EX1,1,94,2020-04-28T21:02:11-07:00,13.815076112747,2,versionA_stim.csv,READVersionB.csv,"Read Version B","Dissertation, read only version B",,,,,,0,Instruct,-,10,"You will now be presented with the first word from each of the previously studied item pairs. Please type the missing word. If you do not know the word, you may guess or press Enter to skip forward to the next pair.",,Instruct3,12869,,,-1,-1,,,,1
w10024560_tlv,izk8mkznsk,Nick_Dissertation_EX1,1,95,2020-04-28T21:02:20-07:00,9.047210931778,2,versionA_stim.csv,READVersionB.csv,"Read Version B","Dissertation, read only version B",CAR,WINDSHIELD,Study2,B,117,125,Test,User,-,,Recall,Recall1,8487,wash,42.857142857143,7293,7762,0,0,,1
w10024560_tlv,izk8mkznsk,Nick_Dissertation_EX1,1,96,2020-04-28T21:02:29-07:00,8.9705898761749,2,versionA_stim.csv,READVersionB.csv,"Read Version B","Dissertation, read only version B",SLEEP,NAP,Study2,B,134,176,Test,User,-,,Recall,Recall1,8390,bed,0,7968,8237,0,0,,1
w10024560_tlv,izk8mkznsk,Nick_Dissertation_EX1,1,97,2020-04-28T21:02:35-07:00,6.381942987442,2,versionA_stim.csv,READVersionB.csv,"Read Version B","Dissertation, read only version B",Shell,SHAKE,Study2,U,163,120,Test,User,-,,Recall,Recall1,5805,Shack,80,4368,5500,0,1,,1
w10024560_tlv,izk8mkznsk,Nick_Dissertation_EX1,1,98,2020-04-28T21:02:39-07:00,3.3981599807739,2,versionA_stim.csv,READVersionB.csv,"Read Version B","Dissertation, read only version B",TANTRUM,TEMPER,Study2,S,154,173,Test,User,-,,Recall,Recall1,2845,Temper,100,1364,2472,1,1,,1
w10024560_tlv,izk8mkznsk,Nick_Dissertation_EX1,1,99,2020-04-28T21:02:43-07:00,4.7095952033997,2,versionA_stim.csv,READVersionB.csv,"Read Version B","Dissertation, read only version B",BIRD,PENGUIN,Study2,B,119,104,Test,User,-,,Recall,Recall1,4163,Nest,18.181818181818,3310,4021,0,0,,1
w10024560_tlv,izk8mkznsk,Nick_Dissertation_EX1,1,100,2020-04-28T21:02:48-07:00,4.7089309692383,2,versionA_stim.csv,READVersionB.csv,"Read Version B","Dissertation, read only version B",CLUE,GAME,Study2,F,97,117,Test,User,-,,Recall,Recall1,4147,Guess,44.444444444444,2806,3856,0,0,,1
w10024560_tlv,izk8mkznsk,Nick_Dissertation_EX1,1,101,2020-04-28T21:02:51-07:00,3.3505449295044,2,versionA_stim.csv,READVersionB.csv,"Read Version B","Dissertation, read only version B",KEYS,JOKE,Study2,U,165,140,Test,User,-,,Recall,Recall1,2833,Car,0,1926,2461,0,0,,1
w10024560_tlv,izk8mkznsk,Nick_Dissertation_EX1,1,102,2020-04-28T21:02:55-07:00,3.7255389690399,2,versionA_stim.csv,READVersionB.csv,"Read Version B","Dissertation, read only version B",PHONE,COMMUNICATION,Study2,S,149,122,Test,User,-,,Recall,Recall1,3211,cell,11.764705882353,2422,3007,0,0,,1
w10024560_tlv,izk8mkznsk,Nick_Dissertation_EX1,1,103,2020-04-28T21:03:00-07:00,4.9260439872742,2,versionA_stim.csv,READVersionB.csv,"Read Version B","Dissertation, read only version B",GONE,AWAY,Study2,S,142,113,Test,User,-,,Recall,Recall1,4355,Away,100,3184,4058,1,1,,1
w10024560_tlv,izk8mkznsk,Nick_Dissertation_EX1,1,104,2020-04-28T21:03:04-07:00,4.1231479644775,2,versionA_stim.csv,READVersionB.csv,"Read Version B","Dissertation, read only version B",SUN,TAN,Study2,S,155,144,Test,User,-,,Recall,Recall1,3593,SEt,33.333333333333,3079,3439,0,0,,1
w10024560_tlv,izk8mkznsk,Nick_Dissertation_EX1,1,105,2020-04-28T21:03:10-07:00,6.3465240001678,2,versionA_stim.csv,READVersionB.csv,"Read Version B","Dissertation, read only version B",ROD,REEL,Study2,S,150,157,Test,User,-,,Recall,Recall1,5818,,0,-1,-1,0,0,,1
w10024560_tlv,izk8mkznsk,Nick_Dissertation_EX1,1,106,2020-04-28T21:03:14-07:00,3.2633500099182,2,versionA_stim.csv,READVersionB.csv,"Read Version B","Dissertation, read only version B",SHOELACE,TIE,Study2,F,99,110,Test,User,-,,Recall,Recall1,2708,Tie,100,1933,2393,1,1,,1
w10024560_tlv,izk8mkznsk,Nick_Dissertation_EX1,1,107,2020-04-28T21:03:19-07:00,5.06973695755,2,versionA_stim.csv,READVersionB.csv,"Read Version B","Dissertation, read only version B",FLEA,TICK,Study2,S,151,129,Test,User,-,,Recall,Recall1,4527,Tick,100,3642,4247,1,1,,1
w10024560_tlv,izk8mkznsk,Nick_Dissertation_EX1,1,108,2020-04-28T21:03:22-07:00,3.510968208313,2,versionA_stim.csv,READVersionB.csv,"Read Version B","Dissertation, read only version B",SHEARS,SCISSORS,Study2,F,112,118,Test,User,-,,Recall,Recall1,2973,Scissors,100,1293,2628,1,1,,1
w10024560_tlv,izk8mkznsk,Nick_Dissertation_EX1,1,109,2020-04-28T21:03:25-07:00,2.8926060199738,2,versionA_stim.csv,READVersionB.csv,"Read Version B","Dissertation, read only version B",CANDLE,WAX,Study2,S,139,98,Test,User,-,,Recall,Recall1,2377,Stick,0,1433,2083,0,0,,1
w10024560_tlv,izk8mkznsk,Nick_Dissertation_EX1,1,110,2020-04-28T21:03:27-07:00,2.0153789520264,2,versionA_stim.csv,READVersionB.csv,"Read Version B","Dissertation, read only version B",MAIN,SCAR,Study2,U,175,128,Test,User,-,,Recall,Recall1,1473,,0,-1,-1,0,0,,1
w10024560_tlv,izk8mkznsk,Nick_Dissertation_EX1,1,111,2020-04-28T21:03:29-07:00,1.813905954361,2,versionA_stim.csv,READVersionB.csv,"Read Version B","Dissertation, read only version B",DETECTIVE,MYSTERY,Study2,F,100,147,Test,User,-,,Recall,Recall1,1293,,0,-1,-1,0,0,,1
w10024560_tlv,izk8mkznsk,Nick_Dissertation_EX1,1,112,2020-04-28T21:03:35-07:00,6.0948350429535,2,versionA_stim.csv,READVersionB.csv,"Read Version B","Dissertation, read only version B",CAT,PANTHER,Study2,B,126,148,Test,User,-,,Recall,Recall1,5537,Panther,100,4212,5191,1,1,,1
w10024560_tlv,izk8mkznsk,Nick_Dissertation_EX1,1,113,2020-04-28T21:03:37-07:00,2.2627329826355,2,versionA_stim.csv,READVersionB.csv,"Read Version B","Dissertation, read only version B",BOTH,OUNCE,Study2,U,172,166,Test,User,-,,Recall,Recall1,1706,,0,-1,-1,0,0,,1
w10024560_tlv,izk8mkznsk,Nick_Dissertation_EX1,1,114,2020-04-28T21:03:42-07:00,4.1558790206909,2,versionA_stim.csv,READVersionB.csv,"Read Version B","Dissertation, read only version B",RAZOR,SHAVE,Study2,S,136,158,Test,User,-,,Recall,Recall1,3614,,0,-1,-1,0,0,,1
w10024560_tlv,izk8mkznsk,Nick_Dissertation_EX1,1,115,2020-04-28T21:03:44-07:00,1.9798548221588,2,versionA_stim.csv,READVersionB.csv,"Read Version B","Dissertation, read only version B",MAZE,ELECTION,Study2,U,159,155,Test,User,-,,Recall,Recall1,1440,,0,-1,-1,0,0,,1
w10024560_tlv,izk8mkznsk,Nick_Dissertation_EX1,1,116,2020-04-28T21:03:46-07:00,2.5494651794434,2,versionA_stim.csv,READVersionB.csv,"Read Version B","Dissertation, read only version B",MASON,JAR,Study2,S,138,163,Test,User,-,,Recall,Recall1,2025,Jar,100,1424,1823,1,1,,1
w10024560_tlv,izk8mkznsk,Nick_Dissertation_EX1,1,117,2020-04-28T21:03:48-07:00,1.7377359867096,2,versionA_stim.csv,READVersionB.csv,"Read Version B","Dissertation, read only version B",INCENSE,SMELL,Study2,F,110,137,Test,User,-,,Recall,Recall1,1174,,0,-1,-1,0,0,,1
w10024560_tlv,izk8mkznsk,Nick_Dissertation_EX1,1,118,2020-04-28T21:03:51-07:00,2.7167110443115,2,versionA_stim.csv,READVersionB.csv,"Read Version B","Dissertation, read only version B",LOUD,NOISE,Study2,S,152,119,Test,User,-,,Recall,Recall1,2160,Noise,100,1492,2004,1,1,,1
w10024560_tlv,izk8mkznsk,Nick_Dissertation_EX1,1,119,2020-04-28T21:03:55-07:00,4.6005299091339,2,versionA_stim.csv,READVersionB.csv,"Read Version B","Dissertation, read only version B",BAD,VILLAIN,Study2,B,118,150,Test,User,-,,Recall,Recall1,4083,Villian,85.714285714286,1385,3275,0,1,,1
w10024560_tlv,izk8mkznsk,Nick_Dissertation_EX1,1,120,2020-04-28T21:04:03-07:00,7.4688150882721,2,versionA_stim.csv,READVersionB.csv,"Read Version B","Dissertation, read only version B",MIRROR,CHILDREN,Study2,U,174,160,Test,User,-,,Recall,Recall1,6925,Justice,26.666666666667,4892,6090,0,0,,1
w10024560_tlv,izk8mkznsk,Nick_Dissertation_EX1,1,121,2020-04-28T21:04:06-07:00,3.0107338428497,2,versionA_stim.csv,READVersionB.csv,"Read Version B","Dissertation, read only version B",FEUD,FIGHT,Study2,F,113,99,Test,User,-,,Recall,Recall1,2437,brawl,0,1592,2140,0,0,,1
w10024560_tlv,izk8mkznsk,Nick_Dissertation_EX1,1,122,2020-04-28T21:04:08-07:00,2.8494231700897,2,versionA_stim.csv,READVersionB.csv,"Read Version B","Dissertation, read only version B",RIGHTS,EQUAL,Study2,S,137,136,Test,User,-,,Recall,Recall1,2313,equal,100,1142,2066,1,1,,1
w10024560_tlv,izk8mkznsk,Nick_Dissertation_EX1,1,123,2020-04-28T21:04:12-07:00,3.5528619289398,2,versionA_stim.csv,READVersionB.csv,"Read Version B","Dissertation, read only version B",LEASE,TOIL,Study2,U,170,115,Test,User,-,,Recall,Recall1,3000,,0,-1,-1,0,0,,1
w10024560_tlv,izk8mkznsk,Nick_Dissertation_EX1,1,124,2020-04-28T21:04:15-07:00,2.8875420093536,2,versionA_stim.csv,READVersionB.csv,"Read Version B","Dissertation, read only version B",CHOP,CUT,Study2,F,107,164,Test,User,-,,Recall,Recall1,2340,cut,100,1758,2053,1,1,,1
w10024560_tlv,izk8mkznsk,Nick_Dissertation_EX1,1,125,2020-04-28T21:04:17-07:00,2.3018438816071,2,versionA_stim.csv,READVersionB.csv,"Read Version B","Dissertation, read only version B",EVEN,REVENGE,Study2,B,122,123,Test,User,-,,Recall,Recall1,1778,,0,-1,-1,0,0,,1
w10024560_tlv,izk8mkznsk,Nick_Dissertation_EX1,1,126,2020-04-28T21:04:20-07:00,2.5773279666901,2,versionA_stim.csv,READVersionB.csv,"Read Version B","Dissertation, read only version B",NAME,HATE,Study2,U,167,121,Test,User,-,,Recall,Recall1,2041,,0,-1,-1,0,0,,1
w10024560_tlv,izk8mkznsk,Nick_Dissertation_EX1,1,127,2020-04-28T21:04:22-07:00,2.3128011226654,2,versionA_stim.csv,READVersionB.csv,"Read Version B","Dissertation, read only version B",DEAD,COFFIN,Study2,B,128,111,Test,User,-,,Recall,Recall1,1795,,0,-1,-1,0,0,,1
w10024560_tlv,izk8mkznsk,Nick_Dissertation_EX1,1,128,2020-04-28T21:04:24-07:00,1.6650800704956,2,versionA_stim.csv,READVersionB.csv,"Read Version B","Dissertation, read only version B",MONEY,BANKER,Study2,B,132,105,Test,User,-,,Recall,Recall1,1123,,0,-1,-1,0,0,,1
w10024560_tlv,izk8mkznsk,Nick_Dissertation_EX1,1,129,2020-04-28T21:04:27-07:00,3.3802919387817,2,versionA_stim.csv,READVersionB.csv,"Read Version B","Dissertation, read only version B",TURN,FLIP,Study2,B,116,107,Test,User,-,,Recall,Recall1,2846,flip,100,1950,2548,1,1,,1
w10024560_tlv,izk8mkznsk,Nick_Dissertation_EX1,1,130,2020-04-28T21:04:30-07:00,2.7942190170288,2,versionA_stim.csv,READVersionB.csv,"Read Version B","Dissertation, read only version B",CACTUS,PLANT,Study2,F,98,145,Test,User,-,,Recall,Recall1,2256,dry,0,1439,1961,0,0,,1
w10024560_tlv,izk8mkznsk,Nick_Dissertation_EX1,1,131,2020-04-28T21:04:32-07:00,2.4961760044098,2,versionA_stim.csv,READVersionB.csv,"Read Version B","Dissertation, read only version B",LOAN,SIGN,Study2,U,171,138,Test,User,-,,Recall,Recall1,1939,,0,-1,-1,0,0,,1
w10024560_tlv,izk8mkznsk,Nick_Dissertation_EX1,1,132,2020-04-28T21:04:38-07:00,5.8867418766022,2,versionA_stim.csv,READVersionB.csv,"Read Version B","Dissertation, read only version B",HONEST,TRUTHFUL,Study2,B,133,154,Test,User,-,,Recall,Recall1,5320,trustworthy,52.631578947368,1892,4708,0,0,,1
w10024560_tlv,izk8mkznsk,Nick_Dissertation_EX1,1,133,2020-04-28T21:04:42-07:00,3.6434781551361,2,versionA_stim.csv,READVersionB.csv,"Read Version B","Dissertation, read only version B",TRUTH,LIE,Study2,S,148,156,Test,User,-,,Recall,Recall1,3093,,0,-1,-1,0,0,,1
w10024560_tlv,izk8mkznsk,Nick_Dissertation_EX1,1,134,2020-04-28T21:04:54-07:00,11.718123912811,2,versionA_stim.csv,READVersionB.csv,"Read Version B","Dissertation, read only version B",DINE,EAT,Study2,F,111,168,Test,User,-,,Recall,Recall1,11130,,0,-1,-1,0,0,,1
w10024560_tlv,izk8mkznsk,Nick_Dissertation_EX1,1,135,2020-04-28T21:04:58-07:00,4.1580150127411,2,versionA_stim.csv,READVersionB.csv,"Read Version B","Dissertation, read only version B",GLASS,BREAKABLE,Study2,B,127,127,Test,User,-,,Recall,Recall1,3597,drink,28.571428571429,1454,3276,0,0,,1
w10024560_tlv,izk8mkznsk,Nick_Dissertation_EX1,1,136,2020-04-28T21:05:00-07:00,1.8293890953064,2,versionA_stim.csv,READVersionB.csv,"Read Version B","Dissertation, read only version B",EARTH,GROUND,Study2,S,144,114,Test,User,-,,Recall,Recall1,1285,,0,-1,-1,0,0,,1
w10024560_tlv,izk8mkznsk,Nick_Dissertation_EX1,1,137,2020-04-28T21:05:04-07:00,4.1867380142212,2,versionA_stim.csv,READVersionB.csv,"Read Version B","Dissertation, read only version B",JUSTICE,MAROON,Study2,U,156,97,Test,User,-,,Recall,Recall1,3661,,0,-1,-1,0,0,,1
w10024560_tlv,izk8mkznsk,Nick_Dissertation_EX1,1,138,2020-04-28T21:05:06-07:00,2.4198708534241,2,versionA_stim.csv,READVersionB.csv,"Read Version B","Dissertation, read only version B",DRY,WET,Study2,S,146,133,Test,User,-,,Recall,Recall1,1885,,0,-1,-1,0,0,,1
w10024560_tlv,izk8mkznsk,Nick_Dissertation_EX1,1,139,2020-04-28T21:05:09-07:00,2.718220949173,2,versionA_stim.csv,READVersionB.csv,"Read Version B","Dissertation, read only version B",DRIVER,CAR,Study2,F,106,169,Test,User,-,,Recall,Recall1,2130,,0,-1,-1,0,0,,1
w10024560_tlv,izk8mkznsk,Nick_Dissertation_EX1,1,140,2020-04-28T21:05:15-07:00,5.6749711036682,2,versionA_stim.csv,READVersionB.csv,"Read Version B","Dissertation, read only version B",FISH,SARDINE,Study2,B,130,152,Test,User,-,,Recall,Recall1,5025,shrimp,46.153846153846,3758,4651,0,0,,1
w10024560_tlv,izk8mkznsk,Nick_Dissertation_EX1,1,141,2020-04-28T21:05:17-07:00,2.6030290126801,2,versionA_stim.csv,READVersionB.csv,"Read Version B","Dissertation, read only version B",GIVE,STEAK,Study2,U,158,151,Test,User,-,,Recall,Recall1,2052,,0,-1,-1,0,0,,1
w10024560_tlv,izk8mkznsk,Nick_Dissertation_EX1,1,142,2020-04-28T21:05:20-07:00,2.6347780227661,2,versionA_stim.csv,READVersionB.csv,"Read Version B","Dissertation, read only version B",VEHICLE,CHARM,Study2,U,160,130,Test,User,-,,Recall,Recall1,2050,,0,-1,-1,0,0,,1
w10024560_tlv,izk8mkznsk,Nick_Dissertation_EX1,1,143,2020-04-28T21:05:21-07:00,1.5864999294281,2,versionA_stim.csv,READVersionB.csv,"Read Version B","Dissertation, read only version B",CAKE,CLOTHES,Study2,U,166,109,Test,User,-,,Recall,Recall1,1042,,0,-1,-1,0,0,,1
w10024560_tlv,izk8mkznsk,Nick_Dissertation_EX1,1,144,2020-04-28T21:05:24-07:00,2.0628609657288,2,versionA_stim.csv,READVersionB.csv,"Read Version B","Dissertation, read only version B",LISTEN,FICTION,Study2,U,164,134,Test,User,-,,Recall,Recall1,1520,,0,-1,-1,0,0,,1
w10024560_tlv,izk8mkznsk,Nick_Dissertation_EX1,1,145,2020-04-28T21:05:26-07:00,2.4327931404114,2,versionA_stim.csv,READVersionB.csv,"Read Version B","Dissertation, read only version B",PLANE,AIRCRAFT,Study2,B,129,141,Test,User,-,,Recall,Recall1,1894,,0,-1,-1,0,0,,1
w10024560_tlv,izk8mkznsk,Nick_Dissertation_EX1,1,146,2020-04-28T21:05:27-07:00,1.3912689685822,2,versionA_stim.csv,READVersionB.csv,"Read Version B","Dissertation, read only version B",ELEMENT,CARBON,Study2,S,141,172,Test,User,-,,Recall,Recall1,849,,0,-1,-1,0,0,,1
w10024560_tlv,izk8mkznsk,Nick_Dissertation_EX1,1,147,2020-04-28T21:05:29-07:00,1.7568180561066,2,versionA_stim.csv,READVersionB.csv,"Read Version B","Dissertation, read only version B",TEMPERATURE,Morning,Study2,U,173,174,Test,User,-,,Recall,Recall1,1215,,0,-1,-1,0,0,,1
w10024560_tlv,izk8mkznsk,Nick_Dissertation_EX1,1,148,2020-04-28T21:05:30-07:00,1.2902328968048,2,versionA_stim.csv,READVersionB.csv,"Read Version B","Dissertation, read only version B",MOAT,CLEAR,Study2,U,169,142,Test,User,-,,Recall,Recall1,760,,0,-1,-1,0,0,,1
w10024560_tlv,izk8mkznsk,Nick_Dissertation_EX1,1,149,2020-04-28T21:05:34-07:00,3.34210896492,2,versionA_stim.csv,READVersionB.csv,"Read Version B","Dissertation, read only version B",WRIST,BRACELET,Study2,S,140,143,Test,User,-,,Recall,Recall1,2802,bracelet,100,1523,2641,1,1,,1
w10024560_tlv,izk8mkznsk,Nick_Dissertation_EX1,1,150,2020-04-28T21:05:35-07:00,1.4779369831085,2,versionA_stim.csv,READVersionB.csv,"Read Version B","Dissertation, read only version B",STAR,ACTRESS,Study2,B,120,167,Test,User,-,,Recall,Recall1,935,,0,-1,-1,0,0,,1
w10024560_tlv,izk8mkznsk,Nick_Dissertation_EX1,1,151,2020-04-28T21:05:37-07:00,1.3373939990997,2,versionA_stim.csv,READVersionB.csv,"Read Version B","Dissertation, read only version B",OWN,HAVE,Study2,S,153,170,Test,User,-,,Recall,Recall1,801,,0,-1,-1,0,0,,1
w10024560_tlv,izk8mkznsk,Nick_Dissertation_EX1,1,152,2020-04-28T21:05:40-07:00,3.5420620441437,2,versionA_stim.csv,READVersionB.csv,"Read Version B","Dissertation, read only version B",BASEBALL,LEAGUE,Study2,B,131,106,Test,User,-,,Recall,Recall1,2967,league,100,1388,2532,1,1,,1
w10024560_tlv,izk8mkznsk,Nick_Dissertation_EX1,1,153,2020-04-28T21:05:42-07:00,2.1135520935059,2,versionA_stim.csv,READVersionB.csv,"Read Version B","Dissertation, read only version B",FUZZY,BANG,Study2,U,168,112,Test,User,-,,Recall,Recall1,1565,dog,28.571428571429,1076,1370,0,0,,1
w10024560_tlv,izk8mkznsk,Nick_Dissertation_EX1,1,154,2020-04-28T21:05:45-07:00,2.7294538021088,2,versionA_stim.csv,READVersionB.csv,"Read Version B","Dissertation, read only version B",LITTER,TRASH,Study2,F,103,149,Test,User,-,,Recall,Recall1,2211,trash,100,1218,1921,1,1,,1
w10024560_tlv,izk8mkznsk,Nick_Dissertation_EX1,1,155,2020-04-28T21:05:46-07:00,1.4641211032867,2,versionA_stim.csv,READVersionB.csv,"Read Version B","Dissertation, read only version B",DOCUMENT,PAPER,Study2,F,109,171,Test,User,-,,Recall,Recall1,927,,0,-1,-1,0,0,,1
w10024560_tlv,izk8mkznsk,Nick_Dissertation_EX1,1,156,2020-04-28T21:05:53-07:00,6.9006989002228,2,versionA_stim.csv,READVersionB.csv,"Read Version B","Dissertation, read only version B",POP,BALLOON,Study2,B,123,135,Test,User,-,,Recall,Recall1,6371,balloon,100,4942,6048,1,1,,1
w10024560_tlv,izk8mkznsk,Nick_Dissertation_EX1,1,157,2020-04-28T21:05:55-07:00,1.4206540584564,2,versionA_stim.csv,READVersionB.csv,"Read Version B","Dissertation, read only version B",SCALP,HEAD,Study2,F,105,126,Test,User,-,,Recall,Recall1,871,,0,-1,-1,0,0,,1
w10024560_tlv,izk8mkznsk,Nick_Dissertation_EX1,1,158,2020-04-28T21:05:57-07:00,2.124489068985,2,versionA_stim.csv,READVersionB.csv,"Read Version B","Dissertation, read only version B",AFFECTION,LOVE,Study2,F,115,103,Test,User,-,,Recall,Recall1,1598,love,100,1016,1395,1,1,,1
w10024560_tlv,izk8mkznsk,Nick_Dissertation_EX1,1,159,2020-04-28T21:06:00-07:00,3.4170150756836,2,versionA_stim.csv,READVersionB.csv,"Read Version B","Dissertation, read only version B",WATER,DRINK,Study2,S,143,146,Test,User,-,,Recall,Recall1,2884,drink,100,2135,2694,1,1,,1
w10024560_tlv,izk8mkznsk,Nick_Dissertation_EX1,1,160,2020-04-28T21:06:03-07:00,3.1970307826996,2,versionA_stim.csv,READVersionB.csv,"Read Version B","Dissertation, read only version B",FIGHT,BRAWL,Study2,B,135,100,Test,User,-,,Recall,Recall1,2662,brawl,100,1491,2098,1,1,,1
w10024560_tlv,izk8mkznsk,Nick_Dissertation_EX1,1,161,2020-04-28T21:06:06-07:00,2.4561800956726,2,versionA_stim.csv,READVersionB.csv,"Read Version B","Dissertation, read only version B",FURRY,DOG,Study2,F,102,153,Test,User,-,,Recall,Recall1,1909,dog,100,1171,1496,1,1,,1
w10024560_tlv,izk8mkznsk,Nick_Dissertation_EX1,1,162,2020-04-28T21:06:08-07:00,2.4980680942535,2,versionA_stim.csv,READVersionB.csv,"Read Version B","Dissertation, read only version B",SAFETY,SEATBELT,Study2,S,147,124,Test,User,-,,Recall,Recall1,1949,,0,-1,-1,0,0,,1
w10024560_tlv,izk8mkznsk,Nick_Dissertation_EX1,1,163,2020-04-28T21:06:12-07:00,3.8451628684998,2,versionA_stim.csv,READVersionB.csv,"Read Version B","Dissertation, read only version B",MULE,DONKEY,Study2,F,108,132,Test,User,-,,Recall,Recall1,3278,donkey,100,1164,2802,1,1,,1
w10024560_tlv,izk8mkznsk,Nick_Dissertation_EX1,1,164,2020-04-28T21:06:16-07:00,3.6059620380402,2,versionA_stim.csv,READVersionB.csv,"Read Version B","Dissertation, read only version B",CHILL,COLD,Study2,F,114,102,Test,User,-,,Recall,Recall1,3054,cold,100,1371,2882,1,1,,1
w10024560_tlv,izk8mkznsk,Nick_Dissertation_EX1,1,165,2020-04-28T21:06:18-07:00,2.4646310806274,2,versionA_stim.csv,READVersionB.csv,"Read Version B","Dissertation, read only version B",EXTENSION,LONG,Study2,F,96,101,Test,User,-,,Recall,Recall1,1924,long,100,1255,1701,1,1,,1
w10024560_tlv,izk8mkznsk,Nick_Dissertation_EX1,1,166,2020-04-28T21:06:22-07:00,3.2124059200287,2,versionA_stim.csv,READVersionB.csv,"Read Version B","Dissertation, read only version B",ADJOURN,END,Study2,F,101,175,Test,User,-,,Recall,Recall1,2683,,0,-1,-1,0,0,,1
w10024560_tlv,izk8mkznsk,Nick_Dissertation_EX1,1,167,2020-04-28T21:06:23-07:00,1.6719479560852,2,versionA_stim.csv,READVersionB.csv,"Read Version B","Dissertation, read only version B",MEAT,OBTAIN,Study2,U,161,108,Test,User,-,,Recall,Recall1,1100,,0,-1,-1,0,0,,1
w10024560_tlv,izk8mkznsk,Nick_Dissertation_EX1,1,168,2020-04-28T21:06:26-07:00,2.8297140598297,2,versionA_stim.csv,READVersionB.csv,"Read Version B","Dissertation, read only version B",BEST,FAVORITE,Study2,B,125,165,Test,User,-,,Recall,Recall1,2278,favorite,100,1063,1966,1,1,,1
w10024560_tlv,izk8mkznsk,Nick_Dissertation_EX1,1,169,2020-04-28T21:06:28-07:00,1.4628551006317,2,versionA_stim.csv,READVersionB.csv,"Read Version B","Dissertation, read only version B",FRUIT,STRAWBERRY,Study2,B,124,159,Test,User,-,,Recall,Recall1,922,,0,-1,-1,0,0,,1
w10024560_tlv,izk8mkznsk,Nick_Dissertation_EX1,1,170,2020-04-28T21:06:31-07:00,3.0002489089966,2,versionA_stim.csv,READVersionB.csv,"Read Version B","Dissertation, read only version B",THREAD,THIMBLE,Study2,B,121,139,Test,User,-,,Recall,Recall1,2454,needle,30.769230769231,1526,2299,0,0,,1
w10024560_tlv,izk8mkznsk,Nick_Dissertation_EX1,1,171,2020-04-28T21:06:34-07:00,3.2334899902344,2,versionA_stim.csv,READVersionB.csv,"Read Version B","Dissertation, read only version B",CHERRY,RED,Study2,F,104,161,Test,User,-,,Recall,Recall1,2672,red,100,2122,2407,1,1,,1
w10024560_tlv,izk8mkznsk,Nick_Dissertation_EX1,1,172,2020-04-28T21:06:38-07:00,3.8377170562744,2,versionA_stim.csv,READVersionB.csv,"Read Version B","Dissertation, read only version B",ALONE,LONELY,Study2,S,145,116,Test,User,-,,Recall,Recall1,3292,lonely,100,1782,2896,1,1,,1
w10024560_tlv,izk8mkznsk,Nick_Dissertation_EX1,1,173,2020-04-28T21:06:40-07:00,2.7748689651489,2,versionA_stim.csv,READVersionB.csv,"Read Version B","Dissertation, read only version B",CRACKLE,ABLE,Study2,U,162,162,Test,User,-,,Recall,Recall1,2227,able,100,1194,1949,1,1,,1
w10024560_tlv,izk8mkznsk,Nick_Dissertation_EX1,1,174,2020-04-28T21:06:42-07:00,1.9986989498138,2,versionA_stim.csv,READVersionB.csv,"Read Version B","Dissertation, read only version B",STRETCH,CLOTH,Study2,U,157,131,Test,User,-,,Recall,Recall1,1465,,0,-1,-1,0,0,,1
w10024560_tlv,izk8mkznsk,Nick_Dissertation_EX1,1,175,2020-04-28T21:06:53-07:00,11.084728956223,2,versionA_stim.csv,READVersionB.csv,"Read Version B","Dissertation, read only version B",,,,,,0,Instruct,-,10,"You will now be presented with a new set of word pairs. Please study each pair. Remember that your memory will be tested! When finished, press Enter to move to the next pair.",Initial_Instruct,Instruct4,10450,,,-1,-1,,,,1
w10024560_tlv,izk8mkznsk,Nick_Dissertation_EX1,1,176,2020-04-28T21:06:59-07:00,5.5771789550781,2,versionA_stim.csv,READVersionB.csv,"Read Version B","Dissertation, read only version B",SCARE,HIDE,BUFFER1,Buffer,4,6,Study,User,-,,Study/JOL,BUFFER3,5044,,,-1,-1,,,,1
w10024560_tlv,izk8mkznsk,Nick_Dissertation_EX1,1,177,2020-04-28T21:07:05-07:00,5.8036780357361,2,versionA_stim.csv,READVersionB.csv,"Read Version B","Dissertation, read only version B",TREES,GREEN,BUFFER1,Buffer,1,4,Study,User,-,,Study/JOL,BUFFER3,5246,,,-1,-1,,,,1
w10024560_tlv,izk8mkznsk,Nick_Dissertation_EX1,1,178,2020-04-28T21:07:14-07:00,9.2563481330872,2,versionA_stim.csv,READVersionB.csv,"Read Version B","Dissertation, read only version B",SPACE,JAM,BUFFER1,Buffer,5,3,Study,User,-,,Study/JOL,BUFFER3,8685,,,-1,-1,,,,1
w10024560_tlv,izk8mkznsk,Nick_Dissertation_EX1,1,179,2020-04-28T21:07:17-07:00,2.7983658313751,2,versionA_stim.csv,READVersionB.csv,"Read Version B","Dissertation, read only version B",PEANUT,BUTTER,BUFFER1,Buffer,3,5,Study,User,-,,Study/JOL,BUFFER3,2250,,,-1,-1,,,,1
w10024560_tlv,izk8mkznsk,Nick_Dissertation_EX1,1,180,2020-04-28T21:07:21-07:00,3.7030382156372,2,versionA_stim.csv,READVersionB.csv,"Read Version B","Dissertation, read only version B",BASEBALL,CATCHER,BUFFER1,Buffer,2,2,Study,User,-,,Study/JOL,BUFFER3,2940,,,-1,-1,,,,1
w10024560_tlv,izk8mkznsk,Nick_Dissertation_EX1,1,181,2020-04-28T21:07:24-07:00,3.2354958057404,2,versionA_stim.csv,READVersionB.csv,"Read Version B","Dissertation, read only version B",DRINK,SIP,Study1,B,27,41,Study,User,-,,Study/JOL,"Study Phase2",2684,,,-1,-1,,,,1
w10024560_tlv,izk8mkznsk,Nick_Dissertation_EX1,1,182,2020-04-28T21:07:27-07:00,3.5489931106567,2,versionA_stim.csv,READVersionB.csv,"Read Version B","Dissertation, read only version B",SMELL,STENCH,Study1,B,42,13,Study,User,-,,Study/JOL,"Study Phase2",2983,,,-1,-1,,,,1
w10024560_tlv,izk8mkznsk,Nick_Dissertation_EX1,1,183,2020-04-28T21:07:29-07:00,2.0838310718536,2,versionA_stim.csv,READVersionB.csv,"Read Version B","Dissertation, read only version B",HERD,COW,Study1,F,22,62,Study,User,-,,Study/JOL,"Study Phase2",1538,,,-1,-1,,,,1
w10024560_tlv,izk8mkznsk,Nick_Dissertation_EX1,1,184,2020-04-28T21:07:32-07:00,2.7614209651947,2,versionA_stim.csv,READVersionB.csv,"Read Version B","Dissertation, read only version B",WAY,OUT,Study1,F,16,82,Study,User,-,,Study/JOL,"Study Phase2",2202,,,-1,-1,,,,1
w10024560_tlv,izk8mkznsk,Nick_Dissertation_EX1,1,185,2020-04-28T21:07:35-07:00,2.3547179698944,2,versionA_stim.csv,READVersionB.csv,"Read Version B","Dissertation, read only version B",PLANE,PILOT,Study1,B,44,70,Study,User,-,,Study/JOL,"Study Phase2",1804,,,-1,-1,,,,1
w10024560_tlv,izk8mkznsk,Nick_Dissertation_EX1,1,186,2020-04-28T21:07:37-07:00,2.7796330451965,2,versionA_stim.csv,READVersionB.csv,"Read Version B","Dissertation, read only version B",DIGESTION,STOMACH,Study1,F,7,72,Study,User,-,,Study/JOL,"Study Phase2",2179,,,-1,-1,,,,1
w10024560_tlv,izk8mkznsk,Nick_Dissertation_EX1,1,187,2020-04-28T21:07:41-07:00,3.3945989608765,2,versionA_stim.csv,READVersionB.csv,"Read Version B","Dissertation, read only version B",HAPPY,CAR,Study1,U,77,7,Study,User,-,,Study/JOL,"Study Phase2",2623,,,-1,-1,,,,1
w10024560_tlv,izk8mkznsk,Nick_Dissertation_EX1,1,188,2020-04-28T21:07:44-07:00,3.5222020149231,2,versionA_stim.csv,READVersionB.csv,"Read Version B","Dissertation, read only version B",SWAN,BIRD,Study1,F,14,21,Study,User,-,,Study/JOL,"Study Phase2",2902,,,-1,-1,,,,1
w10024560_tlv,izk8mkznsk,Nick_Dissertation_EX1,1,189,2020-04-28T21:07:47-07:00,2.9284870624542,2,versionA_stim.csv,READVersionB.csv,"Read Version B","Dissertation, read only version B",BLOW,WIND,Study1,S,55,56,Study,User,-,,Study/JOL,"Study Phase2",2322,,,-1,-1,,,,1
w10024560_tlv,izk8mkznsk,Nick_Dissertation_EX1,1,190,2020-04-28T21:07:50-07:00,2.8405108451843,2,versionA_stim.csv,READVersionB.csv,"Read Version B","Dissertation, read only version B",FULL,ENOUGH,Study1,B,26,43,Study,User,-,,Study/JOL,"Study Phase2",2291,,,-1,-1,,,,1
w10024560_tlv,izk8mkznsk,Nick_Dissertation_EX1,1,191,2020-04-28T21:07:53-07:00,2.9120070934296,2,versionA_stim.csv,READVersionB.csv,"Read Version B","Dissertation, read only version B",ARTERY,BRONZE,Study1,U,74,86,Study,User,-,,Study/JOL,"Study Phase2",2350,,,-1,-1,,,,1
w10024560_tlv,izk8mkznsk,Nick_Dissertation_EX1,1,192,2020-04-28T21:07:56-07:00,2.7084980010986,2,versionA_stim.csv,READVersionB.csv,"Read Version B","Dissertation, read only version B",GEOLOGY,ROCK,Study1,F,19,18,Study,User,-,,Study/JOL,"Study Phase2",2169,,,-1,-1,,,,1
w10024560_tlv,izk8mkznsk,Nick_Dissertation_EX1,1,193,2020-04-28T21:07:59-07:00,3.2804789543152,2,versionA_stim.csv,READVersionB.csv,"Read Version B","Dissertation, read only version B",FIRE,BLAZE,Study1,B,45,76,Study,User,-,,Study/JOL,"Study Phase2",2732,,,-1,-1,,,,1
w10024560_tlv,izk8mkznsk,Nick_Dissertation_EX1,1,194,2020-04-28T21:08:07-07:00,7.8330149650574,2,versionA_stim.csv,READVersionB.csv,"Read Version B","Dissertation, read only version B",BITTER,COLD,Study1,F,12,57,Study,User,-,,Study/JOL,"Study Phase2",7300,,,-1,-1,,,,1
w10024560_tlv,izk8mkznsk,Nick_Dissertation_EX1,1,195,2020-04-28T21:08:11-07:00,4.2682650089264,2,versionA_stim.csv,READVersionB.csv,"Read Version B","Dissertation, read only version B",PARK,HUNGRY,Study1,U,68,61,Study,User,-,,Study/JOL,"Study Phase2",3729,,,-1,-1,,,,1
w10024560_tlv,izk8mkznsk,Nick_Dissertation_EX1,1,196,2020-04-28T21:08:19-07:00,7.4749870300293,2,versionA_stim.csv,READVersionB.csv,"Read Version B","Dissertation, read only version B",LETTUCE,SALAD,Study1,S,59,35,Study,User,-,,Study/JOL,"Study Phase2",6892,,,-1,-1,,,,1
w10024560_tlv,izk8mkznsk,Nick_Dissertation_EX1,1,197,2020-04-28T21:08:23-07:00,4.2540380954742,2,versionA_stim.csv,READVersionB.csv,"Read Version B","Dissertation, read only version B",BABY,CHILD,Study1,S,64,8,Study,User,-,,Study/JOL,"Study Phase2",3636,,,-1,-1,,,,1
w10024560_tlv,izk8mkznsk,Nick_Dissertation_EX1,1,198,2020-04-28T21:08:27-07:00,3.9064218997955,2,versionA_stim.csv,READVersionB.csv,"Read Version B","Dissertation, read only version B",GRILL,BAR,Study1,S,52,33,Study,User,-,,Study/JOL,"Study Phase2",3356,,,-1,-1,,,,1
w10024560_tlv,izk8mkznsk,Nick_Dissertation_EX1,1,199,2020-04-28T21:08:30-07:00,2.85586810112,2,versionA_stim.csv,READVersionB.csv,"Read Version B","Dissertation, read only version B",REVOLUTION,WAR,Study1,F,20,17,Study,User,-,,Study/JOL,"Study Phase2",2335,,,-1,-1,,,,1
w10024560_tlv,izk8mkznsk,Nick_Dissertation_EX1,1,200,2020-04-28T21:08:35-07:00,5.6157279014587,2,versionA_stim.csv,READVersionB.csv,"Read Version B","Dissertation, read only version B",SUGAR,RIDDLE,Study1,U,81,67,Study,User,-,,Study/JOL,"Study Phase2",5061,,,-1,-1,,,,1
w10024560_tlv,izk8mkznsk,Nick_Dissertation_EX1,1,201,2020-04-28T21:08:39-07:00,3.6532349586487,2,versionA_stim.csv,READVersionB.csv,"Read Version B","Dissertation, read only version B",FIX,HAND,Study1,U,75,85,Study,User,-,,Study/JOL,"Study Phase2",3118,,,-1,-1,,,,1
w10024560_tlv,izk8mkznsk,Nick_Dissertation_EX1,1,202,2020-04-28T21:08:43-07:00,4.0972530841827,2,versionA_stim.csv,READVersionB.csv,"Read Version B","Dissertation, read only version B",HEIGHT,GROWTH,Study1,B,30,81,Study,User,-,,Study/JOL,"Study Phase2",3529,,,-1,-1,,,,1
w10024560_tlv,izk8mkznsk,Nick_Dissertation_EX1,1,203,2020-04-28T21:08:47-07:00,3.8795959949493,2,versionA_stim.csv,READVersionB.csv,"Read Version B","Dissertation, read only version B",BRIDGE,WATER,Study1,F,18,42,Study,User,-,,Study/JOL,"Study Phase2",3332,,,-1,-1,,,,1
w10024560_tlv,izk8mkznsk,Nick_Dissertation_EX1,1,204,2020-04-28T21:08:50-07:00,3.1759600639343,2,versionA_stim.csv,READVersionB.csv,"Read Version B","Dissertation, read only version B",DARK,CAVE,Study1,B,28,44,Study,User,-,,Study/JOL,"Study Phase2",2605,,,-1,-1,,,,1
w10024560_tlv,izk8mkznsk,Nick_Dissertation_EX1,1,205,2020-04-28T21:08:52-07:00,2.5309247970581,2,versionA_stim.csv,READVersionB.csv,"Read Version B","Dissertation, read only version B",DEBATE,SIGHT,Study1,U,73,25,Study,User,-,,Study/JOL,"Study Phase2",1966,,,-1,-1,,,,1
w10024560_tlv,izk8mkznsk,Nick_Dissertation_EX1,1,206,2020-04-28T21:08:55-07:00,2.8875901699066,2,versionA_stim.csv,READVersionB.csv,"Read Version B","Dissertation, read only version B",LOCATION,SITE,Study1,S,48,26,Study,User,-,,Study/JOL,"Study Phase2",2235,,,-1,-1,,,,1
w10024560_tlv,izk8mkznsk,Nick_Dissertation_EX1,1,207,2020-04-28T21:08:58-07:00,2.6252698898315,2,versionA_stim.csv,READVersionB.csv,"Read Version B","Dissertation, read only version B",DUE,ASSIGNMENT,Study1,S,46,75,Study,User,-,,Study/JOL,"Study Phase2",2045,,,-1,-1,,,,1
w10024560_tlv,izk8mkznsk,Nick_Dissertation_EX1,1,208,2020-04-28T21:09:01-07:00,2.6865251064301,2,versionA_stim.csv,READVersionB.csv,"Read Version B","Dissertation, read only version B",HORNET,STING,Study1,F,11,46,Study,User,-,,Study/JOL,"Study Phase2",2139,,,-1,-1,,,,1
w10024560_tlv,izk8mkznsk,Nick_Dissertation_EX1,1,209,2020-04-28T21:09:03-07:00,2.3525748252869,2,versionA_stim.csv,READVersionB.csv,"Read Version B","Dissertation, read only version B",SHOE,FOOT,Study1,S,60,65,Study,User,-,,Study/JOL,"Study Phase2",1806,,,-1,-1,,,,1
w10024560_tlv,izk8mkznsk,Nick_Dissertation_EX1,1,210,2020-04-28T21:09:05-07:00,2.1520252227783,2,versionA_stim.csv,READVersionB.csv,"Read Version B","Dissertation, read only version B",PAST,FUTURE,Study1,S,61,20,Study,User,-,,Study/JOL,"Study Phase2",1598,,,-1,-1,,,,1
w10024560_tlv,izk8mkznsk,Nick_Dissertation_EX1,1,211,2020-04-28T21:09:07-07:00,1.8606748580933,2,versionA_stim.csv,READVersionB.csv,"Read Version B","Dissertation, read only version B",PAW,DOG,Study1,F,15,68,Study,User,-,,Study/JOL,"Study Phase2",1322,,,-1,-1,,,,1
w10024560_tlv,izk8mkznsk,Nick_Dissertation_EX1,1,212,2020-04-28T21:09:13-07:00,6.0020840167999,2,versionA_stim.csv,READVersionB.csv,"Read Version B","Dissertation, read only version B",PUSHER,CLUTTER,Study1,U,66,49,Study,User,-,,Study/JOL,"Study Phase2",5485,,,-1,-1,,,,1
w10024560_tlv,izk8mkznsk,Nick_Dissertation_EX1,1,213,2020-04-28T21:09:15-07:00,2.1327579021454,2,versionA_stim.csv,READVersionB.csv,"Read Version B","Dissertation, read only version B",DUMP,WASTE,Study1,S,49,31,Study,User,-,,Study/JOL,"Study Phase2",1576,,,-1,-1,,,,1
w10024560_tlv,izk8mkznsk,Nick_Dissertation_EX1,1,214,2020-04-28T21:09:17-07:00,2.2282299995422,2,versionA_stim.csv,READVersionB.csv,"Read Version B","Dissertation, read only version B",BEGIN,END,Study1,S,54,16,Study,User,-,,Study/JOL,"Study Phase2",1629,,,-1,-1,,,,1
w10024560_tlv,izk8mkznsk,Nick_Dissertation_EX1,1,215,2020-04-28T21:09:20-07:00,2.5215780735016,2,versionA_stim.csv,READVersionB.csv,"Read Version B","Dissertation, read only version B",BUG,WASP,Study1,B,32,45,Study,User,-,,Study/JOL,"Study Phase2",1905,,,-1,-1,,,,1
w10024560_tlv,izk8mkznsk,Nick_Dissertation_EX1,1,216,2020-04-28T21:09:23-07:00,2.5715429782867,2,versionA_stim.csv,READVersionB.csv,"Read Version B","Dissertation, read only version B",DEATH,BUSINESS,Study1,U,72,84,Study,User,-,,Study/JOL,"Study Phase2",2038,,,-1,-1,,,,1
w10024560_tlv,izk8mkznsk,Nick_Dissertation_EX1,1,217,2020-04-28T21:09:25-07:00,2.7483069896698,2,versionA_stim.csv,READVersionB.csv,"Read Version B","Dissertation, read only version B",WORK,CHORE,Study1,B,39,39,Study,User,-,,Study/JOL,"Study Phase2",2200,,,-1,-1,,,,1
w10024560_tlv,izk8mkznsk,Nick_Dissertation_EX1,1,218,2020-04-28T21:09:27-07:00,2.1546339988708,2,versionA_stim.csv,READVersionB.csv,"Read Version B","Dissertation, read only version B",DISCUSSION,TALK,Study1,F,21,66,Study,User,-,,Study/JOL,"Study Phase2",1603,,,-1,-1,,,,1
w10024560_tlv,izk8mkznsk,Nick_Dissertation_EX1,1,219,2020-04-28T21:09:29-07:00,1.925822019577,2,versionA_stim.csv,READVersionB.csv,"Read Version B","Dissertation, read only version B",DISCOVER,FLOOR,Study1,U,71,60,Study,User,-,,Study/JOL,"Study Phase2",1387,,,-1,-1,,,,1
w10024560_tlv,izk8mkznsk,Nick_Dissertation_EX1,1,220,2020-04-28T21:09:33-07:00,3.345253944397,2,versionA_stim.csv,READVersionB.csv,"Read Version B","Dissertation, read only version B",TAKE,SEIZE,Study1,B,29,71,Study,User,-,,Study/JOL,"Study Phase2",2806,,,-1,-1,,,,1
w10024560_tlv,izk8mkznsk,Nick_Dissertation_EX1,1,221,2020-04-28T21:09:36-07:00,2.9607801437378,2,versionA_stim.csv,READVersionB.csv,"Read Version B","Dissertation, read only version B",CIRCLE,ROUND,Study1,S,65,78,Study,User,-,,Study/JOL,"Study Phase2",2396,,,-1,-1,,,,1
w10024560_tlv,izk8mkznsk,Nick_Dissertation_EX1,1,222,2020-04-28T21:09:38-07:00,2.7453460693359,2,versionA_stim.csv,READVersionB.csv,"Read Version B","Dissertation, read only version B",MACHINE,POSITION,Study1,U,76,27,Study,User,-,,Study/JOL,"Study Phase2",2194,,,-1,-1,,,,1
w10024560_tlv,izk8mkznsk,Nick_Dissertation_EX1,1,223,2020-04-28T21:09:42-07:00,3.4475908279419,2,versionA_stim.csv,READVersionB.csv,"Read Version B","Dissertation, read only version B",CHISEL,HAMMER,Study1,F,9,36,Study,User,-,,Study/JOL,"Study Phase2",2902,,,-1,-1,,,,1
w10024560_tlv,izk8mkznsk,Nick_Dissertation_EX1,1,224,2020-04-28T21:09:44-07:00,2.063775062561,2,versionA_stim.csv,READVersionB.csv,"Read Version B","Dissertation, read only version B",LIFT,WOMAN,Study1,U,69,83,Study,User,-,,Study/JOL,"Study Phase2",1477,,,-1,-1,,,,1
w10024560_tlv,izk8mkznsk,Nick_Dissertation_EX1,1,225,2020-04-28T21:09:46-07:00,2.3935530185699,2,versionA_stim.csv,READVersionB.csv,"Read Version B","Dissertation, read only version B",TUNA,FISH,Study1,F,25,15,Study,User,-,,Study/JOL,"Study Phase2",1587,,,-1,-1,,,,1
w10024560_tlv,izk8mkznsk,Nick_Dissertation_EX1,1,226,2020-04-28T21:09:48-07:00,1.6946060657501,2,versionA_stim.csv,READVersionB.csv,"Read Version B","Dissertation, read only version B",HYGIENE,CLEAN,Study1,F,17,69,Study,User,-,,Study/JOL,"Study Phase2",1066,,,-1,-1,,,,1
w10024560_tlv,izk8mkznsk,Nick_Dissertation_EX1,1,227,2020-04-28T21:09:50-07:00,2.4501190185547,2,versionA_stim.csv,READVersionB.csv,"Read Version B","Dissertation, read only version B",ROOT,PLANT,Study1,F,13,50,Study,User,-,,Study/JOL,"Study Phase2",1888,,,-1,-1,,,,1
w10024560_tlv,izk8mkznsk,Nick_Dissertation_EX1,1,228,2020-04-28T21:09:53-07:00,2.4419188499451,2,versionA_stim.csv,READVersionB.csv,"Read Version B","Dissertation, read only version B",WINE,CHEESE,Study1,S,57,38,Study,User,-,,Study/JOL,"Study Phase2",1894,,,-1,-1,,,,1
w10024560_tlv,izk8mkznsk,Nick_Dissertation_EX1,1,229,2020-04-28T21:09:55-07:00,2.397805929184,2,versionA_stim.csv,READVersionB.csv,"Read Version B","Dissertation, read only version B",POP,SODA,Study1,S,56,80,Study,User,-,,Study/JOL,"Study Phase2",1859,,,-1,-1,,,,1
w10024560_tlv,izk8mkznsk,Nick_Dissertation_EX1,1,230,2020-04-28T21:09:58-07:00,3.1570620536804,2,versionA_stim.csv,READVersionB.csv,"Read Version B","Dissertation, read only version B",HONEY,BEE,Study1,S,63,48,Study,User,-,,Study/JOL,"Study Phase2",2642,,,-1,-1,,,,1
w10024560_tlv,izk8mkznsk,Nick_Dissertation_EX1,1,231,2020-04-28T21:10:01-07:00,2.6305179595947,2,versionA_stim.csv,READVersionB.csv,"Read Version B","Dissertation, read only version B",LAW,ATTORNEY,Study1,B,34,10,Study,User,-,,Study/JOL,"Study Phase2",2077,,,-1,-1,,,,1
w10024560_tlv,izk8mkznsk,Nick_Dissertation_EX1,1,232,2020-04-28T21:10:03-07:00,2.2980401515961,2,versionA_stim.csv,READVersionB.csv,"Read Version B","Dissertation, read only version B",HUNGER,FAMINE,Study1,B,40,11,Study,User,-,,Study/JOL,"Study Phase2",1751,,,-1,-1,,,,1
w10024560_tlv,izk8mkznsk,Nick_Dissertation_EX1,1,233,2020-04-28T21:10:06-07:00,2.2761158943176,2,versionA_stim.csv,READVersionB.csv,"Read Version B","Dissertation, read only version B",KIDNEY,LIVER,Study1,S,53,59,Study,User,-,,Study/JOL,"Study Phase2",1720,,,-1,-1,,,,1
w10024560_tlv,izk8mkznsk,Nick_Dissertation_EX1,1,234,2020-04-28T21:10:08-07:00,2.4388210773468,2,versionA_stim.csv,READVersionB.csv,"Read Version B","Dissertation, read only version B",WAGE,MONEY,Study1,F,8,37,Study,User,-,,Study/JOL,"Study Phase2",1882,,,-1,-1,,,,1
w10024560_tlv,izk8mkznsk,Nick_Dissertation_EX1,1,235,2020-04-28T21:10:10-07:00,1.9424118995667,2,versionA_stim.csv,READVersionB.csv,"Read Version B","Dissertation, read only version B",KING,VASE,Study1,U,85,24,Study,User,-,,Study/JOL,"Study Phase2",1422,,,-1,-1,,,,1
w10024560_tlv,izk8mkznsk,Nick_Dissertation_EX1,1,236,2020-04-28T21:10:12-07:00,2.3993079662323,2,versionA_stim.csv,READVersionB.csv,"Read Version B","Dissertation, read only version B",SENTENCE,WORD,Study1,B,31,52,Study,User,-,,Study/JOL,"Study Phase2",1850,,,-1,-1,,,,1
w10024560_tlv,izk8mkznsk,Nick_Dissertation_EX1,1,237,2020-04-28T21:10:14-07:00,1.5642991065979,2,versionA_stim.csv,READVersionB.csv,"Read Version B","Dissertation, read only version B",CREDIT,CARD,Study1,F,23,63,Study,User,-,,Study/JOL,"Study Phase2",1042,,,-1,-1,,,,1
w10024560_tlv,izk8mkznsk,Nick_Dissertation_EX1,1,238,2020-04-28T21:10:17-07:00,3.4327039718628,2,versionA_stim.csv,READVersionB.csv,"Read Version B","Dissertation, read only version B",BALL,RACKET,Study1,B,38,30,Study,User,-,,Study/JOL,"Study Phase2",2893,,,-1,-1,,,,1
w10024560_tlv,izk8mkznsk,Nick_Dissertation_EX1,1,239,2020-04-28T21:10:21-07:00,3.3147790431976,2,versionA_stim.csv,READVersionB.csv,"Read Version B","Dissertation, read only version B",SOON,BELT,Study1,U,70,29,Study,User,-,,Study/JOL,"Study Phase2",2720,,,-1,-1,,,,1
w10024560_tlv,izk8mkznsk,Nick_Dissertation_EX1,1,240,2020-04-28T21:10:23-07:00,2.752259016037,2,versionA_stim.csv,READVersionB.csv,"Read Version B","Dissertation, read only version B",CASH,WOULD,Study1,U,83,58,Study,User,-,,Study/JOL,"Study Phase2",2200,,,-1,-1,,,,1
w10024560_tlv,izk8mkznsk,Nick_Dissertation_EX1,1,241,2020-04-28T21:10:26-07:00,2.5468978881836,2,versionA_stim.csv,READVersionB.csv,"Read Version B","Dissertation, read only version B",ART,LION,Study1,U,79,51,Study,User,-,,Study/JOL,"Study Phase2",2009,,,-1,-1,,,,1
w10024560_tlv,izk8mkznsk,Nick_Dissertation_EX1,1,242,2020-04-28T21:10:29-07:00,2.5390160083771,2,versionA_stim.csv,READVersionB.csv,"Read Version B","Dissertation, read only version B",GREAT,FANTASTIC,Study1,B,35,74,Study,User,-,,Study/JOL,"Study Phase2",2000,,,-1,-1,,,,1
w10024560_tlv,izk8mkznsk,Nick_Dissertation_EX1,1,243,2020-04-28T21:10:30-07:00,1.6796731948853,2,versionA_stim.csv,READVersionB.csv,"Read Version B","Dissertation, read only version B",TRIAL,JURY,Study1,S,50,9,Study,User,-,,Study/JOL,"Study Phase2",1128,,,-1,-1,,,,1
w10024560_tlv,izk8mkznsk,Nick_Dissertation_EX1,1,244,2020-04-28T21:10:33-07:00,2.5061810016632,2,versionA_stim.csv,READVersionB.csv,"Read Version B","Dissertation, read only version B",HOT,CHILI,Study1,B,37,40,Study,User,-,,Study/JOL,"Study Phase2",1956,,,-1,-1,,,,1
w10024560_tlv,izk8mkznsk,Nick_Dissertation_EX1,1,245,2020-04-28T21:10:36-07:00,2.9939708709717,2,versionA_stim.csv,READVersionB.csv,"Read Version B","Dissertation, read only version B",DIETARY,SACKING,Study1,U,67,32,Study,User,-,,Study/JOL,"Study Phase2",2446,,,-1,-1,,,,1
w10024560_tlv,izk8mkznsk,Nick_Dissertation_EX1,1,246,2020-04-28T21:10:38-07:00,2.6499419212341,2,versionA_stim.csv,READVersionB.csv,"Read Version B","Dissertation, read only version B",SLEEP,DROWSY,Study1,B,41,55,Study,User,-,,Study/JOL,"Study Phase2",2096,,,-1,-1,,,,1
w10024560_tlv,izk8mkznsk,Nick_Dissertation_EX1,1,247,2020-04-28T21:10:41-07:00,2.8873820304871,2,versionA_stim.csv,READVersionB.csv,"Read Version B","Dissertation, read only version B",MATH,DIVISION,Study1,B,33,34,Study,User,-,,Study/JOL,"Study Phase2",2340,,,-1,-1,,,,1
w10024560_tlv,izk8mkznsk,Nick_Dissertation_EX1,1,248,2020-04-28T21:10:44-07:00,2.6796450614929,2,versionA_stim.csv,READVersionB.csv,"Read Version B","Dissertation, read only version B",CLOTHES,ATTIRE,Study1,B,43,23,Study,User,-,,Study/JOL,"Study Phase2",2142,,,-1,-1,,,,1
w10024560_tlv,izk8mkznsk,Nick_Dissertation_EX1,1,249,2020-04-28T21:10:46-07:00,2.3909170627594,2,versionA_stim.csv,READVersionB.csv,"Read Version B","Dissertation, read only version B",EDITOR,NEWS,Study1,F,10,64,Study,User,-,,Study/JOL,"Study Phase2",1802,,,-1,-1,,,,1
w10024560_tlv,izk8mkznsk,Nick_Dissertation_EX1,1,250,2020-04-28T21:10:49-07:00,2.4280488491058,2,versionA_stim.csv,READVersionB.csv,"Read Version B","Dissertation, read only version B",HIDE,SICK,Study1,U,84,79,Study,User,-,,Study/JOL,"Study Phase2",1876,,,-1,-1,,,,1
w10024560_tlv,izk8mkznsk,Nick_Dissertation_EX1,1,251,2020-04-28T21:10:55-07:00,6.2831950187683,2,versionA_stim.csv,READVersionB.csv,"Read Version B","Dissertation, read only version B",ARCHITECTURE,DESIGN,Study1,S,51,73,Study,User,-,,Study/JOL,"Study Phase2",5701,,,-1,-1,,,,1
w10024560_tlv,izk8mkznsk,Nick_Dissertation_EX1,1,252,2020-04-28T21:10:58-07:00,2.860466003418,2,versionA_stim.csv,READVersionB.csv,"Read Version B","Dissertation, read only version B",KEY,LATCH,Study1,B,36,19,Study,User,-,,Study/JOL,"Study Phase2",2286,,,-1,-1,,,,1
w10024560_tlv,izk8mkznsk,Nick_Dissertation_EX1,1,253,2020-04-28T21:11:00-07:00,2.5084021091461,2,versionA_stim.csv,READVersionB.csv,"Read Version B","Dissertation, read only version B",NUMBER,AMOUNT,Study1,S,47,28,Study,User,-,,Study/JOL,"Study Phase2",1975,,,-1,-1,,,,1
w10024560_tlv,izk8mkznsk,Nick_Dissertation_EX1,1,254,2020-04-28T21:11:03-07:00,2.6372220516205,2,versionA_stim.csv,READVersionB.csv,"Read Version B","Dissertation, read only version B",DELINQUENT,BAD,Study1,F,6,54,Study,User,-,,Study/JOL,"Study Phase2",2082,,,-1,-1,,,,1
w10024560_tlv,izk8mkznsk,Nick_Dissertation_EX1,1,255,2020-04-28T21:11:05-07:00,2.2227458953857,2,versionA_stim.csv,READVersionB.csv,"Read Version B","Dissertation, read only version B",MEANING,DEFINITION,Study1,S,62,22,Study,User,-,,Study/JOL,"Study Phase2",1628,,,-1,-1,,,,1
w10024560_tlv,izk8mkznsk,Nick_Dissertation_EX1,1,256,2020-04-28T21:11:08-07:00,2.6601068973541,2,versionA_stim.csv,READVersionB.csv,"Read Version B","Dissertation, read only version B",BATHROOM,TOILET,Study1,S,58,47,Study,User,-,,Study/JOL,"Study Phase2",2066,,,-1,-1,,,,1
w10024560_tlv,izk8mkznsk,Nick_Dissertation_EX1,1,257,2020-04-28T21:11:10-07:00,2.5237190723419,2,versionA_stim.csv,READVersionB.csv,"Read Version B","Dissertation, read only version B",STRONG,ACCIDENT,Study1,U,80,12,Study,User,-,,Study/JOL,"Study Phase2",1966,,,-1,-1,,,,1
w10024560_tlv,izk8mkznsk,Nick_Dissertation_EX1,1,258,2020-04-28T21:11:13-07:00,2.2914550304413,2,versionA_stim.csv,READVersionB.csv,"Read Version B","Dissertation, read only version B",ORCHID,FLOWER,Study1,F,24,14,Study,User,-,,Study/JOL,"Study Phase2",1763,,,-1,-1,,,,1
w10024560_tlv,izk8mkznsk,Nick_Dissertation_EX1,1,259,2020-04-28T21:11:15-07:00,2.6228640079498,2,versionA_stim.csv,READVersionB.csv,"Read Version B","Dissertation, read only version B",ALLOW,TUCK,Study1,U,78,53,Study,User,-,,Study/JOL,"Study Phase2",2085,,,-1,-1,,,,1
w10024560_tlv,izk8mkznsk,Nick_Dissertation_EX1,1,260,2020-04-28T21:11:18-07:00,2.8752150535583,2,versionA_stim.csv,READVersionB.csv,"Read Version B","Dissertation, read only version B",VALLEY,ADD,Study1,U,82,77,Study,User,-,,Study/JOL,"Study Phase2",2323,,,-1,-1,,,,1
w10024560_tlv,izk8mkznsk,Nick_Dissertation_EX1,1,261,2020-04-28T21:11:21-07:00,2.460991859436,2,versionA_stim.csv,READVersionB.csv,"Read Version B","Dissertation, read only version B",THING,STUFF,BUFFER2,Buffer,90,87,Study,User,-,,Study/JOL,BUFFER4,1911,,,-1,-1,,,,1
w10024560_tlv,izk8mkznsk,Nick_Dissertation_EX1,1,262,2020-04-28T21:11:24-07:00,2.9180881977081,2,versionA_stim.csv,READVersionB.csv,"Read Version B","Dissertation, read only version B",SHERRIF,POLICE,BUFFER2,Buffer,87,91,Study,User,-,,Study/JOL,BUFFER4,2355,,,-1,-1,,,,1
w10024560_tlv,izk8mkznsk,Nick_Dissertation_EX1,1,263,2020-04-28T21:11:26-07:00,2.7852408885956,2,versionA_stim.csv,READVersionB.csv,"Read Version B","Dissertation, read only version B",MOON,SPACE,BUFFER2,Buffer,89,89,Study,User,-,,Study/JOL,BUFFER4,2211,,,-1,-1,,,,1
w10024560_tlv,izk8mkznsk,Nick_Dissertation_EX1,1,264,2020-04-28T21:11:29-07:00,2.1238610744476,2,versionA_stim.csv,READVersionB.csv,"Read Version B","Dissertation, read only version B",GEESE,GOOSE,BUFFER2,Buffer,86,88,Study,User,-,,Study/JOL,BUFFER4,1567,,,-1,-1,,,,1
w10024560_tlv,izk8mkznsk,Nick_Dissertation_EX1,1,265,2020-04-28T21:11:32-07:00,3.3521478176117,2,versionA_stim.csv,READVersionB.csv,"Read Version B","Dissertation, read only version B",MALT,CHOCOLATE,BUFFER2,Buffer,88,90,Study,User,-,,Study/JOL,BUFFER4,2778,,,-1,-1,,,,1
w10024560_tlv,izk8mkznsk,Nick_Dissertation_EX1,1,266,2020-04-28T21:11:33-07:00,1.5240180492401,2,versionA_stim.csv,READVersionB.csv,"Read Version B","Dissertation, read only version B",,,,,,0,Instruct,User,-,"You have completed this section. Please press Enter.",Filler_Instruction,Instruct5,967,,,-1,-1,,,,1
w10024560_tlv,izk8mkznsk,Nick_Dissertation_EX1,1,267,2020-04-28T21:13:34-07:00,120.65187096596,2,versionA_stim.csv,READVersionB.csv,"Read Version B","Dissertation, read only version B",,,,,,0,FreeRecall,120,120,"Please list the 50 US states in reverse alphabetical order (z - a). The task will automatically advance to the next screen after two minutes.",,Filler2,120002,"Wyoming West Virgina Wisconson WAshington Virgina Utah Texas Tennesseee South Dakota Pennsylvania Oregon Oklahoma Ohio North dakota North Carolina New York New Mexico New Jersey New Hampshire Nevada Montana Missouri Mis",0,16064,119960,0,0,,1
w10024560_tlv,izk8mkznsk,Nick_Dissertation_EX1,1,268,2020-04-28T21:13:48-07:00,14.382878065109,2,versionA_stim.csv,READVersionB.csv,"Read Version B","Dissertation, read only version B",,,,,,0,Instruct,-,10,"You will now be presented with the first word from each of the previously studied item pairs. Please type the missing word. If you do not know the word, you may guess or press Enter to skip forward to the next pair.",,Instruct6,13407,,,-1,-1,,,,1
w10024560_tlv,izk8mkznsk,Nick_Dissertation_EX1,1,269,2020-04-28T21:13:53-07:00,4.1778500080109,2,versionA_stim.csv,READVersionB.csv,"Read Version B","Dissertation, read only version B",WAY,OUT,Study1,F,16,82,Test,User,-,,Recall,Recall2,3634,Our,66.666666666667,2961,3436,0,0,,1
w10024560_tlv,izk8mkznsk,Nick_Dissertation_EX1,1,270,2020-04-28T21:13:56-07:00,3.5327529907227,2,versionA_stim.csv,READVersionB.csv,"Read Version B","Dissertation, read only version B",DEATH,BUSINESS,Study1,U,72,84,Test,User,-,,Recall,Recall2,2963,,0,-1,-1,0,0,,1
w10024560_tlv,izk8mkznsk,Nick_Dissertation_EX1,1,271,2020-04-28T21:13:59-07:00,2.7343130111694,2,versionA_stim.csv,READVersionB.csv,"Read Version B","Dissertation, read only version B",DISCUSSION,TALK,Study1,F,21,66,Test,User,-,,Recall,Recall2,2194,Talk,100,1257,1859,1,1,,1
w10024560_tlv,izk8mkznsk,Nick_Dissertation_EX1,1,272,2020-04-28T21:14:02-07:00,3.3373119831085,2,versionA_stim.csv,READVersionB.csv,"Read Version B","Dissertation, read only version B",KING,VASE,Study1,U,85,24,Test,User,-,,Recall,Recall2,2790,,0,-1,-1,0,0,,1
w10024560_tlv,izk8mkznsk,Nick_Dissertation_EX1,1,273,2020-04-28T21:14:07-07:00,5.0444810390472,2,versionA_stim.csv,READVersionB.csv,"Read Version B","Dissertation, read only version B",EDITOR,NEWS,Study1,F,10,64,Test,User,-,,Recall,Recall2,3988,Newspaper,61.538461538462,1966,3821,0,0,,1
w10024560_tlv,izk8mkznsk,Nick_Dissertation_EX1,1,274,2020-04-28T21:14:10-07:00,2.8344299793243,2,versionA_stim.csv,READVersionB.csv,"Read Version B","Dissertation, read only version B",ROOT,PLANT,Study1,F,13,50,Test,User,-,,Recall,Recall2,2272,Plant,100,1140,1992,1,1,,1
w10024560_tlv,izk8mkznsk,Nick_Dissertation_EX1,1,275,2020-04-28T21:14:13-07:00,3.0254230499268,2,versionA_stim.csv,READVersionB.csv,"Read Version B","Dissertation, read only version B",LETTUCE,SALAD,Study1,S,59,35,Test,User,-,,Recall,Recall2,2458,Salad,100,1400,2090,1,1,,1
w10024560_tlv,izk8mkznsk,Nick_Dissertation_EX1,1,276,2020-04-28T21:14:16-07:00,2.7389600276947,2,versionA_stim.csv,READVersionB.csv,"Read Version B","Dissertation, read only version B",DELINQUENT,BAD,Study1,F,6,54,Test,User,-,,Recall,Recall2,2168,Bad,100,1334,1890,1,1,,1
w10024560_tlv,izk8mkznsk,Nick_Dissertation_EX1,1,277,2020-04-28T21:14:20-07:00,4.407567024231,2,versionA_stim.csv,READVersionB.csv,"Read Version B","Dissertation, read only version B",LIFT,WOMAN,Study1,U,69,83,Test,User,-,,Recall,Recall2,3822,Woman,100,2796,3379,1,1,,1
w10024560_tlv,izk8mkznsk,Nick_Dissertation_EX1,1,278,2020-04-28T21:14:24-07:00,3.5652840137482,2,versionA_stim.csv,READVersionB.csv,"Read Version B","Dissertation, read only version B",DIGESTION,STOMACH,Study1,F,7,72,Test,User,-,,Recall,Recall2,3033,Stomach,100,1250,2791,1,1,,1
w10024560_tlv,izk8mkznsk,Nick_Dissertation_EX1,1,279,2020-04-28T21:14:32-07:00,8.0953547954559,2,versionA_stim.csv,READVersionB.csv,"Read Version B","Dissertation, read only version B",HORNET,STING,Study1,F,11,46,Test,User,-,,Recall,Recall2,7532,Sting,100,2442,4427,1,1,,1
w10024560_tlv,izk8mkznsk,Nick_Dissertation_EX1,1,280,2020-04-28T21:14:43-07:00,11.165394067764,2,versionA_stim.csv,READVersionB.csv,"Read Version B","Dissertation, read only version B",FIX,HAND,Study1,U,75,85,Test,User,-,,Recall,Recall2,10544,,0,-1,-1,0,0,,1
w10024560_tlv,izk8mkznsk,Nick_Dissertation_EX1,1,281,2020-04-28T21:14:47-07:00,4.0270230770111,2,versionA_stim.csv,READVersionB.csv,"Read Version B","Dissertation, read only version B",ART,LION,Study1,U,79,51,Test,User,-,,Recall,Recall2,3444,,0,-1,-1,0,0,,1
w10024560_tlv,izk8mkznsk,Nick_Dissertation_EX1,1,282,2020-04-28T21:14:56-07:00,8.82386302948,2,versionA_stim.csv,READVersionB.csv,"Read Version B","Dissertation, read only version B",VALLEY,ADD,Study1,U,82,77,Test,User,-,,Recall,Recall2,8204,add,100,7626,7993,1,1,,1
w10024560_tlv,izk8mkznsk,Nick_Dissertation_EX1,1,283,2020-04-28T21:14:58-07:00,1.8998899459839,2,versionA_stim.csv,READVersionB.csv,"Read Version B","Dissertation, read only version B",NUMBER,AMOUNT,Study1,S,47,28,Test,User,-,,Recall,Recall2,1330,,0,-1,-1,0,0,,1
w10024560_tlv,izk8mkznsk,Nick_Dissertation_EX1,1,284,2020-04-28T21:15:00-07:00,2.3700480461121,2,versionA_stim.csv,READVersionB.csv,"Read Version B","Dissertation, read only version B",HONEY,BEE,Study1,S,63,48,Test,User,-,,Recall,Recall2,1832,bee,100,1230,1637,1,1,,1
w10024560_tlv,izk8mkznsk,Nick_Dissertation_EX1,1,285,2020-04-28T21:15:06-07:00,6.1637599468231,2,versionA_stim.csv,READVersionB.csv,"Read Version B","Dissertation, read only version B",DRINK,SIP,Study1,B,27,41,Test,User,-,,Recall,Recall2,5520,water,0,1432,5305,0,0,,1
w10024560_tlv,izk8mkznsk,Nick_Dissertation_EX1,1,286,2020-04-28T21:15:10-07:00,3.1573340892792,2,versionA_stim.csv,READVersionB.csv,"Read Version B","Dissertation, read only version B",DUE,ASSIGNMENT,Study1,S,46,75,Test,User,-,,Recall,Recall2,2596,assignment,100,89,2307,1,1,,1
w10024560_tlv,izk8mkznsk,Nick_Dissertation_EX1,1,287,2020-04-28T21:15:13-07:00,3.3989570140839,2,versionA_stim.csv,READVersionB.csv,"Read Version B","Dissertation, read only version B",CLOTHES,ATTIRE,Study1,B,43,23,Test,User,-,,Recall,Recall2,2809,,0,-1,-1,0,0,,1
w10024560_tlv,izk8mkznsk,Nick_Dissertation_EX1,1,288,2020-04-28T21:15:17-07:00,3.8005239963531,2,versionA_stim.csv,READVersionB.csv,"Read Version B","Dissertation, read only version B",KEY,LATCH,Study1,B,36,19,Test,User,-,,Recall,Recall2,3237,,0,-1,-1,0,0,,1
w10024560_tlv,izk8mkznsk,Nick_Dissertation_EX1,1,289,2020-04-28T21:15:19-07:00,2.619735956192,2,versionA_stim.csv,READVersionB.csv,"Read Version B","Dissertation, read only version B",TRIAL,JURY,Study1,S,50,9,Test,User,-,,Recall,Recall2,2054,jury,100,1055,1738,1,1,,1
w10024560_tlv,izk8mkznsk,Nick_Dissertation_EX1,1,290,2020-04-28T21:15:22-07:00,2.1168968677521,2,versionA_stim.csv,READVersionB.csv,"Read Version B","Dissertation, read only version B",BEGIN,END,Study1,S,54,16,Test,User,-,,Recall,Recall2,1553,end,100,1123,1367,1,1,,1
w10024560_tlv,izk8mkznsk,Nick_Dissertation_EX1,1,291,2020-04-28T21:15:24-07:00,2.6747231483459,2,versionA_stim.csv,READVersionB.csv,"Read Version B","Dissertation, read only version B",CREDIT,CARD,Study1,F,23,63,Test,User,-,,Recall,Recall2,2121,card,100,856,1838,1,1,,1
w10024560_tlv,izk8mkznsk,Nick_Dissertation_EX1,1,292,2020-04-28T21:15:28-07:00,3.4412930011749,2,versionA_stim.csv,READVersionB.csv,"Read Version B","Dissertation, read only version B",HAPPY,CAR,Study1,U,77,7,Test,User,-,,Recall,Recall2,2896,car,100,2203,2594,1,1,,1
w10024560_tlv,izk8mkznsk,Nick_Dissertation_EX1,1,293,2020-04-28T21:15:32-07:00,4.4712460041046,2,versionA_stim.csv,READVersionB.csv,"Read Version B","Dissertation, read only version B",MATH,DIVISION,Study1,B,33,34,Test,User,-,,Recall,Recall2,3933,,0,-1,-1,0,0,,1
w10024560_tlv,izk8mkznsk,Nick_Dissertation_EX1,1,294,2020-04-28T21:15:35-07:00,3.1962759494781,2,versionA_stim.csv,READVersionB.csv,"Read Version B","Dissertation, read only version B",WINE,CHEESE,Study1,S,57,38,Test,User,-,,Recall,Recall2,2616,cheese,100,1418,2320,1,1,,1
w10024560_tlv,izk8mkznsk,Nick_Dissertation_EX1,1,295,2020-04-28T21:15:38-07:00,2.5556819438934,2,versionA_stim.csv,READVersionB.csv,"Read Version B","Dissertation, read only version B",KIDNEY,LIVER,Study1,S,53,59,Test,User,-,,Recall,Recall2,1992,liver,100,1138,1752,1,1,,1
w10024560_tlv,izk8mkznsk,Nick_Dissertation_EX1,1,296,2020-04-28T21:15:40-07:00,2.6358389854431,2,versionA_stim.csv,READVersionB.csv,"Read Version B","Dissertation, read only version B",PAST,FUTURE,Study1,S,61,20,Test,User,-,,Recall,Recall2,2096,future,100,1234,1846,1,1,,1
w10024560_tlv,izk8mkznsk,Nick_Dissertation_EX1,1,297,2020-04-28T21:15:42-07:00,1.8723211288452,2,versionA_stim.csv,READVersionB.csv,"Read Version B","Dissertation, read only version B",PUSHER,CLUTTER,Study1,U,66,49,Test,User,-,,Recall,Recall2,1316,,0,-1,-1,0,0,,1
w10024560_tlv,izk8mkznsk,Nick_Dissertation_EX1,1,298,2020-04-28T21:15:44-07:00,2.1165368556976,2,versionA_stim.csv,READVersionB.csv,"Read Version B","Dissertation, read only version B",PAW,DOG,Study1,F,15,68,Test,User,-,,Recall,Recall2,1572,dog,100,972,1300,1,1,,1
w10024560_tlv,izk8mkznsk,Nick_Dissertation_EX1,1,299,2020-04-28T21:15:47-07:00,2.5061881542206,2,versionA_stim.csv,READVersionB.csv,"Read Version B","Dissertation, read only version B",TUNA,FISH,Study1,F,25,15,Test,User,-,,Recall,Recall2,1950,fish,100,1155,1599,1,1,,1
w10024560_tlv,izk8mkznsk,Nick_Dissertation_EX1,1,300,2020-04-28T21:15:50-07:00,3.3965888023376,2,versionA_stim.csv,READVersionB.csv,"Read Version B","Dissertation, read only version B",BABY,CHILD,Study1,S,64,8,Test,User,-,,Recall,Recall2,2837,child,100,1012,1707,1,1,,1
w10024560_tlv,izk8mkznsk,Nick_Dissertation_EX1,1,301,2020-04-28T21:15:54-07:00,4.0567710399628,2,versionA_stim.csv,READVersionB.csv,"Read Version B","Dissertation, read only version B",CHISEL,HAMMER,Study1,F,9,36,Test,User,-,,Recall,Recall2,3525,hammer,100,2481,3096,1,1,,1
w10024560_tlv,izk8mkznsk,Nick_Dissertation_EX1,1,302,2020-04-28T21:15:57-07:00,2.235591173172,2,versionA_stim.csv,READVersionB.csv,"Read Version B","Dissertation, read only version B",FIRE,BLAZE,Study1,B,45,76,Test,User,-,,Recall,Recall2,1655,,0,-1,-1,0,0,,1
w10024560_tlv,izk8mkznsk,Nick_Dissertation_EX1,1,303,2020-04-28T21:16:00-07:00,3.639631986618,2,versionA_stim.csv,READVersionB.csv,"Read Version B","Dissertation, read only version B",HOT,CHILI,Study1,B,37,40,Test,User,-,,Recall,Recall2,3021,,0,-1,-1,0,0,,1
w10024560_tlv,izk8mkznsk,Nick_Dissertation_EX1,1,304,2020-04-28T21:16:03-07:00,2.7191998958588,2,versionA_stim.csv,READVersionB.csv,"Read Version B","Dissertation, read only version B",PLANE,PILOT,Study1,B,44,70,Test,User,-,,Recall,Recall2,2154,pilot,100,994,1667,1,1,,1
w10024560_tlv,izk8mkznsk,Nick_Dissertation_EX1,1,305,2020-04-28T21:16:05-07:00,1.9786150455475,2,versionA_stim.csv,READVersionB.csv,"Read Version B","Dissertation, read only version B",WAGE,MONEY,Study1,F,8,37,Test,User,-,,Recall,Recall2,1419,,0,-1,-1,0,0,,1
w10024560_tlv,izk8mkznsk,Nick_Dissertation_EX1,1,306,2020-04-28T21:16:08-07:00,2.8119978904724,2,versionA_stim.csv,READVersionB.csv,"Read Version B","Dissertation, read only version B",BLOW,WIND,Study1,S,55,56,Test,User,-,,Recall,Recall2,2248,,0,-1,-1,0,0,,1
w10024560_tlv,izk8mkznsk,Nick_Dissertation_EX1,1,307,2020-04-28T21:16:10-07:00,1.7830531597137,2,versionA_stim.csv,READVersionB.csv,"Read Version B","Dissertation, read only version B",DISCOVER,FLOOR,Study1,U,71,60,Test,User,-,,Recall,Recall2,1215,,0,-1,-1,0,0,,1
w10024560_tlv,izk8mkznsk,Nick_Dissertation_EX1,1,308,2020-04-28T21:16:14-07:00,4.39670586586,2,versionA_stim.csv,READVersionB.csv,"Read Version B","Dissertation, read only version B",STRONG,ACCIDENT,Study1,U,80,12,Test,User,-,,Recall,Recall2,3813,,0,-1,-1,0,0,,1
w10024560_tlv,izk8mkznsk,Nick_Dissertation_EX1,1,309,2020-04-28T21:16:16-07:00,2.2291350364685,2,versionA_stim.csv,READVersionB.csv,"Read Version B","Dissertation, read only version B",LOCATION,SITE,Study1,S,48,26,Test,User,-,,Recall,Recall2,1616,,0,-1,-1,0,0,,1
w10024560_tlv,izk8mkznsk,Nick_Dissertation_EX1,1,310,2020-04-28T21:16:21-07:00,4.3729701042175,2,versionA_stim.csv,READVersionB.csv,"Read Version B","Dissertation, read only version B",WORK,CHORE,Study1,B,39,39,Test,User,-,,Recall,Recall2,3749,,0,-1,-1,0,0,,1
w10024560_tlv,izk8mkznsk,Nick_Dissertation_EX1,1,311,2020-04-28T21:16:23-07:00,2.7844150066376,2,versionA_stim.csv,READVersionB.csv,"Read Version B","Dissertation, read only version B",ARCHITECTURE,DESIGN,Study1,S,51,73,Test,User,-,,Recall,Recall2,2222,design,100,1262,1974,1,1,,1
w10024560_tlv,izk8mkznsk,Nick_Dissertation_EX1,1,312,2020-04-28T21:16:25-07:00,1.9369509220123,2,versionA_stim.csv,READVersionB.csv,"Read Version B","Dissertation, read only version B",TAKE,SEIZE,Study1,B,29,71,Test,User,-,,Recall,Recall2,1388,,0,-1,-1,0,0,,1
w10024560_tlv,izk8mkznsk,Nick_Dissertation_EX1,1,313,2020-04-28T21:16:30-07:00,4.3121130466461,2,versionA_stim.csv,READVersionB.csv,"Read Version B","Dissertation, read only version B",BALL,RACKET,Study1,B,38,30,Test,User,-,,Recall,Recall2,3748,base,40,2524,3056,0,0,,1
w10024560_tlv,izk8mkznsk,Nick_Dissertation_EX1,1,314,2020-04-28T21:16:33-07:00,3.085382938385,2,versionA_stim.csv,READVersionB.csv,"Read Version B","Dissertation, read only version B",SHOE,FOOT,Study1,S,60,65,Test,User,-,,Recall,Recall2,2505,foot,100,1891,2249,1,1,,1
w10024560_tlv,izk8mkznsk,Nick_Dissertation_EX1,1,315,2020-04-28T21:16:36-07:00,3.2329950332642,2,versionA_stim.csv,READVersionB.csv,"Read Version B","Dissertation, read only version B",FULL,ENOUGH,Study1,B,26,43,Test,User,-,,Recall,Recall2,2563,,0,-1,-1,0,0,,1
w10024560_tlv,izk8mkznsk,Nick_Dissertation_EX1,1,316,2020-04-28T21:16:40-07:00,4.1775538921356,2,versionA_stim.csv,READVersionB.csv,"Read Version B","Dissertation, read only version B",SUGAR,RIDDLE,Study1,U,81,67,Test,User,-,,Recall,Recall2,3597,,0,-1,-1,0,0,,1
w10024560_tlv,izk8mkznsk,Nick_Dissertation_EX1,1,317,2020-04-28T21:16:44-07:00,3.642382144928,2,versionA_stim.csv,READVersionB.csv,"Read Version B","Dissertation, read only version B",SWAN,BIRD,Study1,F,14,21,Test,User,-,,Recall,Recall2,3062,,0,-1,-1,0,0,,1
w10024560_tlv,izk8mkznsk,Nick_Dissertation_EX1,1,318,2020-04-28T21:16:47-07:00,2.9534678459167,2,versionA_stim.csv,READVersionB.csv,"Read Version B","Dissertation, read only version B",SOON,BELT,Study1,U,70,29,Test,User,-,,Recall,Recall2,2385,later,44.444444444444,1500,2173,0,0,,1
w10024560_tlv,izk8mkznsk,Nick_Dissertation_EX1,1,319,2020-04-28T21:16:50-07:00,2.9052541255951,2,versionA_stim.csv,READVersionB.csv,"Read Version B","Dissertation, read only version B",BUG,WASP,Study1,B,32,45,Test,User,-,,Recall,Recall2,2288,,0,-1,-1,0,0,,1
w10024560_tlv,izk8mkznsk,Nick_Dissertation_EX1,1,320,2020-04-28T21:16:53-07:00,3.1295409202576,2,versionA_stim.csv,READVersionB.csv,"Read Version B","Dissertation, read only version B",CIRCLE,ROUND,Study1,S,65,78,Test,User,-,,Recall,Recall2,2588,,0,-1,-1,0,0,,1
w10024560_tlv,izk8mkznsk,Nick_Dissertation_EX1,1,321,2020-04-28T21:16:56-07:00,3.2761259078979,2,versionA_stim.csv,READVersionB.csv,"Read Version B","Dissertation, read only version B",GREAT,FANTASTIC,Study1,B,35,74,Test,User,-,,Recall,Recall2,2716,fantastic,100,1055,2483,1,1,,1
w10024560_tlv,izk8mkznsk,Nick_Dissertation_EX1,1,322,2020-04-28T21:17:00-07:00,4.3708162307739,2,versionA_stim.csv,READVersionB.csv,"Read Version B","Dissertation, read only version B",SENTENCE,WORD,Study1,B,31,52,Test,User,-,,Recall,Recall2,3806,,0,-1,-1,0,0,,1
w10024560_tlv,izk8mkznsk,Nick_Dissertation_EX1,1,323,2020-04-28T21:17:03-07:00,2.5395629405975,2,versionA_stim.csv,READVersionB.csv,"Read Version B","Dissertation, read only version B",BATHROOM,TOILET,Study1,S,58,47,Test,User,-,,Recall,Recall2,1992,toliet,83.333333333333,989,1780,0,1,,1
w10024560_tlv,izk8mkznsk,Nick_Dissertation_EX1,1,324,2020-04-28T21:17:06-07:00,3.2479200363159,2,versionA_stim.csv,READVersionB.csv,"Read Version B","Dissertation, read only version B",HUNGER,FAMINE,Study1,B,40,11,Test,User,-,,Recall,Recall2,2700,famine,100,1041,2191,1,1,,1
w10024560_tlv,izk8mkznsk,Nick_Dissertation_EX1,1,325,2020-04-28T21:17:15-07:00,9.1886899471283,2,versionA_stim.csv,READVersionB.csv,"Read Version B","Dissertation, read only version B",MACHINE,POSITION,Study1,U,76,27,Test,User,-,,Recall,Recall2,8597,position,100,7460,8286,1,1,,1
w10024560_tlv,izk8mkznsk,Nick_Dissertation_EX1,1,326,2020-04-28T21:17:17-07:00,1.7912249565125,2,versionA_stim.csv,READVersionB.csv,"Read Version B","Dissertation, read only version B",HERD,COW,Study1,F,22,62,Test,User,-,,Recall,Recall2,1203,,0,-1,-1,0,0,,1
w10024560_tlv,izk8mkznsk,Nick_Dissertation_EX1,1,327,2020-04-28T21:17:19-07:00,2.230968952179,2,versionA_stim.csv,READVersionB.csv,"Read Version B","Dissertation, read only version B",GEOLOGY,ROCK,Study1,F,19,18,Test,User,-,,Recall,Recall2,1611,,0,-1,-1,0,0,,1
w10024560_tlv,izk8mkznsk,Nick_Dissertation_EX1,1,328,2020-04-28T21:17:22-07:00,2.1087930202484,2,versionA_stim.csv,READVersionB.csv,"Read Version B","Dissertation, read only version B",DARK,CAVE,Study1,B,28,44,Test,User,-,,Recall,Recall2,1539,,0,-1,-1,0,0,,1
w10024560_tlv,izk8mkznsk,Nick_Dissertation_EX1,1,329,2020-04-28T21:17:25-07:00,3.6609449386597,2,versionA_stim.csv,READVersionB.csv,"Read Version B","Dissertation, read only version B",GRILL,BAR,Study1,S,52,33,Test,User,-,,Recall,Recall2,3118,bar,100,2496,2868,1,1,,1
w10024560_tlv,izk8mkznsk,Nick_Dissertation_EX1,1,330,2020-04-28T21:17:27-07:00,2.1647469997406,2,versionA_stim.csv,READVersionB.csv,"Read Version B","Dissertation, read only version B",REVOLUTION,WAR,Study1,F,20,17,Test,User,-,,Recall,Recall2,1610,war,100,975,1340,1,1,,1
w10024560_tlv,izk8mkznsk,Nick_Dissertation_EX1,1,331,2020-04-28T21:17:31-07:00,3.6519660949707,2,versionA_stim.csv,READVersionB.csv,"Read Version B","Dissertation, read only version B",SMELL,STENCH,Study1,B,42,13,Test,User,-,,Recall,Recall2,3098,stench,100,1035,2640,1,1,,1
w10024560_tlv,izk8mkznsk,Nick_Dissertation_EX1,1,332,2020-04-28T21:17:34-07:00,2.6723370552063,2,versionA_stim.csv,READVersionB.csv,"Read Version B","Dissertation, read only version B",CASH,WOULD,Study1,U,83,58,Test,User,-,,Recall,Recall2,2141,,0,-1,-1,0,0,,1
w10024560_tlv,izk8mkznsk,Nick_Dissertation_EX1,1,333,2020-04-28T21:17:37-07:00,3.8306570053101,2,versionA_stim.csv,READVersionB.csv,"Read Version B","Dissertation, read only version B",HIDE,SICK,Study1,U,84,79,Test,User,-,,Recall,Recall2,3288,sick,100,2716,3097,1,1,,1
w10024560_tlv,izk8mkznsk,Nick_Dissertation_EX1,1,334,2020-04-28T21:17:45-07:00,7.3011729717255,2,versionA_stim.csv,READVersionB.csv,"Read Version B","Dissertation, read only version B",DUMP,WASTE,Study1,S,49,31,Test,User,-,,Recall,Recall2,6651,waste,100,2253,6374,1,1,,1
w10024560_tlv,izk8mkznsk,Nick_Dissertation_EX1,1,335,2020-04-28T21:17:49-07:00,3.8296999931335,2,versionA_stim.csv,READVersionB.csv,"Read Version B","Dissertation, read only version B",PARK,HUNGRY,Study1,U,68,61,Test,User,-,,Recall,Recall2,3164,,0,-1,-1,0,0,,1
w10024560_tlv,izk8mkznsk,Nick_Dissertation_EX1,1,336,2020-04-28T21:17:50-07:00,1.5534880161285,2,versionA_stim.csv,READVersionB.csv,"Read Version B","Dissertation, read only version B",ALLOW,TUCK,Study1,U,78,53,Test,User,-,,Recall,Recall2,1022,,0,-1,-1,0,0,,1
w10024560_tlv,izk8mkznsk,Nick_Dissertation_EX1,1,337,2020-04-28T21:17:53-07:00,2.6309008598328,2,versionA_stim.csv,READVersionB.csv,"Read Version B","Dissertation, read only version B",ORCHID,FLOWER,Study1,F,24,14,Test,User,-,,Recall,Recall2,2078,flower,100,1169,1815,1,1,,1
w10024560_tlv,izk8mkznsk,Nick_Dissertation_EX1,1,338,2020-04-28T21:17:55-07:00,2.2347671985626,2,versionA_stim.csv,READVersionB.csv,"Read Version B","Dissertation, read only version B",BRIDGE,WATER,Study1,F,18,42,Test,User,-,,Recall,Recall2,1684,water,100,921,1513,1,1,,1
w10024560_tlv,izk8mkznsk,Nick_Dissertation_EX1,1,339,2020-04-28T21:17:58-07:00,3.2274308204651,2,versionA_stim.csv,READVersionB.csv,"Read Version B","Dissertation, read only version B",MEANING,DEFINITION,Study1,S,62,22,Test,User,-,,Recall,Recall2,2638,definition,100,1282,2247,1,1,,1
w10024560_tlv,izk8mkznsk,Nick_Dissertation_EX1,1,340,2020-04-28T21:18:02-07:00,3.3996980190277,2,versionA_stim.csv,READVersionB.csv,"Read Version B","Dissertation, read only version B",LAW,ATTORNEY,Study1,B,34,10,Test,User,-,,Recall,Recall2,2825,attorny,93.333333333333,1247,2489,0,1,,1
w10024560_tlv,izk8mkznsk,Nick_Dissertation_EX1,1,341,2020-04-28T21:18:06-07:00,4.8039081096649,2,versionA_stim.csv,READVersionB.csv,"Read Version B","Dissertation, read only version B",ARTERY,BRONZE,Study1,U,74,86,Test,User,-,,Recall,Recall2,4249,heart,18.181818181818,3131,4027,0,0,,1
w10024560_tlv,izk8mkznsk,Nick_Dissertation_EX1,1,342,2020-04-28T21:18:10-07:00,3.1596539020538,2,versionA_stim.csv,READVersionB.csv,"Read Version B","Dissertation, read only version B",BITTER,COLD,Study1,F,12,57,Test,User,-,,Recall,Recall2,2590,,0,-1,-1,0,0,,1
w10024560_tlv,izk8mkznsk,Nick_Dissertation_EX1,1,343,2020-04-28T21:18:12-07:00,2.1201269626617,2,versionA_stim.csv,READVersionB.csv,"Read Version B","Dissertation, read only version B",SLEEP,DROWSY,Study1,B,41,55,Test,User,-,,Recall,Recall2,1560,,0,-1,-1,0,0,,1
w10024560_tlv,izk8mkznsk,Nick_Dissertation_EX1,1,344,2020-04-28T21:18:15-07:00,2.9469289779663,2,versionA_stim.csv,READVersionB.csv,"Read Version B","Dissertation, read only version B",HEIGHT,GROWTH,Study1,B,30,81,Test,User,-,,Recall,Recall2,2383,growth,100,1135,2025,1,1,,1
w10024560_tlv,izk8mkznsk,Nick_Dissertation_EX1,1,345,2020-04-28T21:18:18-07:00,3.7110869884491,2,versionA_stim.csv,READVersionB.csv,"Read Version B","Dissertation, read only version B",POP,SODA,Study1,S,56,80,Test,User,-,,Recall,Recall2,3124,soda,100,2500,2863,1,1,,1
w10024560_tlv,izk8mkznsk,Nick_Dissertation_EX1,1,346,2020-04-28T21:18:24-07:00,5.6383402347565,2,versionA_stim.csv,READVersionB.csv,"Read Version B","Dissertation, read only version B",DIETARY,SACKING,Study1,U,67,32,Test,User,-,,Recall,Recall2,5089,,0,-1,-1,0,0,,1
w10024560_tlv,izk8mkznsk,Nick_Dissertation_EX1,1,347,2020-04-28T21:18:27-07:00,2.6991729736328,2,versionA_stim.csv,READVersionB.csv,"Read Version B","Dissertation, read only version B",HYGIENE,CLEAN,Study1,F,17,69,Test,User,-,,Recall,Recall2,2131,clean,100,1059,1817,1,1,,1
w10024560_tlv,izk8mkznsk,Nick_Dissertation_EX1,1,348,2020-04-28T21:18:30-07:00,3.1285948753357,2,versionA_stim.csv,READVersionB.csv,"Read Version B","Dissertation, read only version B",DEBATE,SIGHT,Study1,U,73,25,Test,User,-,,Recall,Recall2,2559,,0,-1,-1,0,0,,1
w10024560_tlv,izk8mkznsk,Nick_Dissertation_EX1,1,349,2020-04-28T21:18:31-07:00,1.5608959197998,2,versionA_stim.csv,READVersionB.csv,"Read Version B","Dissertation, read only version B",,,,,,0,Instruct,User,-,"You have completed this section. Please press Enter.",,Instruct7,1015,,,-1,-1,,,,1
w10024560_tlv,izk8mkznsk,Nick_Dissertation_EX1,1,350,2020-04-28T21:18:34-07:00,2.5246510505676,2,versionA_stim.csv,READVersionB.csv,"Read Version B","Dissertation, read only version B",,,,,,0,Instruct,User,-,"The following screen will ask you a few questions abour your experience today. You must complete these questions to receive credit.",,Instruct8,1980,,,-1,-1,,,,1
