Username,ID,ExperimentName,Session,Trial,Date,TimeDif,"Condition Number","Stimuli File","Order File","Condition Description","Condition Notes",Stimuli*Cue,Stimuli*Answer,Stimuli*Shuffle,"Stimuli*Stimuli Notes",Stimuli*Value,Procedure*Item,"Procedure*Trial Type","Procedure*Max Time","Procedure*Min Time",Procedure*Text,"Procedure*Procedure Notes",Procedure*Shuffle,Response*RT,Response*Response,Response*Accuracy,Response*RTfirst,Response*RTlast,Response*strictAcc,Response*lenientAcc,Response*focus,Response*Focus
10008908,yrd3k62j99,Nick_Dissertation_EX1,1,1,2020-04-18T13:23:32-07:00,13.488913059235,4,versionC_stim.csv,READVersionD.csv,"Read Version D","Dissertation, read only version D",,,,,,0,Instruct,-,10,"Please study each of the following word pairs. Remember that your memory will be tested! When finished, press Enter to move to the next pair.",Initial_Instruct,Instruct1,12802,,,-1,-1,,,,1
10008908,yrd3k62j99,Nick_Dissertation_EX1,1,2,2020-04-18T13:23:36-07:00,4.7655339241028,4,versionC_stim.csv,READVersionD.csv,"Read Version D","Dissertation, read only version D",FISH,SHRIMP,BUFFER3,Buffer,93,94,Study,User,-,,Study/JOL,BUFFER,4400,,,-1,-1,,,,1
10008908,yrd3k62j99,Nick_Dissertation_EX1,1,3,2020-04-18T13:23:39-07:00,2.2364230155945,4,versionC_stim.csv,READVersionD.csv,"Read Version D","Dissertation, read only version D",ADVENTURE,CAMP,BUFFER3,Buffer,95,95,Study,User,-,,Study/JOL,BUFFER,1912,,,-1,-1,,,,1
10008908,yrd3k62j99,Nick_Dissertation_EX1,1,4,2020-04-18T13:23:41-07:00,1.9699919223785,4,versionC_stim.csv,READVersionD.csv,"Read Version D","Dissertation, read only version D",POTATO,CARROT,BUFFER3,Buffer,91,93,Study,User,-,,Study/JOL,BUFFER,1642,,,-1,-1,,,,1
10008908,yrd3k62j99,Nick_Dissertation_EX1,1,5,2020-04-18T13:23:43-07:00,2.5914440155029,4,versionC_stim.csv,READVersionD.csv,"Read Version D","Dissertation, read only version D",STRING,NOODLE,BUFFER3,Buffer,92,92,Study,User,-,,Study/JOL,BUFFER,2261,,,-1,-1,,,,1
10008908,yrd3k62j99,Nick_Dissertation_EX1,1,6,2020-04-18T13:23:45-07:00,1.9784879684448,4,versionC_stim.csv,READVersionD.csv,"Read Version D","Dissertation, read only version D",FROZEN,ICE,BUFFER3,Buffer,94,96,Study,User,-,,Study/JOL,BUFFER,1637,,,-1,-1,,,,1
10008908,yrd3k62j99,Nick_Dissertation_EX1,1,7,2020-04-18T13:23:47-07:00,2.1293280124664,4,versionC_stim.csv,READVersionD.csv,"Read Version D","Dissertation, read only version D",NOISE,LOUD,Study2,S,152,139,Study,User,-,,Study/JOL,"Study Phase",1801,,,-1,-1,,,,1
10008908,yrd3k62j99,Nick_Dissertation_EX1,1,8,2020-04-18T13:23:50-07:00,2.2228181362152,4,versionC_stim.csv,READVersionD.csv,"Read Version D","Dissertation, read only version D",MAROON,JUSTICE,Study2,U,156,176,Study,User,-,,Study/JOL,"Study Phase",1895,,,-1,-1,,,,1
10008908,yrd3k62j99,Nick_Dissertation_EX1,1,9,2020-04-18T13:23:52-07:00,2.6278369426727,4,versionC_stim.csv,READVersionD.csv,"Read Version D","Dissertation, read only version D",CAR,DRIVER,Study2,B,106,105,Study,User,-,,Study/JOL,"Study Phase",2309,,,-1,-1,,,,1
10008908,yrd3k62j99,Nick_Dissertation_EX1,1,10,2020-04-18T13:23:55-07:00,2.5196180343628,4,versionC_stim.csv,READVersionD.csv,"Read Version D","Dissertation, read only version D",LOVE,AFFECTION,Study2,B,115,126,Study,User,-,,Study/JOL,"Study Phase",2169,,,-1,-1,,,,1
10008908,yrd3k62j99,Nick_Dissertation_EX1,1,11,2020-04-18T13:23:58-07:00,3.488471031189,4,versionC_stim.csv,READVersionD.csv,"Read Version D","Dissertation, read only version D",WINDSHIELD,CAR,Study2,F,117,118,Study,User,-,,Study/JOL,"Study Phase",3177,,,-1,-1,,,,1
10008908,yrd3k62j99,Nick_Dissertation_EX1,1,12,2020-04-18T13:24:01-07:00,2.9270629882812,4,versionC_stim.csv,READVersionD.csv,"Read Version D","Dissertation, read only version D",SCAR,MAIN,Study2,U,175,110,Study,User,-,,Study/JOL,"Study Phase",2609,,,-1,-1,,,,1
10008908,yrd3k62j99,Nick_Dissertation_EX1,1,13,2020-04-18T13:24:02-07:00,0.94258499145508,4,versionC_stim.csv,READVersionD.csv,"Read Version D","Dissertation, read only version D",GAME,CLUE,Study2,B,97,136,Study,User,-,,Study/JOL,"Study Phase",672,,,-1,-1,,,,1
10008908,yrd3k62j99,Nick_Dissertation_EX1,1,14,2020-04-18T13:24:04-07:00,1.8158099651337,4,versionC_stim.csv,READVersionD.csv,"Read Version D","Dissertation, read only version D",CLEAR,MOAT,Study2,U,169,150,Study,User,-,,Study/JOL,"Study Phase",1453,,,-1,-1,,,,1
10008908,yrd3k62j99,Nick_Dissertation_EX1,1,15,2020-04-18T13:24:05-07:00,1.4283270835876,4,versionC_stim.csv,READVersionD.csv,"Read Version D","Dissertation, read only version D",SEATBELT,SAFETY,Study2,S,147,101,Study,User,-,,Study/JOL,"Study Phase",1093,,,-1,-1,,,,1
10008908,yrd3k62j99,Nick_Dissertation_EX1,1,16,2020-04-18T13:24:08-07:00,2.3123860359192,4,versionC_stim.csv,READVersionD.csv,"Read Version D","Dissertation, read only version D",LONG,EXTENSION,Study2,B,96,164,Study,User,-,,Study/JOL,"Study Phase",1979,,,-1,-1,,,,1
10008908,yrd3k62j99,Nick_Dissertation_EX1,1,17,2020-04-18T13:24:09-07:00,1.3470439910889,4,versionC_stim.csv,READVersionD.csv,"Read Version D","Dissertation, read only version D",CLOTHES,CAKE,Study2,U,166,172,Study,User,-,,Study/JOL,"Study Phase",981,,,-1,-1,,,,1
10008908,yrd3k62j99,Nick_Dissertation_EX1,1,18,2020-04-18T13:24:11-07:00,1.7788469791412,4,versionC_stim.csv,READVersionD.csv,"Read Version D","Dissertation, read only version D",REVENGE,EVEN,Study2,F,122,98,Study,User,-,,Study/JOL,"Study Phase",1429,,,-1,-1,,,,1
10008908,yrd3k62j99,Nick_Dissertation_EX1,1,19,2020-04-18T13:24:13-07:00,2.155534029007,4,versionC_stim.csv,READVersionD.csv,"Read Version D","Dissertation, read only version D",JAR,MASON,Study2,S,138,160,Study,User,-,,Study/JOL,"Study Phase",1837,,,-1,-1,,,,1
10008908,yrd3k62j99,Nick_Dissertation_EX1,1,20,2020-04-18T13:24:15-07:00,2.5043737888336,4,versionC_stim.csv,READVersionD.csv,"Read Version D","Dissertation, read only version D",PLANT,CACTUS,Study2,B,98,128,Study,User,-,,Study/JOL,"Study Phase",1738,,,-1,-1,,,,1
10008908,yrd3k62j99,Nick_Dissertation_EX1,1,21,2020-04-18T13:24:19-07:00,3.1450660228729,4,versionC_stim.csv,READVersionD.csv,"Read Version D","Dissertation, read only version D",PAPER,DOCUMENT,Study2,B,109,107,Study,User,-,,Study/JOL,"Study Phase",1847,,,-1,-1,,,,1
10008908,yrd3k62j99,Nick_Dissertation_EX1,1,22,2020-04-18T13:24:20-07:00,1.3639869689941,4,versionC_stim.csv,READVersionD.csv,"Read Version D","Dissertation, read only version D",CLOTH,STRETCH,Study2,U,157,131,Study,User,-,,Study/JOL,"Study Phase",936,,,-1,-1,,,,1
10008908,yrd3k62j99,Nick_Dissertation_EX1,1,23,2020-04-18T13:24:22-07:00,1.8207001686096,4,versionC_stim.csv,READVersionD.csv,"Read Version D","Dissertation, read only version D",RED,CHERRY,Study2,B,104,138,Study,User,-,,Study/JOL,"Study Phase",1502,,,-1,-1,,,,1
10008908,yrd3k62j99,Nick_Dissertation_EX1,1,24,2020-04-18T13:24:24-07:00,2.0527608394623,4,versionC_stim.csv,READVersionD.csv,"Read Version D","Dissertation, read only version D",LONELY,ALONE,Study2,S,145,100,Study,User,-,,Study/JOL,"Study Phase",1583,,,-1,-1,,,,1
10008908,yrd3k62j99,Nick_Dissertation_EX1,1,25,2020-04-18T13:24:27-07:00,2.6478490829468,4,versionC_stim.csv,READVersionD.csv,"Read Version D","Dissertation, read only version D",EAT,DINE,Study2,B,111,122,Study,User,-,,Study/JOL,"Study Phase",2229,,,-1,-1,,,,1
10008908,yrd3k62j99,Nick_Dissertation_EX1,1,26,2020-04-18T13:24:30-07:00,3.8337430953979,4,versionC_stim.csv,READVersionD.csv,"Read Version D","Dissertation, read only version D",SARDINE,FISH,Study2,F,130,147,Study,User,-,,Study/JOL,"Study Phase",3278,,,-1,-1,,,,1
10008908,yrd3k62j99,Nick_Dissertation_EX1,1,27,2020-04-18T13:24:34-07:00,4.0152509212494,4,versionC_stim.csv,READVersionD.csv,"Read Version D","Dissertation, read only version D",THIMBLE,THREAD,Study2,F,121,134,Study,User,-,,Study/JOL,"Study Phase",3705,,,-1,-1,,,,1
10008908,yrd3k62j99,Nick_Dissertation_EX1,1,28,2020-04-18T13:24:37-07:00,2.2263739109039,4,versionC_stim.csv,READVersionD.csv,"Read Version D","Dissertation, read only version D",BREAKABLE,GLASS,Study2,F,127,141,Study,User,-,,Study/JOL,"Study Phase",1798,,,-1,-1,,,,1
10008908,yrd3k62j99,Nick_Dissertation_EX1,1,29,2020-04-18T13:24:40-07:00,2.9662230014801,4,versionC_stim.csv,READVersionD.csv,"Read Version D","Dissertation, read only version D",ACTRESS,STAR,Study2,F,120,106,Study,User,-,,Study/JOL,"Study Phase",2627,,,-1,-1,,,,1
10008908,yrd3k62j99,Nick_Dissertation_EX1,1,30,2020-04-18T13:24:43-07:00,2.981213092804,4,versionC_stim.csv,READVersionD.csv,"Read Version D","Dissertation, read only version D",SIGN,LOAN,Study2,U,171,145,Study,User,-,,Study/JOL,"Study Phase",2649,,,-1,-1,,,,1
10008908,yrd3k62j99,Nick_Dissertation_EX1,1,31,2020-04-18T13:24:46-07:00,3.1736369132996,4,versionC_stim.csv,READVersionD.csv,"Read Version D","Dissertation, read only version D",HAVE,OWN,Study2,S,153,148,Study,User,-,,Study/JOL,"Study Phase",2848,,,-1,-1,,,,1
10008908,yrd3k62j99,Nick_Dissertation_EX1,1,32,2020-04-18T13:24:48-07:00,2.4722261428833,4,versionC_stim.csv,READVersionD.csv,"Read Version D","Dissertation, read only version D",CUT,CHOP,Study2,B,107,102,Study,User,-,,Study/JOL,"Study Phase",2150,,,-1,-1,,,,1
10008908,yrd3k62j99,Nick_Dissertation_EX1,1,33,2020-04-18T13:24:50-07:00,1.4755859375,4,versionC_stim.csv,READVersionD.csv,"Read Version D","Dissertation, read only version D",OUNCE,BOTH,Study2,U,172,169,Study,User,-,,Study/JOL,"Study Phase",1128,,,-1,-1,,,,1
10008908,yrd3k62j99,Nick_Dissertation_EX1,1,34,2020-04-18T13:24:52-07:00,1.9363651275635,4,versionC_stim.csv,READVersionD.csv,"Read Version D","Dissertation, read only version D",NAP,SLEEP,Study2,F,134,140,Study,User,-,,Study/JOL,"Study Phase",1587,,,-1,-1,,,,1
10008908,yrd3k62j99,Nick_Dissertation_EX1,1,35,2020-04-18T13:24:53-07:00,1.6605548858643,4,versionC_stim.csv,READVersionD.csv,"Read Version D","Dissertation, read only version D",COMMUNICATION,PHONE,Study2,S,149,161,Study,User,-,,Study/JOL,"Study Phase",1342,,,-1,-1,,,,1
10008908,yrd3k62j99,Nick_Dissertation_EX1,1,36,2020-04-18T13:24:55-07:00,1.7361419200897,4,versionC_stim.csv,READVersionD.csv,"Read Version D","Dissertation, read only version D",STRAWBERRY,FRUIT,Study2,F,124,111,Study,User,-,,Study/JOL,"Study Phase",1420,,,-1,-1,,,,1
10008908,yrd3k62j99,Nick_Dissertation_EX1,1,37,2020-04-18T13:24:57-07:00,2.3791711330414,4,versionC_stim.csv,READVersionD.csv,"Read Version D","Dissertation, read only version D",LIE,TRUTH,Study2,S,148,174,Study,User,-,,Study/JOL,"Study Phase",2062,,,-1,-1,,,,1
10008908,yrd3k62j99,Nick_Dissertation_EX1,1,38,2020-04-18T13:24:59-07:00,2.0259368419647,4,versionC_stim.csv,READVersionD.csv,"Read Version D","Dissertation, read only version D",BRACELET,WRIST,Study2,S,140,114,Study,User,-,,Study/JOL,"Study Phase",1688,,,-1,-1,,,,1
10008908,yrd3k62j99,Nick_Dissertation_EX1,1,39,2020-04-18T13:25:01-07:00,1.5437090396881,4,versionC_stim.csv,READVersionD.csv,"Read Version D","Dissertation, read only version D",TAN,SUN,Study2,S,155,124,Study,User,-,,Study/JOL,"Study Phase",1227,,,-1,-1,,,,1
10008908,yrd3k62j99,Nick_Dissertation_EX1,1,40,2020-04-18T13:25:02-07:00,1.2848060131073,4,versionC_stim.csv,READVersionD.csv,"Read Version D","Dissertation, read only version D",REEL,ROD,Study2,S,150,146,Study,User,-,,Study/JOL,"Study Phase",970,,,-1,-1,,,,1
10008908,yrd3k62j99,Nick_Dissertation_EX1,1,41,2020-04-18T13:25:04-07:00,2.2581059932709,4,versionC_stim.csv,READVersionD.csv,"Read Version D","Dissertation, read only version D",FLIP,TURN,Study2,F,116,167,Study,User,-,,Study/JOL,"Study Phase",1936,,,-1,-1,,,,1
10008908,yrd3k62j99,Nick_Dissertation_EX1,1,42,2020-04-18T13:25:06-07:00,1.1866049766541,4,versionC_stim.csv,READVersionD.csv,"Read Version D","Dissertation, read only version D",PANTHER,CAT,Study2,F,126,117,Study,User,-,,Study/JOL,"Study Phase",910,,,-1,-1,,,,1
10008908,yrd3k62j99,Nick_Dissertation_EX1,1,43,2020-04-18T13:25:07-07:00,1.7841091156006,4,versionC_stim.csv,READVersionD.csv,"Read Version D","Dissertation, read only version D",STEAK,GIVE,Study2,U,158,99,Study,User,-,,Study/JOL,"Study Phase",1449,,,-1,-1,,,,1
10008908,yrd3k62j99,Nick_Dissertation_EX1,1,44,2020-04-18T13:25:08-07:00,0.74269700050354,4,versionC_stim.csv,READVersionD.csv,"Read Version D","Dissertation, read only version D",CHARM,VEHICLE,Study2,U,160,157,Study,User,-,,Study/JOL,"Study Phase",460,,,-1,-1,,,,1
10008908,yrd3k62j99,Nick_Dissertation_EX1,1,45,2020-04-18T13:25:09-07:00,1.0304388999939,4,versionC_stim.csv,READVersionD.csv,"Read Version D","Dissertation, read only version D",TICK,FLEA,Study2,S,151,156,Study,User,-,,Study/JOL,"Study Phase",732,,,-1,-1,,,,1
10008908,yrd3k62j99,Nick_Dissertation_EX1,1,46,2020-04-18T13:25:11-07:00,2.0872411727905,4,versionC_stim.csv,READVersionD.csv,"Read Version D","Dissertation, read only version D",COFFIN,DEAD,Study2,F,128,153,Study,User,-,,Study/JOL,"Study Phase",1768,,,-1,-1,,,,1
10008908,yrd3k62j99,Nick_Dissertation_EX1,1,47,2020-04-18T13:25:13-07:00,2.1869328022003,4,versionC_stim.csv,READVersionD.csv,"Read Version D","Dissertation, read only version D",DRINK,WATER,Study2,S,143,120,Study,User,-,,Study/JOL,"Study Phase",1845,,,-1,-1,,,,1
10008908,yrd3k62j99,Nick_Dissertation_EX1,1,48,2020-04-18T13:25:15-07:00,1.9746379852295,4,versionC_stim.csv,READVersionD.csv,"Read Version D","Dissertation, read only version D",LEAGUE,BASEBALL,Study2,F,131,109,Study,User,-,,Study/JOL,"Study Phase",1654,,,-1,-1,,,,1
10008908,yrd3k62j99,Nick_Dissertation_EX1,1,49,2020-04-18T13:25:17-07:00,1.7050051689148,4,versionC_stim.csv,READVersionD.csv,"Read Version D","Dissertation, read only version D",DOG,FURRY,Study2,B,102,175,Study,User,-,,Study/JOL,"Study Phase",1270,,,-1,-1,,,,1
10008908,yrd3k62j99,Nick_Dissertation_EX1,1,50,2020-04-18T13:25:19-07:00,2.0229070186615,4,versionC_stim.csv,READVersionD.csv,"Read Version D","Dissertation, read only version D",OBTAIN,MEAT,Study2,U,161,137,Study,User,-,,Study/JOL,"Study Phase",1008,,,-1,-1,,,,1
10008908,yrd3k62j99,Nick_Dissertation_EX1,1,51,2020-04-18T13:25:21-07:00,1.7647998332977,4,versionC_stim.csv,READVersionD.csv,"Read Version D","Dissertation, read only version D",SCISSORS,SHEARS,Study2,B,112,155,Study,User,-,,Study/JOL,"Study Phase",1355,,,-1,-1,,,,1
10008908,yrd3k62j99,Nick_Dissertation_EX1,1,52,2020-04-18T13:25:23-07:00,2.1529331207275,4,versionC_stim.csv,READVersionD.csv,"Read Version D","Dissertation, read only version D",DONKEY,MULE,Study2,B,108,121,Study,User,-,,Study/JOL,"Study Phase",1815,,,-1,-1,,,,1
10008908,yrd3k62j99,Nick_Dissertation_EX1,1,53,2020-04-18T13:25:25-07:00,2.2668318748474,4,versionC_stim.csv,READVersionD.csv,"Read Version D","Dissertation, read only version D",BANKER,MONEY,Study2,F,132,173,Study,User,-,,Study/JOL,"Study Phase",1951,,,-1,-1,,,,1
10008908,yrd3k62j99,Nick_Dissertation_EX1,1,54,2020-04-18T13:25:27-07:00,1.5743100643158,4,versionC_stim.csv,READVersionD.csv,"Read Version D","Dissertation, read only version D",TIE,SHOELACE,Study2,B,99,162,Study,User,-,,Study/JOL,"Study Phase",1257,,,-1,-1,,,,1
10008908,yrd3k62j99,Nick_Dissertation_EX1,1,55,2020-04-18T13:25:28-07:00,1.4881930351257,4,versionC_stim.csv,READVersionD.csv,"Read Version D","Dissertation, read only version D",MYSTERY,DETECTIVE,Study2,B,100,132,Study,User,-,,Study/JOL,"Study Phase",1165,,,-1,-1,,,,1
10008908,yrd3k62j99,Nick_Dissertation_EX1,1,56,2020-04-18T13:25:31-07:00,2.418200969696,4,versionC_stim.csv,READVersionD.csv,"Read Version D","Dissertation, read only version D",TRUTHFUL,HONEST,Study2,F,133,158,Study,User,-,,Study/JOL,"Study Phase",2096,,,-1,-1,,,,1
10008908,yrd3k62j99,Nick_Dissertation_EX1,1,57,2020-04-18T13:25:33-07:00,1.7892310619354,4,versionC_stim.csv,READVersionD.csv,"Read Version D","Dissertation, read only version D",ABLE,CRACKLE,Study2,U,162,133,Study,User,-,,Study/JOL,"Study Phase",1425,,,-1,-1,,,,1
10008908,yrd3k62j99,Nick_Dissertation_EX1,1,58,2020-04-18T13:25:34-07:00,1.3576920032501,4,versionC_stim.csv,READVersionD.csv,"Read Version D","Dissertation, read only version D",CARBON,ELEMENT,Study2,S,141,151,Study,User,-,,Study/JOL,"Study Phase",1012,,,-1,-1,,,,1
10008908,yrd3k62j99,Nick_Dissertation_EX1,1,59,2020-04-18T13:25:35-07:00,1.1209440231323,4,versionC_stim.csv,READVersionD.csv,"Read Version D","Dissertation, read only version D",JOKE,KEYS,Study2,U,165,149,Study,User,-,,Study/JOL,"Study Phase",853,,,-1,-1,,,,1
10008908,yrd3k62j99,Nick_Dissertation_EX1,1,60,2020-04-18T13:25:36-07:00,0.49514102935791,4,versionC_stim.csv,READVersionD.csv,"Read Version D","Dissertation, read only version D",HEAD,SCALP,Study2,B,105,108,Study,User,-,,Study/JOL,"Study Phase",230,,,-1,-1,,,,1
10008908,yrd3k62j99,Nick_Dissertation_EX1,1,61,2020-04-18T13:25:37-07:00,1.6497089862823,4,versionC_stim.csv,READVersionD.csv,"Read Version D","Dissertation, read only version D",WET,DRY,Study2,S,146,129,Study,User,-,,Study/JOL,"Study Phase",1319,,,-1,-1,,,,1
10008908,yrd3k62j99,Nick_Dissertation_EX1,1,62,2020-04-18T13:25:39-07:00,1.5329689979553,4,versionC_stim.csv,READVersionD.csv,"Read Version D","Dissertation, read only version D",COLD,CHILL,Study2,B,114,103,Study,User,-,,Study/JOL,"Study Phase",1201,,,-1,-1,,,,1
10008908,yrd3k62j99,Nick_Dissertation_EX1,1,63,2020-04-18T13:25:40-07:00,1.151270866394,4,versionC_stim.csv,READVersionD.csv,"Read Version D","Dissertation, read only version D",VILLAIN,BAD,Study2,F,118,171,Study,User,-,,Study/JOL,"Study Phase",877,,,-1,-1,,,,1
10008908,yrd3k62j99,Nick_Dissertation_EX1,1,64,2020-04-18T13:25:42-07:00,2.3825390338898,4,versionC_stim.csv,READVersionD.csv,"Read Version D","Dissertation, read only version D",FICTION,LISTEN,Study2,U,164,142,Study,User,-,,Study/JOL,"Study Phase",2071,,,-1,-1,,,,1
10008908,yrd3k62j99,Nick_Dissertation_EX1,1,65,2020-04-18T13:25:44-07:00,1.7155890464783,4,versionC_stim.csv,READVersionD.csv,"Read Version D","Dissertation, read only version D",AIRCRAFT,PLANE,Study2,F,129,154,Study,User,-,,Study/JOL,"Study Phase",1383,,,-1,-1,,,,1
10008908,yrd3k62j99,Nick_Dissertation_EX1,1,66,2020-04-18T13:25:45-07:00,1.3556900024414,4,versionC_stim.csv,READVersionD.csv,"Read Version D","Dissertation, read only version D",EQUAL,RIGHTS,Study2,S,137,119,Study,User,-,,Study/JOL,"Study Phase",1027,,,-1,-1,,,,1
10008908,yrd3k62j99,Nick_Dissertation_EX1,1,67,2020-04-18T13:25:46-07:00,0.44521594047546,4,versionC_stim.csv,READVersionD.csv,"Read Version D","Dissertation, read only version D",GROUND,EARTH,Study2,S,144,135,Study,User,-,,Study/JOL,"Study Phase",175,,,-1,-1,,,,1
10008908,yrd3k62j99,Nick_Dissertation_EX1,1,68,2020-04-18T13:25:48-07:00,1.6907930374146,4,versionC_stim.csv,READVersionD.csv,"Read Version D","Dissertation, read only version D",TEMPER,TANTRUM,Study2,S,154,115,Study,User,-,,Study/JOL,"Study Phase",1344,,,-1,-1,,,,1
10008908,yrd3k62j99,Nick_Dissertation_EX1,1,69,2020-04-18T13:25:49-07:00,1.732882976532,4,versionC_stim.csv,READVersionD.csv,"Read Version D","Dissertation, read only version D",FAVORITE,BEST,Study2,F,125,130,Study,User,-,,Study/JOL,"Study Phase",1393,,,-1,-1,,,,1
10008908,yrd3k62j99,Nick_Dissertation_EX1,1,70,2020-04-18T13:25:51-07:00,1.6281700134277,4,versionC_stim.csv,READVersionD.csv,"Read Version D","Dissertation, read only version D",AWAY,GONE,Study2,S,142,113,Study,User,-,,Study/JOL,"Study Phase",1295,,,-1,-1,,,,1
10008908,yrd3k62j99,Nick_Dissertation_EX1,1,71,2020-04-18T13:25:53-07:00,1.7491750717163,4,versionC_stim.csv,READVersionD.csv,"Read Version D","Dissertation, read only version D",HATE,NAME,Study2,U,167,127,Study,User,-,,Study/JOL,"Study Phase",1393,,,-1,-1,,,,1
10008908,yrd3k62j99,Nick_Dissertation_EX1,1,72,2020-04-18T13:25:55-07:00,1.8642199039459,4,versionC_stim.csv,READVersionD.csv,"Read Version D","Dissertation, read only version D",SHAKE,Shell,Study2,U,163,125,Study,User,-,,Study/JOL,"Study Phase",1543,,,-1,-1,,,,1
10008908,yrd3k62j99,Nick_Dissertation_EX1,1,73,2020-04-18T13:25:57-07:00,2.0718350410461,4,versionC_stim.csv,READVersionD.csv,"Read Version D","Dissertation, read only version D",ELECTION,MAZE,Study2,U,159,170,Study,User,-,,Study/JOL,"Study Phase",1745,,,-1,-1,,,,1
10008908,yrd3k62j99,Nick_Dissertation_EX1,1,74,2020-04-18T13:25:58-07:00,1.7287759780884,4,versionC_stim.csv,READVersionD.csv,"Read Version D","Dissertation, read only version D",BALLOON,POP,Study2,F,123,143,Study,User,-,,Study/JOL,"Study Phase",1395,,,-1,-1,,,,1
10008908,yrd3k62j99,Nick_Dissertation_EX1,1,75,2020-04-18T13:26:01-07:00,2.845165014267,4,versionC_stim.csv,READVersionD.csv,"Read Version D","Dissertation, read only version D",END,ADJOURN,Study2,B,101,97,Study,User,-,,Study/JOL,"Study Phase",2517,,,-1,-1,,,,1
10008908,yrd3k62j99,Nick_Dissertation_EX1,1,76,2020-04-18T13:26:04-07:00,2.5142569541931,4,versionC_stim.csv,READVersionD.csv,"Read Version D","Dissertation, read only version D",Morning,TEMPERATURE,Study2,U,173,116,Study,User,-,,Study/JOL,"Study Phase",1402,,,-1,-1,,,,1
10008908,yrd3k62j99,Nick_Dissertation_EX1,1,77,2020-04-18T13:26:04-07:00,0.80550503730774,4,versionC_stim.csv,READVersionD.csv,"Read Version D","Dissertation, read only version D",BRAWL,FIGHT,Study2,F,135,163,Study,User,-,,Study/JOL,"Study Phase",44,,,-1,-1,,,,1
10008908,yrd3k62j99,Nick_Dissertation_EX1,1,78,2020-04-18T13:26:06-07:00,1.8205568790436,4,versionC_stim.csv,READVersionD.csv,"Read Version D","Dissertation, read only version D",BANG,FUZZY,Study2,U,168,144,Study,User,-,,Study/JOL,"Study Phase",975,,,-1,-1,,,,1
10008908,yrd3k62j99,Nick_Dissertation_EX1,1,79,2020-04-18T13:26:09-07:00,2.7259771823883,4,versionC_stim.csv,READVersionD.csv,"Read Version D","Dissertation, read only version D",WAX,CANDLE,Study2,S,139,152,Study,User,-,,Study/JOL,"Study Phase",2327,,,-1,-1,,,,1
10008908,yrd3k62j99,Nick_Dissertation_EX1,1,80,2020-04-18T13:26:11-07:00,2.4277529716492,4,versionC_stim.csv,READVersionD.csv,"Read Version D","Dissertation, read only version D",SHAVE,RAZOR,Study2,S,136,165,Study,User,-,,Study/JOL,"Study Phase",1673,,,-1,-1,,,,1
10008908,yrd3k62j99,Nick_Dissertation_EX1,1,81,2020-04-18T13:26:17-07:00,5.044844865799,4,versionC_stim.csv,READVersionD.csv,"Read Version D","Dissertation, read only version D",TRASH,LITTER,Study2,B,103,112,Study,User,-,,Study/JOL,"Study Phase",1385,,,-1,-1,,,,1
10008908,yrd3k62j99,Nick_Dissertation_EX1,1,82,2020-04-18T13:26:19-07:00,2.1646971702576,4,versionC_stim.csv,READVersionD.csv,"Read Version D","Dissertation, read only version D",SMELL,INCENSE,Study2,B,110,168,Study,User,-,,Study/JOL,"Study Phase",1519,,,-1,-1,,,,1
10008908,yrd3k62j99,Nick_Dissertation_EX1,1,83,2020-04-18T13:26:20-07:00,1.7238228321075,4,versionC_stim.csv,READVersionD.csv,"Read Version D","Dissertation, read only version D",TOIL,LEASE,Study2,U,170,159,Study,User,-,,Study/JOL,"Study Phase",1173,,,-1,-1,,,,1
10008908,yrd3k62j99,Nick_Dissertation_EX1,1,84,2020-04-18T13:26:22-07:00,2.090784072876,4,versionC_stim.csv,READVersionD.csv,"Read Version D","Dissertation, read only version D",CHILDREN,MIRROR,Study2,U,174,123,Study,User,-,,Study/JOL,"Study Phase",1309,,,-1,-1,,,,1
10008908,yrd3k62j99,Nick_Dissertation_EX1,1,85,2020-04-18T13:26:24-07:00,1.7543559074402,4,versionC_stim.csv,READVersionD.csv,"Read Version D","Dissertation, read only version D",PENGUIN,BIRD,Study2,F,119,166,Study,User,-,,Study/JOL,"Study Phase",1120,,,-1,-1,,,,1
10008908,yrd3k62j99,Nick_Dissertation_EX1,1,86,2020-04-18T13:26:28-07:00,3.8221881389618,4,versionC_stim.csv,READVersionD.csv,"Read Version D","Dissertation, read only version D",FIGHT,FEUD,Study2,B,113,104,Study,User,-,,Study/JOL,"Study Phase",2882,,,-1,-1,,,,1
10008908,yrd3k62j99,Nick_Dissertation_EX1,1,87,2020-04-18T13:26:31-07:00,2.8120560646057,4,versionC_stim.csv,READVersionD.csv,"Read Version D","Dissertation, read only version D",SHED,TOOL,BUFFER4,Buffer,178,179,Study,User,-,,Study/JOL,BUFFER2,1634,,,-1,-1,,,,1
10008908,yrd3k62j99,Nick_Dissertation_EX1,1,88,2020-04-18T13:26:34-07:00,3.6042850017548,4,versionC_stim.csv,READVersionD.csv,"Read Version D","Dissertation, read only version D",YEAR,MONTH,BUFFER4,Buffer,177,178,Study,User,-,,Study/JOL,BUFFER2,2937,,,-1,-1,,,,1
10008908,yrd3k62j99,Nick_Dissertation_EX1,1,89,2020-04-18T13:26:38-07:00,3.561283826828,4,versionC_stim.csv,READVersionD.csv,"Read Version D","Dissertation, read only version D",MARCH,SPRING,BUFFER4,Buffer,179,177,Study,User,-,,Study/JOL,BUFFER2,2885,,,-1,-1,,,,1
10008908,yrd3k62j99,Nick_Dissertation_EX1,1,90,2020-04-18T13:26:41-07:00,3.0294020175934,4,versionC_stim.csv,READVersionD.csv,"Read Version D","Dissertation, read only version D",SPOOKY,OCTOBER,BUFFER4,Buffer,180,181,Study,User,-,,Study/JOL,BUFFER2,2710,,,-1,-1,,,,1
10008908,yrd3k62j99,Nick_Dissertation_EX1,1,91,2020-04-18T13:26:44-07:00,2.6259770393372,4,versionC_stim.csv,READVersionD.csv,"Read Version D","Dissertation, read only version D",WEAKS,DAYS,BUFFER4,Buffer,176,180,Study,User,-,,Study/JOL,BUFFER2,2304,,,-1,-1,,,,1
10008908,yrd3k62j99,Nick_Dissertation_EX1,1,92,2020-04-18T13:26:46-07:00,2.4746220111847,4,versionC_stim.csv,READVersionD.csv,"Read Version D","Dissertation, read only version D",,,,,,0,Instruct,User,-,"You have completed this section. Please press Enter.",Filler_Instruction,Instruct2,2146,,,-1,-1,,,,1
10008908,yrd3k62j99,Nick_Dissertation_EX1,1,93,2020-04-18T13:28:47-07:00,120.480905056,4,versionC_stim.csv,READVersionD.csv,"Read Version D","Dissertation, read only version D",,,,,,0,FreeRecall,120,120,"Please list the 50 US states in alphabetical order. The task will automatically advance to the next screen after two minutes.",,Filler1,120002,"Alabama Alaska Arizona california colorado Connecticut delaware florida georgia hawaii idaho illinois india",0,28096,119515,0,0,,1
10008908,yrd3k62j99,Nick_Dissertation_EX1,1,94,2020-04-18T13:29:20-07:00,33.195680856705,4,versionC_stim.csv,READVersionD.csv,"Read Version D","Dissertation, read only version D",,,,,,0,Instruct,-,10,"You will now be presented with the first word from each of the previously studied item pairs. Please type the missing word. If you do not know the word, you may guess or press Enter to skip forward to the next pair.",,Instruct3,32828,,,-1,-1,,,,1
10008908,yrd3k62j99,Nick_Dissertation_EX1,1,95,2020-04-18T13:30:00-07:00,40.299363136292,4,versionC_stim.csv,READVersionD.csv,"Read Version D","Dissertation, read only version D",DOG,FURRY,Study2,B,102,175,Test,User,-,,Recall,Recall1,39931,"furry ",100,37815,39601,1,1,,1
10008908,yrd3k62j99,Nick_Dissertation_EX1,1,96,2020-04-18T13:30:19-07:00,19.206696987152,4,versionC_stim.csv,READVersionD.csv,"Read Version D","Dissertation, read only version D",PENGUIN,BIRD,Study2,F,119,166,Test,User,-,,Recall,Recall1,18888,bird,100,18200,18750,1,1,,1
10008908,yrd3k62j99,Nick_Dissertation_EX1,1,97,2020-04-18T13:30:44-07:00,24.660259962082,4,versionC_stim.csv,READVersionD.csv,"Read Version D","Dissertation, read only version D",TRUTHFUL,HONEST,Study2,F,133,158,Test,User,-,,Recall,Recall1,24335,honest,100,22612,24055,1,1,,1
10008908,yrd3k62j99,Nick_Dissertation_EX1,1,98,2020-04-18T13:31:39-07:00,54.608242034912,4,versionC_stim.csv,READVersionD.csv,"Read Version D","Dissertation, read only version D",WAX,CANDLE,Study2,S,139,152,Test,User,-,,Recall,Recall1,54281,candle,100,51255,53656,1,1,,1
10008908,yrd3k62j99,Nick_Dissertation_EX1,1,99,2020-04-18T13:31:54-07:00,15.402939081192,4,versionC_stim.csv,READVersionD.csv,"Read Version D","Dissertation, read only version D",STRAWBERRY,FRUIT,Study2,F,124,111,Test,User,-,,Recall,Recall1,15082,fruit,100,13554,14643,1,1,,1
10008908,yrd3k62j99,Nick_Dissertation_EX1,1,100,2020-04-18T13:32:04-07:00,10.068778991699,4,versionC_stim.csv,READVersionD.csv,"Read Version D","Dissertation, read only version D",BANKER,MONEY,Study2,F,132,173,Test,User,-,,Recall,Recall1,9757,money,100,8240,9438,1,1,,1
10008908,yrd3k62j99,Nick_Dissertation_EX1,1,101,2020-04-18T13:32:52-07:00,47.819478988647,4,versionC_stim.csv,READVersionD.csv,"Read Version D","Dissertation, read only version D",PAPER,DOCUMENT,Study2,B,109,107,Test,User,-,,Recall,Recall1,47500,document,100,45855,47316,1,1,,1
10008908,yrd3k62j99,Nick_Dissertation_EX1,1,102,2020-04-18T13:33:31-07:00,38.752774953842,4,versionC_stim.csv,READVersionD.csv,"Read Version D","Dissertation, read only version D",HEAD,SCALP,Study2,B,105,108,Test,User,-,,Recall,Recall1,38428,scalp,100,37047,38096,1,1,,1
10008908,yrd3k62j99,Nick_Dissertation_EX1,1,103,2020-04-18T13:34:16-07:00,45.468980073929,4,versionC_stim.csv,READVersionD.csv,"Read Version D","Dissertation, read only version D",LONG,EXTENSION,Study2,B,96,164,Test,User,-,,Recall,Recall1,45141,extension,100,40369,44654,1,1,,1
10008908,yrd3k62j99,Nick_Dissertation_EX1,1,104,2020-04-18T13:34:35-07:00,18.580863952637,4,versionC_stim.csv,READVersionD.csv,"Read Version D","Dissertation, read only version D",SARDINE,FISH,Study2,F,130,147,Test,User,-,,Recall,Recall1,18233,fish,100,16798,17887,1,1,,1
10008908,yrd3k62j99,Nick_Dissertation_EX1,1,105,2020-04-18T13:35:03-07:00,28.472219944,4,versionC_stim.csv,READVersionD.csv,"Read Version D","Dissertation, read only version D",SMELL,INCENSE,Study2,B,110,168,Test,User,-,,Recall,Recall1,28146,incense,100,25471,27775,1,1,,1
10008908,yrd3k62j99,Nick_Dissertation_EX1,1,106,2020-04-18T13:35:33-07:00,29.770340919495,4,versionC_stim.csv,READVersionD.csv,"Read Version D","Dissertation, read only version D",LEAGUE,BASEBALL,Study2,F,131,109,Test,User,-,,Recall,Recall1,29437,baseball,100,27033,29185,1,1,,1
10008908,yrd3k62j99,Nick_Dissertation_EX1,1,107,2020-04-18T13:35:51-07:00,18.518630981445,4,versionC_stim.csv,READVersionD.csv,"Read Version D","Dissertation, read only version D",PLANT,CACTUS,Study2,B,98,128,Test,User,-,,Recall,Recall1,18190,cactus,100,15632,17003,1,1,,1
10008908,yrd3k62j99,Nick_Dissertation_EX1,1,108,2020-04-18T13:35:57-07:00,5.4215002059937,4,versionC_stim.csv,READVersionD.csv,"Read Version D","Dissertation, read only version D",CLOTHES,CAKE,Study2,U,166,172,Test,User,-,,Recall,Recall1,5069,cake,100,3940,4766,1,1,,1
10008908,yrd3k62j99,Nick_Dissertation_EX1,1,109,2020-04-18T13:36:03-07:00,5.9630308151245,4,versionC_stim.csv,READVersionD.csv,"Read Version D","Dissertation, read only version D",SCAR,MAIN,Study2,U,175,110,Test,User,-,,Recall,Recall1,5631,main,100,4540,5385,1,1,,1
10008908,yrd3k62j99,Nick_Dissertation_EX1,1,110,2020-04-18T13:36:32-07:00,29.601320028305,4,versionC_stim.csv,READVersionD.csv,"Read Version D","Dissertation, read only version D",COFFIN,DEAD,Study2,F,128,153,Test,User,-,,Recall,Recall1,29275,dead,100,26675,28968,1,1,,1
10008908,yrd3k62j99,Nick_Dissertation_EX1,1,111,2020-04-18T13:37:21-07:00,48.983479976654,4,versionC_stim.csv,READVersionD.csv,"Read Version D","Dissertation, read only version D",HAVE,OWN,Study2,S,153,148,Test,User,-,,Recall,Recall1,48630,own,100,47688,48420,1,1,,1
10008908,yrd3k62j99,Nick_Dissertation_EX1,1,112,2020-04-18T13:37:57-07:00,35.286185979843,4,versionC_stim.csv,READVersionD.csv,"Read Version D","Dissertation, read only version D",CHARM,VEHICLE,Study2,U,160,157,Test,User,-,,Recall,Recall1,34961,vehicle,100,27745,29512,1,1,,1
10008908,yrd3k62j99,Nick_Dissertation_EX1,1,113,2020-04-18T13:38:02-07:00,4.9965560436249,4,versionC_stim.csv,READVersionD.csv,"Read Version D","Dissertation, read only version D",BALLOON,POP,Study2,F,123,143,Test,User,-,,Recall,Recall1,4678,pop,100,3266,3595,1,1,,1
10008908,yrd3k62j99,Nick_Dissertation_EX1,1,114,2020-04-18T13:38:10-07:00,8.386225938797,4,versionC_stim.csv,READVersionD.csv,"Read Version D","Dissertation, read only version D",WET,DRY,Study2,S,146,129,Test,User,-,,Recall,Recall1,8053,dry,100,7144,7709,1,1,,1
10008908,yrd3k62j99,Nick_Dissertation_EX1,1,115,2020-04-18T13:38:46-07:00,35.744656085968,4,versionC_stim.csv,READVersionD.csv,"Read Version D","Dissertation, read only version D",LIE,TRUTH,Study2,S,148,174,Test,User,-,,Recall,Recall1,35169,truth,100,33475,34366,1,1,,1
10008908,yrd3k62j99,Nick_Dissertation_EX1,1,116,2020-04-18T13:39:06-07:00,19.915303945541,4,versionC_stim.csv,READVersionD.csv,"Read Version D","Dissertation, read only version D",TAN,SUN,Study2,S,155,124,Test,User,-,,Recall,Recall1,19453,sun,100,18601,19203,1,1,,1
10008908,yrd3k62j99,Nick_Dissertation_EX1,1,117,2020-04-18T13:39:25-07:00,19.397749185562,4,versionC_stim.csv,READVersionD.csv,"Read Version D","Dissertation, read only version D",SHAKE,Shell,Study2,U,163,125,Test,User,-,,Recall,Recall1,19077,shell,100,17418,18692,1,1,,1
10008908,yrd3k62j99,Nick_Dissertation_EX1,1,118,2020-04-18T13:39:29-07:00,3.7245688438416,4,versionC_stim.csv,READVersionD.csv,"Read Version D","Dissertation, read only version D",FICTION,LISTEN,Study2,U,164,142,Test,User,-,,Recall,Recall1,3394,listen,100,1939,3191,1,1,,1
10008908,yrd3k62j99,Nick_Dissertation_EX1,1,119,2020-04-18T13:39:52-07:00,23.122189044952,4,versionC_stim.csv,READVersionD.csv,"Read Version D","Dissertation, read only version D",DRINK,WATER,Study2,S,143,120,Test,User,-,,Recall,Recall1,22795,water,100,21586,22446,1,1,,1
10008908,yrd3k62j99,Nick_Dissertation_EX1,1,120,2020-04-18T13:39:57-07:00,5.4806699752808,4,versionC_stim.csv,READVersionD.csv,"Read Version D","Dissertation, read only version D",OBTAIN,MEAT,Study2,U,161,137,Test,User,-,,Recall,Recall1,5155,meat,100,3931,4816,1,1,,1
10008908,yrd3k62j99,Nick_Dissertation_EX1,1,121,2020-04-18T13:41:10-07:00,72.48343706131,4,versionC_stim.csv,READVersionD.csv,"Read Version D","Dissertation, read only version D",END,ADJOURN,Study2,B,101,97,Test,User,-,,Recall,Recall1,71952,adjourn,100,68986,71068,1,1,,0.994
10008908,yrd3k62j99,Nick_Dissertation_EX1,1,122,2020-04-18T13:41:47-07:00,36.92166185379,4,versionC_stim.csv,READVersionD.csv,"Read Version D","Dissertation, read only version D",SIGN,LOAN,Study2,U,171,145,Test,User,-,,Recall,Recall1,36563,loan,100,35245,36300,1,1,,1
10008908,yrd3k62j99,Nick_Dissertation_EX1,1,123,2020-04-18T13:42:06-07:00,19.361113071442,4,versionC_stim.csv,READVersionD.csv,"Read Version D","Dissertation, read only version D",TIE,SHOELACE,Study2,B,99,162,Test,User,-,,Recall,Recall1,18632,shoelace,100,15150,18156,1,1,,1
10008908,yrd3k62j99,Nick_Dissertation_EX1,1,124,2020-04-18T13:42:12-07:00,5.9979350566864,4,versionC_stim.csv,READVersionD.csv,"Read Version D","Dissertation, read only version D",ABLE,CRACKLE,Study2,U,162,133,Test,User,-,,Recall,Recall1,4667,crackle,100,2301,4294,1,1,,1
10008908,yrd3k62j99,Nick_Dissertation_EX1,1,125,2020-04-18T13:42:38-07:00,26.017054080963,4,versionC_stim.csv,READVersionD.csv,"Read Version D","Dissertation, read only version D",MYSTERY,DETECTIVE,Study2,B,100,132,Test,User,-,,Recall,Recall1,25689,detective,100,19958,25352,1,1,,1
10008908,yrd3k62j99,Nick_Dissertation_EX1,1,126,2020-04-18T13:42:55-07:00,16.320605993271,4,versionC_stim.csv,READVersionD.csv,"Read Version D","Dissertation, read only version D",EAT,DINE,Study2,B,111,122,Test,User,-,,Recall,Recall1,15990,dine,100,14729,15517,1,1,,1
10008908,yrd3k62j99,Nick_Dissertation_EX1,1,127,2020-04-18T13:43:05-07:00,10.646922826767,4,versionC_stim.csv,READVersionD.csv,"Read Version D","Dissertation, read only version D",CUT,CHOP,Study2,B,107,102,Test,User,-,,Recall,Recall1,10061,chop,100,9232,9866,1,1,,1
10008908,yrd3k62j99,Nick_Dissertation_EX1,1,128,2020-04-18T13:43:25-07:00,20.253149986267,4,versionC_stim.csv,READVersionD.csv,"Read Version D","Dissertation, read only version D",SHAVE,RAZOR,Study2,S,136,165,Test,User,-,,Recall,Recall1,19906,razor,100,18085,19606,1,1,,1
10008908,yrd3k62j99,Nick_Dissertation_EX1,1,129,2020-04-18T13:43:40-07:00,14.708081007004,4,versionC_stim.csv,READVersionD.csv,"Read Version D","Dissertation, read only version D",CARBON,ELEMENT,Study2,S,141,151,Test,User,-,,Recall,Recall1,14377,element,100,12280,14158,1,1,,1
10008908,yrd3k62j99,Nick_Dissertation_EX1,1,130,2020-04-18T13:44:09-07:00,28.442365169525,4,versionC_stim.csv,READVersionD.csv,"Read Version D","Dissertation, read only version D",PANTHER,CAT,Study2,F,126,117,Test,User,-,,Recall,Recall1,28123,cat,100,27384,27885,1,1,,1
10008908,yrd3k62j99,Nick_Dissertation_EX1,1,131,2020-04-18T13:44:25-07:00,16.672851800919,4,versionC_stim.csv,READVersionD.csv,"Read Version D","Dissertation, read only version D",GAME,CLUE,Study2,B,97,136,Test,User,-,,Recall,Recall1,14318,clue,100,13177,14062,1,1,,1
10008908,yrd3k62j99,Nick_Dissertation_EX1,1,132,2020-04-18T13:45:01-07:00,35.721950054169,4,versionC_stim.csv,READVersionD.csv,"Read Version D","Dissertation, read only version D",ELECTION,MAZE,Study2,U,159,170,Test,User,-,,Recall,Recall1,30707,maze,100,29722,30403,1,1,,1
10008908,yrd3k62j99,Nick_Dissertation_EX1,1,133,2020-04-18T13:45:41-07:00,39.743330001831,4,versionC_stim.csv,READVersionD.csv,"Read Version D","Dissertation, read only version D",SEATBELT,SAFETY,Study2,S,147,101,Test,User,-,,Recall,Recall1,39415,safety,100,36623,38330,1,1,,1
10008908,yrd3k62j99,Nick_Dissertation_EX1,1,134,2020-04-18T13:45:55-07:00,13.993146181107,4,versionC_stim.csv,READVersionD.csv,"Read Version D","Dissertation, read only version D",OUNCE,BOTH,Study2,U,172,169,Test,User,-,,Recall,Recall1,13648,both,100,12820,13460,1,1,,1
10008908,yrd3k62j99,Nick_Dissertation_EX1,1,135,2020-04-18T13:46:03-07:00,8.1030819416046,4,versionC_stim.csv,READVersionD.csv,"Read Version D","Dissertation, read only version D",AWAY,GONE,Study2,S,142,113,Test,User,-,,Recall,Recall1,7773,gone,100,6059,7367,1,1,,1
10008908,yrd3k62j99,Nick_Dissertation_EX1,1,136,2020-04-18T13:46:24-07:00,21.044919013977,4,versionC_stim.csv,READVersionD.csv,"Read Version D","Dissertation, read only version D",TRASH,LITTER,Study2,B,103,112,Test,User,-,,Recall,Recall1,20715,litter,100,19321,20298,1,1,,1
10008908,yrd3k62j99,Nick_Dissertation_EX1,1,137,2020-04-18T13:47:03-07:00,39.239507913589,4,versionC_stim.csv,READVersionD.csv,"Read Version D","Dissertation, read only version D",CAR,DRIVER,Study2,B,106,105,Test,User,-,,Recall,Recall1,38912,driver,100,36158,38580,1,1,,1
10008908,yrd3k62j99,Nick_Dissertation_EX1,1,138,2020-04-18T13:47:24-07:00,21.033102989197,4,versionC_stim.csv,READVersionD.csv,"Read Version D","Dissertation, read only version D",FLIP,TURN,Study2,F,116,167,Test,User,-,,Recall,Recall1,20706,turn,100,19579,20412,1,1,,1
10008908,yrd3k62j99,Nick_Dissertation_EX1,1,139,2020-04-18T13:48:10-07:00,45.526408910751,4,versionC_stim.csv,READVersionD.csv,"Read Version D","Dissertation, read only version D",CLOTH,STRETCH,Study2,U,157,131,Test,User,-,,Recall,Recall1,45197,stretch,100,38359,44733,1,1,,1
10008908,yrd3k62j99,Nick_Dissertation_EX1,1,140,2020-04-18T13:48:19-07:00,9.5140020847321,4,versionC_stim.csv,READVersionD.csv,"Read Version D","Dissertation, read only version D",WINDSHIELD,CAR,Study2,F,117,118,Test,User,-,,Recall,Recall1,9181,car,100,8396,8826,1,1,,1
10008908,yrd3k62j99,Nick_Dissertation_EX1,1,141,2020-04-18T13:48:26-07:00,6.331964969635,4,versionC_stim.csv,READVersionD.csv,"Read Version D","Dissertation, read only version D",THIMBLE,THREAD,Study2,F,121,134,Test,User,-,,Recall,Recall1,5931,thread,100,4482,5366,1,1,,1
10008908,yrd3k62j99,Nick_Dissertation_EX1,1,142,2020-04-18T13:49:31-07:00,65.647886037827,4,versionC_stim.csv,READVersionD.csv,"Read Version D","Dissertation, read only version D",MAROON,JUSTICE,Study2,U,156,176,Test,User,-,,Recall,Recall1,65312,justice,100,62971,64816,1,1,,0.987
10008908,yrd3k62j99,Nick_Dissertation_EX1,1,143,2020-04-18T13:50:00-07:00,28.548950910568,4,versionC_stim.csv,READVersionD.csv,"Read Version D","Dissertation, read only version D",SCISSORS,SHEARS,Study2,B,112,155,Test,User,-,,Recall,Recall1,28142,shears,100,26565,27794,1,1,,1
10008908,yrd3k62j99,Nick_Dissertation_EX1,1,144,2020-04-18T13:50:43-07:00,42.920241117477,4,versionC_stim.csv,READVersionD.csv,"Read Version D","Dissertation, read only version D",REEL,ROD,Study2,S,150,146,Test,User,-,,Recall,Recall1,42581,rod,100,41226,42058,1,1,,1
10008908,yrd3k62j99,Nick_Dissertation_EX1,1,145,2020-04-18T13:51:00-07:00,17.151324033737,4,versionC_stim.csv,READVersionD.csv,"Read Version D","Dissertation, read only version D",TEMPER,TANTRUM,Study2,S,154,115,Test,User,-,,Recall,Recall1,16822,tantrum,100,9976,13809,1,1,,1
10008908,yrd3k62j99,Nick_Dissertation_EX1,1,146,2020-04-18T13:51:31-07:00,30.748206853867,4,versionC_stim.csv,READVersionD.csv,"Read Version D","Dissertation, read only version D",BREAKABLE,GLASS,Study2,F,127,141,Test,User,-,,Recall,Recall1,30396,glass,100,28746,29882,1,1,,1
10008908,yrd3k62j99,Nick_Dissertation_EX1,1,147,2020-04-18T13:51:57-07:00,26.388413190842,4,versionC_stim.csv,READVersionD.csv,"Read Version D","Dissertation, read only version D",Morning,TEMPERATURE,Study2,U,173,116,Test,User,-,,Recall,Recall1,26043,temperature,100,15855,25886,1,1,,1
10008908,yrd3k62j99,Nick_Dissertation_EX1,1,148,2020-04-18T13:52:24-07:00,26.745996952057,4,versionC_stim.csv,READVersionD.csv,"Read Version D","Dissertation, read only version D",VILLAIN,BAD,Study2,F,118,171,Test,User,-,,Recall,Recall1,26394,bad,100,25056,25771,1,1,,1
10008908,yrd3k62j99,Nick_Dissertation_EX1,1,149,2020-04-18T13:52:34-07:00,10.256363868713,4,versionC_stim.csv,READVersionD.csv,"Read Version D","Dissertation, read only version D",BANG,FUZZY,Study2,U,168,144,Test,User,-,,Recall,Recall1,9921,fuzzy,100,8071,9425,1,1,,1
10008908,yrd3k62j99,Nick_Dissertation_EX1,1,150,2020-04-18T13:53:19-07:00,44.680186986923,4,versionC_stim.csv,READVersionD.csv,"Read Version D","Dissertation, read only version D",JAR,MASON,Study2,S,138,160,Test,User,-,,Recall,Recall1,44342,mason,100,42559,43963,1,1,,1
10008908,yrd3k62j99,Nick_Dissertation_EX1,1,151,2020-04-18T13:53:51-07:00,32.246695041656,4,versionC_stim.csv,READVersionD.csv,"Read Version D","Dissertation, read only version D",NAP,SLEEP,Study2,F,134,140,Test,User,-,,Recall,Recall1,31253,sleep,100,29472,30915,1,1,,1
10008908,yrd3k62j99,Nick_Dissertation_EX1,1,152,2020-04-18T13:54:00-07:00,9.3097059726715,4,versionC_stim.csv,READVersionD.csv,"Read Version D","Dissertation, read only version D",RED,CHERRY,Study2,B,104,138,Test,User,-,,Recall,Recall1,8971,cherry,100,7105,8315,1,1,,1
10008908,yrd3k62j99,Nick_Dissertation_EX1,1,153,2020-04-18T13:54:42-07:00,42.015722990036,4,versionC_stim.csv,READVersionD.csv,"Read Version D","Dissertation, read only version D",FAVORITE,BEST,Study2,F,125,130,Test,User,-,,Recall,Recall1,41681,best,100,40431,41331,1,1,,1
10008908,yrd3k62j99,Nick_Dissertation_EX1,1,154,2020-04-18T13:54:46-07:00,4.1698570251465,4,versionC_stim.csv,READVersionD.csv,"Read Version D","Dissertation, read only version D",LONELY,ALONE,Study2,S,145,100,Test,User,-,,Recall,Recall1,3807,alone,100,1866,3151,1,1,,1
10008908,yrd3k62j99,Nick_Dissertation_EX1,1,155,2020-04-18T13:55:02-07:00,15.816851139069,4,versionC_stim.csv,READVersionD.csv,"Read Version D","Dissertation, read only version D",FIGHT,FEUD,Study2,B,113,104,Test,User,-,,Recall,Recall1,15477,"feud ",100,12369,14860,1,1,,1
10008908,yrd3k62j99,Nick_Dissertation_EX1,1,156,2020-04-18T13:55:41-07:00,38.556777000427,4,versionC_stim.csv,READVersionD.csv,"Read Version D","Dissertation, read only version D",LOVE,AFFECTION,Study2,B,115,126,Test,User,-,,Recall,Recall1,38233,affection,100,36254,38017,1,1,,1
10008908,yrd3k62j99,Nick_Dissertation_EX1,1,157,2020-04-18T13:56:11-07:00,30.140075922012,4,versionC_stim.csv,READVersionD.csv,"Read Version D","Dissertation, read only version D",AIRCRAFT,PLANE,Study2,F,129,154,Test,User,-,,Recall,Recall1,29816,plane,100,28844,29443,1,1,,1
10008908,yrd3k62j99,Nick_Dissertation_EX1,1,158,2020-04-18T13:56:18-07:00,6.8871960639954,4,versionC_stim.csv,READVersionD.csv,"Read Version D","Dissertation, read only version D",GROUND,EARTH,Study2,S,144,135,Test,User,-,,Recall,Recall1,6547,earth,100,4699,6012,1,1,,1
10008908,yrd3k62j99,Nick_Dissertation_EX1,1,159,2020-04-18T13:56:35-07:00,17.512958049774,4,versionC_stim.csv,READVersionD.csv,"Read Version D","Dissertation, read only version D",TOIL,LEASE,Study2,U,170,159,Test,User,-,,Recall,Recall1,17162,lease,100,16040,16874,1,1,,1
10008908,yrd3k62j99,Nick_Dissertation_EX1,1,160,2020-04-18T13:56:53-07:00,17.781397819519,4,versionC_stim.csv,READVersionD.csv,"Read Version D","Dissertation, read only version D",DONKEY,MULE,Study2,B,108,121,Test,User,-,,Recall,Recall1,17456,mule,100,16512,17176,1,1,,1
10008908,yrd3k62j99,Nick_Dissertation_EX1,1,161,2020-04-18T13:57:48-07:00,55.269098997116,4,versionC_stim.csv,READVersionD.csv,"Read Version D","Dissertation, read only version D",HATE,NAME,Study2,U,167,127,Test,User,-,,Recall,Recall1,54925,name,100,53303,54463,1,1,,1
10008908,yrd3k62j99,Nick_Dissertation_EX1,1,162,2020-04-18T13:58:15-07:00,26.972855091095,4,versionC_stim.csv,READVersionD.csv,"Read Version D","Dissertation, read only version D",STEAK,GIVE,Study2,U,158,99,Test,User,-,,Recall,Recall1,26616,give,100,24121,26217,1,1,,1
10008908,yrd3k62j99,Nick_Dissertation_EX1,1,163,2020-04-18T13:58:50-07:00,35.129784107208,4,versionC_stim.csv,READVersionD.csv,"Read Version D","Dissertation, read only version D",COLD,CHILL,Study2,B,114,103,Test,User,-,,Recall,Recall1,34599,chill,100,33109,34282,1,1,,1
10008908,yrd3k62j99,Nick_Dissertation_EX1,1,164,2020-04-18T13:59:43-07:00,52.632514953613,4,versionC_stim.csv,READVersionD.csv,"Read Version D","Dissertation, read only version D",CLEAR,MOAT,Study2,U,169,150,Test,User,-,,Recall,Recall1,52221,moat,100,50599,51558,1,1,,1
10008908,yrd3k62j99,Nick_Dissertation_EX1,1,165,2020-04-18T13:59:58-07:00,14.715353012085,4,versionC_stim.csv,READVersionD.csv,"Read Version D","Dissertation, read only version D",REVENGE,EVEN,Study2,F,122,98,Test,User,-,,Recall,Recall1,14353,even,100,13137,13816,1,1,,1
10008908,yrd3k62j99,Nick_Dissertation_EX1,1,166,2020-04-18T14:00:19-07:00,20.711103916168,4,versionC_stim.csv,READVersionD.csv,"Read Version D","Dissertation, read only version D",CHILDREN,MIRROR,Study2,U,174,123,Test,User,-,,Recall,Recall1,20343,mirror,100,16934,19935,1,1,,1
10008908,yrd3k62j99,Nick_Dissertation_EX1,1,167,2020-04-18T14:00:44-07:00,25.97052693367,4,versionC_stim.csv,READVersionD.csv,"Read Version D","Dissertation, read only version D",NOISE,LOUD,Study2,S,152,139,Test,User,-,,Recall,Recall1,25631,loud,100,24264,25276,1,1,,1
10008908,yrd3k62j99,Nick_Dissertation_EX1,1,168,2020-04-18T14:01:34-07:00,49.889919996262,4,versionC_stim.csv,READVersionD.csv,"Read Version D","Dissertation, read only version D",JOKE,KEYS,Study2,U,165,149,Test,User,-,,Recall,Recall1,49561,keys,100,47434,49195,1,1,,1
10008908,yrd3k62j99,Nick_Dissertation_EX1,1,169,2020-04-18T14:01:54-07:00,19.22966504097,4,versionC_stim.csv,READVersionD.csv,"Read Version D","Dissertation, read only version D",BRACELET,WRIST,Study2,S,140,114,Test,User,-,,Recall,Recall1,18897,wrist,100,17281,18424,1,1,,1
10008908,yrd3k62j99,Nick_Dissertation_EX1,1,170,2020-04-18T14:02:01-07:00,7.0625040531158,4,versionC_stim.csv,READVersionD.csv,"Read Version D","Dissertation, read only version D",ACTRESS,STAR,Study2,F,120,106,Test,User,-,,Recall,Recall1,6728,star,100,4783,6234,1,1,,1
10008908,yrd3k62j99,Nick_Dissertation_EX1,1,171,2020-04-18T14:02:51-07:00,50.213767051697,4,versionC_stim.csv,READVersionD.csv,"Read Version D","Dissertation, read only version D",TICK,FLEA,Study2,S,151,156,Test,User,-,,Recall,Recall1,49885,flea,100,48543,49450,1,1,,1
10008908,yrd3k62j99,Nick_Dissertation_EX1,1,172,2020-04-18T14:03:00-07:00,9.5954718589783,4,versionC_stim.csv,READVersionD.csv,"Read Version D","Dissertation, read only version D",COMMUNICATION,PHONE,Study2,S,149,161,Test,User,-,,Recall,Recall1,7070,phone,100,4675,6186,1,1,,1
10008908,yrd3k62j99,Nick_Dissertation_EX1,1,173,2020-04-18T14:03:37-07:00,36.99031496048,4,versionC_stim.csv,READVersionD.csv,"Read Version D","Dissertation, read only version D",EQUAL,RIGHTS,Study2,S,137,119,Test,User,-,,Recall,Recall1,36666,rights,100,34203,36251,1,1,,1
10008908,yrd3k62j99,Nick_Dissertation_EX1,1,174,2020-04-18T14:03:41-07:00,3.8241510391235,4,versionC_stim.csv,READVersionD.csv,"Read Version D","Dissertation, read only version D",BRAWL,FIGHT,Study2,F,135,163,Test,User,-,,Recall,Recall1,3496,fight,100,1650,3129,1,1,,1
10008908,yrd3k62j99,Nick_Dissertation_EX1,1,175,2020-04-18T14:04:50-07:00,68.599964141846,4,versionC_stim.csv,READVersionD.csv,"Read Version D","Dissertation, read only version D",,,,,,0,Instruct,-,10,"You will now be presented with a new set of word pairs. Please study each pair. Remember that your memory will be tested! When finished, press Enter to move to the next pair.",Initial_Instruct,Instruct4,68008,,,-1,-1,,,,0.639
10008908,yrd3k62j99,Nick_Dissertation_EX1,1,176,2020-04-18T14:05:44-07:00,53.7581179142,4,versionC_stim.csv,READVersionD.csv,"Read Version D","Dissertation, read only version D",GREEN,TREES,BUFFER1,Buffer,1,4,Study,User,-,,Study/JOL,BUFFER3,53438,,,-1,-1,,,,1
10008908,yrd3k62j99,Nick_Dissertation_EX1,1,177,2020-04-18T14:05:50-07:00,6.2154519557953,4,versionC_stim.csv,READVersionD.csv,"Read Version D","Dissertation, read only version D",HIDE,SCARE,BUFFER1,Buffer,4,6,Study,User,-,,Study/JOL,BUFFER3,5894,,,-1,-1,,,,1
10008908,yrd3k62j99,Nick_Dissertation_EX1,1,178,2020-04-18T14:05:58-07:00,7.6230850219727,4,versionC_stim.csv,READVersionD.csv,"Read Version D","Dissertation, read only version D",BUTTER,PEANUT,BUFFER1,Buffer,3,2,Study,User,-,,Study/JOL,BUFFER3,7275,,,-1,-1,,,,1
10008908,yrd3k62j99,Nick_Dissertation_EX1,1,179,2020-04-18T14:06:03-07:00,5.3194720745087,4,versionC_stim.csv,READVersionD.csv,"Read Version D","Dissertation, read only version D",JAM,SPACE,BUFFER1,Buffer,5,3,Study,User,-,,Study/JOL,BUFFER3,4994,,,-1,-1,,,,1
10008908,yrd3k62j99,Nick_Dissertation_EX1,1,180,2020-04-18T14:06:12-07:00,9.6752679347992,4,versionC_stim.csv,READVersionD.csv,"Read Version D","Dissertation, read only version D",CATCHER,BASEBALL,BUFFER1,Buffer,2,5,Study,User,-,,Study/JOL,BUFFER3,9352,,,-1,-1,,,,1
10008908,yrd3k62j99,Nick_Dissertation_EX1,1,181,2020-04-18T14:06:18-07:00,5.231593132019,4,versionC_stim.csv,READVersionD.csv,"Read Version D","Dissertation, read only version D",CHEESE,WINE,Study1,S,57,46,Study,User,-,,Study/JOL,"Study Phase2",4871,,,-1,-1,,,,1
10008908,yrd3k62j99,Nick_Dissertation_EX1,1,182,2020-04-18T14:06:31-07:00,13.410630941391,4,versionC_stim.csv,READVersionD.csv,"Read Version D","Dissertation, read only version D",FISH,TUNA,Study1,B,25,61,Study,User,-,,Study/JOL,"Study Phase2",7496,,,-1,-1,,,,1
10008908,yrd3k62j99,Nick_Dissertation_EX1,1,183,2020-04-18T14:06:40-07:00,8.4814579486847,4,versionC_stim.csv,READVersionD.csv,"Read Version D","Dissertation, read only version D",BLAZE,FIRE,Study1,F,45,9,Study,User,-,,Study/JOL,"Study Phase2",8153,,,-1,-1,,,,1
10008908,yrd3k62j99,Nick_Dissertation_EX1,1,184,2020-04-18T14:06:46-07:00,6.1858100891113,4,versionC_stim.csv,READVersionD.csv,"Read Version D","Dissertation, read only version D",DIVISION,MATH,Study1,F,33,83,Study,User,-,,Study/JOL,"Study Phase2",5846,,,-1,-1,,,,1
10008908,yrd3k62j99,Nick_Dissertation_EX1,1,185,2020-04-18T14:06:53-07:00,7.5787239074707,4,versionC_stim.csv,READVersionD.csv,"Read Version D","Dissertation, read only version D",TALK,DISCUSSION,Study1,B,21,39,Study,User,-,,Study/JOL,"Study Phase2",7256,,,-1,-1,,,,1
10008908,yrd3k62j99,Nick_Dissertation_EX1,1,186,2020-04-18T14:07:05-07:00,11.553128957748,4,versionC_stim.csv,READVersionD.csv,"Read Version D","Dissertation, read only version D",WAR,REVOLUTION,Study1,B,20,22,Study,User,-,,Study/JOL,"Study Phase2",11196,,,-1,-1,,,,1
10008908,yrd3k62j99,Nick_Dissertation_EX1,1,187,2020-04-18T14:07:13-07:00,7.7148880958557,4,versionC_stim.csv,READVersionD.csv,"Read Version D","Dissertation, read only version D",DROWSY,SLEEP,Study1,F,41,62,Study,User,-,,Study/JOL,"Study Phase2",7380,,,-1,-1,,,,1
10008908,yrd3k62j99,Nick_Dissertation_EX1,1,188,2020-04-18T14:07:19-07:00,6.4445509910583,4,versionC_stim.csv,READVersionD.csv,"Read Version D","Dissertation, read only version D",SITE,LOCATION,Study1,S,48,7,Study,User,-,,Study/JOL,"Study Phase2",6090,,,-1,-1,,,,1
10008908,yrd3k62j99,Nick_Dissertation_EX1,1,189,2020-04-18T14:07:30-07:00,10.430198907852,4,versionC_stim.csv,READVersionD.csv,"Read Version D","Dissertation, read only version D",LIVER,KIDNEY,Study1,S,53,23,Study,User,-,,Study/JOL,"Study Phase2",10108,,,-1,-1,,,,1
10008908,yrd3k62j99,Nick_Dissertation_EX1,1,190,2020-04-18T14:07:41-07:00,11.098634958267,4,versionC_stim.csv,READVersionD.csv,"Read Version D","Dissertation, read only version D",BELT,SOON,Study1,U,70,47,Study,User,-,,Study/JOL,"Study Phase2",10771,,,-1,-1,,,,1
10008908,yrd3k62j99,Nick_Dissertation_EX1,1,191,2020-04-18T14:07:46-07:00,4.8871991634369,4,versionC_stim.csv,READVersionD.csv,"Read Version D","Dissertation, read only version D",HAND,FIX,Study1,U,75,72,Study,User,-,,Study/JOL,"Study Phase2",4540,,,-1,-1,,,,1
10008908,yrd3k62j99,Nick_Dissertation_EX1,1,192,2020-04-18T14:08:01-07:00,15.626008987427,4,versionC_stim.csv,READVersionD.csv,"Read Version D","Dissertation, read only version D",STING,HORNET,Study1,B,11,42,Study,User,-,,Study/JOL,"Study Phase2",15287,,,-1,-1,,,,1
10008908,yrd3k62j99,Nick_Dissertation_EX1,1,193,2020-04-18T14:08:06-07:00,5.2232160568237,4,versionC_stim.csv,READVersionD.csv,"Read Version D","Dissertation, read only version D",JURY,TRIAL,Study1,S,50,78,Study,User,-,,Study/JOL,"Study Phase2",4890,,,-1,-1,,,,1
10008908,yrd3k62j99,Nick_Dissertation_EX1,1,194,2020-04-18T14:08:11-07:00,4.4410269260406,4,versionC_stim.csv,READVersionD.csv,"Read Version D","Dissertation, read only version D",CHORE,WORK,Study1,F,39,20,Study,User,-,,Study/JOL,"Study Phase2",4114,,,-1,-1,,,,1
10008908,yrd3k62j99,Nick_Dissertation_EX1,1,195,2020-04-18T14:08:18-07:00,7.0263428688049,4,versionC_stim.csv,READVersionD.csv,"Read Version D","Dissertation, read only version D",SACKING,DIETARY,Study1,U,67,38,Study,User,-,,Study/JOL,"Study Phase2",6688,,,-1,-1,,,,1
10008908,yrd3k62j99,Nick_Dissertation_EX1,1,196,2020-04-18T14:08:28-07:00,10.077628135681,4,versionC_stim.csv,READVersionD.csv,"Read Version D","Dissertation, read only version D",DEFINITION,MEANING,Study1,S,62,18,Study,User,-,,Study/JOL,"Study Phase2",9610,,,-1,-1,,,,1
10008908,yrd3k62j99,Nick_Dissertation_EX1,1,197,2020-04-18T14:08:33-07:00,4.6559319496155,4,versionC_stim.csv,READVersionD.csv,"Read Version D","Dissertation, read only version D",BAR,GRILL,Study1,S,52,49,Study,User,-,,Study/JOL,"Study Phase2",4332,,,-1,-1,,,,1
10008908,yrd3k62j99,Nick_Dissertation_EX1,1,198,2020-04-18T14:08:38-07:00,5.4014201164246,4,versionC_stim.csv,READVersionD.csv,"Read Version D","Dissertation, read only version D",WOULD,CASH,Study1,U,83,54,Study,User,-,,Study/JOL,"Study Phase2",5072,,,-1,-1,,,,1
10008908,yrd3k62j99,Nick_Dissertation_EX1,1,199,2020-04-18T14:08:44-07:00,5.6227798461914,4,versionC_stim.csv,READVersionD.csv,"Read Version D","Dissertation, read only version D",CHILI,HOT,Study1,F,37,44,Study,User,-,,Study/JOL,"Study Phase2",5292,,,-1,-1,,,,1
10008908,yrd3k62j99,Nick_Dissertation_EX1,1,200,2020-04-18T14:08:52-07:00,8.3311259746552,4,versionC_stim.csv,READVersionD.csv,"Read Version D","Dissertation, read only version D",HUNGRY,PARK,Study1,U,68,50,Study,User,-,,Study/JOL,"Study Phase2",8010,,,-1,-1,,,,1
10008908,yrd3k62j99,Nick_Dissertation_EX1,1,201,2020-04-18T14:08:58-07:00,5.7084240913391,4,versionC_stim.csv,READVersionD.csv,"Read Version D","Dissertation, read only version D",CHILD,BABY,Study1,S,64,56,Study,User,-,,Study/JOL,"Study Phase2",5382,,,-1,-1,,,,1
10008908,yrd3k62j99,Nick_Dissertation_EX1,1,202,2020-04-18T14:09:04-07:00,6.4081909656525,4,versionC_stim.csv,READVersionD.csv,"Read Version D","Dissertation, read only version D",FOOT,SHOE,Study1,S,60,12,Study,User,-,,Study/JOL,"Study Phase2",6081,,,-1,-1,,,,1
10008908,yrd3k62j99,Nick_Dissertation_EX1,1,203,2020-04-18T14:09:12-07:00,7.9653780460358,4,versionC_stim.csv,READVersionD.csv,"Read Version D","Dissertation, read only version D",NEWS,EDITOR,Study1,B,10,34,Study,User,-,,Study/JOL,"Study Phase2",7645,,,-1,-1,,,,1
10008908,yrd3k62j99,Nick_Dissertation_EX1,1,204,2020-04-18T14:09:20-07:00,7.7072188854218,4,versionC_stim.csv,READVersionD.csv,"Read Version D","Dissertation, read only version D",CAVE,DARK,Study1,F,28,30,Study,User,-,,Study/JOL,"Study Phase2",7356,,,-1,-1,,,,1
10008908,yrd3k62j99,Nick_Dissertation_EX1,1,205,2020-04-18T14:09:25-07:00,5.4225170612335,4,versionC_stim.csv,READVersionD.csv,"Read Version D","Dissertation, read only version D",COW,HERD,Study1,B,22,48,Study,User,-,,Study/JOL,"Study Phase2",5083,,,-1,-1,,,,1
10008908,yrd3k62j99,Nick_Dissertation_EX1,1,206,2020-04-18T14:09:47-07:00,21.790890932083,4,versionC_stim.csv,READVersionD.csv,"Read Version D","Dissertation, read only version D",POSITION,MACHINE,Study1,U,76,43,Study,User,-,,Study/JOL,"Study Phase2",21444,,,-1,-1,,,,1
10008908,yrd3k62j99,Nick_Dissertation_EX1,1,207,2020-04-18T14:10:01-07:00,13.797734022141,4,versionC_stim.csv,READVersionD.csv,"Read Version D","Dissertation, read only version D",STENCH,SMELL,Study1,F,42,8,Study,User,-,,Study/JOL,"Study Phase2",13460,,,-1,-1,,,,1
10008908,yrd3k62j99,Nick_Dissertation_EX1,1,208,2020-04-18T14:10:09-07:00,7.8319170475006,4,versionC_stim.csv,READVersionD.csv,"Read Version D","Dissertation, read only version D",SODA,POP,Study1,S,56,75,Study,User,-,,Study/JOL,"Study Phase2",7505,,,-1,-1,,,,1
10008908,yrd3k62j99,Nick_Dissertation_EX1,1,209,2020-04-18T14:10:24-07:00,15.517468929291,4,versionC_stim.csv,READVersionD.csv,"Read Version D","Dissertation, read only version D",ENOUGH,FULL,Study1,F,26,80,Study,User,-,,Study/JOL,"Study Phase2",15189,,,-1,-1,,,,1
10008908,yrd3k62j99,Nick_Dissertation_EX1,1,210,2020-04-18T14:10:31-07:00,6.4969980716705,4,versionC_stim.csv,READVersionD.csv,"Read Version D","Dissertation, read only version D",PILOT,PLANE,Study1,F,44,33,Study,User,-,,Study/JOL,"Study Phase2",6164,,,-1,-1,,,,1
10008908,yrd3k62j99,Nick_Dissertation_EX1,1,211,2020-04-18T14:10:37-07:00,6.8154439926147,4,versionC_stim.csv,READVersionD.csv,"Read Version D","Dissertation, read only version D",CAR,HAPPY,Study1,U,77,86,Study,User,-,,Study/JOL,"Study Phase2",6481,,,-1,-1,,,,1
10008908,yrd3k62j99,Nick_Dissertation_EX1,1,212,2020-04-18T14:10:44-07:00,7.0120260715485,4,versionC_stim.csv,READVersionD.csv,"Read Version D","Dissertation, read only version D",TOILET,BATHROOM,Study1,S,58,19,Study,User,-,,Study/JOL,"Study Phase2",6664,,,-1,-1,,,,1
10008908,yrd3k62j99,Nick_Dissertation_EX1,1,213,2020-04-18T14:10:50-07:00,5.4339640140533,4,versionC_stim.csv,READVersionD.csv,"Read Version D","Dissertation, read only version D",BIRD,SWAN,Study1,B,14,79,Study,User,-,,Study/JOL,"Study Phase2",5106,,,-1,-1,,,,1
10008908,yrd3k62j99,Nick_Dissertation_EX1,1,214,2020-04-18T14:12:00-07:00,69.817296028137,4,versionC_stim.csv,READVersionD.csv,"Read Version D","Dissertation, read only version D",TUCK,ALLOW,Study1,U,78,63,Study,User,-,,Study/JOL,"Study Phase2",69484,,,-1,-1,,,,0.984
10008908,yrd3k62j99,Nick_Dissertation_EX1,1,215,2020-04-18T14:12:05-07:00,5.6894638538361,4,versionC_stim.csv,READVersionD.csv,"Read Version D","Dissertation, read only version D",FUTURE,PAST,Study1,S,61,77,Study,User,-,,Study/JOL,"Study Phase2",5362,,,-1,-1,,,,1
10008908,yrd3k62j99,Nick_Dissertation_EX1,1,216,2020-04-18T14:12:13-07:00,7.2284190654755,4,versionC_stim.csv,READVersionD.csv,"Read Version D","Dissertation, read only version D",FLOOR,DISCOVER,Study1,U,71,40,Study,User,-,,Study/JOL,"Study Phase2",6908,,,-1,-1,,,,1
10008908,yrd3k62j99,Nick_Dissertation_EX1,1,217,2020-04-18T14:12:17-07:00,4.4801499843597,4,versionC_stim.csv,READVersionD.csv,"Read Version D","Dissertation, read only version D",SICK,HIDE,Study1,U,84,67,Study,User,-,,Study/JOL,"Study Phase2",4131,,,-1,-1,,,,1
10008908,yrd3k62j99,Nick_Dissertation_EX1,1,218,2020-04-18T14:12:25-07:00,7.476224899292,4,versionC_stim.csv,READVersionD.csv,"Read Version D","Dissertation, read only version D",BAD,DELINQUENT,Study1,B,6,14,Study,User,-,,Study/JOL,"Study Phase2",7117,,,-1,-1,,,,1
10008908,yrd3k62j99,Nick_Dissertation_EX1,1,219,2020-04-18T14:12:30-07:00,5.695347070694,4,versionC_stim.csv,READVersionD.csv,"Read Version D","Dissertation, read only version D",ROUND,CIRCLE,Study1,S,65,35,Study,User,-,,Study/JOL,"Study Phase2",5368,,,-1,-1,,,,1
10008908,yrd3k62j99,Nick_Dissertation_EX1,1,220,2020-04-18T14:12:36-07:00,5.3675961494446,4,versionC_stim.csv,READVersionD.csv,"Read Version D","Dissertation, read only version D",ADD,VALLEY,Study1,U,82,29,Study,User,-,,Study/JOL,"Study Phase2",5023,,,-1,-1,,,,1
10008908,yrd3k62j99,Nick_Dissertation_EX1,1,221,2020-04-18T14:12:42-07:00,6.0532069206238,4,versionC_stim.csv,READVersionD.csv,"Read Version D","Dissertation, read only version D",DOG,PAW,Study1,B,15,41,Study,User,-,,Study/JOL,"Study Phase2",5720,,,-1,-1,,,,1
10008908,yrd3k62j99,Nick_Dissertation_EX1,1,222,2020-04-18T14:12:48-07:00,6.2404320240021,4,versionC_stim.csv,READVersionD.csv,"Read Version D","Dissertation, read only version D",ASSIGNMENT,DUE,Study1,S,46,58,Study,User,-,,Study/JOL,"Study Phase2",5907,,,-1,-1,,,,1
10008908,yrd3k62j99,Nick_Dissertation_EX1,1,223,2020-04-18T14:12:58-07:00,9.7462408542633,4,versionC_stim.csv,READVersionD.csv,"Read Version D","Dissertation, read only version D",FANTASTIC,GREAT,Study1,F,35,66,Study,User,-,,Study/JOL,"Study Phase2",9416,,,-1,-1,,,,1
10008908,yrd3k62j99,Nick_Dissertation_EX1,1,224,2020-04-18T14:13:10-07:00,12.239212989807,4,versionC_stim.csv,READVersionD.csv,"Read Version D","Dissertation, read only version D",ATTORNEY,LAW,Study1,F,34,26,Study,User,-,,Study/JOL,"Study Phase2",11812,,,-1,-1,,,,1
10008908,yrd3k62j99,Nick_Dissertation_EX1,1,225,2020-04-18T14:13:18-07:00,8.5008881092072,4,versionC_stim.csv,READVersionD.csv,"Read Version D","Dissertation, read only version D",STOMACH,DIGESTION,Study1,B,7,52,Study,User,-,,Study/JOL,"Study Phase2",8158,,,-1,-1,,,,1
10008908,yrd3k62j99,Nick_Dissertation_EX1,1,226,2020-04-18T14:13:28-07:00,9.8517060279846,4,versionC_stim.csv,READVersionD.csv,"Read Version D","Dissertation, read only version D",FLOWER,ORCHID,Study1,B,24,32,Study,User,-,,Study/JOL,"Study Phase2",9531,,,-1,-1,,,,1
10008908,yrd3k62j99,Nick_Dissertation_EX1,1,227,2020-04-18T14:13:33-07:00,5.0237550735474,4,versionC_stim.csv,READVersionD.csv,"Read Version D","Dissertation, read only version D",SIP,DRINK,Study1,F,27,73,Study,User,-,,Study/JOL,"Study Phase2",4697,,,-1,-1,,,,1
10008908,yrd3k62j99,Nick_Dissertation_EX1,1,228,2020-04-18T14:13:40-07:00,7.0332279205322,4,versionC_stim.csv,READVersionD.csv,"Read Version D","Dissertation, read only version D",SIGHT,DEBATE,Study1,U,73,71,Study,User,-,,Study/JOL,"Study Phase2",6707,,,-1,-1,,,,1
10008908,yrd3k62j99,Nick_Dissertation_EX1,1,229,2020-04-18T14:13:47-07:00,6.4080500602722,4,versionC_stim.csv,READVersionD.csv,"Read Version D","Dissertation, read only version D",RACKET,BALL,Study1,F,38,55,Study,User,-,,Study/JOL,"Study Phase2",6074,,,-1,-1,,,,1
10008908,yrd3k62j99,Nick_Dissertation_EX1,1,230,2020-04-18T14:13:52-07:00,5.1143918037415,4,versionC_stim.csv,READVersionD.csv,"Read Version D","Dissertation, read only version D",OUT,WAY,Study1,B,16,13,Study,User,-,,Study/JOL,"Study Phase2",4785,,,-1,-1,,,,1
10008908,yrd3k62j99,Nick_Dissertation_EX1,1,231,2020-04-18T14:13:57-07:00,5.1458041667938,4,versionC_stim.csv,READVersionD.csv,"Read Version D","Dissertation, read only version D",MONEY,WAGE,Study1,B,8,64,Study,User,-,,Study/JOL,"Study Phase2",4801,,,-1,-1,,,,1
10008908,yrd3k62j99,Nick_Dissertation_EX1,1,232,2020-04-18T14:14:02-07:00,5.1193768978119,4,versionC_stim.csv,READVersionD.csv,"Read Version D","Dissertation, read only version D",COLD,BITTER,Study1,B,12,24,Study,User,-,,Study/JOL,"Study Phase2",4786,,,-1,-1,,,,1
10008908,yrd3k62j99,Nick_Dissertation_EX1,1,233,2020-04-18T14:14:10-07:00,8.4087550640106,4,versionC_stim.csv,READVersionD.csv,"Read Version D","Dissertation, read only version D",AMOUNT,NUMBER,Study1,S,47,36,Study,User,-,,Study/JOL,"Study Phase2",8082,,,-1,-1,,,,1
10008908,yrd3k62j99,Nick_Dissertation_EX1,1,234,2020-04-18T14:14:15-07:00,4.0591850280762,4,versionC_stim.csv,READVersionD.csv,"Read Version D","Dissertation, read only version D",LION,ART,Study1,U,79,65,Study,User,-,,Study/JOL,"Study Phase2",3702,,,-1,-1,,,,1
10008908,yrd3k62j99,Nick_Dissertation_EX1,1,235,2020-04-18T14:14:23-07:00,8.8560268878937,4,versionC_stim.csv,READVersionD.csv,"Read Version D","Dissertation, read only version D",FAMINE,HUNGER,Study1,F,40,57,Study,User,-,,Study/JOL,"Study Phase2",8523,,,-1,-1,,,,1
10008908,yrd3k62j99,Nick_Dissertation_EX1,1,236,2020-04-18T14:14:32-07:00,8.5548830032349,4,versionC_stim.csv,READVersionD.csv,"Read Version D","Dissertation, read only version D",ACCIDENT,STRONG,Study1,U,80,53,Study,User,-,,Study/JOL,"Study Phase2",8229,,,-1,-1,,,,1
10008908,yrd3k62j99,Nick_Dissertation_EX1,1,237,2020-04-18T14:15:05-07:00,32.829571008682,4,versionC_stim.csv,READVersionD.csv,"Read Version D","Dissertation, read only version D",GROWTH,HEIGHT,Study1,F,30,10,Study,User,-,,Study/JOL,"Study Phase2",32504,,,-1,-1,,,,1
10008908,yrd3k62j99,Nick_Dissertation_EX1,1,238,2020-04-18T14:15:12-07:00,7.1056959629059,4,versionC_stim.csv,READVersionD.csv,"Read Version D","Dissertation, read only version D",ATTIRE,CLOTHES,Study1,F,43,17,Study,User,-,,Study/JOL,"Study Phase2",6735,,,-1,-1,,,,1
10008908,yrd3k62j99,Nick_Dissertation_EX1,1,239,2020-04-18T14:15:17-07:00,5.2035040855408,4,versionC_stim.csv,READVersionD.csv,"Read Version D","Dissertation, read only version D",BEE,HONEY,Study1,S,63,68,Study,User,-,,Study/JOL,"Study Phase2",4852,,,-1,-1,,,,1
10008908,yrd3k62j99,Nick_Dissertation_EX1,1,240,2020-04-18T14:15:26-07:00,8.680006980896,4,versionC_stim.csv,READVersionD.csv,"Read Version D","Dissertation, read only version D",HAMMER,CHISEL,Study1,B,9,85,Study,User,-,,Study/JOL,"Study Phase2",8336,,,-1,-1,,,,1
10008908,yrd3k62j99,Nick_Dissertation_EX1,1,241,2020-04-18T14:15:30-07:00,4.5326399803162,4,versionC_stim.csv,READVersionD.csv,"Read Version D","Dissertation, read only version D",END,BEGIN,Study1,S,54,45,Study,User,-,,Study/JOL,"Study Phase2",4203,,,-1,-1,,,,1
10008908,yrd3k62j99,Nick_Dissertation_EX1,1,242,2020-04-18T14:15:36-07:00,5.7053070068359,4,versionC_stim.csv,READVersionD.csv,"Read Version D","Dissertation, read only version D",WORD,SENTENCE,Study1,F,31,60,Study,User,-,,Study/JOL,"Study Phase2",5351,,,-1,-1,,,,1
10008908,yrd3k62j99,Nick_Dissertation_EX1,1,243,2020-04-18T14:15:41-07:00,5.4696481227875,4,versionC_stim.csv,READVersionD.csv,"Read Version D","Dissertation, read only version D",WASTE,DUMP,Study1,S,49,82,Study,User,-,,Study/JOL,"Study Phase2",5136,,,-1,-1,,,,1
10008908,yrd3k62j99,Nick_Dissertation_EX1,1,244,2020-04-18T14:15:46-07:00,4.5041518211365,4,versionC_stim.csv,READVersionD.csv,"Read Version D","Dissertation, read only version D",WASP,BUG,Study1,F,32,27,Study,User,-,,Study/JOL,"Study Phase2",4161,,,-1,-1,,,,1
10008908,yrd3k62j99,Nick_Dissertation_EX1,1,245,2020-04-18T14:15:51-07:00,5.0748300552368,4,versionC_stim.csv,READVersionD.csv,"Read Version D","Dissertation, read only version D",LATCH,KEY,Study1,F,36,76,Study,User,-,,Study/JOL,"Study Phase2",4707,,,-1,-1,,,,1
10008908,yrd3k62j99,Nick_Dissertation_EX1,1,246,2020-04-18T14:16:01-07:00,9.9703431129456,4,versionC_stim.csv,READVersionD.csv,"Read Version D","Dissertation, read only version D",DESIGN,ARCHITECTURE,Study1,S,51,11,Study,User,-,,Study/JOL,"Study Phase2",9629,,,-1,-1,,,,1
10008908,yrd3k62j99,Nick_Dissertation_EX1,1,247,2020-04-18T14:16:18-07:00,16.765919923782,4,versionC_stim.csv,READVersionD.csv,"Read Version D","Dissertation, read only version D",CLUTTER,PUSHER,Study1,U,66,74,Study,User,-,,Study/JOL,"Study Phase2",16350,,,-1,-1,,,,1
10008908,yrd3k62j99,Nick_Dissertation_EX1,1,248,2020-04-18T14:16:28-07:00,10.683348894119,4,versionC_stim.csv,READVersionD.csv,"Read Version D","Dissertation, read only version D",BRONZE,ARTERY,Study1,U,74,84,Study,User,-,,Study/JOL,"Study Phase2",10352,,,-1,-1,,,,1
10008908,yrd3k62j99,Nick_Dissertation_EX1,1,249,2020-04-18T14:16:36-07:00,7.1712281703949,4,versionC_stim.csv,READVersionD.csv,"Read Version D","Dissertation, read only version D",RIDDLE,SUGAR,Study1,U,81,31,Study,User,-,,Study/JOL,"Study Phase2",6843,,,-1,-1,,,,1
10008908,yrd3k62j99,Nick_Dissertation_EX1,1,250,2020-04-18T14:16:42-07:00,6.4209969043732,4,versionC_stim.csv,READVersionD.csv,"Read Version D","Dissertation, read only version D",SEIZE,TAKE,Study1,F,29,28,Study,User,-,,Study/JOL,"Study Phase2",6085,,,-1,-1,,,,1
10008908,yrd3k62j99,Nick_Dissertation_EX1,1,251,2020-04-18T14:16:48-07:00,6.2472009658813,4,versionC_stim.csv,READVersionD.csv,"Read Version D","Dissertation, read only version D",ROCK,GEOLOGY,Study1,B,19,81,Study,User,-,,Study/JOL,"Study Phase2",5895,,,-1,-1,,,,1
10008908,yrd3k62j99,Nick_Dissertation_EX1,1,252,2020-04-18T14:17:09-07:00,20.795216083527,4,versionC_stim.csv,READVersionD.csv,"Read Version D","Dissertation, read only version D",SALAD,LETTUCE,Study1,S,59,37,Study,User,-,,Study/JOL,"Study Phase2",20461,,,-1,-1,,,,1
10008908,yrd3k62j99,Nick_Dissertation_EX1,1,253,2020-04-18T14:17:14-07:00,4.7476329803467,4,versionC_stim.csv,READVersionD.csv,"Read Version D","Dissertation, read only version D",WIND,BLOW,Study1,S,55,69,Study,User,-,,Study/JOL,"Study Phase2",4388,,,-1,-1,,,,1
10008908,yrd3k62j99,Nick_Dissertation_EX1,1,254,2020-04-18T14:17:22-07:00,8.1071119308472,4,versionC_stim.csv,READVersionD.csv,"Read Version D","Dissertation, read only version D",BUSINESS,DEATH,Study1,U,72,70,Study,User,-,,Study/JOL,"Study Phase2",7753,,,-1,-1,,,,1
10008908,yrd3k62j99,Nick_Dissertation_EX1,1,255,2020-04-18T14:17:27-07:00,5.1173460483551,4,versionC_stim.csv,READVersionD.csv,"Read Version D","Dissertation, read only version D",VASE,KING,Study1,U,85,16,Study,User,-,,Study/JOL,"Study Phase2",4764,,,-1,-1,,,,1
10008908,yrd3k62j99,Nick_Dissertation_EX1,1,256,2020-04-18T14:17:32-07:00,4.9219560623169,4,versionC_stim.csv,READVersionD.csv,"Read Version D","Dissertation, read only version D",PLANT,ROOT,Study1,B,13,15,Study,User,-,,Study/JOL,"Study Phase2",4585,,,-1,-1,,,,1
10008908,yrd3k62j99,Nick_Dissertation_EX1,1,257,2020-04-18T14:17:40-07:00,8.2432570457458,4,versionC_stim.csv,READVersionD.csv,"Read Version D","Dissertation, read only version D",WATER,BRIDGE,Study1,B,18,51,Study,User,-,,Study/JOL,"Study Phase2",7603,,,-1,-1,,,,1
10008908,yrd3k62j99,Nick_Dissertation_EX1,1,258,2020-04-18T14:17:48-07:00,8.2308208942413,4,versionC_stim.csv,READVersionD.csv,"Read Version D","Dissertation, read only version D",CARD,CREDIT,Study1,B,23,21,Study,User,-,,Study/JOL,"Study Phase2",7895,,,-1,-1,,,,1
10008908,yrd3k62j99,Nick_Dissertation_EX1,1,259,2020-04-18T14:17:55-07:00,6.4827151298523,4,versionC_stim.csv,READVersionD.csv,"Read Version D","Dissertation, read only version D",CLEAN,HYGIENE,Study1,B,17,25,Study,User,-,,Study/JOL,"Study Phase2",6154,,,-1,-1,,,,1
10008908,yrd3k62j99,Nick_Dissertation_EX1,1,260,2020-04-18T14:18:00-07:00,5.4270119667053,4,versionC_stim.csv,READVersionD.csv,"Read Version D","Dissertation, read only version D",WOMAN,LIFT,Study1,U,69,59,Study,User,-,,Study/JOL,"Study Phase2",5096,,,-1,-1,,,,1
10008908,yrd3k62j99,Nick_Dissertation_EX1,1,261,2020-04-18T14:18:07-07:00,7.0564169883728,4,versionC_stim.csv,READVersionD.csv,"Read Version D","Dissertation, read only version D",POLICE,SHERRIF,BUFFER2,Buffer,87,90,Study,User,-,,Study/JOL,BUFFER4,6698,,,-1,-1,,,,1
10008908,yrd3k62j99,Nick_Dissertation_EX1,1,262,2020-04-18T14:18:14-07:00,6.1951549053192,4,versionC_stim.csv,READVersionD.csv,"Read Version D","Dissertation, read only version D",CHOCOLATE,MALT,BUFFER2,Buffer,88,88,Study,User,-,,Study/JOL,BUFFER4,5850,,,-1,-1,,,,1
10008908,yrd3k62j99,Nick_Dissertation_EX1,1,263,2020-04-18T14:18:19-07:00,5.6321971416473,4,versionC_stim.csv,READVersionD.csv,"Read Version D","Dissertation, read only version D",STUFF,THING,BUFFER2,Buffer,90,87,Study,User,-,,Study/JOL,BUFFER4,5304,,,-1,-1,,,,1
10008908,yrd3k62j99,Nick_Dissertation_EX1,1,264,2020-04-18T14:18:26-07:00,7.1559669971466,4,versionC_stim.csv,READVersionD.csv,"Read Version D","Dissertation, read only version D",GOOSE,GEESE,BUFFER2,Buffer,86,89,Study,User,-,,Study/JOL,BUFFER4,6803,,,-1,-1,,,,1
10008908,yrd3k62j99,Nick_Dissertation_EX1,1,265,2020-04-18T14:18:35-07:00,8.7582268714905,4,versionC_stim.csv,READVersionD.csv,"Read Version D","Dissertation, read only version D",SPACE,MOON,BUFFER2,Buffer,89,91,Study,User,-,,Study/JOL,BUFFER4,8224,,,-1,-1,,,,1
10008908,yrd3k62j99,Nick_Dissertation_EX1,1,266,2020-04-18T14:18:37-07:00,1.5766549110413,4,versionC_stim.csv,READVersionD.csv,"Read Version D","Dissertation, read only version D",,,,,,0,Instruct,User,-,"You have completed this section. Please press Enter.",Filler_Instruction,Instruct5,1241,,,-1,-1,,,,1
10008908,yrd3k62j99,Nick_Dissertation_EX1,1,267,2020-04-18T14:20:37-07:00,120.3519051075,4,versionC_stim.csv,READVersionD.csv,"Read Version D","Dissertation, read only version D",,,,,,0,FreeRecall,120,120,"Please list the 50 US states in reverse alphabetical order (z - a). The task will automatically advance to the next screen after two minutes.",,Filler2,120002,"Wyoming wisconsin west virginia washington viriginia vermont utah texas tennessee south dakota south carolina rhode island pennsylvania oregon ok",0,33282,119447,0,0,,0.958
10008908,yrd3k62j99,Nick_Dissertation_EX1,1,268,2020-04-18T14:20:51-07:00,14.297566890717,4,versionC_stim.csv,READVersionD.csv,"Read Version D","Dissertation, read only version D",,,,,,0,Instruct,-,10,"You will now be presented with the first word from each of the previously studied item pairs. Please type the missing word. If you do not know the word, you may guess or press Enter to skip forward to the next pair.",,Instruct6,13945,,,-1,-1,,,,1
10008908,yrd3k62j99,Nick_Dissertation_EX1,1,269,2020-04-18T14:20:59-07:00,7.9188270568848,4,versionC_stim.csv,READVersionD.csv,"Read Version D","Dissertation, read only version D",FUTURE,PAST,Study1,S,61,77,Test,User,-,,Recall,Recall2,7558,past,100,6369,7190,1,1,,1
10008908,yrd3k62j99,Nick_Dissertation_EX1,1,270,2020-04-18T14:21:11-07:00,11.635324001312,4,versionC_stim.csv,READVersionD.csv,"Read Version D","Dissertation, read only version D",SACKING,DIETARY,Study1,U,67,38,Test,User,-,,Recall,Recall2,11297,dietary,100,9513,10996,1,1,,1
10008908,yrd3k62j99,Nick_Dissertation_EX1,1,271,2020-04-18T14:22:04-07:00,53.414459943771,4,versionC_stim.csv,READVersionD.csv,"Read Version D","Dissertation, read only version D",HAND,FIX,Study1,U,75,72,Test,User,-,,Recall,Recall2,53077,fix,100,52241,52827,1,1,,1
10008908,yrd3k62j99,Nick_Dissertation_EX1,1,272,2020-04-18T14:22:10-07:00,5.2761561870575,4,versionC_stim.csv,READVersionD.csv,"Read Version D","Dissertation, read only version D",STENCH,SMELL,Study1,F,42,8,Test,User,-,,Recall,Recall2,4926,smell,100,3240,4745,1,1,,1
10008908,yrd3k62j99,Nick_Dissertation_EX1,1,273,2020-04-18T14:22:15-07:00,5.7588818073273,4,versionC_stim.csv,READVersionD.csv,"Read Version D","Dissertation, read only version D",CHORE,WORK,Study1,F,39,20,Test,User,-,,Recall,Recall2,5405,work,100,3013,5184,1,1,,1
10008908,yrd3k62j99,Nick_Dissertation_EX1,1,274,2020-04-18T14:22:23-07:00,7.87748503685,4,versionC_stim.csv,READVersionD.csv,"Read Version D","Dissertation, read only version D",WIND,BLOW,Study1,S,55,69,Test,User,-,,Recall,Recall2,7543,blow,100,6597,7258,1,1,,1
10008908,yrd3k62j99,Nick_Dissertation_EX1,1,275,2020-04-18T14:22:45-07:00,21.457515001297,4,versionC_stim.csv,READVersionD.csv,"Read Version D","Dissertation, read only version D",FAMINE,HUNGER,Study1,F,40,57,Test,User,-,,Recall,Recall2,21119,hunger,100,18663,19788,1,1,,1
10008908,yrd3k62j99,Nick_Dissertation_EX1,1,276,2020-04-18T14:22:48-07:00,3.3481531143188,4,versionC_stim.csv,READVersionD.csv,"Read Version D","Dissertation, read only version D",AMOUNT,NUMBER,Study1,S,47,36,Test,User,-,,Recall,Recall2,2994,money,36.363636363636,1592,2612,0,0,,1
10008908,yrd3k62j99,Nick_Dissertation_EX1,1,277,2020-04-18T14:22:54-07:00,6.0022978782654,4,versionC_stim.csv,READVersionD.csv,"Read Version D","Dissertation, read only version D",LATCH,KEY,Study1,F,36,76,Test,User,-,,Recall,Recall2,5668,key,100,4957,5378,1,1,,1
10008908,yrd3k62j99,Nick_Dissertation_EX1,1,278,2020-04-18T14:23:16-07:00,22.235365152359,4,versionC_stim.csv,READVersionD.csv,"Read Version D","Dissertation, read only version D",ATTORNEY,LAW,Study1,F,34,26,Test,User,-,,Recall,Recall2,21903,law,100,20845,21512,1,1,,1
10008908,yrd3k62j99,Nick_Dissertation_EX1,1,279,2020-04-18T14:23:29-07:00,12.397593021393,4,versionC_stim.csv,READVersionD.csv,"Read Version D","Dissertation, read only version D",BRONZE,ARTERY,Study1,U,74,84,Test,User,-,,Recall,Recall2,12061,artery,100,8293,10915,1,1,,1
10008908,yrd3k62j99,Nick_Dissertation_EX1,1,280,2020-04-18T14:23:35-07:00,5.8867428302765,4,versionC_stim.csv,READVersionD.csv,"Read Version D","Dissertation, read only version D",SICK,HIDE,Study1,U,84,67,Test,User,-,,Recall,Recall2,5533,hide,100,4671,5260,1,1,,1
10008908,yrd3k62j99,Nick_Dissertation_EX1,1,281,2020-04-18T14:23:44-07:00,9.6182901859283,4,versionC_stim.csv,READVersionD.csv,"Read Version D","Dissertation, read only version D",ROCK,GEOLOGY,Study1,B,19,81,Test,User,-,,Recall,Recall2,9222,geology,100,7254,8926,1,1,,1
10008908,yrd3k62j99,Nick_Dissertation_EX1,1,282,2020-04-18T14:23:54-07:00,10.159630775452,4,versionC_stim.csv,READVersionD.csv,"Read Version D","Dissertation, read only version D",DIVISION,MATH,Study1,F,33,83,Test,User,-,,Recall,Recall2,7500,math,100,5932,7270,1,1,,1
10008908,yrd3k62j99,Nick_Dissertation_EX1,1,283,2020-04-18T14:24:01-07:00,6.5907340049744,4,versionC_stim.csv,READVersionD.csv,"Read Version D","Dissertation, read only version D",ASSIGNMENT,DUE,Study1,S,46,58,Test,User,-,,Recall,Recall2,4658,due,100,3907,4387,1,1,,1
10008908,yrd3k62j99,Nick_Dissertation_EX1,1,284,2020-04-18T14:24:24-07:00,22.770237207413,4,versionC_stim.csv,READVersionD.csv,"Read Version D","Dissertation, read only version D",LIVER,KIDNEY,Study1,S,53,23,Test,User,-,,Recall,Recall2,22418,kidney,100,20984,22158,1,1,,1
10008908,yrd3k62j99,Nick_Dissertation_EX1,1,285,2020-04-18T14:24:43-07:00,19.120804786682,4,versionC_stim.csv,READVersionD.csv,"Read Version D","Dissertation, read only version D",RIDDLE,SUGAR,Study1,U,81,31,Test,User,-,,Recall,Recall2,18777,sugar,100,16983,18171,1,1,,1
10008908,yrd3k62j99,Nick_Dissertation_EX1,1,286,2020-04-18T14:24:52-07:00,8.8925211429596,4,versionC_stim.csv,READVersionD.csv,"Read Version D","Dissertation, read only version D",CHILD,BABY,Study1,S,64,56,Test,User,-,,Recall,Recall2,8531,baby,100,6767,8077,1,1,,1
10008908,yrd3k62j99,Nick_Dissertation_EX1,1,287,2020-04-18T14:25:26-07:00,33.977262973785,4,versionC_stim.csv,READVersionD.csv,"Read Version D","Dissertation, read only version D",DESIGN,ARCHITECTURE,Study1,S,51,11,Test,User,-,,Recall,Recall2,33646,"architecture ",100,3370,33150,1,1,,1
10008908,yrd3k62j99,Nick_Dissertation_EX1,1,288,2020-04-18T14:26:17-07:00,50.918869972229,4,versionC_stim.csv,READVersionD.csv,"Read Version D","Dissertation, read only version D",MONEY,WAGE,Study1,B,8,64,Test,User,-,,Recall,Recall2,50581,wage,100,49618,50333,1,1,,1
10008908,yrd3k62j99,Nick_Dissertation_EX1,1,289,2020-04-18T14:27:24-07:00,67.756302118301,4,versionC_stim.csv,READVersionD.csv,"Read Version D","Dissertation, read only version D",WAR,REVOLUTION,Study1,B,20,22,Test,User,-,,Recall,Recall2,67355,revolution,100,63986,67111,1,1,,0.994
10008908,yrd3k62j99,Nick_Dissertation_EX1,1,290,2020-04-18T14:28:07-07:00,42.500034809113,4,versionC_stim.csv,READVersionD.csv,"Read Version D","Dissertation, read only version D",VASE,KING,Study1,U,85,16,Test,User,-,,Recall,Recall2,42112,king,100,41109,41975,1,1,,1
10008908,yrd3k62j99,Nick_Dissertation_EX1,1,291,2020-04-18T14:29:59-07:00,111.86323904991,4,versionC_stim.csv,READVersionD.csv,"Read Version D","Dissertation, read only version D",COW,HERD,Study1,B,22,48,Test,User,-,,Recall,Recall2,2688,herd,100,1623,2414,1,1,,0.929
10008908,yrd3k62j99,Nick_Dissertation_EX1,1,292,2020-04-18T14:30:42-07:00,43.644389152527,4,versionC_stim.csv,READVersionD.csv,"Read Version D","Dissertation, read only version D",CAR,HAPPY,Study1,U,77,86,Test,User,-,,Recall,Recall2,28501,happy,100,27613,28305,1,1,,1
10008908,yrd3k62j99,Nick_Dissertation_EX1,1,293,2020-04-18T14:31:03-07:00,20.808488845825,4,versionC_stim.csv,READVersionD.csv,"Read Version D","Dissertation, read only version D",FOOT,SHOE,Study1,S,60,12,Test,User,-,,Recall,Recall2,11487,shoe,100,10732,11290,1,1,,1
10008908,yrd3k62j99,Nick_Dissertation_EX1,1,294,2020-04-18T14:31:31-07:00,27.782061100006,4,versionC_stim.csv,READVersionD.csv,"Read Version D","Dissertation, read only version D",RACKET,BALL,Study1,F,38,55,Test,User,-,,Recall,Recall2,27434,buy,28.571428571429,26897,27198,0,0,,1
10008908,yrd3k62j99,Nick_Dissertation_EX1,1,295,2020-04-18T14:31:50-07:00,19.19348692894,4,versionC_stim.csv,READVersionD.csv,"Read Version D","Dissertation, read only version D",FLOWER,ORCHID,Study1,B,24,32,Test,User,-,,Recall,Recall2,18836,orchid,100,15556,18394,1,1,,1
10008908,yrd3k62j99,Nick_Dissertation_EX1,1,296,2020-04-18T14:31:54-07:00,4.280210018158,4,versionC_stim.csv,READVersionD.csv,"Read Version D","Dissertation, read only version D",STOMACH,DIGESTION,Study1,B,7,52,Test,User,-,,Recall,Recall2,3929,digestion,100,2282,3718,1,1,,1
10008908,yrd3k62j99,Nick_Dissertation_EX1,1,297,2020-04-18T14:31:58-07:00,3.6196300983429,4,versionC_stim.csv,READVersionD.csv,"Read Version D","Dissertation, read only version D",SIP,DRINK,Study1,F,27,73,Test,User,-,,Recall,Recall2,3273,drink,100,2369,3049,1,1,,1
10008908,yrd3k62j99,Nick_Dissertation_EX1,1,298,2020-04-18T14:32:16-07:00,18.042326927185,4,versionC_stim.csv,READVersionD.csv,"Read Version D","Dissertation, read only version D",SODA,POP,Study1,S,56,75,Test,User,-,,Recall,Recall2,17701,pop,100,16824,17120,1,1,,1
10008908,yrd3k62j99,Nick_Dissertation_EX1,1,299,2020-04-18T14:32:19-07:00,2.601686000824,4,versionC_stim.csv,READVersionD.csv,"Read Version D","Dissertation, read only version D",ROUND,CIRCLE,Study1,S,65,35,Test,User,-,,Recall,Recall2,2267,circle,100,1250,2136,1,1,,1
10008908,yrd3k62j99,Nick_Dissertation_EX1,1,300,2020-04-18T14:32:24-07:00,5.4650058746338,4,versionC_stim.csv,READVersionD.csv,"Read Version D","Dissertation, read only version D",SIGHT,DEBATE,Study1,U,73,71,Test,User,-,,Recall,Recall2,5121,debate,100,4058,4815,1,1,,1
10008908,yrd3k62j99,Nick_Dissertation_EX1,1,301,2020-04-18T14:34:04-07:00,99.48757314682,4,versionC_stim.csv,READVersionD.csv,"Read Version D","Dissertation, read only version D",NEWS,EDITOR,Study1,B,10,34,Test,User,-,,Recall,Recall2,99011,"editor ",100,95238,98673,1,1,,0.998
10008908,yrd3k62j99,Nick_Dissertation_EX1,1,302,2020-04-18T14:34:09-07:00,5.6517939567566,4,versionC_stim.csv,READVersionD.csv,"Read Version D","Dissertation, read only version D",JURY,TRIAL,Study1,S,50,78,Test,User,-,,Recall,Recall2,5315,trial,100,3081,4911,1,1,,1
10008908,yrd3k62j99,Nick_Dissertation_EX1,1,303,2020-04-18T14:34:37-07:00,27.41095995903,4,versionC_stim.csv,READVersionD.csv,"Read Version D","Dissertation, read only version D",CLUTTER,PUSHER,Study1,U,66,74,Test,User,-,,Recall,Recall2,26984,pusher,100,25261,26600,1,1,,1
10008908,yrd3k62j99,Nick_Dissertation_EX1,1,304,2020-04-18T14:34:52-07:00,15.705446004868,4,versionC_stim.csv,READVersionD.csv,"Read Version D","Dissertation, read only version D",TALK,DISCUSSION,Study1,B,21,39,Test,User,-,,Recall,Recall2,15373,discussion,100,12197,14940,1,1,,1
10008908,yrd3k62j99,Nick_Dissertation_EX1,1,305,2020-04-18T14:35:04-07:00,11.577903032303,4,versionC_stim.csv,READVersionD.csv,"Read Version D","Dissertation, read only version D",HAMMER,CHISEL,Study1,B,9,85,Test,User,-,,Recall,Recall2,11228,chisel,100,8583,11025,1,1,,1
10008908,yrd3k62j99,Nick_Dissertation_EX1,1,306,2020-04-18T14:35:21-07:00,16.666986942291,4,versionC_stim.csv,READVersionD.csv,"Read Version D","Dissertation, read only version D",FLOOR,DISCOVER,Study1,U,71,40,Test,User,-,,Recall,Recall2,16306,discover,100,14131,16062,1,1,,1
10008908,yrd3k62j99,Nick_Dissertation_EX1,1,307,2020-04-18T14:35:47-07:00,25.789678096771,4,versionC_stim.csv,READVersionD.csv,"Read Version D","Dissertation, read only version D",ATTIRE,CLOTHES,Study1,F,43,17,Test,User,-,,Recall,Recall2,25452,clothes,100,23699,25033,1,1,,1
10008908,yrd3k62j99,Nick_Dissertation_EX1,1,308,2020-04-18T14:36:08-07:00,21.538918018341,4,versionC_stim.csv,READVersionD.csv,"Read Version D","Dissertation, read only version D",BIRD,SWAN,Study1,B,14,79,Test,User,-,,Recall,Recall2,21198,swan,100,19275,20912,1,1,,1
10008908,yrd3k62j99,Nick_Dissertation_EX1,1,309,2020-04-18T14:36:30-07:00,21.689976930618,4,versionC_stim.csv,READVersionD.csv,"Read Version D","Dissertation, read only version D",WASTE,DUMP,Study1,S,49,82,Test,User,-,,Recall,Recall2,21345,dimp,75,20070,21161,0,1,,1
10008908,yrd3k62j99,Nick_Dissertation_EX1,1,310,2020-04-18T14:37:52-07:00,81.914349079132,4,versionC_stim.csv,READVersionD.csv,"Read Version D","Dissertation, read only version D",DROWSY,SLEEP,Study1,F,41,62,Test,User,-,,Recall,Recall2,81547,sleep,100,79771,81153,1,1,,0.99
10008908,yrd3k62j99,Nick_Dissertation_EX1,1,311,2020-04-18T14:37:56-07:00,4.2477269172668,4,versionC_stim.csv,READVersionD.csv,"Read Version D","Dissertation, read only version D",SITE,LOCATION,Study1,S,48,7,Test,User,-,,Recall,Recall2,3898,location,100,2056,3652,1,1,,1
10008908,yrd3k62j99,Nick_Dissertation_EX1,1,312,2020-04-18T14:38:04-07:00,8.3554430007935,4,versionC_stim.csv,READVersionD.csv,"Read Version D","Dissertation, read only version D",DEFINITION,MEANING,Study1,S,62,18,Test,User,-,,Recall,Recall2,8019,meaning,100,6292,7790,1,1,,1
10008908,yrd3k62j99,Nick_Dissertation_EX1,1,313,2020-04-18T14:38:18-07:00,13.283461093903,4,versionC_stim.csv,READVersionD.csv,"Read Version D","Dissertation, read only version D",BEE,HONEY,Study1,S,63,68,Test,User,-,,Recall,Recall2,12944,honey,100,11414,12570,1,1,,1
10008908,yrd3k62j99,Nick_Dissertation_EX1,1,314,2020-04-18T14:38:27-07:00,9.8209409713745,4,versionC_stim.csv,READVersionD.csv,"Read Version D","Dissertation, read only version D",CAVE,DARK,Study1,F,28,30,Test,User,-,,Recall,Recall2,9478,dark,100,8438,9240,1,1,,1
10008908,yrd3k62j99,Nick_Dissertation_EX1,1,315,2020-04-18T14:39:43-07:00,75.748715877533,4,versionC_stim.csv,READVersionD.csv,"Read Version D","Dissertation, read only version D",TUCK,ALLOW,Study1,U,78,63,Test,User,-,,Recall,Recall2,75414,bed,0,74684,75124,0,0,,0.992
10008908,yrd3k62j99,Nick_Dissertation_EX1,1,316,2020-04-18T14:40:02-07:00,19.161715984344,4,versionC_stim.csv,READVersionD.csv,"Read Version D","Dissertation, read only version D",END,BEGIN,Study1,S,54,45,Test,User,-,,Recall,Recall2,18823,begin,100,13943,18552,1,1,,1
10008908,yrd3k62j99,Nick_Dissertation_EX1,1,317,2020-04-18T14:40:23-07:00,20.25110411644,4,versionC_stim.csv,READVersionD.csv,"Read Version D","Dissertation, read only version D",WOMAN,LIFT,Study1,U,69,59,Test,User,-,,Recall,Recall2,19919,lift,100,18570,19525,1,1,,1
10008908,yrd3k62j99,Nick_Dissertation_EX1,1,318,2020-04-18T14:41:26-07:00,63.115463972092,4,versionC_stim.csv,READVersionD.csv,"Read Version D","Dissertation, read only version D",CHEESE,WINE,Study1,S,57,46,Test,User,-,,Recall,Recall2,62769,wine,100,61758,62520,1,1,,0.997
10008908,yrd3k62j99,Nick_Dissertation_EX1,1,319,2020-04-18T14:41:44-07:00,18.32888007164,4,versionC_stim.csv,READVersionD.csv,"Read Version D","Dissertation, read only version D",SALAD,LETTUCE,Study1,S,59,37,Test,User,-,,Recall,Recall2,17967,lettuce,100,15482,17651,1,1,,1
10008908,yrd3k62j99,Nick_Dissertation_EX1,1,320,2020-04-18T14:42:13-07:00,29.282456874847,4,versionC_stim.csv,READVersionD.csv,"Read Version D","Dissertation, read only version D",ENOUGH,FULL,Study1,F,26,80,Test,User,-,,Recall,Recall2,28917,full,100,27704,28706,1,1,,1
10008908,yrd3k62j99,Nick_Dissertation_EX1,1,321,2020-04-18T14:42:19-07:00,5.9424510002136,4,versionC_stim.csv,READVersionD.csv,"Read Version D","Dissertation, read only version D",TOILET,BATHROOM,Study1,S,58,19,Test,User,-,,Recall,Recall2,5597,bathroom,100,3825,5393,1,1,,1
10008908,yrd3k62j99,Nick_Dissertation_EX1,1,322,2020-04-18T14:42:33-07:00,13.636458158493,4,versionC_stim.csv,READVersionD.csv,"Read Version D","Dissertation, read only version D",ADD,VALLEY,Study1,U,82,29,Test,User,-,,Recall,Recall2,13226,valley,100,11535,12953,1,1,,1
10008908,yrd3k62j99,Nick_Dissertation_EX1,1,323,2020-04-18T14:44:41-07:00,128.30315685272,4,versionC_stim.csv,READVersionD.csv,"Read Version D","Dissertation, read only version D",GROWTH,HEIGHT,Study1,F,30,10,Test,User,-,,Recall,Recall2,127965,height,100,126337,127724,1,1,,0.974
10008908,yrd3k62j99,Nick_Dissertation_EX1,1,324,2020-04-18T14:44:44-07:00,2.9861841201782,4,versionC_stim.csv,READVersionD.csv,"Read Version D","Dissertation, read only version D",WASP,BUG,Study1,F,32,27,Test,User,-,,Recall,Recall2,2648,bug,100,2034,2414,1,1,,1
10008908,yrd3k62j99,Nick_Dissertation_EX1,1,325,2020-04-18T14:44:50-07:00,5.5789279937744,4,versionC_stim.csv,READVersionD.csv,"Read Version D","Dissertation, read only version D",OUT,WAY,Study1,B,16,13,Test,User,-,,Recall,Recall2,5236,way,100,2711,4965,1,1,,1
10008908,yrd3k62j99,Nick_Dissertation_EX1,1,326,2020-04-18T14:45:03-07:00,12.870460033417,4,versionC_stim.csv,READVersionD.csv,"Read Version D","Dissertation, read only version D",SEIZE,TAKE,Study1,F,29,28,Test,User,-,,Recall,Recall2,12533,take,100,11218,12232,1,1,,1
10008908,yrd3k62j99,Nick_Dissertation_EX1,1,327,2020-04-18T14:45:11-07:00,8.8017139434814,4,versionC_stim.csv,READVersionD.csv,"Read Version D","Dissertation, read only version D",WORD,SENTENCE,Study1,F,31,60,Test,User,-,,Recall,Recall2,8448,"sentence ",100,5889,8208,1,1,,1
10008908,yrd3k62j99,Nick_Dissertation_EX1,1,328,2020-04-18T14:45:48-07:00,36.18345284462,4,versionC_stim.csv,READVersionD.csv,"Read Version D","Dissertation, read only version D",BLAZE,FIRE,Study1,F,45,9,Test,User,-,,Recall,Recall2,35847,fire,100,34082,35577,1,1,,1
10008908,yrd3k62j99,Nick_Dissertation_EX1,1,329,2020-04-18T14:46:02-07:00,14.172005176544,4,versionC_stim.csv,READVersionD.csv,"Read Version D","Dissertation, read only version D",ACCIDENT,STRONG,Study1,U,80,53,Test,User,-,,Recall,Recall2,13843,strong,100,10990,12543,1,1,,1
10008908,yrd3k62j99,Nick_Dissertation_EX1,1,330,2020-04-18T14:46:16-07:00,13.908921003342,4,versionC_stim.csv,READVersionD.csv,"Read Version D","Dissertation, read only version D",WATER,BRIDGE,Study1,B,18,51,Test,User,-,,Recall,Recall2,13568,bridge,100,11273,13221,1,1,,1
10008908,yrd3k62j99,Nick_Dissertation_EX1,1,331,2020-04-18T14:46:22-07:00,6.1947019100189,4,versionC_stim.csv,READVersionD.csv,"Read Version D","Dissertation, read only version D",LION,ART,Study1,U,79,65,Test,User,-,,Recall,Recall2,5850,art,100,5264,5605,1,1,,1
10008908,yrd3k62j99,Nick_Dissertation_EX1,1,332,2020-04-18T14:48:12-07:00,109.76448607445,4,versionC_stim.csv,READVersionD.csv,"Read Version D","Dissertation, read only version D",FANTASTIC,GREAT,Study1,F,35,66,Test,User,-,,Recall,Recall2,109375,,0,-1,-1,0,0,,0.969
10008908,yrd3k62j99,Nick_Dissertation_EX1,1,333,2020-04-18T14:48:33-07:00,21.688169002533,4,versionC_stim.csv,READVersionD.csv,"Read Version D","Dissertation, read only version D",WOULD,CASH,Study1,U,83,54,Test,User,-,,Recall,Recall2,21348,fix,0,16459,19799,0,0,,1
10008908,yrd3k62j99,Nick_Dissertation_EX1,1,334,2020-04-18T14:48:45-07:00,11.643815040588,4,versionC_stim.csv,READVersionD.csv,"Read Version D","Dissertation, read only version D",DOG,PAW,Study1,B,15,41,Test,User,-,,Recall,Recall2,11126,,0,-1,-1,0,0,,1
10008908,yrd3k62j99,Nick_Dissertation_EX1,1,335,2020-04-18T14:48:46-07:00,0.71118497848511,4,versionC_stim.csv,READVersionD.csv,"Read Version D","Dissertation, read only version D",HUNGRY,PARK,Study1,U,68,50,Test,User,-,,Recall,Recall2,409,,0,-1,-1,0,0,,1
10008908,yrd3k62j99,Nick_Dissertation_EX1,1,336,2020-04-18T14:48:46-07:00,0.62753987312317,4,versionC_stim.csv,READVersionD.csv,"Read Version D","Dissertation, read only version D",BELT,SOON,Study1,U,70,47,Test,User,-,,Recall,Recall2,353,,0,-1,-1,0,0,,1
10008908,yrd3k62j99,Nick_Dissertation_EX1,1,337,2020-04-18T14:48:47-07:00,0.86715006828308,4,versionC_stim.csv,READVersionD.csv,"Read Version D","Dissertation, read only version D",POSITION,MACHINE,Study1,U,76,43,Test,User,-,,Recall,Recall2,589,,0,-1,-1,0,0,,1
10008908,yrd3k62j99,Nick_Dissertation_EX1,1,338,2020-04-18T14:48:48-07:00,0.71843290328979,4,versionC_stim.csv,READVersionD.csv,"Read Version D","Dissertation, read only version D",FISH,TUNA,Study1,B,25,61,Test,User,-,,Recall,Recall2,446,,0,-1,-1,0,0,,1
10008908,yrd3k62j99,Nick_Dissertation_EX1,1,339,2020-04-18T14:48:49-07:00,0.87398910522461,4,versionC_stim.csv,READVersionD.csv,"Read Version D","Dissertation, read only version D",BUSINESS,DEATH,Study1,U,72,70,Test,User,-,,Recall,Recall2,582,,0,-1,-1,0,0,,1
10008908,yrd3k62j99,Nick_Dissertation_EX1,1,340,2020-04-18T14:48:50-07:00,0.83253908157349,4,versionC_stim.csv,READVersionD.csv,"Read Version D","Dissertation, read only version D",BAD,DELINQUENT,Study1,B,6,14,Test,User,-,,Recall,Recall2,548,,0,-1,-1,0,0,,1
10008908,yrd3k62j99,Nick_Dissertation_EX1,1,341,2020-04-18T14:48:52-07:00,2.3529949188232,4,versionC_stim.csv,READVersionD.csv,"Read Version D","Dissertation, read only version D",STING,HORNET,Study1,B,11,42,Test,User,-,,Recall,Recall2,876,,0,-1,-1,0,0,,1
10008908,yrd3k62j99,Nick_Dissertation_EX1,1,342,2020-04-18T14:48:54-07:00,2.3969459533691,4,versionC_stim.csv,READVersionD.csv,"Read Version D","Dissertation, read only version D",CHILI,HOT,Study1,F,37,44,Test,User,-,,Recall,Recall2,2030,hot,100,1189,1685,1,1,,1
10008908,yrd3k62j99,Nick_Dissertation_EX1,1,343,2020-04-18T14:49:06-07:00,12.066586017609,4,versionC_stim.csv,READVersionD.csv,"Read Version D","Dissertation, read only version D",PLANT,ROOT,Study1,B,13,15,Test,User,-,,Recall,Recall2,11725,,0,-1,-1,0,0,,1
10008908,yrd3k62j99,Nick_Dissertation_EX1,1,344,2020-04-18T14:49:11-07:00,4.9214420318604,4,versionC_stim.csv,READVersionD.csv,"Read Version D","Dissertation, read only version D",CARD,CREDIT,Study1,B,23,21,Test,User,-,,Recall,Recall2,3566,,0,-1,-1,0,0,,1
10008908,yrd3k62j99,Nick_Dissertation_EX1,1,345,2020-04-18T14:49:36-07:00,24.342235088348,4,versionC_stim.csv,READVersionD.csv,"Read Version D","Dissertation, read only version D",CLEAN,HYGIENE,Study1,B,17,25,Test,User,-,,Recall,Recall2,23952,,0,-1,-1,0,0,,1
10008908,yrd3k62j99,Nick_Dissertation_EX1,1,346,2020-04-18T14:49:39-07:00,3.2817449569702,4,versionC_stim.csv,READVersionD.csv,"Read Version D","Dissertation, read only version D",PILOT,PLANE,Study1,F,44,33,Test,User,-,,Recall,Recall2,2931,,0,-1,-1,0,0,,1
10008908,yrd3k62j99,Nick_Dissertation_EX1,1,347,2020-04-18T14:49:51-07:00,12.398468017578,4,versionC_stim.csv,READVersionD.csv,"Read Version D","Dissertation, read only version D",COLD,BITTER,Study1,B,12,24,Test,User,-,,Recall,Recall2,12038,,0,-1,-1,0,0,,1
10008908,yrd3k62j99,Nick_Dissertation_EX1,1,348,2020-04-18T14:49:56-07:00,4.2949688434601,4,versionC_stim.csv,READVersionD.csv,"Read Version D","Dissertation, read only version D",BAR,GRILL,Study1,S,52,49,Test,User,-,,Recall,Recall2,3961,,0,-1,-1,0,0,,1
10008908,yrd3k62j99,Nick_Dissertation_EX1,1,349,2020-04-18T14:49:57-07:00,0.91374516487122,4,versionC_stim.csv,READVersionD.csv,"Read Version D","Dissertation, read only version D",,,,,,0,Instruct,User,-,"You have completed this section. Please press Enter.",,Instruct7,613,,,-1,-1,,,,1
10008908,yrd3k62j99,Nick_Dissertation_EX1,1,350,2020-04-18T14:50:00-07:00,3.2563488483429,4,versionC_stim.csv,READVersionD.csv,"Read Version D","Dissertation, read only version D",,,,,,0,Instruct,User,-,"The following screen will ask you a few questions abour your experience today. You must complete these questions to receive credit.",,Instruct8,2932,,,-1,-1,,,,1
