Username,ID,ExperimentName,Session,Trial,Date,TimeDif,"Condition Number","Stimuli File","Order File","Condition Description","Condition Notes",Stimuli*Cue,Stimuli*Answer,Stimuli*Shuffle,"Stimuli*Stimuli Notes",Stimuli*Value,Procedure*Item,"Procedure*Trial Type","Procedure*Max Time","Procedure*Min Time",Procedure*Text,"Procedure*Procedure Notes",Procedure*Shuffle,Response*RT,Response*Response,Response*Accuracy,Response*RTfirst,Response*RTlast,Response*strictAcc,Response*lenientAcc,Response*focus,Response*Focus
w989942_cew,d5tpw5eqwv,Nick_Dissertation_EX1,1,1,2020-05-01T12:28:37-07:00,12.414953947067,2,versionA_stim.csv,READVersionB.csv,"Read Version B","Dissertation, read only version B",,,,,,0,Instruct,-,10,"Please study each of the following word pairs. Remember that your memory will be tested! When finished, press Enter to move to the next pair.",Initial_Instruct,Instruct1,11915,,,-1,-1,,,,1
w989942_cew,d5tpw5eqwv,Nick_Dissertation_EX1,1,2,2020-05-01T12:28:43-07:00,5.5994520187378,2,versionA_stim.csv,READVersionB.csv,"Read Version B","Dissertation, read only version B",CARROT,POTATO,BUFFER3,Buffer,91,95,Study,User,-,,Study/JOL,BUFFER,5219,,,-1,-1,,,,1
w989942_cew,d5tpw5eqwv,Nick_Dissertation_EX1,1,3,2020-05-01T12:28:50-07:00,6.9104740619659,2,versionA_stim.csv,READVersionB.csv,"Read Version B","Dissertation, read only version B",NOODLE,STRING,BUFFER3,Buffer,92,96,Study,User,-,,Study/JOL,BUFFER,4615,,,-1,-1,,,,1
w989942_cew,d5tpw5eqwv,Nick_Dissertation_EX1,1,4,2020-05-01T12:28:54-07:00,4.6871659755707,2,versionA_stim.csv,READVersionB.csv,"Read Version B","Dissertation, read only version B",SHRIMP,FISH,BUFFER3,Buffer,93,93,Study,User,-,,Study/JOL,BUFFER,3060,,,-1,-1,,,,1
w989942_cew,d5tpw5eqwv,Nick_Dissertation_EX1,1,5,2020-05-01T12:28:57-07:00,2.4368810653687,2,versionA_stim.csv,READVersionB.csv,"Read Version B","Dissertation, read only version B",ICE,FROZEN,BUFFER3,Buffer,94,94,Study,User,-,,Study/JOL,BUFFER,2058,,,-1,-1,,,,1
w989942_cew,d5tpw5eqwv,Nick_Dissertation_EX1,1,6,2020-05-01T12:28:59-07:00,2.363954782486,2,versionA_stim.csv,READVersionB.csv,"Read Version B","Dissertation, read only version B",CAMP,ADVENTURE,BUFFER3,Buffer,95,92,Study,User,-,,Study/JOL,BUFFER,1689,,,-1,-1,,,,1
w989942_cew,d5tpw5eqwv,Nick_Dissertation_EX1,1,7,2020-05-01T12:29:02-07:00,2.4782590866089,2,versionA_stim.csv,READVersionB.csv,"Read Version B","Dissertation, read only version B",EXTENSION,LONG,Study2,F,96,147,Study,User,-,,Study/JOL,"Study Phase",1967,,,-1,-1,,,,1
w989942_cew,d5tpw5eqwv,Nick_Dissertation_EX1,1,8,2020-05-01T12:29:04-07:00,2.2731630802155,2,versionA_stim.csv,READVersionB.csv,"Read Version B","Dissertation, read only version B",MASON,JAR,Study2,S,138,135,Study,User,-,,Study/JOL,"Study Phase",1601,,,-1,-1,,,,1
w989942_cew,d5tpw5eqwv,Nick_Dissertation_EX1,1,9,2020-05-01T12:29:09-07:00,5.4758670330048,2,versionA_stim.csv,READVersionB.csv,"Read Version B","Dissertation, read only version B",OWN,HAVE,Study2,S,153,109,Study,User,-,,Study/JOL,"Study Phase",1874,,,-1,-1,,,,1
w989942_cew,d5tpw5eqwv,Nick_Dissertation_EX1,1,10,2020-05-01T12:29:12-07:00,2.4102468490601,2,versionA_stim.csv,READVersionB.csv,"Read Version B","Dissertation, read only version B",TURN,FLIP,Study2,B,116,171,Study,User,-,,Study/JOL,"Study Phase",1914,,,-1,-1,,,,1
w989942_cew,d5tpw5eqwv,Nick_Dissertation_EX1,1,11,2020-05-01T12:29:14-07:00,2.2371680736542,2,versionA_stim.csv,READVersionB.csv,"Read Version B","Dissertation, read only version B",DINE,EAT,Study2,F,111,99,Study,User,-,,Study/JOL,"Study Phase",1864,,,-1,-1,,,,1
w989942_cew,d5tpw5eqwv,Nick_Dissertation_EX1,1,12,2020-05-01T12:29:16-07:00,2.1337769031525,2,versionA_stim.csv,READVersionB.csv,"Read Version B","Dissertation, read only version B",POP,BALLOON,Study2,B,123,168,Study,User,-,,Study/JOL,"Study Phase",1735,,,-1,-1,,,,1
w989942_cew,d5tpw5eqwv,Nick_Dissertation_EX1,1,13,2020-05-01T12:29:19-07:00,3.0598590373993,2,versionA_stim.csv,READVersionB.csv,"Read Version B","Dissertation, read only version B",SUN,TAN,Study2,S,155,151,Study,User,-,,Study/JOL,"Study Phase",1526,,,-1,-1,,,,1
w989942_cew,d5tpw5eqwv,Nick_Dissertation_EX1,1,14,2020-05-01T12:29:21-07:00,2.0495040416718,2,versionA_stim.csv,READVersionB.csv,"Read Version B","Dissertation, read only version B",FISH,SARDINE,Study2,B,130,120,Study,User,-,,Study/JOL,"Study Phase",1451,,,-1,-1,,,,1
w989942_cew,d5tpw5eqwv,Nick_Dissertation_EX1,1,15,2020-05-01T12:29:24-07:00,2.9754838943481,2,versionA_stim.csv,READVersionB.csv,"Read Version B","Dissertation, read only version B",LEASE,TOIL,Study2,U,170,119,Study,User,-,,Study/JOL,"Study Phase",2539,,,-1,-1,,,,1
w989942_cew,d5tpw5eqwv,Nick_Dissertation_EX1,1,16,2020-05-01T12:29:28-07:00,3.417120218277,2,versionA_stim.csv,READVersionB.csv,"Read Version B","Dissertation, read only version B",PLANE,AIRCRAFT,Study2,B,129,174,Study,User,-,,Study/JOL,"Study Phase",1555,,,-1,-1,,,,1
w989942_cew,d5tpw5eqwv,Nick_Dissertation_EX1,1,17,2020-05-01T12:29:32-07:00,4.5263359546661,2,versionA_stim.csv,READVersionB.csv,"Read Version B","Dissertation, read only version B",CLUE,GAME,Study2,F,97,160,Study,User,-,,Study/JOL,"Study Phase",1438,,,-1,-1,,,,1
w989942_cew,d5tpw5eqwv,Nick_Dissertation_EX1,1,18,2020-05-01T12:29:34-07:00,2.0057909488678,2,versionA_stim.csv,READVersionB.csv,"Read Version B","Dissertation, read only version B",GONE,AWAY,Study2,S,142,114,Study,User,-,,Study/JOL,"Study Phase",1600,,,-1,-1,,,,1
w989942_cew,d5tpw5eqwv,Nick_Dissertation_EX1,1,19,2020-05-01T12:29:38-07:00,3.255352973938,2,versionA_stim.csv,READVersionB.csv,"Read Version B","Dissertation, read only version B",ADJOURN,END,Study2,F,101,175,Study,User,-,,Study/JOL,"Study Phase",1653,,,-1,-1,,,,1
w989942_cew,d5tpw5eqwv,Nick_Dissertation_EX1,1,20,2020-05-01T12:29:40-07:00,2.4649119377136,2,versionA_stim.csv,READVersionB.csv,"Read Version B","Dissertation, read only version B",AFFECTION,LOVE,Study2,F,115,130,Study,User,-,,Study/JOL,"Study Phase",1107,,,-1,-1,,,,1
w989942_cew,d5tpw5eqwv,Nick_Dissertation_EX1,1,21,2020-05-01T12:29:42-07:00,1.7958111763,2,versionA_stim.csv,READVersionB.csv,"Read Version B","Dissertation, read only version B",LOUD,NOISE,Study2,S,152,102,Study,User,-,,Study/JOL,"Study Phase",1332,,,-1,-1,,,,1
w989942_cew,d5tpw5eqwv,Nick_Dissertation_EX1,1,22,2020-05-01T12:29:44-07:00,1.809369802475,2,versionA_stim.csv,READVersionB.csv,"Read Version B","Dissertation, read only version B",BEST,FAVORITE,Study2,B,125,149,Study,User,-,,Study/JOL,"Study Phase",1427,,,-1,-1,,,,1
w989942_cew,d5tpw5eqwv,Nick_Dissertation_EX1,1,23,2020-05-01T12:29:46-07:00,2.5441620349884,2,versionA_stim.csv,READVersionB.csv,"Read Version B","Dissertation, read only version B",Shell,SHAKE,Study2,U,163,124,Study,User,-,,Study/JOL,"Study Phase",2131,,,-1,-1,,,,1
w989942_cew,d5tpw5eqwv,Nick_Dissertation_EX1,1,24,2020-05-01T12:29:49-07:00,3.3267221450806,2,versionA_stim.csv,READVersionB.csv,"Read Version B","Dissertation, read only version B",EARTH,GROUND,Study2,S,144,139,Study,User,-,,Study/JOL,"Study Phase",2922,,,-1,-1,,,,1
w989942_cew,d5tpw5eqwv,Nick_Dissertation_EX1,1,25,2020-05-01T12:29:52-07:00,2.2792348861694,2,versionA_stim.csv,READVersionB.csv,"Read Version B","Dissertation, read only version B",FIGHT,BRAWL,Study2,B,135,132,Study,User,-,,Study/JOL,"Study Phase",1889,,,-1,-1,,,,1
w989942_cew,d5tpw5eqwv,Nick_Dissertation_EX1,1,26,2020-05-01T12:29:54-07:00,2.3610470294952,2,versionA_stim.csv,READVersionB.csv,"Read Version B","Dissertation, read only version B",RAZOR,SHAVE,Study2,S,136,165,Study,User,-,,Study/JOL,"Study Phase",2012,,,-1,-1,,,,1
w989942_cew,d5tpw5eqwv,Nick_Dissertation_EX1,1,27,2020-05-01T12:29:57-07:00,2.6503520011902,2,versionA_stim.csv,READVersionB.csv,"Read Version B","Dissertation, read only version B",CHOP,CUT,Study2,F,107,110,Study,User,-,,Study/JOL,"Study Phase",1728,,,-1,-1,,,,1
w989942_cew,d5tpw5eqwv,Nick_Dissertation_EX1,1,28,2020-05-01T12:30:01-07:00,4.3614649772644,2,versionA_stim.csv,READVersionB.csv,"Read Version B","Dissertation, read only version B",CHERRY,RED,Study2,F,104,145,Study,User,-,,Study/JOL,"Study Phase",2054,,,-1,-1,,,,1
w989942_cew,d5tpw5eqwv,Nick_Dissertation_EX1,1,29,2020-05-01T12:30:05-07:00,3.3753790855408,2,versionA_stim.csv,READVersionB.csv,"Read Version B","Dissertation, read only version B",VEHICLE,CHARM,Study2,U,160,161,Study,User,-,,Study/JOL,"Study Phase",1262,,,-1,-1,,,,1
w989942_cew,d5tpw5eqwv,Nick_Dissertation_EX1,1,30,2020-05-01T12:30:06-07:00,1.6238119602203,2,versionA_stim.csv,READVersionB.csv,"Read Version B","Dissertation, read only version B",MULE,DONKEY,Study2,F,108,152,Study,User,-,,Study/JOL,"Study Phase",1294,,,-1,-1,,,,1
w989942_cew,d5tpw5eqwv,Nick_Dissertation_EX1,1,31,2020-05-01T12:30:08-07:00,1.8139688968658,2,versionA_stim.csv,READVersionB.csv,"Read Version B","Dissertation, read only version B",CAT,PANTHER,Study2,B,126,131,Study,User,-,,Study/JOL,"Study Phase",1434,,,-1,-1,,,,1
w989942_cew,d5tpw5eqwv,Nick_Dissertation_EX1,1,32,2020-05-01T12:30:12-07:00,3.6215841770172,2,versionA_stim.csv,READVersionB.csv,"Read Version B","Dissertation, read only version B",ELEMENT,CARBON,Study2,S,141,154,Study,User,-,,Study/JOL,"Study Phase",1608,,,-1,-1,,,,1
w989942_cew,d5tpw5eqwv,Nick_Dissertation_EX1,1,33,2020-05-01T12:30:14-07:00,2.1910378932953,2,versionA_stim.csv,READVersionB.csv,"Read Version B","Dissertation, read only version B",DETECTIVE,MYSTERY,Study2,F,100,173,Study,User,-,,Study/JOL,"Study Phase",1808,,,-1,-1,,,,1
w989942_cew,d5tpw5eqwv,Nick_Dissertation_EX1,1,34,2020-05-01T12:30:17-07:00,2.9747140407562,2,versionA_stim.csv,READVersionB.csv,"Read Version B","Dissertation, read only version B",CAR,WINDSHIELD,Study2,B,117,143,Study,User,-,,Study/JOL,"Study Phase",2588,,,-1,-1,,,,1
w989942_cew,d5tpw5eqwv,Nick_Dissertation_EX1,1,35,2020-05-01T12:30:20-07:00,3.2773158550262,2,versionA_stim.csv,READVersionB.csv,"Read Version B","Dissertation, read only version B",SHEARS,SCISSORS,Study2,F,112,113,Study,User,-,,Study/JOL,"Study Phase",1658,,,-1,-1,,,,1
w989942_cew,d5tpw5eqwv,Nick_Dissertation_EX1,1,36,2020-05-01T12:30:22-07:00,2.0410141944885,2,versionA_stim.csv,READVersionB.csv,"Read Version B","Dissertation, read only version B",MIRROR,CHILDREN,Study2,U,174,137,Study,User,-,,Study/JOL,"Study Phase",1507,,,-1,-1,,,,1
w989942_cew,d5tpw5eqwv,Nick_Dissertation_EX1,1,37,2020-05-01T12:30:26-07:00,4.2101509571075,2,versionA_stim.csv,READVersionB.csv,"Read Version B","Dissertation, read only version B",DEAD,COFFIN,Study2,B,128,140,Study,User,-,,Study/JOL,"Study Phase",2667,,,-1,-1,,,,1
w989942_cew,d5tpw5eqwv,Nick_Dissertation_EX1,1,38,2020-05-01T12:30:31-07:00,4.3593678474426,2,versionA_stim.csv,READVersionB.csv,"Read Version B","Dissertation, read only version B",SHOELACE,TIE,Study2,F,99,97,Study,User,-,,Study/JOL,"Study Phase",2841,,,-1,-1,,,,1
w989942_cew,d5tpw5eqwv,Nick_Dissertation_EX1,1,39,2020-05-01T12:30:32-07:00,1.4185111522675,2,versionA_stim.csv,READVersionB.csv,"Read Version B","Dissertation, read only version B",MONEY,BANKER,Study2,B,132,141,Study,User,-,,Study/JOL,"Study Phase",1059,,,-1,-1,,,,1
w989942_cew,d5tpw5eqwv,Nick_Dissertation_EX1,1,40,2020-05-01T12:30:34-07:00,2.2802140712738,2,versionA_stim.csv,READVersionB.csv,"Read Version B","Dissertation, read only version B",FURRY,DOG,Study2,F,102,101,Study,User,-,,Study/JOL,"Study Phase",1930,,,-1,-1,,,,1
w989942_cew,d5tpw5eqwv,Nick_Dissertation_EX1,1,41,2020-05-01T12:30:36-07:00,2.12251496315,2,versionA_stim.csv,READVersionB.csv,"Read Version B","Dissertation, read only version B",NAME,HATE,Study2,U,167,148,Study,User,-,,Study/JOL,"Study Phase",1390,,,-1,-1,,,,1
w989942_cew,d5tpw5eqwv,Nick_Dissertation_EX1,1,42,2020-05-01T12:30:38-07:00,1.8180420398712,2,versionA_stim.csv,READVersionB.csv,"Read Version B","Dissertation, read only version B",HONEST,TRUTHFUL,Study2,B,133,166,Study,User,-,,Study/JOL,"Study Phase",1401,,,-1,-1,,,,1
w989942_cew,d5tpw5eqwv,Nick_Dissertation_EX1,1,43,2020-05-01T12:30:42-07:00,3.2493360042572,2,versionA_stim.csv,READVersionB.csv,"Read Version B","Dissertation, read only version B",FLEA,TICK,Study2,S,151,172,Study,User,-,,Study/JOL,"Study Phase",1290,,,-1,-1,,,,1
w989942_cew,d5tpw5eqwv,Nick_Dissertation_EX1,1,44,2020-05-01T12:30:43-07:00,1.8964948654175,2,versionA_stim.csv,READVersionB.csv,"Read Version B","Dissertation, read only version B",TEMPERATURE,Morning,Study2,U,173,123,Study,User,-,,Study/JOL,"Study Phase",1334,,,-1,-1,,,,1
w989942_cew,d5tpw5eqwv,Nick_Dissertation_EX1,1,45,2020-05-01T12:30:46-07:00,2.1953449249268,2,versionA_stim.csv,READVersionB.csv,"Read Version B","Dissertation, read only version B",FRUIT,STRAWBERRY,Study2,B,124,138,Study,User,-,,Study/JOL,"Study Phase",1819,,,-1,-1,,,,1
w989942_cew,d5tpw5eqwv,Nick_Dissertation_EX1,1,46,2020-05-01T12:30:48-07:00,2.011253118515,2,versionA_stim.csv,READVersionB.csv,"Read Version B","Dissertation, read only version B",CANDLE,WAX,Study2,S,139,107,Study,User,-,,Study/JOL,"Study Phase",1610,,,-1,-1,,,,1
w989942_cew,d5tpw5eqwv,Nick_Dissertation_EX1,1,47,2020-05-01T12:30:50-07:00,1.9365608692169,2,versionA_stim.csv,READVersionB.csv,"Read Version B","Dissertation, read only version B",INCENSE,SMELL,Study2,F,110,111,Study,User,-,,Study/JOL,"Study Phase",1311,,,-1,-1,,,,1
w989942_cew,d5tpw5eqwv,Nick_Dissertation_EX1,1,48,2020-05-01T12:30:52-07:00,2.3311991691589,2,versionA_stim.csv,READVersionB.csv,"Read Version B","Dissertation, read only version B",SCALP,HEAD,Study2,F,105,162,Study,User,-,,Study/JOL,"Study Phase",1636,,,-1,-1,,,,1
w989942_cew,d5tpw5eqwv,Nick_Dissertation_EX1,1,49,2020-05-01T12:30:54-07:00,1.9192888736725,2,versionA_stim.csv,READVersionB.csv,"Read Version B","Dissertation, read only version B",KEYS,JOKE,Study2,U,165,150,Study,User,-,,Study/JOL,"Study Phase",1548,,,-1,-1,,,,1
w989942_cew,d5tpw5eqwv,Nick_Dissertation_EX1,1,50,2020-05-01T12:30:55-07:00,1.4795010089874,2,versionA_stim.csv,READVersionB.csv,"Read Version B","Dissertation, read only version B",GIVE,STEAK,Study2,U,158,163,Study,User,-,,Study/JOL,"Study Phase",1069,,,-1,-1,,,,1
w989942_cew,d5tpw5eqwv,Nick_Dissertation_EX1,1,51,2020-05-01T12:30:57-07:00,1.6987330913544,2,versionA_stim.csv,READVersionB.csv,"Read Version B","Dissertation, read only version B",CACTUS,PLANT,Study2,F,98,108,Study,User,-,,Study/JOL,"Study Phase",1300,,,-1,-1,,,,1
w989942_cew,d5tpw5eqwv,Nick_Dissertation_EX1,1,52,2020-05-01T12:30:59-07:00,1.9151430130005,2,versionA_stim.csv,READVersionB.csv,"Read Version B","Dissertation, read only version B",MOAT,CLEAR,Study2,U,169,155,Study,User,-,,Study/JOL,"Study Phase",1428,,,-1,-1,,,,1
w989942_cew,d5tpw5eqwv,Nick_Dissertation_EX1,1,53,2020-05-01T12:31:00-07:00,1.5989520549774,2,versionA_stim.csv,READVersionB.csv,"Read Version B","Dissertation, read only version B",GLASS,BREAKABLE,Study2,B,127,164,Study,User,-,,Study/JOL,"Study Phase",1192,,,-1,-1,,,,1
w989942_cew,d5tpw5eqwv,Nick_Dissertation_EX1,1,54,2020-05-01T12:31:03-07:00,2.2804908752441,2,versionA_stim.csv,READVersionB.csv,"Read Version B","Dissertation, read only version B",BOTH,OUNCE,Study2,U,172,144,Study,User,-,,Study/JOL,"Study Phase",1891,,,-1,-1,,,,1
w989942_cew,d5tpw5eqwv,Nick_Dissertation_EX1,1,55,2020-05-01T12:31:05-07:00,1.7215070724487,2,versionA_stim.csv,READVersionB.csv,"Read Version B","Dissertation, read only version B",TANTRUM,TEMPER,Study2,S,154,146,Study,User,-,,Study/JOL,"Study Phase",1322,,,-1,-1,,,,1
w989942_cew,d5tpw5eqwv,Nick_Dissertation_EX1,1,56,2020-05-01T12:31:06-07:00,1.7500748634338,2,versionA_stim.csv,READVersionB.csv,"Read Version B","Dissertation, read only version B",DOCUMENT,PAPER,Study2,F,109,158,Study,User,-,,Study/JOL,"Study Phase",1374,,,-1,-1,,,,1
w989942_cew,d5tpw5eqwv,Nick_Dissertation_EX1,1,57,2020-05-01T12:31:08-07:00,1.4423151016235,2,versionA_stim.csv,READVersionB.csv,"Read Version B","Dissertation, read only version B",CHILL,COLD,Study2,F,114,156,Study,User,-,,Study/JOL,"Study Phase",1075,,,-1,-1,,,,1
w989942_cew,d5tpw5eqwv,Nick_Dissertation_EX1,1,58,2020-05-01T12:31:09-07:00,1.7167479991913,2,versionA_stim.csv,READVersionB.csv,"Read Version B","Dissertation, read only version B",LITTER,TRASH,Study2,F,103,153,Study,User,-,,Study/JOL,"Study Phase",1346,,,-1,-1,,,,1
w989942_cew,d5tpw5eqwv,Nick_Dissertation_EX1,1,59,2020-05-01T12:31:11-07:00,1.4783730506897,2,versionA_stim.csv,READVersionB.csv,"Read Version B","Dissertation, read only version B",JUSTICE,MAROON,Study2,U,156,122,Study,User,-,,Study/JOL,"Study Phase",1096,,,-1,-1,,,,1
w989942_cew,d5tpw5eqwv,Nick_Dissertation_EX1,1,60,2020-05-01T12:31:13-07:00,1.6393120288849,2,versionA_stim.csv,READVersionB.csv,"Read Version B","Dissertation, read only version B",THREAD,THIMBLE,Study2,B,121,103,Study,User,-,,Study/JOL,"Study Phase",1265,,,-1,-1,,,,1
w989942_cew,d5tpw5eqwv,Nick_Dissertation_EX1,1,61,2020-05-01T12:31:14-07:00,1.4548118114471,2,versionA_stim.csv,READVersionB.csv,"Read Version B","Dissertation, read only version B",FUZZY,BANG,Study2,U,168,170,Study,User,-,,Study/JOL,"Study Phase",1094,,,-1,-1,,,,1
w989942_cew,d5tpw5eqwv,Nick_Dissertation_EX1,1,62,2020-05-01T12:31:16-07:00,2.0285279750824,2,versionA_stim.csv,READVersionB.csv,"Read Version B","Dissertation, read only version B",MAZE,ELECTION,Study2,U,159,169,Study,User,-,,Study/JOL,"Study Phase",1660,,,-1,-1,,,,1
w989942_cew,d5tpw5eqwv,Nick_Dissertation_EX1,1,63,2020-05-01T12:31:18-07:00,1.8777220249176,2,versionA_stim.csv,READVersionB.csv,"Read Version B","Dissertation, read only version B",DRIVER,CAR,Study2,F,106,142,Study,User,-,,Study/JOL,"Study Phase",1484,,,-1,-1,,,,1
w989942_cew,d5tpw5eqwv,Nick_Dissertation_EX1,1,64,2020-05-01T12:31:20-07:00,2.4910671710968,2,versionA_stim.csv,READVersionB.csv,"Read Version B","Dissertation, read only version B",CAKE,CLOTHES,Study2,U,166,106,Study,User,-,,Study/JOL,"Study Phase",1527,,,-1,-1,,,,1
w989942_cew,d5tpw5eqwv,Nick_Dissertation_EX1,1,65,2020-05-01T12:31:22-07:00,1.7612810134888,2,versionA_stim.csv,READVersionB.csv,"Read Version B","Dissertation, read only version B",DRY,WET,Study2,S,146,98,Study,User,-,,Study/JOL,"Study Phase",1412,,,-1,-1,,,,1
w989942_cew,d5tpw5eqwv,Nick_Dissertation_EX1,1,66,2020-05-01T12:31:37-07:00,14.70919585228,2,versionA_stim.csv,READVersionB.csv,"Read Version B","Dissertation, read only version B",BIRD,PENGUIN,Study2,B,119,128,Study,User,-,,Study/JOL,"Study Phase",2195,,,-1,-1,,,,0.909
w989942_cew,d5tpw5eqwv,Nick_Dissertation_EX1,1,67,2020-05-01T12:31:38-07:00,1.6466290950775,2,versionA_stim.csv,READVersionB.csv,"Read Version B","Dissertation, read only version B",MEAT,OBTAIN,Study2,U,161,167,Study,User,-,,Study/JOL,"Study Phase",1285,,,-1,-1,,,,1
w989942_cew,d5tpw5eqwv,Nick_Dissertation_EX1,1,68,2020-05-01T12:31:40-07:00,1.4731838703156,2,versionA_stim.csv,READVersionB.csv,"Read Version B","Dissertation, read only version B",BASEBALL,LEAGUE,Study2,B,131,129,Study,User,-,,Study/JOL,"Study Phase",1123,,,-1,-1,,,,1
w989942_cew,d5tpw5eqwv,Nick_Dissertation_EX1,1,69,2020-05-01T12:31:42-07:00,1.7205131053925,2,versionA_stim.csv,READVersionB.csv,"Read Version B","Dissertation, read only version B",SAFETY,SEATBELT,Study2,S,147,176,Study,User,-,,Study/JOL,"Study Phase",1313,,,-1,-1,,,,1
w989942_cew,d5tpw5eqwv,Nick_Dissertation_EX1,1,70,2020-05-01T12:31:44-07:00,2.1973729133606,2,versionA_stim.csv,READVersionB.csv,"Read Version B","Dissertation, read only version B",MAIN,SCAR,Study2,U,175,112,Study,User,-,,Study/JOL,"Study Phase",1828,,,-1,-1,,,,1
w989942_cew,d5tpw5eqwv,Nick_Dissertation_EX1,1,71,2020-05-01T12:31:46-07:00,1.8942821025848,2,versionA_stim.csv,READVersionB.csv,"Read Version B","Dissertation, read only version B",LISTEN,FICTION,Study2,U,164,136,Study,User,-,,Study/JOL,"Study Phase",1519,,,-1,-1,,,,1
w989942_cew,d5tpw5eqwv,Nick_Dissertation_EX1,1,72,2020-05-01T12:31:47-07:00,1.5573930740356,2,versionA_stim.csv,READVersionB.csv,"Read Version B","Dissertation, read only version B",STRETCH,CLOTH,Study2,U,157,118,Study,User,-,,Study/JOL,"Study Phase",1186,,,-1,-1,,,,1
w989942_cew,d5tpw5eqwv,Nick_Dissertation_EX1,1,73,2020-05-01T12:31:49-07:00,1.7132318019867,2,versionA_stim.csv,READVersionB.csv,"Read Version B","Dissertation, read only version B",BAD,VILLAIN,Study2,B,118,133,Study,User,-,,Study/JOL,"Study Phase",1351,,,-1,-1,,,,1
w989942_cew,d5tpw5eqwv,Nick_Dissertation_EX1,1,74,2020-05-01T12:31:51-07:00,2.0064380168915,2,versionA_stim.csv,READVersionB.csv,"Read Version B","Dissertation, read only version B",FEUD,FIGHT,Study2,F,113,116,Study,User,-,,Study/JOL,"Study Phase",1630,,,-1,-1,,,,1
w989942_cew,d5tpw5eqwv,Nick_Dissertation_EX1,1,75,2020-05-01T12:31:53-07:00,1.6681740283966,2,versionA_stim.csv,READVersionB.csv,"Read Version B","Dissertation, read only version B",TRUTH,LIE,Study2,S,148,121,Study,User,-,,Study/JOL,"Study Phase",1289,,,-1,-1,,,,1
w989942_cew,d5tpw5eqwv,Nick_Dissertation_EX1,1,76,2020-05-01T12:31:54-07:00,1.4487030506134,2,versionA_stim.csv,READVersionB.csv,"Read Version B","Dissertation, read only version B",SLEEP,NAP,Study2,B,134,100,Study,User,-,,Study/JOL,"Study Phase",1090,,,-1,-1,,,,1
w989942_cew,d5tpw5eqwv,Nick_Dissertation_EX1,1,77,2020-05-01T12:31:56-07:00,1.7507569789886,2,versionA_stim.csv,READVersionB.csv,"Read Version B","Dissertation, read only version B",ROD,REEL,Study2,S,150,104,Study,User,-,,Study/JOL,"Study Phase",1380,,,-1,-1,,,,1
w989942_cew,d5tpw5eqwv,Nick_Dissertation_EX1,1,78,2020-05-01T12:31:58-07:00,1.683226108551,2,versionA_stim.csv,READVersionB.csv,"Read Version B","Dissertation, read only version B",EVEN,REVENGE,Study2,B,122,134,Study,User,-,,Study/JOL,"Study Phase",1307,,,-1,-1,,,,1
w989942_cew,d5tpw5eqwv,Nick_Dissertation_EX1,1,79,2020-05-01T12:32:00-07:00,2.0199899673462,2,versionA_stim.csv,READVersionB.csv,"Read Version B","Dissertation, read only version B",WRIST,BRACELET,Study2,S,140,115,Study,User,-,,Study/JOL,"Study Phase",1466,,,-1,-1,,,,1
w989942_cew,d5tpw5eqwv,Nick_Dissertation_EX1,1,80,2020-05-01T12:32:04-07:00,4.0101008415222,2,versionA_stim.csv,READVersionB.csv,"Read Version B","Dissertation, read only version B",PHONE,COMMUNICATION,Study2,S,149,105,Study,User,-,,Study/JOL,"Study Phase",1559,,,-1,-1,,,,1
w989942_cew,d5tpw5eqwv,Nick_Dissertation_EX1,1,81,2020-05-01T12:32:07-07:00,3.329442024231,2,versionA_stim.csv,READVersionB.csv,"Read Version B","Dissertation, read only version B",STAR,ACTRESS,Study2,B,120,127,Study,User,-,,Study/JOL,"Study Phase",1587,,,-1,-1,,,,1
w989942_cew,d5tpw5eqwv,Nick_Dissertation_EX1,1,82,2020-05-01T12:32:09-07:00,2.4806101322174,2,versionA_stim.csv,READVersionB.csv,"Read Version B","Dissertation, read only version B",CRACKLE,ABLE,Study2,U,162,117,Study,User,-,,Study/JOL,"Study Phase",2098,,,-1,-1,,,,1
w989942_cew,d5tpw5eqwv,Nick_Dissertation_EX1,1,83,2020-05-01T12:32:11-07:00,1.9596028327942,2,versionA_stim.csv,READVersionB.csv,"Read Version B","Dissertation, read only version B",ALONE,LONELY,Study2,S,145,125,Study,User,-,,Study/JOL,"Study Phase",1595,,,-1,-1,,,,1
w989942_cew,d5tpw5eqwv,Nick_Dissertation_EX1,1,84,2020-05-01T12:32:13-07:00,2.008513212204,2,versionA_stim.csv,READVersionB.csv,"Read Version B","Dissertation, read only version B",WATER,DRINK,Study2,S,143,157,Study,User,-,,Study/JOL,"Study Phase",1308,,,-1,-1,,,,1
w989942_cew,d5tpw5eqwv,Nick_Dissertation_EX1,1,85,2020-05-01T12:32:15-07:00,1.7681338787079,2,versionA_stim.csv,READVersionB.csv,"Read Version B","Dissertation, read only version B",RIGHTS,EQUAL,Study2,S,137,126,Study,User,-,,Study/JOL,"Study Phase",1237,,,-1,-1,,,,1
w989942_cew,d5tpw5eqwv,Nick_Dissertation_EX1,1,86,2020-05-01T12:32:18-07:00,3.0035209655762,2,versionA_stim.csv,READVersionB.csv,"Read Version B","Dissertation, read only version B",LOAN,SIGN,Study2,U,171,159,Study,User,-,,Study/JOL,"Study Phase",2625,,,-1,-1,,,,1
w989942_cew,d5tpw5eqwv,Nick_Dissertation_EX1,1,87,2020-05-01T12:32:20-07:00,1.940083026886,2,versionA_stim.csv,READVersionB.csv,"Read Version B","Dissertation, read only version B",DAYS,WEAKS,BUFFER4,Buffer,176,178,Study,User,-,,Study/JOL,BUFFER2,1561,,,-1,-1,,,,1
w989942_cew,d5tpw5eqwv,Nick_Dissertation_EX1,1,88,2020-05-01T12:32:24-07:00,3.7304909229279,2,versionA_stim.csv,READVersionB.csv,"Read Version B","Dissertation, read only version B",MONTH,YEAR,BUFFER4,Buffer,177,181,Study,User,-,,Study/JOL,BUFFER2,3375,,,-1,-1,,,,1
w989942_cew,d5tpw5eqwv,Nick_Dissertation_EX1,1,89,2020-05-01T12:32:26-07:00,2.2695980072021,2,versionA_stim.csv,READVersionB.csv,"Read Version B","Dissertation, read only version B",OCTOBER,SPOOKY,BUFFER4,Buffer,180,180,Study,User,-,,Study/JOL,BUFFER2,1700,,,-1,-1,,,,1
w989942_cew,d5tpw5eqwv,Nick_Dissertation_EX1,1,90,2020-05-01T12:32:29-07:00,2.4270122051239,2,versionA_stim.csv,READVersionB.csv,"Read Version B","Dissertation, read only version B",SPRING,MARCH,BUFFER4,Buffer,179,177,Study,User,-,,Study/JOL,BUFFER2,1857,,,-1,-1,,,,1
w989942_cew,d5tpw5eqwv,Nick_Dissertation_EX1,1,91,2020-05-01T12:32:48-07:00,19.232084989548,2,versionA_stim.csv,READVersionB.csv,"Read Version B","Dissertation, read only version B",TOOL,SHED,BUFFER4,Buffer,178,179,Study,User,-,,Study/JOL,BUFFER2,12755,,,-1,-1,,,,1
w989942_cew,d5tpw5eqwv,Nick_Dissertation_EX1,1,92,2020-05-01T12:32:52-07:00,3.8324179649353,2,versionA_stim.csv,READVersionB.csv,"Read Version B","Dissertation, read only version B",,,,,,0,Instruct,User,-,"You have completed this section. Please press Enter.",Filler_Instruction,Instruct2,3352,,,-1,-1,,,,1
w989942_cew,d5tpw5eqwv,Nick_Dissertation_EX1,1,93,2020-05-01T12:34:55-07:00,123.82282400131,2,versionA_stim.csv,READVersionB.csv,"Read Version B","Dissertation, read only version B",,,,,,0,FreeRecall,120,120,"Please list the 50 US states in alphabetical order. The task will automatically advance to the next screen after two minutes.",,Filler1,120001,"alabama Alaska arizona arkansas california colorado Connecticut deleware florida Georgia hawaii Idaho Illinois indiana Iowa kansas kentucky Lousiana maine maryland Massachusetts Michigan minneso",0,25680,119935,0,0,,1
w989942_cew,d5tpw5eqwv,Nick_Dissertation_EX1,1,94,2020-05-01T12:35:08-07:00,12.895057916641,2,versionA_stim.csv,READVersionB.csv,"Read Version B","Dissertation, read only version B",,,,,,0,Instruct,-,10,"You will now be presented with the first word from each of the previously studied item pairs. Please type the missing word. If you do not know the word, you may guess or press Enter to skip forward to the next pair.",,Instruct3,11637,,,-1,-1,,,,1
w989942_cew,d5tpw5eqwv,Nick_Dissertation_EX1,1,95,2020-05-01T12:35:13-07:00,4.6193199157715,2,versionA_stim.csv,READVersionB.csv,"Read Version B","Dissertation, read only version B",STAR,ACTRESS,Study2,B,120,127,Test,User,-,,Recall,Recall1,3830,,0,-1,-1,0,0,,1
w989942_cew,d5tpw5eqwv,Nick_Dissertation_EX1,1,96,2020-05-01T12:35:21-07:00,7.6700382232666,2,versionA_stim.csv,READVersionB.csv,"Read Version B","Dissertation, read only version B",DEAD,COFFIN,Study2,B,128,140,Test,User,-,,Recall,Recall1,6118,tomb,20,3104,4207,0,0,,1
w989942_cew,d5tpw5eqwv,Nick_Dissertation_EX1,1,97,2020-05-01T12:35:27-07:00,6.5674388408661,2,versionA_stim.csv,READVersionB.csv,"Read Version B","Dissertation, read only version B",WATER,DRINK,Study2,S,143,157,Test,User,-,,Recall,Recall1,5919,drink,100,3230,4199,1,1,,1
w989942_cew,d5tpw5eqwv,Nick_Dissertation_EX1,1,98,2020-05-01T12:35:34-07:00,6.8730471134186,2,versionA_stim.csv,READVersionB.csv,"Read Version B","Dissertation, read only version B",GIVE,STEAK,Study2,U,158,163,Test,User,-,,Recall,Recall1,6433,take,66.666666666667,3591,4673,0,0,,1
w989942_cew,d5tpw5eqwv,Nick_Dissertation_EX1,1,99,2020-05-01T12:35:48-07:00,13.606199979782,2,versionA_stim.csv,READVersionB.csv,"Read Version B","Dissertation, read only version B",ELEMENT,CARBON,Study2,S,141,154,Test,User,-,,Recall,Recall1,12902,CARBON,100,2038,11287,1,1,,1
w989942_cew,d5tpw5eqwv,Nick_Dissertation_EX1,1,100,2020-05-01T12:35:53-07:00,5.5248448848724,2,versionA_stim.csv,READVersionB.csv,"Read Version B","Dissertation, read only version B",LEASE,TOIL,Study2,U,170,119,Test,User,-,,Recall,Recall1,4753,TOIL,100,3012,3524,1,1,,1
w989942_cew,d5tpw5eqwv,Nick_Dissertation_EX1,1,101,2020-05-01T12:35:58-07:00,4.7442190647125,2,versionA_stim.csv,READVersionB.csv,"Read Version B","Dissertation, read only version B",LITTER,TRASH,Study2,F,103,153,Test,User,-,,Recall,Recall1,4324,TRASH,100,1799,2910,1,1,,1
w989942_cew,d5tpw5eqwv,Nick_Dissertation_EX1,1,102,2020-05-01T12:36:07-07:00,9.3956871032715,2,versionA_stim.csv,READVersionB.csv,"Read Version B","Dissertation, read only version B",FRUIT,STRAWBERRY,Study2,B,124,138,Test,User,-,,Recall,Recall1,8812,APPLE,26.666666666667,6655,7393,0,0,,1
w989942_cew,d5tpw5eqwv,Nick_Dissertation_EX1,1,103,2020-05-01T12:36:14-07:00,6.464026927948,2,versionA_stim.csv,READVersionB.csv,"Read Version B","Dissertation, read only version B",OWN,HAVE,Study2,S,153,109,Test,User,-,,Recall,Recall1,5677,HAVE,100,2717,4313,1,1,,1
w989942_cew,d5tpw5eqwv,Nick_Dissertation_EX1,1,104,2020-05-01T12:36:19-07:00,5.1195418834686,2,versionA_stim.csv,READVersionB.csv,"Read Version B","Dissertation, read only version B",TEMPERATURE,Morning,Study2,U,173,123,Test,User,-,,Recall,Recall1,4636,COLD,18.181818181818,2805,3252,0,0,,1
w989942_cew,d5tpw5eqwv,Nick_Dissertation_EX1,1,105,2020-05-01T12:36:23-07:00,4.1442420482635,2,versionA_stim.csv,READVersionB.csv,"Read Version B","Dissertation, read only version B",BIRD,PENGUIN,Study2,B,119,128,Test,User,-,,Recall,Recall1,3452,,0,-1,-1,0,0,,1
w989942_cew,d5tpw5eqwv,Nick_Dissertation_EX1,1,106,2020-05-01T12:36:29-07:00,5.8437070846558,2,versionA_stim.csv,READVersionB.csv,"Read Version B","Dissertation, read only version B",MAZE,ELECTION,Study2,U,159,169,Test,User,-,,Recall,Recall1,4370,CORN,50,2358,2770,0,0,,1
w989942_cew,d5tpw5eqwv,Nick_Dissertation_EX1,1,107,2020-05-01T12:36:32-07:00,3.4133338928223,2,versionA_stim.csv,READVersionB.csv,"Read Version B","Dissertation, read only version B",LOAN,SIGN,Study2,U,171,159,Test,User,-,,Recall,Recall1,2857,,0,-1,-1,0,0,,1
w989942_cew,d5tpw5eqwv,Nick_Dissertation_EX1,1,108,2020-05-01T12:36:40-07:00,7.5025191307068,2,versionA_stim.csv,READVersionB.csv,"Read Version B","Dissertation, read only version B",TURN,FLIP,Study2,B,116,171,Test,User,-,,Recall,Recall1,7065,AROUND,0,3457,5342,0,0,,1
w989942_cew,d5tpw5eqwv,Nick_Dissertation_EX1,1,109,2020-05-01T12:36:45-07:00,5.2258410453796,2,versionA_stim.csv,READVersionB.csv,"Read Version B","Dissertation, read only version B",CAT,PANTHER,Study2,B,126,131,Test,User,-,,Recall,Recall1,4766,LITTER,46.153846153846,2538,3315,0,0,,1
w989942_cew,d5tpw5eqwv,Nick_Dissertation_EX1,1,110,2020-05-01T12:36:50-07:00,4.6820838451385,2,versionA_stim.csv,READVersionB.csv,"Read Version B","Dissertation, read only version B",PHONE,COMMUNICATION,Study2,S,149,105,Test,User,-,,Recall,Recall1,4265,,0,-1,-1,0,0,,1
w989942_cew,d5tpw5eqwv,Nick_Dissertation_EX1,1,111,2020-05-01T12:36:53-07:00,3.010733127594,2,versionA_stim.csv,READVersionB.csv,"Read Version B","Dissertation, read only version B",FEUD,FIGHT,Study2,F,113,116,Test,User,-,,Recall,Recall1,2577,,0,-1,-1,0,0,,1
w989942_cew,d5tpw5eqwv,Nick_Dissertation_EX1,1,112,2020-05-01T12:36:58-07:00,5.280378818512,2,versionA_stim.csv,READVersionB.csv,"Read Version B","Dissertation, read only version B",KEYS,JOKE,Study2,U,165,150,Test,User,-,,Recall,Recall1,1828,,0,-1,-1,0,0,,1
w989942_cew,d5tpw5eqwv,Nick_Dissertation_EX1,1,113,2020-05-01T12:37:07-07:00,8.9785311222076,2,versionA_stim.csv,READVersionB.csv,"Read Version B","Dissertation, read only version B",ADJOURN,END,Study2,F,101,175,Test,User,-,,Recall,Recall1,7528,END,100,2369,6024,1,1,,1
w989942_cew,d5tpw5eqwv,Nick_Dissertation_EX1,1,114,2020-05-01T12:37:25-07:00,17.534386873245,2,versionA_stim.csv,READVersionB.csv,"Read Version B","Dissertation, read only version B",MONEY,BANKER,Study2,B,132,141,Test,User,-,,Recall,Recall1,5742,PRICE,18.181818181818,3155,4184,0,0,,1
w989942_cew,d5tpw5eqwv,Nick_Dissertation_EX1,1,115,2020-05-01T12:37:32-07:00,7.5231351852417,2,versionA_stim.csv,READVersionB.csv,"Read Version B","Dissertation, read only version B",VEHICLE,CHARM,Study2,U,160,161,Test,User,-,,Recall,Recall1,4014,CAR,75,2037,2375,0,1,,1
w989942_cew,d5tpw5eqwv,Nick_Dissertation_EX1,1,116,2020-05-01T12:37:34-07:00,2.3986818790436,2,versionA_stim.csv,READVersionB.csv,"Read Version B","Dissertation, read only version B",DINE,EAT,Study2,F,111,99,Test,User,-,,Recall,Recall1,1981,,0,-1,-1,0,0,,1
w989942_cew,d5tpw5eqwv,Nick_Dissertation_EX1,1,117,2020-05-01T12:37:39-07:00,4.2160220146179,2,versionA_stim.csv,READVersionB.csv,"Read Version B","Dissertation, read only version B",MIRROR,CHILDREN,Study2,U,174,137,Test,User,-,,Recall,Recall1,3780,,0,-1,-1,0,0,,1
w989942_cew,d5tpw5eqwv,Nick_Dissertation_EX1,1,118,2020-05-01T12:37:43-07:00,4.6172609329224,2,versionA_stim.csv,READVersionB.csv,"Read Version B","Dissertation, read only version B",FISH,SARDINE,Study2,B,130,120,Test,User,-,,Recall,Recall1,4184,SARDINE,100,1643,2557,1,1,,1
w989942_cew,d5tpw5eqwv,Nick_Dissertation_EX1,1,119,2020-05-01T12:37:50-07:00,6.3536040782928,2,versionA_stim.csv,READVersionB.csv,"Read Version B","Dissertation, read only version B",THREAD,THIMBLE,Study2,B,121,103,Test,User,-,,Recall,Recall1,5671,NOODLE,30.769230769231,3458,4063,0,0,,1
w989942_cew,d5tpw5eqwv,Nick_Dissertation_EX1,1,120,2020-05-01T12:37:54-07:00,4.0094900131226,2,versionA_stim.csv,READVersionB.csv,"Read Version B","Dissertation, read only version B",NAME,HATE,Study2,U,167,148,Test,User,-,,Recall,Recall1,2306,,0,-1,-1,0,0,,1
w989942_cew,d5tpw5eqwv,Nick_Dissertation_EX1,1,121,2020-05-01T12:37:57-07:00,3.6432240009308,2,versionA_stim.csv,READVersionB.csv,"Read Version B","Dissertation, read only version B",BASEBALL,LEAGUE,Study2,B,131,129,Test,User,-,,Recall,Recall1,2888,,0,-1,-1,0,0,,1
w989942_cew,d5tpw5eqwv,Nick_Dissertation_EX1,1,122,2020-05-01T12:38:01-07:00,3.8230118751526,2,versionA_stim.csv,READVersionB.csv,"Read Version B","Dissertation, read only version B",AFFECTION,LOVE,Study2,F,115,130,Test,User,-,,Recall,Recall1,2436,,0,-1,-1,0,0,,1
w989942_cew,d5tpw5eqwv,Nick_Dissertation_EX1,1,123,2020-05-01T12:38:08-07:00,6.7962410449982,2,versionA_stim.csv,READVersionB.csv,"Read Version B","Dissertation, read only version B",GONE,AWAY,Study2,S,142,114,Test,User,-,,Recall,Recall1,5592,AWAY,100,3037,3808,1,1,,1
w989942_cew,d5tpw5eqwv,Nick_Dissertation_EX1,1,124,2020-05-01T12:38:13-07:00,5.0585219860077,2,versionA_stim.csv,READVersionB.csv,"Read Version B","Dissertation, read only version B",CHILL,COLD,Study2,F,114,156,Test,User,-,,Recall,Recall1,4423,ICE,28.571428571429,1737,3010,0,0,,1
w989942_cew,d5tpw5eqwv,Nick_Dissertation_EX1,1,125,2020-05-01T12:38:18-07:00,4.5572869777679,2,versionA_stim.csv,READVersionB.csv,"Read Version B","Dissertation, read only version B",DRIVER,CAR,Study2,F,106,142,Test,User,-,,Recall,Recall1,1999,,0,-1,-1,0,0,,1
w989942_cew,d5tpw5eqwv,Nick_Dissertation_EX1,1,126,2020-05-01T12:38:28-07:00,10.062831163406,2,versionA_stim.csv,READVersionB.csv,"Read Version B","Dissertation, read only version B",POP,BALLOON,Study2,B,123,168,Test,User,-,,Recall,Recall1,4663,SODA,18.181818181818,2691,3066,0,0,,1
w989942_cew,d5tpw5eqwv,Nick_Dissertation_EX1,1,127,2020-05-01T12:38:34-07:00,6.8723659515381,2,versionA_stim.csv,READVersionB.csv,"Read Version B","Dissertation, read only version B",DOCUMENT,PAPER,Study2,F,109,158,Test,User,-,,Recall,Recall1,6458,FILE,22.222222222222,1643,3580,0,0,,1
w989942_cew,d5tpw5eqwv,Nick_Dissertation_EX1,1,128,2020-05-01T12:38:39-07:00,4.8170149326324,2,versionA_stim.csv,READVersionB.csv,"Read Version B","Dissertation, read only version B",SCALP,HEAD,Study2,F,105,162,Test,User,-,,Recall,Recall1,4373,HEAD,100,2424,3030,1,1,,1
w989942_cew,d5tpw5eqwv,Nick_Dissertation_EX1,1,129,2020-05-01T12:38:48-07:00,8.7150180339813,2,versionA_stim.csv,READVersionB.csv,"Read Version B","Dissertation, read only version B",ALONE,LONELY,Study2,S,145,125,Test,User,-,,Recall,Recall1,7033,LONELY,100,3044,5287,1,1,,1
w989942_cew,d5tpw5eqwv,Nick_Dissertation_EX1,1,130,2020-05-01T12:38:52-07:00,4.0625379085541,2,versionA_stim.csv,READVersionB.csv,"Read Version B","Dissertation, read only version B",CLUE,GAME,Study2,F,97,160,Test,User,-,,Recall,Recall1,2118,,0,-1,-1,0,0,,1
w989942_cew,d5tpw5eqwv,Nick_Dissertation_EX1,1,131,2020-05-01T12:38:55-07:00,2.5331010818481,2,versionA_stim.csv,READVersionB.csv,"Read Version B","Dissertation, read only version B",BOTH,OUNCE,Study2,U,172,144,Test,User,-,,Recall,Recall1,2065,,0,-1,-1,0,0,,1
w989942_cew,d5tpw5eqwv,Nick_Dissertation_EX1,1,132,2020-05-01T12:39:00-07:00,5.0571351051331,2,versionA_stim.csv,READVersionB.csv,"Read Version B","Dissertation, read only version B",SHEARS,SCISSORS,Study2,F,112,113,Test,User,-,,Recall,Recall1,4478,SCISSORS,100,1385,3050,1,1,,1
w989942_cew,d5tpw5eqwv,Nick_Dissertation_EX1,1,133,2020-05-01T12:39:05-07:00,5.0381078720093,2,versionA_stim.csv,READVersionB.csv,"Read Version B","Dissertation, read only version B",EVEN,REVENGE,Study2,B,122,134,Test,User,-,,Recall,Recall1,4556,BOTH,0,2796,3290,0,0,,1
w989942_cew,d5tpw5eqwv,Nick_Dissertation_EX1,1,134,2020-05-01T12:39:08-07:00,3.5719921588898,2,versionA_stim.csv,READVersionB.csv,"Read Version B","Dissertation, read only version B",DRY,WET,Study2,S,146,98,Test,User,-,,Recall,Recall1,3027,WET,100,1657,1997,1,1,,1
w989942_cew,d5tpw5eqwv,Nick_Dissertation_EX1,1,135,2020-05-01T12:39:10-07:00,2.0598948001862,2,versionA_stim.csv,READVersionB.csv,"Read Version B","Dissertation, read only version B",INCENSE,SMELL,Study2,F,110,111,Test,User,-,,Recall,Recall1,1628,,0,-1,-1,0,0,,1
w989942_cew,d5tpw5eqwv,Nick_Dissertation_EX1,1,136,2020-05-01T12:39:12-07:00,2.0520071983337,2,versionA_stim.csv,READVersionB.csv,"Read Version B","Dissertation, read only version B",CANDLE,WAX,Study2,S,139,107,Test,User,-,,Recall,Recall1,1621,,0,-1,-1,0,0,,1
w989942_cew,d5tpw5eqwv,Nick_Dissertation_EX1,1,137,2020-05-01T12:39:15-07:00,2.2058458328247,2,versionA_stim.csv,READVersionB.csv,"Read Version B","Dissertation, read only version B",BEST,FAVORITE,Study2,B,125,149,Test,User,-,,Recall,Recall1,1781,,0,-1,-1,0,0,,1
w989942_cew,d5tpw5eqwv,Nick_Dissertation_EX1,1,138,2020-05-01T12:39:17-07:00,2.2837011814117,2,versionA_stim.csv,READVersionB.csv,"Read Version B","Dissertation, read only version B",MAIN,SCAR,Study2,U,175,112,Test,User,-,,Recall,Recall1,1609,,0,-1,-1,0,0,,1
w989942_cew,d5tpw5eqwv,Nick_Dissertation_EX1,1,139,2020-05-01T12:39:22-07:00,4.8768367767334,2,versionA_stim.csv,READVersionB.csv,"Read Version B","Dissertation, read only version B",MASON,JAR,Study2,S,138,135,Test,User,-,,Recall,Recall1,2554,JAR,100,1166,1457,1,1,,1
w989942_cew,d5tpw5eqwv,Nick_Dissertation_EX1,1,140,2020-05-01T12:39:25-07:00,3.6066360473633,2,versionA_stim.csv,READVersionB.csv,"Read Version B","Dissertation, read only version B",SLEEP,NAP,Study2,B,134,100,Test,User,-,,Recall,Recall1,2961,,0,-1,-1,0,0,,1
w989942_cew,d5tpw5eqwv,Nick_Dissertation_EX1,1,141,2020-05-01T12:39:29-07:00,4.1400830745697,2,versionA_stim.csv,READVersionB.csv,"Read Version B","Dissertation, read only version B",CRACKLE,ABLE,Study2,U,162,117,Test,User,-,,Recall,Recall1,3510,,0,-1,-1,0,0,,1
w989942_cew,d5tpw5eqwv,Nick_Dissertation_EX1,1,142,2020-05-01T12:39:37-07:00,7.7832911014557,2,versionA_stim.csv,READVersionB.csv,"Read Version B","Dissertation, read only version B",ROD,REEL,Study2,S,150,104,Test,User,-,,Recall,Recall1,6107,FISHING,0,2419,4463,0,0,,1
w989942_cew,d5tpw5eqwv,Nick_Dissertation_EX1,1,143,2020-05-01T12:39:43-07:00,5.9124779701233,2,versionA_stim.csv,READVersionB.csv,"Read Version B","Dissertation, read only version B",SAFETY,SEATBELT,Study2,S,147,176,Test,User,-,,Recall,Recall1,5426,SEATBELT,100,2173,3527,1,1,,1
w989942_cew,d5tpw5eqwv,Nick_Dissertation_EX1,1,144,2020-05-01T12:39:48-07:00,5.1896789073944,2,versionA_stim.csv,READVersionB.csv,"Read Version B","Dissertation, read only version B",MOAT,CLEAR,Study2,U,169,155,Test,User,-,,Recall,Recall1,4249,BOAT,22.222222222222,1961,2664,0,0,,1
w989942_cew,d5tpw5eqwv,Nick_Dissertation_EX1,1,145,2020-05-01T12:39:52-07:00,3.6658430099487,2,versionA_stim.csv,READVersionB.csv,"Read Version B","Dissertation, read only version B",FLEA,TICK,Study2,S,151,172,Test,User,-,,Recall,Recall1,2942,TICK,100,1194,1582,1,1,,1
w989942_cew,d5tpw5eqwv,Nick_Dissertation_EX1,1,146,2020-05-01T12:39:56-07:00,3.9388239383698,2,versionA_stim.csv,READVersionB.csv,"Read Version B","Dissertation, read only version B",MULE,DONKEY,Study2,F,108,152,Test,User,-,,Recall,Recall1,3438,DONKEY,100,1024,2138,1,1,,1
w989942_cew,d5tpw5eqwv,Nick_Dissertation_EX1,1,147,2020-05-01T12:40:01-07:00,4.9023499488831,2,versionA_stim.csv,READVersionB.csv,"Read Version B","Dissertation, read only version B",CAR,WINDSHIELD,Study2,B,117,143,Test,User,-,,Recall,Recall1,4478,SEATBELT,33.333333333333,1559,3115,0,0,,1
w989942_cew,d5tpw5eqwv,Nick_Dissertation_EX1,1,148,2020-05-01T12:40:07-07:00,6.416023015976,2,versionA_stim.csv,READVersionB.csv,"Read Version B","Dissertation, read only version B",TANTRUM,TEMPER,Study2,S,154,146,Test,User,-,,Recall,Recall1,5577,,0,-1,-1,0,0,,1
w989942_cew,d5tpw5eqwv,Nick_Dissertation_EX1,1,149,2020-05-01T12:40:15-07:00,7.3494319915771,2,versionA_stim.csv,READVersionB.csv,"Read Version B","Dissertation, read only version B",CACTUS,PLANT,Study2,F,98,108,Test,User,-,,Recall,Recall1,4695,PLANT,100,2290,3042,1,1,,1
w989942_cew,d5tpw5eqwv,Nick_Dissertation_EX1,1,150,2020-05-01T12:40:19-07:00,4.3684520721436,2,versionA_stim.csv,READVersionB.csv,"Read Version B","Dissertation, read only version B",WRIST,BRACELET,Study2,S,140,115,Test,User,-,,Recall,Recall1,3962,WATCH,30.769230769231,1743,2549,0,0,,1
w989942_cew,d5tpw5eqwv,Nick_Dissertation_EX1,1,151,2020-05-01T12:40:22-07:00,3.2781670093536,2,versionA_stim.csv,READVersionB.csv,"Read Version B","Dissertation, read only version B",DETECTIVE,MYSTERY,Study2,F,100,173,Test,User,-,,Recall,Recall1,1830,,0,-1,-1,0,0,,1
w989942_cew,d5tpw5eqwv,Nick_Dissertation_EX1,1,152,2020-05-01T12:40:24-07:00,2.1484501361847,2,versionA_stim.csv,READVersionB.csv,"Read Version B","Dissertation, read only version B",EARTH,GROUND,Study2,S,144,139,Test,User,-,,Recall,Recall1,1699,,0,-1,-1,0,0,,1
w989942_cew,d5tpw5eqwv,Nick_Dissertation_EX1,1,153,2020-05-01T12:40:28-07:00,3.8211019039154,2,versionA_stim.csv,READVersionB.csv,"Read Version B","Dissertation, read only version B",CHERRY,RED,Study2,F,104,145,Test,User,-,,Recall,Recall1,3425,RED,100,1459,1826,1,1,,1
w989942_cew,d5tpw5eqwv,Nick_Dissertation_EX1,1,154,2020-05-01T12:40:31-07:00,3.2246549129486,2,versionA_stim.csv,READVersionB.csv,"Read Version B","Dissertation, read only version B",PLANE,AIRCRAFT,Study2,B,129,174,Test,User,-,,Recall,Recall1,2013,,0,-1,-1,0,0,,1
w989942_cew,d5tpw5eqwv,Nick_Dissertation_EX1,1,155,2020-05-01T12:40:36-07:00,4.3541400432587,2,versionA_stim.csv,READVersionB.csv,"Read Version B","Dissertation, read only version B",TRUTH,LIE,Study2,S,148,121,Test,User,-,,Recall,Recall1,3064,LIE,100,1574,1777,1,1,,1
w989942_cew,d5tpw5eqwv,Nick_Dissertation_EX1,1,156,2020-05-01T12:40:38-07:00,2.5856199264526,2,versionA_stim.csv,READVersionB.csv,"Read Version B","Dissertation, read only version B",STRETCH,CLOTH,Study2,U,157,118,Test,User,-,,Recall,Recall1,2162,,0,-1,-1,0,0,,1
w989942_cew,d5tpw5eqwv,Nick_Dissertation_EX1,1,157,2020-05-01T12:40:41-07:00,2.3560411930084,2,versionA_stim.csv,READVersionB.csv,"Read Version B","Dissertation, read only version B",CHOP,CUT,Study2,F,107,110,Test,User,-,,Recall,Recall1,1632,,0,-1,-1,0,0,,1
w989942_cew,d5tpw5eqwv,Nick_Dissertation_EX1,1,158,2020-05-01T12:40:44-07:00,3.0703358650208,2,versionA_stim.csv,READVersionB.csv,"Read Version B","Dissertation, read only version B",MEAT,OBTAIN,Study2,U,161,167,Test,User,-,,Recall,Recall1,2016,,0,-1,-1,0,0,,1
w989942_cew,d5tpw5eqwv,Nick_Dissertation_EX1,1,159,2020-05-01T12:40:46-07:00,2.4358949661255,2,versionA_stim.csv,READVersionB.csv,"Read Version B","Dissertation, read only version B",BAD,VILLAIN,Study2,B,118,133,Test,User,-,,Recall,Recall1,1677,,0,-1,-1,0,0,,1
w989942_cew,d5tpw5eqwv,Nick_Dissertation_EX1,1,160,2020-05-01T12:40:51-07:00,4.7382121086121,2,versionA_stim.csv,READVersionB.csv,"Read Version B","Dissertation, read only version B",JUSTICE,MAROON,Study2,U,156,122,Test,User,-,,Recall,Recall1,2140,,0,-1,-1,0,0,,1
w989942_cew,d5tpw5eqwv,Nick_Dissertation_EX1,1,161,2020-05-01T12:40:56-07:00,4.5105729103088,2,versionA_stim.csv,READVersionB.csv,"Read Version B","Dissertation, read only version B",LOUD,NOISE,Study2,S,152,102,Test,User,-,,Recall,Recall1,1998,,0,-1,-1,0,0,,1
w989942_cew,d5tpw5eqwv,Nick_Dissertation_EX1,1,162,2020-05-01T12:41:01-07:00,5.8304340839386,2,versionA_stim.csv,READVersionB.csv,"Read Version B","Dissertation, read only version B",CAKE,CLOTHES,Study2,U,166,106,Test,User,-,,Recall,Recall1,5267,SLICE,16.666666666667,2828,3538,0,0,,1
w989942_cew,d5tpw5eqwv,Nick_Dissertation_EX1,1,163,2020-05-01T12:41:05-07:00,3.783588886261,2,versionA_stim.csv,READVersionB.csv,"Read Version B","Dissertation, read only version B",FURRY,DOG,Study2,F,102,101,Test,User,-,,Recall,Recall1,3364,DOG,100,1866,2204,1,1,,1
w989942_cew,d5tpw5eqwv,Nick_Dissertation_EX1,1,164,2020-05-01T12:41:09-07:00,3.9863460063934,2,versionA_stim.csv,READVersionB.csv,"Read Version B","Dissertation, read only version B",EXTENSION,LONG,Study2,F,96,147,Test,User,-,,Recall,Recall1,3573,LONG,100,1594,2033,1,1,,1
w989942_cew,d5tpw5eqwv,Nick_Dissertation_EX1,1,165,2020-05-01T12:41:19-07:00,9.6944751739502,2,versionA_stim.csv,READVersionB.csv,"Read Version B","Dissertation, read only version B",LISTEN,FICTION,Study2,U,164,136,Test,User,-,,Recall,Recall1,9075,QUIET,33.333333333333,2125,6110,0,0,,1
w989942_cew,d5tpw5eqwv,Nick_Dissertation_EX1,1,166,2020-05-01T12:41:28-07:00,8.7740159034729,2,versionA_stim.csv,READVersionB.csv,"Read Version B","Dissertation, read only version B",SHOELACE,TIE,Study2,F,99,97,Test,User,-,,Recall,Recall1,7195,STRING,44.444444444444,4933,5813,0,0,,0.943
w989942_cew,d5tpw5eqwv,Nick_Dissertation_EX1,1,167,2020-05-01T12:41:31-07:00,3.4444570541382,2,versionA_stim.csv,READVersionB.csv,"Read Version B","Dissertation, read only version B",Shell,SHAKE,Study2,U,163,124,Test,User,-,,Recall,Recall1,2978,,0,-1,-1,0,0,,1
w989942_cew,d5tpw5eqwv,Nick_Dissertation_EX1,1,168,2020-05-01T12:41:38-07:00,6.9878990650177,2,versionA_stim.csv,READVersionB.csv,"Read Version B","Dissertation, read only version B",RIGHTS,EQUAL,Study2,S,137,126,Test,User,-,,Recall,Recall1,6592,EQUAL,100,1252,5172,1,1,,1
w989942_cew,d5tpw5eqwv,Nick_Dissertation_EX1,1,169,2020-05-01T12:41:43-07:00,5.233904838562,2,versionA_stim.csv,READVersionB.csv,"Read Version B","Dissertation, read only version B",HONEST,TRUTHFUL,Study2,B,133,166,Test,User,-,,Recall,Recall1,4619,TRUTH,76.923076923077,2241,2909,0,1,,1
w989942_cew,d5tpw5eqwv,Nick_Dissertation_EX1,1,170,2020-05-01T12:41:48-07:00,5.0107181072235,2,versionA_stim.csv,READVersionB.csv,"Read Version B","Dissertation, read only version B",SUN,TAN,Study2,S,155,151,Test,User,-,,Recall,Recall1,4548,TAN,100,2621,3172,1,1,,1
w989942_cew,d5tpw5eqwv,Nick_Dissertation_EX1,1,171,2020-05-01T12:41:53-07:00,5.1927428245544,2,versionA_stim.csv,READVersionB.csv,"Read Version B","Dissertation, read only version B",RAZOR,SHAVE,Study2,S,136,165,Test,User,-,,Recall,Recall1,4803,SHAVE,100,2196,3153,1,1,,1
w989942_cew,d5tpw5eqwv,Nick_Dissertation_EX1,1,172,2020-05-01T12:41:58-07:00,4.1983180046082,2,versionA_stim.csv,READVersionB.csv,"Read Version B","Dissertation, read only version B",FIGHT,BRAWL,Study2,B,135,132,Test,User,-,,Recall,Recall1,2579,,0,-1,-1,0,0,,1
w989942_cew,d5tpw5eqwv,Nick_Dissertation_EX1,1,173,2020-05-01T12:42:02-07:00,4.387106180191,2,versionA_stim.csv,READVersionB.csv,"Read Version B","Dissertation, read only version B",FUZZY,BANG,Study2,U,168,170,Test,User,-,,Recall,Recall1,3611,DOG,28.571428571429,1654,1905,0,0,,1
w989942_cew,d5tpw5eqwv,Nick_Dissertation_EX1,1,174,2020-05-01T12:42:08-07:00,6.1099100112915,2,versionA_stim.csv,READVersionB.csv,"Read Version B","Dissertation, read only version B",GLASS,BREAKABLE,Study2,B,127,164,Test,User,-,,Recall,Recall1,5626,JAR,16.666666666667,4183,4439,0,0,,1
w989942_cew,d5tpw5eqwv,Nick_Dissertation_EX1,1,175,2020-05-01T12:42:22-07:00,13.984627962112,2,versionA_stim.csv,READVersionB.csv,"Read Version B","Dissertation, read only version B",,,,,,0,Instruct,-,10,"You will now be presented with a new set of word pairs. Please study each pair. Remember that your memory will be tested! When finished, press Enter to move to the next pair.",Initial_Instruct,Instruct4,11554,,,-1,-1,,,,1
w989942_cew,d5tpw5eqwv,Nick_Dissertation_EX1,1,176,2020-05-01T12:42:27-07:00,5.1295058727264,2,versionA_stim.csv,READVersionB.csv,"Read Version B","Dissertation, read only version B",SCARE,HIDE,BUFFER1,Buffer,4,3,Study,User,-,,Study/JOL,BUFFER3,2468,,,-1,-1,,,,1
w989942_cew,d5tpw5eqwv,Nick_Dissertation_EX1,1,177,2020-05-01T12:42:29-07:00,2.1472151279449,2,versionA_stim.csv,READVersionB.csv,"Read Version B","Dissertation, read only version B",TREES,GREEN,BUFFER1,Buffer,1,5,Study,User,-,,Study/JOL,BUFFER3,1471,,,-1,-1,,,,1
w989942_cew,d5tpw5eqwv,Nick_Dissertation_EX1,1,178,2020-05-01T12:42:32-07:00,2.2435929775238,2,versionA_stim.csv,READVersionB.csv,"Read Version B","Dissertation, read only version B",SPACE,JAM,BUFFER1,Buffer,5,6,Study,User,-,,Study/JOL,BUFFER3,1815,,,-1,-1,,,,1
w989942_cew,d5tpw5eqwv,Nick_Dissertation_EX1,1,179,2020-05-01T12:42:35-07:00,2.8242530822754,2,versionA_stim.csv,READVersionB.csv,"Read Version B","Dissertation, read only version B",BASEBALL,CATCHER,BUFFER1,Buffer,2,2,Study,User,-,,Study/JOL,BUFFER3,2063,,,-1,-1,,,,1
w989942_cew,d5tpw5eqwv,Nick_Dissertation_EX1,1,180,2020-05-01T12:42:37-07:00,2.9490540027618,2,versionA_stim.csv,READVersionB.csv,"Read Version B","Dissertation, read only version B",PEANUT,BUTTER,BUFFER1,Buffer,3,4,Study,User,-,,Study/JOL,BUFFER3,1355,,,-1,-1,,,,1
w989942_cew,d5tpw5eqwv,Nick_Dissertation_EX1,1,181,2020-05-01T12:42:39-07:00,2.0241928100586,2,versionA_stim.csv,READVersionB.csv,"Read Version B","Dissertation, read only version B",LAW,ATTORNEY,Study1,B,34,28,Study,User,-,,Study/JOL,"Study Phase2",1519,,,-1,-1,,,,1
w989942_cew,d5tpw5eqwv,Nick_Dissertation_EX1,1,182,2020-05-01T12:42:42-07:00,2.2009620666504,2,versionA_stim.csv,READVersionB.csv,"Read Version B","Dissertation, read only version B",BABY,CHILD,Study1,S,64,61,Study,User,-,,Study/JOL,"Study Phase2",1740,,,-1,-1,,,,1
w989942_cew,d5tpw5eqwv,Nick_Dissertation_EX1,1,183,2020-05-01T12:42:44-07:00,2.2714610099792,2,versionA_stim.csv,READVersionB.csv,"Read Version B","Dissertation, read only version B",CHISEL,HAMMER,Study1,F,9,50,Study,User,-,,Study/JOL,"Study Phase2",1761,,,-1,-1,,,,1
w989942_cew,d5tpw5eqwv,Nick_Dissertation_EX1,1,184,2020-05-01T12:42:50-07:00,5.570207118988,2,versionA_stim.csv,READVersionB.csv,"Read Version B","Dissertation, read only version B",ART,LION,Study1,U,79,13,Study,User,-,,Study/JOL,"Study Phase2",1530,,,-1,-1,,,,1
w989942_cew,d5tpw5eqwv,Nick_Dissertation_EX1,1,185,2020-05-01T12:42:53-07:00,3.5020668506622,2,versionA_stim.csv,READVersionB.csv,"Read Version B","Dissertation, read only version B",DIGESTION,STOMACH,Study1,F,7,52,Study,User,-,,Study/JOL,"Study Phase2",1357,,,-1,-1,,,,1
w989942_cew,d5tpw5eqwv,Nick_Dissertation_EX1,1,186,2020-05-01T12:42:55-07:00,2.2632100582123,2,versionA_stim.csv,READVersionB.csv,"Read Version B","Dissertation, read only version B",PLANE,PILOT,Study1,B,44,46,Study,User,-,,Study/JOL,"Study Phase2",1793,,,-1,-1,,,,1
w989942_cew,d5tpw5eqwv,Nick_Dissertation_EX1,1,187,2020-05-01T12:43:00-07:00,4.6328029632568,2,versionA_stim.csv,READVersionB.csv,"Read Version B","Dissertation, read only version B",PAW,DOG,Study1,F,15,20,Study,User,-,,Study/JOL,"Study Phase2",1600,,,-1,-1,,,,1
w989942_cew,d5tpw5eqwv,Nick_Dissertation_EX1,1,188,2020-05-01T12:43:02-07:00,1.6352660655975,2,versionA_stim.csv,READVersionB.csv,"Read Version B","Dissertation, read only version B",HONEY,BEE,Study1,S,63,71,Study,User,-,,Study/JOL,"Study Phase2",1205,,,-1,-1,,,,1
w989942_cew,d5tpw5eqwv,Nick_Dissertation_EX1,1,189,2020-05-01T12:43:05-07:00,3.7341070175171,2,versionA_stim.csv,READVersionB.csv,"Read Version B","Dissertation, read only version B",LIFT,WOMAN,Study1,U,69,29,Study,User,-,,Study/JOL,"Study Phase2",3303,,,-1,-1,,,,1
w989942_cew,d5tpw5eqwv,Nick_Dissertation_EX1,1,190,2020-05-01T12:43:07-07:00,2.0117709636688,2,versionA_stim.csv,READVersionB.csv,"Read Version B","Dissertation, read only version B",TUNA,FISH,Study1,F,25,66,Study,User,-,,Study/JOL,"Study Phase2",1082,,,-1,-1,,,,1
w989942_cew,d5tpw5eqwv,Nick_Dissertation_EX1,1,191,2020-05-01T12:43:11-07:00,4.1122989654541,2,versionA_stim.csv,READVersionB.csv,"Read Version B","Dissertation, read only version B",DRINK,SIP,Study1,B,27,35,Study,User,-,,Study/JOL,"Study Phase2",3331,,,-1,-1,,,,1
w989942_cew,d5tpw5eqwv,Nick_Dissertation_EX1,1,192,2020-05-01T12:43:14-07:00,2.8719689846039,2,versionA_stim.csv,READVersionB.csv,"Read Version B","Dissertation, read only version B",ORCHID,FLOWER,Study1,F,24,67,Study,User,-,,Study/JOL,"Study Phase2",1216,,,-1,-1,,,,1
w989942_cew,d5tpw5eqwv,Nick_Dissertation_EX1,1,193,2020-05-01T12:43:18-07:00,3.6253850460052,2,versionA_stim.csv,READVersionB.csv,"Read Version B","Dissertation, read only version B",ARTERY,BRONZE,Study1,U,74,57,Study,User,-,,Study/JOL,"Study Phase2",2184,,,-1,-1,,,,1
w989942_cew,d5tpw5eqwv,Nick_Dissertation_EX1,1,194,2020-05-01T12:43:20-07:00,1.7445909976959,2,versionA_stim.csv,READVersionB.csv,"Read Version B","Dissertation, read only version B",DISCUSSION,TALK,Study1,F,21,47,Study,User,-,,Study/JOL,"Study Phase2",1284,,,-1,-1,,,,1
w989942_cew,d5tpw5eqwv,Nick_Dissertation_EX1,1,195,2020-05-01T12:43:30-07:00,10.659492969513,2,versionA_stim.csv,READVersionB.csv,"Read Version B","Dissertation, read only version B",ROOT,PLANT,Study1,F,13,8,Study,User,-,,Study/JOL,"Study Phase2",9991,,,-1,-1,,,,1
w989942_cew,d5tpw5eqwv,Nick_Dissertation_EX1,1,196,2020-05-01T12:43:33-07:00,2.2475759983063,2,versionA_stim.csv,READVersionB.csv,"Read Version B","Dissertation, read only version B",FIX,HAND,Study1,U,75,22,Study,User,-,,Study/JOL,"Study Phase2",1696,,,-1,-1,,,,1
w989942_cew,d5tpw5eqwv,Nick_Dissertation_EX1,1,197,2020-05-01T12:43:35-07:00,2.3380420207977,2,versionA_stim.csv,READVersionB.csv,"Read Version B","Dissertation, read only version B",FIRE,BLAZE,Study1,B,45,43,Study,User,-,,Study/JOL,"Study Phase2",1634,,,-1,-1,,,,1
w989942_cew,d5tpw5eqwv,Nick_Dissertation_EX1,1,198,2020-05-01T12:43:37-07:00,1.7172319889069,2,versionA_stim.csv,READVersionB.csv,"Read Version B","Dissertation, read only version B",SENTENCE,WORD,Study1,B,31,49,Study,User,-,,Study/JOL,"Study Phase2",1108,,,-1,-1,,,,1
w989942_cew,d5tpw5eqwv,Nick_Dissertation_EX1,1,199,2020-05-01T12:43:44-07:00,7.0340619087219,2,versionA_stim.csv,READVersionB.csv,"Read Version B","Dissertation, read only version B",BLOW,WIND,Study1,S,55,68,Study,User,-,,Study/JOL,"Study Phase2",6527,,,-1,-1,,,,1
w989942_cew,d5tpw5eqwv,Nick_Dissertation_EX1,1,200,2020-05-01T12:43:46-07:00,2.7671890258789,2,versionA_stim.csv,READVersionB.csv,"Read Version B","Dissertation, read only version B",LOCATION,SITE,Study1,S,48,80,Study,User,-,,Study/JOL,"Study Phase2",2331,,,-1,-1,,,,1
w989942_cew,d5tpw5eqwv,Nick_Dissertation_EX1,1,201,2020-05-01T12:43:53-07:00,6.7061309814453,2,versionA_stim.csv,READVersionB.csv,"Read Version B","Dissertation, read only version B",PUSHER,CLUTTER,Study1,U,66,81,Study,User,-,,Study/JOL,"Study Phase2",4999,,,-1,-1,,,,1
w989942_cew,d5tpw5eqwv,Nick_Dissertation_EX1,1,202,2020-05-01T12:43:57-07:00,4.2146401405334,2,versionA_stim.csv,READVersionB.csv,"Read Version B","Dissertation, read only version B",GREAT,FANTASTIC,Study1,B,35,24,Study,User,-,,Study/JOL,"Study Phase2",3506,,,-1,-1,,,,1
w989942_cew,d5tpw5eqwv,Nick_Dissertation_EX1,1,203,2020-05-01T12:43:59-07:00,1.8224270343781,2,versionA_stim.csv,READVersionB.csv,"Read Version B","Dissertation, read only version B",SWAN,BIRD,Study1,F,14,39,Study,User,-,,Study/JOL,"Study Phase2",1355,,,-1,-1,,,,1
w989942_cew,d5tpw5eqwv,Nick_Dissertation_EX1,1,204,2020-05-01T12:44:01-07:00,1.8856258392334,2,versionA_stim.csv,READVersionB.csv,"Read Version B","Dissertation, read only version B",BRIDGE,WATER,Study1,F,18,9,Study,User,-,,Study/JOL,"Study Phase2",1521,,,-1,-1,,,,1
w989942_cew,d5tpw5eqwv,Nick_Dissertation_EX1,1,205,2020-05-01T12:44:04-07:00,2.459419965744,2,versionA_stim.csv,READVersionB.csv,"Read Version B","Dissertation, read only version B",DELINQUENT,BAD,Study1,F,6,63,Study,User,-,,Study/JOL,"Study Phase2",1895,,,-1,-1,,,,1
w989942_cew,d5tpw5eqwv,Nick_Dissertation_EX1,1,206,2020-05-01T12:44:05-07:00,1.6291131973267,2,versionA_stim.csv,READVersionB.csv,"Read Version B","Dissertation, read only version B",WAY,OUT,Study1,F,16,30,Study,User,-,,Study/JOL,"Study Phase2",1211,,,-1,-1,,,,1
w989942_cew,d5tpw5eqwv,Nick_Dissertation_EX1,1,207,2020-05-01T12:44:08-07:00,2.6732378005981,2,versionA_stim.csv,READVersionB.csv,"Read Version B","Dissertation, read only version B",CASH,WOULD,Study1,U,83,48,Study,User,-,,Study/JOL,"Study Phase2",1720,,,-1,-1,,,,1
w989942_cew,d5tpw5eqwv,Nick_Dissertation_EX1,1,208,2020-05-01T12:44:10-07:00,1.9975771903992,2,versionA_stim.csv,READVersionB.csv,"Read Version B","Dissertation, read only version B",TRIAL,JURY,Study1,S,50,56,Study,User,-,,Study/JOL,"Study Phase2",1476,,,-1,-1,,,,1
w989942_cew,d5tpw5eqwv,Nick_Dissertation_EX1,1,209,2020-05-01T12:44:13-07:00,2.8992328643799,2,versionA_stim.csv,READVersionB.csv,"Read Version B","Dissertation, read only version B",SMELL,STENCH,Study1,B,42,70,Study,User,-,,Study/JOL,"Study Phase2",2022,,,-1,-1,,,,1
w989942_cew,d5tpw5eqwv,Nick_Dissertation_EX1,1,210,2020-05-01T12:44:15-07:00,2.7081999778748,2,versionA_stim.csv,READVersionB.csv,"Read Version B","Dissertation, read only version B",ARCHITECTURE,DESIGN,Study1,S,51,69,Study,User,-,,Study/JOL,"Study Phase2",1967,,,-1,-1,,,,1
w989942_cew,d5tpw5eqwv,Nick_Dissertation_EX1,1,211,2020-05-01T12:44:17-07:00,1.9814851284027,2,versionA_stim.csv,READVersionB.csv,"Read Version B","Dissertation, read only version B",DISCOVER,FLOOR,Study1,U,71,73,Study,User,-,,Study/JOL,"Study Phase2",1510,,,-1,-1,,,,1
w989942_cew,d5tpw5eqwv,Nick_Dissertation_EX1,1,212,2020-05-01T12:44:19-07:00,1.5836789608002,2,versionA_stim.csv,READVersionB.csv,"Read Version B","Dissertation, read only version B",MATH,DIVISION,Study1,B,33,17,Study,User,-,,Study/JOL,"Study Phase2",1185,,,-1,-1,,,,1
w989942_cew,d5tpw5eqwv,Nick_Dissertation_EX1,1,213,2020-05-01T12:44:22-07:00,3.253359079361,2,versionA_stim.csv,READVersionB.csv,"Read Version B","Dissertation, read only version B",CIRCLE,ROUND,Study1,S,65,40,Study,User,-,,Study/JOL,"Study Phase2",1762,,,-1,-1,,,,1
w989942_cew,d5tpw5eqwv,Nick_Dissertation_EX1,1,214,2020-05-01T12:44:24-07:00,1.9461059570312,2,versionA_stim.csv,READVersionB.csv,"Read Version B","Dissertation, read only version B",BITTER,COLD,Study1,F,12,44,Study,User,-,,Study/JOL,"Study Phase2",1521,,,-1,-1,,,,1
w989942_cew,d5tpw5eqwv,Nick_Dissertation_EX1,1,215,2020-05-01T12:44:26-07:00,1.5831940174103,2,versionA_stim.csv,READVersionB.csv,"Read Version B","Dissertation, read only version B",DEATH,BUSINESS,Study1,U,72,11,Study,User,-,,Study/JOL,"Study Phase2",1201,,,-1,-1,,,,1
w989942_cew,d5tpw5eqwv,Nick_Dissertation_EX1,1,216,2020-05-01T12:44:28-07:00,1.9723858833313,2,versionA_stim.csv,READVersionB.csv,"Read Version B","Dissertation, read only version B",SHOE,FOOT,Study1,S,60,62,Study,User,-,,Study/JOL,"Study Phase2",1599,,,-1,-1,,,,1
w989942_cew,d5tpw5eqwv,Nick_Dissertation_EX1,1,217,2020-05-01T12:44:30-07:00,1.9092681407928,2,versionA_stim.csv,READVersionB.csv,"Read Version B","Dissertation, read only version B",DEBATE,SIGHT,Study1,U,73,76,Study,User,-,,Study/JOL,"Study Phase2",1517,,,-1,-1,,,,1
w989942_cew,d5tpw5eqwv,Nick_Dissertation_EX1,1,218,2020-05-01T12:44:32-07:00,2.2818949222565,2,versionA_stim.csv,READVersionB.csv,"Read Version B","Dissertation, read only version B",WAGE,MONEY,Study1,F,8,82,Study,User,-,,Study/JOL,"Study Phase2",1894,,,-1,-1,,,,1
w989942_cew,d5tpw5eqwv,Nick_Dissertation_EX1,1,219,2020-05-01T12:44:34-07:00,1.8531069755554,2,versionA_stim.csv,READVersionB.csv,"Read Version B","Dissertation, read only version B",BATHROOM,TOILET,Study1,S,58,31,Study,User,-,,Study/JOL,"Study Phase2",1385,,,-1,-1,,,,1
w989942_cew,d5tpw5eqwv,Nick_Dissertation_EX1,1,220,2020-05-01T12:44:35-07:00,1.6736800670624,2,versionA_stim.csv,READVersionB.csv,"Read Version B","Dissertation, read only version B",GRILL,BAR,Study1,S,52,38,Study,User,-,,Study/JOL,"Study Phase2",1260,,,-1,-1,,,,1
w989942_cew,d5tpw5eqwv,Nick_Dissertation_EX1,1,221,2020-05-01T12:44:37-07:00,1.7170169353485,2,versionA_stim.csv,READVersionB.csv,"Read Version B","Dissertation, read only version B",DUE,ASSIGNMENT,Study1,S,46,83,Study,User,-,,Study/JOL,"Study Phase2",1326,,,-1,-1,,,,1
w989942_cew,d5tpw5eqwv,Nick_Dissertation_EX1,1,222,2020-05-01T12:44:39-07:00,1.8939340114594,2,versionA_stim.csv,READVersionB.csv,"Read Version B","Dissertation, read only version B",DIETARY,SACKING,Study1,U,67,58,Study,User,-,,Study/JOL,"Study Phase2",1459,,,-1,-1,,,,1
w989942_cew,d5tpw5eqwv,Nick_Dissertation_EX1,1,223,2020-05-01T12:44:41-07:00,1.9181320667267,2,versionA_stim.csv,READVersionB.csv,"Read Version B","Dissertation, read only version B",EDITOR,NEWS,Study1,F,10,64,Study,User,-,,Study/JOL,"Study Phase2",1234,,,-1,-1,,,,1
w989942_cew,d5tpw5eqwv,Nick_Dissertation_EX1,1,224,2020-05-01T12:44:43-07:00,1.6617870330811,2,versionA_stim.csv,READVersionB.csv,"Read Version B","Dissertation, read only version B",FULL,ENOUGH,Study1,B,26,78,Study,User,-,,Study/JOL,"Study Phase2",1245,,,-1,-1,,,,1
w989942_cew,d5tpw5eqwv,Nick_Dissertation_EX1,1,225,2020-05-01T12:44:44-07:00,1.8506360054016,2,versionA_stim.csv,READVersionB.csv,"Read Version B","Dissertation, read only version B",KEY,LATCH,Study1,B,36,84,Study,User,-,,Study/JOL,"Study Phase2",1409,,,-1,-1,,,,1
w989942_cew,d5tpw5eqwv,Nick_Dissertation_EX1,1,226,2020-05-01T12:44:46-07:00,1.8637928962708,2,versionA_stim.csv,READVersionB.csv,"Read Version B","Dissertation, read only version B",HERD,COW,Study1,F,22,36,Study,User,-,,Study/JOL,"Study Phase2",1456,,,-1,-1,,,,1
w989942_cew,d5tpw5eqwv,Nick_Dissertation_EX1,1,227,2020-05-01T12:44:48-07:00,1.9284958839417,2,versionA_stim.csv,READVersionB.csv,"Read Version B","Dissertation, read only version B",KING,VASE,Study1,U,85,59,Study,User,-,,Study/JOL,"Study Phase2",1562,,,-1,-1,,,,1
w989942_cew,d5tpw5eqwv,Nick_Dissertation_EX1,1,228,2020-05-01T12:44:50-07:00,1.7655310630798,2,versionA_stim.csv,READVersionB.csv,"Read Version B","Dissertation, read only version B",CREDIT,CARD,Study1,F,23,33,Study,User,-,,Study/JOL,"Study Phase2",1359,,,-1,-1,,,,1
w989942_cew,d5tpw5eqwv,Nick_Dissertation_EX1,1,229,2020-05-01T12:44:53-07:00,2.6278491020203,2,versionA_stim.csv,READVersionB.csv,"Read Version B","Dissertation, read only version B",POP,SODA,Study1,S,56,74,Study,User,-,,Study/JOL,"Study Phase2",2135,,,-1,-1,,,,1
w989942_cew,d5tpw5eqwv,Nick_Dissertation_EX1,1,230,2020-05-01T12:44:55-07:00,2.1748628616333,2,versionA_stim.csv,READVersionB.csv,"Read Version B","Dissertation, read only version B",WINE,CHEESE,Study1,S,57,15,Study,User,-,,Study/JOL,"Study Phase2",1793,,,-1,-1,,,,1
w989942_cew,d5tpw5eqwv,Nick_Dissertation_EX1,1,231,2020-05-01T12:44:57-07:00,1.7647750377655,2,versionA_stim.csv,READVersionB.csv,"Read Version B","Dissertation, read only version B",TAKE,SEIZE,Study1,B,29,54,Study,User,-,,Study/JOL,"Study Phase2",1329,,,-1,-1,,,,1
w989942_cew,d5tpw5eqwv,Nick_Dissertation_EX1,1,232,2020-05-01T12:44:59-07:00,2.1860570907593,2,versionA_stim.csv,READVersionB.csv,"Read Version B","Dissertation, read only version B",MEANING,DEFINITION,Study1,S,62,60,Study,User,-,,Study/JOL,"Study Phase2",1764,,,-1,-1,,,,1
w989942_cew,d5tpw5eqwv,Nick_Dissertation_EX1,1,233,2020-05-01T12:45:00-07:00,1.5725839138031,2,versionA_stim.csv,READVersionB.csv,"Read Version B","Dissertation, read only version B",HAPPY,CAR,Study1,U,77,7,Study,User,-,,Study/JOL,"Study Phase2",1081,,,-1,-1,,,,1
w989942_cew,d5tpw5eqwv,Nick_Dissertation_EX1,1,234,2020-05-01T12:45:03-07:00,2.2464830875397,2,versionA_stim.csv,READVersionB.csv,"Read Version B","Dissertation, read only version B",STRONG,ACCIDENT,Study1,U,80,12,Study,User,-,,Study/JOL,"Study Phase2",1775,,,-1,-1,,,,1
w989942_cew,d5tpw5eqwv,Nick_Dissertation_EX1,1,235,2020-05-01T12:45:04-07:00,1.5923910140991,2,versionA_stim.csv,READVersionB.csv,"Read Version B","Dissertation, read only version B",KIDNEY,LIVER,Study1,S,53,85,Study,User,-,,Study/JOL,"Study Phase2",1096,,,-1,-1,,,,1
w989942_cew,d5tpw5eqwv,Nick_Dissertation_EX1,1,236,2020-05-01T12:45:06-07:00,1.8841969966888,2,versionA_stim.csv,READVersionB.csv,"Read Version B","Dissertation, read only version B",SOON,BELT,Study1,U,70,34,Study,User,-,,Study/JOL,"Study Phase2",1478,,,-1,-1,,,,1
w989942_cew,d5tpw5eqwv,Nick_Dissertation_EX1,1,237,2020-05-01T12:45:08-07:00,1.6701629161835,2,versionA_stim.csv,READVersionB.csv,"Read Version B","Dissertation, read only version B",HOT,CHILI,Study1,B,37,26,Study,User,-,,Study/JOL,"Study Phase2",1263,,,-1,-1,,,,1
w989942_cew,d5tpw5eqwv,Nick_Dissertation_EX1,1,238,2020-05-01T12:45:10-07:00,2.0662820339203,2,versionA_stim.csv,READVersionB.csv,"Read Version B","Dissertation, read only version B",REVOLUTION,WAR,Study1,F,20,79,Study,User,-,,Study/JOL,"Study Phase2",1410,,,-1,-1,,,,1
w989942_cew,d5tpw5eqwv,Nick_Dissertation_EX1,1,239,2020-05-01T12:45:12-07:00,1.7106950283051,2,versionA_stim.csv,READVersionB.csv,"Read Version B","Dissertation, read only version B",PARK,HUNGRY,Study1,U,68,65,Study,User,-,,Study/JOL,"Study Phase2",1222,,,-1,-1,,,,1
w989942_cew,d5tpw5eqwv,Nick_Dissertation_EX1,1,240,2020-05-01T12:45:16-07:00,4.4390869140625,2,versionA_stim.csv,READVersionB.csv,"Read Version B","Dissertation, read only version B",ALLOW,TUCK,Study1,U,78,21,Study,User,-,,Study/JOL,"Study Phase2",1499,,,-1,-1,,,,1
w989942_cew,d5tpw5eqwv,Nick_Dissertation_EX1,1,241,2020-05-01T12:45:19-07:00,2.817449092865,2,versionA_stim.csv,READVersionB.csv,"Read Version B","Dissertation, read only version B",WORK,CHORE,Study1,B,39,32,Study,User,-,,Study/JOL,"Study Phase2",1309,,,-1,-1,,,,1
w989942_cew,d5tpw5eqwv,Nick_Dissertation_EX1,1,242,2020-05-01T12:45:20-07:00,1.122132062912,2,versionA_stim.csv,READVersionB.csv,"Read Version B","Dissertation, read only version B",PAST,FUTURE,Study1,S,61,75,Study,User,-,,Study/JOL,"Study Phase2",836,,,-1,-1,,,,1
w989942_cew,d5tpw5eqwv,Nick_Dissertation_EX1,1,243,2020-05-01T12:45:21-07:00,1.2873299121857,2,versionA_stim.csv,READVersionB.csv,"Read Version B","Dissertation, read only version B",DARK,CAVE,Study1,B,28,19,Study,User,-,,Study/JOL,"Study Phase2",965,,,-1,-1,,,,1
w989942_cew,d5tpw5eqwv,Nick_Dissertation_EX1,1,244,2020-05-01T12:45:24-07:00,2.731260061264,2,versionA_stim.csv,READVersionB.csv,"Read Version B","Dissertation, read only version B",SUGAR,RIDDLE,Study1,U,81,23,Study,User,-,,Study/JOL,"Study Phase2",1120,,,-1,-1,,,,1
w989942_cew,d5tpw5eqwv,Nick_Dissertation_EX1,1,245,2020-05-01T12:45:25-07:00,1.4333999156952,2,versionA_stim.csv,READVersionB.csv,"Read Version B","Dissertation, read only version B",NUMBER,AMOUNT,Study1,S,47,10,Study,User,-,,Study/JOL,"Study Phase2",1002,,,-1,-1,,,,1
w989942_cew,d5tpw5eqwv,Nick_Dissertation_EX1,1,246,2020-05-01T12:45:27-07:00,1.4279119968414,2,versionA_stim.csv,READVersionB.csv,"Read Version B","Dissertation, read only version B",LETTUCE,SALAD,Study1,S,59,14,Study,User,-,,Study/JOL,"Study Phase2",1037,,,-1,-1,,,,1
w989942_cew,d5tpw5eqwv,Nick_Dissertation_EX1,1,247,2020-05-01T12:45:28-07:00,1.3975429534912,2,versionA_stim.csv,READVersionB.csv,"Read Version B","Dissertation, read only version B",HORNET,STING,Study1,F,11,16,Study,User,-,,Study/JOL,"Study Phase2",1008,,,-1,-1,,,,1
w989942_cew,d5tpw5eqwv,Nick_Dissertation_EX1,1,248,2020-05-01T12:45:30-07:00,1.3996970653534,2,versionA_stim.csv,READVersionB.csv,"Read Version B","Dissertation, read only version B",DUMP,WASTE,Study1,S,49,86,Study,User,-,,Study/JOL,"Study Phase2",1003,,,-1,-1,,,,1
w989942_cew,d5tpw5eqwv,Nick_Dissertation_EX1,1,249,2020-05-01T12:45:31-07:00,1.3757209777832,2,versionA_stim.csv,READVersionB.csv,"Read Version B","Dissertation, read only version B",VALLEY,ADD,Study1,U,82,25,Study,User,-,,Study/JOL,"Study Phase2",999,,,-1,-1,,,,1
w989942_cew,d5tpw5eqwv,Nick_Dissertation_EX1,1,250,2020-05-01T12:45:32-07:00,1.0741229057312,2,versionA_stim.csv,READVersionB.csv,"Read Version B","Dissertation, read only version B",BEGIN,END,Study1,S,54,42,Study,User,-,,Study/JOL,"Study Phase2",754,,,-1,-1,,,,1
w989942_cew,d5tpw5eqwv,Nick_Dissertation_EX1,1,251,2020-05-01T12:45:34-07:00,1.6372871398926,2,versionA_stim.csv,READVersionB.csv,"Read Version B","Dissertation, read only version B",HIDE,SICK,Study1,U,84,51,Study,User,-,,Study/JOL,"Study Phase2",1243,,,-1,-1,,,,1
w989942_cew,d5tpw5eqwv,Nick_Dissertation_EX1,1,252,2020-05-01T12:45:35-07:00,1.2122168540955,2,versionA_stim.csv,READVersionB.csv,"Read Version B","Dissertation, read only version B",BALL,RACKET,Study1,B,38,27,Study,User,-,,Study/JOL,"Study Phase2",873,,,-1,-1,,,,1
w989942_cew,d5tpw5eqwv,Nick_Dissertation_EX1,1,253,2020-05-01T12:45:36-07:00,1.2579991817474,2,versionA_stim.csv,READVersionB.csv,"Read Version B","Dissertation, read only version B",BUG,WASP,Study1,B,32,77,Study,User,-,,Study/JOL,"Study Phase2",897,,,-1,-1,,,,1
w989942_cew,d5tpw5eqwv,Nick_Dissertation_EX1,1,254,2020-05-01T12:45:38-07:00,1.7260458469391,2,versionA_stim.csv,READVersionB.csv,"Read Version B","Dissertation, read only version B",MACHINE,POSITION,Study1,U,76,45,Study,User,-,,Study/JOL,"Study Phase2",1325,,,-1,-1,,,,1
w989942_cew,d5tpw5eqwv,Nick_Dissertation_EX1,1,255,2020-05-01T12:45:40-07:00,1.9796659946442,2,versionA_stim.csv,READVersionB.csv,"Read Version B","Dissertation, read only version B",SLEEP,DROWSY,Study1,B,41,41,Study,User,-,,Study/JOL,"Study Phase2",1559,,,-1,-1,,,,1
w989942_cew,d5tpw5eqwv,Nick_Dissertation_EX1,1,256,2020-05-01T12:45:42-07:00,1.6312711238861,2,versionA_stim.csv,READVersionB.csv,"Read Version B","Dissertation, read only version B",GEOLOGY,ROCK,Study1,F,19,53,Study,User,-,,Study/JOL,"Study Phase2",1207,,,-1,-1,,,,1
w989942_cew,d5tpw5eqwv,Nick_Dissertation_EX1,1,257,2020-05-01T12:45:43-07:00,1.8035609722137,2,versionA_stim.csv,READVersionB.csv,"Read Version B","Dissertation, read only version B",HYGIENE,CLEAN,Study1,F,17,37,Study,User,-,,Study/JOL,"Study Phase2",1396,,,-1,-1,,,,1
w989942_cew,d5tpw5eqwv,Nick_Dissertation_EX1,1,258,2020-05-01T12:45:46-07:00,2.669811964035,2,versionA_stim.csv,READVersionB.csv,"Read Version B","Dissertation, read only version B",HUNGER,FAMINE,Study1,B,40,72,Study,User,-,,Study/JOL,"Study Phase2",1633,,,-1,-1,,,,1
w989942_cew,d5tpw5eqwv,Nick_Dissertation_EX1,1,259,2020-05-01T12:45:51-07:00,5.1825909614563,2,versionA_stim.csv,READVersionB.csv,"Read Version B","Dissertation, read only version B",HEIGHT,GROWTH,Study1,B,30,55,Study,User,-,,Study/JOL,"Study Phase2",1944,,,-1,-1,,,,1
w989942_cew,d5tpw5eqwv,Nick_Dissertation_EX1,1,260,2020-05-01T12:45:53-07:00,1.9469549655914,2,versionA_stim.csv,READVersionB.csv,"Read Version B","Dissertation, read only version B",CLOTHES,ATTIRE,Study1,B,43,18,Study,User,-,,Study/JOL,"Study Phase2",1162,,,-1,-1,,,,1
w989942_cew,d5tpw5eqwv,Nick_Dissertation_EX1,1,261,2020-05-01T12:45:55-07:00,1.7073171138763,2,versionA_stim.csv,READVersionB.csv,"Read Version B","Dissertation, read only version B",SHERRIF,POLICE,BUFFER2,Buffer,87,89,Study,User,-,,Study/JOL,BUFFER4,1283,,,-1,-1,,,,1
w989942_cew,d5tpw5eqwv,Nick_Dissertation_EX1,1,262,2020-05-01T12:45:59-07:00,4.2463059425354,2,versionA_stim.csv,READVersionB.csv,"Read Version B","Dissertation, read only version B",MOON,SPACE,BUFFER2,Buffer,89,87,Study,User,-,,Study/JOL,BUFFER4,1762,,,-1,-1,,,,1
w989942_cew,d5tpw5eqwv,Nick_Dissertation_EX1,1,263,2020-05-01T12:46:01-07:00,1.8499519824982,2,versionA_stim.csv,READVersionB.csv,"Read Version B","Dissertation, read only version B",THING,STUFF,BUFFER2,Buffer,90,91,Study,User,-,,Study/JOL,BUFFER4,1406,,,-1,-1,,,,1
w989942_cew,d5tpw5eqwv,Nick_Dissertation_EX1,1,264,2020-05-01T12:46:03-07:00,1.7452399730682,2,versionA_stim.csv,READVersionB.csv,"Read Version B","Dissertation, read only version B",MALT,CHOCOLATE,BUFFER2,Buffer,88,88,Study,User,-,,Study/JOL,BUFFER4,1253,,,-1,-1,,,,1
w989942_cew,d5tpw5eqwv,Nick_Dissertation_EX1,1,265,2020-05-01T12:46:05-07:00,2.8256089687347,2,versionA_stim.csv,READVersionB.csv,"Read Version B","Dissertation, read only version B",GEESE,GOOSE,BUFFER2,Buffer,86,90,Study,User,-,,Study/JOL,BUFFER4,1771,,,-1,-1,,,,1
w989942_cew,d5tpw5eqwv,Nick_Dissertation_EX1,1,266,2020-05-01T12:46:08-07:00,2.6407041549683,2,versionA_stim.csv,READVersionB.csv,"Read Version B","Dissertation, read only version B",,,,,,0,Instruct,User,-,"You have completed this section. Please press Enter.",Filler_Instruction,Instruct5,1931,,,-1,-1,,,,1
w989942_cew,d5tpw5eqwv,Nick_Dissertation_EX1,1,267,2020-05-01T12:48:10-07:00,121.66896295547,2,versionA_stim.csv,READVersionB.csv,"Read Version B","Dissertation, read only version B",,,,,,0,FreeRecall,120,120,"Please list the 50 US states in reverse alphabetical order (z - a). The task will automatically advance to the next screen after two minutes.",,Filler2,120001,"ALABAMA ALASKA ARIZONA ARKANSAS CALIFORNIA COLORADO CONNECTICUT DELEWARE FLORIDA GEORGIA HAWAII IDAHO ILLINOIS INDIANA IOWA KANSAS KENTUCKY LO",0,8341,119812,0,0,,1
w989942_cew,d5tpw5eqwv,Nick_Dissertation_EX1,1,268,2020-05-01T12:48:35-07:00,24.866703987122,2,versionA_stim.csv,READVersionB.csv,"Read Version B","Dissertation, read only version B",,,,,,0,Instruct,-,10,"You will now be presented with the first word from each of the previously studied item pairs. Please type the missing word. If you do not know the word, you may guess or press Enter to skip forward to the next pair.",,Instruct6,24390,,,-1,-1,,,,1
w989942_cew,d5tpw5eqwv,Nick_Dissertation_EX1,1,269,2020-05-01T12:48:41-07:00,5.9114339351654,2,versionA_stim.csv,READVersionB.csv,"Read Version B","Dissertation, read only version B",DUMP,WASTE,Study1,S,49,86,Test,User,-,,Recall,Recall2,5512,TRASH,40,2850,4170,0,0,,1
w989942_cew,d5tpw5eqwv,Nick_Dissertation_EX1,1,270,2020-05-01T12:48:56-07:00,15.171384096146,2,versionA_stim.csv,READVersionB.csv,"Read Version B","Dissertation, read only version B",STRONG,ACCIDENT,Study1,U,80,12,Test,User,-,,Recall,Recall2,13497,WOMAN,30.769230769231,6507,9132,0,0,,1
w989942_cew,d5tpw5eqwv,Nick_Dissertation_EX1,1,271,2020-05-01T12:49:03-07:00,7.2744390964508,2,versionA_stim.csv,READVersionB.csv,"Read Version B","Dissertation, read only version B",HYGIENE,CLEAN,Study1,F,17,37,Test,User,-,,Recall,Recall2,4606,CLEAN,100,1386,3197,1,1,,1
w989942_cew,d5tpw5eqwv,Nick_Dissertation_EX1,1,272,2020-05-01T12:49:08-07:00,4.7596199512482,2,versionA_stim.csv,READVersionB.csv,"Read Version B","Dissertation, read only version B",HOT,CHILI,Study1,B,37,26,Test,User,-,,Recall,Recall2,4346,CHILI,100,1435,3033,1,1,,1
w989942_cew,d5tpw5eqwv,Nick_Dissertation_EX1,1,273,2020-05-01T12:49:17-07:00,8.9059178829193,2,versionA_stim.csv,READVersionB.csv,"Read Version B","Dissertation, read only version B",NUMBER,AMOUNT,Study1,S,47,10,Test,User,-,,Recall,Recall2,8311,PHONE,36.363636363636,5378,6554,0,0,,1
w989942_cew,d5tpw5eqwv,Nick_Dissertation_EX1,1,274,2020-05-01T12:49:22-07:00,5.1651511192322,2,versionA_stim.csv,READVersionB.csv,"Read Version B","Dissertation, read only version B",BEGIN,END,Study1,S,54,42,Test,User,-,,Recall,Recall2,4783,START,0,1826,3129,0,0,,1
w989942_cew,d5tpw5eqwv,Nick_Dissertation_EX1,1,275,2020-05-01T12:49:30-07:00,7.8374710083008,2,versionA_stim.csv,READVersionB.csv,"Read Version B","Dissertation, read only version B",KING,VASE,Study1,U,85,59,Test,User,-,,Recall,Recall2,7441,QUEEN,22.222222222222,3146,6024,0,0,,1
w989942_cew,d5tpw5eqwv,Nick_Dissertation_EX1,1,276,2020-05-01T12:49:33-07:00,3.6499969959259,2,versionA_stim.csv,READVersionB.csv,"Read Version B","Dissertation, read only version B",HONEY,BEE,Study1,S,63,71,Test,User,-,,Recall,Recall2,3272,BEE,100,1085,1600,1,1,,1
w989942_cew,d5tpw5eqwv,Nick_Dissertation_EX1,1,277,2020-05-01T12:49:44-07:00,10.985842943192,2,versionA_stim.csv,READVersionB.csv,"Read Version B","Dissertation, read only version B",HIDE,SICK,Study1,U,84,51,Test,User,-,,Recall,Recall2,9456,SHRIEK,60,4682,7989,0,0,,1
w989942_cew,d5tpw5eqwv,Nick_Dissertation_EX1,1,278,2020-05-01T12:49:48-07:00,3.2890920639038,2,versionA_stim.csv,READVersionB.csv,"Read Version B","Dissertation, read only version B",MACHINE,POSITION,Study1,U,76,45,Test,User,-,,Recall,Recall2,2880,,0,-1,-1,0,0,,1
w989942_cew,d5tpw5eqwv,Nick_Dissertation_EX1,1,279,2020-05-01T12:49:51-07:00,3.7696650028229,2,versionA_stim.csv,READVersionB.csv,"Read Version B","Dissertation, read only version B",HAPPY,CAR,Study1,U,77,7,Test,User,-,,Recall,Recall2,2404,,0,-1,-1,0,0,,1
w989942_cew,d5tpw5eqwv,Nick_Dissertation_EX1,1,280,2020-05-01T12:49:57-07:00,5.5550830364227,2,versionA_stim.csv,READVersionB.csv,"Read Version B","Dissertation, read only version B",CASH,WOULD,Study1,U,83,48,Test,User,-,,Recall,Recall2,4158,MONEY,20,1628,2798,0,0,,1
w989942_cew,d5tpw5eqwv,Nick_Dissertation_EX1,1,281,2020-05-01T12:50:00-07:00,3.089980840683,2,versionA_stim.csv,READVersionB.csv,"Read Version B","Dissertation, read only version B",SOON,BELT,Study1,U,70,34,Test,User,-,,Recall,Recall2,2715,,0,-1,-1,0,0,,1
w989942_cew,d5tpw5eqwv,Nick_Dissertation_EX1,1,282,2020-05-01T12:50:04-07:00,3.9814670085907,2,versionA_stim.csv,READVersionB.csv,"Read Version B","Dissertation, read only version B",REVOLUTION,WAR,Study1,F,20,79,Test,User,-,,Recall,Recall2,3476,WAR,100,1544,2024,1,1,,1
w989942_cew,d5tpw5eqwv,Nick_Dissertation_EX1,1,283,2020-05-01T12:50:08-07:00,4.3801651000977,2,versionA_stim.csv,READVersionB.csv,"Read Version B","Dissertation, read only version B",KIDNEY,LIVER,Study1,S,53,85,Test,User,-,,Recall,Recall2,4003,LIVER,100,1482,2509,1,1,,1
w989942_cew,d5tpw5eqwv,Nick_Dissertation_EX1,1,284,2020-05-01T12:50:14-07:00,5.5213830471039,2,versionA_stim.csv,READVersionB.csv,"Read Version B","Dissertation, read only version B",WAGE,MONEY,Study1,F,8,82,Test,User,-,,Recall,Recall2,5053,SALARY,18.181818181818,2056,3837,0,0,,1
w989942_cew,d5tpw5eqwv,Nick_Dissertation_EX1,1,285,2020-05-01T12:50:24-07:00,10.560770988464,2,versionA_stim.csv,READVersionB.csv,"Read Version B","Dissertation, read only version B",LAW,ATTORNEY,Study1,B,34,28,Test,User,-,,Recall,Recall2,10116,ATTORNEY,100,1584,7810,1,1,,1
w989942_cew,d5tpw5eqwv,Nick_Dissertation_EX1,1,286,2020-05-01T12:50:27-07:00,2.5225298404694,2,versionA_stim.csv,READVersionB.csv,"Read Version B","Dissertation, read only version B",CREDIT,CARD,Study1,F,23,33,Test,User,-,,Recall,Recall2,2122,,0,-1,-1,0,0,,1
w989942_cew,d5tpw5eqwv,Nick_Dissertation_EX1,1,287,2020-05-01T12:50:33-07:00,5.9264190196991,2,versionA_stim.csv,READVersionB.csv,"Read Version B","Dissertation, read only version B",PAST,FUTURE,Study1,S,61,75,Test,User,-,,Recall,Recall2,5540,FUTURE,100,2518,3599,1,1,,1
w989942_cew,d5tpw5eqwv,Nick_Dissertation_EX1,1,288,2020-05-01T12:50:39-07:00,6.2206959724426,2,versionA_stim.csv,READVersionB.csv,"Read Version B","Dissertation, read only version B",DEBATE,SIGHT,Study1,U,73,76,Test,User,-,,Recall,Recall2,5529,ARGUE,20,2842,4201,0,0,,1
w989942_cew,d5tpw5eqwv,Nick_Dissertation_EX1,1,289,2020-05-01T12:50:41-07:00,2.1942460536957,2,versionA_stim.csv,READVersionB.csv,"Read Version B","Dissertation, read only version B",PARK,HUNGRY,Study1,U,68,65,Test,User,-,,Recall,Recall2,1632,,0,-1,-1,0,0,,1
w989942_cew,d5tpw5eqwv,Nick_Dissertation_EX1,1,290,2020-05-01T12:50:44-07:00,2.6149299144745,2,versionA_stim.csv,READVersionB.csv,"Read Version B","Dissertation, read only version B",ART,LION,Study1,U,79,13,Test,User,-,,Recall,Recall2,1921,,0,-1,-1,0,0,,1
w989942_cew,d5tpw5eqwv,Nick_Dissertation_EX1,1,291,2020-05-01T12:50:50-07:00,5.7395210266113,2,versionA_stim.csv,READVersionB.csv,"Read Version B","Dissertation, read only version B",HERD,COW,Study1,F,22,36,Test,User,-,,Recall,Recall2,3962,COW,100,1624,2305,1,1,,1
w989942_cew,d5tpw5eqwv,Nick_Dissertation_EX1,1,292,2020-05-01T12:50:53-07:00,2.9129831790924,2,versionA_stim.csv,READVersionB.csv,"Read Version B","Dissertation, read only version B",DISCUSSION,TALK,Study1,F,21,47,Test,User,-,,Recall,Recall2,2496,,0,-1,-1,0,0,,1
w989942_cew,d5tpw5eqwv,Nick_Dissertation_EX1,1,293,2020-05-01T12:50:57-07:00,4.3824739456177,2,versionA_stim.csv,READVersionB.csv,"Read Version B","Dissertation, read only version B",POP,SODA,Study1,S,56,74,Test,User,-,,Recall,Recall2,3941,SODA,100,1425,2210,1,1,,1
w989942_cew,d5tpw5eqwv,Nick_Dissertation_EX1,1,294,2020-05-01T12:51:03-07:00,6.4051430225372,2,versionA_stim.csv,READVersionB.csv,"Read Version B","Dissertation, read only version B",HUNGER,FAMINE,Study1,B,40,72,Test,User,-,,Recall,Recall2,4883,FAMINE,100,1494,3223,1,1,,1
w989942_cew,d5tpw5eqwv,Nick_Dissertation_EX1,1,295,2020-05-01T12:51:10-07:00,6.4825830459595,2,versionA_stim.csv,READVersionB.csv,"Read Version B","Dissertation, read only version B",MATH,DIVISION,Study1,B,33,17,Test,User,-,,Recall,Recall2,5898,,0,-1,-1,0,0,,1
w989942_cew,d5tpw5eqwv,Nick_Dissertation_EX1,1,296,2020-05-01T12:51:18-07:00,7.6974749565125,2,versionA_stim.csv,READVersionB.csv,"Read Version B","Dissertation, read only version B",BRIDGE,WATER,Study1,F,18,9,Test,User,-,,Recall,Recall2,6022,WATER,100,1562,4504,1,1,,1
w989942_cew,d5tpw5eqwv,Nick_Dissertation_EX1,1,297,2020-05-01T12:51:21-07:00,3.0418620109558,2,versionA_stim.csv,READVersionB.csv,"Read Version B","Dissertation, read only version B",ROOT,PLANT,Study1,F,13,8,Test,User,-,,Recall,Recall2,2065,,0,-1,-1,0,0,,1
w989942_cew,d5tpw5eqwv,Nick_Dissertation_EX1,1,298,2020-05-01T12:51:29-07:00,8.0099639892578,2,versionA_stim.csv,READVersionB.csv,"Read Version B","Dissertation, read only version B",CIRCLE,ROUND,Study1,S,65,40,Test,User,-,,Recall,Recall2,4233,ROUND,100,1501,3001,1,1,,1
w989942_cew,d5tpw5eqwv,Nick_Dissertation_EX1,1,299,2020-05-01T12:51:39-07:00,10.756799936295,2,versionA_stim.csv,READVersionB.csv,"Read Version B","Dissertation, read only version B",ARCHITECTURE,DESIGN,Study1,S,51,69,Test,User,-,,Recall,Recall2,9911,BUILD,18.181818181818,6017,8099,0,0,,1
w989942_cew,d5tpw5eqwv,Nick_Dissertation_EX1,1,300,2020-05-01T12:51:44-07:00,4.3781580924988,2,versionA_stim.csv,READVersionB.csv,"Read Version B","Dissertation, read only version B",SWAN,BIRD,Study1,F,14,39,Test,User,-,,Recall,Recall2,3963,BIRD,100,1298,2198,1,1,,1
w989942_cew,d5tpw5eqwv,Nick_Dissertation_EX1,1,301,2020-05-01T12:51:49-07:00,4.943972826004,2,versionA_stim.csv,READVersionB.csv,"Read Version B","Dissertation, read only version B",SLEEP,DROWSY,Study1,B,41,41,Test,User,-,,Recall,Recall2,4443,NAP,0,1747,2718,0,0,,1
w989942_cew,d5tpw5eqwv,Nick_Dissertation_EX1,1,302,2020-05-01T12:51:57-07:00,7.879693031311,2,versionA_stim.csv,READVersionB.csv,"Read Version B","Dissertation, read only version B",ORCHID,FLOWER,Study1,F,24,67,Test,User,-,,Recall,Recall2,7001,FLOWER,100,3098,4853,1,1,,1
w989942_cew,d5tpw5eqwv,Nick_Dissertation_EX1,1,303,2020-05-01T12:51:59-07:00,2.0308840274811,2,versionA_stim.csv,READVersionB.csv,"Read Version B","Dissertation, read only version B",GREAT,FANTASTIC,Study1,B,35,24,Test,User,-,,Recall,Recall2,1635,,0,-1,-1,0,0,,1
w989942_cew,d5tpw5eqwv,Nick_Dissertation_EX1,1,304,2020-05-01T12:52:00-07:00,1.6447041034698,2,versionA_stim.csv,READVersionB.csv,"Read Version B","Dissertation, read only version B",LIFT,WOMAN,Study1,U,69,29,Test,User,-,,Recall,Recall2,1229,,0,-1,-1,0,0,,1
w989942_cew,d5tpw5eqwv,Nick_Dissertation_EX1,1,305,2020-05-01T12:52:10-07:00,9.853423833847,2,versionA_stim.csv,READVersionB.csv,"Read Version B","Dissertation, read only version B",DUE,ASSIGNMENT,Study1,S,46,83,Test,User,-,,Recall,Recall2,8194,ASSIGNMENT,100,2453,5617,1,1,,1
w989942_cew,d5tpw5eqwv,Nick_Dissertation_EX1,1,306,2020-05-01T12:52:18-07:00,7.9715631008148,2,versionA_stim.csv,READVersionB.csv,"Read Version B","Dissertation, read only version B",TRIAL,JURY,Study1,S,50,56,Test,User,-,,Recall,Recall2,6102,LAW,0,3604,4348,0,0,,1
w989942_cew,d5tpw5eqwv,Nick_Dissertation_EX1,1,307,2020-05-01T12:52:29-07:00,10.545737028122,2,versionA_stim.csv,READVersionB.csv,"Read Version B","Dissertation, read only version B",DELINQUENT,BAD,Study1,F,6,63,Test,User,-,,Recall,Recall2,7832,CHILD,25,4631,6160,0,0,,1
w989942_cew,d5tpw5eqwv,Nick_Dissertation_EX1,1,308,2020-05-01T12:52:36-07:00,6.8974149227142,2,versionA_stim.csv,READVersionB.csv,"Read Version B","Dissertation, read only version B",TUNA,FISH,Study1,F,25,66,Test,User,-,,Recall,Recall2,4594,FISH,100,1697,3001,1,1,,1
w989942_cew,d5tpw5eqwv,Nick_Dissertation_EX1,1,309,2020-05-01T12:52:41-07:00,5.1087970733643,2,versionA_stim.csv,READVersionB.csv,"Read Version B","Dissertation, read only version B",BATHROOM,TOILET,Study1,S,58,31,Test,User,-,,Recall,Recall2,4575,TOILET,100,1563,3171,1,1,,1
w989942_cew,d5tpw5eqwv,Nick_Dissertation_EX1,1,310,2020-05-01T12:52:47-07:00,6.3383388519287,2,versionA_stim.csv,READVersionB.csv,"Read Version B","Dissertation, read only version B",TAKE,SEIZE,Study1,B,29,54,Test,User,-,,Recall,Recall2,5264,GIVE,44.444444444444,2850,3843,0,0,,1
w989942_cew,d5tpw5eqwv,Nick_Dissertation_EX1,1,311,2020-05-01T12:52:49-07:00,2.031800031662,2,versionA_stim.csv,READVersionB.csv,"Read Version B","Dissertation, read only version B",WAY,OUT,Study1,F,16,30,Test,User,-,,Recall,Recall2,1635,,0,-1,-1,0,0,,1
w989942_cew,d5tpw5eqwv,Nick_Dissertation_EX1,1,312,2020-05-01T12:52:56-07:00,6.6402909755707,2,versionA_stim.csv,READVersionB.csv,"Read Version B","Dissertation, read only version B",BALL,RACKET,Study1,B,38,27,Test,User,-,,Recall,Recall2,6268,BASEBALL,28.571428571429,1299,5019,0,0,,1
w989942_cew,d5tpw5eqwv,Nick_Dissertation_EX1,1,313,2020-05-01T12:52:58-07:00,2.2128591537476,2,versionA_stim.csv,READVersionB.csv,"Read Version B","Dissertation, read only version B",PUSHER,CLUTTER,Study1,U,66,81,Test,User,-,,Recall,Recall2,1524,,0,-1,-1,0,0,,1
w989942_cew,d5tpw5eqwv,Nick_Dissertation_EX1,1,314,2020-05-01T12:53:05-07:00,7.0482978820801,2,versionA_stim.csv,READVersionB.csv,"Read Version B","Dissertation, read only version B",DIETARY,SACKING,Study1,U,67,58,Test,User,-,,Recall,Recall2,6363,PULL,0,3811,4968,0,0,,1
w989942_cew,d5tpw5eqwv,Nick_Dissertation_EX1,1,315,2020-05-01T12:53:09-07:00,4.3221189975739,2,versionA_stim.csv,READVersionB.csv,"Read Version B","Dissertation, read only version B",PAW,DOG,Study1,F,15,20,Test,User,-,,Recall,Recall2,3796,DOG,100,1353,2263,1,1,,1
w989942_cew,d5tpw5eqwv,Nick_Dissertation_EX1,1,316,2020-05-01T12:53:14-07:00,4.737457036972,2,versionA_stim.csv,READVersionB.csv,"Read Version B","Dissertation, read only version B",SUGAR,RIDDLE,Study1,U,81,23,Test,User,-,,Recall,Recall2,2187,,0,-1,-1,0,0,,1
w989942_cew,d5tpw5eqwv,Nick_Dissertation_EX1,1,317,2020-05-01T12:53:17-07:00,3.4527950286865,2,versionA_stim.csv,READVersionB.csv,"Read Version B","Dissertation, read only version B",BLOW,WIND,Study1,S,55,68,Test,User,-,,Recall,Recall2,3070,,0,-1,-1,0,0,,1
w989942_cew,d5tpw5eqwv,Nick_Dissertation_EX1,1,318,2020-05-01T12:53:20-07:00,2.31685090065,2,versionA_stim.csv,READVersionB.csv,"Read Version B","Dissertation, read only version B",LETTUCE,SALAD,Study1,S,59,14,Test,User,-,,Recall,Recall2,1754,,0,-1,-1,0,0,,1
w989942_cew,d5tpw5eqwv,Nick_Dissertation_EX1,1,319,2020-05-01T12:53:25-07:00,5.2138350009918,2,versionA_stim.csv,READVersionB.csv,"Read Version B","Dissertation, read only version B",WORK,CHORE,Study1,B,39,32,Test,User,-,,Recall,Recall2,2659,,0,-1,-1,0,0,,1
w989942_cew,d5tpw5eqwv,Nick_Dissertation_EX1,1,320,2020-05-01T12:53:27-07:00,2.1959819793701,2,versionA_stim.csv,READVersionB.csv,"Read Version B","Dissertation, read only version B",LOCATION,SITE,Study1,S,48,80,Test,User,-,,Recall,Recall2,1803,,0,-1,-1,0,0,,1
w989942_cew,d5tpw5eqwv,Nick_Dissertation_EX1,1,321,2020-05-01T12:53:33-07:00,5.472451210022,2,versionA_stim.csv,READVersionB.csv,"Read Version B","Dissertation, read only version B",HEIGHT,GROWTH,Study1,B,30,55,Test,User,-,,Recall,Recall2,5087,TALL,20,2460,3856,0,0,,1
w989942_cew,d5tpw5eqwv,Nick_Dissertation_EX1,1,322,2020-05-01T12:53:38-07:00,5.3603057861328,2,versionA_stim.csv,READVersionB.csv,"Read Version B","Dissertation, read only version B",GEOLOGY,ROCK,Study1,F,19,53,Test,User,-,,Recall,Recall2,4959,ROCKS,88.888888888889,1650,3623,0,1,,1
w989942_cew,d5tpw5eqwv,Nick_Dissertation_EX1,1,323,2020-05-01T12:53:45-07:00,6.5658280849457,2,versionA_stim.csv,READVersionB.csv,"Read Version B","Dissertation, read only version B",MEANING,DEFINITION,Study1,S,62,60,Test,User,-,,Recall,Recall2,6127,DEFINITION,100,1905,4490,1,1,,1
w989942_cew,d5tpw5eqwv,Nick_Dissertation_EX1,1,324,2020-05-01T12:53:47-07:00,2.3514070510864,2,versionA_stim.csv,READVersionB.csv,"Read Version B","Dissertation, read only version B",ALLOW,TUCK,Study1,U,78,21,Test,User,-,,Recall,Recall2,1961,,0,-1,-1,0,0,,1
w989942_cew,d5tpw5eqwv,Nick_Dissertation_EX1,1,325,2020-05-01T12:54:00-07:00,12.624228954315,2,versionA_stim.csv,READVersionB.csv,"Read Version B","Dissertation, read only version B",BITTER,COLD,Study1,F,12,44,Test,User,-,,Recall,Recall2,8673,SWEET,0,6328,7141,0,0,,1
w989942_cew,d5tpw5eqwv,Nick_Dissertation_EX1,1,326,2020-05-01T12:54:03-07:00,3.0751011371613,2,versionA_stim.csv,READVersionB.csv,"Read Version B","Dissertation, read only version B",BABY,CHILD,Study1,S,64,61,Test,User,-,,Recall,Recall2,2208,,0,-1,-1,0,0,,1
w989942_cew,d5tpw5eqwv,Nick_Dissertation_EX1,1,327,2020-05-01T12:54:09-07:00,6.4428908824921,2,versionA_stim.csv,READVersionB.csv,"Read Version B","Dissertation, read only version B",SHOE,FOOT,Study1,S,60,62,Test,User,-,,Recall,Recall2,4876,LACE,0,1980,3275,0,0,,1
w989942_cew,d5tpw5eqwv,Nick_Dissertation_EX1,1,328,2020-05-01T12:54:14-07:00,4.9035339355469,2,versionA_stim.csv,READVersionB.csv,"Read Version B","Dissertation, read only version B",DRINK,SIP,Study1,B,27,35,Test,User,-,,Recall,Recall2,2759,,0,-1,-1,0,0,,1
w989942_cew,d5tpw5eqwv,Nick_Dissertation_EX1,1,329,2020-05-01T12:54:21-07:00,7.0901200771332,2,versionA_stim.csv,READVersionB.csv,"Read Version B","Dissertation, read only version B",SMELL,STENCH,Study1,B,42,70,Test,User,-,,Recall,Recall2,6456,SOUR,20,3709,4929,0,0,,1
w989942_cew,d5tpw5eqwv,Nick_Dissertation_EX1,1,330,2020-05-01T12:54:29-07:00,8.2527439594269,2,versionA_stim.csv,READVersionB.csv,"Read Version B","Dissertation, read only version B",DIGESTION,STOMACH,Study1,F,7,52,Test,User,-,,Recall,Recall2,7389,STOMACH,100,3454,6121,1,1,,1
w989942_cew,d5tpw5eqwv,Nick_Dissertation_EX1,1,331,2020-05-01T12:54:31-07:00,2.0662920475006,2,versionA_stim.csv,READVersionB.csv,"Read Version B","Dissertation, read only version B",DEATH,BUSINESS,Study1,U,72,11,Test,User,-,,Recall,Recall2,1698,,0,-1,-1,0,0,,1
w989942_cew,d5tpw5eqwv,Nick_Dissertation_EX1,1,332,2020-05-01T12:54:33-07:00,1.5164768695831,2,versionA_stim.csv,READVersionB.csv,"Read Version B","Dissertation, read only version B",EDITOR,NEWS,Study1,F,10,64,Test,User,-,,Recall,Recall2,1110,,0,-1,-1,0,0,,1
w989942_cew,d5tpw5eqwv,Nick_Dissertation_EX1,1,333,2020-05-01T12:54:41-07:00,8.1660120487213,2,versionA_stim.csv,READVersionB.csv,"Read Version B","Dissertation, read only version B",FIRE,BLAZE,Study1,B,45,43,Test,User,-,,Recall,Recall2,7750,FLY,25,3321,6406,0,0,,1
w989942_cew,d5tpw5eqwv,Nick_Dissertation_EX1,1,334,2020-05-01T12:54:43-07:00,1.9437921047211,2,versionA_stim.csv,READVersionB.csv,"Read Version B","Dissertation, read only version B",VALLEY,ADD,Study1,U,82,25,Test,User,-,,Recall,Recall2,1539,,0,-1,-1,0,0,,1
w989942_cew,d5tpw5eqwv,Nick_Dissertation_EX1,1,335,2020-05-01T12:54:46-07:00,3.1557819843292,2,versionA_stim.csv,READVersionB.csv,"Read Version B","Dissertation, read only version B",CHISEL,HAMMER,Study1,F,9,50,Test,User,-,,Recall,Recall2,2746,,0,-1,-1,0,0,,1
w989942_cew,d5tpw5eqwv,Nick_Dissertation_EX1,1,336,2020-05-01T12:54:49-07:00,3.2613980770111,2,versionA_stim.csv,READVersionB.csv,"Read Version B","Dissertation, read only version B",FULL,ENOUGH,Study1,B,26,78,Test,User,-,,Recall,Recall2,1474,,0,-1,-1,0,0,,1
w989942_cew,d5tpw5eqwv,Nick_Dissertation_EX1,1,337,2020-05-01T12:54:52-07:00,2.8838179111481,2,versionA_stim.csv,READVersionB.csv,"Read Version B","Dissertation, read only version B",SENTENCE,WORD,Study1,B,31,49,Test,User,-,,Recall,Recall2,2121,,0,-1,-1,0,0,,1
w989942_cew,d5tpw5eqwv,Nick_Dissertation_EX1,1,338,2020-05-01T12:54:56-07:00,4.0564699172974,2,versionA_stim.csv,READVersionB.csv,"Read Version B","Dissertation, read only version B",PLANE,PILOT,Study1,B,44,46,Test,User,-,,Recall,Recall2,1545,,0,-1,-1,0,0,,1
w989942_cew,d5tpw5eqwv,Nick_Dissertation_EX1,1,339,2020-05-01T12:55:03-07:00,7.041759967804,2,versionA_stim.csv,READVersionB.csv,"Read Version B","Dissertation, read only version B",KEY,LATCH,Study1,B,36,84,Test,User,-,,Recall,Recall2,6456,HOLE,22.222222222222,3070,4591,0,0,,1
w989942_cew,d5tpw5eqwv,Nick_Dissertation_EX1,1,340,2020-05-01T12:55:09-07:00,5.2882380485535,2,versionA_stim.csv,READVersionB.csv,"Read Version B","Dissertation, read only version B",WINE,CHEESE,Study1,S,57,15,Test,User,-,,Recall,Recall2,4874,CHEESE,100,1756,3404,1,1,,1
w989942_cew,d5tpw5eqwv,Nick_Dissertation_EX1,1,341,2020-05-01T12:55:13-07:00,4.7606761455536,2,versionA_stim.csv,READVersionB.csv,"Read Version B","Dissertation, read only version B",HORNET,STING,Study1,F,11,16,Test,User,-,,Recall,Recall2,4330,WASP,22.222222222222,2277,3109,0,0,,1
w989942_cew,d5tpw5eqwv,Nick_Dissertation_EX1,1,342,2020-05-01T12:55:16-07:00,2.1693768501282,2,versionA_stim.csv,READVersionB.csv,"Read Version B","Dissertation, read only version B",FIX,HAND,Study1,U,75,22,Test,User,-,,Recall,Recall2,1168,,0,-1,-1,0,0,,1
w989942_cew,d5tpw5eqwv,Nick_Dissertation_EX1,1,343,2020-05-01T12:55:18-07:00,2.4252979755402,2,versionA_stim.csv,READVersionB.csv,"Read Version B","Dissertation, read only version B",DARK,CAVE,Study1,B,28,19,Test,User,-,,Recall,Recall2,1831,,0,-1,-1,0,0,,1
w989942_cew,d5tpw5eqwv,Nick_Dissertation_EX1,1,344,2020-05-01T12:55:27-07:00,9.3982331752777,2,versionA_stim.csv,READVersionB.csv,"Read Version B","Dissertation, read only version B",BUG,WASP,Study1,B,32,77,Test,User,-,,Recall,Recall2,8029,WASP,100,5953,6877,1,1,,1
w989942_cew,d5tpw5eqwv,Nick_Dissertation_EX1,1,345,2020-05-01T12:55:30-07:00,2.1651859283447,2,versionA_stim.csv,READVersionB.csv,"Read Version B","Dissertation, read only version B",GRILL,BAR,Study1,S,52,38,Test,User,-,,Recall,Recall2,1336,,0,-1,-1,0,0,,1
w989942_cew,d5tpw5eqwv,Nick_Dissertation_EX1,1,346,2020-05-01T12:55:32-07:00,1.964555978775,2,versionA_stim.csv,READVersionB.csv,"Read Version B","Dissertation, read only version B",CLOTHES,ATTIRE,Study1,B,43,18,Test,User,-,,Recall,Recall2,1446,,0,-1,-1,0,0,,1
w989942_cew,d5tpw5eqwv,Nick_Dissertation_EX1,1,347,2020-05-01T12:55:33-07:00,1.9563670158386,2,versionA_stim.csv,READVersionB.csv,"Read Version B","Dissertation, read only version B",DISCOVER,FLOOR,Study1,U,71,73,Test,User,-,,Recall,Recall2,1537,,0,-1,-1,0,0,,1
w989942_cew,d5tpw5eqwv,Nick_Dissertation_EX1,1,348,2020-05-01T12:55:37-07:00,3.5198700428009,2,versionA_stim.csv,READVersionB.csv,"Read Version B","Dissertation, read only version B",ARTERY,BRONZE,Study1,U,74,57,Test,User,-,,Recall,Recall2,3076,,0,-1,-1,0,0,,1
w989942_cew,d5tpw5eqwv,Nick_Dissertation_EX1,1,349,2020-05-01T12:55:39-07:00,2.2498970031738,2,versionA_stim.csv,READVersionB.csv,"Read Version B","Dissertation, read only version B",,,,,,0,Instruct,User,-,"You have completed this section. Please press Enter.",,Instruct7,1855,,,-1,-1,,,,1
w989942_cew,d5tpw5eqwv,Nick_Dissertation_EX1,1,350,2020-05-01T12:55:43-07:00,3.7106490135193,2,versionA_stim.csv,READVersionB.csv,"Read Version B","Dissertation, read only version B",,,,,,0,Instruct,User,-,"The following screen will ask you a few questions abour your experience today. You must complete these questions to receive credit.",,Instruct8,3300,,,-1,-1,,,,1
