Username,ID,ExperimentName,Session,Trial,Date,TimeDif,"Condition Number","Stimuli File","Order File","Condition Description","Condition Notes",Stimuli*Cue,Stimuli*Answer,Stimuli*Shuffle,"Stimuli*Stimuli Notes",Stimuli*Value,Procedure*Item,"Procedure*Trial Type","Procedure*Max Time","Procedure*Min Time",Procedure*Text,"Procedure*Procedure Notes",Procedure*Shuffle,Response*RT,Response*Response,Response*Accuracy,Response*RTfirst,Response*RTlast,Response*strictAcc,Response*lenientAcc,Response*focus,Response*Focus
w214961B.A.C,sozj35ejwd,Nick_Dissertation_EX1,1,1,2020-04-22T10:43:24-07:00,11.612956047058,1,versionA_stim.csv,READVersionA.csv,"Read Version A","Dissertation, read only version A",,,,,,0,Instruct,-,10,"Please study each of the following word pairs. Remember that your memory will be tested! When finished, press Enter to move to the next pair.",Initial_Instruct,Instruct1,11261,,,-1,-1,,,,1
w214961B.A.C,sozj35ejwd,Nick_Dissertation_EX1,1,2,2020-04-22T10:43:29-07:00,5.0685069561005,1,versionA_stim.csv,READVersionA.csv,"Read Version A","Dissertation, read only version A",BASEBALL,CATCHER,BUFFER1,Buffer,2,5,Study,User,-,,Study/JOL,BUFFER,4328,,,-1,-1,,,,1
w214961B.A.C,sozj35ejwd,Nick_Dissertation_EX1,1,3,2020-04-22T10:43:31-07:00,2.4373109340668,1,versionA_stim.csv,READVersionA.csv,"Read Version A","Dissertation, read only version A",PEANUT,BUTTER,BUFFER1,Buffer,3,6,Study,User,-,,Study/JOL,BUFFER,1925,,,-1,-1,,,,1
w214961B.A.C,sozj35ejwd,Nick_Dissertation_EX1,1,4,2020-04-22T10:43:33-07:00,1.3257489204407,1,versionA_stim.csv,READVersionA.csv,"Read Version A","Dissertation, read only version A",SPACE,JAM,BUFFER1,Buffer,5,3,Study,User,-,,Study/JOL,BUFFER,1011,,,-1,-1,,,,1
w214961B.A.C,sozj35ejwd,Nick_Dissertation_EX1,1,5,2020-04-22T10:43:34-07:00,0.92928218841553,1,versionA_stim.csv,READVersionA.csv,"Read Version A","Dissertation, read only version A",TREES,GREEN,BUFFER1,Buffer,1,2,Study,User,-,,Study/JOL,BUFFER,620,,,-1,-1,,,,1
w214961B.A.C,sozj35ejwd,Nick_Dissertation_EX1,1,6,2020-04-22T10:43:35-07:00,1.6680870056152,1,versionA_stim.csv,READVersionA.csv,"Read Version A","Dissertation, read only version A",SCARE,HIDE,BUFFER1,Buffer,4,4,Study,User,-,,Study/JOL,BUFFER,1364,,,-1,-1,,,,1
w214961B.A.C,sozj35ejwd,Nick_Dissertation_EX1,1,7,2020-04-22T10:43:37-07:00,1.6279788017273,1,versionA_stim.csv,READVersionA.csv,"Read Version A","Dissertation, read only version A",ORCHID,FLOWER,Study1,F,24,83,Study,User,-,,Study/JOL,"Study Phase",1344,,,-1,-1,,,,1
w214961B.A.C,sozj35ejwd,Nick_Dissertation_EX1,1,8,2020-04-22T10:43:39-07:00,2.2112591266632,1,versionA_stim.csv,READVersionA.csv,"Read Version A","Dissertation, read only version A",DARK,CAVE,Study1,B,28,56,Study,User,-,,Study/JOL,"Study Phase",1802,,,-1,-1,,,,1
w214961B.A.C,sozj35ejwd,Nick_Dissertation_EX1,1,9,2020-04-22T10:43:41-07:00,1.6507070064545,1,versionA_stim.csv,READVersionA.csv,"Read Version A","Dissertation, read only version A",DEBATE,SIGHT,Study1,U,73,66,Study,User,-,,Study/JOL,"Study Phase",1339,,,-1,-1,,,,1
w214961B.A.C,sozj35ejwd,Nick_Dissertation_EX1,1,10,2020-04-22T10:43:42-07:00,1.47523188591,1,versionA_stim.csv,READVersionA.csv,"Read Version A","Dissertation, read only version A",LAW,ATTORNEY,Study1,B,34,39,Study,User,-,,Study/JOL,"Study Phase",1177,,,-1,-1,,,,1
w214961B.A.C,sozj35ejwd,Nick_Dissertation_EX1,1,11,2020-04-22T10:43:44-07:00,1.6725270748138,1,versionA_stim.csv,READVersionA.csv,"Read Version A","Dissertation, read only version A",FIX,HAND,Study1,U,75,64,Study,User,-,,Study/JOL,"Study Phase",1392,,,-1,-1,,,,1
w214961B.A.C,sozj35ejwd,Nick_Dissertation_EX1,1,12,2020-04-22T10:43:45-07:00,1.3395020961761,1,versionA_stim.csv,READVersionA.csv,"Read Version A","Dissertation, read only version A",KIDNEY,LIVER,Study1,S,53,41,Study,User,-,,Study/JOL,"Study Phase",1048,,,-1,-1,,,,1
w214961B.A.C,sozj35ejwd,Nick_Dissertation_EX1,1,13,2020-04-22T10:43:47-07:00,2.0825579166412,1,versionA_stim.csv,READVersionA.csv,"Read Version A","Dissertation, read only version A",MATH,DIVISION,Study1,B,33,28,Study,User,-,,Study/JOL,"Study Phase",1797,,,-1,-1,,,,1
w214961B.A.C,sozj35ejwd,Nick_Dissertation_EX1,1,14,2020-04-22T10:43:50-07:00,2.4600598812103,1,versionA_stim.csv,READVersionA.csv,"Read Version A","Dissertation, read only version A",ARTERY,BRONZE,Study1,U,74,22,Study,User,-,,Study/JOL,"Study Phase",2153,,,-1,-1,,,,1
w214961B.A.C,sozj35ejwd,Nick_Dissertation_EX1,1,15,2020-04-22T10:43:51-07:00,0.86127805709839,1,versionA_stim.csv,READVersionA.csv,"Read Version A","Dissertation, read only version A",PARK,HUNGRY,Study1,U,68,45,Study,User,-,,Study/JOL,"Study Phase",543,,,-1,-1,,,,1
w214961B.A.C,sozj35ejwd,Nick_Dissertation_EX1,1,16,2020-04-22T10:43:52-07:00,1.4896860122681,1,versionA_stim.csv,READVersionA.csv,"Read Version A","Dissertation, read only version A",DRINK,SIP,Study1,B,27,57,Study,User,-,,Study/JOL,"Study Phase",1180,,,-1,-1,,,,1
w214961B.A.C,sozj35ejwd,Nick_Dissertation_EX1,1,17,2020-04-22T10:43:53-07:00,1.1373410224915,1,versionA_stim.csv,READVersionA.csv,"Read Version A","Dissertation, read only version A",VALLEY,ADD,Study1,U,82,24,Study,User,-,,Study/JOL,"Study Phase",852,,,-1,-1,,,,1
w214961B.A.C,sozj35ejwd,Nick_Dissertation_EX1,1,18,2020-04-22T10:43:55-07:00,2.0812430381775,1,versionA_stim.csv,READVersionA.csv,"Read Version A","Dissertation, read only version A",BRIDGE,WATER,Study1,F,18,55,Study,User,-,,Study/JOL,"Study Phase",1778,,,-1,-1,,,,1
w214961B.A.C,sozj35ejwd,Nick_Dissertation_EX1,1,19,2020-04-22T10:43:57-07:00,1.5618848800659,1,versionA_stim.csv,READVersionA.csv,"Read Version A","Dissertation, read only version A",SHOE,FOOT,Study1,S,60,76,Study,User,-,,Study/JOL,"Study Phase",1105,,,-1,-1,,,,1
w214961B.A.C,sozj35ejwd,Nick_Dissertation_EX1,1,20,2020-04-22T10:43:58-07:00,1.0761561393738,1,versionA_stim.csv,READVersionA.csv,"Read Version A","Dissertation, read only version A",ARCHITECTURE,DESIGN,Study1,S,51,69,Study,User,-,,Study/JOL,"Study Phase",775,,,-1,-1,,,,1
w214961B.A.C,sozj35ejwd,Nick_Dissertation_EX1,1,21,2020-04-22T10:43:59-07:00,1.0425128936768,1,versionA_stim.csv,READVersionA.csv,"Read Version A","Dissertation, read only version A",BABY,CHILD,Study1,S,64,43,Study,User,-,,Study/JOL,"Study Phase",736,,,-1,-1,,,,1
w214961B.A.C,sozj35ejwd,Nick_Dissertation_EX1,1,22,2020-04-22T10:44:00-07:00,1.109030008316,1,versionA_stim.csv,READVersionA.csv,"Read Version A","Dissertation, read only version A",HOT,CHILI,Study1,B,37,14,Study,User,-,,Study/JOL,"Study Phase",770,,,-1,-1,,,,1
w214961B.A.C,sozj35ejwd,Nick_Dissertation_EX1,1,23,2020-04-22T10:44:01-07:00,1.0389029979706,1,versionA_stim.csv,READVersionA.csv,"Read Version A","Dissertation, read only version A",STRONG,ACCIDENT,Study1,U,80,32,Study,User,-,,Study/JOL,"Study Phase",748,,,-1,-1,,,,1
w214961B.A.C,sozj35ejwd,Nick_Dissertation_EX1,1,24,2020-04-22T10:44:03-07:00,1.9585490226746,1,versionA_stim.csv,READVersionA.csv,"Read Version A","Dissertation, read only version A",DIGESTION,STOMACH,Study1,F,7,49,Study,User,-,,Study/JOL,"Study Phase",1654,,,-1,-1,,,,1
w214961B.A.C,sozj35ejwd,Nick_Dissertation_EX1,1,25,2020-04-22T10:44:04-07:00,1.0389020442963,1,versionA_stim.csv,READVersionA.csv,"Read Version A","Dissertation, read only version A",SUGAR,RIDDLE,Study1,U,81,78,Study,User,-,,Study/JOL,"Study Phase",743,,,-1,-1,,,,1
w214961B.A.C,sozj35ejwd,Nick_Dissertation_EX1,1,26,2020-04-22T10:44:05-07:00,1.1736509799957,1,versionA_stim.csv,READVersionA.csv,"Read Version A","Dissertation, read only version A",HUNGER,FAMINE,Study1,B,40,20,Study,User,-,,Study/JOL,"Study Phase",747,,,-1,-1,,,,1
w214961B.A.C,sozj35ejwd,Nick_Dissertation_EX1,1,27,2020-04-22T10:44:06-07:00,1.0499930381775,1,versionA_stim.csv,READVersionA.csv,"Read Version A","Dissertation, read only version A",MACHINE,POSITION,Study1,U,76,54,Study,User,-,,Study/JOL,"Study Phase",737,,,-1,-1,,,,1
w214961B.A.C,sozj35ejwd,Nick_Dissertation_EX1,1,28,2020-04-22T10:44:08-07:00,1.1396269798279,1,versionA_stim.csv,READVersionA.csv,"Read Version A","Dissertation, read only version A",DISCUSSION,TALK,Study1,F,21,13,Study,User,-,,Study/JOL,"Study Phase",836,,,-1,-1,,,,1
w214961B.A.C,sozj35ejwd,Nick_Dissertation_EX1,1,29,2020-04-22T10:44:09-07:00,1.070396900177,1,versionA_stim.csv,READVersionA.csv,"Read Version A","Dissertation, read only version A",DUMP,WASTE,Study1,S,49,46,Study,User,-,,Study/JOL,"Study Phase",731,,,-1,-1,,,,1
w214961B.A.C,sozj35ejwd,Nick_Dissertation_EX1,1,30,2020-04-22T10:44:09-07:00,0.80746817588806,1,versionA_stim.csv,READVersionA.csv,"Read Version A","Dissertation, read only version A",HAPPY,CAR,Study1,U,77,74,Study,User,-,,Study/JOL,"Study Phase",505,,,-1,-1,,,,1
w214961B.A.C,sozj35ejwd,Nick_Dissertation_EX1,1,31,2020-04-22T10:44:12-07:00,2.6264758110046,1,versionA_stim.csv,READVersionA.csv,"Read Version A","Dissertation, read only version A",TAKE,SEIZE,Study1,B,29,17,Study,User,-,,Study/JOL,"Study Phase",2274,,,-1,-1,,,,1
w214961B.A.C,sozj35ejwd,Nick_Dissertation_EX1,1,32,2020-04-22T10:44:13-07:00,0.77905416488647,1,versionA_stim.csv,READVersionA.csv,"Read Version A","Dissertation, read only version A",LETTUCE,SALAD,Study1,S,59,35,Study,User,-,,Study/JOL,"Study Phase",471,,,-1,-1,,,,1
w214961B.A.C,sozj35ejwd,Nick_Dissertation_EX1,1,33,2020-04-22T10:44:14-07:00,1.174535036087,1,versionA_stim.csv,READVersionA.csv,"Read Version A","Dissertation, read only version A",ALLOW,TUCK,Study1,U,78,68,Study,User,-,,Study/JOL,"Study Phase",809,,,-1,-1,,,,1
w214961B.A.C,sozj35ejwd,Nick_Dissertation_EX1,1,34,2020-04-22T10:44:15-07:00,1.2527248859406,1,versionA_stim.csv,READVersionA.csv,"Read Version A","Dissertation, read only version A",SMELL,STENCH,Study1,B,42,10,Study,User,-,,Study/JOL,"Study Phase",759,,,-1,-1,,,,1
w214961B.A.C,sozj35ejwd,Nick_Dissertation_EX1,1,35,2020-04-22T10:44:16-07:00,1.2173409461975,1,versionA_stim.csv,READVersionA.csv,"Read Version A","Dissertation, read only version A",GEOLOGY,ROCK,Study1,F,19,15,Study,User,-,,Study/JOL,"Study Phase",913,,,-1,-1,,,,1
w214961B.A.C,sozj35ejwd,Nick_Dissertation_EX1,1,36,2020-04-22T10:44:17-07:00,1.0319421291351,1,versionA_stim.csv,READVersionA.csv,"Read Version A","Dissertation, read only version A",BUG,WASP,Study1,B,32,47,Study,User,-,,Study/JOL,"Study Phase",695,,,-1,-1,,,,1
w214961B.A.C,sozj35ejwd,Nick_Dissertation_EX1,1,37,2020-04-22T10:44:19-07:00,1.171215057373,1,versionA_stim.csv,READVersionA.csv,"Read Version A","Dissertation, read only version A",TUNA,FISH,Study1,F,25,18,Study,User,-,,Study/JOL,"Study Phase",875,,,-1,-1,,,,1
w214961B.A.C,sozj35ejwd,Nick_Dissertation_EX1,1,38,2020-04-22T10:44:20-07:00,0.9931058883667,1,versionA_stim.csv,READVersionA.csv,"Read Version A","Dissertation, read only version A",CLOTHES,ATTIRE,Study1,B,43,36,Study,User,-,,Study/JOL,"Study Phase",708,,,-1,-1,,,,1
w214961B.A.C,sozj35ejwd,Nick_Dissertation_EX1,1,39,2020-04-22T10:44:21-07:00,1.0791299343109,1,versionA_stim.csv,READVersionA.csv,"Read Version A","Dissertation, read only version A",HERD,COW,Study1,F,22,70,Study,User,-,,Study/JOL,"Study Phase",706,,,-1,-1,,,,1
w214961B.A.C,sozj35ejwd,Nick_Dissertation_EX1,1,40,2020-04-22T10:44:22-07:00,1.1303451061249,1,versionA_stim.csv,READVersionA.csv,"Read Version A","Dissertation, read only version A",CASH,WOULD,Study1,U,83,52,Study,User,-,,Study/JOL,"Study Phase",828,,,-1,-1,,,,1
w214961B.A.C,sozj35ejwd,Nick_Dissertation_EX1,1,41,2020-04-22T10:44:23-07:00,1.2337250709534,1,versionA_stim.csv,READVersionA.csv,"Read Version A","Dissertation, read only version A",PLANE,PILOT,Study1,B,44,63,Study,User,-,,Study/JOL,"Study Phase",892,,,-1,-1,,,,1
w214961B.A.C,sozj35ejwd,Nick_Dissertation_EX1,1,42,2020-04-22T10:44:24-07:00,1.1896269321442,1,versionA_stim.csv,READVersionA.csv,"Read Version A","Dissertation, read only version A",GREAT,FANTASTIC,Study1,B,35,16,Study,User,-,,Study/JOL,"Study Phase",796,,,-1,-1,,,,1
w214961B.A.C,sozj35ejwd,Nick_Dissertation_EX1,1,43,2020-04-22T10:44:25-07:00,1.0457830429077,1,versionA_stim.csv,READVersionA.csv,"Read Version A","Dissertation, read only version A",BALL,RACKET,Study1,B,38,34,Study,User,-,,Study/JOL,"Study Phase",769,,,-1,-1,,,,1
w214961B.A.C,sozj35ejwd,Nick_Dissertation_EX1,1,44,2020-04-22T10:44:26-07:00,1.1479909420013,1,versionA_stim.csv,READVersionA.csv,"Read Version A","Dissertation, read only version A",SLEEP,DROWSY,Study1,B,41,72,Study,User,-,,Study/JOL,"Study Phase",794,,,-1,-1,,,,1
w214961B.A.C,sozj35ejwd,Nick_Dissertation_EX1,1,45,2020-04-22T10:44:28-07:00,1.0576980113983,1,versionA_stim.csv,READVersionA.csv,"Read Version A","Dissertation, read only version A",CHISEL,HAMMER,Study1,F,9,37,Study,User,-,,Study/JOL,"Study Phase",779,,,-1,-1,,,,1
w214961B.A.C,sozj35ejwd,Nick_Dissertation_EX1,1,46,2020-04-22T10:44:28-07:00,0.98211407661438,1,versionA_stim.csv,READVersionA.csv,"Read Version A","Dissertation, read only version A",POP,SODA,Study1,S,56,65,Study,User,-,,Study/JOL,"Study Phase",684,,,-1,-1,,,,1
w214961B.A.C,sozj35ejwd,Nick_Dissertation_EX1,1,47,2020-04-22T10:44:30-07:00,1.1527729034424,1,versionA_stim.csv,READVersionA.csv,"Read Version A","Dissertation, read only version A",BEGIN,END,Study1,S,54,71,Study,User,-,,Study/JOL,"Study Phase",858,,,-1,-1,,,,1
w214961B.A.C,sozj35ejwd,Nick_Dissertation_EX1,1,48,2020-04-22T10:44:31-07:00,0.91035509109497,1,versionA_stim.csv,READVersionA.csv,"Read Version A","Dissertation, read only version A",DUE,ASSIGNMENT,Study1,S,46,80,Study,User,-,,Study/JOL,"Study Phase",608,,,-1,-1,,,,1
w214961B.A.C,sozj35ejwd,Nick_Dissertation_EX1,1,49,2020-04-22T10:44:32-07:00,1.0415589809418,1,versionA_stim.csv,READVersionA.csv,"Read Version A","Dissertation, read only version A",FULL,ENOUGH,Study1,B,26,9,Study,User,-,,Study/JOL,"Study Phase",736,,,-1,-1,,,,1
w214961B.A.C,sozj35ejwd,Nick_Dissertation_EX1,1,50,2020-04-22T10:44:33-07:00,1.2068219184875,1,versionA_stim.csv,READVersionA.csv,"Read Version A","Dissertation, read only version A",TRIAL,JURY,Study1,S,50,59,Study,User,-,,Study/JOL,"Study Phase",712,,,-1,-1,,,,1
w214961B.A.C,sozj35ejwd,Nick_Dissertation_EX1,1,51,2020-04-22T10:44:34-07:00,0.93790102005005,1,versionA_stim.csv,READVersionA.csv,"Read Version A","Dissertation, read only version A",HONEY,BEE,Study1,S,63,77,Study,User,-,,Study/JOL,"Study Phase",642,,,-1,-1,,,,1
w214961B.A.C,sozj35ejwd,Nick_Dissertation_EX1,1,52,2020-04-22T10:44:35-07:00,1.2586009502411,1,versionA_stim.csv,READVersionA.csv,"Read Version A","Dissertation, read only version A",DIETARY,SACKING,Study1,U,67,61,Study,User,-,,Study/JOL,"Study Phase",949,,,-1,-1,,,,1
w214961B.A.C,sozj35ejwd,Nick_Dissertation_EX1,1,53,2020-04-22T10:44:36-07:00,1.0911540985107,1,versionA_stim.csv,READVersionA.csv,"Read Version A","Dissertation, read only version A",SOON,BELT,Study1,U,70,79,Study,User,-,,Study/JOL,"Study Phase",779,,,-1,-1,,,,1
w214961B.A.C,sozj35ejwd,Nick_Dissertation_EX1,1,54,2020-04-22T10:44:37-07:00,1.0410838127136,1,versionA_stim.csv,READVersionA.csv,"Read Version A","Dissertation, read only version A",WORK,CHORE,Study1,B,39,48,Study,User,-,,Study/JOL,"Study Phase",715,,,-1,-1,,,,1
w214961B.A.C,sozj35ejwd,Nick_Dissertation_EX1,1,55,2020-04-22T10:44:38-07:00,0.87193703651428,1,versionA_stim.csv,READVersionA.csv,"Read Version A","Dissertation, read only version A",WAGE,MONEY,Study1,F,8,73,Study,User,-,,Study/JOL,"Study Phase",574,,,-1,-1,,,,1
w214961B.A.C,sozj35ejwd,Nick_Dissertation_EX1,1,56,2020-04-22T10:44:39-07:00,1.0173680782318,1,versionA_stim.csv,READVersionA.csv,"Read Version A","Dissertation, read only version A",HEIGHT,GROWTH,Study1,B,30,27,Study,User,-,,Study/JOL,"Study Phase",731,,,-1,-1,,,,1
w214961B.A.C,sozj35ejwd,Nick_Dissertation_EX1,1,57,2020-04-22T10:44:40-07:00,0.99248695373535,1,versionA_stim.csv,READVersionA.csv,"Read Version A","Dissertation, read only version A",DISCOVER,FLOOR,Study1,U,71,30,Study,User,-,,Study/JOL,"Study Phase",699,,,-1,-1,,,,1
w214961B.A.C,sozj35ejwd,Nick_Dissertation_EX1,1,58,2020-04-22T10:44:41-07:00,1.3754119873047,1,versionA_stim.csv,READVersionA.csv,"Read Version A","Dissertation, read only version A",FIRE,BLAZE,Study1,B,45,12,Study,User,-,,Study/JOL,"Study Phase",852,,,-1,-1,,,,1
w214961B.A.C,sozj35ejwd,Nick_Dissertation_EX1,1,59,2020-04-22T10:44:43-07:00,1.4497771263123,1,versionA_stim.csv,READVersionA.csv,"Read Version A","Dissertation, read only version A",KING,VASE,Study1,U,85,60,Study,User,-,,Study/JOL,"Study Phase",1036,,,-1,-1,,,,1
w214961B.A.C,sozj35ejwd,Nick_Dissertation_EX1,1,60,2020-04-22T10:44:45-07:00,1.8025059700012,1,versionA_stim.csv,READVersionA.csv,"Read Version A","Dissertation, read only version A",WAY,OUT,Study1,F,16,53,Study,User,-,,Study/JOL,"Study Phase",1523,,,-1,-1,,,,1
w214961B.A.C,sozj35ejwd,Nick_Dissertation_EX1,1,61,2020-04-22T10:44:46-07:00,1.2590839862823,1,versionA_stim.csv,READVersionA.csv,"Read Version A","Dissertation, read only version A",CREDIT,CARD,Study1,F,23,58,Study,User,-,,Study/JOL,"Study Phase",950,,,-1,-1,,,,1
w214961B.A.C,sozj35ejwd,Nick_Dissertation_EX1,1,62,2020-04-22T10:44:47-07:00,1.1090779304504,1,versionA_stim.csv,READVersionA.csv,"Read Version A","Dissertation, read only version A",LIFT,WOMAN,Study1,U,69,23,Study,User,-,,Study/JOL,"Study Phase",799,,,-1,-1,,,,1
w214961B.A.C,sozj35ejwd,Nick_Dissertation_EX1,1,63,2020-04-22T10:44:48-07:00,1.1325690746307,1,versionA_stim.csv,READVersionA.csv,"Read Version A","Dissertation, read only version A",WINE,CHEESE,Study1,S,57,8,Study,User,-,,Study/JOL,"Study Phase",836,,,-1,-1,,,,1
w214961B.A.C,sozj35ejwd,Nick_Dissertation_EX1,1,64,2020-04-22T10:44:50-07:00,1.3573999404907,1,versionA_stim.csv,READVersionA.csv,"Read Version A","Dissertation, read only version A",GRILL,BAR,Study1,S,52,40,Study,User,-,,Study/JOL,"Study Phase",1053,,,-1,-1,,,,1
w214961B.A.C,sozj35ejwd,Nick_Dissertation_EX1,1,65,2020-04-22T10:44:51-07:00,1.2599821090698,1,versionA_stim.csv,READVersionA.csv,"Read Version A","Dissertation, read only version A",NUMBER,AMOUNT,Study1,S,47,51,Study,User,-,,Study/JOL,"Study Phase",748,,,-1,-1,,,,1
w214961B.A.C,sozj35ejwd,Nick_Dissertation_EX1,1,66,2020-04-22T10:44:52-07:00,1.519523859024,1,versionA_stim.csv,READVersionA.csv,"Read Version A","Dissertation, read only version A",ROOT,PLANT,Study1,F,13,29,Study,User,-,,Study/JOL,"Study Phase",1221,,,-1,-1,,,,1
w214961B.A.C,sozj35ejwd,Nick_Dissertation_EX1,1,67,2020-04-22T10:44:54-07:00,1.3019790649414,1,versionA_stim.csv,READVersionA.csv,"Read Version A","Dissertation, read only version A",SENTENCE,WORD,Study1,B,31,26,Study,User,-,,Study/JOL,"Study Phase",921,,,-1,-1,,,,1
w214961B.A.C,sozj35ejwd,Nick_Dissertation_EX1,1,68,2020-04-22T10:44:54-07:00,0.84202909469604,1,versionA_stim.csv,READVersionA.csv,"Read Version A","Dissertation, read only version A",SWAN,BIRD,Study1,F,14,19,Study,User,-,,Study/JOL,"Study Phase",546,,,-1,-1,,,,1
w214961B.A.C,sozj35ejwd,Nick_Dissertation_EX1,1,69,2020-04-22T10:44:55-07:00,0.79496693611145,1,versionA_stim.csv,READVersionA.csv,"Read Version A","Dissertation, read only version A",PUSHER,CLUTTER,Study1,U,66,62,Study,User,-,,Study/JOL,"Study Phase",496,,,-1,-1,,,,1
w214961B.A.C,sozj35ejwd,Nick_Dissertation_EX1,1,70,2020-04-22T10:44:56-07:00,1.0109028816223,1,versionA_stim.csv,READVersionA.csv,"Read Version A","Dissertation, read only version A",BLOW,WIND,Study1,S,55,82,Study,User,-,,Study/JOL,"Study Phase",685,,,-1,-1,,,,1
w214961B.A.C,sozj35ejwd,Nick_Dissertation_EX1,1,71,2020-04-22T10:44:57-07:00,1.0119340419769,1,versionA_stim.csv,READVersionA.csv,"Read Version A","Dissertation, read only version A",CIRCLE,ROUND,Study1,S,65,84,Study,User,-,,Study/JOL,"Study Phase",722,,,-1,-1,,,,1
w214961B.A.C,sozj35ejwd,Nick_Dissertation_EX1,1,72,2020-04-22T10:44:58-07:00,0.89458107948303,1,versionA_stim.csv,READVersionA.csv,"Read Version A","Dissertation, read only version A",BITTER,COLD,Study1,F,12,7,Study,User,-,,Study/JOL,"Study Phase",599,,,-1,-1,,,,1
w214961B.A.C,sozj35ejwd,Nick_Dissertation_EX1,1,73,2020-04-22T10:44:59-07:00,0.70869302749634,1,versionA_stim.csv,READVersionA.csv,"Read Version A","Dissertation, read only version A",DEATH,BUSINESS,Study1,U,72,85,Study,User,-,,Study/JOL,"Study Phase",271,,,-1,-1,,,,1
w214961B.A.C,sozj35ejwd,Nick_Dissertation_EX1,1,74,2020-04-22T10:45:00-07:00,0.6816840171814,1,versionA_stim.csv,READVersionA.csv,"Read Version A","Dissertation, read only version A",ART,LION,Study1,U,79,86,Study,User,-,,Study/JOL,"Study Phase",352,,,-1,-1,,,,1
w214961B.A.C,sozj35ejwd,Nick_Dissertation_EX1,1,75,2020-04-22T10:45:00-07:00,0.41374897956848,1,versionA_stim.csv,READVersionA.csv,"Read Version A","Dissertation, read only version A",HORNET,STING,Study1,F,11,31,Study,User,-,,Study/JOL,"Study Phase",122,,,-1,-1,,,,1
w214961B.A.C,sozj35ejwd,Nick_Dissertation_EX1,1,76,2020-04-22T10:45:01-07:00,1.3896260261536,1,versionA_stim.csv,READVersionA.csv,"Read Version A","Dissertation, read only version A",DELINQUENT,BAD,Study1,F,6,21,Study,User,-,,Study/JOL,"Study Phase",1073,,,-1,-1,,,,1
w214961B.A.C,sozj35ejwd,Nick_Dissertation_EX1,1,77,2020-04-22T10:45:03-07:00,2.0350248813629,1,versionA_stim.csv,READVersionA.csv,"Read Version A","Dissertation, read only version A",PAST,FUTURE,Study1,S,61,81,Study,User,-,,Study/JOL,"Study Phase",1745,,,-1,-1,,,,1
w214961B.A.C,sozj35ejwd,Nick_Dissertation_EX1,1,78,2020-04-22T10:45:04-07:00,0.70731806755066,1,versionA_stim.csv,READVersionA.csv,"Read Version A","Dissertation, read only version A",REVOLUTION,WAR,Study1,F,20,67,Study,User,-,,Study/JOL,"Study Phase",400,,,-1,-1,,,,1
w214961B.A.C,sozj35ejwd,Nick_Dissertation_EX1,1,79,2020-04-22T10:45:05-07:00,0.68146800994873,1,versionA_stim.csv,READVersionA.csv,"Read Version A","Dissertation, read only version A",MEANING,DEFINITION,Study1,S,62,42,Study,User,-,,Study/JOL,"Study Phase",383,,,-1,-1,,,,1
w214961B.A.C,sozj35ejwd,Nick_Dissertation_EX1,1,80,2020-04-22T10:45:05-07:00,0.70161890983582,1,versionA_stim.csv,READVersionA.csv,"Read Version A","Dissertation, read only version A",HYGIENE,CLEAN,Study1,F,17,75,Study,User,-,,Study/JOL,"Study Phase",400,,,-1,-1,,,,1
w214961B.A.C,sozj35ejwd,Nick_Dissertation_EX1,1,81,2020-04-22T10:45:06-07:00,0.65096998214722,1,versionA_stim.csv,READVersionA.csv,"Read Version A","Dissertation, read only version A",EDITOR,NEWS,Study1,F,10,11,Study,User,-,,Study/JOL,"Study Phase",356,,,-1,-1,,,,1
w214961B.A.C,sozj35ejwd,Nick_Dissertation_EX1,1,82,2020-04-22T10:45:07-07:00,0.68554401397705,1,versionA_stim.csv,READVersionA.csv,"Read Version A","Dissertation, read only version A",PAW,DOG,Study1,F,15,25,Study,User,-,,Study/JOL,"Study Phase",345,,,-1,-1,,,,1
w214961B.A.C,sozj35ejwd,Nick_Dissertation_EX1,1,83,2020-04-22T10:45:08-07:00,0.86970496177673,1,versionA_stim.csv,READVersionA.csv,"Read Version A","Dissertation, read only version A",KEY,LATCH,Study1,B,36,44,Study,User,-,,Study/JOL,"Study Phase",499,,,-1,-1,,,,1
w214961B.A.C,sozj35ejwd,Nick_Dissertation_EX1,1,84,2020-04-22T10:45:09-07:00,0.93024611473083,1,versionA_stim.csv,READVersionA.csv,"Read Version A","Dissertation, read only version A",LOCATION,SITE,Study1,S,48,33,Study,User,-,,Study/JOL,"Study Phase",407,,,-1,-1,,,,1
w214961B.A.C,sozj35ejwd,Nick_Dissertation_EX1,1,85,2020-04-22T10:45:10-07:00,1.2041099071503,1,versionA_stim.csv,READVersionA.csv,"Read Version A","Dissertation, read only version A",HIDE,SICK,Study1,U,84,38,Study,User,-,,Study/JOL,"Study Phase",580,,,-1,-1,,,,1
w214961B.A.C,sozj35ejwd,Nick_Dissertation_EX1,1,86,2020-04-22T10:45:11-07:00,1.0503430366516,1,versionA_stim.csv,READVersionA.csv,"Read Version A","Dissertation, read only version A",BATHROOM,TOILET,Study1,S,58,50,Study,User,-,,Study/JOL,"Study Phase",750,,,-1,-1,,,,1
w214961B.A.C,sozj35ejwd,Nick_Dissertation_EX1,1,87,2020-04-22T10:45:13-07:00,1.9467010498047,1,versionA_stim.csv,READVersionA.csv,"Read Version A","Dissertation, read only version A",GEESE,GOOSE,BUFFER2,Buffer,86,88,Study,User,-,,Study/JOL,BUFFER2,1619,,,-1,-1,,,,1
w214961B.A.C,sozj35ejwd,Nick_Dissertation_EX1,1,88,2020-04-22T10:45:14-07:00,0.72978806495667,1,versionA_stim.csv,READVersionA.csv,"Read Version A","Dissertation, read only version A",SHERRIF,POLICE,BUFFER2,Buffer,87,87,Study,User,-,,Study/JOL,BUFFER2,423,,,-1,-1,,,,1
w214961B.A.C,sozj35ejwd,Nick_Dissertation_EX1,1,89,2020-04-22T10:45:14-07:00,0.95032596588135,1,versionA_stim.csv,READVersionA.csv,"Read Version A","Dissertation, read only version A",MOON,SPACE,BUFFER2,Buffer,89,90,Study,User,-,,Study/JOL,BUFFER2,639,,,-1,-1,,,,1
w214961B.A.C,sozj35ejwd,Nick_Dissertation_EX1,1,90,2020-04-22T10:45:15-07:00,0.81351494789124,1,versionA_stim.csv,READVersionA.csv,"Read Version A","Dissertation, read only version A",THING,STUFF,BUFFER2,Buffer,90,89,Study,User,-,,Study/JOL,BUFFER2,506,,,-1,-1,,,,1
w214961B.A.C,sozj35ejwd,Nick_Dissertation_EX1,1,91,2020-04-22T10:45:16-07:00,0.93661189079285,1,versionA_stim.csv,READVersionA.csv,"Read Version A","Dissertation, read only version A",MALT,CHOCOLATE,BUFFER2,Buffer,88,91,Study,User,-,,Study/JOL,BUFFER2,488,,,-1,-1,,,,1
w214961B.A.C,sozj35ejwd,Nick_Dissertation_EX1,1,92,2020-04-22T10:45:19-07:00,2.3492980003357,1,versionA_stim.csv,READVersionA.csv,"Read Version A","Dissertation, read only version A",,,,,,0,Instruct,User,-,"You have completed this section. Please press Enter.",Filler_Instruction,Instruct2,1824,,,-1,-1,,,,1
w214961B.A.C,sozj35ejwd,Nick_Dissertation_EX1,1,93,2020-04-22T10:45:19-07:00,0.083922147750854,1,versionA_stim.csv,READVersionA.csv,"Read Version A","Dissertation, read only version A",,,,,,0,FreeRecall,120,120,"Please list the 50 US states in alphabetical order. The task will automatically advance to the next screen after two minutes.",,Filler1,1824,,,-1,-1,,,,1
w214961B.A.C,sozj35ejwd,Nick_Dissertation_EX1,1,94,2020-04-22T10:45:30-07:00,11.065453052521,1,versionA_stim.csv,READVersionA.csv,"Read Version A","Dissertation, read only version A",,,,,,0,Instruct,-,10,"You will now be presented with the first word from each of the previously studied item pairs. Please type the missing word. If you do not know the word, you may guess or press Enter to skip forward to the next pair.",,Instruct3,10703,,,-1,-1,,,,1
w214961B.A.C,sozj35ejwd,Nick_Dissertation_EX1,1,95,2020-04-22T10:45:34-07:00,4.2084619998932,1,versionA_stim.csv,READVersionA.csv,"Read Version A","Dissertation, read only version A",CASH,WOULD,Study1,U,83,52,Test,User,-,,Recall,Recall1,3888,bank,0,2459,3452,0,0,,1
w214961B.A.C,sozj35ejwd,Nick_Dissertation_EX1,1,96,2020-04-22T10:45:37-07:00,3.3205118179321,1,versionA_stim.csv,READVersionA.csv,"Read Version A","Dissertation, read only version A",TRIAL,JURY,Study1,S,50,59,Test,User,-,,Recall,Recall1,2934,error,22.222222222222,1265,2741,0,0,,1
w214961B.A.C,sozj35ejwd,Nick_Dissertation_EX1,1,97,2020-04-22T10:45:41-07:00,3.9897611141205,1,versionA_stim.csv,READVersionA.csv,"Read Version A","Dissertation, read only version A",DEATH,BUSINESS,Study1,U,72,85,Test,User,-,,Recall,Recall1,3683,alive,30.769230769231,2370,3485,0,0,,1
w214961B.A.C,sozj35ejwd,Nick_Dissertation_EX1,1,98,2020-04-22T10:45:45-07:00,3.497624874115,1,versionA_stim.csv,READVersionA.csv,"Read Version A","Dissertation, read only version A",GRILL,BAR,Study1,S,52,40,Test,User,-,,Recall,Recall1,3206,meat,28.571428571429,2317,2983,0,0,,1
w214961B.A.C,sozj35ejwd,Nick_Dissertation_EX1,1,99,2020-04-22T10:45:49-07:00,4.5401520729065,1,versionA_stim.csv,READVersionA.csv,"Read Version A","Dissertation, read only version A",BABY,CHILD,Study1,S,64,43,Test,User,-,,Recall,Recall1,4245,adult,20,3151,3937,0,0,,1
w214961B.A.C,sozj35ejwd,Nick_Dissertation_EX1,1,100,2020-04-22T10:45:54-07:00,5.0727269649506,1,versionA_stim.csv,READVersionA.csv,"Read Version A","Dissertation, read only version A",ART,LION,Study1,U,79,86,Test,User,-,,Recall,Recall1,4770,work,25,3879,4467,0,0,,1
w214961B.A.C,sozj35ejwd,Nick_Dissertation_EX1,1,101,2020-04-22T10:46:02-07:00,7.7770481109619,1,versionA_stim.csv,READVersionA.csv,"Read Version A","Dissertation, read only version A",CLOTHES,ATTIRE,Study1,B,43,36,Test,User,-,,Recall,Recall1,7441,shirt,36.363636363636,6625,7253,0,0,,1
w214961B.A.C,sozj35ejwd,Nick_Dissertation_EX1,1,102,2020-04-22T10:46:07-07:00,4.3961470127106,1,versionA_stim.csv,READVersionA.csv,"Read Version A","Dissertation, read only version A",WAGE,MONEY,Study1,F,8,73,Test,User,-,,Recall,Recall1,4092,amount,54.545454545455,2875,3870,0,0,,1
w214961B.A.C,sozj35ejwd,Nick_Dissertation_EX1,1,103,2020-04-22T10:46:12-07:00,5.9481329917908,1,versionA_stim.csv,READVersionA.csv,"Read Version A","Dissertation, read only version A",LAW,ATTORNEY,Study1,B,34,39,Test,User,-,,Recall,Recall1,5561,court,30.769230769231,3656,5292,0,0,,1
w214961B.A.C,sozj35ejwd,Nick_Dissertation_EX1,1,104,2020-04-22T10:46:33-07:00,20.544205904007,1,versionA_stim.csv,READVersionA.csv,"Read Version A","Dissertation, read only version A",LOCATION,SITE,Study1,S,48,33,Test,User,-,,Recall,Recall1,19867,"is remote",46.153846153846,2645,19704,0,0,,1
w214961B.A.C,sozj35ejwd,Nick_Dissertation_EX1,1,105,2020-04-22T10:46:35-07:00,1.9659299850464,1,versionA_stim.csv,READVersionA.csv,"Read Version A","Dissertation, read only version A",DELINQUENT,BAD,Study1,F,6,21,Test,User,-,,Recall,Recall1,1602,,0,-1,-1,0,0,,1
w214961B.A.C,sozj35ejwd,Nick_Dissertation_EX1,1,106,2020-04-22T10:46:47-07:00,12.493973016739,1,versionA_stim.csv,READVersionA.csv,"Read Version A","Dissertation, read only version A",DIGESTION,STOMACH,Study1,F,7,49,Test,User,-,,Recall,Recall1,10796,through,28.571428571429,5057,10403,0,0,,1
w214961B.A.C,sozj35ejwd,Nick_Dissertation_EX1,1,107,2020-04-22T10:46:52-07:00,4.763885974884,1,versionA_stim.csv,READVersionA.csv,"Read Version A","Dissertation, read only version A",DISCOVER,FLOOR,Study1,U,71,30,Test,User,-,,Recall,Recall1,4168,me,0,3172,3983,0,0,,1
w214961B.A.C,sozj35ejwd,Nick_Dissertation_EX1,1,108,2020-04-22T10:46:56-07:00,3.5558230876923,1,versionA_stim.csv,READVersionA.csv,"Read Version A","Dissertation, read only version A",ORCHID,FLOWER,Study1,F,24,83,Test,User,-,,Recall,Recall1,3251,tree,20,2004,2949,0,0,,1
w214961B.A.C,sozj35ejwd,Nick_Dissertation_EX1,1,109,2020-04-22T10:47:04-07:00,8.6245460510254,1,versionA_stim.csv,READVersionA.csv,"Read Version A","Dissertation, read only version A",MATH,DIVISION,Study1,B,33,28,Test,User,-,,Recall,Recall1,8305,english,26.666666666667,5957,7855,0,0,,1
w214961B.A.C,sozj35ejwd,Nick_Dissertation_EX1,1,110,2020-04-22T10:47:10-07:00,5.8016760349274,1,versionA_stim.csv,READVersionA.csv,"Read Version A","Dissertation, read only version A",MEANING,DEFINITION,Study1,S,62,42,Test,User,-,,Recall,Recall1,5385,fulling,35.294117647059,2025,5136,0,0,,1
w214961B.A.C,sozj35ejwd,Nick_Dissertation_EX1,1,111,2020-04-22T10:47:13-07:00,2.4138739109039,1,versionA_stim.csv,READVersionA.csv,"Read Version A","Dissertation, read only version A",SLEEP,DROWSY,Study1,B,41,72,Test,User,-,,Recall,Recall1,2100,eat,0,1231,1903,0,0,,1
w214961B.A.C,sozj35ejwd,Nick_Dissertation_EX1,1,112,2020-04-22T10:47:19-07:00,5.8997519016266,1,versionA_stim.csv,READVersionA.csv,"Read Version A","Dissertation, read only version A",DARK,CAVE,Study1,B,28,56,Test,User,-,,Recall,Recall1,5358,answer,40,2444,5028,0,0,,1
w214961B.A.C,sozj35ejwd,Nick_Dissertation_EX1,1,113,2020-04-22T10:47:21-07:00,2.9238121509552,1,versionA_stim.csv,READVersionA.csv,"Read Version A","Dissertation, read only version A",SOON,BELT,Study1,U,70,79,Test,User,-,,Recall,Recall1,2608,over,25,1747,2393,0,0,,1
w214961B.A.C,sozj35ejwd,Nick_Dissertation_EX1,1,114,2020-04-22T10:47:24-07:00,2.9113700389862,1,versionA_stim.csv,READVersionA.csv,"Read Version A","Dissertation, read only version A",BRIDGE,WATER,Study1,F,18,55,Test,User,-,,Recall,Recall1,2427,cave,44.444444444444,1475,2220,0,0,,1
w214961B.A.C,sozj35ejwd,Nick_Dissertation_EX1,1,115,2020-04-22T10:47:29-07:00,4.369313955307,1,versionA_stim.csv,READVersionA.csv,"Read Version A","Dissertation, read only version A",PLANE,PILOT,Study1,B,44,63,Test,User,-,,Recall,Recall1,3809,ride,22.222222222222,1675,3641,0,0,,1
w214961B.A.C,sozj35ejwd,Nick_Dissertation_EX1,1,116,2020-04-22T10:47:35-07:00,6.4882838726044,1,versionA_stim.csv,READVersionA.csv,"Read Version A","Dissertation, read only version A",WINE,CHEESE,Study1,S,57,8,Test,User,-,,Recall,Recall1,6146,glass,18.181818181818,4438,5998,0,0,,1
w214961B.A.C,sozj35ejwd,Nick_Dissertation_EX1,1,117,2020-04-22T10:47:37-07:00,1.8394541740417,1,versionA_stim.csv,READVersionA.csv,"Read Version A","Dissertation, read only version A",CHISEL,HAMMER,Study1,F,9,37,Test,User,-,,Recall,Recall1,1536,,0,-1,-1,0,0,,1
w214961B.A.C,sozj35ejwd,Nick_Dissertation_EX1,1,118,2020-04-22T10:47:41-07:00,3.5976028442383,1,versionA_stim.csv,READVersionA.csv,"Read Version A","Dissertation, read only version A",HOT,CHILI,Study1,B,37,14,Test,User,-,,Recall,Recall1,3262,cool,44.444444444444,2540,3023,0,0,,1
w214961B.A.C,sozj35ejwd,Nick_Dissertation_EX1,1,119,2020-04-22T10:47:42-07:00,1.5491280555725,1,versionA_stim.csv,READVersionA.csv,"Read Version A","Dissertation, read only version A",GEOLOGY,ROCK,Study1,F,19,15,Test,User,-,,Recall,Recall1,977,,0,-1,-1,0,0,,1
w214961B.A.C,sozj35ejwd,Nick_Dissertation_EX1,1,120,2020-04-22T10:47:47-07:00,5.1767570972443,1,versionA_stim.csv,READVersionA.csv,"Read Version A","Dissertation, read only version A",FULL,ENOUGH,Study1,B,26,9,Test,User,-,,Recall,Recall1,4540,empty,18.181818181818,2928,4257,0,0,,1
w214961B.A.C,sozj35ejwd,Nick_Dissertation_EX1,1,121,2020-04-22T10:47:54-07:00,6.3922588825226,1,versionA_stim.csv,READVersionA.csv,"Read Version A","Dissertation, read only version A",BUG,WASP,Study1,B,32,47,Test,User,-,,Recall,Recall1,6064,ant,28.571428571429,2741,5893,0,0,,1
w214961B.A.C,sozj35ejwd,Nick_Dissertation_EX1,1,122,2020-04-22T10:48:06-07:00,12.501939058304,1,versionA_stim.csv,READVersionA.csv,"Read Version A","Dissertation, read only version A",HUNGER,FAMINE,Study1,B,40,20,Test,User,-,,Recall,Recall1,12157,full,20,2780,11938,0,0,,1
w214961B.A.C,sozj35ejwd,Nick_Dissertation_EX1,1,123,2020-04-22T10:48:10-07:00,3.3067259788513,1,versionA_stim.csv,READVersionA.csv,"Read Version A","Dissertation, read only version A",KING,VASE,Study1,U,85,60,Test,User,-,,Recall,Recall1,2988,size,50,2090,2769,0,0,,1
w214961B.A.C,sozj35ejwd,Nick_Dissertation_EX1,1,124,2020-04-22T10:48:11-07:00,1.0780689716339,1,versionA_stim.csv,READVersionA.csv,"Read Version A","Dissertation, read only version A",SWAN,BIRD,Study1,F,14,19,Test,User,-,,Recall,Recall1,792,,0,-1,-1,0,0,,1
w214961B.A.C,sozj35ejwd,Nick_Dissertation_EX1,1,125,2020-04-22T10:48:19-07:00,8.3800189495087,1,versionA_stim.csv,READVersionA.csv,"Read Version A","Dissertation, read only version A",SENTENCE,WORD,Study1,B,31,26,Test,User,-,,Recall,Recall1,8094,answer,40,6858,7881,0,0,,1
w214961B.A.C,sozj35ejwd,Nick_Dissertation_EX1,1,126,2020-04-22T10:48:26-07:00,6.4727189540863,1,versionA_stim.csv,READVersionA.csv,"Read Version A","Dissertation, read only version A",HONEY,BEE,Study1,S,63,77,Test,User,-,,Recall,Recall1,6164,comb,28.571428571429,5442,6015,0,0,,1
w214961B.A.C,sozj35ejwd,Nick_Dissertation_EX1,1,127,2020-04-22T10:48:35-07:00,9.101448059082,1,versionA_stim.csv,READVersionA.csv,"Read Version A","Dissertation, read only version A",PARK,HUNGRY,Study1,U,68,45,Test,User,-,,Recall,Recall1,8682,soon,20,8015,8420,0,0,,1
w214961B.A.C,sozj35ejwd,Nick_Dissertation_EX1,1,128,2020-04-22T10:48:41-07:00,6.5115299224854,1,versionA_stim.csv,READVersionA.csv,"Read Version A","Dissertation, read only version A",SUGAR,RIDDLE,Study1,U,81,78,Test,User,-,,Recall,Recall1,5820,sweet,18.181818181818,4720,5616,0,0,,1
w214961B.A.C,sozj35ejwd,Nick_Dissertation_EX1,1,129,2020-04-22T10:48:48-07:00,6.9592580795288,1,versionA_stim.csv,READVersionA.csv,"Read Version A","Dissertation, read only version A",ALLOW,TUCK,Study1,U,78,68,Test,User,-,,Recall,Recall1,6623,permit,20,5462,6304,0,0,,1
w214961B.A.C,sozj35ejwd,Nick_Dissertation_EX1,1,130,2020-04-22T10:49:11-07:00,22.508877038956,1,versionA_stim.csv,READVersionA.csv,"Read Version A","Dissertation, read only version A",HYGIENE,CLEAN,Study1,F,17,75,Test,User,-,,Recall,Recall1,22118,"stink ",20,14620,21864,0,0,,1
w214961B.A.C,sozj35ejwd,Nick_Dissertation_EX1,1,131,2020-04-22T10:49:27-07:00,16.292150020599,1,versionA_stim.csv,READVersionA.csv,"Read Version A","Dissertation, read only version A",LETTUCE,SALAD,Study1,S,59,35,Test,User,-,,Recall,Recall1,15858,tomato,18.181818181818,14279,15570,0,0,,1
w214961B.A.C,sozj35ejwd,Nick_Dissertation_EX1,1,132,2020-04-22T10:49:30-07:00,3.3459959030151,1,versionA_stim.csv,READVersionA.csv,"Read Version A","Dissertation, read only version A",TUNA,FISH,Study1,F,25,18,Test,User,-,,Recall,Recall1,3018,fish,100,1802,2756,1,1,,1
w214961B.A.C,sozj35ejwd,Nick_Dissertation_EX1,1,133,2020-04-22T10:49:35-07:00,5.0018639564514,1,versionA_stim.csv,READVersionA.csv,"Read Version A","Dissertation, read only version A",SHOE,FOOT,Study1,S,60,76,Test,User,-,,Recall,Recall1,4707,heel,0,3924,4398,0,0,,1
w214961B.A.C,sozj35ejwd,Nick_Dissertation_EX1,1,134,2020-04-22T10:49:45-07:00,9.8331940174103,1,versionA_stim.csv,READVersionA.csv,"Read Version A","Dissertation, read only version A",SMELL,STENCH,Study1,B,42,10,Test,User,-,,Recall,Recall1,9537,,0,-1,-1,0,0,,1
w214961B.A.C,sozj35ejwd,Nick_Dissertation_EX1,1,135,2020-04-22T10:50:05-07:00,19.653795003891,1,versionA_stim.csv,READVersionA.csv,"Read Version A","Dissertation, read only version A",PAW,DOG,Study1,F,15,25,Test,User,-,,Recall,Recall1,19305,maker,0,12493,19029,0,0,,1
w214961B.A.C,sozj35ejwd,Nick_Dissertation_EX1,1,136,2020-04-22T10:50:22-07:00,17.246375083923,1,versionA_stim.csv,READVersionA.csv,"Read Version A","Dissertation, read only version A",NUMBER,AMOUNT,Study1,S,47,51,Test,User,-,,Recall,Recall1,16874,one,44.444444444444,7248,16700,0,0,,0.877
w214961B.A.C,sozj35ejwd,Nick_Dissertation_EX1,1,137,2020-04-22T10:50:51-07:00,29.31529712677,1,versionA_stim.csv,READVersionA.csv,"Read Version A","Dissertation, read only version A",DUE,ASSIGNMENT,Study1,S,46,80,Test,User,-,,Recall,Recall1,28952,process,23.529411764706,6023,28804,0,0,,0.92
w214961B.A.C,sozj35ejwd,Nick_Dissertation_EX1,1,138,2020-04-22T10:50:56-07:00,4.9681739807129,1,versionA_stim.csv,READVersionA.csv,"Read Version A","Dissertation, read only version A",FIRE,BLAZE,Study1,B,45,12,Test,User,-,,Recall,Recall1,4638,water,40,3767,4443,0,0,,1
w214961B.A.C,sozj35ejwd,Nick_Dissertation_EX1,1,139,2020-04-22T10:51:09-07:00,13.116626977921,1,versionA_stim.csv,READVersionA.csv,"Read Version A","Dissertation, read only version A",EDITOR,NEWS,Study1,F,10,11,Test,User,-,,Recall,Recall1,12719,"publisher ",15.384615384615,3523,12476,0,0,,1
w214961B.A.C,sozj35ejwd,Nick_Dissertation_EX1,1,140,2020-04-22T10:51:16-07:00,6.6256439685822,1,versionA_stim.csv,READVersionA.csv,"Read Version A","Dissertation, read only version A",PAST,FUTURE,Study1,S,61,81,Test,User,-,,Recall,Recall1,6294,fuller,50,4572,5970,0,0,,1
w214961B.A.C,sozj35ejwd,Nick_Dissertation_EX1,1,141,2020-04-22T10:51:20-07:00,4.3664228916168,1,versionA_stim.csv,READVersionA.csv,"Read Version A","Dissertation, read only version A",HEIGHT,GROWTH,Study1,B,30,27,Test,User,-,,Recall,Recall1,4071,weight,33.333333333333,2052,3755,0,0,,1
w214961B.A.C,sozj35ejwd,Nick_Dissertation_EX1,1,142,2020-04-22T10:51:43-07:00,22.891302108765,1,versionA_stim.csv,READVersionA.csv,"Read Version A","Dissertation, read only version A",BALL,RACKET,Study1,B,38,34,Test,User,-,,Recall,Recall1,22528,court,36.363636363636,18164,22287,0,0,,1
w214961B.A.C,sozj35ejwd,Nick_Dissertation_EX1,1,143,2020-04-22T10:51:45-07:00,1.3218379020691,1,versionA_stim.csv,READVersionA.csv,"Read Version A","Dissertation, read only version A",REVOLUTION,WAR,Study1,F,20,67,Test,User,-,,Recall,Recall1,974,,0,-1,-1,0,0,,1
w214961B.A.C,sozj35ejwd,Nick_Dissertation_EX1,1,144,2020-04-22T10:51:48-07:00,3.2160749435425,1,versionA_stim.csv,READVersionA.csv,"Read Version A","Dissertation, read only version A",HAPPY,CAR,Study1,U,77,74,Test,User,-,,Recall,Recall1,2889,sad,33.333333333333,2323,2731,0,0,,1
w214961B.A.C,sozj35ejwd,Nick_Dissertation_EX1,1,145,2020-04-22T10:51:50-07:00,2.47523021698,1,versionA_stim.csv,READVersionA.csv,"Read Version A","Dissertation, read only version A",ROOT,PLANT,Study1,F,13,29,Test,User,-,,Recall,Recall1,2098,,0,-1,-1,0,0,,1
w214961B.A.C,sozj35ejwd,Nick_Dissertation_EX1,1,146,2020-04-22T10:51:55-07:00,4.8547468185425,1,versionA_stim.csv,READVersionA.csv,"Read Version A","Dissertation, read only version A",FIX,HAND,Study1,U,75,64,Test,User,-,,Recall,Recall1,4544,broke,0,3322,4346,0,0,,1
w214961B.A.C,sozj35ejwd,Nick_Dissertation_EX1,1,147,2020-04-22T10:52:02-07:00,6.4514110088348,1,versionA_stim.csv,READVersionA.csv,"Read Version A","Dissertation, read only version A",BLOW,WIND,Study1,S,55,82,Test,User,-,,Recall,Recall1,5979,"it in the wind",44.444444444444,1765,5842,0,0,,1
w214961B.A.C,sozj35ejwd,Nick_Dissertation_EX1,1,148,2020-04-22T10:52:05-07:00,3.1411271095276,1,versionA_stim.csv,READVersionA.csv,"Read Version A","Dissertation, read only version A",DEBATE,SIGHT,Study1,U,73,66,Test,User,-,,Recall,Recall1,2847,team,22.222222222222,1541,2598,0,0,,1
w214961B.A.C,sozj35ejwd,Nick_Dissertation_EX1,1,149,2020-04-22T10:52:08-07:00,3.0922060012817,1,versionA_stim.csv,READVersionA.csv,"Read Version A","Dissertation, read only version A",KIDNEY,LIVER,Study1,S,53,41,Test,User,-,,Recall,Recall1,2796,liver,100,1773,2596,1,1,,1
w214961B.A.C,sozj35ejwd,Nick_Dissertation_EX1,1,150,2020-04-22T10:52:10-07:00,2.2805619239807,1,versionA_stim.csv,READVersionA.csv,"Read Version A","Dissertation, read only version A",MACHINE,POSITION,Study1,U,76,54,Test,User,-,,Recall,Recall1,1973,time,33.333333333333,1362,1731,0,0,,1
w214961B.A.C,sozj35ejwd,Nick_Dissertation_EX1,1,151,2020-04-22T10:52:11-07:00,1.0224170684814,1,versionA_stim.csv,READVersionA.csv,"Read Version A","Dissertation, read only version A",DIETARY,SACKING,Study1,U,67,61,Test,User,-,,Recall,Recall1,1973,time,18.181818181818,1362,1731,0,0,,1
w214961B.A.C,sozj35ejwd,Nick_Dissertation_EX1,1,152,2020-04-22T10:52:15-07:00,3.9643199443817,1,versionA_stim.csv,READVersionA.csv,"Read Version A","Dissertation, read only version A",LIFT,WOMAN,Study1,U,69,23,Test,User,-,,Recall,Recall1,4626,supplement,26.666666666667,1557,4284,0,0,,1
w214961B.A.C,sozj35ejwd,Nick_Dissertation_EX1,1,153,2020-04-22T10:52:18-07:00,2.6602740287781,1,versionA_stim.csv,READVersionA.csv,"Read Version A","Dissertation, read only version A",DRINK,SIP,Study1,B,27,57,Test,User,-,,Recall,Recall1,2354,"water ",0,1101,1940,0,0,,1
w214961B.A.C,sozj35ejwd,Nick_Dissertation_EX1,1,154,2020-04-22T10:52:21-07:00,2.9064390659332,1,versionA_stim.csv,READVersionA.csv,"Read Version A","Dissertation, read only version A",WORK,CHORE,Study1,B,39,48,Test,User,-,,Recall,Recall1,2605,"hard ",44.444444444444,1556,2353,0,0,,1
w214961B.A.C,sozj35ejwd,Nick_Dissertation_EX1,1,155,2020-04-22T10:52:25-07:00,4.5511388778687,1,versionA_stim.csv,READVersionA.csv,"Read Version A","Dissertation, read only version A",DISCUSSION,TALK,Study1,F,21,13,Test,User,-,,Recall,Recall1,3918,sentence,16.666666666667,2112,3574,0,0,,1
w214961B.A.C,sozj35ejwd,Nick_Dissertation_EX1,1,156,2020-04-22T10:52:28-07:00,3.1213459968567,1,versionA_stim.csv,READVersionA.csv,"Read Version A","Dissertation, read only version A",PUSHER,CLUTTER,Study1,U,66,62,Test,User,-,,Recall,Recall1,2780,maker,33.333333333333,1934,2523,0,0,,1
w214961B.A.C,sozj35ejwd,Nick_Dissertation_EX1,1,157,2020-04-22T10:52:30-07:00,1.2309031486511,1,versionA_stim.csv,READVersionA.csv,"Read Version A","Dissertation, read only version A",HERD,COW,Study1,F,22,70,Test,User,-,,Recall,Recall1,912,,0,-1,-1,0,0,,1
w214961B.A.C,sozj35ejwd,Nick_Dissertation_EX1,1,158,2020-04-22T10:52:41-07:00,11.547499895096,1,versionA_stim.csv,READVersionA.csv,"Read Version A","Dissertation, read only version A",BATHROOM,TOILET,Study1,S,58,50,Test,User,-,,Recall,Recall1,10933,restroom,28.571428571429,6508,10657,0,0,,1
w214961B.A.C,sozj35ejwd,Nick_Dissertation_EX1,1,159,2020-04-22T10:52:42-07:00,1.2112169265747,1,versionA_stim.csv,READVersionA.csv,"Read Version A","Dissertation, read only version A",ARCHITECTURE,DESIGN,Study1,S,51,69,Test,User,-,,Recall,Recall1,910,,0,-1,-1,0,0,,1
w214961B.A.C,sozj35ejwd,Nick_Dissertation_EX1,1,160,2020-04-22T10:54:19-07:00,96.701745986938,1,versionA_stim.csv,READVersionA.csv,"Read Version A","Dissertation, read only version A",HIDE,SICK,Study1,U,84,38,Test,User,-,,Recall,Recall1,96287,seek,50,95625,96080,0,0,,1
w214961B.A.C,sozj35ejwd,Nick_Dissertation_EX1,1,161,2020-04-22T10:54:24-07:00,5.1942181587219,1,versionA_stim.csv,READVersionA.csv,"Read Version A","Dissertation, read only version A",STRONG,ACCIDENT,Study1,U,80,32,Test,User,-,,Recall,Recall1,4886,weak,16.666666666667,3186,4671,0,0,,1
w214961B.A.C,sozj35ejwd,Nick_Dissertation_EX1,1,162,2020-04-22T10:54:29-07:00,4.9563329219818,1,versionA_stim.csv,READVersionA.csv,"Read Version A","Dissertation, read only version A",WAY,OUT,Study1,F,16,53,Test,User,-,,Recall,Recall1,4619,ahead,0,2173,4437,0,0,,1
w214961B.A.C,sozj35ejwd,Nick_Dissertation_EX1,1,163,2020-04-22T10:54:34-07:00,4.6997680664062,1,versionA_stim.csv,READVersionA.csv,"Read Version A","Dissertation, read only version A",POP,SODA,Study1,S,56,65,Test,User,-,,Recall,Recall1,4381,,0,-1,-1,0,0,,1
w214961B.A.C,sozj35ejwd,Nick_Dissertation_EX1,1,164,2020-04-22T10:54:38-07:00,3.7096388339996,1,versionA_stim.csv,READVersionA.csv,"Read Version A","Dissertation, read only version A",GREAT,FANTASTIC,Study1,B,35,16,Test,User,-,,Recall,Recall1,3387,good,0,2582,3023,0,0,,1
w214961B.A.C,sozj35ejwd,Nick_Dissertation_EX1,1,165,2020-04-22T10:54:39-07:00,1.0017211437225,1,versionA_stim.csv,READVersionA.csv,"Read Version A","Dissertation, read only version A",ARTERY,BRONZE,Study1,U,74,22,Test,User,-,,Recall,Recall1,709,,0,-1,-1,0,0,,1
w214961B.A.C,sozj35ejwd,Nick_Dissertation_EX1,1,166,2020-04-22T10:54:40-07:00,1.5465409755707,1,versionA_stim.csv,READVersionA.csv,"Read Version A","Dissertation, read only version A",HORNET,STING,Study1,F,11,31,Test,User,-,,Recall,Recall1,1245,,0,-1,-1,0,0,,1
w214961B.A.C,sozj35ejwd,Nick_Dissertation_EX1,1,167,2020-04-22T10:54:41-07:00,1.3112390041351,1,versionA_stim.csv,READVersionA.csv,"Read Version A","Dissertation, read only version A",BITTER,COLD,Study1,F,12,7,Test,User,-,,Recall,Recall1,1011,,0,-1,-1,0,0,,1
w214961B.A.C,sozj35ejwd,Nick_Dissertation_EX1,1,168,2020-04-22T10:54:47-07:00,5.4079759120941,1,versionA_stim.csv,READVersionA.csv,"Read Version A","Dissertation, read only version A",KEY,LATCH,Study1,B,36,44,Test,User,-,,Recall,Recall1,5116,,0,-1,-1,0,0,,1
w214961B.A.C,sozj35ejwd,Nick_Dissertation_EX1,1,169,2020-04-22T10:54:50-07:00,2.6749560832977,1,versionA_stim.csv,READVersionA.csv,"Read Version A","Dissertation, read only version A",CREDIT,CARD,Study1,F,23,58,Test,User,-,,Recall,Recall1,2360,score,44.444444444444,1401,2011,0,0,,1
w214961B.A.C,sozj35ejwd,Nick_Dissertation_EX1,1,170,2020-04-22T10:55:00-07:00,10.208946943283,1,versionA_stim.csv,READVersionA.csv,"Read Version A","Dissertation, read only version A",CIRCLE,ROUND,Study1,S,65,84,Test,User,-,,Recall,Recall1,9857,"in between ",13.333333333333,1844,9598,0,0,,1
w214961B.A.C,sozj35ejwd,Nick_Dissertation_EX1,1,171,2020-04-22T10:55:01-07:00,1.1027150154114,1,versionA_stim.csv,READVersionA.csv,"Read Version A","Dissertation, read only version A",VALLEY,ADD,Study1,U,82,24,Test,User,-,,Recall,Recall1,790,,0,-1,-1,0,0,,1
w214961B.A.C,sozj35ejwd,Nick_Dissertation_EX1,1,172,2020-04-22T10:55:02-07:00,1.114107131958,1,versionA_stim.csv,READVersionA.csv,"Read Version A","Dissertation, read only version A",DUMP,WASTE,Study1,S,49,46,Test,User,-,,Recall,Recall1,802,,0,-1,-1,0,0,,1
w214961B.A.C,sozj35ejwd,Nick_Dissertation_EX1,1,173,2020-04-22T10:55:03-07:00,1.4025838375092,1,versionA_stim.csv,READVersionA.csv,"Read Version A","Dissertation, read only version A",TAKE,SEIZE,Study1,B,29,17,Test,User,-,,Recall,Recall1,1093,,0,-1,-1,0,0,,1
w214961B.A.C,sozj35ejwd,Nick_Dissertation_EX1,1,174,2020-04-22T10:55:12-07:00,8.3182921409607,1,versionA_stim.csv,READVersionA.csv,"Read Version A","Dissertation, read only version A",BEGIN,END,Study1,S,54,71,Test,User,-,,Recall,Recall1,7830,"between ",40,4241,7589,0,0,,1
w214961B.A.C,sozj35ejwd,Nick_Dissertation_EX1,1,175,2020-04-22T10:55:27-07:00,15.146238803864,1,versionA_stim.csv,READVersionA.csv,"Read Version A","Dissertation, read only version A",,,,,,0,Instruct,-,10,"You will now be presented with a new set of word pairs. Please study each pair. Remember that your memory will be tested! When finished, press Enter to move to the next pair.",Initial_Instruct,Instruct4,14749,,,-1,-1,,,,0.912
w214961B.A.C,sozj35ejwd,Nick_Dissertation_EX1,1,176,2020-04-22T10:55:29-07:00,2.2470400333405,1,versionA_stim.csv,READVersionA.csv,"Read Version A","Dissertation, read only version A",ICE,FROZEN,BUFFER3,Buffer,94,95,Study,User,-,,Study/JOL,BUFFER3,1917,,,-1,-1,,,,1
w214961B.A.C,sozj35ejwd,Nick_Dissertation_EX1,1,177,2020-04-22T10:55:30-07:00,0.75938606262207,1,versionA_stim.csv,READVersionA.csv,"Read Version A","Dissertation, read only version A",CAMP,ADVENTURE,BUFFER3,Buffer,95,96,Study,User,-,,Study/JOL,BUFFER3,460,,,-1,-1,,,,1
w214961B.A.C,sozj35ejwd,Nick_Dissertation_EX1,1,178,2020-04-22T10:55:30-07:00,0.26788306236267,1,versionA_stim.csv,READVersionA.csv,"Read Version A","Dissertation, read only version A",SHRIMP,FISH,BUFFER3,Buffer,93,93,Study,User,-,,Study/JOL,BUFFER3,1917,,,-1,-1,,,,1
w214961B.A.C,sozj35ejwd,Nick_Dissertation_EX1,1,179,2020-04-22T10:55:31-07:00,0.59616589546204,1,versionA_stim.csv,READVersionA.csv,"Read Version A","Dissertation, read only version A",NOODLE,STRING,BUFFER3,Buffer,92,92,Study,User,-,,Study/JOL,BUFFER3,472,,,-1,-1,,,,1
w214961B.A.C,sozj35ejwd,Nick_Dissertation_EX1,1,180,2020-04-22T10:55:32-07:00,1.2056729793549,1,versionA_stim.csv,READVersionA.csv,"Read Version A","Dissertation, read only version A",CARROT,POTATO,BUFFER3,Buffer,91,94,Study,User,-,,Study/JOL,BUFFER3,690,,,-1,-1,,,,1
w214961B.A.C,sozj35ejwd,Nick_Dissertation_EX1,1,181,2020-04-22T10:55:37-07:00,4.7590961456299,1,versionA_stim.csv,READVersionA.csv,"Read Version A","Dissertation, read only version A",BOTH,OUNCE,Study2,U,172,108,Study,User,-,,Study/JOL,"Study Phase2",2223,,,-1,-1,,,,1
w214961B.A.C,sozj35ejwd,Nick_Dissertation_EX1,1,182,2020-04-22T10:55:38-07:00,0.95029592514038,1,versionA_stim.csv,READVersionA.csv,"Read Version A","Dissertation, read only version A",PHONE,COMMUNICATION,Study2,S,149,152,Study,User,-,,Study/JOL,"Study Phase2",578,,,-1,-1,,,,1
w214961B.A.C,sozj35ejwd,Nick_Dissertation_EX1,1,183,2020-04-22T10:55:39-07:00,0.94035410881042,1,versionA_stim.csv,READVersionA.csv,"Read Version A","Dissertation, read only version A",CHILL,COLD,Study2,F,114,139,Study,User,-,,Study/JOL,"Study Phase2",604,,,-1,-1,,,,1
w214961B.A.C,sozj35ejwd,Nick_Dissertation_EX1,1,184,2020-04-22T10:55:39-07:00,0.85596585273743,1,versionA_stim.csv,READVersionA.csv,"Read Version A","Dissertation, read only version A",MASON,JAR,Study2,S,138,119,Study,User,-,,Study/JOL,"Study Phase2",525,,,-1,-1,,,,1
w214961B.A.C,sozj35ejwd,Nick_Dissertation_EX1,1,185,2020-04-22T10:55:40-07:00,0.79441905021667,1,versionA_stim.csv,READVersionA.csv,"Read Version A","Dissertation, read only version A",CHERRY,RED,Study2,F,104,134,Study,User,-,,Study/JOL,"Study Phase2",435,,,-1,-1,,,,1
w214961B.A.C,sozj35ejwd,Nick_Dissertation_EX1,1,186,2020-04-22T10:55:41-07:00,0.80011391639709,1,versionA_stim.csv,READVersionA.csv,"Read Version A","Dissertation, read only version A",FURRY,DOG,Study2,F,102,172,Study,User,-,,Study/JOL,"Study Phase2",468,,,-1,-1,,,,1
w214961B.A.C,sozj35ejwd,Nick_Dissertation_EX1,1,187,2020-04-22T10:55:42-07:00,1.2889761924744,1,versionA_stim.csv,READVersionA.csv,"Read Version A","Dissertation, read only version A",FIGHT,BRAWL,Study2,B,135,154,Study,User,-,,Study/JOL,"Study Phase2",992,,,-1,-1,,,,1
w214961B.A.C,sozj35ejwd,Nick_Dissertation_EX1,1,188,2020-04-22T10:55:43-07:00,0.70062279701233,1,versionA_stim.csv,READVersionA.csv,"Read Version A","Dissertation, read only version A",CRACKLE,ABLE,Study2,U,162,126,Study,User,-,,Study/JOL,"Study Phase2",374,,,-1,-1,,,,1
w214961B.A.C,sozj35ejwd,Nick_Dissertation_EX1,1,189,2020-04-22T10:55:44-07:00,1.0002181529999,1,versionA_stim.csv,READVersionA.csv,"Read Version A","Dissertation, read only version A",MAIN,SCAR,Study2,U,175,167,Study,User,-,,Study/JOL,"Study Phase2",655,,,-1,-1,,,,1
w214961B.A.C,sozj35ejwd,Nick_Dissertation_EX1,1,190,2020-04-22T10:55:45-07:00,0.75021886825562,1,versionA_stim.csv,READVersionA.csv,"Read Version A","Dissertation, read only version A",VEHICLE,CHARM,Study2,U,160,122,Study,User,-,,Study/JOL,"Study Phase2",293,,,-1,-1,,,,1
w214961B.A.C,sozj35ejwd,Nick_Dissertation_EX1,1,191,2020-04-22T10:55:46-07:00,1.3173050880432,1,versionA_stim.csv,READVersionA.csv,"Read Version A","Dissertation, read only version A",SCALP,HEAD,Study2,F,105,120,Study,User,-,,Study/JOL,"Study Phase2",1010,,,-1,-1,,,,1
w214961B.A.C,sozj35ejwd,Nick_Dissertation_EX1,1,192,2020-04-22T10:55:48-07:00,2.4412529468536,1,versionA_stim.csv,READVersionA.csv,"Read Version A","Dissertation, read only version A",SLEEP,NAP,Study2,B,134,102,Study,User,-,,Study/JOL,"Study Phase2",2107,,,-1,-1,,,,1
w214961B.A.C,sozj35ejwd,Nick_Dissertation_EX1,1,193,2020-04-22T10:55:49-07:00,0.054770946502686,1,versionA_stim.csv,READVersionA.csv,"Read Version A","Dissertation, read only version A",LEASE,TOIL,Study2,U,170,111,Study,User,-,,Study/JOL,"Study Phase2",2107,,,-1,-1,,,,1
w214961B.A.C,sozj35ejwd,Nick_Dissertation_EX1,1,194,2020-04-22T10:55:49-07:00,0.88357400894165,1,versionA_stim.csv,READVersionA.csv,"Read Version A","Dissertation, read only version A",LISTEN,FICTION,Study2,U,164,166,Study,User,-,,Study/JOL,"Study Phase2",539,,,-1,-1,,,,1
w214961B.A.C,sozj35ejwd,Nick_Dissertation_EX1,1,195,2020-04-22T10:55:50-07:00,0.86010503768921,1,versionA_stim.csv,READVersionA.csv,"Read Version A","Dissertation, read only version A",THREAD,THIMBLE,Study2,B,121,130,Study,User,-,,Study/JOL,"Study Phase2",533,,,-1,-1,,,,1
w214961B.A.C,sozj35ejwd,Nick_Dissertation_EX1,1,196,2020-04-22T10:55:53-07:00,2.2982439994812,1,versionA_stim.csv,READVersionA.csv,"Read Version A","Dissertation, read only version A",BEST,FAVORITE,Study2,B,125,148,Study,User,-,,Study/JOL,"Study Phase2",1883,,,-1,-1,,,,1
w214961B.A.C,sozj35ejwd,Nick_Dissertation_EX1,1,197,2020-04-22T10:55:54-07:00,1.0008330345154,1,versionA_stim.csv,READVersionA.csv,"Read Version A","Dissertation, read only version A",CACTUS,PLANT,Study2,F,98,155,Study,User,-,,Study/JOL,"Study Phase2",1883,,,-1,-1,,,,1
w214961B.A.C,sozj35ejwd,Nick_Dissertation_EX1,1,198,2020-04-22T10:55:54-07:00,0.81420707702637,1,versionA_stim.csv,READVersionA.csv,"Read Version A","Dissertation, read only version A",FRUIT,STRAWBERRY,Study2,B,124,168,Study,User,-,,Study/JOL,"Study Phase2",447,,,-1,-1,,,,1
w214961B.A.C,sozj35ejwd,Nick_Dissertation_EX1,1,199,2020-04-22T10:55:55-07:00,0.72348403930664,1,versionA_stim.csv,READVersionA.csv,"Read Version A","Dissertation, read only version A",CAKE,CLOTHES,Study2,U,166,157,Study,User,-,,Study/JOL,"Study Phase2",418,,,-1,-1,,,,1
w214961B.A.C,sozj35ejwd,Nick_Dissertation_EX1,1,200,2020-04-22T10:55:56-07:00,0.93411779403687,1,versionA_stim.csv,READVersionA.csv,"Read Version A","Dissertation, read only version A",MULE,DONKEY,Study2,F,108,174,Study,User,-,,Study/JOL,"Study Phase2",591,,,-1,-1,,,,1
w214961B.A.C,sozj35ejwd,Nick_Dissertation_EX1,1,201,2020-04-22T10:55:57-07:00,0.70913505554199,1,versionA_stim.csv,READVersionA.csv,"Read Version A","Dissertation, read only version A",GONE,AWAY,Study2,S,142,163,Study,User,-,,Study/JOL,"Study Phase2",400,,,-1,-1,,,,1
w214961B.A.C,sozj35ejwd,Nick_Dissertation_EX1,1,202,2020-04-22T10:55:58-07:00,1.0508580207825,1,versionA_stim.csv,READVersionA.csv,"Read Version A","Dissertation, read only version A",DOCUMENT,PAPER,Study2,F,109,115,Study,User,-,,Study/JOL,"Study Phase2",749,,,-1,-1,,,,1
w214961B.A.C,sozj35ejwd,Nick_Dissertation_EX1,1,203,2020-04-22T10:55:59-07:00,0.70429396629333,1,versionA_stim.csv,READVersionA.csv,"Read Version A","Dissertation, read only version A",TANTRUM,TEMPER,Study2,S,154,147,Study,User,-,,Study/JOL,"Study Phase2",379,,,-1,-1,,,,1
w214961B.A.C,sozj35ejwd,Nick_Dissertation_EX1,1,204,2020-04-22T10:55:59-07:00,0.69842410087585,1,versionA_stim.csv,READVersionA.csv,"Read Version A","Dissertation, read only version A",TEMPERATURE,Morning,Study2,U,173,112,Study,User,-,,Study/JOL,"Study Phase2",389,,,-1,-1,,,,1
w214961B.A.C,sozj35ejwd,Nick_Dissertation_EX1,1,205,2020-04-22T10:56:00-07:00,0.74802684783936,1,versionA_stim.csv,READVersionA.csv,"Read Version A","Dissertation, read only version A",LOUD,NOISE,Study2,S,152,164,Study,User,-,,Study/JOL,"Study Phase2",396,,,-1,-1,,,,1
w214961B.A.C,sozj35ejwd,Nick_Dissertation_EX1,1,206,2020-04-22T10:56:01-07:00,1.0199332237244,1,versionA_stim.csv,READVersionA.csv,"Read Version A","Dissertation, read only version A",CAT,PANTHER,Study2,B,126,127,Study,User,-,,Study/JOL,"Study Phase2",708,,,-1,-1,,,,1
w214961B.A.C,sozj35ejwd,Nick_Dissertation_EX1,1,207,2020-04-22T10:56:02-07:00,0.75010991096497,1,versionA_stim.csv,READVersionA.csv,"Read Version A","Dissertation, read only version A",FUZZY,BANG,Study2,U,168,165,Study,User,-,,Study/JOL,"Study Phase2",402,,,-1,-1,,,,1
w214961B.A.C,sozj35ejwd,Nick_Dissertation_EX1,1,208,2020-04-22T10:56:03-07:00,0.86000895500183,1,versionA_stim.csv,READVersionA.csv,"Read Version A","Dissertation, read only version A",MIRROR,CHILDREN,Study2,U,174,101,Study,User,-,,Study/JOL,"Study Phase2",547,,,-1,-1,,,,1
w214961B.A.C,sozj35ejwd,Nick_Dissertation_EX1,1,209,2020-04-22T10:56:03-07:00,0.68278503417969,1,versionA_stim.csv,READVersionA.csv,"Read Version A","Dissertation, read only version A",EXTENSION,LONG,Study2,F,96,133,Study,User,-,,Study/JOL,"Study Phase2",347,,,-1,-1,,,,1
w214961B.A.C,sozj35ejwd,Nick_Dissertation_EX1,1,210,2020-04-22T10:56:06-07:00,2.2624139785767,1,versionA_stim.csv,READVersionA.csv,"Read Version A","Dissertation, read only version A",JUSTICE,MAROON,Study2,U,156,142,Study,User,-,,Study/JOL,"Study Phase2",1897,,,-1,-1,,,,1
w214961B.A.C,sozj35ejwd,Nick_Dissertation_EX1,1,211,2020-04-22T10:56:06-07:00,0.67267489433289,1,versionA_stim.csv,READVersionA.csv,"Read Version A","Dissertation, read only version A",LITTER,TRASH,Study2,F,103,136,Study,User,-,,Study/JOL,"Study Phase2",364,,,-1,-1,,,,1
w214961B.A.C,sozj35ejwd,Nick_Dissertation_EX1,1,212,2020-04-22T10:56:07-07:00,0.3044581413269,1,versionA_stim.csv,READVersionA.csv,"Read Version A","Dissertation, read only version A",WRIST,BRACELET,Study2,S,140,131,Study,User,-,,Study/JOL,"Study Phase2",1897,,,-1,-1,,,,1
w214961B.A.C,sozj35ejwd,Nick_Dissertation_EX1,1,213,2020-04-22T10:56:07-07:00,0.47639894485474,1,versionA_stim.csv,READVersionA.csv,"Read Version A","Dissertation, read only version A",AFFECTION,LOVE,Study2,F,115,144,Study,User,-,,Study/JOL,"Study Phase2",396,,,-1,-1,,,,1
w214961B.A.C,sozj35ejwd,Nick_Dissertation_EX1,1,214,2020-04-22T10:56:08-07:00,0.9261109828949,1,versionA_stim.csv,READVersionA.csv,"Read Version A","Dissertation, read only version A",ADJOURN,END,Study2,F,101,169,Study,User,-,,Study/JOL,"Study Phase2",570,,,-1,-1,,,,1
w214961B.A.C,sozj35ejwd,Nick_Dissertation_EX1,1,215,2020-04-22T10:56:09-07:00,1.0970039367676,1,versionA_stim.csv,READVersionA.csv,"Read Version A","Dissertation, read only version A",WATER,DRINK,Study2,S,143,161,Study,User,-,,Study/JOL,"Study Phase2",738,,,-1,-1,,,,1
w214961B.A.C,sozj35ejwd,Nick_Dissertation_EX1,1,216,2020-04-22T10:56:10-07:00,0.84912800788879,1,versionA_stim.csv,READVersionA.csv,"Read Version A","Dissertation, read only version A",FEUD,FIGHT,Study2,F,113,118,Study,User,-,,Study/JOL,"Study Phase2",474,,,-1,-1,,,,1
w214961B.A.C,sozj35ejwd,Nick_Dissertation_EX1,1,217,2020-04-22T10:56:12-07:00,1.7389011383057,1,versionA_stim.csv,READVersionA.csv,"Read Version A","Dissertation, read only version A",KEYS,JOKE,Study2,U,165,137,Study,User,-,,Study/JOL,"Study Phase2",1421,,,-1,-1,,,,1
w214961B.A.C,sozj35ejwd,Nick_Dissertation_EX1,1,218,2020-04-22T10:56:12-07:00,0.53043007850647,1,versionA_stim.csv,READVersionA.csv,"Read Version A","Dissertation, read only version A",LOAN,SIGN,Study2,U,171,109,Study,User,-,,Study/JOL,"Study Phase2",188,,,-1,-1,,,,1
w214961B.A.C,sozj35ejwd,Nick_Dissertation_EX1,1,219,2020-04-22T10:56:13-07:00,0.41338181495667,1,versionA_stim.csv,READVersionA.csv,"Read Version A","Dissertation, read only version A",EARTH,GROUND,Study2,S,144,138,Study,User,-,,Study/JOL,"Study Phase2",112,,,-1,-1,,,,1
w214961B.A.C,sozj35ejwd,Nick_Dissertation_EX1,1,220,2020-04-22T10:56:13-07:00,0.71712803840637,1,versionA_stim.csv,READVersionA.csv,"Read Version A","Dissertation, read only version A",Shell,SHAKE,Study2,U,163,151,Study,User,-,,Study/JOL,"Study Phase2",356,,,-1,-1,,,,1
w214961B.A.C,sozj35ejwd,Nick_Dissertation_EX1,1,221,2020-04-22T10:56:14-07:00,0.8500509262085,1,versionA_stim.csv,READVersionA.csv,"Read Version A","Dissertation, read only version A",MOAT,CLEAR,Study2,U,169,176,Study,User,-,,Study/JOL,"Study Phase2",524,,,-1,-1,,,,1
w214961B.A.C,sozj35ejwd,Nick_Dissertation_EX1,1,222,2020-04-22T10:56:15-07:00,0.40359902381897,1,versionA_stim.csv,READVersionA.csv,"Read Version A","Dissertation, read only version A",ELEMENT,CARBON,Study2,S,141,146,Study,User,-,,Study/JOL,"Study Phase2",113,,,-1,-1,,,,1
w214961B.A.C,sozj35ejwd,Nick_Dissertation_EX1,1,223,2020-04-22T10:56:15-07:00,0.82692718505859,1,versionA_stim.csv,READVersionA.csv,"Read Version A","Dissertation, read only version A",SHOELACE,TIE,Study2,F,99,143,Study,User,-,,Study/JOL,"Study Phase2",510,,,-1,-1,,,,1
w214961B.A.C,sozj35ejwd,Nick_Dissertation_EX1,1,224,2020-04-22T10:56:16-07:00,0.87725186347961,1,versionA_stim.csv,READVersionA.csv,"Read Version A","Dissertation, read only version A",TRUTH,LIE,Study2,S,148,114,Study,User,-,,Study/JOL,"Study Phase2",386,,,-1,-1,,,,1
w214961B.A.C,sozj35ejwd,Nick_Dissertation_EX1,1,225,2020-04-22T10:56:17-07:00,0.77822303771973,1,versionA_stim.csv,READVersionA.csv,"Read Version A","Dissertation, read only version A",DRY,WET,Study2,S,146,171,Study,User,-,,Study/JOL,"Study Phase2",364,,,-1,-1,,,,1
w214961B.A.C,sozj35ejwd,Nick_Dissertation_EX1,1,226,2020-04-22T10:56:17-07:00,0.44138503074646,1,versionA_stim.csv,READVersionA.csv,"Read Version A","Dissertation, read only version A",SUN,TAN,Study2,S,155,150,Study,User,-,,Study/JOL,"Study Phase2",115,,,-1,-1,,,,1
w214961B.A.C,sozj35ejwd,Nick_Dissertation_EX1,1,227,2020-04-22T10:56:18-07:00,0.46209597587585,1,versionA_stim.csv,READVersionA.csv,"Read Version A","Dissertation, read only version A",OWN,HAVE,Study2,S,153,129,Study,User,-,,Study/JOL,"Study Phase2",125,,,-1,-1,,,,1
w214961B.A.C,sozj35ejwd,Nick_Dissertation_EX1,1,228,2020-04-22T10:56:19-07:00,0.81340909004211,1,versionA_stim.csv,READVersionA.csv,"Read Version A","Dissertation, read only version A",STAR,ACTRESS,Study2,B,120,121,Study,User,-,,Study/JOL,"Study Phase2",474,,,-1,-1,,,,1
w214961B.A.C,sozj35ejwd,Nick_Dissertation_EX1,1,229,2020-04-22T10:56:19-07:00,0.50740385055542,1,versionA_stim.csv,READVersionA.csv,"Read Version A","Dissertation, read only version A",MONEY,BANKER,Study2,B,132,124,Study,User,-,,Study/JOL,"Study Phase2",179,,,-1,-1,,,,1
w214961B.A.C,sozj35ejwd,Nick_Dissertation_EX1,1,230,2020-04-22T10:56:20-07:00,0.53807711601257,1,versionA_stim.csv,READVersionA.csv,"Read Version A","Dissertation, read only version A",ALONE,LONELY,Study2,S,145,140,Study,User,-,,Study/JOL,"Study Phase2",212,,,-1,-1,,,,1
w214961B.A.C,sozj35ejwd,Nick_Dissertation_EX1,1,231,2020-04-22T10:56:20-07:00,0.63316893577576,1,versionA_stim.csv,READVersionA.csv,"Read Version A","Dissertation, read only version A",INCENSE,SMELL,Study2,F,110,158,Study,User,-,,Study/JOL,"Study Phase2",280,,,-1,-1,,,,1
w214961B.A.C,sozj35ejwd,Nick_Dissertation_EX1,1,232,2020-04-22T10:56:21-07:00,0.6563708782196,1,versionA_stim.csv,READVersionA.csv,"Read Version A","Dissertation, read only version A",CAR,WINDSHIELD,Study2,B,117,141,Study,User,-,,Study/JOL,"Study Phase2",319,,,-1,-1,,,,1
w214961B.A.C,sozj35ejwd,Nick_Dissertation_EX1,1,233,2020-04-22T10:56:22-07:00,0.55137300491333,1,versionA_stim.csv,READVersionA.csv,"Read Version A","Dissertation, read only version A",MEAT,OBTAIN,Study2,U,161,103,Study,User,-,,Study/JOL,"Study Phase2",245,,,-1,-1,,,,1
w214961B.A.C,sozj35ejwd,Nick_Dissertation_EX1,1,234,2020-04-22T10:56:22-07:00,0.72852301597595,1,versionA_stim.csv,READVersionA.csv,"Read Version A","Dissertation, read only version A",GLASS,BREAKABLE,Study2,B,127,125,Study,User,-,,Study/JOL,"Study Phase2",343,,,-1,-1,,,,1
w214961B.A.C,sozj35ejwd,Nick_Dissertation_EX1,1,235,2020-04-22T10:56:23-07:00,0.63553619384766,1,versionA_stim.csv,READVersionA.csv,"Read Version A","Dissertation, read only version A",HONEST,TRUTHFUL,Study2,B,133,132,Study,User,-,,Study/JOL,"Study Phase2",281,,,-1,-1,,,,1
w214961B.A.C,sozj35ejwd,Nick_Dissertation_EX1,1,236,2020-04-22T10:56:26-07:00,2.7998828887939,1,versionA_stim.csv,READVersionA.csv,"Read Version A","Dissertation, read only version A",RAZOR,SHAVE,Study2,S,136,128,Study,User,-,,Study/JOL,"Study Phase2",2431,,,-1,-1,,,,1
w214961B.A.C,sozj35ejwd,Nick_Dissertation_EX1,1,237,2020-04-22T10:56:27-07:00,1.1508550643921,1,versionA_stim.csv,READVersionA.csv,"Read Version A","Dissertation, read only version A",DETECTIVE,MYSTERY,Study2,F,100,113,Study,User,-,,Study/JOL,"Study Phase2",357,,,-1,-1,,,,1
w214961B.A.C,sozj35ejwd,Nick_Dissertation_EX1,1,238,2020-04-22T10:56:28-07:00,1.1710519790649,1,versionA_stim.csv,READVersionA.csv,"Read Version A","Dissertation, read only version A",DINE,EAT,Study2,F,111,173,Study,User,-,,Study/JOL,"Study Phase2",351,,,-1,-1,,,,1
w214961B.A.C,sozj35ejwd,Nick_Dissertation_EX1,1,239,2020-04-22T10:56:29-07:00,1.1402859687805,1,versionA_stim.csv,READVersionA.csv,"Read Version A","Dissertation, read only version A",POP,BALLOON,Study2,B,123,175,Study,User,-,,Study/JOL,"Study Phase2",421,,,-1,-1,,,,1
w214961B.A.C,sozj35ejwd,Nick_Dissertation_EX1,1,240,2020-04-22T10:56:30-07:00,0.75562691688538,1,versionA_stim.csv,READVersionA.csv,"Read Version A","Dissertation, read only version A",PLANE,AIRCRAFT,Study2,B,129,117,Study,User,-,,Study/JOL,"Study Phase2",445,,,-1,-1,,,,1
w214961B.A.C,sozj35ejwd,Nick_Dissertation_EX1,1,241,2020-04-22T10:56:31-07:00,0.64310598373413,1,versionA_stim.csv,READVersionA.csv,"Read Version A","Dissertation, read only version A",DRIVER,CAR,Study2,F,106,110,Study,User,-,,Study/JOL,"Study Phase2",352,,,-1,-1,,,,1
w214961B.A.C,sozj35ejwd,Nick_Dissertation_EX1,1,242,2020-04-22T10:56:31-07:00,0.87003421783447,1,versionA_stim.csv,READVersionA.csv,"Read Version A","Dissertation, read only version A",GIVE,STEAK,Study2,U,158,160,Study,User,-,,Study/JOL,"Study Phase2",565,,,-1,-1,,,,1
w214961B.A.C,sozj35ejwd,Nick_Dissertation_EX1,1,243,2020-04-22T10:56:32-07:00,0.60442280769348,1,versionA_stim.csv,READVersionA.csv,"Read Version A","Dissertation, read only version A",BAD,VILLAIN,Study2,B,118,97,Study,User,-,,Study/JOL,"Study Phase2",306,,,-1,-1,,,,1
w214961B.A.C,sozj35ejwd,Nick_Dissertation_EX1,1,244,2020-04-22T10:56:33-07:00,0.5720009803772,1,versionA_stim.csv,READVersionA.csv,"Read Version A","Dissertation, read only version A",RIGHTS,EQUAL,Study2,S,137,105,Study,User,-,,Study/JOL,"Study Phase2",258,,,-1,-1,,,,1
w214961B.A.C,sozj35ejwd,Nick_Dissertation_EX1,1,245,2020-04-22T10:56:33-07:00,0.81186819076538,1,versionA_stim.csv,READVersionA.csv,"Read Version A","Dissertation, read only version A",BASEBALL,LEAGUE,Study2,B,131,104,Study,User,-,,Study/JOL,"Study Phase2",498,,,-1,-1,,,,1
w214961B.A.C,sozj35ejwd,Nick_Dissertation_EX1,1,246,2020-04-22T10:56:34-07:00,0.84764099121094,1,versionA_stim.csv,READVersionA.csv,"Read Version A","Dissertation, read only version A",CLUE,GAME,Study2,F,97,156,Study,User,-,,Study/JOL,"Study Phase2",499,,,-1,-1,,,,1
w214961B.A.C,sozj35ejwd,Nick_Dissertation_EX1,1,247,2020-04-22T10:56:35-07:00,0.65079689025879,1,versionA_stim.csv,READVersionA.csv,"Read Version A","Dissertation, read only version A",STRETCH,CLOTH,Study2,U,157,107,Study,User,-,,Study/JOL,"Study Phase2",344,,,-1,-1,,,,1
w214961B.A.C,sozj35ejwd,Nick_Dissertation_EX1,1,248,2020-04-22T10:56:36-07:00,1.0644690990448,1,versionA_stim.csv,READVersionA.csv,"Read Version A","Dissertation, read only version A",TURN,FLIP,Study2,B,116,135,Study,User,-,,Study/JOL,"Study Phase2",756,,,-1,-1,,,,1
w214961B.A.C,sozj35ejwd,Nick_Dissertation_EX1,1,249,2020-04-22T10:56:37-07:00,0.66374897956848,1,versionA_stim.csv,READVersionA.csv,"Read Version A","Dissertation, read only version A",FISH,SARDINE,Study2,B,130,159,Study,User,-,,Study/JOL,"Study Phase2",354,,,-1,-1,,,,1
w214961B.A.C,sozj35ejwd,Nick_Dissertation_EX1,1,250,2020-04-22T10:56:37-07:00,0.46907782554626,1,versionA_stim.csv,READVersionA.csv,"Read Version A","Dissertation, read only version A",SAFETY,SEATBELT,Study2,S,147,99,Study,User,-,,Study/JOL,"Study Phase2",148,,,-1,-1,,,,1
w214961B.A.C,sozj35ejwd,Nick_Dissertation_EX1,1,251,2020-04-22T10:56:38-07:00,1.1520020961761,1,versionA_stim.csv,READVersionA.csv,"Read Version A","Dissertation, read only version A",ROD,REEL,Study2,S,150,170,Study,User,-,,Study/JOL,"Study Phase2",395,,,-1,-1,,,,1
w214961B.A.C,sozj35ejwd,Nick_Dissertation_EX1,1,252,2020-04-22T10:56:39-07:00,0.43638491630554,1,versionA_stim.csv,READVersionA.csv,"Read Version A","Dissertation, read only version A",NAME,HATE,Study2,U,167,98,Study,User,-,,Study/JOL,"Study Phase2",99,,,-1,-1,,,,1
w214961B.A.C,sozj35ejwd,Nick_Dissertation_EX1,1,253,2020-04-22T10:56:39-07:00,0.51972913742065,1,versionA_stim.csv,READVersionA.csv,"Read Version A","Dissertation, read only version A",SHEARS,SCISSORS,Study2,F,112,116,Study,User,-,,Study/JOL,"Study Phase2",155,,,-1,-1,,,,1
w214961B.A.C,sozj35ejwd,Nick_Dissertation_EX1,1,254,2020-04-22T10:56:40-07:00,0.84026193618774,1,versionA_stim.csv,READVersionA.csv,"Read Version A","Dissertation, read only version A",CHOP,CUT,Study2,F,107,106,Study,User,-,,Study/JOL,"Study Phase2",498,,,-1,-1,,,,1
w214961B.A.C,sozj35ejwd,Nick_Dissertation_EX1,1,255,2020-04-22T10:56:41-07:00,0.67034101486206,1,versionA_stim.csv,READVersionA.csv,"Read Version A","Dissertation, read only version A",CANDLE,WAX,Study2,S,139,149,Study,User,-,,Study/JOL,"Study Phase2",352,,,-1,-1,,,,1
w214961B.A.C,sozj35ejwd,Nick_Dissertation_EX1,1,256,2020-04-22T10:56:42-07:00,0.79477596282959,1,versionA_stim.csv,READVersionA.csv,"Read Version A","Dissertation, read only version A",BIRD,PENGUIN,Study2,B,119,145,Study,User,-,,Study/JOL,"Study Phase2",476,,,-1,-1,,,,1
w214961B.A.C,sozj35ejwd,Nick_Dissertation_EX1,1,257,2020-04-22T10:56:42-07:00,0.67555212974548,1,versionA_stim.csv,READVersionA.csv,"Read Version A","Dissertation, read only version A",FLEA,TICK,Study2,S,151,100,Study,User,-,,Study/JOL,"Study Phase2",358,,,-1,-1,,,,1
w214961B.A.C,sozj35ejwd,Nick_Dissertation_EX1,1,258,2020-04-22T10:56:43-07:00,0.64083790779114,1,versionA_stim.csv,READVersionA.csv,"Read Version A","Dissertation, read only version A",EVEN,REVENGE,Study2,B,122,162,Study,User,-,,Study/JOL,"Study Phase2",278,,,-1,-1,,,,1
w214961B.A.C,sozj35ejwd,Nick_Dissertation_EX1,1,259,2020-04-22T10:56:44-07:00,0.61595392227173,1,versionA_stim.csv,READVersionA.csv,"Read Version A","Dissertation, read only version A",MAZE,ELECTION,Study2,U,159,123,Study,User,-,,Study/JOL,"Study Phase2",266,,,-1,-1,,,,1
w214961B.A.C,sozj35ejwd,Nick_Dissertation_EX1,1,260,2020-04-22T10:56:44-07:00,0.78693819046021,1,versionA_stim.csv,READVersionA.csv,"Read Version A","Dissertation, read only version A",DEAD,COFFIN,Study2,B,128,153,Study,User,-,,Study/JOL,"Study Phase2",422,,,-1,-1,,,,1
w214961B.A.C,sozj35ejwd,Nick_Dissertation_EX1,1,261,2020-04-22T10:56:45-07:00,0.70208382606506,1,versionA_stim.csv,READVersionA.csv,"Read Version A","Dissertation, read only version A",MONTH,YEAR,BUFFER4,Buffer,177,179,Study,User,-,,Study/JOL,BUFFER4,379,,,-1,-1,,,,1
w214961B.A.C,sozj35ejwd,Nick_Dissertation_EX1,1,262,2020-04-22T10:56:46-07:00,0.69381904602051,1,versionA_stim.csv,READVersionA.csv,"Read Version A","Dissertation, read only version A",OCTOBER,SPOOKY,BUFFER4,Buffer,180,178,Study,User,-,,Study/JOL,BUFFER4,394,,,-1,-1,,,,1
w214961B.A.C,sozj35ejwd,Nick_Dissertation_EX1,1,263,2020-04-22T10:56:46-07:00,0.61805009841919,1,versionA_stim.csv,READVersionA.csv,"Read Version A","Dissertation, read only version A",TOOL,SHED,BUFFER4,Buffer,178,180,Study,User,-,,Study/JOL,BUFFER4,303,,,-1,-1,,,,1
w214961B.A.C,sozj35ejwd,Nick_Dissertation_EX1,1,264,2020-04-22T10:56:47-07:00,0.45724201202393,1,versionA_stim.csv,READVersionA.csv,"Read Version A","Dissertation, read only version A",DAYS,WEAKS,BUFFER4,Buffer,176,177,Study,User,-,,Study/JOL,BUFFER4,146,,,-1,-1,,,,1
w214961B.A.C,sozj35ejwd,Nick_Dissertation_EX1,1,265,2020-04-22T10:56:47-07:00,0.62884283065796,1,versionA_stim.csv,READVersionA.csv,"Read Version A","Dissertation, read only version A",SPRING,MARCH,BUFFER4,Buffer,179,181,Study,User,-,,Study/JOL,BUFFER4,293,,,-1,-1,,,,1
w214961B.A.C,sozj35ejwd,Nick_Dissertation_EX1,1,266,2020-04-22T10:56:50-07:00,2.413143157959,1,versionA_stim.csv,READVersionA.csv,"Read Version A","Dissertation, read only version A",,,,,,0,Instruct,User,-,"You have completed this section. Please press Enter.",Filler_Instruction,Instruct5,2031,,,-1,-1,,,,1
w214961B.A.C,sozj35ejwd,Nick_Dissertation_EX1,1,267,2020-04-22T10:56:51-07:00,1.0090088844299,1,versionA_stim.csv,READVersionA.csv,"Read Version A","Dissertation, read only version A",,,,,,0,FreeRecall,120,120,"Please list the 50 US states in reverse alphabetical order (z - a). The task will automatically advance to the next screen after two minutes.",,Filler2,2031,,,-1,-1,,,,1
w214961B.A.C,sozj35ejwd,Nick_Dissertation_EX1,1,268,2020-04-22T10:58:50-07:00,119.39880514145,1,versionA_stim.csv,READVersionA.csv,"Read Version A","Dissertation, read only version A",,,,,,0,Instruct,-,10,"You will now be presented with the first word from each of the previously studied item pairs. Please type the missing word. If you do not know the word, you may guess or press Enter to skip forward to the next pair.",,Instruct6,120003,"arizona, arkansas, memphis, atlanta, mississippi, texas, washington d.c, california, chicago, new york, illionis, kansas, orgeon, ",0,11233,115129,0,0,,0.988
w214961B.A.C,sozj35ejwd,Nick_Dissertation_EX1,1,269,2020-04-22T10:58:57-07:00,6.9755020141602,1,versionA_stim.csv,READVersionA.csv,"Read Version A","Dissertation, read only version A",DETECTIVE,MYSTERY,Study2,F,100,113,Test,User,-,,Recall,Recall2,6518,,0,-1,-1,0,0,,0.903
w214961B.A.C,sozj35ejwd,Nick_Dissertation_EX1,1,270,2020-04-22T10:59:00-07:00,3.1522529125214,1,versionA_stim.csv,READVersionA.csv,"Read Version A","Dissertation, read only version A",MIRROR,CHILDREN,Study2,U,174,101,Test,User,-,,Recall,Recall2,2844,,0,-1,-1,0,0,,1
w214961B.A.C,sozj35ejwd,Nick_Dissertation_EX1,1,271,2020-04-22T10:59:03-07:00,2.5227599143982,1,versionA_stim.csv,READVersionA.csv,"Read Version A","Dissertation, read only version A",BAD,VILLAIN,Study2,B,118,97,Test,User,-,,Recall,Recall2,2181,good,0,1604,2012,0,0,,1
w214961B.A.C,sozj35ejwd,Nick_Dissertation_EX1,1,272,2020-04-22T10:59:05-07:00,1.8389749526978,1,versionA_stim.csv,READVersionA.csv,"Read Version A","Dissertation, read only version A",ROD,REEL,Study2,S,150,170,Test,User,-,,Recall,Recall2,1483,,0,-1,-1,0,0,,1
w214961B.A.C,sozj35ejwd,Nick_Dissertation_EX1,1,273,2020-04-22T10:59:07-07:00,2.3781502246857,1,versionA_stim.csv,READVersionA.csv,"Read Version A","Dissertation, read only version A",OWN,HAVE,Study2,S,153,129,Test,User,-,,Recall,Recall2,2073,mine,25,1407,1883,0,0,,1
w214961B.A.C,sozj35ejwd,Nick_Dissertation_EX1,1,274,2020-04-22T10:59:08-07:00,1.0920479297638,1,versionA_stim.csv,READVersionA.csv,"Read Version A","Dissertation, read only version A",ADJOURN,END,Study2,F,101,169,Test,User,-,,Recall,Recall2,759,,0,-1,-1,0,0,,1
w214961B.A.C,sozj35ejwd,Nick_Dissertation_EX1,1,275,2020-04-22T10:59:13-07:00,5.1990280151367,1,versionA_stim.csv,READVersionA.csv,"Read Version A","Dissertation, read only version A",PLANE,AIRCRAFT,Study2,B,129,117,Test,User,-,,Recall,Recall2,4878,flight,28.571428571429,3915,4604,0,0,,1
w214961B.A.C,sozj35ejwd,Nick_Dissertation_EX1,1,276,2020-04-22T10:59:16-07:00,2.3043138980865,1,versionA_stim.csv,READVersionA.csv,"Read Version A","Dissertation, read only version A",LITTER,TRASH,Study2,F,103,136,Test,User,-,,Recall,Recall2,2008,bug,0,1292,1715,0,0,,1
w214961B.A.C,sozj35ejwd,Nick_Dissertation_EX1,1,277,2020-04-22T10:59:32-07:00,16.69454407692,1,versionA_stim.csv,READVersionA.csv,"Read Version A","Dissertation, read only version A",FIGHT,BRAWL,Study2,B,135,154,Test,User,-,,Recall,Recall2,16247,goof,0,15657,16055,0,0,,1
w214961B.A.C,sozj35ejwd,Nick_Dissertation_EX1,1,278,2020-04-22T10:59:34-07:00,1.2526838779449,1,versionA_stim.csv,READVersionA.csv,"Read Version A","Dissertation, read only version A",MOAT,CLEAR,Study2,U,169,176,Test,User,-,,Recall,Recall2,883,,0,-1,-1,0,0,,1
w214961B.A.C,sozj35ejwd,Nick_Dissertation_EX1,1,279,2020-04-22T10:59:39-07:00,5.0384330749512,1,versionA_stim.csv,READVersionA.csv,"Read Version A","Dissertation, read only version A",SLEEP,NAP,Study2,B,134,102,Test,User,-,,Recall,Recall2,4680,awake,25,1379,4391,0,0,,1
w214961B.A.C,sozj35ejwd,Nick_Dissertation_EX1,1,280,2020-04-22T10:59:42-07:00,3.5628299713135,1,versionA_stim.csv,READVersionA.csv,"Read Version A","Dissertation, read only version A",LOUD,NOISE,Study2,S,152,164,Test,User,-,,Recall,Recall2,3226,,0,-1,-1,0,0,,1
w214961B.A.C,sozj35ejwd,Nick_Dissertation_EX1,1,281,2020-04-22T10:59:44-07:00,1.2492430210114,1,versionA_stim.csv,READVersionA.csv,"Read Version A","Dissertation, read only version A",DRIVER,CAR,Study2,F,106,110,Test,User,-,,Recall,Recall2,916,,0,-1,-1,0,0,,1
w214961B.A.C,sozj35ejwd,Nick_Dissertation_EX1,1,282,2020-04-22T10:59:45-07:00,1.1602349281311,1,versionA_stim.csv,READVersionA.csv,"Read Version A","Dissertation, read only version A",MASON,JAR,Study2,S,138,119,Test,User,-,,Recall,Recall2,827,,0,-1,-1,0,0,,1
w214961B.A.C,sozj35ejwd,Nick_Dissertation_EX1,1,283,2020-04-22T10:59:48-07:00,3.5192451477051,1,versionA_stim.csv,READVersionA.csv,"Read Version A","Dissertation, read only version A",CHERRY,RED,Study2,F,104,134,Test,User,-,,Recall,Recall2,3169,pop,0,1873,2764,0,0,,1
w214961B.A.C,sozj35ejwd,Nick_Dissertation_EX1,1,284,2020-04-22T10:59:50-07:00,1.5068190097809,1,versionA_stim.csv,READVersionA.csv,"Read Version A","Dissertation, read only version A",SUN,TAN,Study2,S,155,150,Test,User,-,,Recall,Recall2,1172,,0,-1,-1,0,0,,1
w214961B.A.C,sozj35ejwd,Nick_Dissertation_EX1,1,285,2020-04-22T10:59:51-07:00,0.85893487930298,1,versionA_stim.csv,READVersionA.csv,"Read Version A","Dissertation, read only version A",SHOELACE,TIE,Study2,F,99,143,Test,User,-,,Recall,Recall2,482,,0,-1,-1,0,0,,1
w214961B.A.C,sozj35ejwd,Nick_Dissertation_EX1,1,286,2020-04-22T10:59:51-07:00,0.86006999015808,1,versionA_stim.csv,READVersionA.csv,"Read Version A","Dissertation, read only version A",CACTUS,PLANT,Study2,F,98,155,Test,User,-,,Recall,Recall2,515,,0,-1,-1,0,0,,1
w214961B.A.C,sozj35ejwd,Nick_Dissertation_EX1,1,287,2020-04-22T10:59:55-07:00,3.6294720172882,1,versionA_stim.csv,READVersionA.csv,"Read Version A","Dissertation, read only version A",BEST,FAVORITE,Study2,B,125,148,Test,User,-,,Recall,Recall2,3322,goof,16.666666666667,1331,3073,0,0,,1
w214961B.A.C,sozj35ejwd,Nick_Dissertation_EX1,1,288,2020-04-22T10:59:57-07:00,1.9212801456451,1,versionA_stim.csv,READVersionA.csv,"Read Version A","Dissertation, read only version A",BOTH,OUNCE,Study2,U,172,108,Test,User,-,,Recall,Recall2,1597,,0,-1,-1,0,0,,1
w214961B.A.C,sozj35ejwd,Nick_Dissertation_EX1,1,289,2020-04-22T10:59:58-07:00,0.88398385047913,1,versionA_stim.csv,READVersionA.csv,"Read Version A","Dissertation, read only version A",ELEMENT,CARBON,Study2,S,141,146,Test,User,-,,Recall,Recall2,543,,0,-1,-1,0,0,,1
w214961B.A.C,sozj35ejwd,Nick_Dissertation_EX1,1,290,2020-04-22T10:59:59-07:00,0.77796196937561,1,versionA_stim.csv,READVersionA.csv,"Read Version A","Dissertation, read only version A",THREAD,THIMBLE,Study2,B,121,130,Test,User,-,,Recall,Recall2,450,,0,-1,-1,0,0,,1
w214961B.A.C,sozj35ejwd,Nick_Dissertation_EX1,1,291,2020-04-22T10:59:59-07:00,0.71526408195496,1,versionA_stim.csv,READVersionA.csv,"Read Version A","Dissertation, read only version A",SAFETY,SEATBELT,Study2,S,147,99,Test,User,-,,Recall,Recall2,410,,0,-1,-1,0,0,,1
w214961B.A.C,sozj35ejwd,Nick_Dissertation_EX1,1,292,2020-04-22T11:00:01-07:00,2.0271060466766,1,versionA_stim.csv,READVersionA.csv,"Read Version A","Dissertation, read only version A",VEHICLE,CHARM,Study2,U,160,122,Test,User,-,,Recall,Recall2,1546,,0,-1,-1,0,0,,1
w214961B.A.C,sozj35ejwd,Nick_Dissertation_EX1,1,293,2020-04-22T11:00:02-07:00,1.0262389183044,1,versionA_stim.csv,READVersionA.csv,"Read Version A","Dissertation, read only version A",DINE,EAT,Study2,F,111,173,Test,User,-,,Recall,Recall2,694,,0,-1,-1,0,0,,1
w214961B.A.C,sozj35ejwd,Nick_Dissertation_EX1,1,294,2020-04-22T11:00:05-07:00,2.2571711540222,1,versionA_stim.csv,READVersionA.csv,"Read Version A","Dissertation, read only version A",MONEY,BANKER,Study2,B,132,124,Test,User,-,,Recall,Recall2,1947,goof,0,1330,1745,0,0,,1
w214961B.A.C,sozj35ejwd,Nick_Dissertation_EX1,1,295,2020-04-22T11:00:05-07:00,0.35536479949951,1,versionA_stim.csv,READVersionA.csv,"Read Version A","Dissertation, read only version A",FRUIT,STRAWBERRY,Study2,B,124,168,Test,User,-,,Recall,Recall2,1947,goof,0,1330,1745,0,0,,1
w214961B.A.C,sozj35ejwd,Nick_Dissertation_EX1,1,296,2020-04-22T11:00:06-07:00,0.94666719436646,1,versionA_stim.csv,READVersionA.csv,"Read Version A","Dissertation, read only version A",TANTRUM,TEMPER,Study2,S,154,147,Test,User,-,,Recall,Recall2,632,,0,-1,-1,0,0,,1
w214961B.A.C,sozj35ejwd,Nick_Dissertation_EX1,1,297,2020-04-22T11:00:11-07:00,4.6512928009033,1,versionA_stim.csv,READVersionA.csv,"Read Version A","Dissertation, read only version A",PHONE,COMMUNICATION,Study2,S,149,152,Test,User,-,,Recall,Recall2,4343,,0,-1,-1,0,0,,1
w214961B.A.C,sozj35ejwd,Nick_Dissertation_EX1,1,298,2020-04-22T11:00:12-07:00,0.90316009521484,1,versionA_stim.csv,READVersionA.csv,"Read Version A","Dissertation, read only version A",MULE,DONKEY,Study2,F,108,174,Test,User,-,,Recall,Recall2,582,,0,-1,-1,0,0,,1
w214961B.A.C,sozj35ejwd,Nick_Dissertation_EX1,1,299,2020-04-22T11:00:12-07:00,0.91750693321228,1,versionA_stim.csv,READVersionA.csv,"Read Version A","Dissertation, read only version A",TRUTH,LIE,Study2,S,148,114,Test,User,-,,Recall,Recall2,591,,0,-1,-1,0,0,,1
w214961B.A.C,sozj35ejwd,Nick_Dissertation_EX1,1,300,2020-04-22T11:00:13-07:00,0.79850602149963,1,versionA_stim.csv,READVersionA.csv,"Read Version A","Dissertation, read only version A",RAZOR,SHAVE,Study2,S,136,128,Test,User,-,,Recall,Recall2,466,,0,-1,-1,0,0,,1
w214961B.A.C,sozj35ejwd,Nick_Dissertation_EX1,1,301,2020-04-22T11:00:15-07:00,1.5837330818176,1,versionA_stim.csv,READVersionA.csv,"Read Version A","Dissertation, read only version A",GIVE,STEAK,Study2,U,158,160,Test,User,-,,Recall,Recall2,1279,,0,-1,-1,0,0,,1
w214961B.A.C,sozj35ejwd,Nick_Dissertation_EX1,1,302,2020-04-22T11:00:16-07:00,0.92710494995117,1,versionA_stim.csv,READVersionA.csv,"Read Version A","Dissertation, read only version A",POP,BALLOON,Study2,B,123,175,Test,User,-,,Recall,Recall2,610,,0,-1,-1,0,0,,1
w214961B.A.C,sozj35ejwd,Nick_Dissertation_EX1,1,303,2020-04-22T11:00:26-07:00,10.261620044708,1,versionA_stim.csv,READVersionA.csv,"Read Version A","Dissertation, read only version A",ALONE,LONELY,Study2,S,145,140,Test,User,-,,Recall,Recall2,9034,married,15.384615384615,7833,8874,0,0,,1
w214961B.A.C,sozj35ejwd,Nick_Dissertation_EX1,1,304,2020-04-22T11:00:33-07:00,6.7458999156952,1,versionA_stim.csv,READVersionA.csv,"Read Version A","Dissertation, read only version A",MEAT,OBTAIN,Study2,U,161,103,Test,User,-,,Recall,Recall2,5366,,0,2456,2853,0,0,,1
w214961B.A.C,sozj35ejwd,Nick_Dissertation_EX1,1,305,2020-04-22T11:00:34-07:00,0.96931004524231,1,versionA_stim.csv,READVersionA.csv,"Read Version A","Dissertation, read only version A",FISH,SARDINE,Study2,B,130,159,Test,User,-,,Recall,Recall2,643,,0,-1,-1,0,0,,1
w214961B.A.C,sozj35ejwd,Nick_Dissertation_EX1,1,306,2020-04-22T11:00:35-07:00,0.83242988586426,1,versionA_stim.csv,READVersionA.csv,"Read Version A","Dissertation, read only version A",LISTEN,FICTION,Study2,U,164,166,Test,User,-,,Recall,Recall2,491,,0,-1,-1,0,0,,1
w214961B.A.C,sozj35ejwd,Nick_Dissertation_EX1,1,307,2020-04-22T11:00:36-07:00,1.133590221405,1,versionA_stim.csv,READVersionA.csv,"Read Version A","Dissertation, read only version A",EVEN,REVENGE,Study2,B,122,162,Test,User,-,,Recall,Recall2,524,,0,-1,-1,0,0,,1
w214961B.A.C,sozj35ejwd,Nick_Dissertation_EX1,1,308,2020-04-22T11:00:37-07:00,0.9255428314209,1,versionA_stim.csv,READVersionA.csv,"Read Version A","Dissertation, read only version A",TEMPERATURE,Morning,Study2,U,173,112,Test,User,-,,Recall,Recall2,585,,0,-1,-1,0,0,,1
w214961B.A.C,sozj35ejwd,Nick_Dissertation_EX1,1,309,2020-04-22T11:05:24-07:00,287.4055390358,1,versionA_stim.csv,READVersionA.csv,"Read Version A","Dissertation, read only version A",KEYS,JOKE,Study2,U,165,137,Test,User,-,,Recall,Recall2,286998,unlock,40,48698,286719,0,0,,1
w214961B.A.C,sozj35ejwd,Nick_Dissertation_EX1,1,310,2020-04-22T11:05:31-07:00,6.6361439228058,1,versionA_stim.csv,READVersionA.csv,"Read Version A","Dissertation, read only version A",DRY,WET,Study2,S,146,171,Test,User,-,,Recall,Recall2,6291,wet,100,5274,6046,1,1,,1
w214961B.A.C,sozj35ejwd,Nick_Dissertation_EX1,1,311,2020-04-22T11:06:30-07:00,59.547136068344,1,versionA_stim.csv,READVersionA.csv,"Read Version A","Dissertation, read only version A",CHILL,COLD,Study2,F,114,139,Test,User,-,,Recall,Recall2,59161,social,40,51154,58878,0,0,,1
w214961B.A.C,sozj35ejwd,Nick_Dissertation_EX1,1,312,2020-04-22T11:06:33-07:00,2.6619110107422,1,versionA_stim.csv,READVersionA.csv,"Read Version A","Dissertation, read only version A",CAT,PANTHER,Study2,B,126,127,Test,User,-,,Recall,Recall2,2322,dog,0,1790,2084,0,0,,1
w214961B.A.C,sozj35ejwd,Nick_Dissertation_EX1,1,313,2020-04-22T11:06:43-07:00,9.6706030368805,1,versionA_stim.csv,READVersionA.csv,"Read Version A","Dissertation, read only version A",HONEST,TRUTHFUL,Study2,B,133,132,Test,User,-,,Recall,Recall2,9301,liar,16.666666666667,6336,8474,0,0,,1
w214961B.A.C,sozj35ejwd,Nick_Dissertation_EX1,1,314,2020-04-22T11:06:56-07:00,13.519927024841,1,versionA_stim.csv,READVersionA.csv,"Read Version A","Dissertation, read only version A",LOAN,SIGN,Study2,U,171,109,Test,User,-,,Recall,Recall2,13105,"maker ",0,7760,12850,0,0,,1
w214961B.A.C,sozj35ejwd,Nick_Dissertation_EX1,1,315,2020-04-22T11:07:09-07:00,12.500717878342,1,versionA_stim.csv,READVersionA.csv,"Read Version A","Dissertation, read only version A",CAR,WINDSHIELD,Study2,B,117,141,Test,User,-,,Recall,Recall2,12108,truck,0,9362,11823,0,0,,1
w214961B.A.C,sozj35ejwd,Nick_Dissertation_EX1,1,316,2020-04-22T11:07:32-07:00,23.8473072052,1,versionA_stim.csv,READVersionA.csv,"Read Version A","Dissertation, read only version A",WATER,DRINK,Study2,S,143,161,Test,User,-,,Recall,Recall2,23463,soda,22.222222222222,19114,23224,0,0,,0.951
w214961B.A.C,sozj35ejwd,Nick_Dissertation_EX1,1,317,2020-04-22T11:07:43-07:00,10.850340843201,1,versionA_stim.csv,READVersionA.csv,"Read Version A","Dissertation, read only version A",GONE,AWAY,Study2,S,142,163,Test,User,-,,Recall,Recall2,10424,present,0,2662,10237,0,0,,1
w214961B.A.C,sozj35ejwd,Nick_Dissertation_EX1,1,318,2020-04-22T11:07:46-07:00,2.6732060909271,1,versionA_stim.csv,READVersionA.csv,"Read Version A","Dissertation, read only version A",MAIN,SCAR,Study2,U,175,167,Test,User,-,,Recall,Recall2,2340,event,0,1563,2107,0,0,,1
w214961B.A.C,sozj35ejwd,Nick_Dissertation_EX1,1,319,2020-04-22T11:07:49-07:00,3.1460089683533,1,versionA_stim.csv,READVersionA.csv,"Read Version A","Dissertation, read only version A",STAR,ACTRESS,Study2,B,120,121,Test,User,-,,Recall,Recall2,2850,moon,0,2031,2556,0,0,,1
w214961B.A.C,sozj35ejwd,Nick_Dissertation_EX1,1,320,2020-04-22T11:07:50-07:00,1.1699678897858,1,versionA_stim.csv,READVersionA.csv,"Read Version A","Dissertation, read only version A",STRETCH,CLOTH,Study2,U,157,107,Test,User,-,,Recall,Recall2,872,,0,-1,-1,0,0,,1
w214961B.A.C,sozj35ejwd,Nick_Dissertation_EX1,1,321,2020-04-22T11:07:53-07:00,2.3993411064148,1,versionA_stim.csv,READVersionA.csv,"Read Version A","Dissertation, read only version A",NAME,HATE,Study2,U,167,98,Test,User,-,,Recall,Recall2,2080,,0,-1,-1,0,0,,1
w214961B.A.C,sozj35ejwd,Nick_Dissertation_EX1,1,322,2020-04-22T11:07:54-07:00,1.0716938972473,1,versionA_stim.csv,READVersionA.csv,"Read Version A","Dissertation, read only version A",RIGHTS,EQUAL,Study2,S,137,105,Test,User,-,,Recall,Recall2,738,,0,-1,-1,0,0,,1
w214961B.A.C,sozj35ejwd,Nick_Dissertation_EX1,1,323,2020-04-22T11:07:57-07:00,3.4859380722046,1,versionA_stim.csv,READVersionA.csv,"Read Version A","Dissertation, read only version A",CLUE,GAME,Study2,F,97,156,Test,User,-,,Recall,Recall2,3173,gone,50,2132,2946,0,0,,1
w214961B.A.C,sozj35ejwd,Nick_Dissertation_EX1,1,324,2020-04-22T11:08:05-07:00,7.7245790958405,1,versionA_stim.csv,READVersionA.csv,"Read Version A","Dissertation, read only version A",CAKE,CLOTHES,Study2,U,166,157,Test,User,-,,Recall,Recall2,7399,sweet,16.666666666667,4725,7172,0,0,,1
w214961B.A.C,sozj35ejwd,Nick_Dissertation_EX1,1,325,2020-04-22T11:08:06-07:00,1.0839128494263,1,versionA_stim.csv,READVersionA.csv,"Read Version A","Dissertation, read only version A",JUSTICE,MAROON,Study2,U,156,142,Test,User,-,,Recall,Recall2,750,,0,-1,-1,0,0,,1
w214961B.A.C,sozj35ejwd,Nick_Dissertation_EX1,1,326,2020-04-22T11:08:07-07:00,0.97014617919922,1,versionA_stim.csv,READVersionA.csv,"Read Version A","Dissertation, read only version A",INCENSE,SMELL,Study2,F,110,158,Test,User,-,,Recall,Recall2,491,,0,-1,-1,0,0,,1
w214961B.A.C,sozj35ejwd,Nick_Dissertation_EX1,1,327,2020-04-22T11:08:08-07:00,0.78897786140442,1,versionA_stim.csv,READVersionA.csv,"Read Version A","Dissertation, read only version A",DOCUMENT,PAPER,Study2,F,109,115,Test,User,-,,Recall,Recall2,466,,0,-1,-1,0,0,,1
w214961B.A.C,sozj35ejwd,Nick_Dissertation_EX1,1,328,2020-04-22T11:08:11-07:00,3.0868721008301,1,versionA_stim.csv,READVersionA.csv,"Read Version A","Dissertation, read only version A",CHOP,CUT,Study2,F,107,106,Test,User,-,,Recall,Recall2,2775,stick,25,1696,2393,0,0,,1
w214961B.A.C,sozj35ejwd,Nick_Dissertation_EX1,1,329,2020-04-22T11:08:12-07:00,0.96263384819031,1,versionA_stim.csv,READVersionA.csv,"Read Version A","Dissertation, read only version A",FLEA,TICK,Study2,S,151,100,Test,User,-,,Recall,Recall2,628,,0,-1,-1,0,0,,1
w214961B.A.C,sozj35ejwd,Nick_Dissertation_EX1,1,330,2020-04-22T11:08:19-07:00,7.15993309021,1,versionA_stim.csv,READVersionA.csv,"Read Version A","Dissertation, read only version A",BIRD,PENGUIN,Study2,B,119,145,Test,User,-,,Recall,Recall2,6849,plane,33.333333333333,4761,6589,0,0,,1
w214961B.A.C,sozj35ejwd,Nick_Dissertation_EX1,1,331,2020-04-22T11:08:21-07:00,2.0976209640503,1,versionA_stim.csv,READVersionA.csv,"Read Version A","Dissertation, read only version A",BASEBALL,LEAGUE,Study2,B,131,104,Test,User,-,,Recall,Recall2,1778,,0,-1,-1,0,0,,1
w214961B.A.C,sozj35ejwd,Nick_Dissertation_EX1,1,332,2020-04-22T11:08:22-07:00,0.97796893119812,1,versionA_stim.csv,READVersionA.csv,"Read Version A","Dissertation, read only version A",AFFECTION,LOVE,Study2,F,115,144,Test,User,-,,Recall,Recall2,665,,0,-1,-1,0,0,,1
w214961B.A.C,sozj35ejwd,Nick_Dissertation_EX1,1,333,2020-04-22T11:08:25-07:00,2.7203311920166,1,versionA_stim.csv,READVersionA.csv,"Read Version A","Dissertation, read only version A",TURN,FLIP,Study2,B,116,135,Test,User,-,,Recall,Recall2,2358,,0,-1,-1,0,0,,1
w214961B.A.C,sozj35ejwd,Nick_Dissertation_EX1,1,334,2020-04-22T11:08:26-07:00,1.054655790329,1,versionA_stim.csv,READVersionA.csv,"Read Version A","Dissertation, read only version A",WRIST,BRACELET,Study2,S,140,131,Test,User,-,,Recall,Recall2,700,,0,-1,-1,0,0,,1
w214961B.A.C,sozj35ejwd,Nick_Dissertation_EX1,1,335,2020-04-22T11:08:27-07:00,0.91423606872559,1,versionA_stim.csv,READVersionA.csv,"Read Version A","Dissertation, read only version A",SHEARS,SCISSORS,Study2,F,112,116,Test,User,-,,Recall,Recall2,588,,0,-1,-1,0,0,,1
w214961B.A.C,sozj35ejwd,Nick_Dissertation_EX1,1,336,2020-04-22T11:08:28-07:00,0.9468400478363,1,versionA_stim.csv,READVersionA.csv,"Read Version A","Dissertation, read only version A",Shell,SHAKE,Study2,U,163,151,Test,User,-,,Recall,Recall2,609,,0,-1,-1,0,0,,1
w214961B.A.C,sozj35ejwd,Nick_Dissertation_EX1,1,337,2020-04-22T11:08:29-07:00,0.86898398399353,1,versionA_stim.csv,READVersionA.csv,"Read Version A","Dissertation, read only version A",SCALP,HEAD,Study2,F,105,120,Test,User,-,,Recall,Recall2,538,,0,-1,-1,0,0,,1
w214961B.A.C,sozj35ejwd,Nick_Dissertation_EX1,1,338,2020-04-22T11:08:39-07:00,10.103266000748,1,versionA_stim.csv,READVersionA.csv,"Read Version A","Dissertation, read only version A",EARTH,GROUND,Study2,S,144,138,Test,User,-,,Recall,Recall2,9695,stars,18.181818181818,1073,9451,0,0,,1
w214961B.A.C,sozj35ejwd,Nick_Dissertation_EX1,1,339,2020-04-22T11:08:41-07:00,2.5966699123383,1,versionA_stim.csv,READVersionA.csv,"Read Version A","Dissertation, read only version A",GLASS,BREAKABLE,Study2,B,127,125,Test,User,-,,Recall,Recall2,2280,,0,-1,-1,0,0,,1
w214961B.A.C,sozj35ejwd,Nick_Dissertation_EX1,1,340,2020-04-22T11:08:42-07:00,0.91146111488342,1,versionA_stim.csv,READVersionA.csv,"Read Version A","Dissertation, read only version A",FEUD,FIGHT,Study2,F,113,118,Test,User,-,,Recall,Recall2,603,,0,-1,-1,0,0,,1
w214961B.A.C,sozj35ejwd,Nick_Dissertation_EX1,1,341,2020-04-22T11:08:43-07:00,0.88812303543091,1,versionA_stim.csv,READVersionA.csv,"Read Version A","Dissertation, read only version A",EXTENSION,LONG,Study2,F,96,133,Test,User,-,,Recall,Recall2,569,,0,-1,-1,0,0,,1
w214961B.A.C,sozj35ejwd,Nick_Dissertation_EX1,1,342,2020-04-22T11:08:44-07:00,0.87151789665222,1,versionA_stim.csv,READVersionA.csv,"Read Version A","Dissertation, read only version A",CANDLE,WAX,Study2,S,139,149,Test,User,-,,Recall,Recall2,565,,0,-1,-1,0,0,,1
w214961B.A.C,sozj35ejwd,Nick_Dissertation_EX1,1,343,2020-04-22T11:08:48-07:00,3.7107789516449,1,versionA_stim.csv,READVersionA.csv,"Read Version A","Dissertation, read only version A",DEAD,COFFIN,Study2,B,128,153,Test,User,-,,Recall,Recall2,3405,gone,40,2506,3146,0,0,,1
w214961B.A.C,sozj35ejwd,Nick_Dissertation_EX1,1,344,2020-04-22T11:08:49-07:00,1.092050075531,1,versionA_stim.csv,READVersionA.csv,"Read Version A","Dissertation, read only version A",FURRY,DOG,Study2,F,102,172,Test,User,-,,Recall,Recall2,773,,0,-1,-1,0,0,,1
w214961B.A.C,sozj35ejwd,Nick_Dissertation_EX1,1,345,2020-04-22T11:08:50-07:00,0.8647620677948,1,versionA_stim.csv,READVersionA.csv,"Read Version A","Dissertation, read only version A",FUZZY,BANG,Study2,U,168,165,Test,User,-,,Recall,Recall2,542,,0,-1,-1,0,0,,1
w214961B.A.C,sozj35ejwd,Nick_Dissertation_EX1,1,346,2020-04-22T11:08:50-07:00,0.80720686912537,1,versionA_stim.csv,READVersionA.csv,"Read Version A","Dissertation, read only version A",CRACKLE,ABLE,Study2,U,162,126,Test,User,-,,Recall,Recall2,490,,0,-1,-1,0,0,,1
w214961B.A.C,sozj35ejwd,Nick_Dissertation_EX1,1,347,2020-04-22T11:08:52-07:00,1.1847641468048,1,versionA_stim.csv,READVersionA.csv,"Read Version A","Dissertation, read only version A",MAZE,ELECTION,Study2,U,159,123,Test,User,-,,Recall,Recall2,865,,0,-1,-1,0,0,,1
w214961B.A.C,sozj35ejwd,Nick_Dissertation_EX1,1,348,2020-04-22T11:08:53-07:00,1.2554008960724,1,versionA_stim.csv,READVersionA.csv,"Read Version A","Dissertation, read only version A",LEASE,TOIL,Study2,U,170,111,Test,User,-,,Recall,Recall2,950,,0,-1,-1,0,0,,1
w214961B.A.C,sozj35ejwd,Nick_Dissertation_EX1,1,349,2020-04-22T11:08:55-07:00,2.4228000640869,1,versionA_stim.csv,READVersionA.csv,"Read Version A","Dissertation, read only version A",,,,,,0,Instruct,User,-,"You have completed this section. Please press Enter.",,Instruct7,119,,,-1,-1,,,,1
w214961B.A.C,sozj35ejwd,Nick_Dissertation_EX1,1,350,2020-04-22T11:08:58-07:00,2.8076450824738,1,versionA_stim.csv,READVersionA.csv,"Read Version A","Dissertation, read only version A",,,,,,0,Instruct,User,-,"The following screen will ask you a few questions abour your experience today. You must complete these questions to receive credit.",,Instruct8,2500,,,-1,-1,,,,1
