Username,ID,ExperimentName,Session,Trial,Date,TimeDif,"Condition Number","Stimuli File","Order File","Condition Description","Condition Notes",Stimuli*Cue,Stimuli*Answer,Stimuli*Shuffle,"Stimuli*Stimuli Notes",Stimuli*Value,Procedure*Item,"Procedure*Trial Type","Procedure*Max Time","Procedure*Min Time",Procedure*Text,"Procedure*Procedure Notes",Procedure*Shuffle,Response*RT,Response*Response,Response*Accuracy,Response*RTfirst,Response*RTlast,Response*strictAcc,Response*lenientAcc,Response*focus,Response*Focus
w947391_afr,jx27wti7ce,Nick_Dissertation_EX1,1,1,2020-04-22T12:27:10-07:00,14.382981061935,3,versionC_stim.csv,READVersionC.csv,"Read Version C","Dissertation, read only version C",,,,,,0,Instruct,-,10,"Please study each of the following word pairs. Remember that your memory will be tested! When finished, press Enter to move to the next pair.",Initial_Instruct,Instruct1,13910,,,-1,-1,,,,1
w947391_afr,jx27wti7ce,Nick_Dissertation_EX1,1,2,2020-04-22T12:27:16-07:00,5.8611650466919,3,versionC_stim.csv,READVersionC.csv,"Read Version C","Dissertation, read only version C",JAM,SPACE,BUFFER1,Buffer,5,2,Study,User,-,,Study/JOL,BUFFER,4485,,,-1,-1,,,,1
w947391_afr,jx27wti7ce,Nick_Dissertation_EX1,1,3,2020-04-22T12:27:22-07:00,6.347060918808,3,versionC_stim.csv,READVersionC.csv,"Read Version C","Dissertation, read only version C",BUTTER,PEANUT,BUFFER1,Buffer,3,4,Study,User,-,,Study/JOL,BUFFER,6033,,,-1,-1,,,,1
w947391_afr,jx27wti7ce,Nick_Dissertation_EX1,1,4,2020-04-22T12:27:42-07:00,19.553669929504,3,versionC_stim.csv,READVersionC.csv,"Read Version C","Dissertation, read only version C",HIDE,SCARE,BUFFER1,Buffer,4,5,Study,User,-,,Study/JOL,BUFFER,19228,,,-1,-1,,,,1
w947391_afr,jx27wti7ce,Nick_Dissertation_EX1,1,5,2020-04-22T12:27:51-07:00,9.1962761878967,3,versionC_stim.csv,READVersionC.csv,"Read Version C","Dissertation, read only version C",CATCHER,BASEBALL,BUFFER1,Buffer,2,3,Study,User,-,,Study/JOL,BUFFER,8885,,,-1,-1,,,,1
w947391_afr,jx27wti7ce,Nick_Dissertation_EX1,1,6,2020-04-22T12:27:58-07:00,7.1363949775696,3,versionC_stim.csv,READVersionC.csv,"Read Version C","Dissertation, read only version C",GREEN,TREES,BUFFER1,Buffer,1,6,Study,User,-,,Study/JOL,BUFFER,6802,,,-1,-1,,,,1
w947391_afr,jx27wti7ce,Nick_Dissertation_EX1,1,7,2020-04-22T12:28:07-07:00,9.4318068027496,3,versionC_stim.csv,READVersionC.csv,"Read Version C","Dissertation, read only version C",FUTURE,PAST,Study1,S,61,69,Study,User,-,,Study/JOL,"Study Phase",9112,,,-1,-1,,,,1
w947391_afr,jx27wti7ce,Nick_Dissertation_EX1,1,8,2020-04-22T12:28:14-07:00,6.2423620223999,3,versionC_stim.csv,READVersionC.csv,"Read Version C","Dissertation, read only version C",SICK,HIDE,Study1,U,84,15,Study,User,-,,Study/JOL,"Study Phase",5927,,,-1,-1,,,,1
w947391_afr,jx27wti7ce,Nick_Dissertation_EX1,1,9,2020-04-22T12:28:20-07:00,5.9003920555115,3,versionC_stim.csv,READVersionC.csv,"Read Version C","Dissertation, read only version C",CARD,CREDIT,Study1,B,23,76,Study,User,-,,Study/JOL,"Study Phase",5590,,,-1,-1,,,,1
w947391_afr,jx27wti7ce,Nick_Dissertation_EX1,1,10,2020-04-22T12:28:24-07:00,4.8606281280518,3,versionC_stim.csv,READVersionC.csv,"Read Version C","Dissertation, read only version C",OUT,WAY,Study1,B,16,62,Study,User,-,,Study/JOL,"Study Phase",4509,,,-1,-1,,,,1
w947391_afr,jx27wti7ce,Nick_Dissertation_EX1,1,11,2020-04-22T12:28:32-07:00,7.9968888759613,3,versionC_stim.csv,READVersionC.csv,"Read Version C","Dissertation, read only version C",SACKING,DIETARY,Study1,U,67,70,Study,User,-,,Study/JOL,"Study Phase",7672,,,-1,-1,,,,1
w947391_afr,jx27wti7ce,Nick_Dissertation_EX1,1,12,2020-04-22T12:28:38-07:00,5.5272259712219,3,versionC_stim.csv,READVersionC.csv,"Read Version C","Dissertation, read only version C",BIRD,SWAN,Study1,B,14,43,Study,User,-,,Study/JOL,"Study Phase",4876,,,-1,-1,,,,1
w947391_afr,jx27wti7ce,Nick_Dissertation_EX1,1,13,2020-04-22T12:28:48-07:00,9.586277961731,3,versionC_stim.csv,READVersionC.csv,"Read Version C","Dissertation, read only version C",ENOUGH,FULL,Study1,F,26,73,Study,User,-,,Study/JOL,"Study Phase",9205,,,-1,-1,,,,1
w947391_afr,jx27wti7ce,Nick_Dissertation_EX1,1,14,2020-04-22T12:28:54-07:00,6.2641820907593,3,versionC_stim.csv,READVersionC.csv,"Read Version C","Dissertation, read only version C",BLAZE,FIRE,Study1,F,45,25,Study,User,-,,Study/JOL,"Study Phase",5946,,,-1,-1,,,,1
w947391_afr,jx27wti7ce,Nick_Dissertation_EX1,1,15,2020-04-22T12:29:02-07:00,8.2400009632111,3,versionC_stim.csv,READVersionC.csv,"Read Version C","Dissertation, read only version C",WASTE,DUMP,Study1,S,49,34,Study,User,-,,Study/JOL,"Study Phase",7907,,,-1,-1,,,,1
w947391_afr,jx27wti7ce,Nick_Dissertation_EX1,1,16,2020-04-22T12:29:08-07:00,6.2611510753632,3,versionC_stim.csv,READVersionC.csv,"Read Version C","Dissertation, read only version C",BAR,GRILL,Study1,S,52,66,Study,User,-,,Study/JOL,"Study Phase",5944,,,-1,-1,,,,1
w947391_afr,jx27wti7ce,Nick_Dissertation_EX1,1,17,2020-04-22T12:29:14-07:00,5.4946069717407,3,versionC_stim.csv,READVersionC.csv,"Read Version C","Dissertation, read only version C",FANTASTIC,GREAT,Study1,F,35,83,Study,User,-,,Study/JOL,"Study Phase",5183,,,-1,-1,,,,1
w947391_afr,jx27wti7ce,Nick_Dissertation_EX1,1,18,2020-04-22T12:29:19-07:00,5.474946975708,3,versionC_stim.csv,READVersionC.csv,"Read Version C","Dissertation, read only version C",FISH,TUNA,Study1,B,25,55,Study,User,-,,Study/JOL,"Study Phase",5154,,,-1,-1,,,,1
w947391_afr,jx27wti7ce,Nick_Dissertation_EX1,1,19,2020-04-22T12:29:24-07:00,4.3326549530029,3,versionC_stim.csv,READVersionC.csv,"Read Version C","Dissertation, read only version C",BELT,SOON,Study1,U,70,48,Study,User,-,,Study/JOL,"Study Phase",4016,,,-1,-1,,,,1
w947391_afr,jx27wti7ce,Nick_Dissertation_EX1,1,20,2020-04-22T12:29:29-07:00,5.1656169891357,3,versionC_stim.csv,READVersionC.csv,"Read Version C","Dissertation, read only version C",SEIZE,TAKE,Study1,F,29,21,Study,User,-,,Study/JOL,"Study Phase",4849,,,-1,-1,,,,1
w947391_afr,jx27wti7ce,Nick_Dissertation_EX1,1,21,2020-04-22T12:29:35-07:00,6.2757041454315,3,versionC_stim.csv,READVersionC.csv,"Read Version C","Dissertation, read only version C",ROCK,GEOLOGY,Study1,B,19,7,Study,User,-,,Study/JOL,"Study Phase",5942,,,-1,-1,,,,1
w947391_afr,jx27wti7ce,Nick_Dissertation_EX1,1,22,2020-04-22T12:29:44-07:00,8.5991289615631,3,versionC_stim.csv,READVersionC.csv,"Read Version C","Dissertation, read only version C",AMOUNT,NUMBER,Study1,S,47,27,Study,User,-,,Study/JOL,"Study Phase",8275,,,-1,-1,,,,1
w947391_afr,jx27wti7ce,Nick_Dissertation_EX1,1,23,2020-04-22T12:29:52-07:00,8.7744119167328,3,versionC_stim.csv,READVersionC.csv,"Read Version C","Dissertation, read only version C",WAR,REVOLUTION,Study1,B,20,24,Study,User,-,,Study/JOL,"Study Phase",8458,,,-1,-1,,,,1
w947391_afr,jx27wti7ce,Nick_Dissertation_EX1,1,24,2020-04-22T12:30:02-07:00,9.6733231544495,3,versionC_stim.csv,READVersionC.csv,"Read Version C","Dissertation, read only version C",SALAD,LETTUCE,Study1,S,59,47,Study,User,-,,Study/JOL,"Study Phase",9348,,,-1,-1,,,,1
w947391_afr,jx27wti7ce,Nick_Dissertation_EX1,1,25,2020-04-22T12:30:07-07:00,4.8185019493103,3,versionC_stim.csv,READVersionC.csv,"Read Version C","Dissertation, read only version C",WASP,BUG,Study1,F,32,23,Study,User,-,,Study/JOL,"Study Phase",4476,,,-1,-1,,,,1
w947391_afr,jx27wti7ce,Nick_Dissertation_EX1,1,26,2020-04-22T12:30:14-07:00,6.9642779827118,3,versionC_stim.csv,READVersionC.csv,"Read Version C","Dissertation, read only version C",TOILET,BATHROOM,Study1,S,58,85,Study,User,-,,Study/JOL,"Study Phase",6624,,,-1,-1,,,,1
w947391_afr,jx27wti7ce,Nick_Dissertation_EX1,1,27,2020-04-22T12:30:24-07:00,10.557318925858,3,versionC_stim.csv,READVersionC.csv,"Read Version C","Dissertation, read only version C",SIP,DRINK,Study1,F,27,64,Study,User,-,,Study/JOL,"Study Phase",10020,,,-1,-1,,,,1
w947391_afr,jx27wti7ce,Nick_Dissertation_EX1,1,28,2020-04-22T12:30:28-07:00,4.0316751003265,3,versionC_stim.csv,READVersionC.csv,"Read Version C","Dissertation, read only version C",SODA,POP,Study1,S,56,36,Study,User,-,,Study/JOL,"Study Phase",3530,,,-1,-1,,,,1
w947391_afr,jx27wti7ce,Nick_Dissertation_EX1,1,29,2020-04-22T12:30:40-07:00,11.375368833542,3,versionC_stim.csv,READVersionC.csv,"Read Version C","Dissertation, read only version C",LATCH,KEY,Study1,F,36,49,Study,User,-,,Study/JOL,"Study Phase",11067,,,-1,-1,,,,1
w947391_afr,jx27wti7ce,Nick_Dissertation_EX1,1,30,2020-04-22T12:30:50-07:00,9.843150138855,3,versionC_stim.csv,READVersionC.csv,"Read Version C","Dissertation, read only version C",COLD,BITTER,Study1,B,12,9,Study,User,-,,Study/JOL,"Study Phase",9205,,,-1,-1,,,,1
w947391_afr,jx27wti7ce,Nick_Dissertation_EX1,1,31,2020-04-22T12:30:54-07:00,4.538754940033,3,versionC_stim.csv,READVersionC.csv,"Read Version C","Dissertation, read only version C",CAVE,DARK,Study1,F,28,20,Study,User,-,,Study/JOL,"Study Phase",4154,,,-1,-1,,,,1
w947391_afr,jx27wti7ce,Nick_Dissertation_EX1,1,32,2020-04-22T12:31:03-07:00,8.9844219684601,3,versionC_stim.csv,READVersionC.csv,"Read Version C","Dissertation, read only version C",CHILI,HOT,Study1,F,37,53,Study,User,-,,Study/JOL,"Study Phase",8666,,,-1,-1,,,,1
w947391_afr,jx27wti7ce,Nick_Dissertation_EX1,1,33,2020-04-22T12:31:10-07:00,7.0207660198212,3,versionC_stim.csv,READVersionC.csv,"Read Version C","Dissertation, read only version C",POSITION,MACHINE,Study1,U,76,13,Study,User,-,,Study/JOL,"Study Phase",6690,,,-1,-1,,,,1
w947391_afr,jx27wti7ce,Nick_Dissertation_EX1,1,34,2020-04-22T12:31:16-07:00,5.6226141452789,3,versionC_stim.csv,READVersionC.csv,"Read Version C","Dissertation, read only version C",SIGHT,DEBATE,Study1,U,73,38,Study,User,-,,Study/JOL,"Study Phase",5303,,,-1,-1,,,,1
w947391_afr,jx27wti7ce,Nick_Dissertation_EX1,1,35,2020-04-22T12:31:23-07:00,7.1389608383179,3,versionC_stim.csv,READVersionC.csv,"Read Version C","Dissertation, read only version C",WATER,BRIDGE,Study1,B,18,14,Study,User,-,,Study/JOL,"Study Phase",6813,,,-1,-1,,,,1
w947391_afr,jx27wti7ce,Nick_Dissertation_EX1,1,36,2020-04-22T12:31:29-07:00,6.4183900356293,3,versionC_stim.csv,READVersionC.csv,"Read Version C","Dissertation, read only version C",STOMACH,DIGESTION,Study1,B,7,56,Study,User,-,,Study/JOL,"Study Phase",5714,,,-1,-1,,,,1
w947391_afr,jx27wti7ce,Nick_Dissertation_EX1,1,37,2020-04-22T12:31:34-07:00,4.5462489128113,3,versionC_stim.csv,READVersionC.csv,"Read Version C","Dissertation, read only version C",CHEESE,WINE,Study1,S,57,22,Study,User,-,,Study/JOL,"Study Phase",3895,,,-1,-1,,,,1
w947391_afr,jx27wti7ce,Nick_Dissertation_EX1,1,38,2020-04-22T12:31:40-07:00,5.7005140781403,3,versionC_stim.csv,READVersionC.csv,"Read Version C","Dissertation, read only version C",DESIGN,ARCHITECTURE,Study1,S,51,31,Study,User,-,,Study/JOL,"Study Phase",5379,,,-1,-1,,,,1
w947391_afr,jx27wti7ce,Nick_Dissertation_EX1,1,39,2020-04-22T12:31:44-07:00,4.0360300540924,3,versionC_stim.csv,READVersionC.csv,"Read Version C","Dissertation, read only version C",PILOT,PLANE,Study1,F,44,11,Study,User,-,,Study/JOL,"Study Phase",3717,,,-1,-1,,,,1
w947391_afr,jx27wti7ce,Nick_Dissertation_EX1,1,40,2020-04-22T12:31:49-07:00,4.8797099590302,3,versionC_stim.csv,READVersionC.csv,"Read Version C","Dissertation, read only version C",PLANT,ROOT,Study1,B,13,16,Study,User,-,,Study/JOL,"Study Phase",4566,,,-1,-1,,,,1
w947391_afr,jx27wti7ce,Nick_Dissertation_EX1,1,41,2020-04-22T12:31:55-07:00,6.3806250095367,3,versionC_stim.csv,READVersionC.csv,"Read Version C","Dissertation, read only version C",HUNGRY,PARK,Study1,U,68,86,Study,User,-,,Study/JOL,"Study Phase",6049,,,-1,-1,,,,1
w947391_afr,jx27wti7ce,Nick_Dissertation_EX1,1,42,2020-04-22T12:32:00-07:00,5.1077039241791,3,versionC_stim.csv,READVersionC.csv,"Read Version C","Dissertation, read only version C",JURY,TRIAL,Study1,S,50,18,Study,User,-,,Study/JOL,"Study Phase",4775,,,-1,-1,,,,1
w947391_afr,jx27wti7ce,Nick_Dissertation_EX1,1,43,2020-04-22T12:32:07-07:00,7.1079370975494,3,versionC_stim.csv,READVersionC.csv,"Read Version C","Dissertation, read only version C",BAD,DELINQUENT,Study1,B,6,72,Study,User,-,,Study/JOL,"Study Phase",6777,,,-1,-1,,,,1
w947391_afr,jx27wti7ce,Nick_Dissertation_EX1,1,44,2020-04-22T12:32:20-07:00,13.135787010193,3,versionC_stim.csv,READVersionC.csv,"Read Version C","Dissertation, read only version C",MONEY,WAGE,Study1,B,8,60,Study,User,-,,Study/JOL,"Study Phase",12803,,,-1,-1,,,,1
w947391_afr,jx27wti7ce,Nick_Dissertation_EX1,1,45,2020-04-22T12:32:25-07:00,4.2228529453278,3,versionC_stim.csv,READVersionC.csv,"Read Version C","Dissertation, read only version C",BUSINESS,DEATH,Study1,U,72,26,Study,User,-,,Study/JOL,"Study Phase",3872,,,-1,-1,,,,1
w947391_afr,jx27wti7ce,Nick_Dissertation_EX1,1,46,2020-04-22T12:32:28-07:00,3.8135759830475,3,versionC_stim.csv,READVersionC.csv,"Read Version C","Dissertation, read only version C",RACKET,BALL,Study1,F,38,58,Study,User,-,,Study/JOL,"Study Phase",3494,,,-1,-1,,,,1
w947391_afr,jx27wti7ce,Nick_Dissertation_EX1,1,47,2020-04-22T12:32:31-07:00,2.7404961585999,3,versionC_stim.csv,READVersionC.csv,"Read Version C","Dissertation, read only version C",CHILD,BABY,Study1,S,64,28,Study,User,-,,Study/JOL,"Study Phase",2420,,,-1,-1,,,,1
w947391_afr,jx27wti7ce,Nick_Dissertation_EX1,1,48,2020-04-22T12:32:37-07:00,5.9988968372345,3,versionC_stim.csv,READVersionC.csv,"Read Version C","Dissertation, read only version C",WOULD,CASH,Study1,U,83,57,Study,User,-,,Study/JOL,"Study Phase",5669,,,-1,-1,,,,1
w947391_afr,jx27wti7ce,Nick_Dissertation_EX1,1,49,2020-04-22T12:32:44-07:00,6.5535819530487,3,versionC_stim.csv,READVersionC.csv,"Read Version C","Dissertation, read only version C",CHORE,WORK,Study1,F,39,51,Study,User,-,,Study/JOL,"Study Phase",6228,,,-1,-1,,,,1
w947391_afr,jx27wti7ce,Nick_Dissertation_EX1,1,50,2020-04-22T12:32:49-07:00,5.188187122345,3,versionC_stim.csv,READVersionC.csv,"Read Version C","Dissertation, read only version C",ROUND,CIRCLE,Study1,S,65,46,Study,User,-,,Study/JOL,"Study Phase",4870,,,-1,-1,,,,1
w947391_afr,jx27wti7ce,Nick_Dissertation_EX1,1,51,2020-04-22T12:32:57-07:00,7.8985419273376,3,versionC_stim.csv,READVersionC.csv,"Read Version C","Dissertation, read only version C",HAMMER,CHISEL,Study1,B,9,40,Study,User,-,,Study/JOL,"Study Phase",7588,,,-1,-1,,,,1
w947391_afr,jx27wti7ce,Nick_Dissertation_EX1,1,52,2020-04-22T12:33:00-07:00,3.6783599853516,3,versionC_stim.csv,READVersionC.csv,"Read Version C","Dissertation, read only version C",STING,HORNET,Study1,B,11,77,Study,User,-,,Study/JOL,"Study Phase",3352,,,-1,-1,,,,1
w947391_afr,jx27wti7ce,Nick_Dissertation_EX1,1,53,2020-04-22T12:33:04-07:00,3.8693449497223,3,versionC_stim.csv,READVersionC.csv,"Read Version C","Dissertation, read only version C",BEE,HONEY,Study1,S,63,79,Study,User,-,,Study/JOL,"Study Phase",3547,,,-1,-1,,,,1
w947391_afr,jx27wti7ce,Nick_Dissertation_EX1,1,54,2020-04-22T12:33:08-07:00,3.6546831130981,3,versionC_stim.csv,READVersionC.csv,"Read Version C","Dissertation, read only version C",FOOT,SHOE,Study1,S,60,45,Study,User,-,,Study/JOL,"Study Phase",3314,,,-1,-1,,,,1
w947391_afr,jx27wti7ce,Nick_Dissertation_EX1,1,55,2020-04-22T12:33:14-07:00,5.6240870952606,3,versionC_stim.csv,READVersionC.csv,"Read Version C","Dissertation, read only version C",ADD,VALLEY,Study1,U,82,54,Study,User,-,,Study/JOL,"Study Phase",5307,,,-1,-1,,,,1
w947391_afr,jx27wti7ce,Nick_Dissertation_EX1,1,56,2020-04-22T12:33:19-07:00,5.3211708068848,3,versionC_stim.csv,READVersionC.csv,"Read Version C","Dissertation, read only version C",WIND,BLOW,Study1,S,55,39,Study,User,-,,Study/JOL,"Study Phase",4978,,,-1,-1,,,,1
w947391_afr,jx27wti7ce,Nick_Dissertation_EX1,1,57,2020-04-22T12:33:25-07:00,6.2714791297913,3,versionC_stim.csv,READVersionC.csv,"Read Version C","Dissertation, read only version C",GROWTH,HEIGHT,Study1,F,30,10,Study,User,-,,Study/JOL,"Study Phase",5914,,,-1,-1,,,,1
w947391_afr,jx27wti7ce,Nick_Dissertation_EX1,1,58,2020-04-22T12:33:33-07:00,8.0545048713684,3,versionC_stim.csv,READVersionC.csv,"Read Version C","Dissertation, read only version C",ACCIDENT,STRONG,Study1,U,80,17,Study,User,-,,Study/JOL,"Study Phase",7730,,,-1,-1,,,,1
w947391_afr,jx27wti7ce,Nick_Dissertation_EX1,1,59,2020-04-22T12:33:37-07:00,3.7934892177582,3,versionC_stim.csv,READVersionC.csv,"Read Version C","Dissertation, read only version C",ASSIGNMENT,DUE,Study1,S,46,42,Study,User,-,,Study/JOL,"Study Phase",3466,,,-1,-1,,,,1
w947391_afr,jx27wti7ce,Nick_Dissertation_EX1,1,60,2020-04-22T12:33:49-07:00,11.736065864563,3,versionC_stim.csv,READVersionC.csv,"Read Version C","Dissertation, read only version C",FLOOR,DISCOVER,Study1,U,71,33,Study,User,-,,Study/JOL,"Study Phase",11413,,,-1,-1,,,,1
w947391_afr,jx27wti7ce,Nick_Dissertation_EX1,1,61,2020-04-22T12:33:53-07:00,4.5578920841217,3,versionC_stim.csv,READVersionC.csv,"Read Version C","Dissertation, read only version C",DOG,PAW,Study1,B,15,82,Study,User,-,,Study/JOL,"Study Phase",4229,,,-1,-1,,,,1
w947391_afr,jx27wti7ce,Nick_Dissertation_EX1,1,62,2020-04-22T12:33:59-07:00,5.831111907959,3,versionC_stim.csv,READVersionC.csv,"Read Version C","Dissertation, read only version C",SITE,LOCATION,Study1,S,48,63,Study,User,-,,Study/JOL,"Study Phase",5517,,,-1,-1,,,,1
w947391_afr,jx27wti7ce,Nick_Dissertation_EX1,1,63,2020-04-22T12:34:10-07:00,10.620934009552,3,versionC_stim.csv,READVersionC.csv,"Read Version C","Dissertation, read only version C",ATTIRE,CLOTHES,Study1,F,43,44,Study,User,-,,Study/JOL,"Study Phase",10306,,,-1,-1,,,,1
w947391_afr,jx27wti7ce,Nick_Dissertation_EX1,1,64,2020-04-22T12:34:22-07:00,11.950673103333,3,versionC_stim.csv,READVersionC.csv,"Read Version C","Dissertation, read only version C",TALK,DISCUSSION,Study1,B,21,12,Study,User,-,,Study/JOL,"Study Phase",11586,,,-1,-1,,,,1
w947391_afr,jx27wti7ce,Nick_Dissertation_EX1,1,65,2020-04-22T12:34:27-07:00,4.9121010303497,3,versionC_stim.csv,READVersionC.csv,"Read Version C","Dissertation, read only version C",DIVISION,MATH,Study1,F,33,29,Study,User,-,,Study/JOL,"Study Phase",4578,,,-1,-1,,,,1
w947391_afr,jx27wti7ce,Nick_Dissertation_EX1,1,66,2020-04-22T12:34:34-07:00,6.912538766861,3,versionC_stim.csv,READVersionC.csv,"Read Version C","Dissertation, read only version C",BRONZE,ARTERY,Study1,U,74,81,Study,User,-,,Study/JOL,"Study Phase",6579,,,-1,-1,,,,1
w947391_afr,jx27wti7ce,Nick_Dissertation_EX1,1,67,2020-04-22T12:34:55-07:00,21.880124092102,3,versionC_stim.csv,READVersionC.csv,"Read Version C","Dissertation, read only version C",TUCK,ALLOW,Study1,U,78,71,Study,User,-,,Study/JOL,"Study Phase",21320,,,-1,-1,,,,1
w947391_afr,jx27wti7ce,Nick_Dissertation_EX1,1,68,2020-04-22T12:35:01-07:00,5.26047706604,3,versionC_stim.csv,READVersionC.csv,"Read Version C","Dissertation, read only version C",WOMAN,LIFT,Study1,U,69,75,Study,User,-,,Study/JOL,"Study Phase",4753,,,-1,-1,,,,1
w947391_afr,jx27wti7ce,Nick_Dissertation_EX1,1,69,2020-04-22T12:35:22-07:00,21.145768880844,3,versionC_stim.csv,READVersionC.csv,"Read Version C","Dissertation, read only version C",VASE,KING,Study1,U,85,32,Study,User,-,,Study/JOL,"Study Phase",20727,,,-1,-1,,,,1
w947391_afr,jx27wti7ce,Nick_Dissertation_EX1,1,70,2020-04-22T12:35:40-07:00,17.795972108841,3,versionC_stim.csv,READVersionC.csv,"Read Version C","Dissertation, read only version C",COW,HERD,Study1,B,22,59,Study,User,-,,Study/JOL,"Study Phase",17282,,,-1,-1,,,,1
w947391_afr,jx27wti7ce,Nick_Dissertation_EX1,1,71,2020-04-22T12:35:44-07:00,4.7934510707855,3,versionC_stim.csv,READVersionC.csv,"Read Version C","Dissertation, read only version C",END,BEGIN,Study1,S,54,84,Study,User,-,,Study/JOL,"Study Phase",4457,,,-1,-1,,,,1
w947391_afr,jx27wti7ce,Nick_Dissertation_EX1,1,72,2020-04-22T12:35:50-07:00,5.5641248226166,3,versionC_stim.csv,READVersionC.csv,"Read Version C","Dissertation, read only version C",WORD,SENTENCE,Study1,F,31,50,Study,User,-,,Study/JOL,"Study Phase",5239,,,-1,-1,,,,1
w947391_afr,jx27wti7ce,Nick_Dissertation_EX1,1,73,2020-04-22T12:35:56-07:00,6.4296951293945,3,versionC_stim.csv,READVersionC.csv,"Read Version C","Dissertation, read only version C",DEFINITION,MEANING,Study1,S,62,61,Study,User,-,,Study/JOL,"Study Phase",6098,,,-1,-1,,,,1
w947391_afr,jx27wti7ce,Nick_Dissertation_EX1,1,74,2020-04-22T12:36:04-07:00,7.493588924408,3,versionC_stim.csv,READVersionC.csv,"Read Version C","Dissertation, read only version C",HAND,FIX,Study1,U,75,80,Study,User,-,,Study/JOL,"Study Phase",7180,,,-1,-1,,,,1
w947391_afr,jx27wti7ce,Nick_Dissertation_EX1,1,75,2020-04-22T12:36:12-07:00,8.1422510147095,3,versionC_stim.csv,READVersionC.csv,"Read Version C","Dissertation, read only version C",LION,ART,Study1,U,79,19,Study,User,-,,Study/JOL,"Study Phase",7820,,,-1,-1,,,,1
w947391_afr,jx27wti7ce,Nick_Dissertation_EX1,1,76,2020-04-22T12:36:17-07:00,4.6737020015717,3,versionC_stim.csv,READVersionC.csv,"Read Version C","Dissertation, read only version C",RIDDLE,SUGAR,Study1,U,81,37,Study,User,-,,Study/JOL,"Study Phase",4233,,,-1,-1,,,,1
w947391_afr,jx27wti7ce,Nick_Dissertation_EX1,1,77,2020-04-22T12:36:26-07:00,9.1829690933228,3,versionC_stim.csv,READVersionC.csv,"Read Version C","Dissertation, read only version C",FAMINE,HUNGER,Study1,F,40,41,Study,User,-,,Study/JOL,"Study Phase",7446,,,-1,-1,,,,1
w947391_afr,jx27wti7ce,Nick_Dissertation_EX1,1,78,2020-04-22T12:36:34-07:00,8.1722369194031,3,versionC_stim.csv,READVersionC.csv,"Read Version C","Dissertation, read only version C",CAR,HAPPY,Study1,U,77,52,Study,User,-,,Study/JOL,"Study Phase",7557,,,-1,-1,,,,1
w947391_afr,jx27wti7ce,Nick_Dissertation_EX1,1,79,2020-04-22T12:37:06-07:00,32.145215034485,3,versionC_stim.csv,READVersionC.csv,"Read Version C","Dissertation, read only version C",FLOWER,ORCHID,Study1,B,24,30,Study,User,-,,Study/JOL,"Study Phase",31666,,,-1,-1,,,,1
w947391_afr,jx27wti7ce,Nick_Dissertation_EX1,1,80,2020-04-22T12:37:12-07:00,5.5381109714508,3,versionC_stim.csv,READVersionC.csv,"Read Version C","Dissertation, read only version C",NEWS,EDITOR,Study1,B,10,8,Study,User,-,,Study/JOL,"Study Phase",4670,,,-1,-1,,,,1
w947391_afr,jx27wti7ce,Nick_Dissertation_EX1,1,81,2020-04-22T12:37:18-07:00,6.271714925766,3,versionC_stim.csv,READVersionC.csv,"Read Version C","Dissertation, read only version C",LIVER,KIDNEY,Study1,S,53,35,Study,User,-,,Study/JOL,"Study Phase",5133,,,-1,-1,,,,1
w947391_afr,jx27wti7ce,Nick_Dissertation_EX1,1,82,2020-04-22T12:37:26-07:00,8.4067611694336,3,versionC_stim.csv,READVersionC.csv,"Read Version C","Dissertation, read only version C",DROWSY,SLEEP,Study1,F,41,78,Study,User,-,,Study/JOL,"Study Phase",7970,,,-1,-1,,,,1
w947391_afr,jx27wti7ce,Nick_Dissertation_EX1,1,83,2020-04-22T12:37:32-07:00,5.3258459568024,3,versionC_stim.csv,READVersionC.csv,"Read Version C","Dissertation, read only version C",STENCH,SMELL,Study1,F,42,67,Study,User,-,,Study/JOL,"Study Phase",4998,,,-1,-1,,,,1
w947391_afr,jx27wti7ce,Nick_Dissertation_EX1,1,84,2020-04-22T12:37:41-07:00,8.8122229576111,3,versionC_stim.csv,READVersionC.csv,"Read Version C","Dissertation, read only version C",ATTORNEY,LAW,Study1,F,34,74,Study,User,-,,Study/JOL,"Study Phase",8489,,,-1,-1,,,,1
w947391_afr,jx27wti7ce,Nick_Dissertation_EX1,1,85,2020-04-22T12:37:47-07:00,6.4653079509735,3,versionC_stim.csv,READVersionC.csv,"Read Version C","Dissertation, read only version C",CLUTTER,PUSHER,Study1,U,66,65,Study,User,-,,Study/JOL,"Study Phase",6154,,,-1,-1,,,,1
w947391_afr,jx27wti7ce,Nick_Dissertation_EX1,1,86,2020-04-22T12:37:57-07:00,10.170963048935,3,versionC_stim.csv,READVersionC.csv,"Read Version C","Dissertation, read only version C",CLEAN,HYGIENE,Study1,B,17,68,Study,User,-,,Study/JOL,"Study Phase",9330,,,-1,-1,,,,1
w947391_afr,jx27wti7ce,Nick_Dissertation_EX1,1,87,2020-04-22T12:38:05-07:00,7.5230798721313,3,versionC_stim.csv,READVersionC.csv,"Read Version C","Dissertation, read only version C",STUFF,THING,BUFFER2,Buffer,90,89,Study,User,-,,Study/JOL,BUFFER2,6654,,,-1,-1,,,,1
w947391_afr,jx27wti7ce,Nick_Dissertation_EX1,1,88,2020-04-22T12:38:11-07:00,6.4069271087646,3,versionC_stim.csv,READVersionC.csv,"Read Version C","Dissertation, read only version C",GOOSE,GEESE,BUFFER2,Buffer,86,88,Study,User,-,,Study/JOL,BUFFER2,5704,,,-1,-1,,,,1
w947391_afr,jx27wti7ce,Nick_Dissertation_EX1,1,89,2020-04-22T12:38:21-07:00,9.8895740509033,3,versionC_stim.csv,READVersionC.csv,"Read Version C","Dissertation, read only version C",SPACE,MOON,BUFFER2,Buffer,89,91,Study,User,-,,Study/JOL,BUFFER2,9554,,,-1,-1,,,,1
w947391_afr,jx27wti7ce,Nick_Dissertation_EX1,1,90,2020-04-22T12:38:28-07:00,6.6480848789215,3,versionC_stim.csv,READVersionC.csv,"Read Version C","Dissertation, read only version C",POLICE,SHERRIF,BUFFER2,Buffer,87,87,Study,User,-,,Study/JOL,BUFFER2,6329,,,-1,-1,,,,1
w947391_afr,jx27wti7ce,Nick_Dissertation_EX1,1,91,2020-04-22T12:38:33-07:00,5.7191090583801,3,versionC_stim.csv,READVersionC.csv,"Read Version C","Dissertation, read only version C",CHOCOLATE,MALT,BUFFER2,Buffer,88,90,Study,User,-,,Study/JOL,BUFFER2,5399,,,-1,-1,,,,1
w947391_afr,jx27wti7ce,Nick_Dissertation_EX1,1,92,2020-04-22T12:38:42-07:00,8.1730151176453,3,versionC_stim.csv,READVersionC.csv,"Read Version C","Dissertation, read only version C",,,,,,0,Instruct,User,-,"You have completed this section. Please press Enter.",Filler_Instruction,Instruct2,7015,,,-1,-1,,,,1
w947391_afr,jx27wti7ce,Nick_Dissertation_EX1,1,93,2020-04-22T12:40:44-07:00,122.36859488487,3,versionC_stim.csv,READVersionC.csv,"Read Version C","Dissertation, read only version C",,,,,,0,FreeRecall,120,120,"Please list the 50 US states in alphabetical order. The task will automatically advance to the next screen after two minutes.",,Filler1,120004,"Alabama, Alaska, Arizona, Arkansas, California, Colorado, Florida, Georgia, Kansas, Kentucky Maryland, Massachusetts, Minnesota, Mississippi, Missouri, Montana",0,25324,112539,0,0,,1
w947391_afr,jx27wti7ce,Nick_Dissertation_EX1,1,94,2020-04-22T12:41:00-07:00,15.969664096832,3,versionC_stim.csv,READVersionC.csv,"Read Version C","Dissertation, read only version C",,,,,,0,Instruct,-,10,"You will now be presented with the first word from each of the previously studied item pairs. Please type the missing word. If you do not know the word, you may guess or press Enter to skip forward to the next pair.",,Instruct3,14180,,,-1,-1,,,,1
w947391_afr,jx27wti7ce,Nick_Dissertation_EX1,1,95,2020-04-22T12:41:06-07:00,6.4334669113159,3,versionC_stim.csv,READVersionC.csv,"Read Version C","Dissertation, read only version C",WORD,SENTENCE,Study1,F,31,50,Test,User,-,,Recall,Recall1,5836,sentence,100,2171,3047,1,1,,1
w947391_afr,jx27wti7ce,Nick_Dissertation_EX1,1,96,2020-04-22T12:41:18-07:00,11.478121995926,3,versionC_stim.csv,READVersionC.csv,"Read Version C","Dissertation, read only version C",BAD,DELINQUENT,Study1,B,6,72,Test,User,-,,Recall,Recall1,11152,,0,-1,-1,0,0,,1
w947391_afr,jx27wti7ce,Nick_Dissertation_EX1,1,97,2020-04-22T12:41:22-07:00,3.9966859817505,3,versionC_stim.csv,READVersionC.csv,"Read Version C","Dissertation, read only version C",CHILD,BABY,Study1,S,64,28,Test,User,-,,Recall,Recall1,3671,baby,100,1781,2062,1,1,,1
w947391_afr,jx27wti7ce,Nick_Dissertation_EX1,1,98,2020-04-22T12:41:29-07:00,7.3126590251923,3,versionC_stim.csv,READVersionC.csv,"Read Version C","Dissertation, read only version C",STENCH,SMELL,Study1,F,42,67,Test,User,-,,Recall,Recall1,6988,smell,100,5355,6758,1,1,,1
w947391_afr,jx27wti7ce,Nick_Dissertation_EX1,1,99,2020-04-22T12:41:33-07:00,3.7685430049896,3,versionC_stim.csv,READVersionC.csv,"Read Version C","Dissertation, read only version C",PLANT,ROOT,Study1,B,13,16,Test,User,-,,Recall,Recall1,3449,orchid,20,2718,3236,0,0,,1
w947391_afr,jx27wti7ce,Nick_Dissertation_EX1,1,100,2020-04-22T12:41:49-07:00,15.920044898987,3,versionC_stim.csv,READVersionC.csv,"Read Version C","Dissertation, read only version C",WASTE,DUMP,Study1,S,49,34,Test,User,-,,Recall,Recall1,15568,dump,100,14654,15021,1,1,,1
w947391_afr,jx27wti7ce,Nick_Dissertation_EX1,1,101,2020-04-22T12:42:07-07:00,17.71931219101,3,versionC_stim.csv,READVersionC.csv,"Read Version C","Dissertation, read only version C",RACKET,BALL,Study1,F,38,58,Test,User,-,,Recall,Recall1,17126,ball,100,16622,16901,1,1,,1
w947391_afr,jx27wti7ce,Nick_Dissertation_EX1,1,102,2020-04-22T12:42:25-07:00,18.055444002151,3,versionC_stim.csv,READVersionC.csv,"Read Version C","Dissertation, read only version C",SEIZE,TAKE,Study1,F,29,21,Test,User,-,,Recall,Recall1,17721,take,100,17105,17435,1,1,,0.976
w947391_afr,jx27wti7ce,Nick_Dissertation_EX1,1,103,2020-04-22T12:42:33-07:00,7.914696931839,3,versionC_stim.csv,READVersionC.csv,"Read Version C","Dissertation, read only version C",DIVISION,MATH,Study1,F,33,29,Test,User,-,,Recall,Recall1,7380,math,100,6480,7155,1,1,,1
w947391_afr,jx27wti7ce,Nick_Dissertation_EX1,1,104,2020-04-22T12:42:42-07:00,9.5395069122314,3,versionC_stim.csv,READVersionC.csv,"Read Version C","Dissertation, read only version C",JURY,TRIAL,Study1,S,50,18,Test,User,-,,Recall,Recall1,9224,trial,100,8390,8968,1,1,,1
w947391_afr,jx27wti7ce,Nick_Dissertation_EX1,1,105,2020-04-22T12:42:47-07:00,5.3766400814056,3,versionC_stim.csv,READVersionC.csv,"Read Version C","Dissertation, read only version C",BUSINESS,DEATH,Study1,U,72,26,Test,User,-,,Recall,Recall1,5042,,0,-1,-1,0,0,,1
w947391_afr,jx27wti7ce,Nick_Dissertation_EX1,1,106,2020-04-22T12:42:58-07:00,11.078125953674,3,versionC_stim.csv,READVersionC.csv,"Read Version C","Dissertation, read only version C",HAND,FIX,Study1,U,75,80,Test,User,-,,Recall,Recall1,10756,,0,-1,-1,0,0,,1
w947391_afr,jx27wti7ce,Nick_Dissertation_EX1,1,107,2020-04-22T12:43:21-07:00,22.256305932999,3,versionC_stim.csv,READVersionC.csv,"Read Version C","Dissertation, read only version C",BLAZE,FIRE,Study1,F,45,25,Test,User,-,,Recall,Recall1,21755,fire,100,21209,21513,1,1,,1
w947391_afr,jx27wti7ce,Nick_Dissertation_EX1,1,108,2020-04-22T12:43:43-07:00,22.550992965698,3,versionC_stim.csv,READVersionC.csv,"Read Version C","Dissertation, read only version C",TALK,DISCUSSION,Study1,B,21,12,Test,User,-,,Recall,Recall1,21870,discussion,100,20133,21612,1,1,,0.855
w947391_afr,jx27wti7ce,Nick_Dissertation_EX1,1,109,2020-04-22T12:44:17-07:00,33.980682134628,3,versionC_stim.csv,READVersionC.csv,"Read Version C","Dissertation, read only version C",SODA,POP,Study1,S,56,36,Test,User,-,,Recall,Recall1,32033,pop,100,31565,31786,1,1,,1
w947391_afr,jx27wti7ce,Nick_Dissertation_EX1,1,110,2020-04-22T12:44:39-07:00,21.693973064423,3,versionC_stim.csv,READVersionC.csv,"Read Version C","Dissertation, read only version C",VASE,KING,Study1,U,85,32,Test,User,-,,Recall,Recall1,20578,,0,-1,-1,0,0,,1
w947391_afr,jx27wti7ce,Nick_Dissertation_EX1,1,111,2020-04-22T12:44:52-07:00,12.526319980621,3,versionC_stim.csv,READVersionC.csv,"Read Version C","Dissertation, read only version C",SIGHT,DEBATE,Study1,U,73,38,Test,User,-,,Recall,Recall1,12200,,0,-1,-1,0,0,,1
w947391_afr,jx27wti7ce,Nick_Dissertation_EX1,1,112,2020-04-22T12:44:59-07:00,7.0083129405975,3,versionC_stim.csv,READVersionC.csv,"Read Version C","Dissertation, read only version C",COW,HERD,Study1,B,22,59,Test,User,-,,Recall,Recall1,6685,herd,100,6131,6571,1,1,,1
w947391_afr,jx27wti7ce,Nick_Dissertation_EX1,1,113,2020-04-22T12:45:03-07:00,4.59827709198,3,versionC_stim.csv,READVersionC.csv,"Read Version C","Dissertation, read only version C",SITE,LOCATION,Study1,S,48,63,Test,User,-,,Recall,Recall1,4278,location,100,3095,3973,1,1,,1
w947391_afr,jx27wti7ce,Nick_Dissertation_EX1,1,114,2020-04-22T12:45:26-07:00,22.671291828156,3,versionC_stim.csv,READVersionC.csv,"Read Version C","Dissertation, read only version C",NEWS,EDITOR,Study1,B,10,8,Test,User,-,,Recall,Recall1,22049,editor,100,20527,21939,1,1,,1
w947391_afr,jx27wti7ce,Nick_Dissertation_EX1,1,115,2020-04-22T12:45:38-07:00,12.044648170471,3,versionC_stim.csv,READVersionC.csv,"Read Version C","Dissertation, read only version C",AMOUNT,NUMBER,Study1,S,47,27,Test,User,-,,Recall,Recall1,11220,number,100,10095,11089,1,1,,1
w947391_afr,jx27wti7ce,Nick_Dissertation_EX1,1,116,2020-04-22T12:45:45-07:00,7.4232230186462,3,versionC_stim.csv,READVersionC.csv,"Read Version C","Dissertation, read only version C",ATTORNEY,LAW,Study1,F,34,74,Test,User,-,,Recall,Recall1,7094,law,100,2458,6685,1,1,,1
w947391_afr,jx27wti7ce,Nick_Dissertation_EX1,1,117,2020-04-22T12:46:09-07:00,24.130589962006,3,versionC_stim.csv,READVersionC.csv,"Read Version C","Dissertation, read only version C",PILOT,PLANE,Study1,F,44,11,Test,User,-,,Recall,Recall1,23646,plane,100,22874,23341,1,1,,1
w947391_afr,jx27wti7ce,Nick_Dissertation_EX1,1,118,2020-04-22T12:46:20-07:00,10.467852830887,3,versionC_stim.csv,READVersionC.csv,"Read Version C","Dissertation, read only version C",WOULD,CASH,Study1,U,83,57,Test,User,-,,Recall,Recall1,10131,,0,-1,-1,0,0,,1
w947391_afr,jx27wti7ce,Nick_Dissertation_EX1,1,119,2020-04-22T12:46:27-07:00,7.6452851295471,3,versionC_stim.csv,READVersionC.csv,"Read Version C","Dissertation, read only version C",OUT,WAY,Study1,B,16,62,Test,User,-,,Recall,Recall1,7320,way,100,6904,7054,1,1,,1
w947391_afr,jx27wti7ce,Nick_Dissertation_EX1,1,120,2020-04-22T12:46:30-07:00,2.6490340232849,3,versionC_stim.csv,READVersionC.csv,"Read Version C","Dissertation, read only version C",BEE,HONEY,Study1,S,63,79,Test,User,-,,Recall,Recall1,2315,honey,100,1819,2195,1,1,,1
w947391_afr,jx27wti7ce,Nick_Dissertation_EX1,1,121,2020-04-22T12:46:36-07:00,5.5853710174561,3,versionC_stim.csv,READVersionC.csv,"Read Version C","Dissertation, read only version C",COLD,BITTER,Study1,B,12,9,Test,User,-,,Recall,Recall1,4951,,0,-1,-1,0,0,,1
w947391_afr,jx27wti7ce,Nick_Dissertation_EX1,1,122,2020-04-22T12:46:43-07:00,6.8401780128479,3,versionC_stim.csv,READVersionC.csv,"Read Version C","Dissertation, read only version C",DOG,PAW,Study1,B,15,82,Test,User,-,,Recall,Recall1,5872,paw,100,5425,5568,1,1,,1
w947391_afr,jx27wti7ce,Nick_Dissertation_EX1,1,123,2020-04-22T12:46:57-07:00,14.700829029083,3,versionC_stim.csv,READVersionC.csv,"Read Version C","Dissertation, read only version C",CLUTTER,PUSHER,Study1,U,66,65,Test,User,-,,Recall,Recall1,14379,,0,-1,-1,0,0,,1
w947391_afr,jx27wti7ce,Nick_Dissertation_EX1,1,124,2020-04-22T12:47:07-07:00,9.4950528144836,3,versionC_stim.csv,READVersionC.csv,"Read Version C","Dissertation, read only version C",CHILI,HOT,Study1,F,37,53,Test,User,-,,Recall,Recall1,9166,,0,-1,-1,0,0,,1
w947391_afr,jx27wti7ce,Nick_Dissertation_EX1,1,125,2020-04-22T12:47:10-07:00,3.4705331325531,3,versionC_stim.csv,READVersionC.csv,"Read Version C","Dissertation, read only version C",FOOT,SHOE,Study1,S,60,45,Test,User,-,,Recall,Recall1,3095,shoe,100,2544,2842,1,1,,1
w947391_afr,jx27wti7ce,Nick_Dissertation_EX1,1,126,2020-04-22T12:47:17-07:00,6.9298238754272,3,versionC_stim.csv,READVersionC.csv,"Read Version C","Dissertation, read only version C",ENOUGH,FULL,Study1,F,26,73,Test,User,-,,Recall,Recall1,6511,full,100,3994,4701,1,1,,1
w947391_afr,jx27wti7ce,Nick_Dissertation_EX1,1,127,2020-04-22T12:47:24-07:00,6.8684861660004,3,versionC_stim.csv,READVersionC.csv,"Read Version C","Dissertation, read only version C",MONEY,WAGE,Study1,B,8,60,Test,User,-,,Recall,Recall1,6537,wage,100,6026,6379,1,1,,1
w947391_afr,jx27wti7ce,Nick_Dissertation_EX1,1,128,2020-04-22T12:47:29-07:00,4.6653938293457,3,versionC_stim.csv,READVersionC.csv,"Read Version C","Dissertation, read only version C",ROUND,CIRCLE,Study1,S,65,46,Test,User,-,,Recall,Recall1,4304,circle,100,3668,4100,1,1,,1
w947391_afr,jx27wti7ce,Nick_Dissertation_EX1,1,129,2020-04-22T12:47:38-07:00,9.4393651485443,3,versionC_stim.csv,READVersionC.csv,"Read Version C","Dissertation, read only version C",CARD,CREDIT,Study1,B,23,76,Test,User,-,,Recall,Recall1,9062,credit,100,7726,8850,1,1,,1
w947391_afr,jx27wti7ce,Nick_Dissertation_EX1,1,130,2020-04-22T12:47:46-07:00,7.4602818489075,3,versionC_stim.csv,READVersionC.csv,"Read Version C","Dissertation, read only version C",ASSIGNMENT,DUE,Study1,S,46,42,Test,User,-,,Recall,Recall1,7119,due,100,6720,6852,1,1,,1
w947391_afr,jx27wti7ce,Nick_Dissertation_EX1,1,131,2020-04-22T12:47:48-07:00,2.8959791660309,3,versionC_stim.csv,READVersionC.csv,"Read Version C","Dissertation, read only version C",LIVER,KIDNEY,Study1,S,53,35,Test,User,-,,Recall,Recall1,2562,kidney,100,1103,1853,1,1,,1
w947391_afr,jx27wti7ce,Nick_Dissertation_EX1,1,132,2020-04-22T12:48:00-07:00,11.221186876297,3,versionC_stim.csv,READVersionC.csv,"Read Version C","Dissertation, read only version C",SICK,HIDE,Study1,U,84,15,Test,User,-,,Recall,Recall1,10896,,0,-1,-1,0,0,,1
w947391_afr,jx27wti7ce,Nick_Dissertation_EX1,1,133,2020-04-22T12:48:07-07:00,7.4757521152496,3,versionC_stim.csv,READVersionC.csv,"Read Version C","Dissertation, read only version C",HAMMER,CHISEL,Study1,B,9,40,Test,User,-,,Recall,Recall1,7145,,0,-1,-1,0,0,,1
w947391_afr,jx27wti7ce,Nick_Dissertation_EX1,1,134,2020-04-22T12:48:11-07:00,3.4825129508972,3,versionC_stim.csv,READVersionC.csv,"Read Version C","Dissertation, read only version C",CHORE,WORK,Study1,F,39,51,Test,User,-,,Recall,Recall1,3153,work,100,2609,2905,1,1,,1
w947391_afr,jx27wti7ce,Nick_Dissertation_EX1,1,135,2020-04-22T12:48:23-07:00,12.369838953018,3,versionC_stim.csv,READVersionC.csv,"Read Version C","Dissertation, read only version C",CAVE,DARK,Study1,F,28,20,Test,User,-,,Recall,Recall1,12042,dark,100,11489,11764,1,1,,1
w947391_afr,jx27wti7ce,Nick_Dissertation_EX1,1,136,2020-04-22T12:48:30-07:00,6.8718280792236,3,versionC_stim.csv,READVersionC.csv,"Read Version C","Dissertation, read only version C",WIND,BLOW,Study1,S,55,39,Test,User,-,,Recall,Recall1,6543,blow,100,5965,6287,1,1,,1
w947391_afr,jx27wti7ce,Nick_Dissertation_EX1,1,137,2020-04-22T12:48:41-07:00,11.095674991608,3,versionC_stim.csv,READVersionC.csv,"Read Version C","Dissertation, read only version C",ACCIDENT,STRONG,Study1,U,80,17,Test,User,-,,Recall,Recall1,10761,,0,-1,-1,0,0,,1
w947391_afr,jx27wti7ce,Nick_Dissertation_EX1,1,138,2020-04-22T12:49:03-07:00,21.807190895081,3,versionC_stim.csv,READVersionC.csv,"Read Version C","Dissertation, read only version C",RIDDLE,SUGAR,Study1,U,81,37,Test,User,-,,Recall,Recall1,21471,,0,-1,-1,0,0,,1
w947391_afr,jx27wti7ce,Nick_Dissertation_EX1,1,139,2020-04-22T12:49:36-07:00,32.885033130646,3,versionC_stim.csv,READVersionC.csv,"Read Version C","Dissertation, read only version C",STING,HORNET,Study1,B,11,77,Test,User,-,,Recall,Recall1,32471,,0,-1,-1,0,0,,1
w947391_afr,jx27wti7ce,Nick_Dissertation_EX1,1,140,2020-04-22T12:50:02-07:00,26.146908998489,3,versionC_stim.csv,READVersionC.csv,"Read Version C","Dissertation, read only version C",FLOWER,ORCHID,Study1,B,24,30,Test,User,-,,Recall,Recall1,25013,orchid,100,24167,24779,1,1,,1
w947391_afr,jx27wti7ce,Nick_Dissertation_EX1,1,141,2020-04-22T12:50:20-07:00,18.020075798035,3,versionC_stim.csv,READVersionC.csv,"Read Version C","Dissertation, read only version C",DESIGN,ARCHITECTURE,Study1,S,51,31,Test,User,-,,Recall,Recall1,16958,architecture,100,15478,16733,1,1,,1
w947391_afr,jx27wti7ce,Nick_Dissertation_EX1,1,142,2020-04-22T12:50:46-07:00,26.085808038712,3,versionC_stim.csv,READVersionC.csv,"Read Version C","Dissertation, read only version C",WAR,REVOLUTION,Study1,B,20,24,Test,User,-,,Recall,Recall1,25369,revolution,100,22859,25110,1,1,,1
w947391_afr,jx27wti7ce,Nick_Dissertation_EX1,1,143,2020-04-22T12:51:01-07:00,14.969609022141,3,versionC_stim.csv,READVersionC.csv,"Read Version C","Dissertation, read only version C",FISH,TUNA,Study1,B,25,55,Test,User,-,,Recall,Recall1,13591,tuna,100,11754,13403,1,1,,1
w947391_afr,jx27wti7ce,Nick_Dissertation_EX1,1,144,2020-04-22T12:51:07-07:00,5.8972179889679,3,versionC_stim.csv,READVersionC.csv,"Read Version C","Dissertation, read only version C",HUNGRY,PARK,Study1,U,68,86,Test,User,-,,Recall,Recall1,5562,,0,-1,-1,0,0,,1
w947391_afr,jx27wti7ce,Nick_Dissertation_EX1,1,145,2020-04-22T12:51:15-07:00,8.596883058548,3,versionC_stim.csv,READVersionC.csv,"Read Version C","Dissertation, read only version C",DROWSY,SLEEP,Study1,F,41,78,Test,User,-,,Recall,Recall1,8196,sleep,100,7366,7836,1,1,,1
w947391_afr,jx27wti7ce,Nick_Dissertation_EX1,1,146,2020-04-22T12:51:24-07:00,8.8494760990143,3,versionC_stim.csv,READVersionC.csv,"Read Version C","Dissertation, read only version C",ROCK,GEOLOGY,Study1,B,19,7,Test,User,-,,Recall,Recall1,8511,geology,100,6128,8279,1,1,,1
w947391_afr,jx27wti7ce,Nick_Dissertation_EX1,1,147,2020-04-22T12:51:31-07:00,6.5432169437408,3,versionC_stim.csv,READVersionC.csv,"Read Version C","Dissertation, read only version C",ADD,VALLEY,Study1,U,82,54,Test,User,-,,Recall,Recall1,6220,,0,-1,-1,0,0,,1
w947391_afr,jx27wti7ce,Nick_Dissertation_EX1,1,148,2020-04-22T12:51:42-07:00,10.743299007416,3,versionC_stim.csv,READVersionC.csv,"Read Version C","Dissertation, read only version C",BIRD,SWAN,Study1,B,14,43,Test,User,-,,Recall,Recall1,10413,,0,-1,-1,0,0,,1
w947391_afr,jx27wti7ce,Nick_Dissertation_EX1,1,149,2020-04-22T12:51:49-07:00,7.4076879024506,3,versionC_stim.csv,READVersionC.csv,"Read Version C","Dissertation, read only version C",STOMACH,DIGESTION,Study1,B,7,56,Test,User,-,,Recall,Recall1,7078,digestion,100,5869,6758,1,1,,1
w947391_afr,jx27wti7ce,Nick_Dissertation_EX1,1,150,2020-04-22T12:51:54-07:00,5.4750821590424,3,versionC_stim.csv,READVersionC.csv,"Read Version C","Dissertation, read only version C",WASP,BUG,Study1,F,32,23,Test,User,-,,Recall,Recall1,5145,bug,100,4459,4868,1,1,,1
w947391_afr,jx27wti7ce,Nick_Dissertation_EX1,1,151,2020-04-22T12:52:05-07:00,10.411350011826,3,versionC_stim.csv,READVersionC.csv,"Read Version C","Dissertation, read only version C",FAMINE,HUNGER,Study1,F,40,41,Test,User,-,,Recall,Recall1,10094,hunger,100,8190,9424,1,1,,1
w947391_afr,jx27wti7ce,Nick_Dissertation_EX1,1,152,2020-04-22T12:52:14-07:00,9.5757339000702,3,versionC_stim.csv,READVersionC.csv,"Read Version C","Dissertation, read only version C",CHEESE,WINE,Study1,S,57,22,Test,User,-,,Recall,Recall1,9028,wine,100,8618,8799,1,1,,1
w947391_afr,jx27wti7ce,Nick_Dissertation_EX1,1,153,2020-04-22T12:52:41-07:00,26.280839920044,3,versionC_stim.csv,READVersionC.csv,"Read Version C","Dissertation, read only version C",FLOOR,DISCOVER,Study1,U,71,33,Test,User,-,,Recall,Recall1,25943,,0,-1,-1,0,0,,1
w947391_afr,jx27wti7ce,Nick_Dissertation_EX1,1,154,2020-04-22T12:53:04-07:00,22.997750997543,3,versionC_stim.csv,READVersionC.csv,"Read Version C","Dissertation, read only version C",FANTASTIC,GREAT,Study1,F,35,83,Test,User,-,,Recall,Recall1,22505,great,100,21889,22322,1,1,,1
w947391_afr,jx27wti7ce,Nick_Dissertation_EX1,1,155,2020-04-22T12:53:32-07:00,28.330732107162,3,versionC_stim.csv,READVersionC.csv,"Read Version C","Dissertation, read only version C",WOMAN,LIFT,Study1,U,69,75,Test,User,-,,Recall,Recall1,27267,,0,-1,-1,0,0,,1
w947391_afr,jx27wti7ce,Nick_Dissertation_EX1,1,156,2020-04-22T12:53:37-07:00,4.8701128959656,3,versionC_stim.csv,READVersionC.csv,"Read Version C","Dissertation, read only version C",END,BEGIN,Study1,S,54,84,Test,User,-,,Recall,Recall1,3976,begin,100,2220,3032,1,1,,1
w947391_afr,jx27wti7ce,Nick_Dissertation_EX1,1,157,2020-04-22T12:53:46-07:00,8.6117920875549,3,versionC_stim.csv,READVersionC.csv,"Read Version C","Dissertation, read only version C",GROWTH,HEIGHT,Study1,F,30,10,Test,User,-,,Recall,Recall1,8290,height,100,4640,7660,1,1,,1
w947391_afr,jx27wti7ce,Nick_Dissertation_EX1,1,158,2020-04-22T12:53:50-07:00,4.4236149787903,3,versionC_stim.csv,READVersionC.csv,"Read Version C","Dissertation, read only version C",SIP,DRINK,Study1,F,27,64,Test,User,-,,Recall,Recall1,4096,drink,100,2883,3786,1,1,,1
w947391_afr,jx27wti7ce,Nick_Dissertation_EX1,1,159,2020-04-22T12:54:11-07:00,21.441163063049,3,versionC_stim.csv,READVersionC.csv,"Read Version C","Dissertation, read only version C",BRONZE,ARTERY,Study1,U,74,81,Test,User,-,,Recall,Recall1,21113,,0,-1,-1,0,0,,1
w947391_afr,jx27wti7ce,Nick_Dissertation_EX1,1,160,2020-04-22T12:54:36-07:00,25.103868961334,3,versionC_stim.csv,READVersionC.csv,"Read Version C","Dissertation, read only version C",FUTURE,PAST,Study1,S,61,69,Test,User,-,,Recall,Recall1,24204,past,100,13246,13526,1,1,,1
w947391_afr,jx27wti7ce,Nick_Dissertation_EX1,1,161,2020-04-22T12:54:43-07:00,6.5385558605194,3,versionC_stim.csv,READVersionC.csv,"Read Version C","Dissertation, read only version C",WATER,BRIDGE,Study1,B,18,14,Test,User,-,,Recall,Recall1,5297,bridge,100,4541,5167,1,1,,1
w947391_afr,jx27wti7ce,Nick_Dissertation_EX1,1,162,2020-04-22T12:54:50-07:00,7.2899630069733,3,versionC_stim.csv,READVersionC.csv,"Read Version C","Dissertation, read only version C",TUCK,ALLOW,Study1,U,78,71,Test,User,-,,Recall,Recall1,6947,,0,-1,-1,0,0,,1
w947391_afr,jx27wti7ce,Nick_Dissertation_EX1,1,163,2020-04-22T12:55:26-07:00,35.485194206238,3,versionC_stim.csv,READVersionC.csv,"Read Version C","Dissertation, read only version C",SACKING,DIETARY,Study1,U,67,70,Test,User,-,,Recall,Recall1,35163,,0,-1,-1,0,0,,1
w947391_afr,jx27wti7ce,Nick_Dissertation_EX1,1,164,2020-04-22T12:55:31-07:00,5.1085598468781,3,versionC_stim.csv,READVersionC.csv,"Read Version C","Dissertation, read only version C",POSITION,MACHINE,Study1,U,76,13,Test,User,-,,Recall,Recall1,4782,,0,-1,-1,0,0,,1
w947391_afr,jx27wti7ce,Nick_Dissertation_EX1,1,165,2020-04-22T12:55:44-07:00,13.37655711174,3,versionC_stim.csv,READVersionC.csv,"Read Version C","Dissertation, read only version C",BELT,SOON,Study1,U,70,48,Test,User,-,,Recall,Recall1,13042,,0,-1,-1,0,0,,1
w947391_afr,jx27wti7ce,Nick_Dissertation_EX1,1,166,2020-04-22T12:55:57-07:00,13.053886890411,3,versionC_stim.csv,READVersionC.csv,"Read Version C","Dissertation, read only version C",CAR,HAPPY,Study1,U,77,52,Test,User,-,,Recall,Recall1,12715,,0,-1,-1,0,0,,1
w947391_afr,jx27wti7ce,Nick_Dissertation_EX1,1,167,2020-04-22T12:56:04-07:00,6.4930980205536,3,versionC_stim.csv,READVersionC.csv,"Read Version C","Dissertation, read only version C",CLEAN,HYGIENE,Study1,B,17,68,Test,User,-,,Recall,Recall1,6158,hygiene,100,2543,5651,1,1,,1
w947391_afr,jx27wti7ce,Nick_Dissertation_EX1,1,168,2020-04-22T12:56:44-07:00,39.984173059464,3,versionC_stim.csv,READVersionC.csv,"Read Version C","Dissertation, read only version C",DEFINITION,MEANING,Study1,S,62,61,Test,User,-,,Recall,Recall1,25045,meaning,100,23798,24898,1,1,,1
w947391_afr,jx27wti7ce,Nick_Dissertation_EX1,1,169,2020-04-22T12:56:53-07:00,9.4938850402832,3,versionC_stim.csv,READVersionC.csv,"Read Version C","Dissertation, read only version C",LION,ART,Study1,U,79,19,Test,User,-,,Recall,Recall1,5432,,0,-1,-1,0,0,,1
w947391_afr,jx27wti7ce,Nick_Dissertation_EX1,1,170,2020-04-22T12:57:06-07:00,13.016778945923,3,versionC_stim.csv,READVersionC.csv,"Read Version C","Dissertation, read only version C",LATCH,KEY,Study1,F,36,49,Test,User,-,,Recall,Recall1,12689,key,100,12038,12437,1,1,,1
w947391_afr,jx27wti7ce,Nick_Dissertation_EX1,1,171,2020-04-22T12:57:10-07:00,4.0378260612488,3,versionC_stim.csv,READVersionC.csv,"Read Version C","Dissertation, read only version C",SALAD,LETTUCE,Study1,S,59,47,Test,User,-,,Recall,Recall1,3440,lettuce,100,1906,2765,1,1,,1
w947391_afr,jx27wti7ce,Nick_Dissertation_EX1,1,172,2020-04-22T12:57:14-07:00,3.4857959747314,3,versionC_stim.csv,READVersionC.csv,"Read Version C","Dissertation, read only version C",BAR,GRILL,Study1,S,52,66,Test,User,-,,Recall,Recall1,2963,grill,100,1821,2691,1,1,,1
w947391_afr,jx27wti7ce,Nick_Dissertation_EX1,1,173,2020-04-22T12:57:35-07:00,21.275174856186,3,versionC_stim.csv,READVersionC.csv,"Read Version C","Dissertation, read only version C",ATTIRE,CLOTHES,Study1,F,43,44,Test,User,-,,Recall,Recall1,20942,clothes,100,19992,20715,1,1,,1
w947391_afr,jx27wti7ce,Nick_Dissertation_EX1,1,174,2020-04-22T12:57:45-07:00,9.5132529735565,3,versionC_stim.csv,READVersionC.csv,"Read Version C","Dissertation, read only version C",TOILET,BATHROOM,Study1,S,58,85,Test,User,-,,Recall,Recall1,9178,bathroom,100,7796,8940,1,1,,1
w947391_afr,jx27wti7ce,Nick_Dissertation_EX1,1,175,2020-04-22T12:58:00-07:00,14.945931196213,3,versionC_stim.csv,READVersionC.csv,"Read Version C","Dissertation, read only version C",,,,,,0,Instruct,-,10,"You will now be presented with a new set of word pairs. Please study each pair. Remember that your memory will be tested! When finished, press Enter to move to the next pair.",Initial_Instruct,Instruct4,14533,,,-1,-1,,,,1
w947391_afr,jx27wti7ce,Nick_Dissertation_EX1,1,176,2020-04-22T12:58:06-07:00,6.7869210243225,3,versionC_stim.csv,READVersionC.csv,"Read Version C","Dissertation, read only version C",FROZEN,ICE,BUFFER3,Buffer,94,96,Study,User,-,,Study/JOL,BUFFER3,6141,,,-1,-1,,,,1
w947391_afr,jx27wti7ce,Nick_Dissertation_EX1,1,177,2020-04-22T12:58:11-07:00,4.1714038848877,3,versionC_stim.csv,READVersionC.csv,"Read Version C","Dissertation, read only version C",ADVENTURE,CAMP,BUFFER3,Buffer,95,95,Study,User,-,,Study/JOL,BUFFER3,3840,,,-1,-1,,,,1
w947391_afr,jx27wti7ce,Nick_Dissertation_EX1,1,178,2020-04-22T12:58:35-07:00,24.956341981888,3,versionC_stim.csv,READVersionC.csv,"Read Version C","Dissertation, read only version C",STRING,NOODLE,BUFFER3,Buffer,92,93,Study,User,-,,Study/JOL,BUFFER3,24625,,,-1,-1,,,,1
w947391_afr,jx27wti7ce,Nick_Dissertation_EX1,1,179,2020-04-22T12:58:40-07:00,4.5350470542908,3,versionC_stim.csv,READVersionC.csv,"Read Version C","Dissertation, read only version C",POTATO,CARROT,BUFFER3,Buffer,91,92,Study,User,-,,Study/JOL,BUFFER3,4210,,,-1,-1,,,,1
w947391_afr,jx27wti7ce,Nick_Dissertation_EX1,1,180,2020-04-22T12:58:45-07:00,5.3617689609528,3,versionC_stim.csv,READVersionC.csv,"Read Version C","Dissertation, read only version C",FISH,SHRIMP,BUFFER3,Buffer,93,94,Study,User,-,,Study/JOL,BUFFER3,5008,,,-1,-1,,,,1
w947391_afr,jx27wti7ce,Nick_Dissertation_EX1,1,181,2020-04-22T12:58:54-07:00,8.3460941314697,3,versionC_stim.csv,READVersionC.csv,"Read Version C","Dissertation, read only version C",CHARM,VEHICLE,Study2,U,160,142,Study,User,-,,Study/JOL,"Study Phase2",7962,,,-1,-1,,,,1
w947391_afr,jx27wti7ce,Nick_Dissertation_EX1,1,182,2020-04-22T12:58:59-07:00,5.2641639709473,3,versionC_stim.csv,READVersionC.csv,"Read Version C","Dissertation, read only version C",REVENGE,EVEN,Study2,F,122,108,Study,User,-,,Study/JOL,"Study Phase2",4909,,,-1,-1,,,,1
w947391_afr,jx27wti7ce,Nick_Dissertation_EX1,1,183,2020-04-22T12:59:04-07:00,4.8943748474121,3,versionC_stim.csv,READVersionC.csv,"Read Version C","Dissertation, read only version C",FIGHT,FEUD,Study2,B,113,112,Study,User,-,,Study/JOL,"Study Phase2",4562,,,-1,-1,,,,1
w947391_afr,jx27wti7ce,Nick_Dissertation_EX1,1,184,2020-04-22T12:59:09-07:00,4.8992719650269,3,versionC_stim.csv,READVersionC.csv,"Read Version C","Dissertation, read only version C",ABLE,CRACKLE,Study2,U,162,115,Study,User,-,,Study/JOL,"Study Phase2",4563,,,-1,-1,,,,1
w947391_afr,jx27wti7ce,Nick_Dissertation_EX1,1,185,2020-04-22T12:59:22-07:00,12.734225034714,3,versionC_stim.csv,READVersionC.csv,"Read Version C","Dissertation, read only version C",MYSTERY,DETECTIVE,Study2,B,100,162,Study,User,-,,Study/JOL,"Study Phase2",12145,,,-1,-1,,,,1
w947391_afr,jx27wti7ce,Nick_Dissertation_EX1,1,186,2020-04-22T12:59:29-07:00,7.4400880336761,3,versionC_stim.csv,READVersionC.csv,"Read Version C","Dissertation, read only version C",TIE,SHOELACE,Study2,B,99,128,Study,User,-,,Study/JOL,"Study Phase2",7090,,,-1,-1,,,,1
w947391_afr,jx27wti7ce,Nick_Dissertation_EX1,1,187,2020-04-22T12:59:34-07:00,5.2847471237183,3,versionC_stim.csv,READVersionC.csv,"Read Version C","Dissertation, read only version C",AWAY,GONE,Study2,S,142,168,Study,User,-,,Study/JOL,"Study Phase2",4872,,,-1,-1,,,,1
w947391_afr,jx27wti7ce,Nick_Dissertation_EX1,1,188,2020-04-22T12:59:50-07:00,15.865708827972,3,versionC_stim.csv,READVersionC.csv,"Read Version C","Dissertation, read only version C",TRUTHFUL,HONEST,Study2,F,133,120,Study,User,-,,Study/JOL,"Study Phase2",15530,,,-1,-1,,,,1
w947391_afr,jx27wti7ce,Nick_Dissertation_EX1,1,189,2020-04-22T12:59:55-07:00,5.1983091831207,3,versionC_stim.csv,READVersionC.csv,"Read Version C","Dissertation, read only version C",BALLOON,POP,Study2,F,123,122,Study,User,-,,Study/JOL,"Study Phase2",4862,,,-1,-1,,,,1
w947391_afr,jx27wti7ce,Nick_Dissertation_EX1,1,190,2020-04-22T13:00:00-07:00,4.4875478744507,3,versionC_stim.csv,READVersionC.csv,"Read Version C","Dissertation, read only version C",DOG,FURRY,Study2,B,102,133,Study,User,-,,Study/JOL,"Study Phase2",4130,,,-1,-1,,,,1
w947391_afr,jx27wti7ce,Nick_Dissertation_EX1,1,191,2020-04-22T13:00:08-07:00,8.2738289833069,3,versionC_stim.csv,READVersionC.csv,"Read Version C","Dissertation, read only version C",BANG,FUZZY,Study2,U,168,131,Study,User,-,,Study/JOL,"Study Phase2",7858,,,-1,-1,,,,1
w947391_afr,jx27wti7ce,Nick_Dissertation_EX1,1,192,2020-04-22T13:00:39-07:00,30.942239046097,3,versionC_stim.csv,READVersionC.csv,"Read Version C","Dissertation, read only version C",LONELY,ALONE,Study2,S,145,176,Study,User,-,,Study/JOL,"Study Phase2",30593,,,-1,-1,,,,1
w947391_afr,jx27wti7ce,Nick_Dissertation_EX1,1,193,2020-04-22T13:00:45-07:00,6.3846468925476,3,versionC_stim.csv,READVersionC.csv,"Read Version C","Dissertation, read only version C",WINDSHIELD,CAR,Study2,F,117,114,Study,User,-,,Study/JOL,"Study Phase2",5494,,,-1,-1,,,,1
w947391_afr,jx27wti7ce,Nick_Dissertation_EX1,1,194,2020-04-22T13:00:49-07:00,3.8534841537476,3,versionC_stim.csv,READVersionC.csv,"Read Version C","Dissertation, read only version C",WET,DRY,Study2,S,146,139,Study,User,-,,Study/JOL,"Study Phase2",3519,,,-1,-1,,,,1
w947391_afr,jx27wti7ce,Nick_Dissertation_EX1,1,195,2020-04-22T13:00:53-07:00,3.9972059726715,3,versionC_stim.csv,READVersionC.csv,"Read Version C","Dissertation, read only version C",END,ADJOURN,Study2,B,101,103,Study,User,-,,Study/JOL,"Study Phase2",3675,,,-1,-1,,,,1
w947391_afr,jx27wti7ce,Nick_Dissertation_EX1,1,196,2020-04-22T13:00:58-07:00,5.2285158634186,3,versionC_stim.csv,READVersionC.csv,"Read Version C","Dissertation, read only version C",FAVORITE,BEST,Study2,F,125,167,Study,User,-,,Study/JOL,"Study Phase2",4899,,,-1,-1,,,,1
w947391_afr,jx27wti7ce,Nick_Dissertation_EX1,1,197,2020-04-22T13:01:13-07:00,14.717472076416,3,versionC_stim.csv,READVersionC.csv,"Read Version C","Dissertation, read only version C",SIGN,LOAN,Study2,U,171,163,Study,User,-,,Study/JOL,"Study Phase2",14384,,,-1,-1,,,,1
w947391_afr,jx27wti7ce,Nick_Dissertation_EX1,1,198,2020-04-22T13:01:32-07:00,19.089827060699,3,versionC_stim.csv,READVersionC.csv,"Read Version C","Dissertation, read only version C",RED,CHERRY,Study2,B,104,174,Study,User,-,,Study/JOL,"Study Phase2",18742,,,-1,-1,,,,1
w947391_afr,jx27wti7ce,Nick_Dissertation_EX1,1,199,2020-04-22T13:01:43-07:00,10.391705036163,3,versionC_stim.csv,READVersionC.csv,"Read Version C","Dissertation, read only version C",REEL,ROD,Study2,S,150,98,Study,User,-,,Study/JOL,"Study Phase2",10057,,,-1,-1,,,,1
w947391_afr,jx27wti7ce,Nick_Dissertation_EX1,1,200,2020-04-22T13:01:50-07:00,7.6163148880005,3,versionC_stim.csv,READVersionC.csv,"Read Version C","Dissertation, read only version C",EQUAL,RIGHTS,Study2,S,137,171,Study,User,-,,Study/JOL,"Study Phase2",7293,,,-1,-1,,,,1
w947391_afr,jx27wti7ce,Nick_Dissertation_EX1,1,201,2020-04-22T13:01:57-07:00,6.9810199737549,3,versionC_stim.csv,READVersionC.csv,"Read Version C","Dissertation, read only version C",SEATBELT,SAFETY,Study2,S,147,146,Study,User,-,,Study/JOL,"Study Phase2",6656,,,-1,-1,,,,1
w947391_afr,jx27wti7ce,Nick_Dissertation_EX1,1,202,2020-04-22T13:02:03-07:00,5.5788869857788,3,versionC_stim.csv,READVersionC.csv,"Read Version C","Dissertation, read only version C",SCAR,MAIN,Study2,U,175,159,Study,User,-,,Study/JOL,"Study Phase2",5226,,,-1,-1,,,,1
w947391_afr,jx27wti7ce,Nick_Dissertation_EX1,1,203,2020-04-22T13:02:14-07:00,11.029046058655,3,versionC_stim.csv,READVersionC.csv,"Read Version C","Dissertation, read only version C",GAME,CLUE,Study2,B,97,173,Study,User,-,,Study/JOL,"Study Phase2",10701,,,-1,-1,,,,1
w947391_afr,jx27wti7ce,Nick_Dissertation_EX1,1,204,2020-04-22T13:02:22-07:00,7.7500479221344,3,versionC_stim.csv,READVersionC.csv,"Read Version C","Dissertation, read only version C",FICTION,LISTEN,Study2,U,164,99,Study,User,-,,Study/JOL,"Study Phase2",7392,,,-1,-1,,,,1
w947391_afr,jx27wti7ce,Nick_Dissertation_EX1,1,205,2020-04-22T13:02:26-07:00,4.1154470443726,3,versionC_stim.csv,READVersionC.csv,"Read Version C","Dissertation, read only version C",COLD,CHILL,Study2,B,114,136,Study,User,-,,Study/JOL,"Study Phase2",3776,,,-1,-1,,,,1
w947391_afr,jx27wti7ce,Nick_Dissertation_EX1,1,206,2020-04-22T13:02:31-07:00,5.4178121089935,3,versionC_stim.csv,READVersionC.csv,"Read Version C","Dissertation, read only version C",NOISE,LOUD,Study2,S,152,154,Study,User,-,,Study/JOL,"Study Phase2",5090,,,-1,-1,,,,1
w947391_afr,jx27wti7ce,Nick_Dissertation_EX1,1,207,2020-04-22T13:02:42-07:00,10.764366865158,3,versionC_stim.csv,READVersionC.csv,"Read Version C","Dissertation, read only version C",AIRCRAFT,PLANE,Study2,F,129,155,Study,User,-,,Study/JOL,"Study Phase2",10429,,,-1,-1,,,,1
w947391_afr,jx27wti7ce,Nick_Dissertation_EX1,1,208,2020-04-22T13:02:49-07:00,7.405445098877,3,versionC_stim.csv,READVersionC.csv,"Read Version C","Dissertation, read only version C",CLEAR,MOAT,Study2,U,169,149,Study,User,-,,Study/JOL,"Study Phase2",7075,,,-1,-1,,,,1
w947391_afr,jx27wti7ce,Nick_Dissertation_EX1,1,209,2020-04-22T13:02:54-07:00,4.3944509029388,3,versionC_stim.csv,READVersionC.csv,"Read Version C","Dissertation, read only version C",ACTRESS,STAR,Study2,F,120,121,Study,User,-,,Study/JOL,"Study Phase2",3966,,,-1,-1,,,,1
w947391_afr,jx27wti7ce,Nick_Dissertation_EX1,1,210,2020-04-22T13:02:59-07:00,4.9936611652374,3,versionC_stim.csv,READVersionC.csv,"Read Version C","Dissertation, read only version C",ELECTION,MAZE,Study2,U,159,151,Study,User,-,,Study/JOL,"Study Phase2",4587,,,-1,-1,,,,1
w947391_afr,jx27wti7ce,Nick_Dissertation_EX1,1,211,2020-04-22T13:03:13-07:00,14.442328929901,3,versionC_stim.csv,READVersionC.csv,"Read Version C","Dissertation, read only version C",TOIL,LEASE,Study2,U,170,169,Study,User,-,,Study/JOL,"Study Phase2",14088,,,-1,-1,,,,1
w947391_afr,jx27wti7ce,Nick_Dissertation_EX1,1,212,2020-04-22T13:03:19-07:00,5.3895781040192,3,versionC_stim.csv,READVersionC.csv,"Read Version C","Dissertation, read only version C",DONKEY,MULE,Study2,B,108,140,Study,User,-,,Study/JOL,"Study Phase2",4678,,,-1,-1,,,,1
w947391_afr,jx27wti7ce,Nick_Dissertation_EX1,1,213,2020-04-22T13:03:23-07:00,4.8155028820038,3,versionC_stim.csv,READVersionC.csv,"Read Version C","Dissertation, read only version C",Morning,TEMPERATURE,Study2,U,173,158,Study,User,-,,Study/JOL,"Study Phase2",4462,,,-1,-1,,,,1
w947391_afr,jx27wti7ce,Nick_Dissertation_EX1,1,214,2020-04-22T13:03:31-07:00,7.2658689022064,3,versionC_stim.csv,READVersionC.csv,"Read Version C","Dissertation, read only version C",HEAD,SCALP,Study2,B,105,134,Study,User,-,,Study/JOL,"Study Phase2",6925,,,-1,-1,,,,1
w947391_afr,jx27wti7ce,Nick_Dissertation_EX1,1,215,2020-04-22T13:03:37-07:00,6.234227180481,3,versionC_stim.csv,READVersionC.csv,"Read Version C","Dissertation, read only version C",LONG,EXTENSION,Study2,B,96,117,Study,User,-,,Study/JOL,"Study Phase2",5901,,,-1,-1,,,,1
w947391_afr,jx27wti7ce,Nick_Dissertation_EX1,1,216,2020-04-22T13:03:43-07:00,6.6158640384674,3,versionC_stim.csv,READVersionC.csv,"Read Version C","Dissertation, read only version C",CLOTHES,CAKE,Study2,U,166,124,Study,User,-,,Study/JOL,"Study Phase2",6246,,,-1,-1,,,,1
w947391_afr,jx27wti7ce,Nick_Dissertation_EX1,1,217,2020-04-22T13:03:51-07:00,7.08123087883,3,versionC_stim.csv,READVersionC.csv,"Read Version C","Dissertation, read only version C",DRINK,WATER,Study2,S,143,100,Study,User,-,,Study/JOL,"Study Phase2",5519,,,-1,-1,,,,1
w947391_afr,jx27wti7ce,Nick_Dissertation_EX1,1,218,2020-04-22T13:04:27-07:00,35.991053104401,3,versionC_stim.csv,READVersionC.csv,"Read Version C","Dissertation, read only version C",SCISSORS,SHEARS,Study2,B,112,152,Study,User,-,,Study/JOL,"Study Phase2",35652,,,-1,-1,,,,1
w947391_afr,jx27wti7ce,Nick_Dissertation_EX1,1,219,2020-04-22T13:04:34-07:00,7.1020967960358,3,versionC_stim.csv,READVersionC.csv,"Read Version C","Dissertation, read only version C",THIMBLE,THREAD,Study2,F,121,118,Study,User,-,,Study/JOL,"Study Phase2",6108,,,-1,-1,,,,1
w947391_afr,jx27wti7ce,Nick_Dissertation_EX1,1,220,2020-04-22T13:04:51-07:00,17.454591035843,3,versionC_stim.csv,READVersionC.csv,"Read Version C","Dissertation, read only version C",CHILDREN,MIRROR,Study2,U,174,145,Study,User,-,,Study/JOL,"Study Phase2",17107,,,-1,-1,,,,1
w947391_afr,jx27wti7ce,Nick_Dissertation_EX1,1,221,2020-04-22T13:05:00-07:00,9.1849601268768,3,versionC_stim.csv,READVersionC.csv,"Read Version C","Dissertation, read only version C",PENGUIN,BIRD,Study2,F,119,135,Study,User,-,,Study/JOL,"Study Phase2",8851,,,-1,-1,,,,1
w947391_afr,jx27wti7ce,Nick_Dissertation_EX1,1,222,2020-04-22T13:05:05-07:00,4.4525618553162,3,versionC_stim.csv,READVersionC.csv,"Read Version C","Dissertation, read only version C",HAVE,OWN,Study2,S,153,132,Study,User,-,,Study/JOL,"Study Phase2",4118,,,-1,-1,,,,1
w947391_afr,jx27wti7ce,Nick_Dissertation_EX1,1,223,2020-04-22T13:05:12-07:00,6.8687481880188,3,versionC_stim.csv,READVersionC.csv,"Read Version C","Dissertation, read only version C",CUT,CHOP,Study2,B,107,138,Study,User,-,,Study/JOL,"Study Phase2",6482,,,-1,-1,,,,1
w947391_afr,jx27wti7ce,Nick_Dissertation_EX1,1,224,2020-04-22T13:05:17-07:00,5.6716639995575,3,versionC_stim.csv,READVersionC.csv,"Read Version C","Dissertation, read only version C",STRAWBERRY,FRUIT,Study2,F,124,129,Study,User,-,,Study/JOL,"Study Phase2",5288,,,-1,-1,,,,1
w947391_afr,jx27wti7ce,Nick_Dissertation_EX1,1,225,2020-04-22T13:05:21-07:00,3.7820429801941,3,versionC_stim.csv,READVersionC.csv,"Read Version C","Dissertation, read only version C",HATE,NAME,Study2,U,167,101,Study,User,-,,Study/JOL,"Study Phase2",3434,,,-1,-1,,,,1
w947391_afr,jx27wti7ce,Nick_Dissertation_EX1,1,226,2020-04-22T13:05:26-07:00,4.4604578018188,3,versionC_stim.csv,READVersionC.csv,"Read Version C","Dissertation, read only version C",JAR,MASON,Study2,S,138,160,Study,User,-,,Study/JOL,"Study Phase2",4109,,,-1,-1,,,,1
w947391_afr,jx27wti7ce,Nick_Dissertation_EX1,1,227,2020-04-22T13:05:47-07:00,21.499819040298,3,versionC_stim.csv,READVersionC.csv,"Read Version C","Dissertation, read only version C",BRAWL,FIGHT,Study2,F,135,125,Study,User,-,,Study/JOL,"Study Phase2",21141,,,-1,-1,,,,1
w947391_afr,jx27wti7ce,Nick_Dissertation_EX1,1,228,2020-04-22T13:05:52-07:00,5.2111539840698,3,versionC_stim.csv,READVersionC.csv,"Read Version C","Dissertation, read only version C",TAN,SUN,Study2,S,155,148,Study,User,-,,Study/JOL,"Study Phase2",4801,,,-1,-1,,,,1
w947391_afr,jx27wti7ce,Nick_Dissertation_EX1,1,229,2020-04-22T13:05:58-07:00,5.9618752002716,3,versionC_stim.csv,READVersionC.csv,"Read Version C","Dissertation, read only version C",JOKE,KEYS,Study2,U,165,165,Study,User,-,,Study/JOL,"Study Phase2",5618,,,-1,-1,,,,1
w947391_afr,jx27wti7ce,Nick_Dissertation_EX1,1,230,2020-04-22T13:06:02-07:00,3.5639178752899,3,versionC_stim.csv,READVersionC.csv,"Read Version C","Dissertation, read only version C",LIE,TRUTH,Study2,S,148,161,Study,User,-,,Study/JOL,"Study Phase2",3213,,,2578,3151,,,,1
w947391_afr,jx27wti7ce,Nick_Dissertation_EX1,1,231,2020-04-22T13:06:11-07:00,9.6728329658508,3,versionC_stim.csv,READVersionC.csv,"Read Version C","Dissertation, read only version C",STEAK,GIVE,Study2,U,158,127,Study,User,-,,Study/JOL,"Study Phase2",9307,,,9,475,,,,1
w947391_afr,jx27wti7ce,Nick_Dissertation_EX1,1,232,2020-04-22T13:06:17-07:00,5.5144989490509,3,versionC_stim.csv,READVersionC.csv,"Read Version C","Dissertation, read only version C",BANKER,MONEY,Study2,F,132,113,Study,User,-,,Study/JOL,"Study Phase2",5169,,,-1,-1,,,,1
w947391_afr,jx27wti7ce,Nick_Dissertation_EX1,1,233,2020-04-22T13:06:22-07:00,4.8398671150208,3,versionC_stim.csv,READVersionC.csv,"Read Version C","Dissertation, read only version C",SMELL,INCENSE,Study2,B,110,109,Study,User,-,,Study/JOL,"Study Phase2",4498,,,-1,-1,,,,1
w947391_afr,jx27wti7ce,Nick_Dissertation_EX1,1,234,2020-04-22T13:06:30-07:00,8.6857640743256,3,versionC_stim.csv,READVersionC.csv,"Read Version C","Dissertation, read only version C",VILLAIN,BAD,Study2,F,118,166,Study,User,-,,Study/JOL,"Study Phase2",8348,,,-1,-1,,,,1
w947391_afr,jx27wti7ce,Nick_Dissertation_EX1,1,235,2020-04-22T13:06:36-07:00,5.3661909103394,3,versionC_stim.csv,READVersionC.csv,"Read Version C","Dissertation, read only version C",SHAVE,RAZOR,Study2,S,136,172,Study,User,-,,Study/JOL,"Study Phase2",4994,,,-1,-1,,,,1
w947391_afr,jx27wti7ce,Nick_Dissertation_EX1,1,236,2020-04-22T13:06:41-07:00,5.1415319442749,3,versionC_stim.csv,READVersionC.csv,"Read Version C","Dissertation, read only version C",NAP,SLEEP,Study2,F,134,137,Study,User,-,,Study/JOL,"Study Phase2",4786,,,-1,-1,,,,1
w947391_afr,jx27wti7ce,Nick_Dissertation_EX1,1,237,2020-04-22T13:06:47-07:00,6.4619519710541,3,versionC_stim.csv,READVersionC.csv,"Read Version C","Dissertation, read only version C",PAPER,DOCUMENT,Study2,B,109,102,Study,User,-,,Study/JOL,"Study Phase2",6127,,,-1,-1,,,,1
w947391_afr,jx27wti7ce,Nick_Dissertation_EX1,1,238,2020-04-22T13:06:51-07:00,3.8585751056671,3,versionC_stim.csv,READVersionC.csv,"Read Version C","Dissertation, read only version C",SARDINE,FISH,Study2,F,130,143,Study,User,-,,Study/JOL,"Study Phase2",3525,,,-1,-1,,,,1
w947391_afr,jx27wti7ce,Nick_Dissertation_EX1,1,239,2020-04-22T13:06:55-07:00,4.0958850383759,3,versionC_stim.csv,READVersionC.csv,"Read Version C","Dissertation, read only version C",TICK,FLEA,Study2,S,151,123,Study,User,-,,Study/JOL,"Study Phase2",3458,,,-1,-1,,,,1
w947391_afr,jx27wti7ce,Nick_Dissertation_EX1,1,240,2020-04-22T13:07:00-07:00,5.0687680244446,3,versionC_stim.csv,READVersionC.csv,"Read Version C","Dissertation, read only version C",WAX,CANDLE,Study2,S,139,104,Study,User,-,,Study/JOL,"Study Phase2",4733,,,-1,-1,,,,1
w947391_afr,jx27wti7ce,Nick_Dissertation_EX1,1,241,2020-04-22T13:07:07-07:00,6.2134218215942,3,versionC_stim.csv,READVersionC.csv,"Read Version C","Dissertation, read only version C",LOVE,AFFECTION,Study2,B,115,126,Study,User,-,,Study/JOL,"Study Phase2",5479,,,-1,-1,,,,1
w947391_afr,jx27wti7ce,Nick_Dissertation_EX1,1,242,2020-04-22T13:07:16-07:00,9.1676120758057,3,versionC_stim.csv,READVersionC.csv,"Read Version C","Dissertation, read only version C",PANTHER,CAT,Study2,F,126,119,Study,User,-,,Study/JOL,"Study Phase2",8539,,,-1,-1,,,,1
w947391_afr,jx27wti7ce,Nick_Dissertation_EX1,1,243,2020-04-22T13:07:23-07:00,7.2954859733582,3,versionC_stim.csv,READVersionC.csv,"Read Version C","Dissertation, read only version C",COMMUNICATION,PHONE,Study2,S,149,105,Study,User,-,,Study/JOL,"Study Phase2",6778,,,-1,-1,,,,1
w947391_afr,jx27wti7ce,Nick_Dissertation_EX1,1,244,2020-04-22T13:07:42-07:00,19.090439081192,3,versionC_stim.csv,READVersionC.csv,"Read Version C","Dissertation, read only version C",CAR,DRIVER,Study2,B,106,175,Study,User,-,,Study/JOL,"Study Phase2",6686,,,-1,-1,,,,1
w947391_afr,jx27wti7ce,Nick_Dissertation_EX1,1,245,2020-04-22T13:07:54-07:00,12.014574050903,3,versionC_stim.csv,READVersionC.csv,"Read Version C","Dissertation, read only version C",TEMPER,TANTRUM,Study2,S,154,130,Study,User,-,,Study/JOL,"Study Phase2",11664,,,-1,-1,,,,1
w947391_afr,jx27wti7ce,Nick_Dissertation_EX1,1,246,2020-04-22T13:08:04-07:00,10.119011878967,3,versionC_stim.csv,READVersionC.csv,"Read Version C","Dissertation, read only version C",BRACELET,WRIST,Study2,S,140,97,Study,User,-,,Study/JOL,"Study Phase2",9761,,,-1,-1,,,,1
w947391_afr,jx27wti7ce,Nick_Dissertation_EX1,1,247,2020-04-22T13:08:10-07:00,5.3743691444397,3,versionC_stim.csv,READVersionC.csv,"Read Version C","Dissertation, read only version C",OUNCE,BOTH,Study2,U,172,110,Study,User,-,,Study/JOL,"Study Phase2",5026,,,-1,-1,,,,1
w947391_afr,jx27wti7ce,Nick_Dissertation_EX1,1,248,2020-04-22T13:08:18-07:00,8.6137018203735,3,versionC_stim.csv,READVersionC.csv,"Read Version C","Dissertation, read only version C",GROUND,EARTH,Study2,S,144,164,Study,User,-,,Study/JOL,"Study Phase2",8267,,,-1,-1,,,,1
w947391_afr,jx27wti7ce,Nick_Dissertation_EX1,1,249,2020-04-22T13:08:25-07:00,6.1274430751801,3,versionC_stim.csv,READVersionC.csv,"Read Version C","Dissertation, read only version C",COFFIN,DEAD,Study2,F,128,141,Study,User,-,,Study/JOL,"Study Phase2",5773,,,-1,-1,,,,1
w947391_afr,jx27wti7ce,Nick_Dissertation_EX1,1,250,2020-04-22T13:08:31-07:00,6.7496240139008,3,versionC_stim.csv,READVersionC.csv,"Read Version C","Dissertation, read only version C",PLANT,CACTUS,Study2,B,98,147,Study,User,-,,Study/JOL,"Study Phase2",6042,,,-1,-1,,,,1
w947391_afr,jx27wti7ce,Nick_Dissertation_EX1,1,251,2020-04-22T13:08:45-07:00,13.464215040207,3,versionC_stim.csv,READVersionC.csv,"Read Version C","Dissertation, read only version C",EAT,DINE,Study2,B,111,107,Study,User,-,,Study/JOL,"Study Phase2",12943,,,-1,-1,,,,1
w947391_afr,jx27wti7ce,Nick_Dissertation_EX1,1,252,2020-04-22T13:08:59-07:00,13.815750837326,3,versionC_stim.csv,READVersionC.csv,"Read Version C","Dissertation, read only version C",LEAGUE,BASEBALL,Study2,F,131,111,Study,User,-,,Study/JOL,"Study Phase2",13474,,,-1,-1,,,,1
w947391_afr,jx27wti7ce,Nick_Dissertation_EX1,1,253,2020-04-22T13:09:13-07:00,14.770420074463,3,versionC_stim.csv,READVersionC.csv,"Read Version C","Dissertation, read only version C",FLIP,TURN,Study2,F,116,150,Study,User,-,,Study/JOL,"Study Phase2",14434,,,-1,-1,,,,1
w947391_afr,jx27wti7ce,Nick_Dissertation_EX1,1,254,2020-04-22T13:09:33-07:00,19.674727916718,3,versionC_stim.csv,READVersionC.csv,"Read Version C","Dissertation, read only version C",SHAKE,Shell,Study2,U,163,157,Study,User,-,,Study/JOL,"Study Phase2",19315,,,-1,-1,,,,1
w947391_afr,jx27wti7ce,Nick_Dissertation_EX1,1,255,2020-04-22T13:09:50-07:00,16.949168205261,3,versionC_stim.csv,READVersionC.csv,"Read Version C","Dissertation, read only version C",CARBON,ELEMENT,Study2,S,141,106,Study,User,-,,Study/JOL,"Study Phase2",16129,,,-1,-1,,,,1
w947391_afr,jx27wti7ce,Nick_Dissertation_EX1,1,256,2020-04-22T13:09:56-07:00,5.9805629253387,3,versionC_stim.csv,READVersionC.csv,"Read Version C","Dissertation, read only version C",TRASH,LITTER,Study2,B,103,153,Study,User,-,,Study/JOL,"Study Phase2",5645,,,-1,-1,,,,1
w947391_afr,jx27wti7ce,Nick_Dissertation_EX1,1,257,2020-04-22T13:10:03-07:00,6.7732620239258,3,versionC_stim.csv,READVersionC.csv,"Read Version C","Dissertation, read only version C",OBTAIN,MEAT,Study2,U,161,116,Study,User,-,,Study/JOL,"Study Phase2",6413,,,-1,-1,,,,1
w947391_afr,jx27wti7ce,Nick_Dissertation_EX1,1,258,2020-04-22T13:10:10-07:00,7.7918529510498,3,versionC_stim.csv,READVersionC.csv,"Read Version C","Dissertation, read only version C",MAROON,JUSTICE,Study2,U,156,170,Study,User,-,,Study/JOL,"Study Phase2",7437,,,-1,-1,,,,1
w947391_afr,jx27wti7ce,Nick_Dissertation_EX1,1,259,2020-04-22T13:10:17-07:00,6.5896461009979,3,versionC_stim.csv,READVersionC.csv,"Read Version C","Dissertation, read only version C",BREAKABLE,GLASS,Study2,F,127,156,Study,User,-,,Study/JOL,"Study Phase2",6132,,,-1,-1,,,,1
w947391_afr,jx27wti7ce,Nick_Dissertation_EX1,1,260,2020-04-22T13:10:23-07:00,6.3022949695587,3,versionC_stim.csv,READVersionC.csv,"Read Version C","Dissertation, read only version C",CLOTH,STRETCH,Study2,U,157,144,Study,User,-,,Study/JOL,"Study Phase2",5895,,,-1,-1,,,,1
w947391_afr,jx27wti7ce,Nick_Dissertation_EX1,1,261,2020-04-22T13:10:27-07:00,4.0725140571594,3,versionC_stim.csv,READVersionC.csv,"Read Version C","Dissertation, read only version C",YEAR,MONTH,BUFFER4,Buffer,177,180,Study,User,-,,Study/JOL,BUFFER4,3726,,,-1,-1,,,,1
w947391_afr,jx27wti7ce,Nick_Dissertation_EX1,1,262,2020-04-22T13:10:31-07:00,3.7906398773193,3,versionC_stim.csv,READVersionC.csv,"Read Version C","Dissertation, read only version C",WEAKS,DAYS,BUFFER4,Buffer,176,181,Study,User,-,,Study/JOL,BUFFER4,3455,,,-1,-1,,,,1
w947391_afr,jx27wti7ce,Nick_Dissertation_EX1,1,263,2020-04-22T13:10:44-07:00,13.129393100739,3,versionC_stim.csv,READVersionC.csv,"Read Version C","Dissertation, read only version C",SHED,TOOL,BUFFER4,Buffer,178,179,Study,User,-,,Study/JOL,BUFFER4,12778,,,-1,-1,,,,1
w947391_afr,jx27wti7ce,Nick_Dissertation_EX1,1,264,2020-04-22T13:10:51-07:00,6.9385948181152,3,versionC_stim.csv,READVersionC.csv,"Read Version C","Dissertation, read only version C",MARCH,SPRING,BUFFER4,Buffer,179,178,Study,User,-,,Study/JOL,BUFFER4,6594,,,-1,-1,,,,1
w947391_afr,jx27wti7ce,Nick_Dissertation_EX1,1,265,2020-04-22T13:10:58-07:00,6.504595041275,3,versionC_stim.csv,READVersionC.csv,"Read Version C","Dissertation, read only version C",SPOOKY,OCTOBER,BUFFER4,Buffer,180,177,Study,User,-,,Study/JOL,BUFFER4,6157,,,-1,-1,,,,1
w947391_afr,jx27wti7ce,Nick_Dissertation_EX1,1,266,2020-04-22T13:11:02-07:00,4.2073521614075,3,versionC_stim.csv,READVersionC.csv,"Read Version C","Dissertation, read only version C",,,,,,0,Instruct,User,-,"You have completed this section. Please press Enter.",Filler_Instruction,Instruct5,3482,,,-1,-1,,,,1
w947391_afr,jx27wti7ce,Nick_Dissertation_EX1,1,267,2020-04-22T13:13:03-07:00,121.13007879257,3,versionC_stim.csv,READVersionC.csv,"Read Version C","Dissertation, read only version C",,,,,,0,FreeRecall,120,120,"Please list the 50 US states in reverse alphabetical order (z - a). The task will automatically advance to the next screen after two minutes.",,Filler2,120005,"Wyoming, Washington, Utah, Texas, Tennessee, South Dakota, South Carolina, Rhode Island, Pennsylvania, Ohio, North Dakota, North Carolina, New York, New Mexico, Nevada, ",0,3671,117348,0,0,,1
w947391_afr,jx27wti7ce,Nick_Dissertation_EX1,1,268,2020-04-22T13:13:18-07:00,15.088021039963,3,versionC_stim.csv,READVersionC.csv,"Read Version C","Dissertation, read only version C",,,,,,0,Instruct,-,10,"You will now be presented with the first word from each of the previously studied item pairs. Please type the missing word. If you do not know the word, you may guess or press Enter to skip forward to the next pair.",,Instruct6,13749,,,-1,-1,,,,1
w947391_afr,jx27wti7ce,Nick_Dissertation_EX1,1,269,2020-04-22T13:13:21-07:00,3.1522190570831,3,versionC_stim.csv,READVersionC.csv,"Read Version C","Dissertation, read only version C",LEAGUE,BASEBALL,Study2,F,131,111,Test,User,-,,Recall,Recall2,2700,baseball,100,1613,2509,1,1,,1
w947391_afr,jx27wti7ce,Nick_Dissertation_EX1,1,270,2020-04-22T13:13:29-07:00,8.0818040370941,3,versionC_stim.csv,READVersionC.csv,"Read Version C","Dissertation, read only version C",COMMUNICATION,PHONE,Study2,S,149,105,Test,User,-,,Recall,Recall2,7731,phone,100,6965,7511,1,1,,1
w947391_afr,jx27wti7ce,Nick_Dissertation_EX1,1,271,2020-04-22T13:13:32-07:00,2.6003310680389,3,versionC_stim.csv,READVersionC.csv,"Read Version C","Dissertation, read only version C",LONELY,ALONE,Study2,S,145,176,Test,User,-,,Recall,Recall2,2253,alone,100,1642,2018,1,1,,1
w947391_afr,jx27wti7ce,Nick_Dissertation_EX1,1,272,2020-04-22T13:13:34-07:00,2.432639837265,3,versionC_stim.csv,READVersionC.csv,"Read Version C","Dissertation, read only version C",SHAVE,RAZOR,Study2,S,136,172,Test,User,-,,Recall,Recall2,2089,razor,100,1008,1937,1,1,,1
w947391_afr,jx27wti7ce,Nick_Dissertation_EX1,1,273,2020-04-22T13:13:41-07:00,6.913407087326,3,versionC_stim.csv,READVersionC.csv,"Read Version C","Dissertation, read only version C",TEMPER,TANTRUM,Study2,S,154,130,Test,User,-,,Recall,Recall2,6573,tantrum,100,4337,5884,1,1,,1
w947391_afr,jx27wti7ce,Nick_Dissertation_EX1,1,274,2020-04-22T13:13:52-07:00,10.673205852509,3,versionC_stim.csv,READVersionC.csv,"Read Version C","Dissertation, read only version C",CHILDREN,MIRROR,Study2,U,174,145,Test,User,-,,Recall,Recall2,9416,,0,-1,-1,0,0,,1
w947391_afr,jx27wti7ce,Nick_Dissertation_EX1,1,275,2020-04-22T13:14:00-07:00,7.5624730587006,3,versionC_stim.csv,READVersionC.csv,"Read Version C","Dissertation, read only version C",ABLE,CRACKLE,Study2,U,162,115,Test,User,-,,Recall,Recall2,7225,,0,-1,-1,0,0,,1
w947391_afr,jx27wti7ce,Nick_Dissertation_EX1,1,276,2020-04-22T13:14:08-07:00,8.3333640098572,3,versionC_stim.csv,READVersionC.csv,"Read Version C","Dissertation, read only version C",BRAWL,FIGHT,Study2,F,135,125,Test,User,-,,Recall,Recall2,7982,fight,100,7044,7746,1,1,,1
w947391_afr,jx27wti7ce,Nick_Dissertation_EX1,1,277,2020-04-22T13:14:15-07:00,7.4838299751282,3,versionC_stim.csv,READVersionC.csv,"Read Version C","Dissertation, read only version C",AWAY,GONE,Study2,S,142,168,Test,User,-,,Recall,Recall2,7090,gone,100,6672,6885,1,1,,1
w947391_afr,jx27wti7ce,Nick_Dissertation_EX1,1,278,2020-04-22T13:14:25-07:00,9.5092480182648,3,versionC_stim.csv,READVersionC.csv,"Read Version C","Dissertation, read only version C",LIE,TRUTH,Study2,S,148,161,Test,User,-,,Recall,Recall2,9167,truth,100,8508,8958,1,1,,1
w947391_afr,jx27wti7ce,Nick_Dissertation_EX1,1,279,2020-04-22T13:14:32-07:00,6.6600000858307,3,versionC_stim.csv,READVersionC.csv,"Read Version C","Dissertation, read only version C",BALLOON,POP,Study2,F,123,122,Test,User,-,,Recall,Recall2,6296,pop,100,1578,1928,1,1,,1
w947391_afr,jx27wti7ce,Nick_Dissertation_EX1,1,280,2020-04-22T13:14:49-07:00,16.894224882126,3,versionC_stim.csv,READVersionC.csv,"Read Version C","Dissertation, read only version C",SCISSORS,SHEARS,Study2,B,112,152,Test,User,-,,Recall,Recall2,15475,,0,-1,-1,0,0,,1
w947391_afr,jx27wti7ce,Nick_Dissertation_EX1,1,281,2020-04-22T13:14:56-07:00,7.4916870594025,3,versionC_stim.csv,READVersionC.csv,"Read Version C","Dissertation, read only version C",TRASH,LITTER,Study2,B,103,153,Test,User,-,,Recall,Recall2,7135,litter,100,6309,6936,1,1,,1
w947391_afr,jx27wti7ce,Nick_Dissertation_EX1,1,282,2020-04-22T13:15:07-07:00,11.14280796051,3,versionC_stim.csv,READVersionC.csv,"Read Version C","Dissertation, read only version C",DOG,FURRY,Study2,B,102,133,Test,User,-,,Recall,Recall2,10784,furry,100,10109,10518,1,1,,1
w947391_afr,jx27wti7ce,Nick_Dissertation_EX1,1,283,2020-04-22T13:15:22-07:00,14.842892169952,3,versionC_stim.csv,READVersionC.csv,"Read Version C","Dissertation, read only version C",FLIP,TURN,Study2,F,116,150,Test,User,-,,Recall,Recall2,14286,turn,100,13613,13921,1,1,,1
w947391_afr,jx27wti7ce,Nick_Dissertation_EX1,1,284,2020-04-22T13:15:31-07:00,9.3013968467712,3,versionC_stim.csv,READVersionC.csv,"Read Version C","Dissertation, read only version C",HEAD,SCALP,Study2,B,105,134,Test,User,-,,Recall,Recall2,8659,scalp,100,7580,8278,1,1,,1
w947391_afr,jx27wti7ce,Nick_Dissertation_EX1,1,285,2020-04-22T13:15:41-07:00,10.084228992462,3,versionC_stim.csv,READVersionC.csv,"Read Version C","Dissertation, read only version C",FIGHT,FEUD,Study2,B,113,112,Test,User,-,,Recall,Recall2,9721,feud,100,9199,9516,1,1,,1
w947391_afr,jx27wti7ce,Nick_Dissertation_EX1,1,286,2020-04-22T13:16:07-07:00,25.271860122681,3,versionC_stim.csv,READVersionC.csv,"Read Version C","Dissertation, read only version C",HATE,NAME,Study2,U,167,101,Test,User,-,,Recall,Recall2,24918,,0,-1,-1,0,0,,1
w947391_afr,jx27wti7ce,Nick_Dissertation_EX1,1,287,2020-04-22T13:16:20-07:00,13.496130943298,3,versionC_stim.csv,READVersionC.csv,"Read Version C","Dissertation, read only version C",BANKER,MONEY,Study2,F,132,113,Test,User,-,,Recall,Recall2,13087,money,100,11917,12865,1,1,,0.606
w947391_afr,jx27wti7ce,Nick_Dissertation_EX1,1,288,2020-04-22T13:16:29-07:00,8.4091470241547,3,versionC_stim.csv,READVersionC.csv,"Read Version C","Dissertation, read only version C",BREAKABLE,GLASS,Study2,F,127,156,Test,User,-,,Recall,Recall2,6306,glass,100,5823,6239,1,1,,1
w947391_afr,jx27wti7ce,Nick_Dissertation_EX1,1,289,2020-04-22T13:16:41-07:00,12.824532985687,3,versionC_stim.csv,READVersionC.csv,"Read Version C","Dissertation, read only version C",NOISE,LOUD,Study2,S,152,154,Test,User,-,,Recall,Recall2,10836,loud,100,10249,10641,1,1,,1
w947391_afr,jx27wti7ce,Nick_Dissertation_EX1,1,290,2020-04-22T13:16:55-07:00,13.600032091141,3,versionC_stim.csv,READVersionC.csv,"Read Version C","Dissertation, read only version C",STRAWBERRY,FRUIT,Study2,F,124,129,Test,User,-,,Recall,Recall2,13245,fruit,100,12339,13031,1,1,,1
w947391_afr,jx27wti7ce,Nick_Dissertation_EX1,1,291,2020-04-22T13:17:01-07:00,6.0259819030762,3,versionC_stim.csv,READVersionC.csv,"Read Version C","Dissertation, read only version C",SHAKE,Shell,Study2,U,163,157,Test,User,-,,Recall,Recall2,5675,,0,-1,-1,0,0,,1
w947391_afr,jx27wti7ce,Nick_Dissertation_EX1,1,292,2020-04-22T13:17:09-07:00,7.4829058647156,3,versionC_stim.csv,READVersionC.csv,"Read Version C","Dissertation, read only version C",FAVORITE,BEST,Study2,F,125,167,Test,User,-,,Recall,Recall2,5830,best,100,5120,5579,1,1,,1
w947391_afr,jx27wti7ce,Nick_Dissertation_EX1,1,293,2020-04-22T13:17:14-07:00,5.081404209137,3,versionC_stim.csv,READVersionC.csv,"Read Version C","Dissertation, read only version C",LOVE,AFFECTION,Study2,B,115,126,Test,User,-,,Recall,Recall2,4566,affection,100,3466,4339,1,1,,1
w947391_afr,jx27wti7ce,Nick_Dissertation_EX1,1,294,2020-04-22T13:17:20-07:00,6.7565989494324,3,versionC_stim.csv,READVersionC.csv,"Read Version C","Dissertation, read only version C",WET,DRY,Study2,S,146,139,Test,User,-,,Recall,Recall2,6414,dry,100,5843,6132,1,1,,1
w947391_afr,jx27wti7ce,Nick_Dissertation_EX1,1,295,2020-04-22T13:17:39-07:00,19.090399026871,3,versionC_stim.csv,READVersionC.csv,"Read Version C","Dissertation, read only version C",WINDSHIELD,CAR,Study2,F,117,114,Test,User,-,,Recall,Recall2,18743,car,100,18348,18594,1,1,,1
w947391_afr,jx27wti7ce,Nick_Dissertation_EX1,1,296,2020-04-22T13:17:48-07:00,9.031594991684,3,versionC_stim.csv,READVersionC.csv,"Read Version C","Dissertation, read only version C",JAR,MASON,Study2,S,138,160,Test,User,-,,Recall,Recall2,8677,mason,100,8073,8469,1,1,,1
w947391_afr,jx27wti7ce,Nick_Dissertation_EX1,1,297,2020-04-22T13:17:53-07:00,4.9051308631897,3,versionC_stim.csv,READVersionC.csv,"Read Version C","Dissertation, read only version C",TIE,SHOELACE,Study2,B,99,128,Test,User,-,,Recall,Recall2,4542,shoelace,100,3211,4443,1,1,,1
w947391_afr,jx27wti7ce,Nick_Dissertation_EX1,1,298,2020-04-22T13:17:57-07:00,3.8625330924988,3,versionC_stim.csv,READVersionC.csv,"Read Version C","Dissertation, read only version C",ACTRESS,STAR,Study2,F,120,121,Test,User,-,,Recall,Recall2,3511,star,100,2871,3203,1,1,,1
w947391_afr,jx27wti7ce,Nick_Dissertation_EX1,1,299,2020-04-22T13:18:04-07:00,6.9722440242767,3,versionC_stim.csv,READVersionC.csv,"Read Version C","Dissertation, read only version C",CHARM,VEHICLE,Study2,U,160,142,Test,User,-,,Recall,Recall2,6629,,0,-1,-1,0,0,,1
w947391_afr,jx27wti7ce,Nick_Dissertation_EX1,1,300,2020-04-22T13:18:09-07:00,4.6430258750916,3,versionC_stim.csv,READVersionC.csv,"Read Version C","Dissertation, read only version C",SIGN,LOAN,Study2,U,171,163,Test,User,-,,Recall,Recall2,4299,loan,100,3458,3975,1,1,,1
w947391_afr,jx27wti7ce,Nick_Dissertation_EX1,1,301,2020-04-22T13:18:16-07:00,7.0929551124573,3,versionC_stim.csv,READVersionC.csv,"Read Version C","Dissertation, read only version C",SEATBELT,SAFETY,Study2,S,147,146,Test,User,-,,Recall,Recall2,6738,safety,100,4974,6437,1,1,,1
w947391_afr,jx27wti7ce,Nick_Dissertation_EX1,1,302,2020-04-22T13:18:31-07:00,14.96972990036,3,versionC_stim.csv,READVersionC.csv,"Read Version C","Dissertation, read only version C",RED,CHERRY,Study2,B,104,174,Test,User,-,,Recall,Recall2,14571,cherr,90.909090909091,1959,14159,0,1,,1
w947391_afr,jx27wti7ce,Nick_Dissertation_EX1,1,303,2020-04-22T13:18:43-07:00,11.898281097412,3,versionC_stim.csv,READVersionC.csv,"Read Version C","Dissertation, read only version C",NAP,SLEEP,Study2,F,134,137,Test,User,-,,Recall,Recall2,11544,sleep,100,10911,11253,1,1,,1
w947391_afr,jx27wti7ce,Nick_Dissertation_EX1,1,304,2020-04-22T13:19:07-07:00,23.752898931503,3,versionC_stim.csv,READVersionC.csv,"Read Version C","Dissertation, read only version C",FICTION,LISTEN,Study2,U,164,99,Test,User,-,,Recall,Recall2,23391,,0,-1,-1,0,0,,1
w947391_afr,jx27wti7ce,Nick_Dissertation_EX1,1,305,2020-04-22T13:19:12-07:00,5.468425989151,3,versionC_stim.csv,READVersionC.csv,"Read Version C","Dissertation, read only version C",COLD,CHILL,Study2,B,114,136,Test,User,-,,Recall,Recall2,3168,chill,100,2077,2904,1,1,,1
w947391_afr,jx27wti7ce,Nick_Dissertation_EX1,1,306,2020-04-22T13:19:17-07:00,5.1825621128082,3,versionC_stim.csv,READVersionC.csv,"Read Version C","Dissertation, read only version C",TRUTHFUL,HONEST,Study2,F,133,120,Test,User,-,,Recall,Recall2,4838,honest,100,3695,4207,1,1,,1
w947391_afr,jx27wti7ce,Nick_Dissertation_EX1,1,307,2020-04-22T13:19:31-07:00,13.551177024841,3,versionC_stim.csv,READVersionC.csv,"Read Version C","Dissertation, read only version C",COFFIN,DEAD,Study2,F,128,141,Test,User,-,,Recall,Recall2,13182,death,66.666666666667,12597,12998,0,0,,1
w947391_afr,jx27wti7ce,Nick_Dissertation_EX1,1,308,2020-04-22T13:19:46-07:00,15.139103889465,3,versionC_stim.csv,READVersionC.csv,"Read Version C","Dissertation, read only version C",CLOTHES,CAKE,Study2,U,166,124,Test,User,-,,Recall,Recall2,14776,,0,-1,-1,0,0,,1
w947391_afr,jx27wti7ce,Nick_Dissertation_EX1,1,309,2020-04-22T13:19:57-07:00,10.93746805191,3,versionC_stim.csv,READVersionC.csv,"Read Version C","Dissertation, read only version C",THIMBLE,THREAD,Study2,F,121,118,Test,User,-,,Recall,Recall2,10373,thread,100,9539,10222,1,1,,1
w947391_afr,jx27wti7ce,Nick_Dissertation_EX1,1,310,2020-04-22T13:20:08-07:00,10.677310943604,3,versionC_stim.csv,READVersionC.csv,"Read Version C","Dissertation, read only version C",WAX,CANDLE,Study2,S,139,104,Test,User,-,,Recall,Recall2,8694,candle,100,7938,8476,1,1,,1
w947391_afr,jx27wti7ce,Nick_Dissertation_EX1,1,311,2020-04-22T13:20:11-07:00,3.9358260631561,3,versionC_stim.csv,READVersionC.csv,"Read Version C","Dissertation, read only version C",OUNCE,BOTH,Study2,U,172,110,Test,User,-,,Recall,Recall2,2715,,0,-1,-1,0,0,,1
w947391_afr,jx27wti7ce,Nick_Dissertation_EX1,1,312,2020-04-22T13:20:15-07:00,3.8762290477753,3,versionC_stim.csv,READVersionC.csv,"Read Version C","Dissertation, read only version C",EAT,DINE,Study2,B,111,107,Test,User,-,,Recall,Recall2,3513,dine,100,409,3346,1,1,,1
w947391_afr,jx27wti7ce,Nick_Dissertation_EX1,1,313,2020-04-22T13:20:39-07:00,23.546039819717,3,versionC_stim.csv,READVersionC.csv,"Read Version C","Dissertation, read only version C",BANG,FUZZY,Study2,U,168,131,Test,User,-,,Recall,Recall2,23168,,0,-1,-1,0,0,,1
w947391_afr,jx27wti7ce,Nick_Dissertation_EX1,1,314,2020-04-22T13:20:43-07:00,3.7808790206909,3,versionC_stim.csv,READVersionC.csv,"Read Version C","Dissertation, read only version C",MYSTERY,DETECTIVE,Study2,B,100,162,Test,User,-,,Recall,Recall2,3417,detective,100,2127,3306,1,1,,1
w947391_afr,jx27wti7ce,Nick_Dissertation_EX1,1,315,2020-04-22T13:20:50-07:00,7.6578299999237,3,versionC_stim.csv,READVersionC.csv,"Read Version C","Dissertation, read only version C",TAN,SUN,Study2,S,155,148,Test,User,-,,Recall,Recall2,7297,sun,100,6725,7024,1,1,,1
w947391_afr,jx27wti7ce,Nick_Dissertation_EX1,1,316,2020-04-22T13:21:05-07:00,14.492501974106,3,versionC_stim.csv,READVersionC.csv,"Read Version C","Dissertation, read only version C",HAVE,OWN,Study2,S,153,132,Test,User,-,,Recall,Recall2,13347,own,100,11883,13047,1,1,,1
w947391_afr,jx27wti7ce,Nick_Dissertation_EX1,1,317,2020-04-22T13:21:14-07:00,9.1633729934692,3,versionC_stim.csv,READVersionC.csv,"Read Version C","Dissertation, read only version C",ELECTION,MAZE,Study2,U,159,151,Test,User,-,,Recall,Recall2,8128,,0,-1,-1,0,0,,1
w947391_afr,jx27wti7ce,Nick_Dissertation_EX1,1,318,2020-04-22T13:21:39-07:00,24.548656225204,3,versionC_stim.csv,READVersionC.csv,"Read Version C","Dissertation, read only version C",CLEAR,MOAT,Study2,U,169,149,Test,User,-,,Recall,Recall2,24086,,0,-1,-1,0,0,,1
w947391_afr,jx27wti7ce,Nick_Dissertation_EX1,1,319,2020-04-22T13:21:48-07:00,9.8900978565216,3,versionC_stim.csv,READVersionC.csv,"Read Version C","Dissertation, read only version C",CUT,CHOP,Study2,B,107,138,Test,User,-,,Recall,Recall2,9527,chop,100,8756,9156,1,1,,1
w947391_afr,jx27wti7ce,Nick_Dissertation_EX1,1,320,2020-04-22T13:21:55-07:00,6.8646731376648,3,versionC_stim.csv,READVersionC.csv,"Read Version C","Dissertation, read only version C",OBTAIN,MEAT,Study2,U,161,116,Test,User,-,,Recall,Recall2,6483,,0,-1,-1,0,0,,1
w947391_afr,jx27wti7ce,Nick_Dissertation_EX1,1,321,2020-04-22T13:22:01-07:00,5.4412798881531,3,versionC_stim.csv,READVersionC.csv,"Read Version C","Dissertation, read only version C",CAR,DRIVER,Study2,B,106,175,Test,User,-,,Recall,Recall2,5063,driver,100,4202,4814,1,1,,1
w947391_afr,jx27wti7ce,Nick_Dissertation_EX1,1,322,2020-04-22T13:22:05-07:00,4.6304280757904,3,versionC_stim.csv,READVersionC.csv,"Read Version C","Dissertation, read only version C",SARDINE,FISH,Study2,F,130,143,Test,User,-,,Recall,Recall2,4270,fish,100,3184,4042,1,1,,1
w947391_afr,jx27wti7ce,Nick_Dissertation_EX1,1,323,2020-04-22T13:22:12-07:00,6.7557609081268,3,versionC_stim.csv,READVersionC.csv,"Read Version C","Dissertation, read only version C",PAPER,DOCUMENT,Study2,B,109,102,Test,User,-,,Recall,Recall2,6262,,0,-1,-1,0,0,,1
w947391_afr,jx27wti7ce,Nick_Dissertation_EX1,1,324,2020-04-22T13:22:16-07:00,4.3178651332855,3,versionC_stim.csv,READVersionC.csv,"Read Version C","Dissertation, read only version C",SMELL,INCENSE,Study2,B,110,109,Test,User,-,,Recall,Recall2,3894,incense,100,2775,3524,1,1,,1
w947391_afr,jx27wti7ce,Nick_Dissertation_EX1,1,325,2020-04-22T13:22:20-07:00,3.7812268733978,3,versionC_stim.csv,READVersionC.csv,"Read Version C","Dissertation, read only version C",JOKE,KEYS,Study2,U,165,165,Test,User,-,,Recall,Recall2,3356,,0,-1,-1,0,0,,1
w947391_afr,jx27wti7ce,Nick_Dissertation_EX1,1,326,2020-04-22T13:22:27-07:00,6.5844841003418,3,versionC_stim.csv,READVersionC.csv,"Read Version C","Dissertation, read only version C",SCAR,MAIN,Study2,U,175,159,Test,User,-,,Recall,Recall2,6240,,0,-1,-1,0,0,,1
w947391_afr,jx27wti7ce,Nick_Dissertation_EX1,1,327,2020-04-22T13:22:30-07:00,3.1924359798431,3,versionC_stim.csv,READVersionC.csv,"Read Version C","Dissertation, read only version C",DONKEY,MULE,Study2,B,108,140,Test,User,-,,Recall,Recall2,2836,mule,100,2003,2587,1,1,,1
w947391_afr,jx27wti7ce,Nick_Dissertation_EX1,1,328,2020-04-22T13:22:37-07:00,6.962956905365,3,versionC_stim.csv,READVersionC.csv,"Read Version C","Dissertation, read only version C",GROUND,EARTH,Study2,S,144,164,Test,User,-,,Recall,Recall2,6585,earth,100,5954,6416,1,1,,1
w947391_afr,jx27wti7ce,Nick_Dissertation_EX1,1,329,2020-04-22T13:22:40-07:00,2.8843879699707,3,versionC_stim.csv,READVersionC.csv,"Read Version C","Dissertation, read only version C",CARBON,ELEMENT,Study2,S,141,106,Test,User,-,,Recall,Recall2,2524,element,100,1801,2346,1,1,,1
w947391_afr,jx27wti7ce,Nick_Dissertation_EX1,1,330,2020-04-22T13:22:51-07:00,11.340298175812,3,versionC_stim.csv,READVersionC.csv,"Read Version C","Dissertation, read only version C",GAME,CLUE,Study2,B,97,173,Test,User,-,,Recall,Recall2,10979,clue,100,9313,10735,1,1,,1
w947391_afr,jx27wti7ce,Nick_Dissertation_EX1,1,331,2020-04-22T13:23:00-07:00,8.9301338195801,3,versionC_stim.csv,READVersionC.csv,"Read Version C","Dissertation, read only version C",CLOTH,STRETCH,Study2,U,157,144,Test,User,-,,Recall,Recall2,8576,,0,-1,-1,0,0,,1
w947391_afr,jx27wti7ce,Nick_Dissertation_EX1,1,332,2020-04-22T13:23:04-07:00,3.66162109375,3,versionC_stim.csv,READVersionC.csv,"Read Version C","Dissertation, read only version C",PENGUIN,BIRD,Study2,F,119,135,Test,User,-,,Recall,Recall2,3311,bird,100,1273,1799,1,1,,1
w947391_afr,jx27wti7ce,Nick_Dissertation_EX1,1,333,2020-04-22T13:23:13-07:00,9.7404808998108,3,versionC_stim.csv,READVersionC.csv,"Read Version C","Dissertation, read only version C",TOIL,LEASE,Study2,U,170,169,Test,User,-,,Recall,Recall2,9386,,0,-1,-1,0,0,,1
w947391_afr,jx27wti7ce,Nick_Dissertation_EX1,1,334,2020-04-22T13:23:25-07:00,11.156413078308,3,versionC_stim.csv,READVersionC.csv,"Read Version C","Dissertation, read only version C",BRACELET,WRIST,Study2,S,140,97,Test,User,-,,Recall,Recall2,10801,wrist,100,10078,10596,1,1,,1
w947391_afr,jx27wti7ce,Nick_Dissertation_EX1,1,335,2020-04-22T13:23:35-07:00,10.599299907684,3,versionC_stim.csv,READVersionC.csv,"Read Version C","Dissertation, read only version C",REVENGE,EVEN,Study2,F,122,108,Test,User,-,,Recall,Recall2,9391,even,100,8707,9102,1,1,,1
w947391_afr,jx27wti7ce,Nick_Dissertation_EX1,1,336,2020-04-22T13:23:46-07:00,10.698513031006,3,versionC_stim.csv,READVersionC.csv,"Read Version C","Dissertation, read only version C",DRINK,WATER,Study2,S,143,100,Test,User,-,,Recall,Recall2,10346,water,100,9741,10191,1,1,,0.935
w947391_afr,jx27wti7ce,Nick_Dissertation_EX1,1,337,2020-04-22T13:23:53-07:00,7.5487020015717,3,versionC_stim.csv,READVersionC.csv,"Read Version C","Dissertation, read only version C",END,ADJOURN,Study2,B,101,103,Test,User,-,,Recall,Recall2,5503,,0,-1,-1,0,0,,1
w947391_afr,jx27wti7ce,Nick_Dissertation_EX1,1,338,2020-04-22T13:24:02-07:00,8.7732970714569,3,versionC_stim.csv,READVersionC.csv,"Read Version C","Dissertation, read only version C",PLANT,CACTUS,Study2,B,98,147,Test,User,-,,Recall,Recall2,8441,cactus,100,7606,8299,1,1,,0.909
w947391_afr,jx27wti7ce,Nick_Dissertation_EX1,1,339,2020-04-22T13:24:10-07:00,8.0726959705353,3,versionC_stim.csv,READVersionC.csv,"Read Version C","Dissertation, read only version C",TICK,FLEA,Study2,S,151,123,Test,User,-,,Recall,Recall2,7496,flea,100,6927,7382,1,1,,1
w947391_afr,jx27wti7ce,Nick_Dissertation_EX1,1,340,2020-04-22T13:24:18-07:00,7.7839450836182,3,versionC_stim.csv,READVersionC.csv,"Read Version C","Dissertation, read only version C",LONG,EXTENSION,Study2,B,96,117,Test,User,-,,Recall,Recall2,7414,,0,-1,-1,0,0,,1
w947391_afr,jx27wti7ce,Nick_Dissertation_EX1,1,341,2020-04-22T13:24:24-07:00,6.0542638301849,3,versionC_stim.csv,READVersionC.csv,"Read Version C","Dissertation, read only version C",STEAK,GIVE,Study2,U,158,127,Test,User,-,,Recall,Recall2,3998,,0,-1,-1,0,0,,1
w947391_afr,jx27wti7ce,Nick_Dissertation_EX1,1,342,2020-04-22T13:24:29-07:00,4.3669080734253,3,versionC_stim.csv,READVersionC.csv,"Read Version C","Dissertation, read only version C",PANTHER,CAT,Study2,F,126,119,Test,User,-,,Recall,Recall2,3985,cat,100,2825,3157,1,1,,1
w947391_afr,jx27wti7ce,Nick_Dissertation_EX1,1,343,2020-04-22T13:24:35-07:00,6.9274370670319,3,versionC_stim.csv,READVersionC.csv,"Read Version C","Dissertation, read only version C",Morning,TEMPERATURE,Study2,U,173,158,Test,User,-,,Recall,Recall2,6560,,0,-1,-1,0,0,,1
w947391_afr,jx27wti7ce,Nick_Dissertation_EX1,1,344,2020-04-22T13:24:40-07:00,4.2073969841003,3,versionC_stim.csv,READVersionC.csv,"Read Version C","Dissertation, read only version C",REEL,ROD,Study2,S,150,98,Test,User,-,,Recall,Recall2,3850,rod,100,3468,3661,1,1,,1
w947391_afr,jx27wti7ce,Nick_Dissertation_EX1,1,345,2020-04-22T13:24:44-07:00,4.3187429904938,3,versionC_stim.csv,READVersionC.csv,"Read Version C","Dissertation, read only version C",VILLAIN,BAD,Study2,F,118,166,Test,User,-,,Recall,Recall2,3958,bad,100,1276,3347,1,1,,1
w947391_afr,jx27wti7ce,Nick_Dissertation_EX1,1,346,2020-04-22T13:24:54-07:00,10.475120067596,3,versionC_stim.csv,READVersionC.csv,"Read Version C","Dissertation, read only version C",EQUAL,RIGHTS,Study2,S,137,171,Test,User,-,,Recall,Recall2,10106,rights,100,8520,9010,1,1,,1
w947391_afr,jx27wti7ce,Nick_Dissertation_EX1,1,347,2020-04-22T13:25:09-07:00,14.79070186615,3,versionC_stim.csv,READVersionC.csv,"Read Version C","Dissertation, read only version C",MAROON,JUSTICE,Study2,U,156,170,Test,User,-,,Recall,Recall2,14443,,0,-1,-1,0,0,,1
w947391_afr,jx27wti7ce,Nick_Dissertation_EX1,1,348,2020-04-22T13:25:17-07:00,7.6087219715118,3,versionC_stim.csv,READVersionC.csv,"Read Version C","Dissertation, read only version C",AIRCRAFT,PLANE,Study2,F,129,155,Test,User,-,,Recall,Recall2,7239,plane,100,6476,7061,1,1,,1
w947391_afr,jx27wti7ce,Nick_Dissertation_EX1,1,349,2020-04-22T13:25:19-07:00,2.38343501091,3,versionC_stim.csv,READVersionC.csv,"Read Version C","Dissertation, read only version C",,,,,,0,Instruct,User,-,"You have completed this section. Please press Enter.",,Instruct7,1931,,,-1,-1,,,,1
w947391_afr,jx27wti7ce,Nick_Dissertation_EX1,1,350,2020-04-22T13:25:22-07:00,2.5877439975739,3,versionC_stim.csv,READVersionC.csv,"Read Version C","Dissertation, read only version C",,,,,,0,Instruct,User,-,"The following screen will ask you a few questions abour your experience today. You must complete these questions to receive credit.",,Instruct8,1906,,,-1,-1,,,,1
