Username,ID,ExperimentName,Session,Trial,Date,TimeDif,"Condition Number","Stimuli File","Order File","Condition Description","Condition Notes",Stimuli*Cue,Stimuli*Answer,Stimuli*Shuffle,"Stimuli*Stimuli Notes",Stimuli*Value,Procedure*Item,"Procedure*Trial Type","Procedure*Max Time","Procedure*Min Time",Procedure*Text,"Procedure*Procedure Notes",Procedure*Shuffle,Response*RT,Response*Response,Response*Accuracy,Response*RTfirst,Response*RTlast,Response*strictAcc,Response*lenientAcc,Response*focus,Response*Focus
w10020569_kll,d4ypr1eibh,Nick_Dissertation_EX1,1,1,2020-04-26T16:39:48-07:00,28.85342001915,1,versionA_stim.csv,READVersionA.csv,"Read Version A","Dissertation, read only version A",,,,,,0,Instruct,-,10,"Please study each of the following word pairs. Remember that your memory will be tested! When finished, press Enter to move to the next pair.",Initial_Instruct,Instruct1,28360,,,-1,-1,,,,1
w10020569_kll,d4ypr1eibh,Nick_Dissertation_EX1,1,2,2020-04-26T16:39:55-07:00,7.4521279335022,1,versionA_stim.csv,READVersionA.csv,"Read Version A","Dissertation, read only version A",SPACE,JAM,BUFFER1,Buffer,5,3,Study,User,-,,Study/JOL,BUFFER,6770,,,-1,-1,,,,1
w10020569_kll,d4ypr1eibh,Nick_Dissertation_EX1,1,3,2020-04-26T16:39:59-07:00,4.2209270000458,1,versionA_stim.csv,READVersionA.csv,"Read Version A","Dissertation, read only version A",PEANUT,BUTTER,BUFFER1,Buffer,3,2,Study,User,-,,Study/JOL,BUFFER,3762,,,-1,-1,,,,1
w10020569_kll,d4ypr1eibh,Nick_Dissertation_EX1,1,4,2020-04-26T16:40:07-07:00,7.5019519329071,1,versionA_stim.csv,READVersionA.csv,"Read Version A","Dissertation, read only version A",TREES,GREEN,BUFFER1,Buffer,1,6,Study,User,-,,Study/JOL,BUFFER,6470,,,-1,-1,,,,1
w10020569_kll,d4ypr1eibh,Nick_Dissertation_EX1,1,5,2020-04-26T16:40:36-07:00,28.913110017776,1,versionA_stim.csv,READVersionA.csv,"Read Version A","Dissertation, read only version A",SCARE,HIDE,BUFFER1,Buffer,4,4,Study,User,-,,Study/JOL,BUFFER,28234,,,-1,-1,,,,1
w10020569_kll,d4ypr1eibh,Nick_Dissertation_EX1,1,6,2020-04-26T16:40:47-07:00,11.428611040115,1,versionA_stim.csv,READVersionA.csv,"Read Version A","Dissertation, read only version A",BASEBALL,CATCHER,BUFFER1,Buffer,2,5,Study,User,-,,Study/JOL,BUFFER,10818,,,-1,-1,,,,1
w10020569_kll,d4ypr1eibh,Nick_Dissertation_EX1,1,7,2020-04-26T16:40:59-07:00,11.92972111702,1,versionA_stim.csv,READVersionA.csv,"Read Version A","Dissertation, read only version A",DARK,CAVE,Study1,B,28,18,Study,User,-,,Study/JOL,"Study Phase",11228,,,-1,-1,,,,1
w10020569_kll,d4ypr1eibh,Nick_Dissertation_EX1,1,8,2020-04-26T16:41:06-07:00,7.0728929042816,1,versionA_stim.csv,READVersionA.csv,"Read Version A","Dissertation, read only version A",CREDIT,CARD,Study1,F,23,50,Study,User,-,,Study/JOL,"Study Phase",6478,,,-1,-1,,,,1
w10020569_kll,d4ypr1eibh,Nick_Dissertation_EX1,1,9,2020-04-26T16:41:13-07:00,6.6963958740234,1,versionA_stim.csv,READVersionA.csv,"Read Version A","Dissertation, read only version A",ALLOW,TUCK,Study1,U,78,76,Study,User,-,,Study/JOL,"Study Phase",6107,,,-1,-1,,,,1
w10020569_kll,d4ypr1eibh,Nick_Dissertation_EX1,1,10,2020-04-26T16:41:22-07:00,9.4920310974121,1,versionA_stim.csv,READVersionA.csv,"Read Version A","Dissertation, read only version A",DIETARY,SACKING,Study1,U,67,32,Study,User,-,,Study/JOL,"Study Phase",8870,,,-1,-1,,,,1
w10020569_kll,d4ypr1eibh,Nick_Dissertation_EX1,1,11,2020-04-26T16:41:35-07:00,12.527564048767,1,versionA_stim.csv,READVersionA.csv,"Read Version A","Dissertation, read only version A",HEIGHT,GROWTH,Study1,B,30,62,Study,User,-,,Study/JOL,"Study Phase",11933,,,-1,-1,,,,1
w10020569_kll,d4ypr1eibh,Nick_Dissertation_EX1,1,12,2020-04-26T16:41:43-07:00,8.0571739673615,1,versionA_stim.csv,READVersionA.csv,"Read Version A","Dissertation, read only version A",LIFT,WOMAN,Study1,U,69,30,Study,User,-,,Study/JOL,"Study Phase",7440,,,-1,-1,,,,1
w10020569_kll,d4ypr1eibh,Nick_Dissertation_EX1,1,13,2020-04-26T16:41:52-07:00,9.4828560352325,1,versionA_stim.csv,READVersionA.csv,"Read Version A","Dissertation, read only version A",MATH,DIVISION,Study1,B,33,79,Study,User,-,,Study/JOL,"Study Phase",8558,,,-1,-1,,,,1
w10020569_kll,d4ypr1eibh,Nick_Dissertation_EX1,1,14,2020-04-26T16:41:59-07:00,6.6099789142609,1,versionA_stim.csv,READVersionA.csv,"Read Version A","Dissertation, read only version A",WORK,CHORE,Study1,B,39,56,Study,User,-,,Study/JOL,"Study Phase",6045,,,-1,-1,,,,1
w10020569_kll,d4ypr1eibh,Nick_Dissertation_EX1,1,15,2020-04-26T16:42:08-07:00,8.6020231246948,1,versionA_stim.csv,READVersionA.csv,"Read Version A","Dissertation, read only version A",BRIDGE,WATER,Study1,F,18,20,Study,User,-,,Study/JOL,"Study Phase",8048,,,-1,-1,,,,1
w10020569_kll,d4ypr1eibh,Nick_Dissertation_EX1,1,16,2020-04-26T16:42:17-07:00,9.8131940364838,1,versionA_stim.csv,READVersionA.csv,"Read Version A","Dissertation, read only version A",FULL,ENOUGH,Study1,B,26,49,Study,User,-,,Study/JOL,"Study Phase",9204,,,-1,-1,,,,1
w10020569_kll,d4ypr1eibh,Nick_Dissertation_EX1,1,17,2020-04-26T16:42:28-07:00,10.479408979416,1,versionA_stim.csv,READVersionA.csv,"Read Version A","Dissertation, read only version A",BATHROOM,TOILET,Study1,S,58,22,Study,User,-,,Study/JOL,"Study Phase",9904,,,-1,-1,,,,1
w10020569_kll,d4ypr1eibh,Nick_Dissertation_EX1,1,18,2020-04-26T16:42:39-07:00,10.990078926086,1,versionA_stim.csv,READVersionA.csv,"Read Version A","Dissertation, read only version A",KEY,LATCH,Study1,B,36,51,Study,User,-,,Study/JOL,"Study Phase",10414,,,-1,-1,,,,1
w10020569_kll,d4ypr1eibh,Nick_Dissertation_EX1,1,19,2020-04-26T16:42:46-07:00,7.5700829029083,1,versionA_stim.csv,READVersionA.csv,"Read Version A","Dissertation, read only version A",FIX,HAND,Study1,U,75,58,Study,User,-,,Study/JOL,"Study Phase",6814,,,-1,-1,,,,1
w10020569_kll,d4ypr1eibh,Nick_Dissertation_EX1,1,20,2020-04-26T16:42:53-07:00,7.0290031433105,1,versionA_stim.csv,READVersionA.csv,"Read Version A","Dissertation, read only version A",DRINK,SIP,Study1,B,27,53,Study,User,-,,Study/JOL,"Study Phase",6516,,,-1,-1,,,,1
w10020569_kll,d4ypr1eibh,Nick_Dissertation_EX1,1,21,2020-04-26T16:43:03-07:00,9.5445129871368,1,versionA_stim.csv,READVersionA.csv,"Read Version A","Dissertation, read only version A",DEATH,BUSINESS,Study1,U,72,19,Study,User,-,,Study/JOL,"Study Phase",8965,,,-1,-1,,,,1
w10020569_kll,d4ypr1eibh,Nick_Dissertation_EX1,1,22,2020-04-26T16:43:10-07:00,7.4816009998322,1,versionA_stim.csv,READVersionA.csv,"Read Version A","Dissertation, read only version A",BABY,CHILD,Study1,S,64,28,Study,User,-,,Study/JOL,"Study Phase",6887,,,-1,-1,,,,1
w10020569_kll,d4ypr1eibh,Nick_Dissertation_EX1,1,23,2020-04-26T16:43:22-07:00,11.333647012711,1,versionA_stim.csv,READVersionA.csv,"Read Version A","Dissertation, read only version A",DUE,ASSIGNMENT,Study1,S,46,38,Study,User,-,,Study/JOL,"Study Phase",10781,,,-1,-1,,,,1
w10020569_kll,d4ypr1eibh,Nick_Dissertation_EX1,1,24,2020-04-26T16:43:38-07:00,16.334276914597,1,versionA_stim.csv,READVersionA.csv,"Read Version A","Dissertation, read only version A",PARK,HUNGRY,Study1,U,68,84,Study,User,-,,Study/JOL,"Study Phase",15848,,,-1,-1,,,,1
w10020569_kll,d4ypr1eibh,Nick_Dissertation_EX1,1,25,2020-04-26T16:43:50-07:00,12.190376996994,1,versionA_stim.csv,READVersionA.csv,"Read Version A","Dissertation, read only version A",NUMBER,AMOUNT,Study1,S,47,86,Study,User,-,,Study/JOL,"Study Phase",11554,,,-1,-1,,,,1
w10020569_kll,d4ypr1eibh,Nick_Dissertation_EX1,1,26,2020-04-26T16:44:00-07:00,10.017910957336,1,versionA_stim.csv,READVersionA.csv,"Read Version A","Dissertation, read only version A",SOON,BELT,Study1,U,70,16,Study,User,-,,Study/JOL,"Study Phase",9190,,,-1,-1,,,,1
w10020569_kll,d4ypr1eibh,Nick_Dissertation_EX1,1,27,2020-04-26T16:44:09-07:00,8.322417974472,1,versionA_stim.csv,READVersionA.csv,"Read Version A","Dissertation, read only version A",WINE,CHEESE,Study1,S,57,57,Study,User,-,,Study/JOL,"Study Phase",7580,,,-1,-1,,,,1
w10020569_kll,d4ypr1eibh,Nick_Dissertation_EX1,1,28,2020-04-26T16:44:16-07:00,7.7746319770813,1,versionA_stim.csv,READVersionA.csv,"Read Version A","Dissertation, read only version A",BALL,RACKET,Study1,B,38,52,Study,User,-,,Study/JOL,"Study Phase",6836,,,-1,-1,,,,1
w10020569_kll,d4ypr1eibh,Nick_Dissertation_EX1,1,29,2020-04-26T16:44:23-07:00,6.576446056366,1,versionA_stim.csv,READVersionA.csv,"Read Version A","Dissertation, read only version A",BITTER,COLD,Study1,F,12,12,Study,User,-,,Study/JOL,"Study Phase",5936,,,-1,-1,,,,1
w10020569_kll,d4ypr1eibh,Nick_Dissertation_EX1,1,30,2020-04-26T16:44:31-07:00,7.8173899650574,1,versionA_stim.csv,READVersionA.csv,"Read Version A","Dissertation, read only version A",SLEEP,DROWSY,Study1,B,41,82,Study,User,-,,Study/JOL,"Study Phase",7107,,,-1,-1,,,,1
w10020569_kll,d4ypr1eibh,Nick_Dissertation_EX1,1,31,2020-04-26T16:44:38-07:00,7.5597851276398,1,versionA_stim.csv,READVersionA.csv,"Read Version A","Dissertation, read only version A",LAW,ATTORNEY,Study1,B,34,14,Study,User,-,,Study/JOL,"Study Phase",6944,,,-1,-1,,,,1
w10020569_kll,d4ypr1eibh,Nick_Dissertation_EX1,1,32,2020-04-26T16:44:48-07:00,10.077131986618,1,versionA_stim.csv,READVersionA.csv,"Read Version A","Dissertation, read only version A",SUGAR,RIDDLE,Study1,U,81,25,Study,User,-,,Study/JOL,"Study Phase",9316,,,-1,-1,,,,1
w10020569_kll,d4ypr1eibh,Nick_Dissertation_EX1,1,33,2020-04-26T16:45:07-07:00,18.794629096985,1,versionA_stim.csv,READVersionA.csv,"Read Version A","Dissertation, read only version A",GREAT,FANTASTIC,Study1,B,35,70,Study,User,-,,Study/JOL,"Study Phase",18187,,,-1,-1,,,,1
w10020569_kll,d4ypr1eibh,Nick_Dissertation_EX1,1,34,2020-04-26T16:45:16-07:00,8.4742159843445,1,versionA_stim.csv,READVersionA.csv,"Read Version A","Dissertation, read only version A",HAPPY,CAR,Study1,U,77,23,Study,User,-,,Study/JOL,"Study Phase",7881,,,-1,-1,,,,1
w10020569_kll,d4ypr1eibh,Nick_Dissertation_EX1,1,35,2020-04-26T16:45:44-07:00,28.451811790466,1,versionA_stim.csv,READVersionA.csv,"Read Version A","Dissertation, read only version A",ART,LION,Study1,U,79,42,Study,User,-,,Study/JOL,"Study Phase",27852,,,-1,-1,,,,1
w10020569_kll,d4ypr1eibh,Nick_Dissertation_EX1,1,36,2020-04-26T16:46:25-07:00,41.032798051834,1,versionA_stim.csv,READVersionA.csv,"Read Version A","Dissertation, read only version A",BUG,WASP,Study1,B,32,59,Study,User,-,,Study/JOL,"Study Phase",40488,,,-1,-1,,,,0.962
w10020569_kll,d4ypr1eibh,Nick_Dissertation_EX1,1,37,2020-04-26T16:46:57-07:00,31.710757017136,1,versionA_stim.csv,READVersionA.csv,"Read Version A","Dissertation, read only version A",DEBATE,SIGHT,Study1,U,73,37,Study,User,-,,Study/JOL,"Study Phase",31182,,,-1,-1,,,,0.948
w10020569_kll,d4ypr1eibh,Nick_Dissertation_EX1,1,38,2020-04-26T16:47:07-07:00,10.19042301178,1,versionA_stim.csv,READVersionA.csv,"Read Version A","Dissertation, read only version A",PAST,FUTURE,Study1,S,61,46,Study,User,-,,Study/JOL,"Study Phase",9523,,,-1,-1,,,,1
w10020569_kll,d4ypr1eibh,Nick_Dissertation_EX1,1,39,2020-04-26T16:47:19-07:00,11.784852981567,1,versionA_stim.csv,READVersionA.csv,"Read Version A","Dissertation, read only version A",TUNA,FISH,Study1,F,25,11,Study,User,-,,Study/JOL,"Study Phase",11175,,,-1,-1,,,,1
w10020569_kll,d4ypr1eibh,Nick_Dissertation_EX1,1,40,2020-04-26T16:47:28-07:00,9.4225959777832,1,versionA_stim.csv,READVersionA.csv,"Read Version A","Dissertation, read only version A",VALLEY,ADD,Study1,U,82,33,Study,User,-,,Study/JOL,"Study Phase",8710,,,-1,-1,,,,1
w10020569_kll,d4ypr1eibh,Nick_Dissertation_EX1,1,41,2020-04-26T16:47:35-07:00,7.1692700386047,1,versionA_stim.csv,READVersionA.csv,"Read Version A","Dissertation, read only version A",DISCOVER,FLOOR,Study1,U,71,44,Study,User,-,,Study/JOL,"Study Phase",6510,,,-1,-1,,,,1
w10020569_kll,d4ypr1eibh,Nick_Dissertation_EX1,1,42,2020-04-26T16:47:42-07:00,6.0669860839844,1,versionA_stim.csv,READVersionA.csv,"Read Version A","Dissertation, read only version A",HERD,COW,Study1,F,22,71,Study,User,-,,Study/JOL,"Study Phase",4598,,,-1,-1,,,,1
w10020569_kll,d4ypr1eibh,Nick_Dissertation_EX1,1,43,2020-04-26T16:47:49-07:00,7.0525929927826,1,versionA_stim.csv,READVersionA.csv,"Read Version A","Dissertation, read only version A",GRILL,BAR,Study1,S,52,7,Study,User,-,,Study/JOL,"Study Phase",6448,,,-1,-1,,,,1
w10020569_kll,d4ypr1eibh,Nick_Dissertation_EX1,1,44,2020-04-26T16:47:58-07:00,9.0177199840546,1,versionA_stim.csv,READVersionA.csv,"Read Version A","Dissertation, read only version A",BLOW,WIND,Study1,S,55,29,Study,User,-,,Study/JOL,"Study Phase",8464,,,-1,-1,,,,1
w10020569_kll,d4ypr1eibh,Nick_Dissertation_EX1,1,45,2020-04-26T16:48:11-07:00,13.765037059784,1,versionA_stim.csv,READVersionA.csv,"Read Version A","Dissertation, read only version A",CLOTHES,ATTIRE,Study1,B,43,66,Study,User,-,,Study/JOL,"Study Phase",13192,,,-1,-1,,,,1
w10020569_kll,d4ypr1eibh,Nick_Dissertation_EX1,1,46,2020-04-26T16:48:17-07:00,5.786682844162,1,versionA_stim.csv,READVersionA.csv,"Read Version A","Dissertation, read only version A",POP,SODA,Study1,S,56,83,Study,User,-,,Study/JOL,"Study Phase",5290,,,-1,-1,,,,1
w10020569_kll,d4ypr1eibh,Nick_Dissertation_EX1,1,47,2020-04-26T16:48:27-07:00,9.5189621448517,1,versionA_stim.csv,READVersionA.csv,"Read Version A","Dissertation, read only version A",HYGIENE,CLEAN,Study1,F,17,75,Study,User,-,,Study/JOL,"Study Phase",9052,,,-1,-1,,,,1
w10020569_kll,d4ypr1eibh,Nick_Dissertation_EX1,1,48,2020-04-26T16:48:39-07:00,12.78484082222,1,versionA_stim.csv,READVersionA.csv,"Read Version A","Dissertation, read only version A",PUSHER,CLUTTER,Study1,U,66,64,Study,User,-,,Study/JOL,"Study Phase",12199,,,-1,-1,,,,1
w10020569_kll,d4ypr1eibh,Nick_Dissertation_EX1,1,49,2020-04-26T16:48:49-07:00,9.4080710411072,1,versionA_stim.csv,READVersionA.csv,"Read Version A","Dissertation, read only version A",SWAN,BIRD,Study1,F,14,8,Study,User,-,,Study/JOL,"Study Phase",8593,,,-1,-1,,,,1
w10020569_kll,d4ypr1eibh,Nick_Dissertation_EX1,1,50,2020-04-26T16:48:55-07:00,6.2757639884949,1,versionA_stim.csv,READVersionA.csv,"Read Version A","Dissertation, read only version A",PLANE,PILOT,Study1,B,44,13,Study,User,-,,Study/JOL,"Study Phase",5856,,,-1,-1,,,,1
w10020569_kll,d4ypr1eibh,Nick_Dissertation_EX1,1,51,2020-04-26T16:49:04-07:00,9.2805330753326,1,versionA_stim.csv,READVersionA.csv,"Read Version A","Dissertation, read only version A",DISCUSSION,TALK,Study1,F,21,27,Study,User,-,,Study/JOL,"Study Phase",8750,,,-1,-1,,,,1
w10020569_kll,d4ypr1eibh,Nick_Dissertation_EX1,1,52,2020-04-26T16:49:17-07:00,12.735059976578,1,versionA_stim.csv,READVersionA.csv,"Read Version A","Dissertation, read only version A",HIDE,SICK,Study1,U,84,34,Study,User,-,,Study/JOL,"Study Phase",12070,,,-1,-1,,,,1
w10020569_kll,d4ypr1eibh,Nick_Dissertation_EX1,1,53,2020-04-26T16:49:26-07:00,9.0276291370392,1,versionA_stim.csv,READVersionA.csv,"Read Version A","Dissertation, read only version A",ARTERY,BRONZE,Study1,U,74,40,Study,User,-,,Study/JOL,"Study Phase",8376,,,-1,-1,,,,1
w10020569_kll,d4ypr1eibh,Nick_Dissertation_EX1,1,54,2020-04-26T16:52:00-07:00,153.38500976562,1,versionA_stim.csv,READVersionA.csv,"Read Version A","Dissertation, read only version A",DIGESTION,STOMACH,Study1,F,7,65,Study,User,-,,Study/JOL,"Study Phase",152474,,,-1,-1,,,,0.935
w10020569_kll,d4ypr1eibh,Nick_Dissertation_EX1,1,55,2020-04-26T16:52:06-07:00,6.5122120380402,1,versionA_stim.csv,READVersionA.csv,"Read Version A","Dissertation, read only version A",CIRCLE,ROUND,Study1,S,65,43,Study,User,-,,Study/JOL,"Study Phase",5559,,,-1,-1,,,,1
w10020569_kll,d4ypr1eibh,Nick_Dissertation_EX1,1,56,2020-04-26T16:52:13-07:00,7.0671360492706,1,versionA_stim.csv,READVersionA.csv,"Read Version A","Dissertation, read only version A",DUMP,WASTE,Study1,S,49,45,Study,User,-,,Study/JOL,"Study Phase",6513,,,-1,-1,,,,1
w10020569_kll,d4ypr1eibh,Nick_Dissertation_EX1,1,57,2020-04-26T16:52:21-07:00,7.4631600379944,1,versionA_stim.csv,READVersionA.csv,"Read Version A","Dissertation, read only version A",CASH,WOULD,Study1,U,83,17,Study,User,-,,Study/JOL,"Study Phase",5769,,,-1,-1,,,,1
w10020569_kll,d4ypr1eibh,Nick_Dissertation_EX1,1,58,2020-04-26T16:52:32-07:00,11.14871096611,1,versionA_stim.csv,READVersionA.csv,"Read Version A","Dissertation, read only version A",STRONG,ACCIDENT,Study1,U,80,54,Study,User,-,,Study/JOL,"Study Phase",9703,,,-1,-1,,,,1
w10020569_kll,d4ypr1eibh,Nick_Dissertation_EX1,1,59,2020-04-26T16:52:43-07:00,11.154427051544,1,versionA_stim.csv,READVersionA.csv,"Read Version A","Dissertation, read only version A",GEOLOGY,ROCK,Study1,F,19,31,Study,User,-,,Study/JOL,"Study Phase",9246,,,-1,-1,,,,1
w10020569_kll,d4ypr1eibh,Nick_Dissertation_EX1,1,60,2020-04-26T16:52:53-07:00,10.374121904373,1,versionA_stim.csv,READVersionA.csv,"Read Version A","Dissertation, read only version A",LOCATION,SITE,Study1,S,48,35,Study,User,-,,Study/JOL,"Study Phase",9762,,,-1,-1,,,,1
w10020569_kll,d4ypr1eibh,Nick_Dissertation_EX1,1,61,2020-04-26T16:53:00-07:00,6.9516730308533,1,versionA_stim.csv,READVersionA.csv,"Read Version A","Dissertation, read only version A",KIDNEY,LIVER,Study1,S,53,68,Study,User,-,,Study/JOL,"Study Phase",6376,,,-1,-1,,,,1
w10020569_kll,d4ypr1eibh,Nick_Dissertation_EX1,1,62,2020-04-26T16:53:06-07:00,5.4829869270325,1,versionA_stim.csv,READVersionA.csv,"Read Version A","Dissertation, read only version A",FIRE,BLAZE,Study1,B,45,63,Study,User,-,,Study/JOL,"Study Phase",4843,,,-1,-1,,,,1
w10020569_kll,d4ypr1eibh,Nick_Dissertation_EX1,1,63,2020-04-26T16:53:13-07:00,7.7367022037506,1,versionA_stim.csv,READVersionA.csv,"Read Version A","Dissertation, read only version A",LETTUCE,SALAD,Study1,S,59,85,Study,User,-,,Study/JOL,"Study Phase",6527,,,-1,-1,,,,1
w10020569_kll,d4ypr1eibh,Nick_Dissertation_EX1,1,64,2020-04-26T16:53:18-07:00,4.9936599731445,1,versionA_stim.csv,READVersionA.csv,"Read Version A","Dissertation, read only version A",HOT,CHILI,Study1,B,37,74,Study,User,-,,Study/JOL,"Study Phase",4256,,,-1,-1,,,,1
w10020569_kll,d4ypr1eibh,Nick_Dissertation_EX1,1,65,2020-04-26T16:53:25-07:00,6.7278578281403,1,versionA_stim.csv,READVersionA.csv,"Read Version A","Dissertation, read only version A",TAKE,SEIZE,Study1,B,29,41,Study,User,-,,Study/JOL,"Study Phase",5931,,,-1,-1,,,,1
w10020569_kll,d4ypr1eibh,Nick_Dissertation_EX1,1,66,2020-04-26T16:53:32-07:00,6.3912980556488,1,versionA_stim.csv,READVersionA.csv,"Read Version A","Dissertation, read only version A",SHOE,FOOT,Study1,S,60,60,Study,User,-,,Study/JOL,"Study Phase",5460,,,-1,-1,,,,1
w10020569_kll,d4ypr1eibh,Nick_Dissertation_EX1,1,67,2020-04-26T16:53:40-07:00,8.7607209682465,1,versionA_stim.csv,READVersionA.csv,"Read Version A","Dissertation, read only version A",HUNGER,FAMINE,Study1,B,40,78,Study,User,-,,Study/JOL,"Study Phase",7263,,,-1,-1,,,,1
w10020569_kll,d4ypr1eibh,Nick_Dissertation_EX1,1,68,2020-04-26T16:53:48-07:00,7.4029240608215,1,versionA_stim.csv,READVersionA.csv,"Read Version A","Dissertation, read only version A",ROOT,PLANT,Study1,F,13,21,Study,User,-,,Study/JOL,"Study Phase",6764,,,-1,-1,,,,1
w10020569_kll,d4ypr1eibh,Nick_Dissertation_EX1,1,69,2020-04-26T16:53:57-07:00,9.1138780117035,1,versionA_stim.csv,READVersionA.csv,"Read Version A","Dissertation, read only version A",ARCHITECTURE,DESIGN,Study1,S,51,36,Study,User,-,,Study/JOL,"Study Phase",8534,,,-1,-1,,,,1
w10020569_kll,d4ypr1eibh,Nick_Dissertation_EX1,1,70,2020-04-26T16:54:05-07:00,8.3431010246277,1,versionA_stim.csv,READVersionA.csv,"Read Version A","Dissertation, read only version A",HORNET,STING,Study1,F,11,15,Study,User,-,,Study/JOL,"Study Phase",7574,,,-1,-1,,,,1
w10020569_kll,d4ypr1eibh,Nick_Dissertation_EX1,1,71,2020-04-26T16:54:13-07:00,7.4593749046326,1,versionA_stim.csv,READVersionA.csv,"Read Version A","Dissertation, read only version A",WAGE,MONEY,Study1,F,8,55,Study,User,-,,Study/JOL,"Study Phase",6509,,,-1,-1,,,,1
w10020569_kll,d4ypr1eibh,Nick_Dissertation_EX1,1,72,2020-04-26T16:54:18-07:00,4.9864330291748,1,versionA_stim.csv,READVersionA.csv,"Read Version A","Dissertation, read only version A",WAY,OUT,Study1,F,16,77,Study,User,-,,Study/JOL,"Study Phase",4450,,,-1,-1,,,,1
w10020569_kll,d4ypr1eibh,Nick_Dissertation_EX1,1,73,2020-04-26T16:54:25-07:00,7.1560800075531,1,versionA_stim.csv,READVersionA.csv,"Read Version A","Dissertation, read only version A",HONEY,BEE,Study1,S,63,26,Study,User,-,,Study/JOL,"Study Phase",6594,,,-1,-1,,,,1
w10020569_kll,d4ypr1eibh,Nick_Dissertation_EX1,1,74,2020-04-26T16:54:35-07:00,10.239279031754,1,versionA_stim.csv,READVersionA.csv,"Read Version A","Dissertation, read only version A",SENTENCE,WORD,Study1,B,31,69,Study,User,-,,Study/JOL,"Study Phase",9745,,,-1,-1,,,,1
w10020569_kll,d4ypr1eibh,Nick_Dissertation_EX1,1,75,2020-04-26T16:54:43-07:00,7.9992489814758,1,versionA_stim.csv,READVersionA.csv,"Read Version A","Dissertation, read only version A",DELINQUENT,BAD,Study1,F,6,67,Study,User,-,,Study/JOL,"Study Phase",7091,,,-1,-1,,,,1
w10020569_kll,d4ypr1eibh,Nick_Dissertation_EX1,1,76,2020-04-26T16:54:50-07:00,6.498927116394,1,versionA_stim.csv,READVersionA.csv,"Read Version A","Dissertation, read only version A",TRIAL,JURY,Study1,S,50,9,Study,User,-,,Study/JOL,"Study Phase",5098,,,-1,-1,,,,1
w10020569_kll,d4ypr1eibh,Nick_Dissertation_EX1,1,77,2020-04-26T16:54:56-07:00,6.3886778354645,1,versionA_stim.csv,READVersionA.csv,"Read Version A","Dissertation, read only version A",PAW,DOG,Study1,F,15,10,Study,User,-,,Study/JOL,"Study Phase",5471,,,-1,-1,,,,1
w10020569_kll,d4ypr1eibh,Nick_Dissertation_EX1,1,78,2020-04-26T16:55:04-07:00,8.5135731697083,1,versionA_stim.csv,READVersionA.csv,"Read Version A","Dissertation, read only version A",BEGIN,END,Study1,S,54,48,Study,User,-,,Study/JOL,"Study Phase",7821,,,-1,-1,,,,1
w10020569_kll,d4ypr1eibh,Nick_Dissertation_EX1,1,79,2020-04-26T16:55:35-07:00,31.063148975372,1,versionA_stim.csv,READVersionA.csv,"Read Version A","Dissertation, read only version A",ORCHID,FLOWER,Study1,F,24,24,Study,User,-,,Study/JOL,"Study Phase",30534,,,-1,-1,,,,1
w10020569_kll,d4ypr1eibh,Nick_Dissertation_EX1,1,80,2020-04-26T16:55:54-07:00,18.533911943436,1,versionA_stim.csv,READVersionA.csv,"Read Version A","Dissertation, read only version A",MACHINE,POSITION,Study1,U,76,81,Study,User,-,,Study/JOL,"Study Phase",17894,,,-1,-1,,,,1
w10020569_kll,d4ypr1eibh,Nick_Dissertation_EX1,1,81,2020-04-26T16:56:01-07:00,6.7846260070801,1,versionA_stim.csv,READVersionA.csv,"Read Version A","Dissertation, read only version A",EDITOR,NEWS,Study1,F,10,39,Study,User,-,,Study/JOL,"Study Phase",6204,,,-1,-1,,,,1
w10020569_kll,d4ypr1eibh,Nick_Dissertation_EX1,1,82,2020-04-26T16:56:09-07:00,8.1741390228271,1,versionA_stim.csv,READVersionA.csv,"Read Version A","Dissertation, read only version A",CHISEL,HAMMER,Study1,F,9,61,Study,User,-,,Study/JOL,"Study Phase",7281,,,-1,-1,,,,1
w10020569_kll,d4ypr1eibh,Nick_Dissertation_EX1,1,83,2020-04-26T16:56:20-07:00,11.032845973969,1,versionA_stim.csv,READVersionA.csv,"Read Version A","Dissertation, read only version A",KING,VASE,Study1,U,85,72,Study,User,-,,Study/JOL,"Study Phase",10064,,,-1,-1,,,,1
w10020569_kll,d4ypr1eibh,Nick_Dissertation_EX1,1,84,2020-04-26T16:56:33-07:00,12.741791009903,1,versionA_stim.csv,READVersionA.csv,"Read Version A","Dissertation, read only version A",MEANING,DEFINITION,Study1,S,62,80,Study,User,-,,Study/JOL,"Study Phase",11992,,,-1,-1,,,,1
w10020569_kll,d4ypr1eibh,Nick_Dissertation_EX1,1,85,2020-04-26T16:56:40-07:00,6.7837438583374,1,versionA_stim.csv,READVersionA.csv,"Read Version A","Dissertation, read only version A",SMELL,STENCH,Study1,B,42,47,Study,User,-,,Study/JOL,"Study Phase",6228,,,-1,-1,,,,1
w10020569_kll,d4ypr1eibh,Nick_Dissertation_EX1,1,86,2020-04-26T16:56:48-07:00,8.5073750019073,1,versionA_stim.csv,READVersionA.csv,"Read Version A","Dissertation, read only version A",REVOLUTION,WAR,Study1,F,20,73,Study,User,-,,Study/JOL,"Study Phase",7189,,,-1,-1,,,,1
w10020569_kll,d4ypr1eibh,Nick_Dissertation_EX1,1,87,2020-04-26T16:56:54-07:00,5.6908650398254,1,versionA_stim.csv,READVersionA.csv,"Read Version A","Dissertation, read only version A",MOON,SPACE,BUFFER2,Buffer,89,88,Study,User,-,,Study/JOL,BUFFER2,4910,,,-1,-1,,,,1
w10020569_kll,d4ypr1eibh,Nick_Dissertation_EX1,1,88,2020-04-26T16:57:02-07:00,8.1399700641632,1,versionA_stim.csv,READVersionA.csv,"Read Version A","Dissertation, read only version A",GEESE,GOOSE,BUFFER2,Buffer,86,90,Study,User,-,,Study/JOL,BUFFER2,7601,,,-1,-1,,,,1
w10020569_kll,d4ypr1eibh,Nick_Dissertation_EX1,1,89,2020-04-26T16:57:10-07:00,8.1981189250946,1,versionA_stim.csv,READVersionA.csv,"Read Version A","Dissertation, read only version A",MALT,CHOCOLATE,BUFFER2,Buffer,88,87,Study,User,-,,Study/JOL,BUFFER2,7574,,,-1,-1,,,,1
w10020569_kll,d4ypr1eibh,Nick_Dissertation_EX1,1,90,2020-04-26T16:57:21-07:00,10.742014169693,1,versionA_stim.csv,READVersionA.csv,"Read Version A","Dissertation, read only version A",SHERRIF,POLICE,BUFFER2,Buffer,87,91,Study,User,-,,Study/JOL,BUFFER2,10124,,,-1,-1,,,,1
w10020569_kll,d4ypr1eibh,Nick_Dissertation_EX1,1,91,2020-04-26T16:57:29-07:00,7.7899079322815,1,versionA_stim.csv,READVersionA.csv,"Read Version A","Dissertation, read only version A",THING,STUFF,BUFFER2,Buffer,90,89,Study,User,-,,Study/JOL,BUFFER2,7097,,,-1,-1,,,,1
w10020569_kll,d4ypr1eibh,Nick_Dissertation_EX1,1,92,2020-04-26T16:57:32-07:00,3.5489039421082,1,versionA_stim.csv,READVersionA.csv,"Read Version A","Dissertation, read only version A",,,,,,0,Instruct,User,-,"You have completed this section. Please press Enter.",Filler_Instruction,Instruct2,2471,,,-1,-1,,,,1
w10020569_kll,d4ypr1eibh,Nick_Dissertation_EX1,1,93,2020-04-26T16:59:33-07:00,121.04728507996,1,versionA_stim.csv,READVersionA.csv,"Read Version A","Dissertation, read only version A",,,,,,0,FreeRecall,120,120,"Please list the 50 US states in alphabetical order. The task will automatically advance to the next screen after two minutes.",,Filler1,120019,"Alabama Alaska Arizona Arkansas California Colorado Connecticut Delaware Florida Georgia Hawaii Illinois Indiana Iowa Kansas Kentucky Louisiana Maine Maryland ",0,17265,106533,0,0,,1
w10020569_kll,d4ypr1eibh,Nick_Dissertation_EX1,1,94,2020-04-26T16:59:46-07:00,13.175616025925,1,versionA_stim.csv,READVersionA.csv,"Read Version A","Dissertation, read only version A",,,,,,0,Instruct,-,10,"You will now be presented with the first word from each of the previously studied item pairs. Please type the missing word. If you do not know the word, you may guess or press Enter to skip forward to the next pair.",,Instruct3,12352,,,-1,-1,,,,1
w10020569_kll,d4ypr1eibh,Nick_Dissertation_EX1,1,95,2020-04-26T17:00:06-07:00,19.426373958588,1,versionA_stim.csv,READVersionA.csv,"Read Version A","Dissertation, read only version A",BUG,WASP,Study1,B,32,59,Test,User,-,,Recall,Recall1,18628,Wasp,100,15607,17490,1,1,,1
w10020569_kll,d4ypr1eibh,Nick_Dissertation_EX1,1,96,2020-04-26T17:00:14-07:00,8.1249899864197,1,versionA_stim.csv,READVersionA.csv,"Read Version A","Dissertation, read only version A",POP,SODA,Study1,S,56,83,Test,User,-,,Recall,Recall1,7401,Soda,100,3079,6362,1,1,,1
w10020569_kll,d4ypr1eibh,Nick_Dissertation_EX1,1,97,2020-04-26T17:00:24-07:00,10.109529018402,1,versionA_stim.csv,READVersionA.csv,"Read Version A","Dissertation, read only version A",KEY,LATCH,Study1,B,36,51,Test,User,-,,Recall,Recall1,9578,Latch,100,7905,8491,1,1,,1
w10020569_kll,d4ypr1eibh,Nick_Dissertation_EX1,1,98,2020-04-26T17:00:36-07:00,11.96964097023,1,versionA_stim.csv,READVersionA.csv,"Read Version A","Dissertation, read only version A",BITTER,COLD,Study1,F,12,12,Test,User,-,,Recall,Recall1,11222,,0,-1,-1,0,0,,1
w10020569_kll,d4ypr1eibh,Nick_Dissertation_EX1,1,99,2020-04-26T17:00:45-07:00,8.9385209083557,1,versionA_stim.csv,READVersionA.csv,"Read Version A","Dissertation, read only version A",GREAT,FANTASTIC,Study1,B,35,70,Test,User,-,,Recall,Recall1,8321,"Fantasy ",75,5807,6966,0,1,,1
w10020569_kll,d4ypr1eibh,Nick_Dissertation_EX1,1,100,2020-04-26T17:01:24-07:00,39.270140171051,1,versionA_stim.csv,READVersionA.csv,"Read Version A","Dissertation, read only version A",ARTERY,BRONZE,Study1,U,74,40,Test,User,-,,Recall,Recall1,38074,Brown,72.727272727273,30635,36596,0,0,,1
w10020569_kll,d4ypr1eibh,Nick_Dissertation_EX1,1,101,2020-04-26T17:01:46-07:00,21.87854886055,1,versionA_stim.csv,READVersionA.csv,"Read Version A","Dissertation, read only version A",TRIAL,JURY,Study1,S,50,9,Test,User,-,,Recall,Recall1,20914,Jury,100,19414,19904,1,1,,1
w10020569_kll,d4ypr1eibh,Nick_Dissertation_EX1,1,102,2020-04-26T17:01:51-07:00,4.6973650455475,1,versionA_stim.csv,READVersionA.csv,"Read Version A","Dissertation, read only version A",DELINQUENT,BAD,Study1,F,6,67,Test,User,-,,Recall,Recall1,3959,Bad,100,2656,3001,1,1,,1
w10020569_kll,d4ypr1eibh,Nick_Dissertation_EX1,1,103,2020-04-26T17:02:19-07:00,27.887861013412,1,versionA_stim.csv,READVersionA.csv,"Read Version A","Dissertation, read only version A",PARK,HUNGRY,Study1,U,68,84,Test,User,-,,Recall,Recall1,27270,,0,-1,-1,0,0,,1
w10020569_kll,d4ypr1eibh,Nick_Dissertation_EX1,1,104,2020-04-26T17:02:40-07:00,21.147536039352,1,versionA_stim.csv,READVersionA.csv,"Read Version A","Dissertation, read only version A",VALLEY,ADD,Study1,U,82,33,Test,User,-,,Recall,Recall1,20637,Add,100,17915,18586,1,1,,1
w10020569_kll,d4ypr1eibh,Nick_Dissertation_EX1,1,105,2020-04-26T17:03:02-07:00,22.453130960464,1,versionA_stim.csv,READVersionA.csv,"Read Version A","Dissertation, read only version A",DIGESTION,STOMACH,Study1,F,7,65,Test,User,-,,Recall,Recall1,21772,"Stomach ",100,17732,18992,1,1,,1
w10020569_kll,d4ypr1eibh,Nick_Dissertation_EX1,1,106,2020-04-26T17:03:11-07:00,8.9236030578613,1,versionA_stim.csv,READVersionA.csv,"Read Version A","Dissertation, read only version A",BATHROOM,TOILET,Study1,S,58,22,Test,User,-,,Recall,Recall1,8239,"Toilet ",100,5583,6145,1,1,,1
w10020569_kll,d4ypr1eibh,Nick_Dissertation_EX1,1,107,2020-04-26T17:03:21-07:00,9.376806974411,1,versionA_stim.csv,READVersionA.csv,"Read Version A","Dissertation, read only version A",DISCUSSION,TALK,Study1,F,21,27,Test,User,-,,Recall,Recall1,8726,Talk,100,6126,7823,1,1,,1
w10020569_kll,d4ypr1eibh,Nick_Dissertation_EX1,1,108,2020-04-26T17:03:26-07:00,5.6222338676453,1,versionA_stim.csv,READVersionA.csv,"Read Version A","Dissertation, read only version A",LETTUCE,SALAD,Study1,S,59,85,Test,User,-,,Recall,Recall1,5189,Salad,100,2287,4174,1,1,,1
w10020569_kll,d4ypr1eibh,Nick_Dissertation_EX1,1,109,2020-04-26T17:03:48-07:00,21.657442092896,1,versionA_stim.csv,READVersionA.csv,"Read Version A","Dissertation, read only version A",WORK,CHORE,Study1,B,39,56,Test,User,-,,Recall,Recall1,21036,Chore,100,18363,19762,1,1,,1
w10020569_kll,d4ypr1eibh,Nick_Dissertation_EX1,1,110,2020-04-26T17:03:56-07:00,8.5550301074982,1,versionA_stim.csv,READVersionA.csv,"Read Version A","Dissertation, read only version A",BRIDGE,WATER,Study1,F,18,20,Test,User,-,,Recall,Recall1,7942,Water,100,6014,7160,1,1,,1
w10020569_kll,d4ypr1eibh,Nick_Dissertation_EX1,1,111,2020-04-26T17:04:08-07:00,11.157473802567,1,versionA_stim.csv,READVersionA.csv,"Read Version A","Dissertation, read only version A",WAY,OUT,Study1,F,16,77,Test,User,-,,Recall,Recall1,10564,Back,0,8273,9595,0,0,,1
w10020569_kll,d4ypr1eibh,Nick_Dissertation_EX1,1,112,2020-04-26T17:04:15-07:00,7.0721180438995,1,versionA_stim.csv,READVersionA.csv,"Read Version A","Dissertation, read only version A",ORCHID,FLOWER,Study1,F,24,24,Test,User,-,,Recall,Recall1,6019,Flower,100,3384,5108,1,1,,1
w10020569_kll,d4ypr1eibh,Nick_Dissertation_EX1,1,113,2020-04-26T17:04:34-07:00,19.284775018692,1,versionA_stim.csv,READVersionA.csv,"Read Version A","Dissertation, read only version A",SWAN,BIRD,Study1,F,14,8,Test,User,-,,Recall,Recall1,18414,Bird,100,16763,17594,1,1,,1
w10020569_kll,d4ypr1eibh,Nick_Dissertation_EX1,1,114,2020-04-26T17:04:52-07:00,18.398077011108,1,versionA_stim.csv,READVersionA.csv,"Read Version A","Dissertation, read only version A",LOCATION,SITE,Study1,S,48,35,Test,User,-,,Recall,Recall1,17820,Site,100,13018,16883,1,1,,1
w10020569_kll,d4ypr1eibh,Nick_Dissertation_EX1,1,115,2020-04-26T17:04:56-07:00,3.5549170970917,1,versionA_stim.csv,READVersionA.csv,"Read Version A","Dissertation, read only version A",ALLOW,TUCK,Study1,U,78,76,Test,User,-,,Recall,Recall1,3086,,0,-1,-1,0,0,,1
w10020569_kll,d4ypr1eibh,Nick_Dissertation_EX1,1,116,2020-04-26T17:05:13-07:00,17.245875835419,1,versionA_stim.csv,READVersionA.csv,"Read Version A","Dissertation, read only version A",FIRE,BLAZE,Study1,B,45,63,Test,User,-,,Recall,Recall1,16595,Burn,22.222222222222,11370,15345,0,0,,1
w10020569_kll,d4ypr1eibh,Nick_Dissertation_EX1,1,117,2020-04-26T17:05:33-07:00,19.486075162888,1,versionA_stim.csv,READVersionA.csv,"Read Version A","Dissertation, read only version A",HAPPY,CAR,Study1,U,77,23,Test,User,-,,Recall,Recall1,18867,Car,100,17165,17843,1,1,,1
w10020569_kll,d4ypr1eibh,Nick_Dissertation_EX1,1,118,2020-04-26T17:05:50-07:00,16.887810945511,1,versionA_stim.csv,READVersionA.csv,"Read Version A","Dissertation, read only version A",SHOE,FOOT,Study1,S,60,60,Test,User,-,,Recall,Recall1,15674,Foot,100,13798,14682,1,1,,1
w10020569_kll,d4ypr1eibh,Nick_Dissertation_EX1,1,119,2020-04-26T17:05:57-07:00,7.1510899066925,1,versionA_stim.csv,READVersionA.csv,"Read Version A","Dissertation, read only version A",CREDIT,CARD,Study1,F,23,50,Test,User,-,,Recall,Recall1,5419,Card,100,3577,4534,1,1,,1
w10020569_kll,d4ypr1eibh,Nick_Dissertation_EX1,1,120,2020-04-26T17:06:06-07:00,9.3353040218353,1,versionA_stim.csv,READVersionA.csv,"Read Version A","Dissertation, read only version A",FIX,HAND,Study1,U,75,58,Test,User,-,,Recall,Recall1,8786,Hand,100,6415,7779,1,1,,1
w10020569_kll,d4ypr1eibh,Nick_Dissertation_EX1,1,121,2020-04-26T17:06:20-07:00,13.909558057785,1,versionA_stim.csv,READVersionA.csv,"Read Version A","Dissertation, read only version A",MATH,DIVISION,Study1,B,33,79,Test,User,-,,Recall,Recall1,13348,"Division ",100,6622,11181,1,1,,1
w10020569_kll,d4ypr1eibh,Nick_Dissertation_EX1,1,122,2020-04-26T17:06:25-07:00,5.560389995575,1,versionA_stim.csv,READVersionA.csv,"Read Version A","Dissertation, read only version A",HONEY,BEE,Study1,S,63,26,Test,User,-,,Recall,Recall1,4917,Bee,100,3473,4100,1,1,,1
w10020569_kll,d4ypr1eibh,Nick_Dissertation_EX1,1,123,2020-04-26T17:06:33-07:00,7.8443539142609,1,versionA_stim.csv,READVersionA.csv,"Read Version A","Dissertation, read only version A",PAST,FUTURE,Study1,S,61,46,Test,User,-,,Recall,Recall1,6801,Tense,36.363636363636,4484,5902,0,0,,1
w10020569_kll,d4ypr1eibh,Nick_Dissertation_EX1,1,124,2020-04-26T17:07:09-07:00,35.320315122604,1,versionA_stim.csv,READVersionA.csv,"Read Version A","Dissertation, read only version A",BEGIN,END,Study1,S,54,48,Test,User,-,,Recall,Recall1,34771,End,100,33007,33907,1,1,,1
w10020569_kll,d4ypr1eibh,Nick_Dissertation_EX1,1,125,2020-04-26T17:07:55-07:00,46.177716016769,1,versionA_stim.csv,READVersionA.csv,"Read Version A","Dissertation, read only version A",DARK,CAVE,Study1,B,28,18,Test,User,-,,Recall,Recall1,45557,Sky,0,43999,44485,0,0,,0.956
w10020569_kll,d4ypr1eibh,Nick_Dissertation_EX1,1,126,2020-04-26T17:08:27-07:00,32.103699922562,1,versionA_stim.csv,READVersionA.csv,"Read Version A","Dissertation, read only version A",DUE,ASSIGNMENT,Study1,S,46,38,Test,User,-,,Recall,Recall1,31496,,0,-1,-1,0,0,,1
w10020569_kll,d4ypr1eibh,Nick_Dissertation_EX1,1,127,2020-04-26T17:08:31-07:00,4.3940269947052,1,versionA_stim.csv,READVersionA.csv,"Read Version A","Dissertation, read only version A",KIDNEY,LIVER,Study1,S,53,68,Test,User,-,,Recall,Recall1,3894,Liver,100,2297,2993,1,1,,1
w10020569_kll,d4ypr1eibh,Nick_Dissertation_EX1,1,128,2020-04-26T17:08:39-07:00,7.9821031093597,1,versionA_stim.csv,READVersionA.csv,"Read Version A","Dissertation, read only version A",NUMBER,AMOUNT,Study1,S,47,86,Test,User,-,,Recall,Recall1,7358,"Amount ",100,4393,5257,1,1,,1
w10020569_kll,d4ypr1eibh,Nick_Dissertation_EX1,1,129,2020-04-26T17:08:49-07:00,9.2426109313965,1,versionA_stim.csv,READVersionA.csv,"Read Version A","Dissertation, read only version A",SLEEP,DROWSY,Study1,B,41,82,Test,User,-,,Recall,Recall1,8654,Droswey,76.923076923077,4521,7571,0,1,,1
w10020569_kll,d4ypr1eibh,Nick_Dissertation_EX1,1,130,2020-04-26T17:09:11-07:00,22.435163974762,1,versionA_stim.csv,READVersionA.csv,"Read Version A","Dissertation, read only version A",BABY,CHILD,Study1,S,64,28,Test,User,-,,Recall,Recall1,21893,Sitter,18.181818181818,18176,19450,0,0,,1
w10020569_kll,d4ypr1eibh,Nick_Dissertation_EX1,1,131,2020-04-26T17:09:32-07:00,21.070267915726,1,versionA_stim.csv,READVersionA.csv,"Read Version A","Dissertation, read only version A",HORNET,STING,Study1,F,11,15,Test,User,-,,Recall,Recall1,20500,Sting,100,18739,19472,1,1,,1
w10020569_kll,d4ypr1eibh,Nick_Dissertation_EX1,1,132,2020-04-26T17:10:01-07:00,28.668485164642,1,versionA_stim.csv,READVersionA.csv,"Read Version A","Dissertation, read only version A",FULL,ENOUGH,Study1,B,26,49,Test,User,-,,Recall,Recall1,27989,"Enough ",100,23315,24886,1,1,,1
w10020569_kll,d4ypr1eibh,Nick_Dissertation_EX1,1,133,2020-04-26T17:10:10-07:00,8.829509973526,1,versionA_stim.csv,READVersionA.csv,"Read Version A","Dissertation, read only version A",GRILL,BAR,Study1,S,52,7,Test,User,-,,Recall,Recall1,8183,Bar,100,3130,4173,1,1,,1
w10020569_kll,d4ypr1eibh,Nick_Dissertation_EX1,1,134,2020-04-26T17:10:17-07:00,6.990138053894,1,versionA_stim.csv,READVersionA.csv,"Read Version A","Dissertation, read only version A",SENTENCE,WORD,Study1,B,31,69,Test,User,-,,Recall,Recall1,6353,Word,100,2944,4786,1,1,,1
w10020569_kll,d4ypr1eibh,Nick_Dissertation_EX1,1,135,2020-04-26T17:10:25-07:00,8.8335378170013,1,versionA_stim.csv,READVersionA.csv,"Read Version A","Dissertation, read only version A",TUNA,FISH,Study1,F,25,11,Test,User,-,,Recall,Recall1,8243,Fish,100,5424,6942,1,1,,1
w10020569_kll,d4ypr1eibh,Nick_Dissertation_EX1,1,136,2020-04-26T17:10:37-07:00,11.80801320076,1,versionA_stim.csv,READVersionA.csv,"Read Version A","Dissertation, read only version A",DEATH,BUSINESS,Study1,U,72,19,Test,User,-,,Recall,Recall1,11224,,0,-1,-1,0,0,,1
w10020569_kll,d4ypr1eibh,Nick_Dissertation_EX1,1,137,2020-04-26T17:11:08-07:00,30.783258914948,1,versionA_stim.csv,READVersionA.csv,"Read Version A","Dissertation, read only version A",CHISEL,HAMMER,Study1,F,9,61,Test,User,-,,Recall,Recall1,30160,,0,-1,-1,0,0,,1
w10020569_kll,d4ypr1eibh,Nick_Dissertation_EX1,1,138,2020-04-26T17:11:25-07:00,16.631824016571,1,versionA_stim.csv,READVersionA.csv,"Read Version A","Dissertation, read only version A",KING,VASE,Study1,U,85,72,Test,User,-,,Recall,Recall1,15972,Vase,100,14024,14757,1,1,,1
w10020569_kll,d4ypr1eibh,Nick_Dissertation_EX1,1,139,2020-04-26T17:11:36-07:00,11.76865196228,1,versionA_stim.csv,READVersionA.csv,"Read Version A","Dissertation, read only version A",DRINK,SIP,Study1,B,27,53,Test,User,-,,Recall,Recall1,11202,Cup,33.333333333333,5043,10166,0,0,,1
w10020569_kll,d4ypr1eibh,Nick_Dissertation_EX1,1,140,2020-04-26T17:11:49-07:00,12.186779022217,1,versionA_stim.csv,READVersionA.csv,"Read Version A","Dissertation, read only version A",HEIGHT,GROWTH,Study1,B,30,62,Test,User,-,,Recall,Recall1,11556,Grow,80,2705,10497,0,1,,1
w10020569_kll,d4ypr1eibh,Nick_Dissertation_EX1,1,141,2020-04-26T17:12:44-07:00,55.461091041565,1,versionA_stim.csv,READVersionA.csv,"Read Version A","Dissertation, read only version A",CIRCLE,ROUND,Study1,S,65,43,Test,User,-,,Recall,Recall1,54918,"Round ",100,50881,52334,1,1,,1
w10020569_kll,d4ypr1eibh,Nick_Dissertation_EX1,1,142,2020-04-26T17:12:49-07:00,5.2767758369446,1,versionA_stim.csv,READVersionA.csv,"Read Version A","Dissertation, read only version A",SMELL,STENCH,Study1,B,42,47,Test,User,-,,Recall,Recall1,4752,,0,-1,-1,0,0,,1
w10020569_kll,d4ypr1eibh,Nick_Dissertation_EX1,1,143,2020-04-26T17:13:39-07:00,50.025115013123,1,versionA_stim.csv,READVersionA.csv,"Read Version A","Dissertation, read only version A",HOT,CHILI,Study1,B,37,74,Test,User,-,,Recall,Recall1,49530,Chili,100,47590,48485,1,1,,1
w10020569_kll,d4ypr1eibh,Nick_Dissertation_EX1,1,144,2020-04-26T17:13:44-07:00,5.1107361316681,1,versionA_stim.csv,READVersionA.csv,"Read Version A","Dissertation, read only version A",ARCHITECTURE,DESIGN,Study1,S,51,36,Test,User,-,,Recall,Recall1,4682,Design,100,2433,3734,1,1,,1
w10020569_kll,d4ypr1eibh,Nick_Dissertation_EX1,1,145,2020-04-26T17:13:51-07:00,6.1736588478088,1,versionA_stim.csv,READVersionA.csv,"Read Version A","Dissertation, read only version A",LIFT,WOMAN,Study1,U,69,30,Test,User,-,,Recall,Recall1,5646,Man,75,4334,4575,0,1,,1
w10020569_kll,d4ypr1eibh,Nick_Dissertation_EX1,1,146,2020-04-26T17:14:08-07:00,17.669731140137,1,versionA_stim.csv,READVersionA.csv,"Read Version A","Dissertation, read only version A",BALL,RACKET,Study1,B,38,52,Test,User,-,,Recall,Recall1,17055,Racket,100,11498,16070,1,1,,1
w10020569_kll,d4ypr1eibh,Nick_Dissertation_EX1,1,147,2020-04-26T17:14:28-07:00,20.083206892014,1,versionA_stim.csv,READVersionA.csv,"Read Version A","Dissertation, read only version A",HYGIENE,CLEAN,Study1,F,17,75,Test,User,-,,Recall,Recall1,19489,Clean,100,17573,18419,1,1,,1
w10020569_kll,d4ypr1eibh,Nick_Dissertation_EX1,1,148,2020-04-26T17:14:39-07:00,11.040163040161,1,versionA_stim.csv,READVersionA.csv,"Read Version A","Dissertation, read only version A",PUSHER,CLUTTER,Study1,U,66,64,Test,User,-,,Recall,Recall1,10410,,0,-1,-1,0,0,,1
w10020569_kll,d4ypr1eibh,Nick_Dissertation_EX1,1,149,2020-04-26T17:14:59-07:00,19.677124977112,1,versionA_stim.csv,READVersionA.csv,"Read Version A","Dissertation, read only version A",CLOTHES,ATTIRE,Study1,B,43,66,Test,User,-,,Recall,Recall1,19093,Attire,100,17273,18338,1,1,,1
w10020569_kll,d4ypr1eibh,Nick_Dissertation_EX1,1,150,2020-04-26T17:15:02-07:00,3.3578691482544,1,versionA_stim.csv,READVersionA.csv,"Read Version A","Dissertation, read only version A",REVOLUTION,WAR,Study1,F,20,73,Test,User,-,,Recall,Recall1,2918,,0,-1,-1,0,0,,1
w10020569_kll,d4ypr1eibh,Nick_Dissertation_EX1,1,151,2020-04-26T17:15:36-07:00,33.335457801819,1,versionA_stim.csv,READVersionA.csv,"Read Version A","Dissertation, read only version A",CASH,WOULD,Study1,U,83,17,Test,User,-,,Recall,Recall1,32571,Money,20,30767,31668,0,0,,1
w10020569_kll,d4ypr1eibh,Nick_Dissertation_EX1,1,152,2020-04-26T17:16:17-07:00,41.428050041199,1,versionA_stim.csv,READVersionA.csv,"Read Version A","Dissertation, read only version A",BLOW,WIND,Study1,S,55,29,Test,User,-,,Recall,Recall1,40785,Torch,0,39086,39749,0,0,,1
w10020569_kll,d4ypr1eibh,Nick_Dissertation_EX1,1,153,2020-04-26T17:16:43-07:00,25.978389978409,1,versionA_stim.csv,READVersionA.csv,"Read Version A","Dissertation, read only version A",SUGAR,RIDDLE,Study1,U,81,25,Test,User,-,,Recall,Recall1,25301,Riddle,100,16933,24389,1,1,,1
w10020569_kll,d4ypr1eibh,Nick_Dissertation_EX1,1,154,2020-04-26T17:16:58-07:00,14.970028162003,1,versionA_stim.csv,READVersionA.csv,"Read Version A","Dissertation, read only version A",LAW,ATTORNEY,Study1,B,34,14,Test,User,-,,Recall,Recall1,14288,Attorney,100,12233,13322,1,1,,1
w10020569_kll,d4ypr1eibh,Nick_Dissertation_EX1,1,155,2020-04-26T17:17:02-07:00,3.6286828517914,1,versionA_stim.csv,READVersionA.csv,"Read Version A","Dissertation, read only version A",GEOLOGY,ROCK,Study1,F,19,31,Test,User,-,,Recall,Recall1,3136,Rock,100,1954,2229,1,1,,1
w10020569_kll,d4ypr1eibh,Nick_Dissertation_EX1,1,156,2020-04-26T17:17:23-07:00,21.565530061722,1,versionA_stim.csv,READVersionA.csv,"Read Version A","Dissertation, read only version A",DUMP,WASTE,Study1,S,49,45,Test,User,-,,Recall,Recall1,20996,Waste,100,17788,19270,1,1,,1
w10020569_kll,d4ypr1eibh,Nick_Dissertation_EX1,1,157,2020-04-26T17:17:27-07:00,3.6959450244904,1,versionA_stim.csv,READVersionA.csv,"Read Version A","Dissertation, read only version A",PAW,DOG,Study1,F,15,10,Test,User,-,,Recall,Recall1,3239,Dog,100,1977,2268,1,1,,1
w10020569_kll,d4ypr1eibh,Nick_Dissertation_EX1,1,158,2020-04-26T17:17:31-07:00,4.1953420639038,1,versionA_stim.csv,READVersionA.csv,"Read Version A","Dissertation, read only version A",MEANING,DEFINITION,Study1,S,62,80,Test,User,-,,Recall,Recall1,3672,,0,-1,-1,0,0,,1
w10020569_kll,d4ypr1eibh,Nick_Dissertation_EX1,1,159,2020-04-26T17:18:05-07:00,33.319502830505,1,versionA_stim.csv,READVersionA.csv,"Read Version A","Dissertation, read only version A",TAKE,SEIZE,Study1,B,29,41,Test,User,-,,Recall,Recall1,32674,,0,-1,-1,0,0,,1
w10020569_kll,d4ypr1eibh,Nick_Dissertation_EX1,1,160,2020-04-26T17:18:12-07:00,7.5695581436157,1,versionA_stim.csv,READVersionA.csv,"Read Version A","Dissertation, read only version A",WAGE,MONEY,Study1,F,8,55,Test,User,-,,Recall,Recall1,6603,Money,100,2037,5583,1,1,,1
w10020569_kll,d4ypr1eibh,Nick_Dissertation_EX1,1,161,2020-04-26T17:18:43-07:00,30.866091966629,1,versionA_stim.csv,READVersionA.csv,"Read Version A","Dissertation, read only version A",DISCOVER,FLOOR,Study1,U,71,44,Test,User,-,,Recall,Recall1,30085,Floor,100,28383,28985,1,1,,1
w10020569_kll,d4ypr1eibh,Nick_Dissertation_EX1,1,162,2020-04-26T17:18:51-07:00,7.6746270656586,1,versionA_stim.csv,READVersionA.csv,"Read Version A","Dissertation, read only version A",SOON,BELT,Study1,U,70,16,Test,User,-,,Recall,Recall1,7151,,0,-1,-1,0,0,,1
w10020569_kll,d4ypr1eibh,Nick_Dissertation_EX1,1,163,2020-04-26T17:18:55-07:00,4.2882809638977,1,versionA_stim.csv,READVersionA.csv,"Read Version A","Dissertation, read only version A",PLANE,PILOT,Study1,B,44,13,Test,User,-,,Recall,Recall1,3739,Pilot,100,1884,2872,1,1,,1
w10020569_kll,d4ypr1eibh,Nick_Dissertation_EX1,1,164,2020-04-26T17:19:03-07:00,7.7970349788666,1,versionA_stim.csv,READVersionA.csv,"Read Version A","Dissertation, read only version A",WINE,CHEESE,Study1,S,57,57,Test,User,-,,Recall,Recall1,7210,Cheese,100,5391,6403,1,1,,1
w10020569_kll,d4ypr1eibh,Nick_Dissertation_EX1,1,165,2020-04-26T17:19:42-07:00,39.660546064377,1,versionA_stim.csv,READVersionA.csv,"Read Version A","Dissertation, read only version A",HUNGER,FAMINE,Study1,B,40,78,Test,User,-,,Recall,Recall1,39090,Famine,100,35916,38158,1,1,,1
w10020569_kll,d4ypr1eibh,Nick_Dissertation_EX1,1,166,2020-04-26T17:19:53-07:00,10.632707834244,1,versionA_stim.csv,READVersionA.csv,"Read Version A","Dissertation, read only version A",HERD,COW,Study1,F,22,71,Test,User,-,,Recall,Recall1,9841,Gather,0,6754,8892,0,0,,1
w10020569_kll,d4ypr1eibh,Nick_Dissertation_EX1,1,167,2020-04-26T17:20:06-07:00,12.636049032211,1,versionA_stim.csv,READVersionA.csv,"Read Version A","Dissertation, read only version A",ART,LION,Study1,U,79,42,Test,User,-,,Recall,Recall1,12022,Lion,100,10441,11143,1,1,,1
w10020569_kll,d4ypr1eibh,Nick_Dissertation_EX1,1,168,2020-04-26T17:20:20-07:00,14.81317615509,1,versionA_stim.csv,READVersionA.csv,"Read Version A","Dissertation, read only version A",HIDE,SICK,Study1,U,84,34,Test,User,-,,Recall,Recall1,14196,Seek,50,9927,12152,0,0,,1
w10020569_kll,d4ypr1eibh,Nick_Dissertation_EX1,1,169,2020-04-26T17:20:37-07:00,16.280378818512,1,versionA_stim.csv,READVersionA.csv,"Read Version A","Dissertation, read only version A",EDITOR,NEWS,Study1,F,10,39,Test,User,-,,Recall,Recall1,15551,News,100,14011,14623,1,1,,1
w10020569_kll,d4ypr1eibh,Nick_Dissertation_EX1,1,170,2020-04-26T17:20:56-07:00,18.839528083801,1,versionA_stim.csv,READVersionA.csv,"Read Version A","Dissertation, read only version A",MACHINE,POSITION,Study1,U,76,81,Test,User,-,,Recall,Recall1,18050,Position,100,13514,17039,1,1,,1
w10020569_kll,d4ypr1eibh,Nick_Dissertation_EX1,1,171,2020-04-26T17:21:13-07:00,16.960315942764,1,versionA_stim.csv,READVersionA.csv,"Read Version A","Dissertation, read only version A",STRONG,ACCIDENT,Study1,U,80,54,Test,User,-,,Recall,Recall1,16367,,0,-1,-1,0,0,,1
w10020569_kll,d4ypr1eibh,Nick_Dissertation_EX1,1,172,2020-04-26T17:21:35-07:00,22.700673103333,1,versionA_stim.csv,READVersionA.csv,"Read Version A","Dissertation, read only version A",ROOT,PLANT,Study1,F,13,21,Test,User,-,,Recall,Recall1,22047,Tree,22.222222222222,20737,21222,0,0,,1
w10020569_kll,d4ypr1eibh,Nick_Dissertation_EX1,1,173,2020-04-26T17:21:58-07:00,23.009968042374,1,versionA_stim.csv,READVersionA.csv,"Read Version A","Dissertation, read only version A",DEBATE,SIGHT,Study1,U,73,37,Test,User,-,,Recall,Recall1,22401,Sight,100,19198,21491,1,1,,1
w10020569_kll,d4ypr1eibh,Nick_Dissertation_EX1,1,174,2020-04-26T17:22:08-07:00,9.6341059207916,1,versionA_stim.csv,READVersionA.csv,"Read Version A","Dissertation, read only version A",DIETARY,SACKING,Study1,U,67,32,Test,User,-,,Recall,Recall1,9144,Milk,18.181818181818,3071,3866,0,0,,1
w10020569_kll,d4ypr1eibh,Nick_Dissertation_EX1,1,175,2020-04-26T17:22:21-07:00,12.63249206543,1,versionA_stim.csv,READVersionA.csv,"Read Version A","Dissertation, read only version A",,,,,,0,Instruct,-,10,"You will now be presented with a new set of word pairs. Please study each pair. Remember that your memory will be tested! When finished, press Enter to move to the next pair.",Initial_Instruct,Instruct4,12081,,,-1,-1,,,,1
w10020569_kll,d4ypr1eibh,Nick_Dissertation_EX1,1,176,2020-04-26T17:22:46-07:00,25.660570859909,1,versionA_stim.csv,READVersionA.csv,"Read Version A","Dissertation, read only version A",SHRIMP,FISH,BUFFER3,Buffer,93,95,Study,User,-,,Study/JOL,BUFFER3,25121,,,-1,-1,,,,1
w10020569_kll,d4ypr1eibh,Nick_Dissertation_EX1,1,177,2020-04-26T17:22:58-07:00,11.705101013184,1,versionA_stim.csv,READVersionA.csv,"Read Version A","Dissertation, read only version A",NOODLE,STRING,BUFFER3,Buffer,92,94,Study,User,-,,Study/JOL,BUFFER3,11200,,,-1,-1,,,,1
w10020569_kll,d4ypr1eibh,Nick_Dissertation_EX1,1,178,2020-04-26T17:23:11-07:00,13.13258600235,1,versionA_stim.csv,READVersionA.csv,"Read Version A","Dissertation, read only version A",CAMP,ADVENTURE,BUFFER3,Buffer,95,92,Study,User,-,,Study/JOL,BUFFER3,12597,,,-1,-1,,,,1
w10020569_kll,d4ypr1eibh,Nick_Dissertation_EX1,1,179,2020-04-26T17:23:23-07:00,11.797043085098,1,versionA_stim.csv,READVersionA.csv,"Read Version A","Dissertation, read only version A",CARROT,POTATO,BUFFER3,Buffer,91,96,Study,User,-,,Study/JOL,BUFFER3,11184,,,-1,-1,,,,1
w10020569_kll,d4ypr1eibh,Nick_Dissertation_EX1,1,180,2020-04-26T17:23:29-07:00,5.9763989448547,1,versionA_stim.csv,READVersionA.csv,"Read Version A","Dissertation, read only version A",ICE,FROZEN,BUFFER3,Buffer,94,93,Study,User,-,,Study/JOL,BUFFER3,5358,,,-1,-1,,,,1
w10020569_kll,d4ypr1eibh,Nick_Dissertation_EX1,1,181,2020-04-26T17:23:39-07:00,9.7739360332489,1,versionA_stim.csv,READVersionA.csv,"Read Version A","Dissertation, read only version A",RIGHTS,EQUAL,Study2,S,137,157,Study,User,-,,Study/JOL,"Study Phase2",8698,,,-1,-1,,,,1
w10020569_kll,d4ypr1eibh,Nick_Dissertation_EX1,1,182,2020-04-26T17:23:45-07:00,6.2655739784241,1,versionA_stim.csv,READVersionA.csv,"Read Version A","Dissertation, read only version A",NAME,HATE,Study2,U,167,153,Study,User,-,,Study/JOL,"Study Phase2",5516,,,-1,-1,,,,1
w10020569_kll,d4ypr1eibh,Nick_Dissertation_EX1,1,183,2020-04-26T17:23:54-07:00,8.9967570304871,1,versionA_stim.csv,READVersionA.csv,"Read Version A","Dissertation, read only version A",TANTRUM,TEMPER,Study2,S,154,176,Study,User,-,,Study/JOL,"Study Phase2",8396,,,-1,-1,,,,1
w10020569_kll,d4ypr1eibh,Nick_Dissertation_EX1,1,184,2020-04-26T17:24:11-07:00,17.152019023895,1,versionA_stim.csv,READVersionA.csv,"Read Version A","Dissertation, read only version A",EXTENSION,LONG,Study2,F,96,142,Study,User,-,,Study/JOL,"Study Phase2",16404,,,-1,-1,,,,1
w10020569_kll,d4ypr1eibh,Nick_Dissertation_EX1,1,185,2020-04-26T17:24:23-07:00,11.762364864349,1,versionA_stim.csv,READVersionA.csv,"Read Version A","Dissertation, read only version A",HONEST,TRUTHFUL,Study2,B,133,129,Study,User,-,,Study/JOL,"Study Phase2",11212,,,-1,-1,,,,1
w10020569_kll,d4ypr1eibh,Nick_Dissertation_EX1,1,186,2020-04-26T17:24:40-07:00,17.415840148926,1,versionA_stim.csv,READVersionA.csv,"Read Version A","Dissertation, read only version A",FIGHT,BRAWL,Study2,B,135,171,Study,User,-,,Study/JOL,"Study Phase2",16927,,,-1,-1,,,,1
w10020569_kll,d4ypr1eibh,Nick_Dissertation_EX1,1,187,2020-04-26T17:24:44-07:00,3.8027520179749,1,versionA_stim.csv,READVersionA.csv,"Read Version A","Dissertation, read only version A",MAIN,SCAR,Study2,U,175,150,Study,User,-,,Study/JOL,"Study Phase2",3354,,,-1,-1,,,,1
w10020569_kll,d4ypr1eibh,Nick_Dissertation_EX1,1,188,2020-04-26T17:24:51-07:00,7.0978648662567,1,versionA_stim.csv,READVersionA.csv,"Read Version A","Dissertation, read only version A",LITTER,TRASH,Study2,F,103,163,Study,User,-,,Study/JOL,"Study Phase2",6428,,,-1,-1,,,,1
w10020569_kll,d4ypr1eibh,Nick_Dissertation_EX1,1,189,2020-04-26T17:24:55-07:00,3.5214779376984,1,versionA_stim.csv,READVersionA.csv,"Read Version A","Dissertation, read only version A",POP,BALLOON,Study2,B,123,145,Study,User,-,,Study/JOL,"Study Phase2",2726,,,-1,-1,,,,1
w10020569_kll,d4ypr1eibh,Nick_Dissertation_EX1,1,190,2020-04-26T17:25:01-07:00,6.1292371749878,1,versionA_stim.csv,READVersionA.csv,"Read Version A","Dissertation, read only version A",CHILL,COLD,Study2,F,114,119,Study,User,-,,Study/JOL,"Study Phase2",5279,,,-1,-1,,,,1
w10020569_kll,d4ypr1eibh,Nick_Dissertation_EX1,1,191,2020-04-26T17:25:08-07:00,7.7140939235687,1,versionA_stim.csv,READVersionA.csv,"Read Version A","Dissertation, read only version A",VEHICLE,CHARM,Study2,U,160,144,Study,User,-,,Study/JOL,"Study Phase2",7060,,,-1,-1,,,,1
w10020569_kll,d4ypr1eibh,Nick_Dissertation_EX1,1,192,2020-04-26T17:25:17-07:00,8.9090700149536,1,versionA_stim.csv,READVersionA.csv,"Read Version A","Dissertation, read only version A",FUZZY,BANG,Study2,U,168,172,Study,User,-,,Study/JOL,"Study Phase2",8305,,,-1,-1,,,,1
w10020569_kll,d4ypr1eibh,Nick_Dissertation_EX1,1,193,2020-04-26T17:25:33-07:00,16.15575003624,1,versionA_stim.csv,READVersionA.csv,"Read Version A","Dissertation, read only version A",THREAD,THIMBLE,Study2,B,121,132,Study,User,-,,Study/JOL,"Study Phase2",15418,,,-1,-1,,,,1
w10020569_kll,d4ypr1eibh,Nick_Dissertation_EX1,1,194,2020-04-26T17:25:44-07:00,10.940450906754,1,versionA_stim.csv,READVersionA.csv,"Read Version A","Dissertation, read only version A",DETECTIVE,MYSTERY,Study2,F,100,120,Study,User,-,,Study/JOL,"Study Phase2",10037,,,-1,-1,,,,1
w10020569_kll,d4ypr1eibh,Nick_Dissertation_EX1,1,195,2020-04-26T17:25:54-07:00,9.6779320240021,1,versionA_stim.csv,READVersionA.csv,"Read Version A","Dissertation, read only version A",MASON,JAR,Study2,S,138,146,Study,User,-,,Study/JOL,"Study Phase2",8432,,,-1,-1,,,,1
w10020569_kll,d4ypr1eibh,Nick_Dissertation_EX1,1,196,2020-04-26T17:25:59-07:00,4.9353370666504,1,versionA_stim.csv,READVersionA.csv,"Read Version A","Dissertation, read only version A",TRUTH,LIE,Study2,S,148,101,Study,User,-,,Study/JOL,"Study Phase2",4286,,,-1,-1,,,,1
w10020569_kll,d4ypr1eibh,Nick_Dissertation_EX1,1,197,2020-04-26T17:26:06-07:00,6.8216309547424,1,versionA_stim.csv,READVersionA.csv,"Read Version A","Dissertation, read only version A",CRACKLE,ABLE,Study2,U,162,140,Study,User,-,,Study/JOL,"Study Phase2",6066,,,-1,-1,,,,1
w10020569_kll,d4ypr1eibh,Nick_Dissertation_EX1,1,198,2020-04-26T17:26:13-07:00,6.9103400707245,1,versionA_stim.csv,READVersionA.csv,"Read Version A","Dissertation, read only version A",ROD,REEL,Study2,S,150,158,Study,User,-,,Study/JOL,"Study Phase2",6328,,,-1,-1,,,,1
w10020569_kll,d4ypr1eibh,Nick_Dissertation_EX1,1,199,2020-04-26T17:26:21-07:00,8.54243683815,1,versionA_stim.csv,READVersionA.csv,"Read Version A","Dissertation, read only version A",SHEARS,SCISSORS,Study2,F,112,102,Study,User,-,,Study/JOL,"Study Phase2",7883,,,-1,-1,,,,1
w10020569_kll,d4ypr1eibh,Nick_Dissertation_EX1,1,200,2020-04-26T17:26:28-07:00,6.2367210388184,1,versionA_stim.csv,READVersionA.csv,"Read Version A","Dissertation, read only version A",SCALP,HEAD,Study2,F,105,115,Study,User,-,,Study/JOL,"Study Phase2",5580,,,-1,-1,,,,1
w10020569_kll,d4ypr1eibh,Nick_Dissertation_EX1,1,201,2020-04-26T17:26:34-07:00,6.6795711517334,1,versionA_stim.csv,READVersionA.csv,"Read Version A","Dissertation, read only version A",LEASE,TOIL,Study2,U,170,111,Study,User,-,,Study/JOL,"Study Phase2",6042,,,-1,-1,,,,1
w10020569_kll,d4ypr1eibh,Nick_Dissertation_EX1,1,202,2020-04-26T17:26:40-07:00,5.3004419803619,1,versionA_stim.csv,READVersionA.csv,"Read Version A","Dissertation, read only version A",CHERRY,RED,Study2,F,104,166,Study,User,-,,Study/JOL,"Study Phase2",4483,,,-1,-1,,,,1
w10020569_kll,d4ypr1eibh,Nick_Dissertation_EX1,1,203,2020-04-26T17:26:46-07:00,6.2153508663177,1,versionA_stim.csv,READVersionA.csv,"Read Version A","Dissertation, read only version A",CHOP,CUT,Study2,F,107,110,Study,User,-,,Study/JOL,"Study Phase2",4969,,,-1,-1,,,,1
w10020569_kll,d4ypr1eibh,Nick_Dissertation_EX1,1,204,2020-04-26T17:26:53-07:00,6.9895551204681,1,versionA_stim.csv,READVersionA.csv,"Read Version A","Dissertation, read only version A",STAR,ACTRESS,Study2,B,120,103,Study,User,-,,Study/JOL,"Study Phase2",6342,,,-1,-1,,,,1
w10020569_kll,d4ypr1eibh,Nick_Dissertation_EX1,1,205,2020-04-26T17:27:00-07:00,7.0864908695221,1,versionA_stim.csv,READVersionA.csv,"Read Version A","Dissertation, read only version A",CAKE,CLOTHES,Study2,U,166,155,Study,User,-,,Study/JOL,"Study Phase2",6209,,,-1,-1,,,,1
w10020569_kll,d4ypr1eibh,Nick_Dissertation_EX1,1,206,2020-04-26T17:27:07-07:00,6.6763360500336,1,versionA_stim.csv,READVersionA.csv,"Read Version A","Dissertation, read only version A",MULE,DONKEY,Study2,F,108,141,Study,User,-,,Study/JOL,"Study Phase2",5744,,,-1,-1,,,,1
w10020569_kll,d4ypr1eibh,Nick_Dissertation_EX1,1,207,2020-04-26T17:27:13-07:00,6.8912439346313,1,versionA_stim.csv,READVersionA.csv,"Read Version A","Dissertation, read only version A",RAZOR,SHAVE,Study2,S,136,127,Study,User,-,,Study/JOL,"Study Phase2",6153,,,-1,-1,,,,1
w10020569_kll,d4ypr1eibh,Nick_Dissertation_EX1,1,208,2020-04-26T17:27:19-07:00,5.9756419658661,1,versionA_stim.csv,READVersionA.csv,"Read Version A","Dissertation, read only version A",FLEA,TICK,Study2,S,151,105,Study,User,-,,Study/JOL,"Study Phase2",5242,,,-1,-1,,,,1
w10020569_kll,d4ypr1eibh,Nick_Dissertation_EX1,1,209,2020-04-26T17:27:29-07:00,9.1934020519257,1,versionA_stim.csv,READVersionA.csv,"Read Version A","Dissertation, read only version A",MONEY,BANKER,Study2,B,132,137,Study,User,-,,Study/JOL,"Study Phase2",7737,,,-1,-1,,,,1
w10020569_kll,d4ypr1eibh,Nick_Dissertation_EX1,1,210,2020-04-26T17:27:35-07:00,5.9527080059052,1,versionA_stim.csv,READVersionA.csv,"Read Version A","Dissertation, read only version A",BOTH,OUNCE,Study2,U,172,160,Study,User,-,,Study/JOL,"Study Phase2",5187,,,-1,-1,,,,1
w10020569_kll,d4ypr1eibh,Nick_Dissertation_EX1,1,211,2020-04-26T17:27:40-07:00,5.4300220012665,1,versionA_stim.csv,READVersionA.csv,"Read Version A","Dissertation, read only version A",STRETCH,CLOTH,Study2,U,157,124,Study,User,-,,Study/JOL,"Study Phase2",4443,,,-1,-1,,,,1
w10020569_kll,d4ypr1eibh,Nick_Dissertation_EX1,1,212,2020-04-26T17:27:46-07:00,5.5529451370239,1,versionA_stim.csv,READVersionA.csv,"Read Version A","Dissertation, read only version A",SHOELACE,TIE,Study2,F,99,109,Study,User,-,,Study/JOL,"Study Phase2",5026,,,-1,-1,,,,1
w10020569_kll,d4ypr1eibh,Nick_Dissertation_EX1,1,213,2020-04-26T17:27:55-07:00,9.1235988140106,1,versionA_stim.csv,READVersionA.csv,"Read Version A","Dissertation, read only version A",PLANE,AIRCRAFT,Study2,B,129,123,Study,User,-,,Study/JOL,"Study Phase2",8446,,,-1,-1,,,,1
w10020569_kll,d4ypr1eibh,Nick_Dissertation_EX1,1,214,2020-04-26T17:28:03-07:00,8.5752069950104,1,versionA_stim.csv,READVersionA.csv,"Read Version A","Dissertation, read only version A",LOUD,NOISE,Study2,S,152,152,Study,User,-,,Study/JOL,"Study Phase2",7816,,,-1,-1,,,,1
w10020569_kll,d4ypr1eibh,Nick_Dissertation_EX1,1,215,2020-04-26T17:28:11-07:00,7.6639840602875,1,versionA_stim.csv,READVersionA.csv,"Read Version A","Dissertation, read only version A",LISTEN,FICTION,Study2,U,164,159,Study,User,-,,Study/JOL,"Study Phase2",6769,,,-1,-1,,,,1
w10020569_kll,d4ypr1eibh,Nick_Dissertation_EX1,1,216,2020-04-26T17:28:20-07:00,8.7776999473572,1,versionA_stim.csv,READVersionA.csv,"Read Version A","Dissertation, read only version A",FISH,SARDINE,Study2,B,130,106,Study,User,-,,Study/JOL,"Study Phase2",7928,,,-1,-1,,,,1
w10020569_kll,d4ypr1eibh,Nick_Dissertation_EX1,1,217,2020-04-26T17:28:30-07:00,9.8608260154724,1,versionA_stim.csv,READVersionA.csv,"Read Version A","Dissertation, read only version A",GONE,AWAY,Study2,S,142,130,Study,User,-,,Study/JOL,"Study Phase2",9243,,,-1,-1,,,,1
w10020569_kll,d4ypr1eibh,Nick_Dissertation_EX1,1,218,2020-04-26T17:28:36-07:00,6.0408689975739,1,versionA_stim.csv,READVersionA.csv,"Read Version A","Dissertation, read only version A",SUN,TAN,Study2,S,155,116,Study,User,-,,Study/JOL,"Study Phase2",4680,,,-1,-1,,,,1
w10020569_kll,d4ypr1eibh,Nick_Dissertation_EX1,1,219,2020-04-26T17:28:39-07:00,3.6838490962982,1,versionA_stim.csv,READVersionA.csv,"Read Version A","Dissertation, read only version A",BEST,FAVORITE,Study2,B,125,125,Study,User,-,,Study/JOL,"Study Phase2",3172,,,-1,-1,,,,1
w10020569_kll,d4ypr1eibh,Nick_Dissertation_EX1,1,220,2020-04-26T17:28:51-07:00,12.054311037064,1,versionA_stim.csv,READVersionA.csv,"Read Version A","Dissertation, read only version A",JUSTICE,MAROON,Study2,U,156,98,Study,User,-,,Study/JOL,"Study Phase2",11447,,,-1,-1,,,,1
w10020569_kll,d4ypr1eibh,Nick_Dissertation_EX1,1,221,2020-04-26T17:28:58-07:00,6.4299230575562,1,versionA_stim.csv,READVersionA.csv,"Read Version A","Dissertation, read only version A",DINE,EAT,Study2,F,111,161,Study,User,-,,Study/JOL,"Study Phase2",5821,,,-1,-1,,,,1
w10020569_kll,d4ypr1eibh,Nick_Dissertation_EX1,1,222,2020-04-26T17:29:04-07:00,6.3151519298553,1,versionA_stim.csv,READVersionA.csv,"Read Version A","Dissertation, read only version A",OWN,HAVE,Study2,S,153,138,Study,User,-,,Study/JOL,"Study Phase2",5666,,,-1,-1,,,,1
w10020569_kll,d4ypr1eibh,Nick_Dissertation_EX1,1,223,2020-04-26T17:29:10-07:00,6.4513368606567,1,versionA_stim.csv,READVersionA.csv,"Read Version A","Dissertation, read only version A",DRIVER,CAR,Study2,F,106,139,Study,User,-,,Study/JOL,"Study Phase2",5906,,,-1,-1,,,,1
w10020569_kll,d4ypr1eibh,Nick_Dissertation_EX1,1,224,2020-04-26T17:29:18-07:00,7.0961141586304,1,versionA_stim.csv,READVersionA.csv,"Read Version A","Dissertation, read only version A",ALONE,LONELY,Study2,S,145,114,Study,User,-,,Study/JOL,"Study Phase2",6527,,,-1,-1,,,,1
w10020569_kll,d4ypr1eibh,Nick_Dissertation_EX1,1,225,2020-04-26T17:29:32-07:00,14.663979053497,1,versionA_stim.csv,READVersionA.csv,"Read Version A","Dissertation, read only version A",EARTH,GROUND,Study2,S,144,108,Study,User,-,,Study/JOL,"Study Phase2",13947,,,-1,-1,,,,1
w10020569_kll,d4ypr1eibh,Nick_Dissertation_EX1,1,226,2020-04-26T17:29:39-07:00,7.2077648639679,1,versionA_stim.csv,READVersionA.csv,"Read Version A","Dissertation, read only version A",CAT,PANTHER,Study2,B,126,143,Study,User,-,,Study/JOL,"Study Phase2",6613,,,-1,-1,,,,1
w10020569_kll,d4ypr1eibh,Nick_Dissertation_EX1,1,227,2020-04-26T17:29:44-07:00,4.9316401481628,1,versionA_stim.csv,READVersionA.csv,"Read Version A","Dissertation, read only version A",TURN,FLIP,Study2,B,116,97,Study,User,-,,Study/JOL,"Study Phase2",4398,,,-1,-1,,,,1
w10020569_kll,d4ypr1eibh,Nick_Dissertation_EX1,1,228,2020-04-26T17:29:52-07:00,7.3462779521942,1,versionA_stim.csv,READVersionA.csv,"Read Version A","Dissertation, read only version A",CACTUS,PLANT,Study2,F,98,112,Study,User,-,,Study/JOL,"Study Phase2",6555,,,-1,-1,,,,1
w10020569_kll,d4ypr1eibh,Nick_Dissertation_EX1,1,229,2020-04-26T17:30:01-07:00,9.3329880237579,1,versionA_stim.csv,READVersionA.csv,"Read Version A","Dissertation, read only version A",PHONE,COMMUNICATION,Study2,S,149,162,Study,User,-,,Study/JOL,"Study Phase2",8779,,,-1,-1,,,,1
w10020569_kll,d4ypr1eibh,Nick_Dissertation_EX1,1,230,2020-04-26T17:30:07-07:00,6.1177089214325,1,versionA_stim.csv,READVersionA.csv,"Read Version A","Dissertation, read only version A",FEUD,FIGHT,Study2,F,113,170,Study,User,-,,Study/JOL,"Study Phase2",5487,,,-1,-1,,,,1
w10020569_kll,d4ypr1eibh,Nick_Dissertation_EX1,1,231,2020-04-26T17:30:14-07:00,6.4289019107819,1,versionA_stim.csv,READVersionA.csv,"Read Version A","Dissertation, read only version A",DEAD,COFFIN,Study2,B,128,113,Study,User,-,,Study/JOL,"Study Phase2",5775,,,-1,-1,,,,1
w10020569_kll,d4ypr1eibh,Nick_Dissertation_EX1,1,232,2020-04-26T17:30:22-07:00,7.9979431629181,1,versionA_stim.csv,READVersionA.csv,"Read Version A","Dissertation, read only version A",Shell,SHAKE,Study2,U,163,117,Study,User,-,,Study/JOL,"Study Phase2",7435,,,-1,-1,,,,1
w10020569_kll,d4ypr1eibh,Nick_Dissertation_EX1,1,233,2020-04-26T17:30:28-07:00,6.4041337966919,1,versionA_stim.csv,READVersionA.csv,"Read Version A","Dissertation, read only version A",AFFECTION,LOVE,Study2,F,115,147,Study,User,-,,Study/JOL,"Study Phase2",5805,,,-1,-1,,,,1
w10020569_kll,d4ypr1eibh,Nick_Dissertation_EX1,1,234,2020-04-26T17:30:31-07:00,2.7586390972137,1,versionA_stim.csv,READVersionA.csv,"Read Version A","Dissertation, read only version A",FURRY,DOG,Study2,F,102,104,Study,User,-,,Study/JOL,"Study Phase2",2311,,,-1,-1,,,,1
w10020569_kll,d4ypr1eibh,Nick_Dissertation_EX1,1,235,2020-04-26T17:30:35-07:00,4.1966109275818,1,versionA_stim.csv,READVersionA.csv,"Read Version A","Dissertation, read only version A",MEAT,OBTAIN,Study2,U,161,154,Study,User,-,,Study/JOL,"Study Phase2",3767,,,-1,-1,,,,1
w10020569_kll,d4ypr1eibh,Nick_Dissertation_EX1,1,236,2020-04-26T17:30:44-07:00,9.3918900489807,1,versionA_stim.csv,READVersionA.csv,"Read Version A","Dissertation, read only version A",BAD,VILLAIN,Study2,B,118,165,Study,User,-,,Study/JOL,"Study Phase2",8828,,,-1,-1,,,,1
w10020569_kll,d4ypr1eibh,Nick_Dissertation_EX1,1,237,2020-04-26T17:30:51-07:00,6.3016309738159,1,versionA_stim.csv,READVersionA.csv,"Read Version A","Dissertation, read only version A",LOAN,SIGN,Study2,U,171,118,Study,User,-,,Study/JOL,"Study Phase2",5815,,,-1,-1,,,,1
w10020569_kll,d4ypr1eibh,Nick_Dissertation_EX1,1,238,2020-04-26T17:30:57-07:00,5.9583280086517,1,versionA_stim.csv,READVersionA.csv,"Read Version A","Dissertation, read only version A",GIVE,STEAK,Study2,U,158,174,Study,User,-,,Study/JOL,"Study Phase2",5254,,,-1,-1,,,,1
w10020569_kll,d4ypr1eibh,Nick_Dissertation_EX1,1,239,2020-04-26T17:31:06-07:00,9.8397791385651,1,versionA_stim.csv,READVersionA.csv,"Read Version A","Dissertation, read only version A",DOCUMENT,PAPER,Study2,F,109,121,Study,User,-,,Study/JOL,"Study Phase2",9126,,,-1,-1,,,,1
w10020569_kll,d4ypr1eibh,Nick_Dissertation_EX1,1,240,2020-04-26T17:31:15-07:00,8.1833069324493,1,versionA_stim.csv,READVersionA.csv,"Read Version A","Dissertation, read only version A",SAFETY,SEATBELT,Study2,S,147,168,Study,User,-,,Study/JOL,"Study Phase2",7617,,,-1,-1,,,,1
w10020569_kll,d4ypr1eibh,Nick_Dissertation_EX1,1,241,2020-04-26T17:31:20-07:00,5.634299993515,1,versionA_stim.csv,READVersionA.csv,"Read Version A","Dissertation, read only version A",KEYS,JOKE,Study2,U,165,134,Study,User,-,,Study/JOL,"Study Phase2",5015,,,-1,-1,,,,1
w10020569_kll,d4ypr1eibh,Nick_Dissertation_EX1,1,242,2020-04-26T17:31:25-07:00,4.743458032608,1,versionA_stim.csv,READVersionA.csv,"Read Version A","Dissertation, read only version A",CAR,WINDSHIELD,Study2,B,117,100,Study,User,-,,Study/JOL,"Study Phase2",4088,,,-1,-1,,,,1
w10020569_kll,d4ypr1eibh,Nick_Dissertation_EX1,1,243,2020-04-26T17:31:37-07:00,11.588707923889,1,versionA_stim.csv,READVersionA.csv,"Read Version A","Dissertation, read only version A",WRIST,BRACELET,Study2,S,140,128,Study,User,-,,Study/JOL,"Study Phase2",10947,,,-1,-1,,,,1
w10020569_kll,d4ypr1eibh,Nick_Dissertation_EX1,1,244,2020-04-26T17:31:46-07:00,9.7743570804596,1,versionA_stim.csv,READVersionA.csv,"Read Version A","Dissertation, read only version A",CLUE,GAME,Study2,F,97,131,Study,User,-,,Study/JOL,"Study Phase2",9193,,,-1,-1,,,,1
w10020569_kll,d4ypr1eibh,Nick_Dissertation_EX1,1,245,2020-04-26T17:31:55-07:00,8.2668540477753,1,versionA_stim.csv,READVersionA.csv,"Read Version A","Dissertation, read only version A",ELEMENT,CARBON,Study2,S,141,164,Study,User,-,,Study/JOL,"Study Phase2",7606,,,-1,-1,,,,1
w10020569_kll,d4ypr1eibh,Nick_Dissertation_EX1,1,246,2020-04-26T17:32:03-07:00,8.574385881424,1,versionA_stim.csv,READVersionA.csv,"Read Version A","Dissertation, read only version A",EVEN,REVENGE,Study2,B,122,122,Study,User,-,,Study/JOL,"Study Phase2",7995,,,-1,-1,,,,1
w10020569_kll,d4ypr1eibh,Nick_Dissertation_EX1,1,247,2020-04-26T17:32:06-07:00,2.5233509540558,1,versionA_stim.csv,READVersionA.csv,"Read Version A","Dissertation, read only version A",BIRD,PENGUIN,Study2,B,119,133,Study,User,-,,Study/JOL,"Study Phase2",1632,,,-1,-1,,,,1
w10020569_kll,d4ypr1eibh,Nick_Dissertation_EX1,1,248,2020-04-26T17:32:15-07:00,9.1359629631042,1,versionA_stim.csv,READVersionA.csv,"Read Version A","Dissertation, read only version A",MAZE,ELECTION,Study2,U,159,156,Study,User,-,,Study/JOL,"Study Phase2",8447,,,-1,-1,,,,1
w10020569_kll,d4ypr1eibh,Nick_Dissertation_EX1,1,249,2020-04-26T17:32:18-07:00,3.1876320838928,1,versionA_stim.csv,READVersionA.csv,"Read Version A","Dissertation, read only version A",BASEBALL,LEAGUE,Study2,B,131,173,Study,User,-,,Study/JOL,"Study Phase2",2650,,,-1,-1,,,,1
w10020569_kll,d4ypr1eibh,Nick_Dissertation_EX1,1,250,2020-04-26T17:32:29-07:00,10.82014298439,1,versionA_stim.csv,READVersionA.csv,"Read Version A","Dissertation, read only version A",CANDLE,WAX,Study2,S,139,148,Study,User,-,,Study/JOL,"Study Phase2",10240,,,-1,-1,,,,1
w10020569_kll,d4ypr1eibh,Nick_Dissertation_EX1,1,251,2020-04-26T17:32:38-07:00,8.9452350139618,1,versionA_stim.csv,READVersionA.csv,"Read Version A","Dissertation, read only version A",GLASS,BREAKABLE,Study2,B,127,99,Study,User,-,,Study/JOL,"Study Phase2",8305,,,-1,-1,,,,1
w10020569_kll,d4ypr1eibh,Nick_Dissertation_EX1,1,252,2020-04-26T17:32:43-07:00,5.1508939266205,1,versionA_stim.csv,READVersionA.csv,"Read Version A","Dissertation, read only version A",SLEEP,NAP,Study2,B,134,136,Study,User,-,,Study/JOL,"Study Phase2",4492,,,-1,-1,,,,1
w10020569_kll,d4ypr1eibh,Nick_Dissertation_EX1,1,253,2020-04-26T17:32:54-07:00,10.814392089844,1,versionA_stim.csv,READVersionA.csv,"Read Version A","Dissertation, read only version A",MIRROR,CHILDREN,Study2,U,174,151,Study,User,-,,Study/JOL,"Study Phase2",10176,,,-1,-1,,,,1
w10020569_kll,d4ypr1eibh,Nick_Dissertation_EX1,1,254,2020-04-26T17:33:04-07:00,10.045747995377,1,versionA_stim.csv,READVersionA.csv,"Read Version A","Dissertation, read only version A",INCENSE,SMELL,Study2,F,110,169,Study,User,-,,Study/JOL,"Study Phase2",9254,,,-1,-1,,,,1
w10020569_kll,d4ypr1eibh,Nick_Dissertation_EX1,1,255,2020-04-26T17:33:12-07:00,8.3334319591522,1,versionA_stim.csv,READVersionA.csv,"Read Version A","Dissertation, read only version A",FRUIT,STRAWBERRY,Study2,B,124,126,Study,User,-,,Study/JOL,"Study Phase2",7701,,,-1,-1,,,,1
w10020569_kll,d4ypr1eibh,Nick_Dissertation_EX1,1,256,2020-04-26T17:33:18-07:00,5.497670173645,1,versionA_stim.csv,READVersionA.csv,"Read Version A","Dissertation, read only version A",DRY,WET,Study2,S,146,167,Study,User,-,,Study/JOL,"Study Phase2",4866,,,-1,-1,,,,1
w10020569_kll,d4ypr1eibh,Nick_Dissertation_EX1,1,257,2020-04-26T17:33:24-07:00,6.0041868686676,1,versionA_stim.csv,READVersionA.csv,"Read Version A","Dissertation, read only version A",TEMPERATURE,Morning,Study2,U,173,135,Study,User,-,,Study/JOL,"Study Phase2",5343,,,-1,-1,,,,1
w10020569_kll,d4ypr1eibh,Nick_Dissertation_EX1,1,258,2020-04-26T17:33:34-07:00,10.06383395195,1,versionA_stim.csv,READVersionA.csv,"Read Version A","Dissertation, read only version A",ADJOURN,END,Study2,F,101,149,Study,User,-,,Study/JOL,"Study Phase2",9504,,,-1,-1,,,,1
w10020569_kll,d4ypr1eibh,Nick_Dissertation_EX1,1,259,2020-04-26T17:33:39-07:00,5.5243279933929,1,versionA_stim.csv,READVersionA.csv,"Read Version A","Dissertation, read only version A",MOAT,CLEAR,Study2,U,169,175,Study,User,-,,Study/JOL,"Study Phase2",4953,,,-1,-1,,,,1
w10020569_kll,d4ypr1eibh,Nick_Dissertation_EX1,1,260,2020-04-26T17:33:48-07:00,9.1890850067139,1,versionA_stim.csv,READVersionA.csv,"Read Version A","Dissertation, read only version A",WATER,DRINK,Study2,S,143,107,Study,User,-,,Study/JOL,"Study Phase2",8606,,,-1,-1,,,,1
w10020569_kll,d4ypr1eibh,Nick_Dissertation_EX1,1,261,2020-04-26T17:33:53-07:00,5.0304839611053,1,versionA_stim.csv,READVersionA.csv,"Read Version A","Dissertation, read only version A",SPRING,MARCH,BUFFER4,Buffer,179,177,Study,User,-,,Study/JOL,BUFFER4,4608,,,-1,-1,,,,1
w10020569_kll,d4ypr1eibh,Nick_Dissertation_EX1,1,262,2020-04-26T17:34:01-07:00,7.8050630092621,1,versionA_stim.csv,READVersionA.csv,"Read Version A","Dissertation, read only version A",MONTH,YEAR,BUFFER4,Buffer,177,178,Study,User,-,,Study/JOL,BUFFER4,7199,,,-1,-1,,,,1
w10020569_kll,d4ypr1eibh,Nick_Dissertation_EX1,1,263,2020-04-26T17:34:07-07:00,5.6584420204163,1,versionA_stim.csv,READVersionA.csv,"Read Version A","Dissertation, read only version A",OCTOBER,SPOOKY,BUFFER4,Buffer,180,181,Study,User,-,,Study/JOL,BUFFER4,5064,,,-1,-1,,,,1
w10020569_kll,d4ypr1eibh,Nick_Dissertation_EX1,1,264,2020-04-26T17:34:16-07:00,8.5703411102295,1,versionA_stim.csv,READVersionA.csv,"Read Version A","Dissertation, read only version A",DAYS,WEAKS,BUFFER4,Buffer,176,180,Study,User,-,,Study/JOL,BUFFER4,7941,,,-1,-1,,,,1
w10020569_kll,d4ypr1eibh,Nick_Dissertation_EX1,1,265,2020-04-26T17:34:22-07:00,6.1116709709167,1,versionA_stim.csv,READVersionA.csv,"Read Version A","Dissertation, read only version A",TOOL,SHED,BUFFER4,Buffer,178,179,Study,User,-,,Study/JOL,BUFFER4,4605,,,-1,-1,,,,1
w10020569_kll,d4ypr1eibh,Nick_Dissertation_EX1,1,266,2020-04-26T17:34:25-07:00,3.4222159385681,1,versionA_stim.csv,READVersionA.csv,"Read Version A","Dissertation, read only version A",,,,,,0,Instruct,User,-,"You have completed this section. Please press Enter.",Filler_Instruction,Instruct5,2956,,,-1,-1,,,,1
w10020569_kll,d4ypr1eibh,Nick_Dissertation_EX1,1,267,2020-04-26T17:36:26-07:00,120.79084706306,1,versionA_stim.csv,READVersionA.csv,"Read Version A","Dissertation, read only version A",,,,,,0,FreeRecall,120,120,"Please list the 50 US states in reverse alphabetical order (z - a). The task will automatically advance to the next screen after two minutes.",,Filler2,120004,"Wyoming West Virginia Winsconsin Vermont Virginia Utah Texas Tennessee South Carolina Rhode Island Pennsylvania Oregon Oklahoma O",0,25072,119885,0,0,,1
w10020569_kll,d4ypr1eibh,Nick_Dissertation_EX1,1,268,2020-04-26T17:36:39-07:00,12.667754888535,1,versionA_stim.csv,READVersionA.csv,"Read Version A","Dissertation, read only version A",,,,,,0,Instruct,-,10,"You will now be presented with the first word from each of the previously studied item pairs. Please type the missing word. If you do not know the word, you may guess or press Enter to skip forward to the next pair.",,Instruct6,11739,,,-1,-1,,,,1
w10020569_kll,d4ypr1eibh,Nick_Dissertation_EX1,1,269,2020-04-26T17:37:23-07:00,44.836750984192,1,versionA_stim.csv,READVersionA.csv,"Read Version A","Dissertation, read only version A",ROD,REEL,Study2,S,150,158,Test,User,-,,Recall,Recall2,44207,"Reel ",100,31632,36054,1,1,,1
w10020569_kll,d4ypr1eibh,Nick_Dissertation_EX1,1,270,2020-04-26T17:37:28-07:00,4.5642960071564,1,versionA_stim.csv,READVersionA.csv,"Read Version A","Dissertation, read only version A",MASON,JAR,Study2,S,138,146,Test,User,-,,Recall,Recall2,3914,Jar,100,2712,2980,1,1,,1
w10020569_kll,d4ypr1eibh,Nick_Dissertation_EX1,1,271,2020-04-26T17:37:41-07:00,13.423877000809,1,versionA_stim.csv,READVersionA.csv,"Read Version A","Dissertation, read only version A",ADJOURN,END,Study2,F,101,149,Test,User,-,,Recall,Recall2,12852,End,100,9806,11706,1,1,,1
w10020569_kll,d4ypr1eibh,Nick_Dissertation_EX1,1,272,2020-04-26T17:37:49-07:00,7.1868960857391,1,versionA_stim.csv,READVersionA.csv,"Read Version A","Dissertation, read only version A",DRY,WET,Study2,S,146,167,Test,User,-,,Recall,Recall2,6741,Cold,0,4679,5338,0,0,,1
w10020569_kll,d4ypr1eibh,Nick_Dissertation_EX1,1,273,2020-04-26T17:37:55-07:00,6.3618400096893,1,versionA_stim.csv,READVersionA.csv,"Read Version A","Dissertation, read only version A",NAME,HATE,Study2,U,167,153,Test,User,-,,Recall,Recall2,5920,Hate,100,4578,5038,1,1,,1
w10020569_kll,d4ypr1eibh,Nick_Dissertation_EX1,1,274,2020-04-26T17:38:01-07:00,6.3150339126587,1,versionA_stim.csv,READVersionA.csv,"Read Version A","Dissertation, read only version A",CANDLE,WAX,Study2,S,139,148,Test,User,-,,Recall,Recall2,5750,"Wax ",100,2123,2503,1,1,,1
w10020569_kll,d4ypr1eibh,Nick_Dissertation_EX1,1,275,2020-04-26T17:38:06-07:00,5.2867960929871,1,versionA_stim.csv,READVersionA.csv,"Read Version A","Dissertation, read only version A",JUSTICE,MAROON,Study2,U,156,98,Test,User,-,,Recall,Recall2,4642,,0,-1,-1,0,0,,1
w10020569_kll,d4ypr1eibh,Nick_Dissertation_EX1,1,276,2020-04-26T17:38:21-07:00,14.814677000046,1,versionA_stim.csv,READVersionA.csv,"Read Version A","Dissertation, read only version A",PHONE,COMMUNICATION,Study2,S,149,162,Test,User,-,,Recall,Recall2,14186,"Communication ",100,9807,11696,1,1,,1
w10020569_kll,d4ypr1eibh,Nick_Dissertation_EX1,1,277,2020-04-26T17:38:30-07:00,8.8253149986267,1,versionA_stim.csv,READVersionA.csv,"Read Version A","Dissertation, read only version A",SLEEP,NAP,Study2,B,134,136,Test,User,-,,Recall,Recall2,8211,Nap,100,6374,7195,1,1,,1
w10020569_kll,d4ypr1eibh,Nick_Dissertation_EX1,1,278,2020-04-26T17:38:48-07:00,18.324312925339,1,versionA_stim.csv,READVersionA.csv,"Read Version A","Dissertation, read only version A",WATER,DRINK,Study2,S,143,107,Test,User,-,,Recall,Recall2,17694,,0,-1,-1,0,0,,1
w10020569_kll,d4ypr1eibh,Nick_Dissertation_EX1,1,279,2020-04-26T17:38:58-07:00,9.4511079788208,1,versionA_stim.csv,READVersionA.csv,"Read Version A","Dissertation, read only version A",FUZZY,BANG,Study2,U,168,172,Test,User,-,,Recall,Recall2,8795,Bang,100,7017,7635,1,1,,1
w10020569_kll,d4ypr1eibh,Nick_Dissertation_EX1,1,280,2020-04-26T17:39:01-07:00,2.9897911548615,1,versionA_stim.csv,READVersionA.csv,"Read Version A","Dissertation, read only version A",INCENSE,SMELL,Study2,F,110,169,Test,User,-,,Recall,Recall2,2488,,0,-1,-1,0,0,,1
w10020569_kll,d4ypr1eibh,Nick_Dissertation_EX1,1,281,2020-04-26T17:39:27-07:00,26.575896978378,1,versionA_stim.csv,READVersionA.csv,"Read Version A","Dissertation, read only version A",MAIN,SCAR,Study2,U,175,150,Test,User,-,,Recall,Recall2,25986,Scar,100,23772,24968,1,1,,1
w10020569_kll,d4ypr1eibh,Nick_Dissertation_EX1,1,282,2020-04-26T17:39:41-07:00,13.661627054214,1,versionA_stim.csv,READVersionA.csv,"Read Version A","Dissertation, read only version A",MAZE,ELECTION,Study2,U,159,156,Test,User,-,,Recall,Recall2,12934,,0,-1,-1,0,0,,1
w10020569_kll,d4ypr1eibh,Nick_Dissertation_EX1,1,283,2020-04-26T17:40:00-07:00,18.891032934189,1,versionA_stim.csv,READVersionA.csv,"Read Version A","Dissertation, read only version A",CRACKLE,ABLE,Study2,U,162,140,Test,User,-,,Recall,Recall2,18176,Able,100,15628,16987,1,1,,1
w10020569_kll,d4ypr1eibh,Nick_Dissertation_EX1,1,284,2020-04-26T17:40:13-07:00,12.612765073776,1,versionA_stim.csv,READVersionA.csv,"Read Version A","Dissertation, read only version A",KEYS,JOKE,Study2,U,165,134,Test,User,-,,Recall,Recall2,11662,Joke,100,9782,10618,1,1,,1
w10020569_kll,d4ypr1eibh,Nick_Dissertation_EX1,1,285,2020-04-26T17:40:22-07:00,9.6223440170288,1,versionA_stim.csv,READVersionA.csv,"Read Version A","Dissertation, read only version A",LOAN,SIGN,Study2,U,171,118,Test,User,-,,Recall,Recall2,8868,"Sign ",100,5504,6615,1,1,,1
w10020569_kll,d4ypr1eibh,Nick_Dissertation_EX1,1,286,2020-04-26T17:40:34-07:00,11.275465965271,1,versionA_stim.csv,READVersionA.csv,"Read Version A","Dissertation, read only version A",CHILL,COLD,Study2,F,114,119,Test,User,-,,Recall,Recall2,10562,Cold,100,8650,9530,1,1,,1
w10020569_kll,d4ypr1eibh,Nick_Dissertation_EX1,1,287,2020-04-26T17:40:40-07:00,6.3657398223877,1,versionA_stim.csv,READVersionA.csv,"Read Version A","Dissertation, read only version A",DOCUMENT,PAPER,Study2,F,109,121,Test,User,-,,Recall,Recall2,5756,Paper,100,3222,4587,1,1,,1
w10020569_kll,d4ypr1eibh,Nick_Dissertation_EX1,1,288,2020-04-26T17:40:44-07:00,4.0037140846252,1,versionA_stim.csv,READVersionA.csv,"Read Version A","Dissertation, read only version A",DINE,EAT,Study2,F,111,161,Test,User,-,,Recall,Recall2,3486,Eat,100,1800,2269,1,1,,1
w10020569_kll,d4ypr1eibh,Nick_Dissertation_EX1,1,289,2020-04-26T17:41:01-07:00,16.811902046204,1,versionA_stim.csv,READVersionA.csv,"Read Version A","Dissertation, read only version A",GLASS,BREAKABLE,Study2,B,127,99,Test,User,-,,Recall,Recall2,16222,Mirror,13.333333333333,13800,15384,0,0,,1
w10020569_kll,d4ypr1eibh,Nick_Dissertation_EX1,1,290,2020-04-26T17:41:07-07:00,6.2470009326935,1,versionA_stim.csv,READVersionA.csv,"Read Version A","Dissertation, read only version A",FRUIT,STRAWBERRY,Study2,B,124,126,Test,User,-,,Recall,Recall2,5625,"Strawberry ",100,2230,3518,1,1,,1
w10020569_kll,d4ypr1eibh,Nick_Dissertation_EX1,1,291,2020-04-26T17:41:22-07:00,15.281794071198,1,versionA_stim.csv,READVersionA.csv,"Read Version A","Dissertation, read only version A",ELEMENT,CARBON,Study2,S,141,164,Test,User,-,,Recall,Recall2,14598,Carbon,100,12218,13685,1,1,,1
w10020569_kll,d4ypr1eibh,Nick_Dissertation_EX1,1,292,2020-04-26T17:41:45-07:00,22.545837879181,1,versionA_stim.csv,READVersionA.csv,"Read Version A","Dissertation, read only version A",CLUE,GAME,Study2,F,97,131,Test,User,-,,Recall,Recall2,21568,Game,100,19222,20484,1,1,,1
w10020569_kll,d4ypr1eibh,Nick_Dissertation_EX1,1,293,2020-04-26T17:41:55-07:00,10.537394046783,1,versionA_stim.csv,READVersionA.csv,"Read Version A","Dissertation, read only version A",SAFETY,SEATBELT,Study2,S,147,168,Test,User,-,,Recall,Recall2,9159,"Seatbelt ",100,5705,7504,1,1,,1
w10020569_kll,d4ypr1eibh,Nick_Dissertation_EX1,1,294,2020-04-26T17:42:00-07:00,4.9245190620422,1,versionA_stim.csv,READVersionA.csv,"Read Version A","Dissertation, read only version A",LISTEN,FICTION,Study2,U,164,159,Test,User,-,,Recall,Recall2,4191,Sound,33.333333333333,2132,3181,0,0,,1
w10020569_kll,d4ypr1eibh,Nick_Dissertation_EX1,1,295,2020-04-26T17:42:10-07:00,10.168489933014,1,versionA_stim.csv,READVersionA.csv,"Read Version A","Dissertation, read only version A",STRETCH,CLOTH,Study2,U,157,124,Test,User,-,,Recall,Recall2,9538,,0,-1,-1,0,0,,1
w10020569_kll,d4ypr1eibh,Nick_Dissertation_EX1,1,296,2020-04-26T17:42:25-07:00,14.179445028305,1,versionA_stim.csv,READVersionA.csv,"Read Version A","Dissertation, read only version A",VEHICLE,CHARM,Study2,U,160,144,Test,User,-,,Recall,Recall2,13552,Charm,100,11128,12283,1,1,,1
w10020569_kll,d4ypr1eibh,Nick_Dissertation_EX1,1,297,2020-04-26T17:42:59-07:00,34.1200299263,1,versionA_stim.csv,READVersionA.csv,"Read Version A","Dissertation, read only version A",FIGHT,BRAWL,Study2,B,135,171,Test,User,-,,Recall,Recall2,33327,Brawl,100,30859,32316,1,1,,1
w10020569_kll,d4ypr1eibh,Nick_Dissertation_EX1,1,298,2020-04-26T17:43:10-07:00,11.06391119957,1,versionA_stim.csv,READVersionA.csv,"Read Version A","Dissertation, read only version A",RIGHTS,EQUAL,Study2,S,137,157,Test,User,-,,Recall,Recall2,10258,"Equally ",83.333333333333,6687,7169,0,1,,1
w10020569_kll,d4ypr1eibh,Nick_Dissertation_EX1,1,299,2020-04-26T17:43:16-07:00,6.4191648960114,1,versionA_stim.csv,READVersionA.csv,"Read Version A","Dissertation, read only version A",GONE,AWAY,Study2,S,142,130,Test,User,-,,Recall,Recall2,5737,Away,100,3993,4634,1,1,,1
w10020569_kll,d4ypr1eibh,Nick_Dissertation_EX1,1,300,2020-04-26T17:43:21-07:00,4.4153039455414,1,versionA_stim.csv,READVersionA.csv,"Read Version A","Dissertation, read only version A",LITTER,TRASH,Study2,F,103,163,Test,User,-,,Recall,Recall2,3799,Trash,100,2138,2899,1,1,,1
w10020569_kll,d4ypr1eibh,Nick_Dissertation_EX1,1,301,2020-04-26T17:43:30-07:00,9.7935481071472,1,versionA_stim.csv,READVersionA.csv,"Read Version A","Dissertation, read only version A",MONEY,BANKER,Study2,B,132,137,Test,User,-,,Recall,Recall2,9173,Bank,80,7146,8113,0,1,,1
w10020569_kll,d4ypr1eibh,Nick_Dissertation_EX1,1,302,2020-04-26T17:43:39-07:00,8.5162689685822,1,versionA_stim.csv,READVersionA.csv,"Read Version A","Dissertation, read only version A",THREAD,THIMBLE,Study2,B,121,132,Test,User,-,,Recall,Recall2,7807,Sew,20,6011,6719,0,0,,1
w10020569_kll,d4ypr1eibh,Nick_Dissertation_EX1,1,303,2020-04-26T17:43:44-07:00,5.0122179985046,1,versionA_stim.csv,READVersionA.csv,"Read Version A","Dissertation, read only version A",SHEARS,SCISSORS,Study2,F,112,102,Test,User,-,,Recall,Recall2,4301,,0,-1,-1,0,0,,1
w10020569_kll,d4ypr1eibh,Nick_Dissertation_EX1,1,304,2020-04-26T17:43:50-07:00,6.2659080028534,1,versionA_stim.csv,READVersionA.csv,"Read Version A","Dissertation, read only version A",RAZOR,SHAVE,Study2,S,136,127,Test,User,-,,Recall,Recall2,4247,Shave,100,1991,3410,1,1,,1
w10020569_kll,d4ypr1eibh,Nick_Dissertation_EX1,1,305,2020-04-26T17:43:57-07:00,6.419173002243,1,versionA_stim.csv,READVersionA.csv,"Read Version A","Dissertation, read only version A",MULE,DONKEY,Study2,F,108,141,Test,User,-,,Recall,Recall2,5807,Donkey,100,2226,3642,1,1,,1
w10020569_kll,d4ypr1eibh,Nick_Dissertation_EX1,1,306,2020-04-26T17:43:59-07:00,2.7981798648834,1,versionA_stim.csv,READVersionA.csv,"Read Version A","Dissertation, read only version A",TURN,FLIP,Study2,B,116,97,Test,User,-,,Recall,Recall2,2307,,0,-1,-1,0,0,,1
w10020569_kll,d4ypr1eibh,Nick_Dissertation_EX1,1,307,2020-04-26T17:44:25-07:00,25.994547128677,1,versionA_stim.csv,READVersionA.csv,"Read Version A","Dissertation, read only version A",SUN,TAN,Study2,S,155,116,Test,User,-,,Recall,Recall2,25346,Tan,100,23414,24326,1,1,,1
w10020569_kll,d4ypr1eibh,Nick_Dissertation_EX1,1,308,2020-04-26T17:44:35-07:00,9.2276599407196,1,versionA_stim.csv,READVersionA.csv,"Read Version A","Dissertation, read only version A",WRIST,BRACELET,Study2,S,140,128,Test,User,-,,Recall,Recall2,6705,Hand,16.666666666667,5302,5711,0,0,,1
w10020569_kll,d4ypr1eibh,Nick_Dissertation_EX1,1,309,2020-04-26T17:44:53-07:00,18.344646930695,1,versionA_stim.csv,READVersionA.csv,"Read Version A","Dissertation, read only version A",GIVE,STEAK,Study2,U,158,174,Test,User,-,,Recall,Recall2,17634,Take,66.666666666667,15918,16519,0,0,,1
w10020569_kll,d4ypr1eibh,Nick_Dissertation_EX1,1,310,2020-04-26T17:45:12-07:00,18.787847995758,1,versionA_stim.csv,READVersionA.csv,"Read Version A","Dissertation, read only version A",CAKE,CLOTHES,Study2,U,166,155,Test,User,-,,Recall,Recall2,18134,Bake,18.181818181818,16853,17220,0,0,,1
w10020569_kll,d4ypr1eibh,Nick_Dissertation_EX1,1,311,2020-04-26T17:45:32-07:00,20.479916095734,1,versionA_stim.csv,READVersionA.csv,"Read Version A","Dissertation, read only version A",DEAD,COFFIN,Study2,B,128,113,Test,User,-,,Recall,Recall2,19584,Coffin,100,17274,18694,1,1,,1
w10020569_kll,d4ypr1eibh,Nick_Dissertation_EX1,1,312,2020-04-26T17:45:41-07:00,8.7700810432434,1,versionA_stim.csv,READVersionA.csv,"Read Version A","Dissertation, read only version A",TEMPERATURE,Morning,Study2,U,173,135,Test,User,-,,Recall,Recall2,8136,Mornings,93.333333333333,2718,4238,0,1,,1
w10020569_kll,d4ypr1eibh,Nick_Dissertation_EX1,1,313,2020-04-26T17:45:46-07:00,5.0591309070587,1,versionA_stim.csv,READVersionA.csv,"Read Version A","Dissertation, read only version A",LOUD,NOISE,Study2,S,152,152,Test,User,-,,Recall,Recall2,4434,Noise,100,2892,3686,1,1,,1
w10020569_kll,d4ypr1eibh,Nick_Dissertation_EX1,1,314,2020-04-26T17:46:02-07:00,16.227030038834,1,versionA_stim.csv,READVersionA.csv,"Read Version A","Dissertation, read only version A",EARTH,GROUND,Study2,S,144,108,Test,User,-,,Recall,Recall2,15331,Ground,100,13296,14313,1,1,,1
w10020569_kll,d4ypr1eibh,Nick_Dissertation_EX1,1,315,2020-04-26T17:46:11-07:00,8.7279801368713,1,versionA_stim.csv,READVersionA.csv,"Read Version A","Dissertation, read only version A",TANTRUM,TEMPER,Study2,S,154,176,Test,User,-,,Recall,Recall2,8211,Temper,100,3466,7416,1,1,,1
w10020569_kll,d4ypr1eibh,Nick_Dissertation_EX1,1,316,2020-04-26T17:46:16-07:00,4.888885974884,1,versionA_stim.csv,READVersionA.csv,"Read Version A","Dissertation, read only version A",STAR,ACTRESS,Study2,B,120,103,Test,User,-,,Recall,Recall2,4162,Sky,20,2072,2727,0,0,,1
w10020569_kll,d4ypr1eibh,Nick_Dissertation_EX1,1,317,2020-04-26T17:46:25-07:00,8.7662990093231,1,versionA_stim.csv,READVersionA.csv,"Read Version A","Dissertation, read only version A",CAR,WINDSHIELD,Study2,B,117,100,Test,User,-,,Recall,Recall2,7996,Drive,40,6406,7065,0,0,,1
w10020569_kll,d4ypr1eibh,Nick_Dissertation_EX1,1,318,2020-04-26T17:46:31-07:00,6.6192920207977,1,versionA_stim.csv,READVersionA.csv,"Read Version A","Dissertation, read only version A",ALONE,LONELY,Study2,S,145,114,Test,User,-,,Recall,Recall2,4819,,0,-1,-1,0,0,,1
w10020569_kll,d4ypr1eibh,Nick_Dissertation_EX1,1,319,2020-04-26T17:46:37-07:00,6.121325969696,1,versionA_stim.csv,READVersionA.csv,"Read Version A","Dissertation, read only version A",FURRY,DOG,Study2,F,102,104,Test,User,-,,Recall,Recall2,5319,Fight,25,3753,4433,0,0,,1
w10020569_kll,d4ypr1eibh,Nick_Dissertation_EX1,1,320,2020-04-26T17:47:02-07:00,24.626468896866,1,versionA_stim.csv,READVersionA.csv,"Read Version A","Dissertation, read only version A",BAD,VILLAIN,Study2,B,118,165,Test,User,-,,Recall,Recall2,23868,,0,-1,-1,0,0,,1
w10020569_kll,d4ypr1eibh,Nick_Dissertation_EX1,1,321,2020-04-26T17:47:04-07:00,1.7394800186157,1,versionA_stim.csv,READVersionA.csv,"Read Version A","Dissertation, read only version A",DRIVER,CAR,Study2,F,106,139,Test,User,-,,Recall,Recall2,1154,,0,-1,-1,0,0,,1
w10020569_kll,d4ypr1eibh,Nick_Dissertation_EX1,1,322,2020-04-26T17:47:24-07:00,19.697719097137,1,versionA_stim.csv,READVersionA.csv,"Read Version A","Dissertation, read only version A",EVEN,REVENGE,Study2,B,122,122,Test,User,-,,Recall,Recall2,19010,Revenge,100,12701,17877,1,1,,1
w10020569_kll,d4ypr1eibh,Nick_Dissertation_EX1,1,323,2020-04-26T17:47:31-07:00,7.4910278320312,1,versionA_stim.csv,READVersionA.csv,"Read Version A","Dissertation, read only version A",MIRROR,CHILDREN,Study2,U,174,151,Test,User,-,,Recall,Recall2,6750,Child,76.923076923077,4540,5665,0,1,,1
w10020569_kll,d4ypr1eibh,Nick_Dissertation_EX1,1,324,2020-04-26T17:47:36-07:00,4.7892169952393,1,versionA_stim.csv,READVersionA.csv,"Read Version A","Dissertation, read only version A",SCALP,HEAD,Study2,F,105,115,Test,User,-,,Recall,Recall2,4155,Head,100,2334,3055,1,1,,1
w10020569_kll,d4ypr1eibh,Nick_Dissertation_EX1,1,325,2020-04-26T17:47:42-07:00,6.0169019699097,1,versionA_stim.csv,READVersionA.csv,"Read Version A","Dissertation, read only version A",SHOELACE,TIE,Study2,F,99,109,Test,User,-,,Recall,Recall2,4722,"Tie ",100,2096,2743,1,1,,1
w10020569_kll,d4ypr1eibh,Nick_Dissertation_EX1,1,326,2020-04-26T17:47:56-07:00,14.505494117737,1,versionA_stim.csv,READVersionA.csv,"Read Version A","Dissertation, read only version A",MEAT,OBTAIN,Study2,U,161,154,Test,User,-,,Recall,Recall2,13967,,0,-1,-1,0,0,,1
w10020569_kll,d4ypr1eibh,Nick_Dissertation_EX1,1,327,2020-04-26T17:48:04-07:00,7.2532598972321,1,versionA_stim.csv,READVersionA.csv,"Read Version A","Dissertation, read only version A",LEASE,TOIL,Study2,U,170,111,Test,User,-,,Recall,Recall2,6532,Toil,100,4323,5376,1,1,,1
w10020569_kll,d4ypr1eibh,Nick_Dissertation_EX1,1,328,2020-04-26T17:48:12-07:00,8.2372272014618,1,versionA_stim.csv,READVersionA.csv,"Read Version A","Dissertation, read only version A",EXTENSION,LONG,Study2,F,96,142,Test,User,-,,Recall,Recall2,7578,Long,100,5689,6560,1,1,,1
w10020569_kll,d4ypr1eibh,Nick_Dissertation_EX1,1,329,2020-04-26T17:48:22-07:00,10.094731807709,1,versionA_stim.csv,READVersionA.csv,"Read Version A","Dissertation, read only version A",AFFECTION,LOVE,Study2,F,115,147,Test,User,-,,Recall,Recall2,9073,Love,100,7194,8101,1,1,,1
w10020569_kll,d4ypr1eibh,Nick_Dissertation_EX1,1,330,2020-04-26T17:48:30-07:00,8.5022490024567,1,versionA_stim.csv,READVersionA.csv,"Read Version A","Dissertation, read only version A",TRUTH,LIE,Study2,S,148,101,Test,User,-,,Recall,Recall2,7691,Lies,85.714285714286,5597,6575,0,1,,1
w10020569_kll,d4ypr1eibh,Nick_Dissertation_EX1,1,331,2020-04-26T17:48:40-07:00,9.7063391208649,1,versionA_stim.csv,READVersionA.csv,"Read Version A","Dissertation, read only version A",BOTH,OUNCE,Study2,U,172,160,Test,User,-,,Recall,Recall2,9011,,0,-1,-1,0,0,,1
w10020569_kll,d4ypr1eibh,Nick_Dissertation_EX1,1,332,2020-04-26T17:49:01-07:00,21.000560998917,1,versionA_stim.csv,READVersionA.csv,"Read Version A","Dissertation, read only version A",BIRD,PENGUIN,Study2,B,119,133,Test,User,-,,Recall,Recall2,20438,"Penguin ",100,15398,18700,1,1,,1
w10020569_kll,d4ypr1eibh,Nick_Dissertation_EX1,1,333,2020-04-26T17:49:13-07:00,11.968944072723,1,versionA_stim.csv,READVersionA.csv,"Read Version A","Dissertation, read only version A",PLANE,AIRCRAFT,Study2,B,129,123,Test,User,-,,Recall,Recall2,11179,Aircraft,100,7748,9946,1,1,,1
w10020569_kll,d4ypr1eibh,Nick_Dissertation_EX1,1,334,2020-04-26T17:49:18-07:00,5.1410548686981,1,versionA_stim.csv,READVersionA.csv,"Read Version A","Dissertation, read only version A",FLEA,TICK,Study2,S,151,105,Test,User,-,,Recall,Recall2,4471,,0,-1,-1,0,0,,1
w10020569_kll,d4ypr1eibh,Nick_Dissertation_EX1,1,335,2020-04-26T17:49:40-07:00,22.208707094193,1,versionA_stim.csv,READVersionA.csv,"Read Version A","Dissertation, read only version A",DETECTIVE,MYSTERY,Study2,F,100,120,Test,User,-,,Recall,Recall2,21618,"Mystery ",100,18345,19149,1,1,,1
w10020569_kll,d4ypr1eibh,Nick_Dissertation_EX1,1,336,2020-04-26T17:49:54-07:00,13.873886823654,1,versionA_stim.csv,READVersionA.csv,"Read Version A","Dissertation, read only version A",POP,BALLOON,Study2,B,123,145,Test,User,-,,Recall,Recall2,13393,"Balloon ",100,9963,11426,1,1,,1
w10020569_kll,d4ypr1eibh,Nick_Dissertation_EX1,1,337,2020-04-26T17:50:10-07:00,15.66631102562,1,versionA_stim.csv,READVersionA.csv,"Read Version A","Dissertation, read only version A",CAT,PANTHER,Study2,B,126,143,Test,User,-,,Recall,Recall2,15101,Dog,0,13293,14134,0,0,,1
w10020569_kll,d4ypr1eibh,Nick_Dissertation_EX1,1,338,2020-04-26T17:50:35-07:00,24.741954088211,1,versionA_stim.csv,READVersionA.csv,"Read Version A","Dissertation, read only version A",FEUD,FIGHT,Study2,F,113,170,Test,User,-,,Recall,Recall2,24089,,0,-1,-1,0,0,,1
w10020569_kll,d4ypr1eibh,Nick_Dissertation_EX1,1,339,2020-04-26T17:51:04-07:00,29.678113937378,1,versionA_stim.csv,READVersionA.csv,"Read Version A","Dissertation, read only version A",BEST,FAVORITE,Study2,B,125,125,Test,User,-,,Recall,Recall2,29038,,0,-1,-1,0,0,,1
w10020569_kll,d4ypr1eibh,Nick_Dissertation_EX1,1,340,2020-04-26T17:51:10-07:00,5.4440469741821,1,versionA_stim.csv,READVersionA.csv,"Read Version A","Dissertation, read only version A",HONEST,TRUTHFUL,Study2,B,133,129,Test,User,-,,Recall,Recall2,4810,Truth,76.923076923077,2342,3978,0,1,,1
w10020569_kll,d4ypr1eibh,Nick_Dissertation_EX1,1,341,2020-04-26T17:51:17-07:00,7.2584571838379,1,versionA_stim.csv,READVersionA.csv,"Read Version A","Dissertation, read only version A",CHERRY,RED,Study2,F,104,166,Test,User,-,,Recall,Recall2,6676,Red,100,5294,5639,1,1,,1
w10020569_kll,d4ypr1eibh,Nick_Dissertation_EX1,1,342,2020-04-26T17:51:27-07:00,9.83318400383,1,versionA_stim.csv,READVersionA.csv,"Read Version A","Dissertation, read only version A",FISH,SARDINE,Study2,B,130,106,Test,User,-,,Recall,Recall2,9153,Sardine,100,5216,5999,1,1,,1
w10020569_kll,d4ypr1eibh,Nick_Dissertation_EX1,1,343,2020-04-26T17:51:40-07:00,12.730357885361,1,versionA_stim.csv,READVersionA.csv,"Read Version A","Dissertation, read only version A",OWN,HAVE,Study2,S,153,138,Test,User,-,,Recall,Recall2,12112,Have,100,9524,10787,1,1,,1
w10020569_kll,d4ypr1eibh,Nick_Dissertation_EX1,1,344,2020-04-26T17:51:58-07:00,18.775980949402,1,versionA_stim.csv,READVersionA.csv,"Read Version A","Dissertation, read only version A",Shell,SHAKE,Study2,U,163,117,Test,User,-,,Recall,Recall2,18061,,0,-1,-1,0,0,,1
w10020569_kll,d4ypr1eibh,Nick_Dissertation_EX1,1,345,2020-04-26T17:52:11-07:00,12.462584018707,1,versionA_stim.csv,READVersionA.csv,"Read Version A","Dissertation, read only version A",CHOP,CUT,Study2,F,107,110,Test,User,-,,Recall,Recall2,11768,Cut,100,10106,10693,1,1,,1
w10020569_kll,d4ypr1eibh,Nick_Dissertation_EX1,1,346,2020-04-26T17:52:33-07:00,21.973370075226,1,versionA_stim.csv,READVersionA.csv,"Read Version A","Dissertation, read only version A",BASEBALL,LEAGUE,Study2,B,131,173,Test,User,-,,Recall,Recall2,21029,"League ",100,10852,18905,1,1,,1
w10020569_kll,d4ypr1eibh,Nick_Dissertation_EX1,1,347,2020-04-26T17:52:39-07:00,5.9475660324097,1,versionA_stim.csv,READVersionA.csv,"Read Version A","Dissertation, read only version A",MOAT,CLEAR,Study2,U,169,175,Test,User,-,,Recall,Recall2,3698,,0,-1,-1,0,0,,1
w10020569_kll,d4ypr1eibh,Nick_Dissertation_EX1,1,348,2020-04-26T17:52:55-07:00,16.224572896957,1,versionA_stim.csv,READVersionA.csv,"Read Version A","Dissertation, read only version A",CACTUS,PLANT,Study2,F,98,112,Test,User,-,,Recall,Recall2,15382,Plant,100,11578,14247,1,1,,1
w10020569_kll,d4ypr1eibh,Nick_Dissertation_EX1,1,349,2020-04-26T17:52:58-07:00,2.5389420986176,1,versionA_stim.csv,READVersionA.csv,"Read Version A","Dissertation, read only version A",,,,,,0,Instruct,User,-,"You have completed this section. Please press Enter.",,Instruct7,1999,,,-1,-1,,,,1
w10020569_kll,d4ypr1eibh,Nick_Dissertation_EX1,1,350,2020-04-26T17:53:03-07:00,5.3124840259552,1,versionA_stim.csv,READVersionA.csv,"Read Version A","Dissertation, read only version A",,,,,,0,Instruct,User,-,"The following screen will ask you a few questions abour your experience today. You must complete these questions to receive credit.",,Instruct8,4639,,,-1,-1,,,,1
