Username,ID,ExperimentName,Session,Trial,Date,TimeDif,"Condition Number","Stimuli File","Order File","Condition Description","Condition Notes",Stimuli*Cue,Stimuli*Answer,Stimuli*Shuffle,"Stimuli*Stimuli Notes",Stimuli*Value,Procedure*Item,"Procedure*Trial Type","Procedure*Max Time","Procedure*Min Time",Procedure*Text,"Procedure*Procedure Notes",Procedure*Shuffle,Response*RT,Response*Response,Response*Accuracy,Response*RTfirst,Response*RTlast,Response*strictAcc,Response*lenientAcc,Response*focus,Response*Focus
w10079303,wwial22qmk,Nick_Dissertation_EX1,1,1,2020-04-19T18:43:53-07:00,12.516652822495,4,versionC_stim.csv,READVersionD.csv,"Read Version D","Dissertation, read only version D",,,,,,0,Instruct,-,10,"Please study each of the following word pairs. Remember that your memory will be tested! When finished, press Enter to move to the next pair.",Initial_Instruct,Instruct1,12011,,,-1,-1,,,,1
w10079303,wwial22qmk,Nick_Dissertation_EX1,1,2,2020-04-19T18:43:55-07:00,2.8030090332031,4,versionC_stim.csv,READVersionD.csv,"Read Version D","Dissertation, read only version D",ADVENTURE,CAMP,BUFFER3,Buffer,95,95,Study,User,-,,Study/JOL,BUFFER,2351,,,-1,-1,,,,1
w10079303,wwial22qmk,Nick_Dissertation_EX1,1,3,2020-04-19T18:44:01-07:00,5.4658401012421,4,versionC_stim.csv,READVersionD.csv,"Read Version D","Dissertation, read only version D",POTATO,CARROT,BUFFER3,Buffer,91,96,Study,User,-,,Study/JOL,BUFFER,5104,,,-1,-1,,,,1
w10079303,wwial22qmk,Nick_Dissertation_EX1,1,4,2020-04-19T18:44:03-07:00,2.59415102005,4,versionC_stim.csv,READVersionD.csv,"Read Version D","Dissertation, read only version D",FROZEN,ICE,BUFFER3,Buffer,94,93,Study,User,-,,Study/JOL,BUFFER,2261,,,-1,-1,,,,1
w10079303,wwial22qmk,Nick_Dissertation_EX1,1,5,2020-04-19T18:44:06-07:00,2.1436419487,4,versionC_stim.csv,READVersionD.csv,"Read Version D","Dissertation, read only version D",FISH,SHRIMP,BUFFER3,Buffer,93,92,Study,User,-,,Study/JOL,BUFFER,1792,,,-1,-1,,,,1
w10079303,wwial22qmk,Nick_Dissertation_EX1,1,6,2020-04-19T18:44:08-07:00,1.9792768955231,4,versionC_stim.csv,READVersionD.csv,"Read Version D","Dissertation, read only version D",STRING,NOODLE,BUFFER3,Buffer,92,94,Study,User,-,,Study/JOL,BUFFER,1635,,,-1,-1,,,,1
w10079303,wwial22qmk,Nick_Dissertation_EX1,1,7,2020-04-19T18:44:10-07:00,2.1249101161957,4,versionC_stim.csv,READVersionD.csv,"Read Version D","Dissertation, read only version D",BANKER,MONEY,Study2,F,132,135,Study,User,-,,Study/JOL,"Study Phase",1802,,,-1,-1,,,,1
w10079303,wwial22qmk,Nick_Dissertation_EX1,1,8,2020-04-19T18:44:12-07:00,2.180342912674,4,versionC_stim.csv,READVersionD.csv,"Read Version D","Dissertation, read only version D",GROUND,EARTH,Study2,S,144,150,Study,User,-,,Study/JOL,"Study Phase",1833,,,-1,-1,,,,1
w10079303,wwial22qmk,Nick_Dissertation_EX1,1,9,2020-04-19T18:44:14-07:00,2.3957281112671,4,versionC_stim.csv,READVersionD.csv,"Read Version D","Dissertation, read only version D",TICK,FLEA,Study2,S,151,144,Study,User,-,,Study/JOL,"Study Phase",2036,,,-1,-1,,,,1
w10079303,wwial22qmk,Nick_Dissertation_EX1,1,10,2020-04-19T18:44:17-07:00,2.6137979030609,4,versionC_stim.csv,READVersionD.csv,"Read Version D","Dissertation, read only version D",THIMBLE,THREAD,Study2,F,121,146,Study,User,-,,Study/JOL,"Study Phase",2257,,,-1,-1,,,,1
w10079303,wwial22qmk,Nick_Dissertation_EX1,1,11,2020-04-19T18:44:19-07:00,2.3801910877228,4,versionC_stim.csv,READVersionD.csv,"Read Version D","Dissertation, read only version D",LEAGUE,BASEBALL,Study2,F,131,166,Study,User,-,,Study/JOL,"Study Phase",2021,,,-1,-1,,,,1
w10079303,wwial22qmk,Nick_Dissertation_EX1,1,12,2020-04-19T18:44:21-07:00,2.0568909645081,4,versionC_stim.csv,READVersionD.csv,"Read Version D","Dissertation, read only version D",FLIP,TURN,Study2,F,116,99,Study,User,-,,Study/JOL,"Study Phase",1671,,,-1,-1,,,,1
w10079303,wwial22qmk,Nick_Dissertation_EX1,1,13,2020-04-19T18:44:24-07:00,2.3007829189301,4,versionC_stim.csv,READVersionD.csv,"Read Version D","Dissertation, read only version D",COMMUNICATION,PHONE,Study2,S,149,134,Study,User,-,,Study/JOL,"Study Phase",1973,,,-1,-1,,,,1
w10079303,wwial22qmk,Nick_Dissertation_EX1,1,14,2020-04-19T18:44:26-07:00,2.1898620128632,4,versionC_stim.csv,READVersionD.csv,"Read Version D","Dissertation, read only version D",TRUTHFUL,HONEST,Study2,F,133,157,Study,User,-,,Study/JOL,"Study Phase",1834,,,-1,-1,,,,1
w10079303,wwial22qmk,Nick_Dissertation_EX1,1,15,2020-04-19T18:44:28-07:00,1.687164068222,4,versionC_stim.csv,READVersionD.csv,"Read Version D","Dissertation, read only version D",FICTION,LISTEN,Study2,U,164,152,Study,User,-,,Study/JOL,"Study Phase",1332,,,-1,-1,,,,1
w10079303,wwial22qmk,Nick_Dissertation_EX1,1,16,2020-04-19T18:44:31-07:00,3.0294361114502,4,versionC_stim.csv,READVersionD.csv,"Read Version D","Dissertation, read only version D",DONKEY,MULE,Study2,B,108,111,Study,User,-,,Study/JOL,"Study Phase",2423,,,-1,-1,,,,1
w10079303,wwial22qmk,Nick_Dissertation_EX1,1,17,2020-04-19T18:44:33-07:00,2.2344498634338,4,versionC_stim.csv,READVersionD.csv,"Read Version D","Dissertation, read only version D",SHAKE,Shell,Study2,U,163,131,Study,User,-,,Study/JOL,"Study Phase",1855,,,-1,-1,,,,1
w10079303,wwial22qmk,Nick_Dissertation_EX1,1,18,2020-04-19T18:44:38-07:00,4.8196310997009,4,versionC_stim.csv,READVersionD.csv,"Read Version D","Dissertation, read only version D",COLD,CHILL,Study2,B,114,167,Study,User,-,,Study/JOL,"Study Phase",4447,,,-1,-1,,,,1
w10079303,wwial22qmk,Nick_Dissertation_EX1,1,19,2020-04-19T18:44:39-07:00,1.8461909294128,4,versionC_stim.csv,READVersionD.csv,"Read Version D","Dissertation, read only version D",HEAD,SCALP,Study2,B,105,108,Study,User,-,,Study/JOL,"Study Phase",1491,,,-1,-1,,,,1
w10079303,wwial22qmk,Nick_Dissertation_EX1,1,20,2020-04-19T18:44:41-07:00,1.8372840881348,4,versionC_stim.csv,READVersionD.csv,"Read Version D","Dissertation, read only version D",COFFIN,DEAD,Study2,F,128,176,Study,User,-,,Study/JOL,"Study Phase",1491,,,-1,-1,,,,1
w10079303,wwial22qmk,Nick_Dissertation_EX1,1,21,2020-04-19T18:44:43-07:00,1.9542548656464,4,versionC_stim.csv,READVersionD.csv,"Read Version D","Dissertation, read only version D",EAT,DINE,Study2,B,111,159,Study,User,-,,Study/JOL,"Study Phase",1635,,,-1,-1,,,,1
w10079303,wwial22qmk,Nick_Dissertation_EX1,1,22,2020-04-19T18:44:45-07:00,1.8289439678192,4,versionC_stim.csv,READVersionD.csv,"Read Version D","Dissertation, read only version D",PENGUIN,BIRD,Study2,F,119,128,Study,User,-,,Study/JOL,"Study Phase",1494,,,-1,-1,,,,1
w10079303,wwial22qmk,Nick_Dissertation_EX1,1,23,2020-04-19T18:44:47-07:00,2.1460671424866,4,versionC_stim.csv,READVersionD.csv,"Read Version D","Dissertation, read only version D",CLEAR,MOAT,Study2,U,169,103,Study,User,-,,Study/JOL,"Study Phase",1838,,,-1,-1,,,,1
w10079303,wwial22qmk,Nick_Dissertation_EX1,1,24,2020-04-19T18:44:49-07:00,2.1282939910889,4,versionC_stim.csv,READVersionD.csv,"Read Version D","Dissertation, read only version D",CAR,DRIVER,Study2,B,106,168,Study,User,-,,Study/JOL,"Study Phase",1805,,,-1,-1,,,,1
w10079303,wwial22qmk,Nick_Dissertation_EX1,1,25,2020-04-19T18:44:51-07:00,1.8543338775635,4,versionC_stim.csv,READVersionD.csv,"Read Version D","Dissertation, read only version D",OBTAIN,MEAT,Study2,U,161,104,Study,User,-,,Study/JOL,"Study Phase",1500,,,-1,-1,,,,1
w10079303,wwial22qmk,Nick_Dissertation_EX1,1,26,2020-04-19T18:44:53-07:00,2.1813859939575,4,versionC_stim.csv,READVersionD.csv,"Read Version D","Dissertation, read only version D",ABLE,CRACKLE,Study2,U,162,97,Study,User,-,,Study/JOL,"Study Phase",1830,,,-1,-1,,,,1
w10079303,wwial22qmk,Nick_Dissertation_EX1,1,27,2020-04-19T18:44:55-07:00,1.6327531337738,4,versionC_stim.csv,READVersionD.csv,"Read Version D","Dissertation, read only version D",PAPER,DOCUMENT,Study2,B,109,129,Study,User,-,,Study/JOL,"Study Phase",1264,,,-1,-1,,,,1
w10079303,wwial22qmk,Nick_Dissertation_EX1,1,28,2020-04-19T18:44:57-07:00,1.6760928630829,4,versionC_stim.csv,READVersionD.csv,"Read Version D","Dissertation, read only version D",STRAWBERRY,FRUIT,Study2,F,124,143,Study,User,-,,Study/JOL,"Study Phase",1321,,,-1,-1,,,,1
w10079303,wwial22qmk,Nick_Dissertation_EX1,1,29,2020-04-19T18:44:58-07:00,1.6397321224213,4,versionC_stim.csv,READVersionD.csv,"Read Version D","Dissertation, read only version D",TOIL,LEASE,Study2,U,170,145,Study,User,-,,Study/JOL,"Study Phase",1270,,,-1,-1,,,,1
w10079303,wwial22qmk,Nick_Dissertation_EX1,1,30,2020-04-19T18:45:00-07:00,1.862133026123,4,versionC_stim.csv,READVersionD.csv,"Read Version D","Dissertation, read only version D",LONELY,ALONE,Study2,S,145,127,Study,User,-,,Study/JOL,"Study Phase",1524,,,-1,-1,,,,1
w10079303,wwial22qmk,Nick_Dissertation_EX1,1,31,2020-04-19T18:45:02-07:00,1.5976459980011,4,versionC_stim.csv,READVersionD.csv,"Read Version D","Dissertation, read only version D",LONG,EXTENSION,Study2,B,96,126,Study,User,-,,Study/JOL,"Study Phase",1217,,,-1,-1,,,,1
w10079303,wwial22qmk,Nick_Dissertation_EX1,1,32,2020-04-19T18:45:04-07:00,1.8793089389801,4,versionC_stim.csv,READVersionD.csv,"Read Version D","Dissertation, read only version D",LOVE,AFFECTION,Study2,B,115,147,Study,User,-,,Study/JOL,"Study Phase",1550,,,-1,-1,,,,1
w10079303,wwial22qmk,Nick_Dissertation_EX1,1,33,2020-04-19T18:45:06-07:00,2.0401511192322,4,versionC_stim.csv,READVersionD.csv,"Read Version D","Dissertation, read only version D",SIGN,LOAN,Study2,U,171,170,Study,User,-,,Study/JOL,"Study Phase",1676,,,-1,-1,,,,1
w10079303,wwial22qmk,Nick_Dissertation_EX1,1,34,2020-04-19T18:45:08-07:00,1.9308109283447,4,versionC_stim.csv,READVersionD.csv,"Read Version D","Dissertation, read only version D",PLANT,CACTUS,Study2,B,98,133,Study,User,-,,Study/JOL,"Study Phase",1572,,,-1,-1,,,,1
w10079303,wwial22qmk,Nick_Dissertation_EX1,1,35,2020-04-19T18:45:10-07:00,2.0447609424591,4,versionC_stim.csv,READVersionD.csv,"Read Version D","Dissertation, read only version D",DOG,FURRY,Study2,B,102,161,Study,User,-,,Study/JOL,"Study Phase",1685,,,-1,-1,,,,1
w10079303,wwial22qmk,Nick_Dissertation_EX1,1,36,2020-04-19T18:45:12-07:00,1.8168189525604,4,versionC_stim.csv,READVersionD.csv,"Read Version D","Dissertation, read only version D",END,ADJOURN,Study2,B,101,130,Study,User,-,,Study/JOL,"Study Phase",1469,,,-1,-1,,,,1
w10079303,wwial22qmk,Nick_Dissertation_EX1,1,37,2020-04-19T18:45:13-07:00,1.6446161270142,4,versionC_stim.csv,READVersionD.csv,"Read Version D","Dissertation, read only version D",BRACELET,WRIST,Study2,S,140,125,Study,User,-,,Study/JOL,"Study Phase",1275,,,-1,-1,,,,1
w10079303,wwial22qmk,Nick_Dissertation_EX1,1,38,2020-04-19T18:45:15-07:00,1.8282399177551,4,versionC_stim.csv,READVersionD.csv,"Read Version D","Dissertation, read only version D",REEL,ROD,Study2,S,150,109,Study,User,-,,Study/JOL,"Study Phase",1464,,,-1,-1,,,,1
w10079303,wwial22qmk,Nick_Dissertation_EX1,1,39,2020-04-19T18:45:17-07:00,1.6541700363159,4,versionC_stim.csv,READVersionD.csv,"Read Version D","Dissertation, read only version D",ELECTION,MAZE,Study2,U,159,149,Study,User,-,,Study/JOL,"Study Phase",1287,,,-1,-1,,,,1
w10079303,wwial22qmk,Nick_Dissertation_EX1,1,40,2020-04-19T18:45:18-07:00,1.6875550746918,4,versionC_stim.csv,READVersionD.csv,"Read Version D","Dissertation, read only version D",SMELL,INCENSE,Study2,B,110,117,Study,User,-,,Study/JOL,"Study Phase",1329,,,-1,-1,,,,1
w10079303,wwial22qmk,Nick_Dissertation_EX1,1,41,2020-04-19T18:45:20-07:00,1.7816038131714,4,versionC_stim.csv,READVersionD.csv,"Read Version D","Dissertation, read only version D",CUT,CHOP,Study2,B,107,113,Study,User,-,,Study/JOL,"Study Phase",1324,,,-1,-1,,,,1
w10079303,wwial22qmk,Nick_Dissertation_EX1,1,42,2020-04-19T18:45:22-07:00,1.6845021247864,4,versionC_stim.csv,READVersionD.csv,"Read Version D","Dissertation, read only version D",NOISE,LOUD,Study2,S,152,172,Study,User,-,,Study/JOL,"Study Phase",1341,,,-1,-1,,,,1
w10079303,wwial22qmk,Nick_Dissertation_EX1,1,43,2020-04-19T18:45:24-07:00,2.0479378700256,4,versionC_stim.csv,READVersionD.csv,"Read Version D","Dissertation, read only version D",DRINK,WATER,Study2,S,143,138,Study,User,-,,Study/JOL,"Study Phase",1700,,,-1,-1,,,,1
w10079303,wwial22qmk,Nick_Dissertation_EX1,1,44,2020-04-19T18:45:26-07:00,2.085942029953,4,versionC_stim.csv,READVersionD.csv,"Read Version D","Dissertation, read only version D",BREAKABLE,GLASS,Study2,F,127,154,Study,User,-,,Study/JOL,"Study Phase",1702,,,-1,-1,,,,1
w10079303,wwial22qmk,Nick_Dissertation_EX1,1,45,2020-04-19T18:45:31-07:00,5.5540020465851,4,versionC_stim.csv,READVersionD.csv,"Read Version D","Dissertation, read only version D",FIGHT,FEUD,Study2,B,113,165,Study,User,-,,Study/JOL,"Study Phase",5218,,,-1,-1,,,,1
w10079303,wwial22qmk,Nick_Dissertation_EX1,1,46,2020-04-19T18:45:34-07:00,2.2790629863739,4,versionC_stim.csv,READVersionD.csv,"Read Version D","Dissertation, read only version D",TIE,SHOELACE,Study2,B,99,132,Study,User,-,,Study/JOL,"Study Phase",1918,,,-1,-1,,,,1
w10079303,wwial22qmk,Nick_Dissertation_EX1,1,47,2020-04-19T18:45:36-07:00,2.0774841308594,4,versionC_stim.csv,READVersionD.csv,"Read Version D","Dissertation, read only version D",FAVORITE,BEST,Study2,F,125,151,Study,User,-,,Study/JOL,"Study Phase",1727,,,-1,-1,,,,1
w10079303,wwial22qmk,Nick_Dissertation_EX1,1,48,2020-04-19T18:45:38-07:00,1.7246749401093,4,versionC_stim.csv,READVersionD.csv,"Read Version D","Dissertation, read only version D",NAP,SLEEP,Study2,F,134,139,Study,User,-,,Study/JOL,"Study Phase",1384,,,-1,-1,,,,1
w10079303,wwial22qmk,Nick_Dissertation_EX1,1,49,2020-04-19T18:45:39-07:00,1.4517199993134,4,versionC_stim.csv,READVersionD.csv,"Read Version D","Dissertation, read only version D",TAN,SUN,Study2,S,155,107,Study,User,-,,Study/JOL,"Study Phase",1102,,,-1,-1,,,,1
w10079303,wwial22qmk,Nick_Dissertation_EX1,1,50,2020-04-19T18:45:40-07:00,1.3498170375824,4,versionC_stim.csv,READVersionD.csv,"Read Version D","Dissertation, read only version D",PANTHER,CAT,Study2,F,126,162,Study,User,-,,Study/JOL,"Study Phase",993,,,-1,-1,,,,1
w10079303,wwial22qmk,Nick_Dissertation_EX1,1,51,2020-04-19T18:45:42-07:00,1.4331939220428,4,versionC_stim.csv,READVersionD.csv,"Read Version D","Dissertation, read only version D",BALLOON,POP,Study2,F,123,140,Study,User,-,,Study/JOL,"Study Phase",1075,,,-1,-1,,,,1
w10079303,wwial22qmk,Nick_Dissertation_EX1,1,52,2020-04-19T18:45:43-07:00,1.3786981105804,4,versionC_stim.csv,READVersionD.csv,"Read Version D","Dissertation, read only version D",LIE,TRUTH,Study2,S,148,119,Study,User,-,,Study/JOL,"Study Phase",1009,,,-1,-1,,,,1
w10079303,wwial22qmk,Nick_Dissertation_EX1,1,53,2020-04-19T18:45:45-07:00,1.6955649852753,4,versionC_stim.csv,READVersionD.csv,"Read Version D","Dissertation, read only version D",REVENGE,EVEN,Study2,F,122,115,Study,User,-,,Study/JOL,"Study Phase",1331,,,-1,-1,,,,1
w10079303,wwial22qmk,Nick_Dissertation_EX1,1,54,2020-04-19T18:45:48-07:00,2.9321849346161,4,versionC_stim.csv,READVersionD.csv,"Read Version D","Dissertation, read only version D",SCAR,MAIN,Study2,U,175,114,Study,User,-,,Study/JOL,"Study Phase",2567,,,-1,-1,,,,1
w10079303,wwial22qmk,Nick_Dissertation_EX1,1,55,2020-04-19T18:45:49-07:00,1.6016969680786,4,versionC_stim.csv,READVersionD.csv,"Read Version D","Dissertation, read only version D",JAR,MASON,Study2,S,138,120,Study,User,-,,Study/JOL,"Study Phase",1220,,,-1,-1,,,,1
w10079303,wwial22qmk,Nick_Dissertation_EX1,1,56,2020-04-19T18:45:51-07:00,1.4453771114349,4,versionC_stim.csv,READVersionD.csv,"Read Version D","Dissertation, read only version D",AWAY,GONE,Study2,S,142,155,Study,User,-,,Study/JOL,"Study Phase",1070,,,-1,-1,,,,1
w10079303,wwial22qmk,Nick_Dissertation_EX1,1,57,2020-04-19T18:45:52-07:00,1.4556968212128,4,versionC_stim.csv,READVersionD.csv,"Read Version D","Dissertation, read only version D",CLOTHES,CAKE,Study2,U,166,101,Study,User,-,,Study/JOL,"Study Phase",1120,,,-1,-1,,,,1
w10079303,wwial22qmk,Nick_Dissertation_EX1,1,58,2020-04-19T18:45:54-07:00,1.4346539974213,4,versionC_stim.csv,READVersionD.csv,"Read Version D","Dissertation, read only version D",WAX,CANDLE,Study2,S,139,105,Study,User,-,,Study/JOL,"Study Phase",1025,,,-1,-1,,,,1
w10079303,wwial22qmk,Nick_Dissertation_EX1,1,59,2020-04-19T18:45:57-07:00,2.8147621154785,4,versionC_stim.csv,READVersionD.csv,"Read Version D","Dissertation, read only version D",CHILDREN,MIRROR,Study2,U,174,173,Study,User,-,,Study/JOL,"Study Phase",2424,,,-1,-1,,,,1
w10079303,wwial22qmk,Nick_Dissertation_EX1,1,60,2020-04-19T18:45:58-07:00,1.7767059803009,4,versionC_stim.csv,READVersionD.csv,"Read Version D","Dissertation, read only version D",SEATBELT,SAFETY,Study2,S,147,137,Study,User,-,,Study/JOL,"Study Phase",1437,,,-1,-1,,,,1
w10079303,wwial22qmk,Nick_Dissertation_EX1,1,61,2020-04-19T18:46:00-07:00,1.4606559276581,4,versionC_stim.csv,READVersionD.csv,"Read Version D","Dissertation, read only version D",GAME,CLUE,Study2,B,97,171,Study,User,-,,Study/JOL,"Study Phase",1081,,,-1,-1,,,,1
w10079303,wwial22qmk,Nick_Dissertation_EX1,1,62,2020-04-19T18:46:01-07:00,1.4541940689087,4,versionC_stim.csv,READVersionD.csv,"Read Version D","Dissertation, read only version D",SHAVE,RAZOR,Study2,S,136,121,Study,User,-,,Study/JOL,"Study Phase",1088,,,-1,-1,,,,1
w10079303,wwial22qmk,Nick_Dissertation_EX1,1,63,2020-04-19T18:46:03-07:00,1.8650019168854,4,versionC_stim.csv,READVersionD.csv,"Read Version D","Dissertation, read only version D",CLOTH,STRETCH,Study2,U,157,164,Study,User,-,,Study/JOL,"Study Phase",1513,,,-1,-1,,,,1
w10079303,wwial22qmk,Nick_Dissertation_EX1,1,64,2020-04-19T18:46:05-07:00,1.5854799747467,4,versionC_stim.csv,READVersionD.csv,"Read Version D","Dissertation, read only version D",BANG,FUZZY,Study2,U,168,112,Study,User,-,,Study/JOL,"Study Phase",1214,,,-1,-1,,,,1
w10079303,wwial22qmk,Nick_Dissertation_EX1,1,65,2020-04-19T18:46:06-07:00,1.7367570400238,4,versionC_stim.csv,READVersionD.csv,"Read Version D","Dissertation, read only version D",WINDSHIELD,CAR,Study2,F,117,160,Study,User,-,,Study/JOL,"Study Phase",1370,,,-1,-1,,,,1
w10079303,wwial22qmk,Nick_Dissertation_EX1,1,66,2020-04-19T18:46:08-07:00,1.4731960296631,4,versionC_stim.csv,READVersionD.csv,"Read Version D","Dissertation, read only version D",EQUAL,RIGHTS,Study2,S,137,158,Study,User,-,,Study/JOL,"Study Phase",1105,,,-1,-1,,,,1
w10079303,wwial22qmk,Nick_Dissertation_EX1,1,67,2020-04-19T18:46:09-07:00,1.4280140399933,4,versionC_stim.csv,READVersionD.csv,"Read Version D","Dissertation, read only version D",CARBON,ELEMENT,Study2,S,141,136,Study,User,-,,Study/JOL,"Study Phase",1072,,,-1,-1,,,,1
w10079303,wwial22qmk,Nick_Dissertation_EX1,1,68,2020-04-19T18:46:11-07:00,1.5873649120331,4,versionC_stim.csv,READVersionD.csv,"Read Version D","Dissertation, read only version D",RED,CHERRY,Study2,B,104,174,Study,User,-,,Study/JOL,"Study Phase",1240,,,-1,-1,,,,1
w10079303,wwial22qmk,Nick_Dissertation_EX1,1,69,2020-04-19T18:46:14-07:00,2.9343931674957,4,versionC_stim.csv,READVersionD.csv,"Read Version D","Dissertation, read only version D",ACTRESS,STAR,Study2,F,120,156,Study,User,-,,Study/JOL,"Study Phase",2577,,,-1,-1,,,,1
w10079303,wwial22qmk,Nick_Dissertation_EX1,1,70,2020-04-19T18:46:15-07:00,1.3916368484497,4,versionC_stim.csv,READVersionD.csv,"Read Version D","Dissertation, read only version D",SARDINE,FISH,Study2,F,130,124,Study,User,-,,Study/JOL,"Study Phase",1030,,,-1,-1,,,,1
w10079303,wwial22qmk,Nick_Dissertation_EX1,1,71,2020-04-19T18:46:19-07:00,3.8274600505829,4,versionC_stim.csv,READVersionD.csv,"Read Version D","Dissertation, read only version D",VILLAIN,BAD,Study2,F,118,169,Study,User,-,,Study/JOL,"Study Phase",3431,,,-1,-1,,,,1
w10079303,wwial22qmk,Nick_Dissertation_EX1,1,72,2020-04-19T18:46:21-07:00,1.799045085907,4,versionC_stim.csv,READVersionD.csv,"Read Version D","Dissertation, read only version D",TEMPER,TANTRUM,Study2,S,154,100,Study,User,-,,Study/JOL,"Study Phase",1327,,,-1,-1,,,,1
w10079303,wwial22qmk,Nick_Dissertation_EX1,1,73,2020-04-19T18:46:23-07:00,2.1011888980865,4,versionC_stim.csv,READVersionD.csv,"Read Version D","Dissertation, read only version D",BRAWL,FIGHT,Study2,F,135,116,Study,User,-,,Study/JOL,"Study Phase",1738,,,-1,-1,,,,1
w10079303,wwial22qmk,Nick_Dissertation_EX1,1,74,2020-04-19T18:46:26-07:00,2.5859940052032,4,versionC_stim.csv,READVersionD.csv,"Read Version D","Dissertation, read only version D",STEAK,GIVE,Study2,U,158,123,Study,User,-,,Study/JOL,"Study Phase",2217,,,-1,-1,,,,1
w10079303,wwial22qmk,Nick_Dissertation_EX1,1,75,2020-04-19T18:46:34-07:00,8.7938220500946,4,versionC_stim.csv,READVersionD.csv,"Read Version D","Dissertation, read only version D",SCISSORS,SHEARS,Study2,B,112,110,Study,User,-,,Study/JOL,"Study Phase",8430,,,-1,-1,,,,1
w10079303,wwial22qmk,Nick_Dissertation_EX1,1,76,2020-04-19T18:46:37-07:00,2.8068380355835,4,versionC_stim.csv,READVersionD.csv,"Read Version D","Dissertation, read only version D",AIRCRAFT,PLANE,Study2,F,129,102,Study,User,-,,Study/JOL,"Study Phase",2410,,,-1,-1,,,,1
w10079303,wwial22qmk,Nick_Dissertation_EX1,1,77,2020-04-19T18:46:39-07:00,1.9530208110809,4,versionC_stim.csv,READVersionD.csv,"Read Version D","Dissertation, read only version D",MYSTERY,DETECTIVE,Study2,B,100,141,Study,User,-,,Study/JOL,"Study Phase",1588,,,-1,-1,,,,1
w10079303,wwial22qmk,Nick_Dissertation_EX1,1,78,2020-04-19T18:46:41-07:00,1.4374361038208,4,versionC_stim.csv,READVersionD.csv,"Read Version D","Dissertation, read only version D",OUNCE,BOTH,Study2,U,172,106,Study,User,-,,Study/JOL,"Study Phase",1073,,,-1,-1,,,,1
w10079303,wwial22qmk,Nick_Dissertation_EX1,1,79,2020-04-19T18:46:42-07:00,1.685751914978,4,versionC_stim.csv,READVersionD.csv,"Read Version D","Dissertation, read only version D",Morning,TEMPERATURE,Study2,U,173,175,Study,User,-,,Study/JOL,"Study Phase",1315,,,-1,-1,,,,1
w10079303,wwial22qmk,Nick_Dissertation_EX1,1,80,2020-04-19T18:46:45-07:00,3.2255411148071,4,versionC_stim.csv,READVersionD.csv,"Read Version D","Dissertation, read only version D",WET,DRY,Study2,S,146,153,Study,User,-,,Study/JOL,"Study Phase",2856,,,-1,-1,,,,1
w10079303,wwial22qmk,Nick_Dissertation_EX1,1,81,2020-04-19T18:46:49-07:00,3.7250769138336,4,versionC_stim.csv,READVersionD.csv,"Read Version D","Dissertation, read only version D",HAVE,OWN,Study2,S,153,148,Study,User,-,,Study/JOL,"Study Phase",3299,,,-1,-1,,,,1
w10079303,wwial22qmk,Nick_Dissertation_EX1,1,82,2020-04-19T18:46:51-07:00,1.5890820026398,4,versionC_stim.csv,READVersionD.csv,"Read Version D","Dissertation, read only version D",CHARM,VEHICLE,Study2,U,160,142,Study,User,-,,Study/JOL,"Study Phase",1198,,,-1,-1,,,,1
w10079303,wwial22qmk,Nick_Dissertation_EX1,1,83,2020-04-19T18:46:52-07:00,1.6430430412292,4,versionC_stim.csv,READVersionD.csv,"Read Version D","Dissertation, read only version D",JOKE,KEYS,Study2,U,165,98,Study,User,-,,Study/JOL,"Study Phase",1277,,,-1,-1,,,,1
w10079303,wwial22qmk,Nick_Dissertation_EX1,1,84,2020-04-19T18:46:54-07:00,1.6019520759583,4,versionC_stim.csv,READVersionD.csv,"Read Version D","Dissertation, read only version D",HATE,NAME,Study2,U,167,163,Study,User,-,,Study/JOL,"Study Phase",1221,,,-1,-1,,,,1
w10079303,wwial22qmk,Nick_Dissertation_EX1,1,85,2020-04-19T18:46:55-07:00,1.4545478820801,4,versionC_stim.csv,READVersionD.csv,"Read Version D","Dissertation, read only version D",TRASH,LITTER,Study2,B,103,118,Study,User,-,,Study/JOL,"Study Phase",1112,,,-1,-1,,,,1
w10079303,wwial22qmk,Nick_Dissertation_EX1,1,86,2020-04-19T18:46:57-07:00,1.7358319759369,4,versionC_stim.csv,READVersionD.csv,"Read Version D","Dissertation, read only version D",MAROON,JUSTICE,Study2,U,156,122,Study,User,-,,Study/JOL,"Study Phase",1354,,,-1,-1,,,,1
w10079303,wwial22qmk,Nick_Dissertation_EX1,1,87,2020-04-19T18:46:59-07:00,1.5118961334229,4,versionC_stim.csv,READVersionD.csv,"Read Version D","Dissertation, read only version D",WEAKS,DAYS,BUFFER4,Buffer,176,181,Study,User,-,,Study/JOL,BUFFER2,1156,,,-1,-1,,,,1
w10079303,wwial22qmk,Nick_Dissertation_EX1,1,88,2020-04-19T18:47:01-07:00,1.8269789218903,4,versionC_stim.csv,READVersionD.csv,"Read Version D","Dissertation, read only version D",YEAR,MONTH,BUFFER4,Buffer,177,179,Study,User,-,,Study/JOL,BUFFER2,1464,,,-1,-1,,,,1
w10079303,wwial22qmk,Nick_Dissertation_EX1,1,89,2020-04-19T18:47:05-07:00,4.2696650028229,4,versionC_stim.csv,READVersionD.csv,"Read Version D","Dissertation, read only version D",SHED,TOOL,BUFFER4,Buffer,178,177,Study,User,-,,Study/JOL,BUFFER2,3901,,,-1,-1,,,,1
w10079303,wwial22qmk,Nick_Dissertation_EX1,1,90,2020-04-19T18:47:07-07:00,1.8372309207916,4,versionC_stim.csv,READVersionD.csv,"Read Version D","Dissertation, read only version D",MARCH,SPRING,BUFFER4,Buffer,179,180,Study,User,-,,Study/JOL,BUFFER2,1461,,,-1,-1,,,,1
w10079303,wwial22qmk,Nick_Dissertation_EX1,1,91,2020-04-19T18:47:09-07:00,1.8929290771484,4,versionC_stim.csv,READVersionD.csv,"Read Version D","Dissertation, read only version D",SPOOKY,OCTOBER,BUFFER4,Buffer,180,178,Study,User,-,,Study/JOL,BUFFER2,1518,,,-1,-1,,,,1
w10079303,wwial22qmk,Nick_Dissertation_EX1,1,92,2020-04-19T18:47:12-07:00,3.2726061344147,4,versionC_stim.csv,READVersionD.csv,"Read Version D","Dissertation, read only version D",,,,,,0,Instruct,User,-,"You have completed this section. Please press Enter.",Filler_Instruction,Instruct2,2917,,,-1,-1,,,,1
w10079303,wwial22qmk,Nick_Dissertation_EX1,1,93,2020-04-19T18:49:12-07:00,120.53210401535,4,versionC_stim.csv,READVersionD.csv,"Read Version D","Dissertation, read only version D",,,,,,0,FreeRecall,120,120,"Please list the 50 US states in alphabetical order. The task will automatically advance to the next screen after two minutes.",,Filler1,120019,"Alabama Alaska Arizona Arkansas Hawaii Michigan Minnesota New Jersey New York",0,9771,116082,0,0,,1
w10079303,wwial22qmk,Nick_Dissertation_EX1,1,94,2020-04-19T18:49:31-07:00,18.830346822739,4,versionC_stim.csv,READVersionD.csv,"Read Version D","Dissertation, read only version D",,,,,,0,Instruct,-,10,"You will now be presented with the first word from each of the previously studied item pairs. Please type the missing word. If you do not know the word, you may guess or press Enter to skip forward to the next pair.",,Instruct3,18333,,,-1,-1,,,,1
w10079303,wwial22qmk,Nick_Dissertation_EX1,1,95,2020-04-19T18:49:36-07:00,4.4169771671295,4,versionC_stim.csv,READVersionD.csv,"Read Version D","Dissertation, read only version D",BRACELET,WRIST,Study2,S,140,125,Test,User,-,,Recall,Recall1,4050,wrist,100,2088,3013,1,1,,1
w10079303,wwial22qmk,Nick_Dissertation_EX1,1,96,2020-04-19T18:49:42-07:00,6.088672876358,4,versionC_stim.csv,READVersionD.csv,"Read Version D","Dissertation, read only version D",WAX,CANDLE,Study2,S,139,105,Test,User,-,,Recall,Recall1,5718,candle,100,3013,4667,1,1,,1
w10079303,wwial22qmk,Nick_Dissertation_EX1,1,97,2020-04-19T18:49:45-07:00,3.5074760913849,4,versionC_stim.csv,READVersionD.csv,"Read Version D","Dissertation, read only version D",WET,DRY,Study2,S,146,153,Test,User,-,,Recall,Recall1,3127,,0,-1,-1,0,0,,1
w10079303,wwial22qmk,Nick_Dissertation_EX1,1,98,2020-04-19T18:49:54-07:00,8.3257009983063,4,versionC_stim.csv,READVersionD.csv,"Read Version D","Dissertation, read only version D",LONELY,ALONE,Study2,S,145,127,Test,User,-,,Recall,Recall1,7912,Alone,100,3160,7028,1,1,,1
w10079303,wwial22qmk,Nick_Dissertation_EX1,1,99,2020-04-19T18:49:59-07:00,5.178050994873,4,versionC_stim.csv,READVersionD.csv,"Read Version D","Dissertation, read only version D",JOKE,KEYS,Study2,U,165,98,Test,User,-,,Recall,Recall1,4817,funny,22.222222222222,2424,3864,0,0,,1
w10079303,wwial22qmk,Nick_Dissertation_EX1,1,100,2020-04-19T18:50:02-07:00,3.6120309829712,4,versionC_stim.csv,READVersionD.csv,"Read Version D","Dissertation, read only version D",WINDSHIELD,CAR,Study2,F,117,160,Test,User,-,,Recall,Recall1,3256,car,100,2072,2376,1,1,,1
w10079303,wwial22qmk,Nick_Dissertation_EX1,1,101,2020-04-19T18:50:10-07:00,7.2928450107574,4,versionC_stim.csv,READVersionD.csv,"Read Version D","Dissertation, read only version D",CHARM,VEHICLE,Study2,U,160,142,Test,User,-,,Recall,Recall1,6909,"bracelet ",40,4050,5290,0,0,,1
w10079303,wwial22qmk,Nick_Dissertation_EX1,1,102,2020-04-19T18:50:13-07:00,2.999253988266,4,versionC_stim.csv,READVersionD.csv,"Read Version D","Dissertation, read only version D",BALLOON,POP,Study2,F,123,140,Test,User,-,,Recall,Recall1,2631,,0,-1,-1,0,0,,1
w10079303,wwial22qmk,Nick_Dissertation_EX1,1,103,2020-04-19T18:50:18-07:00,5.6888809204102,4,versionC_stim.csv,READVersionD.csv,"Read Version D","Dissertation, read only version D",GROUND,EARTH,Study2,S,144,150,Test,User,-,,Recall,Recall1,5328,"earth ",100,2111,3427,1,1,,1
w10079303,wwial22qmk,Nick_Dissertation_EX1,1,104,2020-04-19T18:50:21-07:00,2.3984570503235,4,versionC_stim.csv,READVersionD.csv,"Read Version D","Dissertation, read only version D",ABLE,CRACKLE,Study2,U,162,97,Test,User,-,,Recall,Recall1,2013,,0,-1,-1,0,0,,1
w10079303,wwial22qmk,Nick_Dissertation_EX1,1,105,2020-04-19T18:50:25-07:00,4.1119430065155,4,versionC_stim.csv,READVersionD.csv,"Read Version D","Dissertation, read only version D",DRINK,WATER,Study2,S,143,138,Test,User,-,,Recall,Recall1,3628,water,100,1994,2775,1,1,,1
w10079303,wwial22qmk,Nick_Dissertation_EX1,1,106,2020-04-19T18:50:28-07:00,2.7813239097595,4,versionC_stim.csv,READVersionD.csv,"Read Version D","Dissertation, read only version D",CHILDREN,MIRROR,Study2,U,174,173,Test,User,-,,Recall,Recall1,2408,,0,-1,-1,0,0,,1
w10079303,wwial22qmk,Nick_Dissertation_EX1,1,107,2020-04-19T18:50:31-07:00,3.6775240898132,4,versionC_stim.csv,READVersionD.csv,"Read Version D","Dissertation, read only version D",TRASH,LITTER,Study2,B,103,118,Test,User,-,,Recall,Recall1,3304,,0,-1,-1,0,0,,1
w10079303,wwial22qmk,Nick_Dissertation_EX1,1,108,2020-04-19T18:50:36-07:00,4.3337569236755,4,versionC_stim.csv,READVersionD.csv,"Read Version D","Dissertation, read only version D",OBTAIN,MEAT,Study2,U,161,104,Test,User,-,,Recall,Recall1,3826,,0,-1,-1,0,0,,1
w10079303,wwial22qmk,Nick_Dissertation_EX1,1,109,2020-04-19T18:50:41-07:00,5.5560779571533,4,versionC_stim.csv,READVersionD.csv,"Read Version D","Dissertation, read only version D",BREAKABLE,GLASS,Study2,F,127,154,Test,User,-,,Recall,Recall1,4996,Glass,100,2873,4276,1,1,,1
w10079303,wwial22qmk,Nick_Dissertation_EX1,1,110,2020-04-19T18:50:47-07:00,6.2237660884857,4,versionC_stim.csv,READVersionD.csv,"Read Version D","Dissertation, read only version D",EQUAL,RIGHTS,Study2,S,137,158,Test,User,-,,Recall,Recall1,5643,rights,100,1935,3143,1,1,,1
w10079303,wwial22qmk,Nick_Dissertation_EX1,1,111,2020-04-19T18:50:52-07:00,4.8915839195251,4,versionC_stim.csv,READVersionD.csv,"Read Version D","Dissertation, read only version D",ACTRESS,STAR,Study2,F,120,156,Test,User,-,,Recall,Recall1,4275,star,100,2901,3339,1,1,,1
w10079303,wwial22qmk,Nick_Dissertation_EX1,1,112,2020-04-19T18:50:58-07:00,5.6656692028046,4,versionC_stim.csv,READVersionD.csv,"Read Version D","Dissertation, read only version D",LONG,EXTENSION,Study2,B,96,126,Test,User,-,,Recall,Recall1,4806,extension,100,1765,3749,1,1,,1
w10079303,wwial22qmk,Nick_Dissertation_EX1,1,113,2020-04-19T18:51:04-07:00,6.0673928260803,4,versionC_stim.csv,READVersionD.csv,"Read Version D","Dissertation, read only version D",PENGUIN,BIRD,Study2,F,119,128,Test,User,-,,Recall,Recall1,5244,bird,100,3459,4344,1,1,,1
w10079303,wwial22qmk,Nick_Dissertation_EX1,1,114,2020-04-19T18:51:07-07:00,3.1570580005646,4,versionC_stim.csv,READVersionD.csv,"Read Version D","Dissertation, read only version D",COLD,CHILL,Study2,B,114,167,Test,User,-,,Recall,Recall1,2562,,0,-1,-1,0,0,,1
w10079303,wwial22qmk,Nick_Dissertation_EX1,1,115,2020-04-19T18:51:13-07:00,6.0266320705414,4,versionC_stim.csv,READVersionD.csv,"Read Version D","Dissertation, read only version D",TRUTHFUL,HONEST,Study2,F,133,157,Test,User,-,,Recall,Recall1,5129,honest,100,3290,4273,1,1,,1
w10079303,wwial22qmk,Nick_Dissertation_EX1,1,116,2020-04-19T18:51:17-07:00,3.796844959259,4,versionC_stim.csv,READVersionD.csv,"Read Version D","Dissertation, read only version D",HATE,NAME,Study2,U,167,163,Test,User,-,,Recall,Recall1,2090,,0,-1,-1,0,0,,1
w10079303,wwial22qmk,Nick_Dissertation_EX1,1,117,2020-04-19T18:51:22-07:00,4.7916169166565,4,versionC_stim.csv,READVersionD.csv,"Read Version D","Dissertation, read only version D",REEL,ROD,Study2,S,150,109,Test,User,-,,Recall,Recall1,4131,,0,-1,-1,0,0,,1
w10079303,wwial22qmk,Nick_Dissertation_EX1,1,118,2020-04-19T18:51:26-07:00,4.5991520881653,4,versionC_stim.csv,READVersionD.csv,"Read Version D","Dissertation, read only version D",SHAVE,RAZOR,Study2,S,136,121,Test,User,-,,Recall,Recall1,3948,razor,100,2091,3097,1,1,,1
w10079303,wwial22qmk,Nick_Dissertation_EX1,1,119,2020-04-19T18:51:31-07:00,4.5475630760193,4,versionC_stim.csv,READVersionD.csv,"Read Version D","Dissertation, read only version D",NAP,SLEEP,Study2,F,134,139,Test,User,-,,Recall,Recall1,3889,sleep,100,2289,3022,1,1,,1
w10079303,wwial22qmk,Nick_Dissertation_EX1,1,120,2020-04-19T18:51:36-07:00,4.8779089450836,4,versionC_stim.csv,READVersionD.csv,"Read Version D","Dissertation, read only version D",SMELL,INCENSE,Study2,B,110,117,Test,User,-,,Recall,Recall1,3331,,0,-1,-1,0,0,,1
w10079303,wwial22qmk,Nick_Dissertation_EX1,1,121,2020-04-19T18:51:42-07:00,6.4195110797882,4,versionC_stim.csv,READVersionD.csv,"Read Version D","Dissertation, read only version D",CLOTH,STRETCH,Study2,U,157,164,Test,User,-,,Recall,Recall1,5317,,0,-1,-1,0,0,,1
w10079303,wwial22qmk,Nick_Dissertation_EX1,1,122,2020-04-19T18:51:48-07:00,5.465451002121,4,versionC_stim.csv,READVersionD.csv,"Read Version D","Dissertation, read only version D",SCISSORS,SHEARS,Study2,B,112,110,Test,User,-,,Recall,Recall1,3917,shear,90.909090909091,2009,2900,0,1,,1
w10079303,wwial22qmk,Nick_Dissertation_EX1,1,123,2020-04-19T18:51:55-07:00,6.8952898979187,4,versionC_stim.csv,READVersionD.csv,"Read Version D","Dissertation, read only version D",EAT,DINE,Study2,B,111,159,Test,User,-,,Recall,Recall1,4529,sleep,22.222222222222,2922,3672,0,0,,1
w10079303,wwial22qmk,Nick_Dissertation_EX1,1,124,2020-04-19T18:51:59-07:00,4.7885999679565,4,versionC_stim.csv,READVersionD.csv,"Read Version D","Dissertation, read only version D",HAVE,OWN,Study2,S,153,148,Test,User,-,,Recall,Recall1,3780,,0,-1,-1,0,0,,1
w10079303,wwial22qmk,Nick_Dissertation_EX1,1,125,2020-04-19T18:52:06-07:00,6.8178291320801,4,versionC_stim.csv,READVersionD.csv,"Read Version D","Dissertation, read only version D",FIGHT,FEUD,Study2,B,113,165,Test,User,-,,Recall,Recall1,5972,fued,75,3185,4899,0,1,,1
w10079303,wwial22qmk,Nick_Dissertation_EX1,1,126,2020-04-19T18:52:10-07:00,3.3185238838196,4,versionC_stim.csv,READVersionD.csv,"Read Version D","Dissertation, read only version D",LOVE,AFFECTION,Study2,B,115,147,Test,User,-,,Recall,Recall1,2511,,0,-1,-1,0,0,,1
w10079303,wwial22qmk,Nick_Dissertation_EX1,1,127,2020-04-19T18:52:16-07:00,6.303337097168,4,versionC_stim.csv,READVersionD.csv,"Read Version D","Dissertation, read only version D",CUT,CHOP,Study2,B,107,113,Test,User,-,,Recall,Recall1,5580,tear,0,2306,4730,0,0,,1
w10079303,wwial22qmk,Nick_Dissertation_EX1,1,128,2020-04-19T18:52:20-07:00,4.4215159416199,4,versionC_stim.csv,READVersionD.csv,"Read Version D","Dissertation, read only version D",PLANT,CACTUS,Study2,B,98,133,Test,User,-,,Recall,Recall1,3984,cactus,100,1930,2991,1,1,,1
w10079303,wwial22qmk,Nick_Dissertation_EX1,1,129,2020-04-19T18:52:24-07:00,4.0598359107971,4,versionC_stim.csv,READVersionD.csv,"Read Version D","Dissertation, read only version D",TOIL,LEASE,Study2,U,170,145,Test,User,-,,Recall,Recall1,3459,,0,-1,-1,0,0,,1
w10079303,wwial22qmk,Nick_Dissertation_EX1,1,130,2020-04-19T18:52:29-07:00,4.411544084549,4,versionC_stim.csv,READVersionD.csv,"Read Version D","Dissertation, read only version D",NOISE,LOUD,Study2,S,152,172,Test,User,-,,Recall,Recall1,3962,loud,100,2180,3080,1,1,,1
w10079303,wwial22qmk,Nick_Dissertation_EX1,1,131,2020-04-19T18:52:34-07:00,5.6958210468292,4,versionC_stim.csv,READVersionD.csv,"Read Version D","Dissertation, read only version D",RED,CHERRY,Study2,B,104,174,Test,User,-,,Recall,Recall1,4708,cherry,100,2709,3782,1,1,,1
w10079303,wwial22qmk,Nick_Dissertation_EX1,1,132,2020-04-19T18:52:39-07:00,4.6128659248352,4,versionC_stim.csv,READVersionD.csv,"Read Version D","Dissertation, read only version D",BRAWL,FIGHT,Study2,F,135,116,Test,User,-,,Recall,Recall1,3547,fight,100,1915,2711,1,1,,1
w10079303,wwial22qmk,Nick_Dissertation_EX1,1,133,2020-04-19T18:52:46-07:00,6.67551612854,4,versionC_stim.csv,READVersionD.csv,"Read Version D","Dissertation, read only version D",Morning,TEMPERATURE,Study2,U,173,175,Test,User,-,,Recall,Recall1,6302,"temperature ",100,2643,4548,1,1,,1
w10079303,wwial22qmk,Nick_Dissertation_EX1,1,134,2020-04-19T18:52:51-07:00,4.9366128444672,4,versionC_stim.csv,READVersionD.csv,"Read Version D","Dissertation, read only version D",TICK,FLEA,Study2,S,151,144,Test,User,-,,Recall,Recall1,4564,flea,100,2398,3741,1,1,,1
w10079303,wwial22qmk,Nick_Dissertation_EX1,1,135,2020-04-19T18:53:03-07:00,12.714596033096,4,versionC_stim.csv,READVersionD.csv,"Read Version D","Dissertation, read only version D",FICTION,LISTEN,Study2,U,164,152,Test,User,-,,Recall,Recall1,12236,,0,-1,-1,0,0,,1
w10079303,wwial22qmk,Nick_Dissertation_EX1,1,136,2020-04-19T18:53:11-07:00,7.3968889713287,4,versionC_stim.csv,READVersionD.csv,"Read Version D","Dissertation, read only version D",SHAKE,Shell,Study2,U,163,131,Test,User,-,,Recall,Recall1,7024,,0,-1,-1,0,0,,1
w10079303,wwial22qmk,Nick_Dissertation_EX1,1,137,2020-04-19T18:53:16-07:00,5.6629929542542,4,versionC_stim.csv,READVersionD.csv,"Read Version D","Dissertation, read only version D",FLIP,TURN,Study2,F,116,99,Test,User,-,,Recall,Recall1,5294,turn,100,3569,4300,1,1,,1
w10079303,wwial22qmk,Nick_Dissertation_EX1,1,138,2020-04-19T18:53:20-07:00,4.0026280879974,4,versionC_stim.csv,READVersionD.csv,"Read Version D","Dissertation, read only version D",SARDINE,FISH,Study2,F,130,124,Test,User,-,,Recall,Recall1,3627,fish,100,2103,2735,1,1,,1
w10079303,wwial22qmk,Nick_Dissertation_EX1,1,139,2020-04-19T18:53:24-07:00,4.062961101532,4,versionC_stim.csv,READVersionD.csv,"Read Version D","Dissertation, read only version D",COFFIN,DEAD,Study2,F,128,176,Test,User,-,,Recall,Recall1,3712,dead,100,1838,2352,1,1,,1
w10079303,wwial22qmk,Nick_Dissertation_EX1,1,140,2020-04-19T18:53:54-07:00,29.435949802399,4,versionC_stim.csv,READVersionD.csv,"Read Version D","Dissertation, read only version D",THIMBLE,THREAD,Study2,F,121,146,Test,User,-,,Recall,Recall1,28882,"thanks ",50,1981,26205,0,0,,1
w10079303,wwial22qmk,Nick_Dissertation_EX1,1,141,2020-04-19T18:53:59-07:00,4.9388930797577,4,versionC_stim.csv,READVersionD.csv,"Read Version D","Dissertation, read only version D",CAR,DRIVER,Study2,B,106,168,Test,User,-,,Recall,Recall1,4319,,0,-1,-1,0,0,,1
w10079303,wwial22qmk,Nick_Dissertation_EX1,1,142,2020-04-19T18:54:03-07:00,3.6736969947815,4,versionC_stim.csv,READVersionD.csv,"Read Version D","Dissertation, read only version D",GAME,CLUE,Study2,B,97,171,Test,User,-,,Recall,Recall1,3282,play,25,1981,2460,0,0,,1
w10079303,wwial22qmk,Nick_Dissertation_EX1,1,143,2020-04-19T18:54:08-07:00,4.9805159568787,4,versionC_stim.csv,READVersionD.csv,"Read Version D","Dissertation, read only version D",STRAWBERRY,FRUIT,Study2,F,124,143,Test,User,-,,Recall,Recall1,4579,fruit,100,1772,3670,1,1,,1
w10079303,wwial22qmk,Nick_Dissertation_EX1,1,144,2020-04-19T18:54:13-07:00,5.0148780345917,4,versionC_stim.csv,READVersionD.csv,"Read Version D","Dissertation, read only version D",CLOTHES,CAKE,Study2,U,166,101,Test,User,-,,Recall,Recall1,4618,wear,25,3019,3715,0,0,,1
w10079303,wwial22qmk,Nick_Dissertation_EX1,1,145,2020-04-19T18:54:17-07:00,4.3110210895538,4,versionC_stim.csv,READVersionD.csv,"Read Version D","Dissertation, read only version D",DOG,FURRY,Study2,B,102,161,Test,User,-,,Recall,Recall1,3916,furry,100,1991,2972,1,1,,1
w10079303,wwial22qmk,Nick_Dissertation_EX1,1,146,2020-04-19T18:54:23-07:00,5.7940449714661,4,versionC_stim.csv,READVersionD.csv,"Read Version D","Dissertation, read only version D",END,ADJOURN,Study2,B,101,130,Test,User,-,,Recall,Recall1,5447,adjourn,100,2839,4520,1,1,,1
w10079303,wwial22qmk,Nick_Dissertation_EX1,1,147,2020-04-19T18:54:29-07:00,6.6065130233765,4,versionC_stim.csv,READVersionD.csv,"Read Version D","Dissertation, read only version D",ELECTION,MAZE,Study2,U,159,149,Test,User,-,,Recall,Recall1,6223,year,25,3495,5326,0,0,,1
w10079303,wwial22qmk,Nick_Dissertation_EX1,1,148,2020-04-19T18:54:34-07:00,4.6372640132904,4,versionC_stim.csv,READVersionD.csv,"Read Version D","Dissertation, read only version D",SEATBELT,SAFETY,Study2,S,147,137,Test,User,-,,Recall,Recall1,4237,safety,100,1856,3350,1,1,,1
w10079303,wwial22qmk,Nick_Dissertation_EX1,1,149,2020-04-19T18:54:38-07:00,4.0702018737793,4,versionC_stim.csv,READVersionD.csv,"Read Version D","Dissertation, read only version D",AWAY,GONE,Study2,S,142,155,Test,User,-,,Recall,Recall1,3680,end,28.571428571429,2270,2874,0,0,,1
w10079303,wwial22qmk,Nick_Dissertation_EX1,1,150,2020-04-19T18:54:43-07:00,4.7257080078125,4,versionC_stim.csv,READVersionD.csv,"Read Version D","Dissertation, read only version D",TIE,SHOELACE,Study2,B,99,132,Test,User,-,,Recall,Recall1,4346,shoelace,100,2020,3518,1,1,,1
w10079303,wwial22qmk,Nick_Dissertation_EX1,1,151,2020-04-19T18:54:46-07:00,3.1535120010376,4,versionC_stim.csv,READVersionD.csv,"Read Version D","Dissertation, read only version D",CLEAR,MOAT,Study2,U,169,103,Test,User,-,,Recall,Recall1,2760,,0,-1,-1,0,0,,1
w10079303,wwial22qmk,Nick_Dissertation_EX1,1,152,2020-04-19T18:54:49-07:00,2.9529449939728,4,versionC_stim.csv,READVersionD.csv,"Read Version D","Dissertation, read only version D",CARBON,ELEMENT,Study2,S,141,136,Test,User,-,,Recall,Recall1,2578,,0,-1,-1,0,0,,1
w10079303,wwial22qmk,Nick_Dissertation_EX1,1,153,2020-04-19T18:54:53-07:00,4.3966979980469,4,versionC_stim.csv,READVersionD.csv,"Read Version D","Dissertation, read only version D",BANKER,MONEY,Study2,F,132,135,Test,User,-,,Recall,Recall1,4010,money,100,2026,3105,1,1,,1
w10079303,wwial22qmk,Nick_Dissertation_EX1,1,154,2020-04-19T18:54:58-07:00,5.1862261295319,4,versionC_stim.csv,READVersionD.csv,"Read Version D","Dissertation, read only version D",PAPER,DOCUMENT,Study2,B,109,129,Test,User,-,,Recall,Recall1,4830,document,100,2272,3937,1,1,,1
w10079303,wwial22qmk,Nick_Dissertation_EX1,1,155,2020-04-19T18:55:02-07:00,4.0871870517731,4,versionC_stim.csv,READVersionD.csv,"Read Version D","Dissertation, read only version D",BANG,FUZZY,Study2,U,168,112,Test,User,-,,Recall,Recall1,3705,,0,-1,-1,0,0,,1
w10079303,wwial22qmk,Nick_Dissertation_EX1,1,156,2020-04-19T18:55:07-07:00,4.3584427833557,4,versionC_stim.csv,READVersionD.csv,"Read Version D","Dissertation, read only version D",OUNCE,BOTH,Study2,U,172,106,Test,User,-,,Recall,Recall1,3964,pound,22.222222222222,2148,3178,0,0,,1
w10079303,wwial22qmk,Nick_Dissertation_EX1,1,157,2020-04-19T18:55:11-07:00,3.7568190097809,4,versionC_stim.csv,READVersionD.csv,"Read Version D","Dissertation, read only version D",COMMUNICATION,PHONE,Study2,S,149,134,Test,User,-,,Recall,Recall1,3312,phone,100,1661,2427,1,1,,1
w10079303,wwial22qmk,Nick_Dissertation_EX1,1,158,2020-04-19T18:55:16-07:00,5.8793799877167,4,versionC_stim.csv,READVersionD.csv,"Read Version D","Dissertation, read only version D",AIRCRAFT,PLANE,Study2,F,129,102,Test,User,-,,Recall,Recall1,5488,plane,100,3838,4662,1,1,,1
w10079303,wwial22qmk,Nick_Dissertation_EX1,1,159,2020-04-19T18:55:20-07:00,3.6536531448364,4,versionC_stim.csv,READVersionD.csv,"Read Version D","Dissertation, read only version D",TEMPER,TANTRUM,Study2,S,154,100,Test,User,-,,Recall,Recall1,3267,,0,-1,-1,0,0,,1
w10079303,wwial22qmk,Nick_Dissertation_EX1,1,160,2020-04-19T18:55:24-07:00,3.5757520198822,4,versionC_stim.csv,READVersionD.csv,"Read Version D","Dissertation, read only version D",PANTHER,CAT,Study2,F,126,162,Test,User,-,,Recall,Recall1,3120,cat,100,1829,2121,1,1,,1
w10079303,wwial22qmk,Nick_Dissertation_EX1,1,161,2020-04-19T18:55:29-07:00,5.1579968929291,4,versionC_stim.csv,READVersionD.csv,"Read Version D","Dissertation, read only version D",LEAGUE,BASEBALL,Study2,F,131,166,Test,User,-,,Recall,Recall1,4766,baseball,100,1941,3492,1,1,,1
w10079303,wwial22qmk,Nick_Dissertation_EX1,1,162,2020-04-19T18:55:34-07:00,5.1562881469727,4,versionC_stim.csv,READVersionD.csv,"Read Version D","Dissertation, read only version D",HEAD,SCALP,Study2,B,105,108,Test,User,-,,Recall,Recall1,4789,,0,-1,-1,0,0,,1
w10079303,wwial22qmk,Nick_Dissertation_EX1,1,163,2020-04-19T18:55:37-07:00,3.1613249778748,4,versionC_stim.csv,READVersionD.csv,"Read Version D","Dissertation, read only version D",MYSTERY,DETECTIVE,Study2,B,100,141,Test,User,-,,Recall,Recall1,2752,,0,-1,-1,0,0,,1
w10079303,wwial22qmk,Nick_Dissertation_EX1,1,164,2020-04-19T18:55:42-07:00,5.3302710056305,4,versionC_stim.csv,READVersionD.csv,"Read Version D","Dissertation, read only version D",FAVORITE,BEST,Study2,F,125,151,Test,User,-,,Recall,Recall1,4938,"best ",100,1798,3032,1,1,,1
w10079303,wwial22qmk,Nick_Dissertation_EX1,1,165,2020-04-19T18:55:47-07:00,4.3898768424988,4,versionC_stim.csv,READVersionD.csv,"Read Version D","Dissertation, read only version D",STEAK,GIVE,Study2,U,158,123,Test,User,-,,Recall,Recall1,4009,fish,25,2454,3055,0,0,,1
w10079303,wwial22qmk,Nick_Dissertation_EX1,1,166,2020-04-19T18:55:50-07:00,3.0423231124878,4,versionC_stim.csv,READVersionD.csv,"Read Version D","Dissertation, read only version D",SIGN,LOAN,Study2,U,171,170,Test,User,-,,Recall,Recall1,2437,,0,-1,-1,0,0,,1
w10079303,wwial22qmk,Nick_Dissertation_EX1,1,167,2020-04-19T18:55:53-07:00,3.4585540294647,4,versionC_stim.csv,READVersionD.csv,"Read Version D","Dissertation, read only version D",REVENGE,EVEN,Study2,F,122,115,Test,User,-,,Recall,Recall1,2458,,0,-1,-1,0,0,,1
w10079303,wwial22qmk,Nick_Dissertation_EX1,1,168,2020-04-19T18:55:57-07:00,3.5800359249115,4,versionC_stim.csv,READVersionD.csv,"Read Version D","Dissertation, read only version D",VILLAIN,BAD,Study2,F,118,169,Test,User,-,,Recall,Recall1,3045,bad,100,1870,2145,1,1,,1
w10079303,wwial22qmk,Nick_Dissertation_EX1,1,169,2020-04-19T18:56:00-07:00,3.3250811100006,4,versionC_stim.csv,READVersionD.csv,"Read Version D","Dissertation, read only version D",SCAR,MAIN,Study2,U,175,114,Test,User,-,,Recall,Recall1,2898,,0,-1,-1,0,0,,1
w10079303,wwial22qmk,Nick_Dissertation_EX1,1,170,2020-04-19T18:56:04-07:00,3.9003520011902,4,versionC_stim.csv,READVersionD.csv,"Read Version D","Dissertation, read only version D",DONKEY,MULE,Study2,B,108,111,Test,User,-,,Recall,Recall1,3510,mule,100,1913,2608,1,1,,1
w10079303,wwial22qmk,Nick_Dissertation_EX1,1,171,2020-04-19T18:56:07-07:00,2.7617089748383,4,versionC_stim.csv,READVersionD.csv,"Read Version D","Dissertation, read only version D",TAN,SUN,Study2,S,155,107,Test,User,-,,Recall,Recall1,2373,,0,-1,-1,0,0,,1
w10079303,wwial22qmk,Nick_Dissertation_EX1,1,172,2020-04-19T18:56:11-07:00,4.4885699748993,4,versionC_stim.csv,READVersionD.csv,"Read Version D","Dissertation, read only version D",LIE,TRUTH,Study2,S,148,119,Test,User,-,,Recall,Recall1,4130,,0,-1,-1,0,0,,1
w10079303,wwial22qmk,Nick_Dissertation_EX1,1,173,2020-04-19T18:56:26-07:00,14.314941883087,4,versionC_stim.csv,READVersionD.csv,"Read Version D","Dissertation, read only version D",JAR,MASON,Study2,S,138,120,Test,User,-,,Recall,Recall1,13810,,0,2180,9128,0,0,,1
w10079303,wwial22qmk,Nick_Dissertation_EX1,1,174,2020-04-19T18:56:28-07:00,2.7256290912628,4,versionC_stim.csv,READVersionD.csv,"Read Version D","Dissertation, read only version D",MAROON,JUSTICE,Study2,U,156,122,Test,User,-,,Recall,Recall1,2368,,0,-1,-1,0,0,,1
w10079303,wwial22qmk,Nick_Dissertation_EX1,1,175,2020-04-19T18:56:40-07:00,11.651417016983,4,versionC_stim.csv,READVersionD.csv,"Read Version D","Dissertation, read only version D",,,,,,0,Instruct,-,10,"You will now be presented with a new set of word pairs. Please study each pair. Remember that your memory will be tested! When finished, press Enter to move to the next pair.",Initial_Instruct,Instruct4,11253,,,-1,-1,,,,1
w10079303,wwial22qmk,Nick_Dissertation_EX1,1,176,2020-04-19T18:56:42-07:00,1.7496268749237,4,versionC_stim.csv,READVersionD.csv,"Read Version D","Dissertation, read only version D",JAM,SPACE,BUFFER1,Buffer,5,2,Study,User,-,,Study/JOL,BUFFER3,1357,,,-1,-1,,,,1
w10079303,wwial22qmk,Nick_Dissertation_EX1,1,177,2020-04-19T18:56:44-07:00,1.8883891105652,4,versionC_stim.csv,READVersionD.csv,"Read Version D","Dissertation, read only version D",HIDE,SCARE,BUFFER1,Buffer,4,4,Study,User,-,,Study/JOL,BUFFER3,1160,,,-1,-1,,,,1
w10079303,wwial22qmk,Nick_Dissertation_EX1,1,178,2020-04-19T18:56:54-07:00,10.210067987442,4,versionC_stim.csv,READVersionD.csv,"Read Version D","Dissertation, read only version D",GREEN,TREES,BUFFER1,Buffer,1,5,Study,User,-,,Study/JOL,BUFFER3,8777,,,-1,-1,,,,1
w10079303,wwial22qmk,Nick_Dissertation_EX1,1,179,2020-04-19T18:56:58-07:00,4.482234954834,4,versionC_stim.csv,READVersionD.csv,"Read Version D","Dissertation, read only version D",BUTTER,PEANUT,BUFFER1,Buffer,3,6,Study,User,-,,Study/JOL,BUFFER3,4031,,,-1,-1,,,,1
w10079303,wwial22qmk,Nick_Dissertation_EX1,1,180,2020-04-19T18:57:04-07:00,5.6034491062164,4,versionC_stim.csv,READVersionD.csv,"Read Version D","Dissertation, read only version D",CATCHER,BASEBALL,BUFFER1,Buffer,2,3,Study,User,-,,Study/JOL,BUFFER3,4806,,,-1,-1,,,,1
w10079303,wwial22qmk,Nick_Dissertation_EX1,1,181,2020-04-19T18:57:08-07:00,4.1624779701233,4,versionC_stim.csv,READVersionD.csv,"Read Version D","Dissertation, read only version D",CHILI,HOT,Study1,F,37,75,Study,User,-,,Study/JOL,"Study Phase2",3352,,,-1,-1,,,,1
w10079303,wwial22qmk,Nick_Dissertation_EX1,1,182,2020-04-19T18:57:15-07:00,6.3079440593719,4,versionC_stim.csv,READVersionD.csv,"Read Version D","Dissertation, read only version D",ROUND,CIRCLE,Study1,S,65,81,Study,User,-,,Study/JOL,"Study Phase2",5659,,,-1,-1,,,,1
w10079303,wwial22qmk,Nick_Dissertation_EX1,1,183,2020-04-19T18:57:17-07:00,2.7020988464355,4,versionC_stim.csv,READVersionD.csv,"Read Version D","Dissertation, read only version D",WASTE,DUMP,Study1,S,49,50,Study,User,-,,Study/JOL,"Study Phase2",2302,,,-1,-1,,,,1
w10079303,wwial22qmk,Nick_Dissertation_EX1,1,184,2020-04-19T18:57:22-07:00,4.9672880172729,4,versionC_stim.csv,READVersionD.csv,"Read Version D","Dissertation, read only version D",HUNGRY,PARK,Study1,U,68,48,Study,User,-,,Study/JOL,"Study Phase2",4528,,,-1,-1,,,,1
w10079303,wwial22qmk,Nick_Dissertation_EX1,1,185,2020-04-19T18:57:25-07:00,2.9109289646149,4,versionC_stim.csv,READVersionD.csv,"Read Version D","Dissertation, read only version D",ROCK,GEOLOGY,Study1,B,19,61,Study,User,-,,Study/JOL,"Study Phase2",2444,,,-1,-1,,,,1
w10079303,wwial22qmk,Nick_Dissertation_EX1,1,186,2020-04-19T18:57:28-07:00,2.5617051124573,4,versionC_stim.csv,READVersionD.csv,"Read Version D","Dissertation, read only version D",SIP,DRINK,Study1,F,27,44,Study,User,-,,Study/JOL,"Study Phase2",2179,,,-1,-1,,,,1
w10079303,wwial22qmk,Nick_Dissertation_EX1,1,187,2020-04-19T18:57:34-07:00,6.5735409259796,4,versionC_stim.csv,READVersionD.csv,"Read Version D","Dissertation, read only version D",HAND,FIX,Study1,U,75,49,Study,User,-,,Study/JOL,"Study Phase2",6160,,,-1,-1,,,,1
w10079303,wwial22qmk,Nick_Dissertation_EX1,1,188,2020-04-19T18:57:43-07:00,9.2169840335846,4,versionC_stim.csv,READVersionD.csv,"Read Version D","Dissertation, read only version D",DOG,PAW,Study1,B,15,53,Study,User,-,,Study/JOL,"Study Phase2",8635,,,-1,-1,,,,1
w10079303,wwial22qmk,Nick_Dissertation_EX1,1,189,2020-04-19T18:57:50-07:00,7.0010950565338,4,versionC_stim.csv,READVersionD.csv,"Read Version D","Dissertation, read only version D",BAD,DELINQUENT,Study1,B,6,60,Study,User,-,,Study/JOL,"Study Phase2",6198,,,-1,-1,,,,1
w10079303,wwial22qmk,Nick_Dissertation_EX1,1,190,2020-04-19T18:57:53-07:00,2.3607239723206,4,versionC_stim.csv,READVersionD.csv,"Read Version D","Dissertation, read only version D",BIRD,SWAN,Study1,B,14,14,Study,User,-,,Study/JOL,"Study Phase2",1693,,,-1,-1,,,,1
w10079303,wwial22qmk,Nick_Dissertation_EX1,1,191,2020-04-19T18:57:55-07:00,2.4498970508575,4,versionC_stim.csv,READVersionD.csv,"Read Version D","Dissertation, read only version D",HAMMER,CHISEL,Study1,B,9,42,Study,User,-,,Study/JOL,"Study Phase2",1774,,,-1,-1,,,,1
w10079303,wwial22qmk,Nick_Dissertation_EX1,1,192,2020-04-19T18:57:58-07:00,2.2855739593506,4,versionC_stim.csv,READVersionD.csv,"Read Version D","Dissertation, read only version D",LION,ART,Study1,U,79,28,Study,User,-,,Study/JOL,"Study Phase2",1739,,,-1,-1,,,,1
w10079303,wwial22qmk,Nick_Dissertation_EX1,1,193,2020-04-19T18:58:08-07:00,9.9745950698853,4,versionC_stim.csv,READVersionD.csv,"Read Version D","Dissertation, read only version D",ASSIGNMENT,DUE,Study1,S,46,8,Study,User,-,,Study/JOL,"Study Phase2",9482,,,-1,-1,,,,1
w10079303,wwial22qmk,Nick_Dissertation_EX1,1,194,2020-04-19T18:58:09-07:00,1.8900978565216,4,versionC_stim.csv,READVersionD.csv,"Read Version D","Dissertation, read only version D",COW,HERD,Study1,B,22,7,Study,User,-,,Study/JOL,"Study Phase2",1443,,,-1,-1,,,,1
w10079303,wwial22qmk,Nick_Dissertation_EX1,1,195,2020-04-19T18:58:13-07:00,3.8392219543457,4,versionC_stim.csv,READVersionD.csv,"Read Version D","Dissertation, read only version D",WASP,BUG,Study1,F,32,62,Study,User,-,,Study/JOL,"Study Phase2",3124,,,-1,-1,,,,1
w10079303,wwial22qmk,Nick_Dissertation_EX1,1,196,2020-04-19T18:58:15-07:00,2.0394990444183,4,versionC_stim.csv,READVersionD.csv,"Read Version D","Dissertation, read only version D",RACKET,BALL,Study1,F,38,10,Study,User,-,,Study/JOL,"Study Phase2",1528,,,-1,-1,,,,1
w10079303,wwial22qmk,Nick_Dissertation_EX1,1,197,2020-04-19T18:58:17-07:00,2.0163249969482,4,versionC_stim.csv,READVersionD.csv,"Read Version D","Dissertation, read only version D",FLOOR,DISCOVER,Study1,U,71,20,Study,User,-,,Study/JOL,"Study Phase2",1615,,,-1,-1,,,,1
w10079303,wwial22qmk,Nick_Dissertation_EX1,1,198,2020-04-19T18:58:20-07:00,2.2632479667664,4,versionC_stim.csv,READVersionD.csv,"Read Version D","Dissertation, read only version D",GROWTH,HEIGHT,Study1,F,30,80,Study,User,-,,Study/JOL,"Study Phase2",1823,,,-1,-1,,,,1
w10079303,wwial22qmk,Nick_Dissertation_EX1,1,199,2020-04-19T18:59:08-07:00,48.594957113266,4,versionC_stim.csv,READVersionD.csv,"Read Version D","Dissertation, read only version D",COLD,BITTER,Study1,B,12,76,Study,User,-,,Study/JOL,"Study Phase2",48050,,,-1,-1,,,,1
w10079303,wwial22qmk,Nick_Dissertation_EX1,1,200,2020-04-19T18:59:10-07:00,1.5801508426666,4,versionC_stim.csv,READVersionD.csv,"Read Version D","Dissertation, read only version D",PLANT,ROOT,Study1,B,13,78,Study,User,-,,Study/JOL,"Study Phase2",1187,,,-1,-1,,,,1
w10079303,wwial22qmk,Nick_Dissertation_EX1,1,201,2020-04-19T18:59:11-07:00,1.6489779949188,4,versionC_stim.csv,READVersionD.csv,"Read Version D","Dissertation, read only version D",LIVER,KIDNEY,Study1,S,53,86,Study,User,-,,Study/JOL,"Study Phase2",1272,,,-1,-1,,,,1
w10079303,wwial22qmk,Nick_Dissertation_EX1,1,202,2020-04-19T18:59:13-07:00,2.0853290557861,4,versionC_stim.csv,READVersionD.csv,"Read Version D","Dissertation, read only version D",CAR,HAPPY,Study1,U,77,65,Study,User,-,,Study/JOL,"Study Phase2",1721,,,-1,-1,,,,1
w10079303,wwial22qmk,Nick_Dissertation_EX1,1,203,2020-04-19T18:59:17-07:00,3.4276921749115,4,versionC_stim.csv,READVersionD.csv,"Read Version D","Dissertation, read only version D",CLUTTER,PUSHER,Study1,U,66,15,Study,User,-,,Study/JOL,"Study Phase2",3020,,,-1,-1,,,,1
w10079303,wwial22qmk,Nick_Dissertation_EX1,1,204,2020-04-19T18:59:19-07:00,1.9827218055725,4,versionC_stim.csv,READVersionD.csv,"Read Version D","Dissertation, read only version D",SALAD,LETTUCE,Study1,S,59,31,Study,User,-,,Study/JOL,"Study Phase2",1596,,,-1,-1,,,,1
w10079303,wwial22qmk,Nick_Dissertation_EX1,1,205,2020-04-19T18:59:23-07:00,4.1622459888458,4,versionC_stim.csv,READVersionD.csv,"Read Version D","Dissertation, read only version D",WAR,REVOLUTION,Study1,B,20,57,Study,User,-,,Study/JOL,"Study Phase2",3751,,,-1,-1,,,,1
w10079303,wwial22qmk,Nick_Dissertation_EX1,1,206,2020-04-19T18:59:25-07:00,1.6876490116119,4,versionC_stim.csv,READVersionD.csv,"Read Version D","Dissertation, read only version D",SICK,HIDE,Study1,U,84,24,Study,User,-,,Study/JOL,"Study Phase2",1283,,,-1,-1,,,,1
w10079303,wwial22qmk,Nick_Dissertation_EX1,1,207,2020-04-19T18:59:26-07:00,1.7494740486145,4,versionC_stim.csv,READVersionD.csv,"Read Version D","Dissertation, read only version D",WIND,BLOW,Study1,S,55,39,Study,User,-,,Study/JOL,"Study Phase2",1328,,,-1,-1,,,,1
w10079303,wwial22qmk,Nick_Dissertation_EX1,1,208,2020-04-19T18:59:33-07:00,6.4864549636841,4,versionC_stim.csv,READVersionD.csv,"Read Version D","Dissertation, read only version D",END,BEGIN,Study1,S,54,52,Study,User,-,,Study/JOL,"Study Phase2",6113,,,-1,-1,,,,1
w10079303,wwial22qmk,Nick_Dissertation_EX1,1,209,2020-04-19T18:59:35-07:00,2.1499221324921,4,versionC_stim.csv,READVersionD.csv,"Read Version D","Dissertation, read only version D",AMOUNT,NUMBER,Study1,S,47,40,Study,User,-,,Study/JOL,"Study Phase2",1770,,,-1,-1,,,,1
w10079303,wwial22qmk,Nick_Dissertation_EX1,1,210,2020-04-19T18:59:37-07:00,1.7059409618378,4,versionC_stim.csv,READVersionD.csv,"Read Version D","Dissertation, read only version D",WATER,BRIDGE,Study1,B,18,37,Study,User,-,,Study/JOL,"Study Phase2",1307,,,-1,-1,,,,1
w10079303,wwial22qmk,Nick_Dissertation_EX1,1,211,2020-04-19T18:59:38-07:00,1.5719799995422,4,versionC_stim.csv,READVersionD.csv,"Read Version D","Dissertation, read only version D",NEWS,EDITOR,Study1,B,10,47,Study,User,-,,Study/JOL,"Study Phase2",1177,,,-1,-1,,,,1
w10079303,wwial22qmk,Nick_Dissertation_EX1,1,212,2020-04-19T18:59:40-07:00,1.7458410263062,4,versionC_stim.csv,READVersionD.csv,"Read Version D","Dissertation, read only version D",ATTIRE,CLOTHES,Study1,F,43,54,Study,User,-,,Study/JOL,"Study Phase2",1289,,,-1,-1,,,,1
w10079303,wwial22qmk,Nick_Dissertation_EX1,1,213,2020-04-19T18:59:43-07:00,2.4655289649963,4,versionC_stim.csv,READVersionD.csv,"Read Version D","Dissertation, read only version D",CHORE,WORK,Study1,F,39,17,Study,User,-,,Study/JOL,"Study Phase2",2034,,,-1,-1,,,,1
w10079303,wwial22qmk,Nick_Dissertation_EX1,1,214,2020-04-19T18:59:45-07:00,2.3095269203186,4,versionC_stim.csv,READVersionD.csv,"Read Version D","Dissertation, read only version D",WORD,SENTENCE,Study1,F,31,67,Study,User,-,,Study/JOL,"Study Phase2",1193,,,-1,-1,,,,1
w10079303,wwial22qmk,Nick_Dissertation_EX1,1,215,2020-04-19T18:59:47-07:00,2.1381940841675,4,versionC_stim.csv,READVersionD.csv,"Read Version D","Dissertation, read only version D",CHILD,BABY,Study1,S,64,30,Study,User,-,,Study/JOL,"Study Phase2",1564,,,-1,-1,,,,1
w10079303,wwial22qmk,Nick_Dissertation_EX1,1,216,2020-04-19T18:59:49-07:00,1.933867931366,4,versionC_stim.csv,READVersionD.csv,"Read Version D","Dissertation, read only version D",SITE,LOCATION,Study1,S,48,9,Study,User,-,,Study/JOL,"Study Phase2",1522,,,-1,-1,,,,1
w10079303,wwial22qmk,Nick_Dissertation_EX1,1,217,2020-04-19T18:59:53-07:00,3.5904550552368,4,versionC_stim.csv,READVersionD.csv,"Read Version D","Dissertation, read only version D",CLEAN,HYGIENE,Study1,B,17,29,Study,User,-,,Study/JOL,"Study Phase2",2850,,,-1,-1,,,,1
w10079303,wwial22qmk,Nick_Dissertation_EX1,1,218,2020-04-19T18:59:55-07:00,2.20343708992,4,versionC_stim.csv,READVersionD.csv,"Read Version D","Dissertation, read only version D",TUCK,ALLOW,Study1,U,78,22,Study,User,-,,Study/JOL,"Study Phase2",1243,,,-1,-1,,,,1
w10079303,wwial22qmk,Nick_Dissertation_EX1,1,219,2020-04-19T18:59:57-07:00,2.1622388362885,4,versionC_stim.csv,READVersionD.csv,"Read Version D","Dissertation, read only version D",ATTORNEY,LAW,Study1,F,34,34,Study,User,-,,Study/JOL,"Study Phase2",1303,,,-1,-1,,,,1
w10079303,wwial22qmk,Nick_Dissertation_EX1,1,220,2020-04-19T18:59:59-07:00,1.7862641811371,4,versionC_stim.csv,READVersionD.csv,"Read Version D","Dissertation, read only version D",MONEY,WAGE,Study1,B,8,36,Study,User,-,,Study/JOL,"Study Phase2",1309,,,-1,-1,,,,1
w10079303,wwial22qmk,Nick_Dissertation_EX1,1,221,2020-04-19T19:00:02-07:00,3.3047549724579,4,versionC_stim.csv,READVersionD.csv,"Read Version D","Dissertation, read only version D",JURY,TRIAL,Study1,S,50,33,Study,User,-,,Study/JOL,"Study Phase2",2706,,,-1,-1,,,,1
w10079303,wwial22qmk,Nick_Dissertation_EX1,1,222,2020-04-19T19:00:04-07:00,1.7289090156555,4,versionC_stim.csv,READVersionD.csv,"Read Version D","Dissertation, read only version D",CAVE,DARK,Study1,F,28,84,Study,User,-,,Study/JOL,"Study Phase2",1171,,,-1,-1,,,,1
w10079303,wwial22qmk,Nick_Dissertation_EX1,1,223,2020-04-19T19:00:08-07:00,4.6838150024414,4,versionC_stim.csv,READVersionD.csv,"Read Version D","Dissertation, read only version D",POSITION,MACHINE,Study1,U,76,26,Study,User,-,,Study/JOL,"Study Phase2",4264,,,-1,-1,,,,1
w10079303,wwial22qmk,Nick_Dissertation_EX1,1,224,2020-04-19T19:00:10-07:00,1.9329118728638,4,versionC_stim.csv,READVersionD.csv,"Read Version D","Dissertation, read only version D",SIGHT,DEBATE,Study1,U,73,69,Study,User,-,,Study/JOL,"Study Phase2",1470,,,-1,-1,,,,1
w10079303,wwial22qmk,Nick_Dissertation_EX1,1,225,2020-04-19T19:00:12-07:00,1.7863519191742,4,versionC_stim.csv,READVersionD.csv,"Read Version D","Dissertation, read only version D",FISH,TUNA,Study1,B,25,19,Study,User,-,,Study/JOL,"Study Phase2",1321,,,-1,-1,,,,1
w10079303,wwial22qmk,Nick_Dissertation_EX1,1,226,2020-04-19T19:00:15-07:00,2.611643075943,4,versionC_stim.csv,READVersionD.csv,"Read Version D","Dissertation, read only version D",FAMINE,HUNGER,Study1,F,40,70,Study,User,-,,Study/JOL,"Study Phase2",2097,,,-1,-1,,,,1
w10079303,wwial22qmk,Nick_Dissertation_EX1,1,227,2020-04-19T19:00:17-07:00,2.2991831302643,4,versionC_stim.csv,READVersionD.csv,"Read Version D","Dissertation, read only version D",DEFINITION,MEANING,Study1,S,62,74,Study,User,-,,Study/JOL,"Study Phase2",1750,,,-1,-1,,,,1
w10079303,wwial22qmk,Nick_Dissertation_EX1,1,228,2020-04-19T19:00:19-07:00,1.8357307910919,4,versionC_stim.csv,READVersionD.csv,"Read Version D","Dissertation, read only version D",BEE,HONEY,Study1,S,63,79,Study,User,-,,Study/JOL,"Study Phase2",1280,,,-1,-1,,,,1
w10079303,wwial22qmk,Nick_Dissertation_EX1,1,229,2020-04-19T19:00:21-07:00,2.171117067337,4,versionC_stim.csv,READVersionD.csv,"Read Version D","Dissertation, read only version D",FUTURE,PAST,Study1,S,61,72,Study,User,-,,Study/JOL,"Study Phase2",1561,,,-1,-1,,,,1
w10079303,wwial22qmk,Nick_Dissertation_EX1,1,230,2020-04-19T19:00:24-07:00,3.2813949584961,4,versionC_stim.csv,READVersionD.csv,"Read Version D","Dissertation, read only version D",DESIGN,ARCHITECTURE,Study1,S,51,56,Study,User,-,,Study/JOL,"Study Phase2",2820,,,-1,-1,,,,1
w10079303,wwial22qmk,Nick_Dissertation_EX1,1,231,2020-04-19T19:00:26-07:00,1.6964461803436,4,versionC_stim.csv,READVersionD.csv,"Read Version D","Dissertation, read only version D",RIDDLE,SUGAR,Study1,U,81,18,Study,User,-,,Study/JOL,"Study Phase2",1270,,,-1,-1,,,,1
w10079303,wwial22qmk,Nick_Dissertation_EX1,1,232,2020-04-19T19:00:28-07:00,1.7809948921204,4,versionC_stim.csv,READVersionD.csv,"Read Version D","Dissertation, read only version D",PILOT,PLANE,Study1,F,44,73,Study,User,-,,Study/JOL,"Study Phase2",1314,,,-1,-1,,,,1
w10079303,wwial22qmk,Nick_Dissertation_EX1,1,233,2020-04-19T19:00:29-07:00,1.479306936264,4,versionC_stim.csv,READVersionD.csv,"Read Version D","Dissertation, read only version D",OUT,WAY,Study1,B,16,71,Study,User,-,,Study/JOL,"Study Phase2",1064,,,-1,-1,,,,1
w10079303,wwial22qmk,Nick_Dissertation_EX1,1,234,2020-04-19T19:00:31-07:00,1.5900340080261,4,versionC_stim.csv,READVersionD.csv,"Read Version D","Dissertation, read only version D",SODA,POP,Study1,S,56,43,Study,User,-,,Study/JOL,"Study Phase2",1089,,,-1,-1,,,,1
w10079303,wwial22qmk,Nick_Dissertation_EX1,1,235,2020-04-19T19:00:32-07:00,1.2730829715729,4,versionC_stim.csv,READVersionD.csv,"Read Version D","Dissertation, read only version D",BELT,SOON,Study1,U,70,11,Study,User,-,,Study/JOL,"Study Phase2",841,,,-1,-1,,,,1
w10079303,wwial22qmk,Nick_Dissertation_EX1,1,236,2020-04-19T19:00:34-07:00,2.0422301292419,4,versionC_stim.csv,READVersionD.csv,"Read Version D","Dissertation, read only version D",TOILET,BATHROOM,Study1,S,58,63,Study,User,-,,Study/JOL,"Study Phase2",1616,,,-1,-1,,,,1
w10079303,wwial22qmk,Nick_Dissertation_EX1,1,237,2020-04-19T19:00:36-07:00,1.612949848175,4,versionC_stim.csv,READVersionD.csv,"Read Version D","Dissertation, read only version D",VASE,KING,Study1,U,85,55,Study,User,-,,Study/JOL,"Study Phase2",1112,,,-1,-1,,,,1
w10079303,wwial22qmk,Nick_Dissertation_EX1,1,238,2020-04-19T19:00:38-07:00,1.7683432102203,4,versionC_stim.csv,READVersionD.csv,"Read Version D","Dissertation, read only version D",ACCIDENT,STRONG,Study1,U,80,35,Study,User,-,,Study/JOL,"Study Phase2",1317,,,-1,-1,,,,1
w10079303,wwial22qmk,Nick_Dissertation_EX1,1,239,2020-04-19T19:00:40-07:00,1.9393320083618,4,versionC_stim.csv,READVersionD.csv,"Read Version D","Dissertation, read only version D",FANTASTIC,GREAT,Study1,F,35,51,Study,User,-,,Study/JOL,"Study Phase2",1485,,,-1,-1,,,,1
w10079303,wwial22qmk,Nick_Dissertation_EX1,1,240,2020-04-19T19:00:41-07:00,1.4047148227692,4,versionC_stim.csv,READVersionD.csv,"Read Version D","Dissertation, read only version D",BAR,GRILL,Study1,S,52,38,Study,User,-,,Study/JOL,"Study Phase2",974,,,-1,-1,,,,1
w10079303,wwial22qmk,Nick_Dissertation_EX1,1,241,2020-04-19T19:00:43-07:00,1.9948091506958,4,versionC_stim.csv,READVersionD.csv,"Read Version D","Dissertation, read only version D",STENCH,SMELL,Study1,F,42,41,Study,User,-,,Study/JOL,"Study Phase2",1592,,,-1,-1,,,,1
w10079303,wwial22qmk,Nick_Dissertation_EX1,1,242,2020-04-19T19:00:46-07:00,2.9552249908447,4,versionC_stim.csv,READVersionD.csv,"Read Version D","Dissertation, read only version D",SACKING,DIETARY,Study1,U,67,16,Study,User,-,,Study/JOL,"Study Phase2",2534,,,-1,-1,,,,1
w10079303,wwial22qmk,Nick_Dissertation_EX1,1,243,2020-04-19T19:00:48-07:00,1.9279170036316,4,versionC_stim.csv,READVersionD.csv,"Read Version D","Dissertation, read only version D",ENOUGH,FULL,Study1,F,26,45,Study,User,-,,Study/JOL,"Study Phase2",1491,,,-1,-1,,,,1
w10079303,wwial22qmk,Nick_Dissertation_EX1,1,244,2020-04-19T19:00:49-07:00,1.3939938545227,4,versionC_stim.csv,READVersionD.csv,"Read Version D","Dissertation, read only version D",BRONZE,ARTERY,Study1,U,74,23,Study,User,-,,Study/JOL,"Study Phase2",957,,,-1,-1,,,,1
w10079303,wwial22qmk,Nick_Dissertation_EX1,1,245,2020-04-19T19:00:52-07:00,2.591637134552,4,versionC_stim.csv,READVersionD.csv,"Read Version D","Dissertation, read only version D",DROWSY,SLEEP,Study1,F,41,12,Study,User,-,,Study/JOL,"Study Phase2",2121,,,-1,-1,,,,1
w10079303,wwial22qmk,Nick_Dissertation_EX1,1,246,2020-04-19T19:00:53-07:00,1.6210479736328,4,versionC_stim.csv,READVersionD.csv,"Read Version D","Dissertation, read only version D",CARD,CREDIT,Study1,B,23,25,Study,User,-,,Study/JOL,"Study Phase2",1200,,,-1,-1,,,,1
w10079303,wwial22qmk,Nick_Dissertation_EX1,1,247,2020-04-19T19:00:55-07:00,1.5860948562622,4,versionC_stim.csv,READVersionD.csv,"Read Version D","Dissertation, read only version D",LATCH,KEY,Study1,F,36,32,Study,User,-,,Study/JOL,"Study Phase2",1185,,,-1,-1,,,,1
w10079303,wwial22qmk,Nick_Dissertation_EX1,1,248,2020-04-19T19:00:57-07:00,1.5311300754547,4,versionC_stim.csv,READVersionD.csv,"Read Version D","Dissertation, read only version D",TALK,DISCUSSION,Study1,B,21,66,Study,User,-,,Study/JOL,"Study Phase2",1116,,,-1,-1,,,,1
w10079303,wwial22qmk,Nick_Dissertation_EX1,1,249,2020-04-19T19:00:58-07:00,1.4892289638519,4,versionC_stim.csv,READVersionD.csv,"Read Version D","Dissertation, read only version D",FLOWER,ORCHID,Study1,B,24,58,Study,User,-,,Study/JOL,"Study Phase2",1100,,,-1,-1,,,,1
w10079303,wwial22qmk,Nick_Dissertation_EX1,1,250,2020-04-19T19:01:00-07:00,1.7192771434784,4,versionC_stim.csv,READVersionD.csv,"Read Version D","Dissertation, read only version D",WOULD,CASH,Study1,U,83,46,Study,User,-,,Study/JOL,"Study Phase2",1279,,,-1,-1,,,,1
w10079303,wwial22qmk,Nick_Dissertation_EX1,1,251,2020-04-19T19:01:02-07:00,2.4595990180969,4,versionC_stim.csv,READVersionD.csv,"Read Version D","Dissertation, read only version D",WOMAN,LIFT,Study1,U,69,27,Study,User,-,,Study/JOL,"Study Phase2",1873,,,-1,-1,,,,1
w10079303,wwial22qmk,Nick_Dissertation_EX1,1,252,2020-04-19T19:01:04-07:00,2.1855828762054,4,versionC_stim.csv,READVersionD.csv,"Read Version D","Dissertation, read only version D",STOMACH,DIGESTION,Study1,B,7,64,Study,User,-,,Study/JOL,"Study Phase2",1702,,,-1,-1,,,,1
w10079303,wwial22qmk,Nick_Dissertation_EX1,1,253,2020-04-19T19:01:06-07:00,1.9003250598907,4,versionC_stim.csv,READVersionD.csv,"Read Version D","Dissertation, read only version D",FOOT,SHOE,Study1,S,60,68,Study,User,-,,Study/JOL,"Study Phase2",1292,,,-1,-1,,,,1
w10079303,wwial22qmk,Nick_Dissertation_EX1,1,254,2020-04-19T19:01:08-07:00,1.8063180446625,4,versionC_stim.csv,READVersionD.csv,"Read Version D","Dissertation, read only version D",BLAZE,FIRE,Study1,F,45,85,Study,User,-,,Study/JOL,"Study Phase2",1319,,,-1,-1,,,,1
w10079303,wwial22qmk,Nick_Dissertation_EX1,1,255,2020-04-19T19:01:10-07:00,2.224310874939,4,versionC_stim.csv,READVersionD.csv,"Read Version D","Dissertation, read only version D",SEIZE,TAKE,Study1,F,29,21,Study,User,-,,Study/JOL,"Study Phase2",1346,,,-1,-1,,,,1
w10079303,wwial22qmk,Nick_Dissertation_EX1,1,256,2020-04-19T19:01:13-07:00,2.7766799926758,4,versionC_stim.csv,READVersionD.csv,"Read Version D","Dissertation, read only version D",STING,HORNET,Study1,B,11,13,Study,User,-,,Study/JOL,"Study Phase2",2386,,,-1,-1,,,,1
w10079303,wwial22qmk,Nick_Dissertation_EX1,1,257,2020-04-19T19:01:15-07:00,1.7894110679626,4,versionC_stim.csv,READVersionD.csv,"Read Version D","Dissertation, read only version D",ADD,VALLEY,Study1,U,82,82,Study,User,-,,Study/JOL,"Study Phase2",1367,,,-1,-1,,,,1
w10079303,wwial22qmk,Nick_Dissertation_EX1,1,258,2020-04-19T19:02:13-07:00,58.091938018799,4,versionC_stim.csv,READVersionD.csv,"Read Version D","Dissertation, read only version D",CHEESE,WINE,Study1,S,57,59,Study,User,-,,Study/JOL,"Study Phase2",57657,,,-1,-1,,,,0.996
w10079303,wwial22qmk,Nick_Dissertation_EX1,1,259,2020-04-19T19:02:16-07:00,3.0749189853668,4,versionC_stim.csv,READVersionD.csv,"Read Version D","Dissertation, read only version D",BUSINESS,DEATH,Study1,U,72,83,Study,User,-,,Study/JOL,"Study Phase2",2701,,,-1,-1,,,,1
w10079303,wwial22qmk,Nick_Dissertation_EX1,1,260,2020-04-19T19:02:18-07:00,1.5984580516815,4,versionC_stim.csv,READVersionD.csv,"Read Version D","Dissertation, read only version D",DIVISION,MATH,Study1,F,33,77,Study,User,-,,Study/JOL,"Study Phase2",1225,,,-1,-1,,,,1
w10079303,wwial22qmk,Nick_Dissertation_EX1,1,261,2020-04-19T19:02:19-07:00,1.2941098213196,4,versionC_stim.csv,READVersionD.csv,"Read Version D","Dissertation, read only version D",SPACE,MOON,BUFFER2,Buffer,89,89,Study,User,-,,Study/JOL,BUFFER4,968,,,-1,-1,,,,1
w10079303,wwial22qmk,Nick_Dissertation_EX1,1,262,2020-04-19T19:02:20-07:00,1.1450040340424,4,versionC_stim.csv,READVersionD.csv,"Read Version D","Dissertation, read only version D",GOOSE,GEESE,BUFFER2,Buffer,86,88,Study,User,-,,Study/JOL,BUFFER4,823,,,-1,-1,,,,1
w10079303,wwial22qmk,Nick_Dissertation_EX1,1,263,2020-04-19T19:02:23-07:00,2.8391270637512,4,versionC_stim.csv,READVersionD.csv,"Read Version D","Dissertation, read only version D",STUFF,THING,BUFFER2,Buffer,90,90,Study,User,-,,Study/JOL,BUFFER4,2528,,,-1,-1,,,,1
w10079303,wwial22qmk,Nick_Dissertation_EX1,1,264,2020-04-19T19:02:25-07:00,1.7708868980408,4,versionC_stim.csv,READVersionD.csv,"Read Version D","Dissertation, read only version D",CHOCOLATE,MALT,BUFFER2,Buffer,88,91,Study,User,-,,Study/JOL,BUFFER4,1413,,,-1,-1,,,,1
w10079303,wwial22qmk,Nick_Dissertation_EX1,1,265,2020-04-19T19:02:27-07:00,1.8064901828766,4,versionC_stim.csv,READVersionD.csv,"Read Version D","Dissertation, read only version D",POLICE,SHERRIF,BUFFER2,Buffer,87,87,Study,User,-,,Study/JOL,BUFFER4,1516,,,-1,-1,,,,1
w10079303,wwial22qmk,Nick_Dissertation_EX1,1,266,2020-04-19T19:02:29-07:00,2.5951638221741,4,versionC_stim.csv,READVersionD.csv,"Read Version D","Dissertation, read only version D",,,,,,0,Instruct,User,-,"You have completed this section. Please press Enter.",Filler_Instruction,Instruct5,2294,,,-1,-1,,,,1
w10079303,wwial22qmk,Nick_Dissertation_EX1,1,267,2020-04-19T19:04:30-07:00,120.56945800781,4,versionC_stim.csv,READVersionD.csv,"Read Version D","Dissertation, read only version D",,,,,,0,FreeRecall,120,120,"Please list the 50 US states in reverse alphabetical order (z - a). The task will automatically advance to the next screen after two minutes.",,Filler2,120021,"wyoming, wisconsin, west virginia, washington, virginia, vermont, utah, texas, tennessee, south dakota, south carolina, rhode island, pennsylvania, oregon, oklahoma, ohio, north dakota, north carolina, new york, new mexico, new jersey, new hampshire, ",0,14862,119850,0,0,,1
w10079303,wwial22qmk,Nick_Dissertation_EX1,1,268,2020-04-19T19:04:41-07:00,11.017930030823,4,versionC_stim.csv,READVersionD.csv,"Read Version D","Dissertation, read only version D",,,,,,0,Instruct,-,10,"You will now be presented with the first word from each of the previously studied item pairs. Please type the missing word. If you do not know the word, you may guess or press Enter to skip forward to the next pair.",,Instruct6,10640,,,-1,-1,,,,1
w10079303,wwial22qmk,Nick_Dissertation_EX1,1,269,2020-04-19T19:04:48-07:00,6.8150081634521,4,versionC_stim.csv,READVersionD.csv,"Read Version D","Dissertation, read only version D",PLANT,ROOT,Study1,B,13,78,Test,User,-,,Recall,Recall2,6386,trees,22.222222222222,2175,5250,0,0,,1
w10079303,wwial22qmk,Nick_Dissertation_EX1,1,270,2020-04-19T19:04:50-07:00,2.5222818851471,4,versionC_stim.csv,READVersionD.csv,"Read Version D","Dissertation, read only version D",SICK,HIDE,Study1,U,84,24,Test,User,-,,Recall,Recall2,2155,,0,-1,-1,0,0,,1
w10079303,wwial22qmk,Nick_Dissertation_EX1,1,271,2020-04-19T19:04:55-07:00,5.0007519721985,4,versionC_stim.csv,READVersionD.csv,"Read Version D","Dissertation, read only version D",SEIZE,TAKE,Study1,F,29,21,Test,User,-,,Recall,Recall2,4619,day,28.571428571429,3393,3647,0,0,,1
w10079303,wwial22qmk,Nick_Dissertation_EX1,1,272,2020-04-19T19:04:58-07:00,3.3664841651917,4,versionC_stim.csv,READVersionD.csv,"Read Version D","Dissertation, read only version D",CHORE,WORK,Study1,F,39,17,Test,User,-,,Recall,Recall2,2975,,0,-1,-1,0,0,,1
w10079303,wwial22qmk,Nick_Dissertation_EX1,1,273,2020-04-19T19:05:04-07:00,5.529177904129,4,versionC_stim.csv,READVersionD.csv,"Read Version D","Dissertation, read only version D",FLOOR,DISCOVER,Study1,U,71,20,Test,User,-,,Recall,Recall2,5114,,0,-1,-1,0,0,,1
w10079303,wwial22qmk,Nick_Dissertation_EX1,1,274,2020-04-19T19:05:08-07:00,4.0630269050598,4,versionC_stim.csv,READVersionD.csv,"Read Version D","Dissertation, read only version D",LIVER,KIDNEY,Study1,S,53,86,Test,User,-,,Recall,Recall2,3651,kidney,100,2038,2613,1,1,,1
w10079303,wwial22qmk,Nick_Dissertation_EX1,1,275,2020-04-19T19:05:12-07:00,3.8859150409698,4,versionC_stim.csv,READVersionD.csv,"Read Version D","Dissertation, read only version D",HAMMER,CHISEL,Study1,B,9,42,Test,User,-,,Recall,Recall2,3454,chisel,100,1870,2567,1,1,,1
w10079303,wwial22qmk,Nick_Dissertation_EX1,1,276,2020-04-19T19:05:14-07:00,1.8139381408691,4,versionC_stim.csv,READVersionD.csv,"Read Version D","Dissertation, read only version D",FANTASTIC,GREAT,Study1,F,35,51,Test,User,-,,Recall,Recall2,1433,,0,-1,-1,0,0,,1
w10079303,wwial22qmk,Nick_Dissertation_EX1,1,277,2020-04-19T19:05:16-07:00,2.6743588447571,4,versionC_stim.csv,READVersionD.csv,"Read Version D","Dissertation, read only version D",NEWS,EDITOR,Study1,B,10,47,Test,User,-,,Recall,Recall2,2304,,0,-1,-1,0,0,,1
w10079303,wwial22qmk,Nick_Dissertation_EX1,1,278,2020-04-19T19:05:20-07:00,3.2797150611877,4,versionC_stim.csv,READVersionD.csv,"Read Version D","Dissertation, read only version D",BEE,HONEY,Study1,S,63,79,Test,User,-,,Recall,Recall2,2875,,0,-1,-1,0,0,,1
w10079303,wwial22qmk,Nick_Dissertation_EX1,1,279,2020-04-19T19:05:23-07:00,2.9865639209747,4,versionC_stim.csv,READVersionD.csv,"Read Version D","Dissertation, read only version D",SALAD,LETTUCE,Study1,S,59,31,Test,User,-,,Recall,Recall2,2536,,0,-1,-1,0,0,,1
w10079303,wwial22qmk,Nick_Dissertation_EX1,1,280,2020-04-19T19:05:24-07:00,1.8092651367188,4,versionC_stim.csv,READVersionD.csv,"Read Version D","Dissertation, read only version D",BIRD,SWAN,Study1,B,14,14,Test,User,-,,Recall,Recall2,1421,,0,-1,-1,0,0,,1
w10079303,wwial22qmk,Nick_Dissertation_EX1,1,281,2020-04-19T19:05:26-07:00,1.8746469020844,4,versionC_stim.csv,READVersionD.csv,"Read Version D","Dissertation, read only version D",BAR,GRILL,Study1,S,52,38,Test,User,-,,Recall,Recall2,1488,,0,-1,-1,0,0,,1
w10079303,wwial22qmk,Nick_Dissertation_EX1,1,282,2020-04-19T19:05:29-07:00,2.6943900585175,4,versionC_stim.csv,READVersionD.csv,"Read Version D","Dissertation, read only version D",VASE,KING,Study1,U,85,55,Test,User,-,,Recall,Recall2,2295,,0,-1,-1,0,0,,1
w10079303,wwial22qmk,Nick_Dissertation_EX1,1,283,2020-04-19T19:05:32-07:00,3.3376839160919,4,versionC_stim.csv,READVersionD.csv,"Read Version D","Dissertation, read only version D",CHILI,HOT,Study1,F,37,75,Test,User,-,,Recall,Recall2,2939,hot,100,1702,1974,1,1,,1
w10079303,wwial22qmk,Nick_Dissertation_EX1,1,284,2020-04-19T19:05:35-07:00,2.3200750350952,4,versionC_stim.csv,READVersionD.csv,"Read Version D","Dissertation, read only version D",AMOUNT,NUMBER,Study1,S,47,40,Test,User,-,,Recall,Recall2,1957,,0,-1,-1,0,0,,1
w10079303,wwial22qmk,Nick_Dissertation_EX1,1,285,2020-04-19T19:05:38-07:00,3.3445920944214,4,versionC_stim.csv,READVersionD.csv,"Read Version D","Dissertation, read only version D",RACKET,BALL,Study1,F,38,10,Test,User,-,,Recall,Recall2,2952,ball,100,1856,2191,1,1,,1
w10079303,wwial22qmk,Nick_Dissertation_EX1,1,286,2020-04-19T19:05:43-07:00,5.2451429367065,4,versionC_stim.csv,READVersionD.csv,"Read Version D","Dissertation, read only version D",BAD,DELINQUENT,Study1,B,6,60,Test,User,-,,Recall,Recall2,4870,"delinquent ",100,1788,2828,1,1,,1
w10079303,wwial22qmk,Nick_Dissertation_EX1,1,287,2020-04-19T19:05:48-07:00,4.4673750400543,4,versionC_stim.csv,READVersionD.csv,"Read Version D","Dissertation, read only version D",SITE,LOCATION,Study1,S,48,9,Test,User,-,,Recall,Recall2,4077,word,16.666666666667,2791,3114,0,0,,1
w10079303,wwial22qmk,Nick_Dissertation_EX1,1,288,2020-04-19T19:05:52-07:00,4.0928449630737,4,versionC_stim.csv,READVersionD.csv,"Read Version D","Dissertation, read only version D",TUCK,ALLOW,Study1,U,78,22,Test,User,-,,Recall,Recall2,3728,allow,100,2313,2829,1,1,,1
w10079303,wwial22qmk,Nick_Dissertation_EX1,1,289,2020-04-19T19:05:56-07:00,4.5801169872284,4,versionC_stim.csv,READVersionD.csv,"Read Version D","Dissertation, read only version D",SIP,DRINK,Study1,F,27,44,Test,User,-,,Recall,Recall2,4190,"drink ",100,1856,3395,1,1,,1
w10079303,wwial22qmk,Nick_Dissertation_EX1,1,290,2020-04-19T19:06:00-07:00,3.7983520030975,4,versionC_stim.csv,READVersionD.csv,"Read Version D","Dissertation, read only version D",FAMINE,HUNGER,Study1,F,40,70,Test,User,-,,Recall,Recall2,3384,hunger,100,1842,2573,1,1,,1
w10079303,wwial22qmk,Nick_Dissertation_EX1,1,291,2020-04-19T19:06:04-07:00,3.631973028183,4,versionC_stim.csv,READVersionD.csv,"Read Version D","Dissertation, read only version D",FUTURE,PAST,Study1,S,61,72,Test,User,-,,Recall,Recall2,3200,past,100,1999,2339,1,1,,1
w10079303,wwial22qmk,Nick_Dissertation_EX1,1,292,2020-04-19T19:06:07-07:00,3.0673439502716,4,versionC_stim.csv,READVersionD.csv,"Read Version D","Dissertation, read only version D",SACKING,DIETARY,Study1,U,67,16,Test,User,-,,Recall,Recall2,2685,,0,-1,-1,0,0,,1
w10079303,wwial22qmk,Nick_Dissertation_EX1,1,293,2020-04-19T19:06:12-07:00,4.8319590091705,4,versionC_stim.csv,READVersionD.csv,"Read Version D","Dissertation, read only version D",MONEY,WAGE,Study1,B,8,36,Test,User,-,,Recall,Recall2,4437,wage,100,3128,3492,1,1,,1
w10079303,wwial22qmk,Nick_Dissertation_EX1,1,294,2020-04-19T19:06:15-07:00,3.3405659198761,4,versionC_stim.csv,READVersionD.csv,"Read Version D","Dissertation, read only version D",BELT,SOON,Study1,U,70,11,Test,User,-,,Recall,Recall2,2925,soon,100,1693,2138,1,1,,1
w10079303,wwial22qmk,Nick_Dissertation_EX1,1,295,2020-04-19T19:06:20-07:00,5.3740839958191,4,versionC_stim.csv,READVersionD.csv,"Read Version D","Dissertation, read only version D",ENOUGH,FULL,Study1,F,26,45,Test,User,-,,Recall,Recall2,5001,,0,-1,-1,0,0,,1
w10079303,wwial22qmk,Nick_Dissertation_EX1,1,296,2020-04-19T19:06:23-07:00,2.201672077179,4,versionC_stim.csv,READVersionD.csv,"Read Version D","Dissertation, read only version D",HUNGRY,PARK,Study1,U,68,48,Test,User,-,,Recall,Recall2,1836,,0,-1,-1,0,0,,1
w10079303,wwial22qmk,Nick_Dissertation_EX1,1,297,2020-04-19T19:06:27-07:00,4.4689750671387,4,versionC_stim.csv,READVersionD.csv,"Read Version D","Dissertation, read only version D",STOMACH,DIGESTION,Study1,B,7,64,Test,User,-,,Recall,Recall2,4082,digestion,100,2076,3277,1,1,,1
w10079303,wwial22qmk,Nick_Dissertation_EX1,1,298,2020-04-19T19:06:33-07:00,5.3928470611572,4,versionC_stim.csv,READVersionD.csv,"Read Version D","Dissertation, read only version D",ROUND,CIRCLE,Study1,S,65,81,Test,User,-,,Recall,Recall2,4953,circle,100,1752,3921,1,1,,1
w10079303,wwial22qmk,Nick_Dissertation_EX1,1,299,2020-04-19T19:06:35-07:00,2.4649209976196,4,versionC_stim.csv,READVersionD.csv,"Read Version D","Dissertation, read only version D",SODA,POP,Study1,S,56,43,Test,User,-,,Recall,Recall2,2099,,0,-1,-1,0,0,,1
w10079303,wwial22qmk,Nick_Dissertation_EX1,1,300,2020-04-19T19:06:48-07:00,13.330243825912,4,versionC_stim.csv,READVersionD.csv,"Read Version D","Dissertation, read only version D",STING,HORNET,Study1,B,11,13,Test,User,-,,Recall,Recall2,12802,hornet,100,8367,10090,1,1,,1
w10079303,wwial22qmk,Nick_Dissertation_EX1,1,301,2020-04-19T19:06:52-07:00,3.9805030822754,4,versionC_stim.csv,READVersionD.csv,"Read Version D","Dissertation, read only version D",CHEESE,WINE,Study1,S,57,59,Test,User,-,,Recall,Recall2,3357,wine,100,1853,2173,1,1,,1
w10079303,wwial22qmk,Nick_Dissertation_EX1,1,302,2020-04-19T19:06:58-07:00,5.8975930213928,4,versionC_stim.csv,READVersionD.csv,"Read Version D","Dissertation, read only version D",CLEAN,HYGIENE,Study1,B,17,29,Test,User,-,,Recall,Recall2,5507,hygiene,100,3599,4563,1,1,,1
w10079303,wwial22qmk,Nick_Dissertation_EX1,1,303,2020-04-19T19:07:12-07:00,13.948304891586,4,versionC_stim.csv,READVersionD.csv,"Read Version D","Dissertation, read only version D",ATTIRE,CLOTHES,Study1,F,43,54,Test,User,-,,Recall,Recall2,13496,clothes,100,11912,12625,1,1,,1
w10079303,wwial22qmk,Nick_Dissertation_EX1,1,304,2020-04-19T19:07:17-07:00,4.7087051868439,4,versionC_stim.csv,READVersionD.csv,"Read Version D","Dissertation, read only version D",TOILET,BATHROOM,Study1,S,58,63,Test,User,-,,Recall,Recall2,4301,flush,15.384615384615,3024,3463,0,0,,1
w10079303,wwial22qmk,Nick_Dissertation_EX1,1,305,2020-04-19T19:07:19-07:00,1.9008939266205,4,versionC_stim.csv,READVersionD.csv,"Read Version D","Dissertation, read only version D",PILOT,PLANE,Study1,F,44,73,Test,User,-,,Recall,Recall2,1552,,0,-1,-1,0,0,,1
w10079303,wwial22qmk,Nick_Dissertation_EX1,1,306,2020-04-19T19:07:22-07:00,3.308443069458,4,versionC_stim.csv,READVersionD.csv,"Read Version D","Dissertation, read only version D",WORD,SENTENCE,Study1,F,31,67,Test,User,-,,Recall,Recall2,2899,,0,-1,-1,0,0,,1
w10079303,wwial22qmk,Nick_Dissertation_EX1,1,307,2020-04-19T19:07:27-07:00,4.4593958854675,4,versionC_stim.csv,READVersionD.csv,"Read Version D","Dissertation, read only version D",GROWTH,HEIGHT,Study1,F,30,80,Test,User,-,,Recall,Recall2,4047,height,100,2373,2995,1,1,,1
w10079303,wwial22qmk,Nick_Dissertation_EX1,1,308,2020-04-19T19:07:37-07:00,10.924726963043,4,versionC_stim.csv,READVersionD.csv,"Read Version D","Dissertation, read only version D",COLD,BITTER,Study1,B,12,76,Test,User,-,,Recall,Recall2,10506,,0,-1,-1,0,0,,1
w10079303,wwial22qmk,Nick_Dissertation_EX1,1,309,2020-04-19T19:07:42-07:00,4.3824419975281,4,versionC_stim.csv,READVersionD.csv,"Read Version D","Dissertation, read only version D",CAR,HAPPY,Study1,U,77,65,Test,User,-,,Recall,Recall2,3990,,0,-1,-1,0,0,,1
w10079303,wwial22qmk,Nick_Dissertation_EX1,1,310,2020-04-19T19:07:45-07:00,3.5773179531097,4,versionC_stim.csv,READVersionD.csv,"Read Version D","Dissertation, read only version D",BRONZE,ARTERY,Study1,U,74,23,Test,User,-,,Recall,Recall2,3118,,0,-1,-1,0,0,,1
w10079303,wwial22qmk,Nick_Dissertation_EX1,1,311,2020-04-19T19:07:47-07:00,1.7824530601501,4,versionC_stim.csv,READVersionD.csv,"Read Version D","Dissertation, read only version D",RIDDLE,SUGAR,Study1,U,81,18,Test,User,-,,Recall,Recall2,1359,,0,-1,-1,0,0,,1
w10079303,wwial22qmk,Nick_Dissertation_EX1,1,312,2020-04-19T19:07:50-07:00,2.353600025177,4,versionC_stim.csv,READVersionD.csv,"Read Version D","Dissertation, read only version D",DOG,PAW,Study1,B,15,53,Test,User,-,,Recall,Recall2,1929,,0,-1,-1,0,0,,1
w10079303,wwial22qmk,Nick_Dissertation_EX1,1,313,2020-04-19T19:07:55-07:00,5.4987590312958,4,versionC_stim.csv,READVersionD.csv,"Read Version D","Dissertation, read only version D",POSITION,MACHINE,Study1,U,76,26,Test,User,-,,Recall,Recall2,5104,assume,30.769230769231,3316,3978,0,0,,1
w10079303,wwial22qmk,Nick_Dissertation_EX1,1,314,2020-04-19T19:08:01-07:00,6.3144018650055,4,versionC_stim.csv,READVersionD.csv,"Read Version D","Dissertation, read only version D",DESIGN,ARCHITECTURE,Study1,S,51,56,Test,User,-,,Recall,Recall2,5864,"architecture ",100,2190,2901,1,1,,1
w10079303,wwial22qmk,Nick_Dissertation_EX1,1,315,2020-04-19T19:08:05-07:00,3.5340261459351,4,versionC_stim.csv,READVersionD.csv,"Read Version D","Dissertation, read only version D",BUSINESS,DEATH,Study1,U,72,83,Test,User,-,,Recall,Recall2,3100,,0,-1,-1,0,0,,1
w10079303,wwial22qmk,Nick_Dissertation_EX1,1,316,2020-04-19T19:08:09-07:00,4.2211830615997,4,versionC_stim.csv,READVersionD.csv,"Read Version D","Dissertation, read only version D",WOMAN,LIFT,Study1,U,69,27,Test,User,-,,Recall,Recall2,3787,,0,-1,-1,0,0,,1
w10079303,wwial22qmk,Nick_Dissertation_EX1,1,317,2020-04-19T19:08:13-07:00,4.0181968212128,4,versionC_stim.csv,READVersionD.csv,"Read Version D","Dissertation, read only version D",WASP,BUG,Study1,F,32,62,Test,User,-,,Recall,Recall2,3594,bug,100,2386,2717,1,1,,1
w10079303,wwial22qmk,Nick_Dissertation_EX1,1,318,2020-04-19T19:08:19-07:00,5.5947999954224,4,versionC_stim.csv,READVersionD.csv,"Read Version D","Dissertation, read only version D",ATTORNEY,LAW,Study1,F,34,34,Test,User,-,,Recall,Recall2,4360,law,100,1850,2080,1,1,,1
w10079303,wwial22qmk,Nick_Dissertation_EX1,1,319,2020-04-19T19:08:25-07:00,5.9385499954224,4,versionC_stim.csv,READVersionD.csv,"Read Version D","Dissertation, read only version D",END,BEGIN,Study1,S,54,52,Test,User,-,,Recall,Recall2,5504,begin,100,1919,2411,1,1,,1
w10079303,wwial22qmk,Nick_Dissertation_EX1,1,320,2020-04-19T19:08:29-07:00,4.7894861698151,4,versionC_stim.csv,READVersionD.csv,"Read Version D","Dissertation, read only version D",ROCK,GEOLOGY,Study1,B,19,61,Test,User,-,,Recall,Recall2,4368,,0,-1,-1,0,0,,1
w10079303,wwial22qmk,Nick_Dissertation_EX1,1,321,2020-04-19T19:08:33-07:00,3.4530098438263,4,versionC_stim.csv,READVersionD.csv,"Read Version D","Dissertation, read only version D",TALK,DISCUSSION,Study1,B,21,66,Test,User,-,,Recall,Recall2,3039,,0,-1,-1,0,0,,1
w10079303,wwial22qmk,Nick_Dissertation_EX1,1,322,2020-04-19T19:08:39-07:00,5.6684691905975,4,versionC_stim.csv,READVersionD.csv,"Read Version D","Dissertation, read only version D",SIGHT,DEBATE,Study1,U,73,69,Test,User,-,,Recall,Recall2,5205,word,20,3597,4100,0,0,,1
w10079303,wwial22qmk,Nick_Dissertation_EX1,1,323,2020-04-19T19:08:44-07:00,5.1891269683838,4,versionC_stim.csv,READVersionD.csv,"Read Version D","Dissertation, read only version D",WASTE,DUMP,Study1,S,49,50,Test,User,-,,Recall,Recall2,4765,"dump ",100,2106,3494,1,1,,1
w10079303,wwial22qmk,Nick_Dissertation_EX1,1,324,2020-04-19T19:08:46-07:00,2.5509519577026,4,versionC_stim.csv,READVersionD.csv,"Read Version D","Dissertation, read only version D",FOOT,SHOE,Study1,S,60,68,Test,User,-,,Recall,Recall2,2184,,0,-1,-1,0,0,,1
w10079303,wwial22qmk,Nick_Dissertation_EX1,1,325,2020-04-19T19:08:59-07:00,12.347451925278,4,versionC_stim.csv,READVersionD.csv,"Read Version D","Dissertation, read only version D",JURY,TRIAL,Study1,S,50,33,Test,User,-,,Recall,Recall2,4368,trial,100,2827,3449,1,1,,1
w10079303,wwial22qmk,Nick_Dissertation_EX1,1,326,2020-04-19T19:09:03-07:00,4.2975680828094,4,versionC_stim.csv,READVersionD.csv,"Read Version D","Dissertation, read only version D",DEFINITION,MEANING,Study1,S,62,74,Test,User,-,,Recall,Recall2,3889,,0,-1,-1,0,0,,1
w10079303,wwial22qmk,Nick_Dissertation_EX1,1,327,2020-04-19T19:09:07-07:00,3.8729569911957,4,versionC_stim.csv,READVersionD.csv,"Read Version D","Dissertation, read only version D",WIND,BLOW,Study1,S,55,39,Test,User,-,,Recall,Recall2,3491,"blow ",100,1576,2349,1,1,,1
w10079303,wwial22qmk,Nick_Dissertation_EX1,1,328,2020-04-19T19:09:11-07:00,4.428689956665,4,versionC_stim.csv,READVersionD.csv,"Read Version D","Dissertation, read only version D",WATER,BRIDGE,Study1,B,18,37,Test,User,-,,Recall,Recall2,4046,,0,-1,-1,0,0,,1
w10079303,wwial22qmk,Nick_Dissertation_EX1,1,329,2020-04-19T19:09:15-07:00,4.0496180057526,4,versionC_stim.csv,READVersionD.csv,"Read Version D","Dissertation, read only version D",DROWSY,SLEEP,Study1,F,41,12,Test,User,-,,Recall,Recall2,3687,,0,-1,-1,0,0,,1
w10079303,wwial22qmk,Nick_Dissertation_EX1,1,330,2020-04-19T19:09:25-07:00,10.093029975891,4,versionC_stim.csv,READVersionD.csv,"Read Version D","Dissertation, read only version D",CHILD,BABY,Study1,S,64,30,Test,User,-,,Recall,Recall2,9708,"play ",50,5631,6758,0,0,,1
w10079303,wwial22qmk,Nick_Dissertation_EX1,1,331,2020-04-19T19:09:30-07:00,4.4528341293335,4,versionC_stim.csv,READVersionD.csv,"Read Version D","Dissertation, read only version D",OUT,WAY,Study1,B,16,71,Test,User,-,,Recall,Recall2,4029,in,0,2255,2428,0,0,,1
w10079303,wwial22qmk,Nick_Dissertation_EX1,1,332,2020-04-19T19:09:35-07:00,5.0707678794861,4,versionC_stim.csv,READVersionD.csv,"Read Version D","Dissertation, read only version D",FISH,TUNA,Study1,B,25,19,Test,User,-,,Recall,Recall2,4690,,0,-1,-1,0,0,,1
w10079303,wwial22qmk,Nick_Dissertation_EX1,1,333,2020-04-19T19:09:38-07:00,3.0801889896393,4,versionC_stim.csv,READVersionD.csv,"Read Version D","Dissertation, read only version D",WOULD,CASH,Study1,U,83,46,Test,User,-,,Recall,Recall2,2681,,0,-1,-1,0,0,,1
w10079303,wwial22qmk,Nick_Dissertation_EX1,1,334,2020-04-19T19:09:44-07:00,5.781594991684,4,versionC_stim.csv,READVersionD.csv,"Read Version D","Dissertation, read only version D",ACCIDENT,STRONG,Study1,U,80,35,Test,User,-,,Recall,Recall2,5406,,0,-1,-1,0,0,,1
w10079303,wwial22qmk,Nick_Dissertation_EX1,1,335,2020-04-19T19:09:48-07:00,4.0666909217834,4,versionC_stim.csv,READVersionD.csv,"Read Version D","Dissertation, read only version D",ASSIGNMENT,DUE,Study1,S,46,8,Test,User,-,,Recall,Recall2,3674,due,100,2415,2607,1,1,,1
w10079303,wwial22qmk,Nick_Dissertation_EX1,1,336,2020-04-19T19:09:50-07:00,1.8775751590729,4,versionC_stim.csv,READVersionD.csv,"Read Version D","Dissertation, read only version D",STENCH,SMELL,Study1,F,42,41,Test,User,-,,Recall,Recall2,1475,,0,-1,-1,0,0,,1
w10079303,wwial22qmk,Nick_Dissertation_EX1,1,337,2020-04-19T19:09:53-07:00,3.0355310440063,4,versionC_stim.csv,READVersionD.csv,"Read Version D","Dissertation, read only version D",LATCH,KEY,Study1,F,36,32,Test,User,-,,Recall,Recall2,2630,,0,-1,-1,0,0,,1
w10079303,wwial22qmk,Nick_Dissertation_EX1,1,338,2020-04-19T19:09:58-07:00,5.3941588401794,4,versionC_stim.csv,READVersionD.csv,"Read Version D","Dissertation, read only version D",LION,ART,Study1,U,79,28,Test,User,-,,Recall,Recall2,4859,"art ",100,2545,3942,1,1,,1
w10079303,wwial22qmk,Nick_Dissertation_EX1,1,339,2020-04-19T19:10:06-07:00,7.39395403862,4,versionC_stim.csv,READVersionD.csv,"Read Version D","Dissertation, read only version D",CARD,CREDIT,Study1,B,23,25,Test,User,-,,Recall,Recall2,6974,credit,100,3647,4696,1,1,,1
w10079303,wwial22qmk,Nick_Dissertation_EX1,1,340,2020-04-19T19:10:10-07:00,4.1060979366302,4,versionC_stim.csv,READVersionD.csv,"Read Version D","Dissertation, read only version D",BLAZE,FIRE,Study1,F,45,85,Test,User,-,,Recall,Recall2,3714,fire,100,2662,3009,1,1,,1
w10079303,wwial22qmk,Nick_Dissertation_EX1,1,341,2020-04-19T19:10:15-07:00,5.5866479873657,4,versionC_stim.csv,READVersionD.csv,"Read Version D","Dissertation, read only version D",DIVISION,MATH,Study1,F,33,77,Test,User,-,,Recall,Recall2,4954,math,100,1833,2183,1,1,,1
w10079303,wwial22qmk,Nick_Dissertation_EX1,1,342,2020-04-19T19:10:21-07:00,5.2479290962219,4,versionC_stim.csv,READVersionD.csv,"Read Version D","Dissertation, read only version D",CAVE,DARK,Study1,F,28,84,Test,User,-,,Recall,Recall2,4779,,0,-1,-1,0,0,,1
w10079303,wwial22qmk,Nick_Dissertation_EX1,1,343,2020-04-19T19:10:44-07:00,23.020700931549,4,versionC_stim.csv,READVersionD.csv,"Read Version D","Dissertation, read only version D",ADD,VALLEY,Study1,U,82,82,Test,User,-,,Recall,Recall2,22405,,0,-1,-1,0,0,,1
w10079303,wwial22qmk,Nick_Dissertation_EX1,1,344,2020-04-19T19:10:48-07:00,4.8471660614014,4,versionC_stim.csv,READVersionD.csv,"Read Version D","Dissertation, read only version D",COW,HERD,Study1,B,22,7,Test,User,-,,Recall,Recall2,4438,herd,100,3013,3565,1,1,,1
w10079303,wwial22qmk,Nick_Dissertation_EX1,1,345,2020-04-19T19:10:54-07:00,5.3084840774536,4,versionC_stim.csv,READVersionD.csv,"Read Version D","Dissertation, read only version D",CLUTTER,PUSHER,Study1,U,66,15,Test,User,-,,Recall,Recall2,4886,pusher,100,1884,3798,1,1,,1
w10079303,wwial22qmk,Nick_Dissertation_EX1,1,346,2020-04-19T19:11:04-07:00,10.242653846741,4,versionC_stim.csv,READVersionD.csv,"Read Version D","Dissertation, read only version D",WAR,REVOLUTION,Study1,B,20,57,Test,User,-,,Recall,Recall2,9851,"revolution ",100,2094,2842,1,1,,1
w10079303,wwial22qmk,Nick_Dissertation_EX1,1,347,2020-04-19T19:11:14-07:00,9.7671220302582,4,versionC_stim.csv,READVersionD.csv,"Read Version D","Dissertation, read only version D",HAND,FIX,Study1,U,75,49,Test,User,-,,Recall,Recall2,9338,righh,25,7815,8289,0,0,,1
w10079303,wwial22qmk,Nick_Dissertation_EX1,1,348,2020-04-19T19:11:22-07:00,8.7855229377747,4,versionC_stim.csv,READVersionD.csv,"Read Version D","Dissertation, read only version D",FLOWER,ORCHID,Study1,B,24,58,Test,User,-,,Recall,Recall2,7362,orchid,100,2453,3251,1,1,,1
w10079303,wwial22qmk,Nick_Dissertation_EX1,1,349,2020-04-19T19:11:30-07:00,7.6488671302795,4,versionC_stim.csv,READVersionD.csv,"Read Version D","Dissertation, read only version D",,,,,,0,Instruct,User,-,"You have completed this section. Please press Enter.",,Instruct7,6977,,,-1,-1,,,,1
w10079303,wwial22qmk,Nick_Dissertation_EX1,1,350,2020-04-19T19:11:36-07:00,5.460489988327,4,versionC_stim.csv,READVersionD.csv,"Read Version D","Dissertation, read only version D",,,,,,0,Instruct,User,-,"The following screen will ask you a few questions abour your experience today. You must complete these questions to receive credit.",,Instruct8,4080,,,-1,-1,,,,1
