Username,ID,ExperimentName,Session,Trial,Date,TimeDif,"Condition Number","Stimuli File","Order File","Condition Description","Condition Notes",Stimuli*Cue,Stimuli*Answer,Stimuli*Shuffle,"Stimuli*Stimuli Notes",Stimuli*Value,Procedure*Item,"Procedure*Trial Type","Procedure*Max Time","Procedure*Min Time",Procedure*Text,"Procedure*Procedure Notes",Procedure*Shuffle,Response*RT,Response*Response,Response*Accuracy,Response*RTfirst,Response*RTlast,Response*strictAcc,Response*lenientAcc,Response*focus,Response*Focus
w214500,4moq18am1p,Nick_Dissertation_EX1,1,1,2020-04-20T20:44:50-07:00,11.306756019592,4,versionC_stim.csv,READVersionD.csv,"Read Version D","Dissertation, read only version D",,,,,,0,Instruct,-,10,"Please study each of the following word pairs. Remember that your memory will be tested! When finished, press Enter to move to the next pair.",Initial_Instruct,Instruct1,10917,,,-1,-1,,,,1
w214500,4moq18am1p,Nick_Dissertation_EX1,1,2,2020-04-20T20:44:53-07:00,3.2046258449554,4,versionC_stim.csv,READVersionD.csv,"Read Version D","Dissertation, read only version D",ADVENTURE,CAMP,BUFFER3,Buffer,95,95,Study,User,-,,Study/JOL,BUFFER,2699,,,-1,-1,,,,1
w214500,4moq18am1p,Nick_Dissertation_EX1,1,3,2020-04-20T20:44:55-07:00,1.7868831157684,4,versionC_stim.csv,READVersionD.csv,"Read Version D","Dissertation, read only version D",STRING,NOODLE,BUFFER3,Buffer,92,94,Study,User,-,,Study/JOL,BUFFER,1452,,,-1,-1,,,,1
w214500,4moq18am1p,Nick_Dissertation_EX1,1,4,2020-04-20T20:44:59-07:00,4.1628570556641,4,versionC_stim.csv,READVersionD.csv,"Read Version D","Dissertation, read only version D",FROZEN,ICE,BUFFER3,Buffer,94,96,Study,User,-,,Study/JOL,BUFFER,3868,,,-1,-1,,,,1
w214500,4moq18am1p,Nick_Dissertation_EX1,1,5,2020-04-20T20:45:06-07:00,6.2460079193115,4,versionC_stim.csv,READVersionD.csv,"Read Version D","Dissertation, read only version D",FISH,SHRIMP,BUFFER3,Buffer,93,93,Study,User,-,,Study/JOL,BUFFER,5906,,,-1,-1,,,,1
w214500,4moq18am1p,Nick_Dissertation_EX1,1,6,2020-04-20T20:45:09-07:00,2.8888080120087,4,versionC_stim.csv,READVersionD.csv,"Read Version D","Dissertation, read only version D",POTATO,CARROT,BUFFER3,Buffer,91,92,Study,User,-,,Study/JOL,BUFFER,2517,,,-1,-1,,,,1
w214500,4moq18am1p,Nick_Dissertation_EX1,1,7,2020-04-20T20:45:10-07:00,1.5577189922333,4,versionC_stim.csv,READVersionD.csv,"Read Version D","Dissertation, read only version D",BANG,FUZZY,Study2,U,168,142,Study,User,-,,Study/JOL,"Study Phase",1269,,,-1,-1,,,,1
w214500,4moq18am1p,Nick_Dissertation_EX1,1,8,2020-04-20T20:45:11-07:00,1.1037149429321,4,versionC_stim.csv,READVersionD.csv,"Read Version D","Dissertation, read only version D",STRAWBERRY,FRUIT,Study2,F,124,146,Study,User,-,,Study/JOL,"Study Phase",813,,,-1,-1,,,,1
w214500,4moq18am1p,Nick_Dissertation_EX1,1,9,2020-04-20T20:45:12-07:00,1.1366839408875,4,versionC_stim.csv,READVersionD.csv,"Read Version D","Dissertation, read only version D",FLIP,TURN,Study2,F,116,107,Study,User,-,,Study/JOL,"Study Phase",857,,,-1,-1,,,,1
w214500,4moq18am1p,Nick_Dissertation_EX1,1,10,2020-04-20T20:45:14-07:00,1.8413000106812,4,versionC_stim.csv,READVersionD.csv,"Read Version D","Dissertation, read only version D",JOKE,KEYS,Study2,U,165,103,Study,User,-,,Study/JOL,"Study Phase",1565,,,-1,-1,,,,1
w214500,4moq18am1p,Nick_Dissertation_EX1,1,11,2020-04-20T20:45:16-07:00,1.398638010025,4,versionC_stim.csv,READVersionD.csv,"Read Version D","Dissertation, read only version D",SARDINE,FISH,Study2,F,130,154,Study,User,-,,Study/JOL,"Study Phase",1111,,,-1,-1,,,,1
w214500,4moq18am1p,Nick_Dissertation_EX1,1,12,2020-04-20T20:45:17-07:00,1.5093891620636,4,versionC_stim.csv,READVersionD.csv,"Read Version D","Dissertation, read only version D",SCISSORS,SHEARS,Study2,B,112,170,Study,User,-,,Study/JOL,"Study Phase",1222,,,-1,-1,,,,1
w214500,4moq18am1p,Nick_Dissertation_EX1,1,13,2020-04-20T20:45:19-07:00,1.5075349807739,4,versionC_stim.csv,READVersionD.csv,"Read Version D","Dissertation, read only version D",STEAK,GIVE,Study2,U,158,112,Study,User,-,,Study/JOL,"Study Phase",1220,,,-1,-1,,,,1
w214500,4moq18am1p,Nick_Dissertation_EX1,1,14,2020-04-20T20:45:20-07:00,1.3698618412018,4,versionC_stim.csv,READVersionD.csv,"Read Version D","Dissertation, read only version D",CHILDREN,MIRROR,Study2,U,174,167,Study,User,-,,Study/JOL,"Study Phase",1088,,,-1,-1,,,,1
w214500,4moq18am1p,Nick_Dissertation_EX1,1,15,2020-04-20T20:45:22-07:00,1.9012429714203,4,versionC_stim.csv,READVersionD.csv,"Read Version D","Dissertation, read only version D",SMELL,INCENSE,Study2,B,110,148,Study,User,-,,Study/JOL,"Study Phase",1411,,,-1,-1,,,,1
w214500,4moq18am1p,Nick_Dissertation_EX1,1,16,2020-04-20T20:45:23-07:00,1.0338981151581,4,versionC_stim.csv,READVersionD.csv,"Read Version D","Dissertation, read only version D",SCAR,MAIN,Study2,U,175,99,Study,User,-,,Study/JOL,"Study Phase",719,,,-1,-1,,,,1
w214500,4moq18am1p,Nick_Dissertation_EX1,1,17,2020-04-20T20:45:24-07:00,1.15163397789,4,versionC_stim.csv,READVersionD.csv,"Read Version D","Dissertation, read only version D",TAN,SUN,Study2,S,155,108,Study,User,-,,Study/JOL,"Study Phase",870,,,-1,-1,,,,1
w214500,4moq18am1p,Nick_Dissertation_EX1,1,18,2020-04-20T20:45:25-07:00,1.0342810153961,4,versionC_stim.csv,READVersionD.csv,"Read Version D","Dissertation, read only version D",TEMPER,TANTRUM,Study2,S,154,97,Study,User,-,,Study/JOL,"Study Phase",748,,,-1,-1,,,,1
w214500,4moq18am1p,Nick_Dissertation_EX1,1,19,2020-04-20T20:45:26-07:00,1.0366959571838,4,versionC_stim.csv,READVersionD.csv,"Read Version D","Dissertation, read only version D",EQUAL,RIGHTS,Study2,S,137,168,Study,User,-,,Study/JOL,"Study Phase",753,,,-1,-1,,,,1
w214500,4moq18am1p,Nick_Dissertation_EX1,1,20,2020-04-20T20:45:27-07:00,1.3009350299835,4,versionC_stim.csv,READVersionD.csv,"Read Version D","Dissertation, read only version D",SHAKE,Shell,Study2,U,163,105,Study,User,-,,Study/JOL,"Study Phase",1018,,,-1,-1,,,,1
w214500,4moq18am1p,Nick_Dissertation_EX1,1,21,2020-04-20T20:45:29-07:00,1.2810370922089,4,versionC_stim.csv,READVersionD.csv,"Read Version D","Dissertation, read only version D",CLEAR,MOAT,Study2,U,169,109,Study,User,-,,Study/JOL,"Study Phase",1007,,,-1,-1,,,,1
w214500,4moq18am1p,Nick_Dissertation_EX1,1,22,2020-04-20T20:45:30-07:00,1.30739402771,4,versionC_stim.csv,READVersionD.csv,"Read Version D","Dissertation, read only version D",AIRCRAFT,PLANE,Study2,F,129,118,Study,User,-,,Study/JOL,"Study Phase",1035,,,-1,-1,,,,1
w214500,4moq18am1p,Nick_Dissertation_EX1,1,23,2020-04-20T20:45:31-07:00,1.1573078632355,4,versionC_stim.csv,READVersionD.csv,"Read Version D","Dissertation, read only version D",CUT,CHOP,Study2,B,107,160,Study,User,-,,Study/JOL,"Study Phase",880,,,-1,-1,,,,1
w214500,4moq18am1p,Nick_Dissertation_EX1,1,24,2020-04-20T20:45:32-07:00,1.1358499526978,4,versionC_stim.csv,READVersionD.csv,"Read Version D","Dissertation, read only version D",Morning,TEMPERATURE,Study2,U,173,132,Study,User,-,,Study/JOL,"Study Phase",854,,,-1,-1,,,,1
w214500,4moq18am1p,Nick_Dissertation_EX1,1,25,2020-04-20T20:45:34-07:00,1.6441102027893,4,versionC_stim.csv,READVersionD.csv,"Read Version D","Dissertation, read only version D",END,ADJOURN,Study2,B,101,169,Study,User,-,,Study/JOL,"Study Phase",1366,,,-1,-1,,,,1
w214500,4moq18am1p,Nick_Dissertation_EX1,1,26,2020-04-20T20:45:35-07:00,1.4581139087677,4,versionC_stim.csv,READVersionD.csv,"Read Version D","Dissertation, read only version D",PAPER,DOCUMENT,Study2,B,109,164,Study,User,-,,Study/JOL,"Study Phase",1164,,,-1,-1,,,,1
w214500,4moq18am1p,Nick_Dissertation_EX1,1,27,2020-04-20T20:45:37-07:00,1.4474990367889,4,versionC_stim.csv,READVersionD.csv,"Read Version D","Dissertation, read only version D",LIE,TRUTH,Study2,S,148,138,Study,User,-,,Study/JOL,"Study Phase",1132,,,-1,-1,,,,1
w214500,4moq18am1p,Nick_Dissertation_EX1,1,28,2020-04-20T20:45:38-07:00,1.5978150367737,4,versionC_stim.csv,READVersionD.csv,"Read Version D","Dissertation, read only version D",SEATBELT,SAFETY,Study2,S,147,139,Study,User,-,,Study/JOL,"Study Phase",1320,,,-1,-1,,,,1
w214500,4moq18am1p,Nick_Dissertation_EX1,1,29,2020-04-20T20:45:40-07:00,1.2245337963104,4,versionC_stim.csv,READVersionD.csv,"Read Version D","Dissertation, read only version D",HEAD,SCALP,Study2,B,105,175,Study,User,-,,Study/JOL,"Study Phase",946,,,-1,-1,,,,1
w214500,4moq18am1p,Nick_Dissertation_EX1,1,30,2020-04-20T20:45:41-07:00,1.6588652133942,4,versionC_stim.csv,READVersionD.csv,"Read Version D","Dissertation, read only version D",PLANT,CACTUS,Study2,B,98,155,Study,User,-,,Study/JOL,"Study Phase",1380,,,-1,-1,,,,1
w214500,4moq18am1p,Nick_Dissertation_EX1,1,31,2020-04-20T20:45:43-07:00,1.5090367794037,4,versionC_stim.csv,READVersionD.csv,"Read Version D","Dissertation, read only version D",HAVE,OWN,Study2,S,153,98,Study,User,-,,Study/JOL,"Study Phase",1203,,,-1,-1,,,,1
w214500,4moq18am1p,Nick_Dissertation_EX1,1,32,2020-04-20T20:45:44-07:00,1.3839111328125,4,versionC_stim.csv,READVersionD.csv,"Read Version D","Dissertation, read only version D",THIMBLE,THREAD,Study2,F,121,123,Study,User,-,,Study/JOL,"Study Phase",1110,,,-1,-1,,,,1
w214500,4moq18am1p,Nick_Dissertation_EX1,1,33,2020-04-20T20:45:45-07:00,1.1147739887238,4,versionC_stim.csv,READVersionD.csv,"Read Version D","Dissertation, read only version D",NAP,SLEEP,Study2,F,134,165,Study,User,-,,Study/JOL,"Study Phase",829,,,-1,-1,,,,1
w214500,4moq18am1p,Nick_Dissertation_EX1,1,34,2020-04-20T20:45:47-07:00,1.5340580940247,4,versionC_stim.csv,READVersionD.csv,"Read Version D","Dissertation, read only version D",TIE,SHOELACE,Study2,B,99,153,Study,User,-,,Study/JOL,"Study Phase",1196,,,-1,-1,,,,1
w214500,4moq18am1p,Nick_Dissertation_EX1,1,35,2020-04-20T20:45:48-07:00,1.1057260036469,4,versionC_stim.csv,READVersionD.csv,"Read Version D","Dissertation, read only version D",CLOTH,STRETCH,Study2,U,157,117,Study,User,-,,Study/JOL,"Study Phase",816,,,-1,-1,,,,1
w214500,4moq18am1p,Nick_Dissertation_EX1,1,36,2020-04-20T20:45:50-07:00,1.6131248474121,4,versionC_stim.csv,READVersionD.csv,"Read Version D","Dissertation, read only version D",SIGN,LOAN,Study2,U,171,113,Study,User,-,,Study/JOL,"Study Phase",1300,,,-1,-1,,,,1
w214500,4moq18am1p,Nick_Dissertation_EX1,1,37,2020-04-20T20:45:51-07:00,1.3945660591125,4,versionC_stim.csv,READVersionD.csv,"Read Version D","Dissertation, read only version D",BALLOON,POP,Study2,F,123,143,Study,User,-,,Study/JOL,"Study Phase",1118,,,-1,-1,,,,1
w214500,4moq18am1p,Nick_Dissertation_EX1,1,38,2020-04-20T20:45:53-07:00,1.5884630680084,4,versionC_stim.csv,READVersionD.csv,"Read Version D","Dissertation, read only version D",BRACELET,WRIST,Study2,S,140,149,Study,User,-,,Study/JOL,"Study Phase",1298,,,-1,-1,,,,1
w214500,4moq18am1p,Nick_Dissertation_EX1,1,39,2020-04-20T20:45:54-07:00,1.4740760326385,4,versionC_stim.csv,READVersionD.csv,"Read Version D","Dissertation, read only version D",COLD,CHILL,Study2,B,114,136,Study,User,-,,Study/JOL,"Study Phase",1189,,,-1,-1,,,,1
w214500,4moq18am1p,Nick_Dissertation_EX1,1,40,2020-04-20T20:45:55-07:00,1.2793979644775,4,versionC_stim.csv,READVersionD.csv,"Read Version D","Dissertation, read only version D",TICK,FLEA,Study2,S,151,161,Study,User,-,,Study/JOL,"Study Phase",988,,,-1,-1,,,,1
w214500,4moq18am1p,Nick_Dissertation_EX1,1,41,2020-04-20T20:45:57-07:00,1.2752668857574,4,versionC_stim.csv,READVersionD.csv,"Read Version D","Dissertation, read only version D",DONKEY,MULE,Study2,B,108,110,Study,User,-,,Study/JOL,"Study Phase",1004,,,-1,-1,,,,1
w214500,4moq18am1p,Nick_Dissertation_EX1,1,42,2020-04-20T20:45:58-07:00,1.275593996048,4,versionC_stim.csv,READVersionD.csv,"Read Version D","Dissertation, read only version D",ACTRESS,STAR,Study2,F,120,133,Study,User,-,,Study/JOL,"Study Phase",992,,,-1,-1,,,,1
w214500,4moq18am1p,Nick_Dissertation_EX1,1,43,2020-04-20T20:45:59-07:00,1.4800801277161,4,versionC_stim.csv,READVersionD.csv,"Read Version D","Dissertation, read only version D",FAVORITE,BEST,Study2,F,125,122,Study,User,-,,Study/JOL,"Study Phase",1193,,,-1,-1,,,,1
w214500,4moq18am1p,Nick_Dissertation_EX1,1,44,2020-04-20T20:46:01-07:00,1.4480268955231,4,versionC_stim.csv,READVersionD.csv,"Read Version D","Dissertation, read only version D",ABLE,CRACKLE,Study2,U,162,140,Study,User,-,,Study/JOL,"Study Phase",1149,,,-1,-1,,,,1
w214500,4moq18am1p,Nick_Dissertation_EX1,1,45,2020-04-20T20:46:02-07:00,1.2552809715271,4,versionC_stim.csv,READVersionD.csv,"Read Version D","Dissertation, read only version D",TRUTHFUL,HONEST,Study2,F,133,147,Study,User,-,,Study/JOL,"Study Phase",976,,,-1,-1,,,,1
w214500,4moq18am1p,Nick_Dissertation_EX1,1,46,2020-04-20T20:46:03-07:00,1.2125160694122,4,versionC_stim.csv,READVersionD.csv,"Read Version D","Dissertation, read only version D",DOG,FURRY,Study2,B,102,150,Study,User,-,,Study/JOL,"Study Phase",932,,,-1,-1,,,,1
w214500,4moq18am1p,Nick_Dissertation_EX1,1,47,2020-04-20T20:46:05-07:00,2.1075880527496,4,versionC_stim.csv,READVersionD.csv,"Read Version D","Dissertation, read only version D",ELECTION,MAZE,Study2,U,159,119,Study,User,-,,Study/JOL,"Study Phase",1815,,,-1,-1,,,,1
w214500,4moq18am1p,Nick_Dissertation_EX1,1,48,2020-04-20T20:46:07-07:00,1.5318758487701,4,versionC_stim.csv,READVersionD.csv,"Read Version D","Dissertation, read only version D",COFFIN,DEAD,Study2,F,128,145,Study,User,-,,Study/JOL,"Study Phase",1237,,,-1,-1,,,,1
w214500,4moq18am1p,Nick_Dissertation_EX1,1,49,2020-04-20T20:46:09-07:00,1.6910481452942,4,versionC_stim.csv,READVersionD.csv,"Read Version D","Dissertation, read only version D",MYSTERY,DETECTIVE,Study2,B,100,152,Study,User,-,,Study/JOL,"Study Phase",1402,,,-1,-1,,,,1
w214500,4moq18am1p,Nick_Dissertation_EX1,1,50,2020-04-20T20:46:10-07:00,1.6740968227386,4,versionC_stim.csv,READVersionD.csv,"Read Version D","Dissertation, read only version D",GAME,CLUE,Study2,B,97,174,Study,User,-,,Study/JOL,"Study Phase",1390,,,-1,-1,,,,1
w214500,4moq18am1p,Nick_Dissertation_EX1,1,51,2020-04-20T20:46:12-07:00,1.739000082016,4,versionC_stim.csv,READVersionD.csv,"Read Version D","Dissertation, read only version D",GROUND,EARTH,Study2,S,144,120,Study,User,-,,Study/JOL,"Study Phase",1461,,,-1,-1,,,,1
w214500,4moq18am1p,Nick_Dissertation_EX1,1,52,2020-04-20T20:46:13-07:00,1.2526760101318,4,versionC_stim.csv,READVersionD.csv,"Read Version D","Dissertation, read only version D",EAT,DINE,Study2,B,111,128,Study,User,-,,Study/JOL,"Study Phase",971,,,-1,-1,,,,1
w214500,4moq18am1p,Nick_Dissertation_EX1,1,53,2020-04-20T20:46:14-07:00,1.2535090446472,4,versionC_stim.csv,READVersionD.csv,"Read Version D","Dissertation, read only version D",CAR,DRIVER,Study2,B,106,126,Study,User,-,,Study/JOL,"Study Phase",970,,,-1,-1,,,,1
w214500,4moq18am1p,Nick_Dissertation_EX1,1,54,2020-04-20T20:46:17-07:00,2.1305079460144,4,versionC_stim.csv,READVersionD.csv,"Read Version D","Dissertation, read only version D",HATE,NAME,Study2,U,167,172,Study,User,-,,Study/JOL,"Study Phase",1842,,,-1,-1,,,,1
w214500,4moq18am1p,Nick_Dissertation_EX1,1,55,2020-04-20T20:46:18-07:00,1.3881890773773,4,versionC_stim.csv,READVersionD.csv,"Read Version D","Dissertation, read only version D",WAX,CANDLE,Study2,S,139,114,Study,User,-,,Study/JOL,"Study Phase",1089,,,-1,-1,,,,1
w214500,4moq18am1p,Nick_Dissertation_EX1,1,56,2020-04-20T20:46:19-07:00,1.381413936615,4,versionC_stim.csv,READVersionD.csv,"Read Version D","Dissertation, read only version D",MAROON,JUSTICE,Study2,U,156,125,Study,User,-,,Study/JOL,"Study Phase",1093,,,-1,-1,,,,1
w214500,4moq18am1p,Nick_Dissertation_EX1,1,57,2020-04-20T20:46:21-07:00,1.2044780254364,4,versionC_stim.csv,READVersionD.csv,"Read Version D","Dissertation, read only version D",LONELY,ALONE,Study2,S,145,104,Study,User,-,,Study/JOL,"Study Phase",910,,,-1,-1,,,,1
w214500,4moq18am1p,Nick_Dissertation_EX1,1,58,2020-04-20T20:46:22-07:00,1.449539899826,4,versionC_stim.csv,READVersionD.csv,"Read Version D","Dissertation, read only version D",DRINK,WATER,Study2,S,143,127,Study,User,-,,Study/JOL,"Study Phase",1168,,,-1,-1,,,,1
w214500,4moq18am1p,Nick_Dissertation_EX1,1,59,2020-04-20T20:46:23-07:00,1.2229101657867,4,versionC_stim.csv,READVersionD.csv,"Read Version D","Dissertation, read only version D",CHARM,VEHICLE,Study2,U,160,116,Study,User,-,,Study/JOL,"Study Phase",930,,,-1,-1,,,,1
w214500,4moq18am1p,Nick_Dissertation_EX1,1,60,2020-04-20T20:46:25-07:00,1.5413529872894,4,versionC_stim.csv,READVersionD.csv,"Read Version D","Dissertation, read only version D",JAR,MASON,Study2,S,138,101,Study,User,-,,Study/JOL,"Study Phase",1235,,,-1,-1,,,,1
w214500,4moq18am1p,Nick_Dissertation_EX1,1,61,2020-04-20T20:46:26-07:00,1.3611898422241,4,versionC_stim.csv,READVersionD.csv,"Read Version D","Dissertation, read only version D",WET,DRY,Study2,S,146,156,Study,User,-,,Study/JOL,"Study Phase",1062,,,-1,-1,,,,1
w214500,4moq18am1p,Nick_Dissertation_EX1,1,62,2020-04-20T20:46:28-07:00,1.4833991527557,4,versionC_stim.csv,READVersionD.csv,"Read Version D","Dissertation, read only version D",WINDSHIELD,CAR,Study2,F,117,106,Study,User,-,,Study/JOL,"Study Phase",1207,,,-1,-1,,,,1
w214500,4moq18am1p,Nick_Dissertation_EX1,1,63,2020-04-20T20:46:29-07:00,1.4117510318756,4,versionC_stim.csv,READVersionD.csv,"Read Version D","Dissertation, read only version D",CLOTHES,CAKE,Study2,U,166,157,Study,User,-,,Study/JOL,"Study Phase",1115,,,-1,-1,,,,1
w214500,4moq18am1p,Nick_Dissertation_EX1,1,64,2020-04-20T20:46:31-07:00,1.5374698638916,4,versionC_stim.csv,READVersionD.csv,"Read Version D","Dissertation, read only version D",COMMUNICATION,PHONE,Study2,S,149,129,Study,User,-,,Study/JOL,"Study Phase",1239,,,-1,-1,,,,1
w214500,4moq18am1p,Nick_Dissertation_EX1,1,65,2020-04-20T20:46:32-07:00,1.311252117157,4,versionC_stim.csv,READVersionD.csv,"Read Version D","Dissertation, read only version D",PENGUIN,BIRD,Study2,F,119,166,Study,User,-,,Study/JOL,"Study Phase",1006,,,-1,-1,,,,1
w214500,4moq18am1p,Nick_Dissertation_EX1,1,66,2020-04-20T20:46:33-07:00,1.254959821701,4,versionC_stim.csv,READVersionD.csv,"Read Version D","Dissertation, read only version D",LOVE,AFFECTION,Study2,B,115,102,Study,User,-,,Study/JOL,"Study Phase",974,,,-1,-1,,,,1
w214500,4moq18am1p,Nick_Dissertation_EX1,1,67,2020-04-20T20:46:35-07:00,1.4721891880035,4,versionC_stim.csv,READVersionD.csv,"Read Version D","Dissertation, read only version D",LEAGUE,BASEBALL,Study2,F,131,173,Study,User,-,,Study/JOL,"Study Phase",1177,,,-1,-1,,,,1
w214500,4moq18am1p,Nick_Dissertation_EX1,1,68,2020-04-20T20:46:37-07:00,1.9773228168488,4,versionC_stim.csv,READVersionD.csv,"Read Version D","Dissertation, read only version D",NOISE,LOUD,Study2,S,152,163,Study,User,-,,Study/JOL,"Study Phase",1685,,,-1,-1,,,,1
w214500,4moq18am1p,Nick_Dissertation_EX1,1,69,2020-04-20T20:46:38-07:00,1.5325531959534,4,versionC_stim.csv,READVersionD.csv,"Read Version D","Dissertation, read only version D",OBTAIN,MEAT,Study2,U,161,111,Study,User,-,,Study/JOL,"Study Phase",1249,,,-1,-1,,,,1
w214500,4moq18am1p,Nick_Dissertation_EX1,1,70,2020-04-20T20:46:39-07:00,1.2700238227844,4,versionC_stim.csv,READVersionD.csv,"Read Version D","Dissertation, read only version D",REVENGE,EVEN,Study2,F,122,124,Study,User,-,,Study/JOL,"Study Phase",979,,,-1,-1,,,,1
w214500,4moq18am1p,Nick_Dissertation_EX1,1,71,2020-04-20T20:46:41-07:00,1.2428390979767,4,versionC_stim.csv,READVersionD.csv,"Read Version D","Dissertation, read only version D",SHAVE,RAZOR,Study2,S,136,144,Study,User,-,,Study/JOL,"Study Phase",945,,,-1,-1,,,,1
w214500,4moq18am1p,Nick_Dissertation_EX1,1,72,2020-04-20T20:46:42-07:00,1.4518659114838,4,versionC_stim.csv,READVersionD.csv,"Read Version D","Dissertation, read only version D",FICTION,LISTEN,Study2,U,164,115,Study,User,-,,Study/JOL,"Study Phase",1166,,,-1,-1,,,,1
w214500,4moq18am1p,Nick_Dissertation_EX1,1,73,2020-04-20T20:46:44-07:00,1.635801076889,4,versionC_stim.csv,READVersionD.csv,"Read Version D","Dissertation, read only version D",BANKER,MONEY,Study2,F,132,171,Study,User,-,,Study/JOL,"Study Phase",1333,,,-1,-1,,,,1
w214500,4moq18am1p,Nick_Dissertation_EX1,1,74,2020-04-20T20:46:45-07:00,1.2300839424133,4,versionC_stim.csv,READVersionD.csv,"Read Version D","Dissertation, read only version D",TRASH,LITTER,Study2,B,103,135,Study,User,-,,Study/JOL,"Study Phase",944,,,-1,-1,,,,1
w214500,4moq18am1p,Nick_Dissertation_EX1,1,75,2020-04-20T20:46:46-07:00,1.2566001415253,4,versionC_stim.csv,READVersionD.csv,"Read Version D","Dissertation, read only version D",RED,CHERRY,Study2,B,104,134,Study,User,-,,Study/JOL,"Study Phase",965,,,-1,-1,,,,1
w214500,4moq18am1p,Nick_Dissertation_EX1,1,76,2020-04-20T20:46:48-07:00,1.4778258800507,4,versionC_stim.csv,READVersionD.csv,"Read Version D","Dissertation, read only version D",FIGHT,FEUD,Study2,B,113,151,Study,User,-,,Study/JOL,"Study Phase",1176,,,-1,-1,,,,1
w214500,4moq18am1p,Nick_Dissertation_EX1,1,77,2020-04-20T20:46:49-07:00,1.1824431419373,4,versionC_stim.csv,READVersionD.csv,"Read Version D","Dissertation, read only version D",TOIL,LEASE,Study2,U,170,159,Study,User,-,,Study/JOL,"Study Phase",885,,,-1,-1,,,,1
w214500,4moq18am1p,Nick_Dissertation_EX1,1,78,2020-04-20T20:46:50-07:00,1.3078858852386,4,versionC_stim.csv,READVersionD.csv,"Read Version D","Dissertation, read only version D",BRAWL,FIGHT,Study2,F,135,130,Study,User,-,,Study/JOL,"Study Phase",999,,,-1,-1,,,,1
w214500,4moq18am1p,Nick_Dissertation_EX1,1,79,2020-04-20T20:46:52-07:00,1.5306560993195,4,versionC_stim.csv,READVersionD.csv,"Read Version D","Dissertation, read only version D",CARBON,ELEMENT,Study2,S,141,162,Study,User,-,,Study/JOL,"Study Phase",1225,,,-1,-1,,,,1
w214500,4moq18am1p,Nick_Dissertation_EX1,1,80,2020-04-20T20:46:53-07:00,1.2424738407135,4,versionC_stim.csv,READVersionD.csv,"Read Version D","Dissertation, read only version D",AWAY,GONE,Study2,S,142,137,Study,User,-,,Study/JOL,"Study Phase",939,,,-1,-1,,,,1
w214500,4moq18am1p,Nick_Dissertation_EX1,1,81,2020-04-20T20:46:54-07:00,1.4820621013641,4,versionC_stim.csv,READVersionD.csv,"Read Version D","Dissertation, read only version D",BREAKABLE,GLASS,Study2,F,127,131,Study,User,-,,Study/JOL,"Study Phase",1188,,,-1,-1,,,,1
w214500,4moq18am1p,Nick_Dissertation_EX1,1,82,2020-04-20T20:46:56-07:00,1.4992978572845,4,versionC_stim.csv,READVersionD.csv,"Read Version D","Dissertation, read only version D",PANTHER,CAT,Study2,F,126,176,Study,User,-,,Study/JOL,"Study Phase",1218,,,-1,-1,,,,1
w214500,4moq18am1p,Nick_Dissertation_EX1,1,83,2020-04-20T20:46:58-07:00,1.6917250156403,4,versionC_stim.csv,READVersionD.csv,"Read Version D","Dissertation, read only version D",LONG,EXTENSION,Study2,B,96,121,Study,User,-,,Study/JOL,"Study Phase",1402,,,-1,-1,,,,1
w214500,4moq18am1p,Nick_Dissertation_EX1,1,84,2020-04-20T20:46:59-07:00,1.3916001319885,4,versionC_stim.csv,READVersionD.csv,"Read Version D","Dissertation, read only version D",REEL,ROD,Study2,S,150,100,Study,User,-,,Study/JOL,"Study Phase",1096,,,-1,-1,,,,1
w214500,4moq18am1p,Nick_Dissertation_EX1,1,85,2020-04-20T20:47:01-07:00,1.4784460067749,4,versionC_stim.csv,READVersionD.csv,"Read Version D","Dissertation, read only version D",OUNCE,BOTH,Study2,U,172,141,Study,User,-,,Study/JOL,"Study Phase",1172,,,-1,-1,,,,1
w214500,4moq18am1p,Nick_Dissertation_EX1,1,86,2020-04-20T20:47:02-07:00,1.6514279842377,4,versionC_stim.csv,READVersionD.csv,"Read Version D","Dissertation, read only version D",VILLAIN,BAD,Study2,F,118,158,Study,User,-,,Study/JOL,"Study Phase",1373,,,-1,-1,,,,1
w214500,4moq18am1p,Nick_Dissertation_EX1,1,87,2020-04-20T20:47:04-07:00,1.4553780555725,4,versionC_stim.csv,READVersionD.csv,"Read Version D","Dissertation, read only version D",MARCH,SPRING,BUFFER4,Buffer,179,179,Study,User,-,,Study/JOL,BUFFER2,1149,,,-1,-1,,,,1
w214500,4moq18am1p,Nick_Dissertation_EX1,1,88,2020-04-20T20:47:05-07:00,1.4710848331451,4,versionC_stim.csv,READVersionD.csv,"Read Version D","Dissertation, read only version D",SPOOKY,OCTOBER,BUFFER4,Buffer,180,180,Study,User,-,,Study/JOL,BUFFER2,1180,,,-1,-1,,,,1
w214500,4moq18am1p,Nick_Dissertation_EX1,1,89,2020-04-20T20:47:07-07:00,1.7087800502777,4,versionC_stim.csv,READVersionD.csv,"Read Version D","Dissertation, read only version D",YEAR,MONTH,BUFFER4,Buffer,177,181,Study,User,-,,Study/JOL,BUFFER2,1422,,,-1,-1,,,,1
w214500,4moq18am1p,Nick_Dissertation_EX1,1,90,2020-04-20T20:47:08-07:00,1.2427639961243,4,versionC_stim.csv,READVersionD.csv,"Read Version D","Dissertation, read only version D",WEAKS,DAYS,BUFFER4,Buffer,176,177,Study,User,-,,Study/JOL,BUFFER2,937,,,-1,-1,,,,1
w214500,4moq18am1p,Nick_Dissertation_EX1,1,91,2020-04-20T20:47:10-07:00,1.6759071350098,4,versionC_stim.csv,READVersionD.csv,"Read Version D","Dissertation, read only version D",SHED,TOOL,BUFFER4,Buffer,178,178,Study,User,-,,Study/JOL,BUFFER2,1388,,,-1,-1,,,,1
w214500,4moq18am1p,Nick_Dissertation_EX1,1,92,2020-04-20T20:47:12-07:00,2.3026897907257,4,versionC_stim.csv,READVersionD.csv,"Read Version D","Dissertation, read only version D",,,,,,0,Instruct,User,-,"You have completed this section. Please press Enter.",Filler_Instruction,Instruct2,2015,,,-1,-1,,,,1
w214500,4moq18am1p,Nick_Dissertation_EX1,1,93,2020-04-20T20:49:13-07:00,120.77080202103,4,versionC_stim.csv,READVersionD.csv,"Read Version D","Dissertation, read only version D",,,,,,0,FreeRecall,120,120,"Please list the 50 US states in alphabetical order. The task will automatically advance to the next screen after two minutes.",,Filler1,120003,"Alabama Alaska Arizone Arkansas California Colorado Conneticut Delaware Florida Georgia Hawaii Idaho Illinois Indiana Iowa Kansas Kentucky Louisianna Maine Maryland Massa",0,32795,118666,0,0,,1
w214500,4moq18am1p,Nick_Dissertation_EX1,1,94,2020-04-20T20:49:24-07:00,11.404201030731,4,versionC_stim.csv,READVersionD.csv,"Read Version D","Dissertation, read only version D",,,,,,0,Instruct,-,10,"You will now be presented with the first word from each of the previously studied item pairs. Please type the missing word. If you do not know the word, you may guess or press Enter to skip forward to the next pair.",,Instruct3,10927,,,-1,-1,,,,1
w214500,4moq18am1p,Nick_Dissertation_EX1,1,95,2020-04-20T20:49:34-07:00,9.3260900974274,4,versionC_stim.csv,READVersionD.csv,"Read Version D","Dissertation, read only version D",TAN,SUN,Study2,S,155,108,Test,User,-,,Recall,Recall1,9024,Sun,100,7314,7670,1,1,,1
w214500,4moq18am1p,Nick_Dissertation_EX1,1,96,2020-04-20T20:49:38-07:00,3.977294921875,4,versionC_stim.csv,READVersionD.csv,"Read Version D","Dissertation, read only version D",BREAKABLE,GLASS,Study2,F,127,131,Test,User,-,,Recall,Recall1,3679,Glass,100,1860,3011,1,1,,1
w214500,4moq18am1p,Nick_Dissertation_EX1,1,97,2020-04-20T20:49:43-07:00,5.6115090847015,4,versionC_stim.csv,READVersionD.csv,"Read Version D","Dissertation, read only version D",FLIP,TURN,Study2,F,116,107,Test,User,-,,Recall,Recall1,4998,Turn,100,2834,4128,1,1,,1
w214500,4moq18am1p,Nick_Dissertation_EX1,1,98,2020-04-20T20:49:46-07:00,3.2237269878387,4,versionC_stim.csv,READVersionD.csv,"Read Version D","Dissertation, read only version D",COFFIN,DEAD,Study2,F,128,145,Test,User,-,,Recall,Recall1,2925,Death,66.666666666667,1300,2107,0,0,,1
w214500,4moq18am1p,Nick_Dissertation_EX1,1,99,2020-04-20T20:49:50-07:00,4.0857698917389,4,versionC_stim.csv,READVersionD.csv,"Read Version D","Dissertation, read only version D",BANG,FUZZY,Study2,U,168,142,Test,User,-,,Recall,Recall1,3791,Crash,0,2218,2882,0,0,,1
w214500,4moq18am1p,Nick_Dissertation_EX1,1,100,2020-04-20T20:49:58-07:00,7.5001721382141,4,versionC_stim.csv,READVersionD.csv,"Read Version D","Dissertation, read only version D",SEATBELT,SAFETY,Study2,S,147,139,Test,User,-,,Recall,Recall1,7213,fasten,33.333333333333,2435,6202,0,0,,1
w214500,4moq18am1p,Nick_Dissertation_EX1,1,101,2020-04-20T20:50:03-07:00,4.7911989688873,4,versionC_stim.csv,READVersionD.csv,"Read Version D","Dissertation, read only version D",LONG,EXTENSION,Study2,B,96,121,Test,User,-,,Recall,Recall1,4490,far,0,3452,3662,0,0,,1
w214500,4moq18am1p,Nick_Dissertation_EX1,1,102,2020-04-20T20:50:10-07:00,7.5568220615387,4,versionC_stim.csv,READVersionD.csv,"Read Version D","Dissertation, read only version D",DOG,FURRY,Study2,B,102,150,Test,User,-,,Recall,Recall1,7261,Bark,22.222222222222,5765,6244,0,0,,1
w214500,4moq18am1p,Nick_Dissertation_EX1,1,103,2020-04-20T20:50:18-07:00,7.3186299800873,4,versionC_stim.csv,READVersionD.csv,"Read Version D","Dissertation, read only version D",HAVE,OWN,Study2,S,153,98,Test,User,-,,Recall,Recall1,6681,Want,57.142857142857,3654,5772,0,0,,1
w214500,4moq18am1p,Nick_Dissertation_EX1,1,104,2020-04-20T20:50:26-07:00,8.372123003006,4,versionC_stim.csv,READVersionD.csv,"Read Version D","Dissertation, read only version D",STRAWBERRY,FRUIT,Study2,F,124,146,Test,User,-,,Recall,Recall1,8055,fruit,100,5933,6753,1,1,,1
w214500,4moq18am1p,Nick_Dissertation_EX1,1,105,2020-04-20T20:50:29-07:00,3.1042659282684,4,versionC_stim.csv,READVersionD.csv,"Read Version D","Dissertation, read only version D",OBTAIN,MEAT,Study2,U,161,111,Test,User,-,,Recall,Recall1,2809,get,57.142857142857,1582,1866,0,0,,1
w214500,4moq18am1p,Nick_Dissertation_EX1,1,106,2020-04-20T20:50:36-07:00,6.7829790115356,4,versionC_stim.csv,READVersionD.csv,"Read Version D","Dissertation, read only version D",SCAR,MAIN,Study2,U,175,99,Test,User,-,,Recall,Recall1,6493,hurt,0,5351,5707,0,0,,1
w214500,4moq18am1p,Nick_Dissertation_EX1,1,107,2020-04-20T20:50:41-07:00,4.7316770553589,4,versionC_stim.csv,READVersionD.csv,"Read Version D","Dissertation, read only version D",REVENGE,EVEN,Study2,F,122,124,Test,User,-,,Recall,Recall1,4450,plot,0,3003,3596,0,0,,1
w214500,4moq18am1p,Nick_Dissertation_EX1,1,108,2020-04-20T20:50:46-07:00,5.5084459781647,4,versionC_stim.csv,READVersionD.csv,"Read Version D","Dissertation, read only version D",PANTHER,CAT,Study2,F,126,176,Test,User,-,,Recall,Recall1,5205,black,25,1749,4185,0,0,,1
w214500,4moq18am1p,Nick_Dissertation_EX1,1,109,2020-04-20T20:50:57-07:00,10.399209022522,4,versionC_stim.csv,READVersionD.csv,"Read Version D","Dissertation, read only version D",PENGUIN,BIRD,Study2,F,119,166,Test,User,-,,Recall,Recall1,9931,waddle,20,8062,9135,0,0,,1
w214500,4moq18am1p,Nick_Dissertation_EX1,1,110,2020-04-20T20:51:23-07:00,26.037983894348,4,versionC_stim.csv,READVersionD.csv,"Read Version D","Dissertation, read only version D",CHARM,VEHICLE,Study2,U,160,116,Test,User,-,,Recall,Recall1,25661,,0,22215,22578,0,0,,1
w214500,4moq18am1p,Nick_Dissertation_EX1,1,111,2020-04-20T20:51:29-07:00,6.2734410762787,4,versionC_stim.csv,READVersionD.csv,"Read Version D","Dissertation, read only version D",TOIL,LEASE,Study2,U,170,159,Test,User,-,,Recall,Recall1,5966,trouble,33.333333333333,3626,5133,0,0,,1
w214500,4moq18am1p,Nick_Dissertation_EX1,1,112,2020-04-20T20:51:35-07:00,6.5229189395905,4,versionC_stim.csv,READVersionD.csv,"Read Version D","Dissertation, read only version D",BRAWL,FIGHT,Study2,F,135,130,Test,User,-,,Recall,Recall1,6232,"fight ",100,1910,5179,1,1,,1
w214500,4moq18am1p,Nick_Dissertation_EX1,1,113,2020-04-20T20:51:38-07:00,2.9063339233398,4,versionC_stim.csv,READVersionD.csv,"Read Version D","Dissertation, read only version D",RED,CHERRY,Study2,B,104,134,Test,User,-,,Recall,Recall1,2611,rose,20,1156,1642,0,0,,1
w214500,4moq18am1p,Nick_Dissertation_EX1,1,114,2020-04-20T20:51:42-07:00,4.1486330032349,4,versionC_stim.csv,READVersionD.csv,"Read Version D","Dissertation, read only version D",NAP,SLEEP,Study2,F,134,165,Test,User,-,,Recall,Recall1,3857,sleep,100,2395,2872,1,1,,1
w214500,4moq18am1p,Nick_Dissertation_EX1,1,115,2020-04-20T20:51:48-07:00,5.1264750957489,4,versionC_stim.csv,READVersionD.csv,"Read Version D","Dissertation, read only version D",SHAVE,RAZOR,Study2,S,136,144,Test,User,-,,Recall,Recall1,4834,cut,0,3742,4143,0,0,,1
w214500,4moq18am1p,Nick_Dissertation_EX1,1,116,2020-04-20T20:51:51-07:00,3.8953099250793,4,versionC_stim.csv,READVersionD.csv,"Read Version D","Dissertation, read only version D",ABLE,CRACKLE,Study2,U,162,140,Test,User,-,,Recall,Recall1,3594,can,40,2462,2805,0,0,,1
w214500,4moq18am1p,Nick_Dissertation_EX1,1,117,2020-04-20T20:51:56-07:00,4.6404211521149,4,versionC_stim.csv,READVersionD.csv,"Read Version D","Dissertation, read only version D",BALLOON,POP,Study2,F,123,143,Test,User,-,,Recall,Recall1,4324,animal,0,2462,3321,0,0,,1
w214500,4moq18am1p,Nick_Dissertation_EX1,1,118,2020-04-20T20:52:01-07:00,5.3184909820557,4,versionC_stim.csv,READVersionD.csv,"Read Version D","Dissertation, read only version D",ELECTION,MAZE,Study2,U,159,119,Test,User,-,,Recall,Recall1,4610,vote,25,3265,3738,0,0,,1
w214500,4moq18am1p,Nick_Dissertation_EX1,1,119,2020-04-20T20:52:05-07:00,3.5693328380585,4,versionC_stim.csv,READVersionD.csv,"Read Version D","Dissertation, read only version D",WAX,CANDLE,Study2,S,139,114,Test,User,-,,Recall,Recall1,3210,candle,100,1436,2383,1,1,,1
w214500,4moq18am1p,Nick_Dissertation_EX1,1,120,2020-04-20T20:52:09-07:00,3.6886510848999,4,versionC_stim.csv,READVersionD.csv,"Read Version D","Dissertation, read only version D",HATE,NAME,Study2,U,167,172,Test,User,-,,Recall,Recall1,3265,mad,28.571428571429,2286,2611,0,0,,1
w214500,4moq18am1p,Nick_Dissertation_EX1,1,121,2020-04-20T20:52:13-07:00,4.8730978965759,4,versionC_stim.csv,READVersionD.csv,"Read Version D","Dissertation, read only version D",FICTION,LISTEN,Study2,U,164,115,Test,User,-,,Recall,Recall1,4568,story,36.363636363636,2772,3414,0,0,,1
w214500,4moq18am1p,Nick_Dissertation_EX1,1,122,2020-04-20T20:52:21-07:00,7.7147071361542,4,versionC_stim.csv,READVersionD.csv,"Read Version D","Dissertation, read only version D",STEAK,GIVE,Study2,U,158,112,Test,User,-,,Recall,Recall1,7419,chop,0,5920,6603,0,0,,1
w214500,4moq18am1p,Nick_Dissertation_EX1,1,123,2020-04-20T20:52:26-07:00,4.6451518535614,4,versionC_stim.csv,READVersionD.csv,"Read Version D","Dissertation, read only version D",FIGHT,FEUD,Study2,B,113,151,Test,User,-,,Recall,Recall1,4348,brawl,0,2282,3453,0,0,,1
w214500,4moq18am1p,Nick_Dissertation_EX1,1,124,2020-04-20T20:52:31-07:00,5.085401058197,4,versionC_stim.csv,READVersionD.csv,"Read Version D","Dissertation, read only version D",TRUTHFUL,HONEST,Study2,F,133,147,Test,User,-,,Recall,Recall1,4784,honest,100,3219,4003,1,1,,1
w214500,4moq18am1p,Nick_Dissertation_EX1,1,125,2020-04-20T20:52:34-07:00,3.2669310569763,4,versionC_stim.csv,READVersionD.csv,"Read Version D","Dissertation, read only version D",REEL,ROD,Study2,S,150,100,Test,User,-,,Recall,Recall1,2975,fish,0,1865,2208,0,0,,1
w214500,4moq18am1p,Nick_Dissertation_EX1,1,126,2020-04-20T20:52:39-07:00,4.655219078064,4,versionC_stim.csv,READVersionD.csv,"Read Version D","Dissertation, read only version D",GROUND,EARTH,Study2,S,144,120,Test,User,-,,Recall,Recall1,4321,break,40,1808,3502,0,0,,1
w214500,4moq18am1p,Nick_Dissertation_EX1,1,127,2020-04-20T20:52:52-07:00,12.942530870438,4,versionC_stim.csv,READVersionD.csv,"Read Version D","Dissertation, read only version D",CLOTH,STRETCH,Study2,U,157,117,Test,User,-,,Recall,Recall1,12538,clothes,28.571428571429,10101,11723,0,0,,1
w214500,4moq18am1p,Nick_Dissertation_EX1,1,128,2020-04-20T20:52:56-07:00,4.4280200004578,4,versionC_stim.csv,READVersionD.csv,"Read Version D","Dissertation, read only version D",TEMPER,TANTRUM,Study2,S,154,97,Test,User,-,,Recall,Recall1,4077,tantrum,100,1799,2873,1,1,,1
w214500,4moq18am1p,Nick_Dissertation_EX1,1,129,2020-04-20T20:53:02-07:00,5.3151869773865,4,versionC_stim.csv,READVersionD.csv,"Read Version D","Dissertation, read only version D",LONELY,ALONE,Study2,S,145,104,Test,User,-,,Recall,Recall1,4871,sad,25,1458,4242,0,0,,1
w214500,4moq18am1p,Nick_Dissertation_EX1,1,130,2020-04-20T20:53:05-07:00,3.5167660713196,4,versionC_stim.csv,READVersionD.csv,"Read Version D","Dissertation, read only version D",THIMBLE,THREAD,Study2,F,121,123,Test,User,-,,Recall,Recall1,3219,needle,33.333333333333,1381,2167,0,0,,1
w214500,4moq18am1p,Nick_Dissertation_EX1,1,131,2020-04-20T20:53:11-07:00,5.4845700263977,4,versionC_stim.csv,READVersionD.csv,"Read Version D","Dissertation, read only version D",CLOTHES,CAKE,Study2,U,166,157,Test,User,-,,Recall,Recall1,5189,thread,20,3567,4565,0,0,,1
w214500,4moq18am1p,Nick_Dissertation_EX1,1,132,2020-04-20T20:53:14-07:00,2.9531750679016,4,versionC_stim.csv,READVersionD.csv,"Read Version D","Dissertation, read only version D",MAROON,JUSTICE,Study2,U,156,125,Test,User,-,,Recall,Recall1,2641,red,20,1397,1750,0,0,,1
w214500,4moq18am1p,Nick_Dissertation_EX1,1,133,2020-04-20T20:53:17-07:00,3.8173139095306,4,versionC_stim.csv,READVersionD.csv,"Read Version D","Dissertation, read only version D",AWAY,GONE,Study2,S,142,137,Test,User,-,,Recall,Recall1,3524,far,0,2025,2490,0,0,,1
w214500,4moq18am1p,Nick_Dissertation_EX1,1,134,2020-04-20T20:53:21-07:00,4.0303409099579,4,versionC_stim.csv,READVersionD.csv,"Read Version D","Dissertation, read only version D",TICK,FLEA,Study2,S,151,161,Test,User,-,,Recall,Recall1,3720,time,25,2211,2657,0,0,,1
w214500,4moq18am1p,Nick_Dissertation_EX1,1,135,2020-04-20T20:53:25-07:00,3.3255071640015,4,versionC_stim.csv,READVersionD.csv,"Read Version D","Dissertation, read only version D",Morning,TEMPERATURE,Study2,U,173,132,Test,User,-,,Recall,Recall1,3026,night,12.5,1237,2145,0,0,,1
w214500,4moq18am1p,Nick_Dissertation_EX1,1,136,2020-04-20T20:53:27-07:00,2.5138728618622,4,versionC_stim.csv,READVersionD.csv,"Read Version D","Dissertation, read only version D",COLD,CHILL,Study2,B,114,136,Test,User,-,,Recall,Recall1,2220,hot,25,1319,1642,0,0,,1
w214500,4moq18am1p,Nick_Dissertation_EX1,1,137,2020-04-20T20:53:37-07:00,10.120651960373,4,versionC_stim.csv,READVersionD.csv,"Read Version D","Dissertation, read only version D",SIGN,LOAN,Study2,U,171,113,Test,User,-,,Recall,Recall1,9490,stop,25,7505,8134,0,0,,1
w214500,4moq18am1p,Nick_Dissertation_EX1,1,138,2020-04-20T20:53:41-07:00,3.675929069519,4,versionC_stim.csv,READVersionD.csv,"Read Version D","Dissertation, read only version D",JAR,MASON,Study2,S,138,101,Test,User,-,,Recall,Recall1,3377,mason,100,1951,2563,1,1,,1
w214500,4moq18am1p,Nick_Dissertation_EX1,1,139,2020-04-20T20:53:46-07:00,4.9907450675964,4,versionC_stim.csv,READVersionD.csv,"Read Version D","Dissertation, read only version D",VILLAIN,BAD,Study2,F,118,158,Test,User,-,,Recall,Recall1,4692,evil,0,1825,3522,0,0,,1
w214500,4moq18am1p,Nick_Dissertation_EX1,1,140,2020-04-20T20:53:52-07:00,5.9657950401306,4,versionC_stim.csv,READVersionD.csv,"Read Version D","Dissertation, read only version D",ACTRESS,STAR,Study2,F,120,133,Test,User,-,,Recall,Recall1,5670,woman,22.222222222222,3783,4803,0,0,,1
w214500,4moq18am1p,Nick_Dissertation_EX1,1,141,2020-04-20T20:53:59-07:00,7.2097170352936,4,versionC_stim.csv,READVersionD.csv,"Read Version D","Dissertation, read only version D",COMMUNICATION,PHONE,Study2,S,149,129,Test,User,-,,Recall,Recall1,6929,people,36.363636363636,4708,6115,0,0,,1
w214500,4moq18am1p,Nick_Dissertation_EX1,1,142,2020-04-20T20:54:08-07:00,8.7568237781525,4,versionC_stim.csv,READVersionD.csv,"Read Version D","Dissertation, read only version D",CUT,CHOP,Study2,B,107,160,Test,User,-,,Recall,Recall1,8145,ties,0,6714,7359,0,0,,1
w214500,4moq18am1p,Nick_Dissertation_EX1,1,143,2020-04-20T20:54:11-07:00,2.9112150669098,4,versionC_stim.csv,READVersionD.csv,"Read Version D","Dissertation, read only version D",CAR,DRIVER,Study2,B,106,126,Test,User,-,,Recall,Recall1,2617,drive,90.909090909091,1194,1794,0,1,,1
w214500,4moq18am1p,Nick_Dissertation_EX1,1,144,2020-04-20T20:54:22-07:00,11.471934080124,4,versionC_stim.csv,READVersionD.csv,"Read Version D","Dissertation, read only version D",SMELL,INCENSE,Study2,B,110,148,Test,User,-,,Recall,Recall1,11112,test,36.363636363636,10040,10349,0,0,,1
w214500,4moq18am1p,Nick_Dissertation_EX1,1,145,2020-04-20T20:54:25-07:00,3.1280698776245,4,versionC_stim.csv,READVersionD.csv,"Read Version D","Dissertation, read only version D",AIRCRAFT,PLANE,Study2,F,129,118,Test,User,-,,Recall,Recall1,2834,plane,100,1319,1874,1,1,,1
w214500,4moq18am1p,Nick_Dissertation_EX1,1,146,2020-04-20T20:54:29-07:00,3.6431910991669,4,versionC_stim.csv,READVersionD.csv,"Read Version D","Dissertation, read only version D",BRACELET,WRIST,Study2,S,140,149,Test,User,-,,Recall,Recall1,3353,charm,20,1864,2498,0,0,,1
w214500,4moq18am1p,Nick_Dissertation_EX1,1,147,2020-04-20T20:54:32-07:00,3.3649129867554,4,versionC_stim.csv,READVersionD.csv,"Read Version D","Dissertation, read only version D",PLANT,CACTUS,Study2,B,98,155,Test,User,-,,Recall,Recall1,3056,green,0,1646,2295,0,0,,1
w214500,4moq18am1p,Nick_Dissertation_EX1,1,148,2020-04-20T20:54:35-07:00,2.5057199001312,4,versionC_stim.csv,READVersionD.csv,"Read Version D","Dissertation, read only version D",CHILDREN,MIRROR,Study2,U,174,167,Test,User,-,,Recall,Recall1,2202,play,0,1178,1621,0,0,,1
w214500,4moq18am1p,Nick_Dissertation_EX1,1,149,2020-04-20T20:54:39-07:00,4.0021731853485,4,versionC_stim.csv,READVersionD.csv,"Read Version D","Dissertation, read only version D",LEAGUE,BASEBALL,Study2,F,131,173,Test,User,-,,Recall,Recall1,3396,ball,66.666666666667,1436,2740,0,0,,1
w214500,4moq18am1p,Nick_Dissertation_EX1,1,150,2020-04-20T20:54:45-07:00,5.7594919204712,4,versionC_stim.csv,READVersionD.csv,"Read Version D","Dissertation, read only version D",SHAKE,Shell,Study2,U,163,105,Test,User,-,,Recall,Recall1,5473,milk,22.222222222222,4379,4875,0,0,,1
w214500,4moq18am1p,Nick_Dissertation_EX1,1,151,2020-04-20T20:54:49-07:00,4.5309479236603,4,versionC_stim.csv,READVersionD.csv,"Read Version D","Dissertation, read only version D",TRASH,LITTER,Study2,B,103,135,Test,User,-,,Recall,Recall1,4234,garbage,15.384615384615,1399,3650,0,0,,1
w214500,4moq18am1p,Nick_Dissertation_EX1,1,152,2020-04-20T20:54:52-07:00,3.1322829723358,4,versionC_stim.csv,READVersionD.csv,"Read Version D","Dissertation, read only version D",NOISE,LOUD,Study2,S,152,163,Test,User,-,,Recall,Recall1,2832,loud,100,1736,2230,1,1,,1
w214500,4moq18am1p,Nick_Dissertation_EX1,1,153,2020-04-20T20:54:57-07:00,4.339672088623,4,versionC_stim.csv,READVersionD.csv,"Read Version D","Dissertation, read only version D",FAVORITE,BEST,Study2,F,125,122,Test,User,-,,Recall,Recall1,4049,best,100,2981,3430,1,1,,1
w214500,4moq18am1p,Nick_Dissertation_EX1,1,154,2020-04-20T20:54:59-07:00,2.3688929080963,4,versionC_stim.csv,READVersionD.csv,"Read Version D","Dissertation, read only version D",SCISSORS,SHEARS,Study2,B,112,170,Test,User,-,,Recall,Recall1,2084,cut,0,1237,1553,0,0,,1
w214500,4moq18am1p,Nick_Dissertation_EX1,1,155,2020-04-20T20:55:03-07:00,3.8433091640472,4,versionC_stim.csv,READVersionD.csv,"Read Version D","Dissertation, read only version D",LOVE,AFFECTION,Study2,B,115,102,Test,User,-,,Recall,Recall1,3533,cherish,25,1964,2842,0,0,,1
w214500,4moq18am1p,Nick_Dissertation_EX1,1,156,2020-04-20T20:55:06-07:00,2.8753418922424,4,versionC_stim.csv,READVersionD.csv,"Read Version D","Dissertation, read only version D",JOKE,KEYS,Study2,U,165,103,Test,User,-,,Recall,Recall1,2572,funny,22.222222222222,1455,2147,0,0,,1
w214500,4moq18am1p,Nick_Dissertation_EX1,1,157,2020-04-20T20:55:10-07:00,3.9484360218048,4,versionC_stim.csv,READVersionD.csv,"Read Version D","Dissertation, read only version D",CARBON,ELEMENT,Study2,S,141,162,Test,User,-,,Recall,Recall1,3648,dioxide,14.285714285714,1204,3312,0,0,,1
w214500,4moq18am1p,Nick_Dissertation_EX1,1,158,2020-04-20T20:55:13-07:00,3.3320620059967,4,versionC_stim.csv,READVersionD.csv,"Read Version D","Dissertation, read only version D",END,ADJOURN,Study2,B,101,169,Test,User,-,,Recall,Recall1,3029,stop,18.181818181818,1852,2561,0,0,,1
w214500,4moq18am1p,Nick_Dissertation_EX1,1,159,2020-04-20T20:55:17-07:00,3.5465869903564,4,versionC_stim.csv,READVersionD.csv,"Read Version D","Dissertation, read only version D",EQUAL,RIGHTS,Study2,S,137,168,Test,User,-,,Recall,Recall1,3242,same,20,2470,2889,0,0,,1
w214500,4moq18am1p,Nick_Dissertation_EX1,1,160,2020-04-20T20:55:23-07:00,6.7044150829315,4,versionC_stim.csv,READVersionD.csv,"Read Version D","Dissertation, read only version D",EAT,DINE,Study2,B,111,128,Test,User,-,,Recall,Recall1,6397,hungry,20,2026,5890,0,0,,1
w214500,4moq18am1p,Nick_Dissertation_EX1,1,161,2020-04-20T20:55:27-07:00,3.2660598754883,4,versionC_stim.csv,READVersionD.csv,"Read Version D","Dissertation, read only version D",MYSTERY,DETECTIVE,Study2,B,100,152,Test,User,-,,Recall,Recall1,2970,solve,28.571428571429,1814,2716,0,0,,1
w214500,4moq18am1p,Nick_Dissertation_EX1,1,162,2020-04-20T20:55:31-07:00,4.6249060630798,4,versionC_stim.csv,READVersionD.csv,"Read Version D","Dissertation, read only version D",CLEAR,MOAT,Study2,U,169,109,Test,User,-,,Recall,Recall1,4328,water,44.444444444444,3446,4069,0,0,,1
w214500,4moq18am1p,Nick_Dissertation_EX1,1,163,2020-04-20T20:55:36-07:00,5.0585939884186,4,versionC_stim.csv,READVersionD.csv,"Read Version D","Dissertation, read only version D",HEAD,SCALP,Study2,B,105,175,Test,User,-,,Recall,Recall1,4722,top,25,3591,3843,0,0,,1
w214500,4moq18am1p,Nick_Dissertation_EX1,1,164,2020-04-20T20:55:43-07:00,6.4055531024933,4,versionC_stim.csv,READVersionD.csv,"Read Version D","Dissertation, read only version D",PAPER,DOCUMENT,Study2,B,109,164,Test,User,-,,Recall,Recall1,5741,cut,54.545454545455,5001,5388,0,0,,1
w214500,4moq18am1p,Nick_Dissertation_EX1,1,165,2020-04-20T20:55:46-07:00,2.9094979763031,4,versionC_stim.csv,READVersionD.csv,"Read Version D","Dissertation, read only version D",LIE,TRUTH,Study2,S,148,138,Test,User,-,,Recall,Recall1,2612,truth,100,1609,2154,1,1,,1
w214500,4moq18am1p,Nick_Dissertation_EX1,1,166,2020-04-20T20:55:50-07:00,4.8851578235626,4,versionC_stim.csv,READVersionD.csv,"Read Version D","Dissertation, read only version D",TIE,SHOELACE,Study2,B,99,153,Test,User,-,,Recall,Recall1,4590,knot,16.666666666667,1881,4169,0,0,,1
w214500,4moq18am1p,Nick_Dissertation_EX1,1,167,2020-04-20T20:55:55-07:00,4.9089181423187,4,versionC_stim.csv,READVersionD.csv,"Read Version D","Dissertation, read only version D",SARDINE,FISH,Study2,F,130,154,Test,User,-,,Recall,Recall1,4618,fish,100,2058,4117,1,1,,1
w214500,4moq18am1p,Nick_Dissertation_EX1,1,168,2020-04-20T20:55:59-07:00,3.403776884079,4,versionC_stim.csv,READVersionD.csv,"Read Version D","Dissertation, read only version D",OUNCE,BOTH,Study2,U,172,141,Test,User,-,,Recall,Recall1,3102,pound,22.222222222222,1683,2629,0,0,,1
w214500,4moq18am1p,Nick_Dissertation_EX1,1,169,2020-04-20T20:56:03-07:00,3.8844351768494,4,versionC_stim.csv,READVersionD.csv,"Read Version D","Dissertation, read only version D",DRINK,WATER,Study2,S,143,127,Test,User,-,,Recall,Recall1,3577,soda,22.222222222222,1103,3274,0,0,,1
w214500,4moq18am1p,Nick_Dissertation_EX1,1,170,2020-04-20T20:56:06-07:00,3.0277049541473,4,versionC_stim.csv,READVersionD.csv,"Read Version D","Dissertation, read only version D",BANKER,MONEY,Study2,F,132,171,Test,User,-,,Recall,Recall1,2738,money,100,1717,2290,1,1,,1
w214500,4moq18am1p,Nick_Dissertation_EX1,1,171,2020-04-20T20:56:10-07:00,4.4407410621643,4,versionC_stim.csv,READVersionD.csv,"Read Version D","Dissertation, read only version D",GAME,CLUE,Study2,B,97,174,Test,User,-,,Recall,Recall1,4145,play,25,3245,3664,0,0,,1
w214500,4moq18am1p,Nick_Dissertation_EX1,1,172,2020-04-20T20:56:16-07:00,5.5461709499359,4,versionC_stim.csv,READVersionD.csv,"Read Version D","Dissertation, read only version D",DONKEY,MULE,Study2,B,108,110,Test,User,-,,Recall,Recall1,5254,animal,40,4084,4805,0,0,,1
w214500,4moq18am1p,Nick_Dissertation_EX1,1,173,2020-04-20T20:56:19-07:00,3.6615569591522,4,versionC_stim.csv,READVersionD.csv,"Read Version D","Dissertation, read only version D",WET,DRY,Study2,S,146,156,Test,User,-,,Recall,Recall1,3373,dry,100,2564,2851,1,1,,1
w214500,4moq18am1p,Nick_Dissertation_EX1,1,174,2020-04-20T20:56:22-07:00,2.6518309116364,4,versionC_stim.csv,READVersionD.csv,"Read Version D","Dissertation, read only version D",WINDSHIELD,CAR,Study2,F,117,106,Test,User,-,,Recall,Recall1,2327,wiper,25,1468,2063,0,0,,1
w214500,4moq18am1p,Nick_Dissertation_EX1,1,175,2020-04-20T20:56:45-07:00,22.541783094406,4,versionC_stim.csv,READVersionD.csv,"Read Version D","Dissertation, read only version D",,,,,,0,Instruct,-,10,"You will now be presented with a new set of word pairs. Please study each pair. Remember that your memory will be tested! When finished, press Enter to move to the next pair.",Initial_Instruct,Instruct4,22190,,,-1,-1,,,,1
w214500,4moq18am1p,Nick_Dissertation_EX1,1,176,2020-04-20T20:56:47-07:00,1.9710929393768,4,versionC_stim.csv,READVersionD.csv,"Read Version D","Dissertation, read only version D",GREEN,TREES,BUFFER1,Buffer,1,6,Study,User,-,,Study/JOL,BUFFER3,1664,,,-1,-1,,,,1
w214500,4moq18am1p,Nick_Dissertation_EX1,1,177,2020-04-20T20:56:48-07:00,1.1057059764862,4,versionC_stim.csv,READVersionD.csv,"Read Version D","Dissertation, read only version D",HIDE,SCARE,BUFFER1,Buffer,4,4,Study,User,-,,Study/JOL,BUFFER3,811,,,-1,-1,,,,1
w214500,4moq18am1p,Nick_Dissertation_EX1,1,178,2020-04-20T20:56:49-07:00,1.1741871833801,4,versionC_stim.csv,READVersionD.csv,"Read Version D","Dissertation, read only version D",CATCHER,BASEBALL,BUFFER1,Buffer,2,5,Study,User,-,,Study/JOL,BUFFER3,873,,,-1,-1,,,,1
w214500,4moq18am1p,Nick_Dissertation_EX1,1,179,2020-04-20T20:56:50-07:00,1.0610208511353,4,versionC_stim.csv,READVersionD.csv,"Read Version D","Dissertation, read only version D",BUTTER,PEANUT,BUFFER1,Buffer,3,3,Study,User,-,,Study/JOL,BUFFER3,773,,,-1,-1,,,,1
w214500,4moq18am1p,Nick_Dissertation_EX1,1,180,2020-04-20T20:56:51-07:00,0.83604502677917,4,versionC_stim.csv,READVersionD.csv,"Read Version D","Dissertation, read only version D",JAM,SPACE,BUFFER1,Buffer,5,2,Study,User,-,,Study/JOL,BUFFER3,552,,,-1,-1,,,,1
w214500,4moq18am1p,Nick_Dissertation_EX1,1,181,2020-04-20T20:56:51-07:00,0.7273530960083,4,versionC_stim.csv,READVersionD.csv,"Read Version D","Dissertation, read only version D",CAR,HAPPY,Study1,U,77,34,Study,User,-,,Study/JOL,"Study Phase2",444,,,-1,-1,,,,1
w214500,4moq18am1p,Nick_Dissertation_EX1,1,182,2020-04-20T20:56:52-07:00,0.7408390045166,4,versionC_stim.csv,READVersionD.csv,"Read Version D","Dissertation, read only version D",RACKET,BALL,Study1,F,38,45,Study,User,-,,Study/JOL,"Study Phase2",461,,,-1,-1,,,,1
w214500,4moq18am1p,Nick_Dissertation_EX1,1,183,2020-04-20T20:56:53-07:00,0.73278999328613,4,versionC_stim.csv,READVersionD.csv,"Read Version D","Dissertation, read only version D",HAND,FIX,Study1,U,75,36,Study,User,-,,Study/JOL,"Study Phase2",442,,,-1,-1,,,,1
w214500,4moq18am1p,Nick_Dissertation_EX1,1,184,2020-04-20T20:56:54-07:00,0.69427394866943,4,versionC_stim.csv,READVersionD.csv,"Read Version D","Dissertation, read only version D",ASSIGNMENT,DUE,Study1,S,46,63,Study,User,-,,Study/JOL,"Study Phase2",412,,,-1,-1,,,,1
w214500,4moq18am1p,Nick_Dissertation_EX1,1,185,2020-04-20T20:56:54-07:00,0.69142293930054,4,versionC_stim.csv,READVersionD.csv,"Read Version D","Dissertation, read only version D",WORD,SENTENCE,Study1,F,31,7,Study,User,-,,Study/JOL,"Study Phase2",413,,,-1,-1,,,,1
w214500,4moq18am1p,Nick_Dissertation_EX1,1,186,2020-04-20T20:56:55-07:00,0.71072602272034,4,versionC_stim.csv,READVersionD.csv,"Read Version D","Dissertation, read only version D",BAR,GRILL,Study1,S,52,10,Study,User,-,,Study/JOL,"Study Phase2",437,,,-1,-1,,,,1
w214500,4moq18am1p,Nick_Dissertation_EX1,1,187,2020-04-20T20:56:56-07:00,0.73259592056274,4,versionC_stim.csv,READVersionD.csv,"Read Version D","Dissertation, read only version D",FUTURE,PAST,Study1,S,61,19,Study,User,-,,Study/JOL,"Study Phase2",454,,,-1,-1,,,,1
w214500,4moq18am1p,Nick_Dissertation_EX1,1,188,2020-04-20T20:56:57-07:00,1.539724111557,4,versionC_stim.csv,READVersionD.csv,"Read Version D","Dissertation, read only version D",GROWTH,HEIGHT,Study1,F,30,35,Study,User,-,,Study/JOL,"Study Phase2",1254,,,-1,-1,,,,1
w214500,4moq18am1p,Nick_Dissertation_EX1,1,189,2020-04-20T20:56:58-07:00,0.74923491477966,4,versionC_stim.csv,READVersionD.csv,"Read Version D","Dissertation, read only version D",STENCH,SMELL,Study1,F,42,84,Study,User,-,,Study/JOL,"Study Phase2",467,,,-1,-1,,,,1
w214500,4moq18am1p,Nick_Dissertation_EX1,1,190,2020-04-20T20:56:59-07:00,1.3367300033569,4,versionC_stim.csv,READVersionD.csv,"Read Version D","Dissertation, read only version D",ADD,VALLEY,Study1,U,82,30,Study,User,-,,Study/JOL,"Study Phase2",1060,,,-1,-1,,,,1
w214500,4moq18am1p,Nick_Dissertation_EX1,1,191,2020-04-20T20:57:00-07:00,1.0045781135559,4,versionC_stim.csv,READVersionD.csv,"Read Version D","Dissertation, read only version D",CAVE,DARK,Study1,F,28,71,Study,User,-,,Study/JOL,"Study Phase2",718,,,-1,-1,,,,1
w214500,4moq18am1p,Nick_Dissertation_EX1,1,192,2020-04-20T20:57:01-07:00,1.0938889980316,4,versionC_stim.csv,READVersionD.csv,"Read Version D","Dissertation, read only version D",SIP,DRINK,Study1,F,27,13,Study,User,-,,Study/JOL,"Study Phase2",807,,,-1,-1,,,,1
w214500,4moq18am1p,Nick_Dissertation_EX1,1,193,2020-04-20T20:57:02-07:00,0.99767899513245,4,versionC_stim.csv,READVersionD.csv,"Read Version D","Dissertation, read only version D",NEWS,EDITOR,Study1,B,10,11,Study,User,-,,Study/JOL,"Study Phase2",714,,,-1,-1,,,,1
w214500,4moq18am1p,Nick_Dissertation_EX1,1,194,2020-04-20T20:57:04-07:00,1.0818698406219,4,versionC_stim.csv,READVersionD.csv,"Read Version D","Dissertation, read only version D",DEFINITION,MEANING,Study1,S,62,40,Study,User,-,,Study/JOL,"Study Phase2",799,,,-1,-1,,,,1
w214500,4moq18am1p,Nick_Dissertation_EX1,1,195,2020-04-20T20:57:05-07:00,1.0027391910553,4,versionC_stim.csv,READVersionD.csv,"Read Version D","Dissertation, read only version D",WAR,REVOLUTION,Study1,B,20,54,Study,User,-,,Study/JOL,"Study Phase2",688,,,-1,-1,,,,1
w214500,4moq18am1p,Nick_Dissertation_EX1,1,196,2020-04-20T20:57:06-07:00,1.0444738864899,4,versionC_stim.csv,READVersionD.csv,"Read Version D","Dissertation, read only version D",SEIZE,TAKE,Study1,F,29,65,Study,User,-,,Study/JOL,"Study Phase2",762,,,-1,-1,,,,1
w214500,4moq18am1p,Nick_Dissertation_EX1,1,197,2020-04-20T20:57:07-07:00,1.0289340019226,4,versionC_stim.csv,READVersionD.csv,"Read Version D","Dissertation, read only version D",SALAD,LETTUCE,Study1,S,59,66,Study,User,-,,Study/JOL,"Study Phase2",734,,,-1,-1,,,,1
w214500,4moq18am1p,Nick_Dissertation_EX1,1,198,2020-04-20T20:57:08-07:00,1.0265669822693,4,versionC_stim.csv,READVersionD.csv,"Read Version D","Dissertation, read only version D",LIVER,KIDNEY,Study1,S,53,32,Study,User,-,,Study/JOL,"Study Phase2",721,,,-1,-1,,,,1
w214500,4moq18am1p,Nick_Dissertation_EX1,1,199,2020-04-20T20:57:09-07:00,1.0045540332794,4,versionC_stim.csv,READVersionD.csv,"Read Version D","Dissertation, read only version D",WOMAN,LIFT,Study1,U,69,82,Study,User,-,,Study/JOL,"Study Phase2",722,,,-1,-1,,,,1
w214500,4moq18am1p,Nick_Dissertation_EX1,1,200,2020-04-20T20:57:10-07:00,1.0483551025391,4,versionC_stim.csv,READVersionD.csv,"Read Version D","Dissertation, read only version D",ATTIRE,CLOTHES,Study1,F,43,15,Study,User,-,,Study/JOL,"Study Phase2",753,,,-1,-1,,,,1
w214500,4moq18am1p,Nick_Dissertation_EX1,1,201,2020-04-20T20:57:11-07:00,0.93913388252258,4,versionC_stim.csv,READVersionD.csv,"Read Version D","Dissertation, read only version D",AMOUNT,NUMBER,Study1,S,47,76,Study,User,-,,Study/JOL,"Study Phase2",658,,,-1,-1,,,,1
w214500,4moq18am1p,Nick_Dissertation_EX1,1,202,2020-04-20T20:57:12-07:00,0.95336413383484,4,versionC_stim.csv,READVersionD.csv,"Read Version D","Dissertation, read only version D",TALK,DISCUSSION,Study1,B,21,39,Study,User,-,,Study/JOL,"Study Phase2",670,,,-1,-1,,,,1
w214500,4moq18am1p,Nick_Dissertation_EX1,1,203,2020-04-20T20:57:13-07:00,0.9393208026886,4,versionC_stim.csv,READVersionD.csv,"Read Version D","Dissertation, read only version D",BLAZE,FIRE,Study1,F,45,75,Study,User,-,,Study/JOL,"Study Phase2",637,,,-1,-1,,,,1
w214500,4moq18am1p,Nick_Dissertation_EX1,1,204,2020-04-20T20:57:13-07:00,0.9536190032959,4,versionC_stim.csv,READVersionD.csv,"Read Version D","Dissertation, read only version D",FANTASTIC,GREAT,Study1,F,35,53,Study,User,-,,Study/JOL,"Study Phase2",656,,,-1,-1,,,,1
w214500,4moq18am1p,Nick_Dissertation_EX1,1,205,2020-04-20T20:57:14-07:00,0.928631067276,4,versionC_stim.csv,READVersionD.csv,"Read Version D","Dissertation, read only version D",WATER,BRIDGE,Study1,B,18,62,Study,User,-,,Study/JOL,"Study Phase2",653,,,-1,-1,,,,1
w214500,4moq18am1p,Nick_Dissertation_EX1,1,206,2020-04-20T20:57:15-07:00,0.91387391090393,4,versionC_stim.csv,READVersionD.csv,"Read Version D","Dissertation, read only version D",WASP,BUG,Study1,F,32,17,Study,User,-,,Study/JOL,"Study Phase2",621,,,-1,-1,,,,1
w214500,4moq18am1p,Nick_Dissertation_EX1,1,207,2020-04-20T20:57:16-07:00,1.0723822116852,4,versionC_stim.csv,READVersionD.csv,"Read Version D","Dissertation, read only version D",SIGHT,DEBATE,Study1,U,73,21,Study,User,-,,Study/JOL,"Study Phase2",787,,,-1,-1,,,,1
w214500,4moq18am1p,Nick_Dissertation_EX1,1,208,2020-04-20T20:57:18-07:00,1.1644117832184,4,versionC_stim.csv,READVersionD.csv,"Read Version D","Dissertation, read only version D",WASTE,DUMP,Study1,S,49,16,Study,User,-,,Study/JOL,"Study Phase2",891,,,-1,-1,,,,1
w214500,4moq18am1p,Nick_Dissertation_EX1,1,209,2020-04-20T20:57:19-07:00,0.98836302757263,4,versionC_stim.csv,READVersionD.csv,"Read Version D","Dissertation, read only version D",CHILI,HOT,Study1,F,37,43,Study,User,-,,Study/JOL,"Study Phase2",696,,,-1,-1,,,,1
w214500,4moq18am1p,Nick_Dissertation_EX1,1,210,2020-04-20T20:57:20-07:00,1.0212330818176,4,versionC_stim.csv,READVersionD.csv,"Read Version D","Dissertation, read only version D",HAMMER,CHISEL,Study1,B,9,20,Study,User,-,,Study/JOL,"Study Phase2",712,,,-1,-1,,,,1
w214500,4moq18am1p,Nick_Dissertation_EX1,1,211,2020-04-20T20:57:21-07:00,1.1626999378204,4,versionC_stim.csv,READVersionD.csv,"Read Version D","Dissertation, read only version D",ROCK,GEOLOGY,Study1,B,19,41,Study,User,-,,Study/JOL,"Study Phase2",771,,,-1,-1,,,,1
w214500,4moq18am1p,Nick_Dissertation_EX1,1,212,2020-04-20T20:57:22-07:00,1.0445160865784,4,versionC_stim.csv,READVersionD.csv,"Read Version D","Dissertation, read only version D",LION,ART,Study1,U,79,80,Study,User,-,,Study/JOL,"Study Phase2",688,,,-1,-1,,,,1
w214500,4moq18am1p,Nick_Dissertation_EX1,1,213,2020-04-20T20:57:23-07:00,0.95988607406616,4,versionC_stim.csv,READVersionD.csv,"Read Version D","Dissertation, read only version D",WOULD,CASH,Study1,U,83,85,Study,User,-,,Study/JOL,"Study Phase2",687,,,-1,-1,,,,1
w214500,4moq18am1p,Nick_Dissertation_EX1,1,214,2020-04-20T20:57:24-07:00,1.0116119384766,4,versionC_stim.csv,READVersionD.csv,"Read Version D","Dissertation, read only version D",HUNGRY,PARK,Study1,U,68,24,Study,User,-,,Study/JOL,"Study Phase2",709,,,-1,-1,,,,1
w214500,4moq18am1p,Nick_Dissertation_EX1,1,215,2020-04-20T20:57:25-07:00,0.91822195053101,4,versionC_stim.csv,READVersionD.csv,"Read Version D","Dissertation, read only version D",RIDDLE,SUGAR,Study1,U,81,67,Study,User,-,,Study/JOL,"Study Phase2",630,,,-1,-1,,,,1
w214500,4moq18am1p,Nick_Dissertation_EX1,1,216,2020-04-20T20:57:26-07:00,1.1812720298767,4,versionC_stim.csv,READVersionD.csv,"Read Version D","Dissertation, read only version D",BRONZE,ARTERY,Study1,U,74,42,Study,User,-,,Study/JOL,"Study Phase2",896,,,-1,-1,,,,1
w214500,4moq18am1p,Nick_Dissertation_EX1,1,217,2020-04-20T20:57:27-07:00,1.2439589500427,4,versionC_stim.csv,READVersionD.csv,"Read Version D","Dissertation, read only version D",FAMINE,HUNGER,Study1,F,40,69,Study,User,-,,Study/JOL,"Study Phase2",949,,,-1,-1,,,,1
w214500,4moq18am1p,Nick_Dissertation_EX1,1,218,2020-04-20T20:57:28-07:00,1.0137860774994,4,versionC_stim.csv,READVersionD.csv,"Read Version D","Dissertation, read only version D",TUCK,ALLOW,Study1,U,78,51,Study,User,-,,Study/JOL,"Study Phase2",718,,,-1,-1,,,,1
w214500,4moq18am1p,Nick_Dissertation_EX1,1,219,2020-04-20T20:57:29-07:00,1.0371398925781,4,versionC_stim.csv,READVersionD.csv,"Read Version D","Dissertation, read only version D",STOMACH,DIGESTION,Study1,B,7,27,Study,User,-,,Study/JOL,"Study Phase2",763,,,-1,-1,,,,1
w214500,4moq18am1p,Nick_Dissertation_EX1,1,220,2020-04-20T20:57:30-07:00,1.0574390888214,4,versionC_stim.csv,READVersionD.csv,"Read Version D","Dissertation, read only version D",CHORE,WORK,Study1,F,39,58,Study,User,-,,Study/JOL,"Study Phase2",764,,,-1,-1,,,,1
w214500,4moq18am1p,Nick_Dissertation_EX1,1,221,2020-04-20T20:57:31-07:00,1.0938708782196,4,versionC_stim.csv,READVersionD.csv,"Read Version D","Dissertation, read only version D",ENOUGH,FULL,Study1,F,26,78,Study,User,-,,Study/JOL,"Study Phase2",815,,,-1,-1,,,,1
w214500,4moq18am1p,Nick_Dissertation_EX1,1,222,2020-04-20T20:57:32-07:00,1.1170980930328,4,versionC_stim.csv,READVersionD.csv,"Read Version D","Dissertation, read only version D",ATTORNEY,LAW,Study1,F,34,44,Study,User,-,,Study/JOL,"Study Phase2",820,,,-1,-1,,,,1
w214500,4moq18am1p,Nick_Dissertation_EX1,1,223,2020-04-20T20:57:33-07:00,0.77881193161011,4,versionC_stim.csv,READVersionD.csv,"Read Version D","Dissertation, read only version D",FLOWER,ORCHID,Study1,B,24,59,Study,User,-,,Study/JOL,"Study Phase2",463,,,-1,-1,,,,1
w214500,4moq18am1p,Nick_Dissertation_EX1,1,224,2020-04-20T20:57:34-07:00,0.97780013084412,4,versionC_stim.csv,READVersionD.csv,"Read Version D","Dissertation, read only version D",SITE,LOCATION,Study1,S,48,72,Study,User,-,,Study/JOL,"Study Phase2",688,,,-1,-1,,,,1
w214500,4moq18am1p,Nick_Dissertation_EX1,1,225,2020-04-20T20:57:35-07:00,0.94992804527283,4,versionC_stim.csv,READVersionD.csv,"Read Version D","Dissertation, read only version D",DOG,PAW,Study1,B,15,68,Study,User,-,,Study/JOL,"Study Phase2",667,,,-1,-1,,,,1
w214500,4moq18am1p,Nick_Dissertation_EX1,1,226,2020-04-20T20:57:36-07:00,1.0073568820953,4,versionC_stim.csv,READVersionD.csv,"Read Version D","Dissertation, read only version D",DROWSY,SLEEP,Study1,F,41,31,Study,User,-,,Study/JOL,"Study Phase2",719,,,-1,-1,,,,1
w214500,4moq18am1p,Nick_Dissertation_EX1,1,227,2020-04-20T20:57:37-07:00,0.99975991249084,4,versionC_stim.csv,READVersionD.csv,"Read Version D","Dissertation, read only version D",SICK,HIDE,Study1,U,84,83,Study,User,-,,Study/JOL,"Study Phase2",707,,,-1,-1,,,,1
w214500,4moq18am1p,Nick_Dissertation_EX1,1,228,2020-04-20T20:57:38-07:00,0.96059203147888,4,versionC_stim.csv,READVersionD.csv,"Read Version D","Dissertation, read only version D",TOILET,BATHROOM,Study1,S,58,9,Study,User,-,,Study/JOL,"Study Phase2",675,,,-1,-1,,,,1
w214500,4moq18am1p,Nick_Dissertation_EX1,1,229,2020-04-20T20:57:39-07:00,0.98151803016663,4,versionC_stim.csv,READVersionD.csv,"Read Version D","Dissertation, read only version D",COW,HERD,Study1,B,22,57,Study,User,-,,Study/JOL,"Study Phase2",704,,,-1,-1,,,,1
w214500,4moq18am1p,Nick_Dissertation_EX1,1,230,2020-04-20T20:57:40-07:00,0.94644403457642,4,versionC_stim.csv,READVersionD.csv,"Read Version D","Dissertation, read only version D",LATCH,KEY,Study1,F,36,77,Study,User,-,,Study/JOL,"Study Phase2",657,,,-1,-1,,,,1
w214500,4moq18am1p,Nick_Dissertation_EX1,1,231,2020-04-20T20:57:41-07:00,1.0048060417175,4,versionC_stim.csv,READVersionD.csv,"Read Version D","Dissertation, read only version D",FLOOR,DISCOVER,Study1,U,71,47,Study,User,-,,Study/JOL,"Study Phase2",716,,,-1,-1,,,,1
w214500,4moq18am1p,Nick_Dissertation_EX1,1,232,2020-04-20T20:57:42-07:00,0.96158599853516,4,versionC_stim.csv,READVersionD.csv,"Read Version D","Dissertation, read only version D",PILOT,PLANE,Study1,F,44,50,Study,User,-,,Study/JOL,"Study Phase2",680,,,-1,-1,,,,1
w214500,4moq18am1p,Nick_Dissertation_EX1,1,233,2020-04-20T20:57:43-07:00,1.0043640136719,4,versionC_stim.csv,READVersionD.csv,"Read Version D","Dissertation, read only version D",WIND,BLOW,Study1,S,55,25,Study,User,-,,Study/JOL,"Study Phase2",716,,,-1,-1,,,,1
w214500,4moq18am1p,Nick_Dissertation_EX1,1,234,2020-04-20T20:57:44-07:00,0.96621489524841,4,versionC_stim.csv,READVersionD.csv,"Read Version D","Dissertation, read only version D",BAD,DELINQUENT,Study1,B,6,18,Study,User,-,,Study/JOL,"Study Phase2",681,,,-1,-1,,,,1
w214500,4moq18am1p,Nick_Dissertation_EX1,1,235,2020-04-20T20:57:45-07:00,1.1115570068359,4,versionC_stim.csv,READVersionD.csv,"Read Version D","Dissertation, read only version D",BUSINESS,DEATH,Study1,U,72,29,Study,User,-,,Study/JOL,"Study Phase2",815,,,-1,-1,,,,1
w214500,4moq18am1p,Nick_Dissertation_EX1,1,236,2020-04-20T20:57:46-07:00,0.91168904304504,4,versionC_stim.csv,READVersionD.csv,"Read Version D","Dissertation, read only version D",VASE,KING,Study1,U,85,23,Study,User,-,,Study/JOL,"Study Phase2",620,,,-1,-1,,,,1
w214500,4moq18am1p,Nick_Dissertation_EX1,1,237,2020-04-20T20:57:47-07:00,1.0052309036255,4,versionC_stim.csv,READVersionD.csv,"Read Version D","Dissertation, read only version D",SODA,POP,Study1,S,56,26,Study,User,-,,Study/JOL,"Study Phase2",711,,,-1,-1,,,,1
w214500,4moq18am1p,Nick_Dissertation_EX1,1,238,2020-04-20T20:57:48-07:00,1.2944161891937,4,versionC_stim.csv,READVersionD.csv,"Read Version D","Dissertation, read only version D",DESIGN,ARCHITECTURE,Study1,S,51,12,Study,User,-,,Study/JOL,"Study Phase2",992,,,-1,-1,,,,1
w214500,4moq18am1p,Nick_Dissertation_EX1,1,239,2020-04-20T20:57:49-07:00,0.97793793678284,4,versionC_stim.csv,READVersionD.csv,"Read Version D","Dissertation, read only version D",ROUND,CIRCLE,Study1,S,65,64,Study,User,-,,Study/JOL,"Study Phase2",673,,,-1,-1,,,,1
w214500,4moq18am1p,Nick_Dissertation_EX1,1,240,2020-04-20T20:57:50-07:00,1.0533199310303,4,versionC_stim.csv,READVersionD.csv,"Read Version D","Dissertation, read only version D",FISH,TUNA,Study1,B,25,14,Study,User,-,,Study/JOL,"Study Phase2",737,,,-1,-1,,,,1
w214500,4moq18am1p,Nick_Dissertation_EX1,1,241,2020-04-20T20:57:51-07:00,1.0189230442047,4,versionC_stim.csv,READVersionD.csv,"Read Version D","Dissertation, read only version D",BEE,HONEY,Study1,S,63,55,Study,User,-,,Study/JOL,"Study Phase2",691,,,-1,-1,,,,1
w214500,4moq18am1p,Nick_Dissertation_EX1,1,242,2020-04-20T20:57:52-07:00,0.99680399894714,4,versionC_stim.csv,READVersionD.csv,"Read Version D","Dissertation, read only version D",CLUTTER,PUSHER,Study1,U,66,60,Study,User,-,,Study/JOL,"Study Phase2",705,,,-1,-1,,,,1
w214500,4moq18am1p,Nick_Dissertation_EX1,1,243,2020-04-20T20:57:53-07:00,0.95179200172424,4,versionC_stim.csv,READVersionD.csv,"Read Version D","Dissertation, read only version D",CHILD,BABY,Study1,S,64,46,Study,User,-,,Study/JOL,"Study Phase2",625,,,-1,-1,,,,1
w214500,4moq18am1p,Nick_Dissertation_EX1,1,244,2020-04-20T20:57:54-07:00,1.099494934082,4,versionC_stim.csv,READVersionD.csv,"Read Version D","Dissertation, read only version D",CARD,CREDIT,Study1,B,23,81,Study,User,-,,Study/JOL,"Study Phase2",793,,,-1,-1,,,,1
w214500,4moq18am1p,Nick_Dissertation_EX1,1,245,2020-04-20T20:57:55-07:00,1.0787150859833,4,versionC_stim.csv,READVersionD.csv,"Read Version D","Dissertation, read only version D",POSITION,MACHINE,Study1,U,76,38,Study,User,-,,Study/JOL,"Study Phase2",787,,,-1,-1,,,,1
w214500,4moq18am1p,Nick_Dissertation_EX1,1,246,2020-04-20T20:57:57-07:00,1.2572929859161,4,versionC_stim.csv,READVersionD.csv,"Read Version D","Dissertation, read only version D",BELT,SOON,Study1,U,70,8,Study,User,-,,Study/JOL,"Study Phase2",636,,,-1,-1,,,,1
w214500,4moq18am1p,Nick_Dissertation_EX1,1,247,2020-04-20T20:57:58-07:00,1.4742031097412,4,versionC_stim.csv,READVersionD.csv,"Read Version D","Dissertation, read only version D",OUT,WAY,Study1,B,16,37,Study,User,-,,Study/JOL,"Study Phase2",672,,,-1,-1,,,,1
w214500,4moq18am1p,Nick_Dissertation_EX1,1,248,2020-04-20T20:57:59-07:00,1.1858429908752,4,versionC_stim.csv,READVersionD.csv,"Read Version D","Dissertation, read only version D",ACCIDENT,STRONG,Study1,U,80,74,Study,User,-,,Study/JOL,"Study Phase2",811,,,-1,-1,,,,1
w214500,4moq18am1p,Nick_Dissertation_EX1,1,249,2020-04-20T20:58:01-07:00,1.1963119506836,4,versionC_stim.csv,READVersionD.csv,"Read Version D","Dissertation, read only version D",STING,HORNET,Study1,B,11,33,Study,User,-,,Study/JOL,"Study Phase2",802,,,-1,-1,,,,1
w214500,4moq18am1p,Nick_Dissertation_EX1,1,250,2020-04-20T20:58:02-07:00,1.3168349266052,4,versionC_stim.csv,READVersionD.csv,"Read Version D","Dissertation, read only version D",COLD,BITTER,Study1,B,12,79,Study,User,-,,Study/JOL,"Study Phase2",1024,,,-1,-1,,,,1
w214500,4moq18am1p,Nick_Dissertation_EX1,1,251,2020-04-20T20:58:03-07:00,1.2706909179688,4,versionC_stim.csv,READVersionD.csv,"Read Version D","Dissertation, read only version D",JURY,TRIAL,Study1,S,50,49,Study,User,-,,Study/JOL,"Study Phase2",975,,,-1,-1,,,,1
w214500,4moq18am1p,Nick_Dissertation_EX1,1,252,2020-04-20T20:58:04-07:00,1.2076470851898,4,versionC_stim.csv,READVersionD.csv,"Read Version D","Dissertation, read only version D",CHEESE,WINE,Study1,S,57,70,Study,User,-,,Study/JOL,"Study Phase2",905,,,-1,-1,,,,1
w214500,4moq18am1p,Nick_Dissertation_EX1,1,253,2020-04-20T20:58:05-07:00,1.0318830013275,4,versionC_stim.csv,READVersionD.csv,"Read Version D","Dissertation, read only version D",PLANT,ROOT,Study1,B,13,52,Study,User,-,,Study/JOL,"Study Phase2",732,,,-1,-1,,,,1
w214500,4moq18am1p,Nick_Dissertation_EX1,1,254,2020-04-20T20:58:06-07:00,1.1098079681396,4,versionC_stim.csv,READVersionD.csv,"Read Version D","Dissertation, read only version D",FOOT,SHOE,Study1,S,60,73,Study,User,-,,Study/JOL,"Study Phase2",822,,,-1,-1,,,,1
w214500,4moq18am1p,Nick_Dissertation_EX1,1,255,2020-04-20T20:58:08-07:00,1.0457940101624,4,versionC_stim.csv,READVersionD.csv,"Read Version D","Dissertation, read only version D",SACKING,DIETARY,Study1,U,67,48,Study,User,-,,Study/JOL,"Study Phase2",745,,,-1,-1,,,,1
w214500,4moq18am1p,Nick_Dissertation_EX1,1,256,2020-04-20T20:58:09-07:00,1.1521179676056,4,versionC_stim.csv,READVersionD.csv,"Read Version D","Dissertation, read only version D",DIVISION,MATH,Study1,F,33,22,Study,User,-,,Study/JOL,"Study Phase2",848,,,-1,-1,,,,1
w214500,4moq18am1p,Nick_Dissertation_EX1,1,257,2020-04-20T20:58:10-07:00,1.1755740642548,4,versionC_stim.csv,READVersionD.csv,"Read Version D","Dissertation, read only version D",CLEAN,HYGIENE,Study1,B,17,61,Study,User,-,,Study/JOL,"Study Phase2",889,,,-1,-1,,,,1
w214500,4moq18am1p,Nick_Dissertation_EX1,1,258,2020-04-20T20:58:11-07:00,1.3561599254608,4,versionC_stim.csv,READVersionD.csv,"Read Version D","Dissertation, read only version D",BIRD,SWAN,Study1,B,14,56,Study,User,-,,Study/JOL,"Study Phase2",1060,,,-1,-1,,,,1
w214500,4moq18am1p,Nick_Dissertation_EX1,1,259,2020-04-20T20:58:12-07:00,1.1871221065521,4,versionC_stim.csv,READVersionD.csv,"Read Version D","Dissertation, read only version D",END,BEGIN,Study1,S,54,28,Study,User,-,,Study/JOL,"Study Phase2",899,,,-1,-1,,,,1
w214500,4moq18am1p,Nick_Dissertation_EX1,1,260,2020-04-20T20:58:14-07:00,1.2370710372925,4,versionC_stim.csv,READVersionD.csv,"Read Version D","Dissertation, read only version D",MONEY,WAGE,Study1,B,8,86,Study,User,-,,Study/JOL,"Study Phase2",929,,,-1,-1,,,,1
w214500,4moq18am1p,Nick_Dissertation_EX1,1,261,2020-04-20T20:58:15-07:00,1.1372928619385,4,versionC_stim.csv,READVersionD.csv,"Read Version D","Dissertation, read only version D",GOOSE,GEESE,BUFFER2,Buffer,86,90,Study,User,-,,Study/JOL,BUFFER4,846,,,-1,-1,,,,1
w214500,4moq18am1p,Nick_Dissertation_EX1,1,262,2020-04-20T20:58:16-07:00,1.0971190929413,4,versionC_stim.csv,READVersionD.csv,"Read Version D","Dissertation, read only version D",SPACE,MOON,BUFFER2,Buffer,89,88,Study,User,-,,Study/JOL,BUFFER4,795,,,-1,-1,,,,1
w214500,4moq18am1p,Nick_Dissertation_EX1,1,263,2020-04-20T20:58:18-07:00,1.6644160747528,4,versionC_stim.csv,READVersionD.csv,"Read Version D","Dissertation, read only version D",STUFF,THING,BUFFER2,Buffer,90,87,Study,User,-,,Study/JOL,BUFFER4,1358,,,-1,-1,,,,1
w214500,4moq18am1p,Nick_Dissertation_EX1,1,264,2020-04-20T20:58:19-07:00,1.1333458423615,4,versionC_stim.csv,READVersionD.csv,"Read Version D","Dissertation, read only version D",CHOCOLATE,MALT,BUFFER2,Buffer,88,89,Study,User,-,,Study/JOL,BUFFER4,837,,,-1,-1,,,,1
w214500,4moq18am1p,Nick_Dissertation_EX1,1,265,2020-04-20T20:58:20-07:00,1.187185049057,4,versionC_stim.csv,READVersionD.csv,"Read Version D","Dissertation, read only version D",POLICE,SHERRIF,BUFFER2,Buffer,87,91,Study,User,-,,Study/JOL,BUFFER4,669,,,-1,-1,,,,1
w214500,4moq18am1p,Nick_Dissertation_EX1,1,266,2020-04-20T20:58:22-07:00,1.8228878974915,4,versionC_stim.csv,READVersionD.csv,"Read Version D","Dissertation, read only version D",,,,,,0,Instruct,User,-,"You have completed this section. Please press Enter.",Filler_Instruction,Instruct5,1501,,,-1,-1,,,,1
w214500,4moq18am1p,Nick_Dissertation_EX1,1,267,2020-04-20T21:00:22-07:00,120.41109418869,4,versionC_stim.csv,READVersionD.csv,"Read Version D","Dissertation, read only version D",,,,,,0,FreeRecall,120,120,"Please list the 50 US states in reverse alphabetical order (z - a). The task will automatically advance to the next screen after two minutes.",,Filler2,120000,"alabama alaska arizona California colorado conneticutt delaware florida georgia hawaii idaho illinois indiana iowa kansas kentucky louisianna maine maryland massachusetts michigan minnesota Mississippi missouri montana nebraska nevade new hampshire ",0,8857,118736,0,0,,1
w214500,4moq18am1p,Nick_Dissertation_EX1,1,268,2020-04-20T21:00:33-07:00,11.321300029755,4,versionC_stim.csv,READVersionD.csv,"Read Version D","Dissertation, read only version D",,,,,,0,Instruct,-,10,"You will now be presented with the first word from each of the previously studied item pairs. Please type the missing word. If you do not know the word, you may guess or press Enter to skip forward to the next pair.",,Instruct6,10940,,,-1,-1,,,,1
w214500,4moq18am1p,Nick_Dissertation_EX1,1,269,2020-04-20T21:00:43-07:00,9.6028919219971,4,versionC_stim.csv,READVersionD.csv,"Read Version D","Dissertation, read only version D",END,BEGIN,Study1,S,54,28,Test,User,-,,Recall,Recall2,9264,stop,0,2343,9030,0,0,,1
w214500,4moq18am1p,Nick_Dissertation_EX1,1,270,2020-04-20T21:00:50-07:00,6.7398879528046,4,versionC_stim.csv,READVersionD.csv,"Read Version D","Dissertation, read only version D",ATTORNEY,LAW,Study1,F,34,44,Test,User,-,,Recall,Recall2,6426,lawyer,66.666666666667,1360,5959,0,0,,1
w214500,4moq18am1p,Nick_Dissertation_EX1,1,271,2020-04-20T21:00:55-07:00,4.8760659694672,4,versionC_stim.csv,READVersionD.csv,"Read Version D","Dissertation, read only version D",STING,HORNET,Study1,B,11,33,Test,User,-,,Recall,Recall2,4344,bee,22.222222222222,3869,4256,0,0,,1
w214500,4moq18am1p,Nick_Dissertation_EX1,1,272,2020-04-20T21:00:58-07:00,3.022036075592,4,versionC_stim.csv,READVersionD.csv,"Read Version D","Dissertation, read only version D",ATTIRE,CLOTHES,Study1,F,43,15,Test,User,-,,Recall,Recall2,2707,clothes,100,1623,2583,1,1,,1
w214500,4moq18am1p,Nick_Dissertation_EX1,1,273,2020-04-20T21:01:00-07:00,2.2967040538788,4,versionC_stim.csv,READVersionD.csv,"Read Version D","Dissertation, read only version D",CHORE,WORK,Study1,F,39,58,Test,User,-,,Recall,Recall2,1982,worl,75,1157,1642,0,1,,1
w214500,4moq18am1p,Nick_Dissertation_EX1,1,274,2020-04-20T21:01:04-07:00,4.3128538131714,4,versionC_stim.csv,READVersionD.csv,"Read Version D","Dissertation, read only version D",LATCH,KEY,Study1,F,36,77,Test,User,-,,Recall,Recall2,4009,handle,22.222222222222,2205,3763,0,0,,1
w214500,4moq18am1p,Nick_Dissertation_EX1,1,275,2020-04-20T21:01:07-07:00,2.8518462181091,4,versionC_stim.csv,READVersionD.csv,"Read Version D","Dissertation, read only version D",FOOT,SHOE,Study1,S,60,73,Test,User,-,,Recall,Recall2,2549,hand,25,1997,2350,0,0,,1
w214500,4moq18am1p,Nick_Dissertation_EX1,1,276,2020-04-20T21:01:10-07:00,2.6981289386749,4,versionC_stim.csv,READVersionD.csv,"Read Version D","Dissertation, read only version D",ASSIGNMENT,DUE,Study1,S,46,63,Test,User,-,,Recall,Recall2,2384,due,100,1881,2124,1,1,,1
w214500,4moq18am1p,Nick_Dissertation_EX1,1,277,2020-04-20T21:01:15-07:00,5.5176770687103,4,versionC_stim.csv,READVersionD.csv,"Read Version D","Dissertation, read only version D",RIDDLE,SUGAR,Study1,U,81,67,Test,User,-,,Recall,Recall2,5194,joke,0,4596,5029,0,0,,1
w214500,4moq18am1p,Nick_Dissertation_EX1,1,278,2020-04-20T21:01:22-07:00,6.9250099658966,4,versionC_stim.csv,READVersionD.csv,"Read Version D","Dissertation, read only version D",BAD,DELINQUENT,Study1,B,6,18,Test,User,-,,Recall,Recall2,6605,good,14.285714285714,1562,6430,0,0,,0.818
w214500,4moq18am1p,Nick_Dissertation_EX1,1,279,2020-04-20T21:01:25-07:00,2.5869269371033,4,versionC_stim.csv,READVersionD.csv,"Read Version D","Dissertation, read only version D",SITE,LOCATION,Study1,S,48,72,Test,User,-,,Recall,Recall2,2286,web,0,1236,1628,0,0,,1
w214500,4moq18am1p,Nick_Dissertation_EX1,1,280,2020-04-20T21:01:28-07:00,2.9918520450592,4,versionC_stim.csv,READVersionD.csv,"Read Version D","Dissertation, read only version D",STENCH,SMELL,Study1,F,42,84,Test,User,-,,Recall,Recall2,2682,odor,0,1907,2473,0,0,,1
w214500,4moq18am1p,Nick_Dissertation_EX1,1,281,2020-04-20T21:01:32-07:00,3.9130439758301,4,versionC_stim.csv,READVersionD.csv,"Read Version D","Dissertation, read only version D",WORD,SENTENCE,Study1,F,31,7,Test,User,-,,Recall,Recall2,3593,pharse,28.571428571429,2269,3448,0,0,,1
w214500,4moq18am1p,Nick_Dissertation_EX1,1,282,2020-04-20T21:01:35-07:00,2.9684739112854,4,versionC_stim.csv,READVersionD.csv,"Read Version D","Dissertation, read only version D",HAND,FIX,Study1,U,75,36,Test,User,-,,Recall,Recall2,2658,foot,28.571428571429,2076,2488,0,0,,1
w214500,4moq18am1p,Nick_Dissertation_EX1,1,283,2020-04-20T21:01:39-07:00,4.4410700798035,4,versionC_stim.csv,READVersionD.csv,"Read Version D","Dissertation, read only version D",WIND,BLOW,Study1,S,55,25,Test,User,-,,Recall,Recall2,4131,blow,100,2157,4009,1,1,,1
w214500,4moq18am1p,Nick_Dissertation_EX1,1,284,2020-04-20T21:01:42-07:00,2.5926489830017,4,versionC_stim.csv,READVersionD.csv,"Read Version D","Dissertation, read only version D",LIVER,KIDNEY,Study1,S,53,32,Test,User,-,,Recall,Recall2,2267,kidney,100,1086,1800,1,1,,1
w214500,4moq18am1p,Nick_Dissertation_EX1,1,285,2020-04-20T21:01:44-07:00,1.8935430049896,4,versionC_stim.csv,READVersionD.csv,"Read Version D","Dissertation, read only version D",OUT,WAY,Study1,B,16,37,Test,User,-,,Recall,Recall2,1421,"in\",0,974,1415,0,0,,1
w214500,4moq18am1p,Nick_Dissertation_EX1,1,286,2020-04-20T21:01:47-07:00,3.252748966217,4,versionC_stim.csv,READVersionD.csv,"Read Version D","Dissertation, read only version D",TOILET,BATHROOM,Study1,S,58,9,Test,User,-,,Recall,Recall2,2937,seat,33.333333333333,2106,2789,0,0,,1
w214500,4moq18am1p,Nick_Dissertation_EX1,1,287,2020-04-20T21:01:51-07:00,3.799309015274,4,versionC_stim.csv,READVersionD.csv,"Read Version D","Dissertation, read only version D",CHEESE,WINE,Study1,S,57,70,Test,User,-,,Recall,Recall2,3484,milk,25,2684,3226,0,0,,1
w214500,4moq18am1p,Nick_Dissertation_EX1,1,288,2020-04-20T21:01:54-07:00,3.3638889789581,4,versionC_stim.csv,READVersionD.csv,"Read Version D","Dissertation, read only version D",STOMACH,DIGESTION,Study1,B,7,27,Test,User,-,,Recall,Recall2,3059,digestion,100,1271,2767,1,1,,1
w214500,4moq18am1p,Nick_Dissertation_EX1,1,289,2020-04-20T21:01:57-07:00,3.1624619960785,4,versionC_stim.csv,READVersionD.csv,"Read Version D","Dissertation, read only version D",SEIZE,TAKE,Study1,F,29,65,Test,User,-,,Recall,Recall2,2856,take,100,2222,2626,1,1,,1
w214500,4moq18am1p,Nick_Dissertation_EX1,1,290,2020-04-20T21:02:00-07:00,3.269581079483,4,versionC_stim.csv,READVersionD.csv,"Read Version D","Dissertation, read only version D",VASE,KING,Study1,U,85,23,Test,User,-,,Recall,Recall2,2960,flower,0,1167,2841,0,0,,1
w214500,4moq18am1p,Nick_Dissertation_EX1,1,291,2020-04-20T21:02:03-07:00,2.5062959194183,4,versionC_stim.csv,READVersionD.csv,"Read Version D","Dissertation, read only version D",LION,ART,Study1,U,79,80,Test,User,-,,Recall,Recall2,2184,den,0,1687,1898,0,0,,1
w214500,4moq18am1p,Nick_Dissertation_EX1,1,292,2020-04-20T21:02:12-07:00,8.5659289360046,4,versionC_stim.csv,READVersionD.csv,"Read Version D","Dissertation, read only version D",TUCK,ALLOW,Study1,U,78,51,Test,User,-,,Recall,Recall2,8044,under,0,6344,7872,0,0,,1
w214500,4moq18am1p,Nick_Dissertation_EX1,1,293,2020-04-20T21:02:20-07:00,8.4360291957855,4,versionC_stim.csv,READVersionD.csv,"Read Version D","Dissertation, read only version D",WAR,REVOLUTION,Study1,B,20,54,Test,User,-,,Recall,Recall2,8107,fight,13.333333333333,7060,7889,0,0,,1
w214500,4moq18am1p,Nick_Dissertation_EX1,1,294,2020-04-20T21:02:25-07:00,4.6365268230438,4,versionC_stim.csv,READVersionD.csv,"Read Version D","Dissertation, read only version D",CARD,CREDIT,Study1,B,23,81,Test,User,-,,Recall,Recall2,4288,stock,18.181818181818,3163,3939,0,0,,1
w214500,4moq18am1p,Nick_Dissertation_EX1,1,295,2020-04-20T21:02:28-07:00,3.0342080593109,4,versionC_stim.csv,READVersionD.csv,"Read Version D","Dissertation, read only version D",SIGHT,DEBATE,Study1,U,73,21,Test,User,-,,Recall,Recall2,2715,vision,0,1602,2404,0,0,,1
w214500,4moq18am1p,Nick_Dissertation_EX1,1,296,2020-04-20T21:02:34-07:00,6.0714130401611,4,versionC_stim.csv,READVersionD.csv,"Read Version D","Dissertation, read only version D",CHILD,BABY,Study1,S,64,46,Test,User,-,,Recall,Recall2,5760,adult,22.222222222222,2917,5579,0,0,,1
w214500,4moq18am1p,Nick_Dissertation_EX1,1,297,2020-04-20T21:02:37-07:00,2.7832820415497,4,versionC_stim.csv,READVersionD.csv,"Read Version D","Dissertation, read only version D",DOG,PAW,Study1,B,15,68,Test,User,-,,Recall,Recall2,2452,paw,100,1902,2316,1,1,,1
w214500,4moq18am1p,Nick_Dissertation_EX1,1,298,2020-04-20T21:02:39-07:00,2.0897359848022,4,versionC_stim.csv,READVersionD.csv,"Read Version D","Dissertation, read only version D",ROCK,GEOLOGY,Study1,B,19,41,Test,User,-,,Recall,Recall2,1792,star,0,961,1508,0,0,,1
w214500,4moq18am1p,Nick_Dissertation_EX1,1,299,2020-04-20T21:02:45-07:00,6.032613992691,4,versionC_stim.csv,READVersionD.csv,"Read Version D","Dissertation, read only version D",PLANT,ROOT,Study1,B,13,52,Test,User,-,,Recall,Recall2,5725,green,22.222222222222,4385,5424,0,0,,1
w214500,4moq18am1p,Nick_Dissertation_EX1,1,300,2020-04-20T21:03:03-07:00,18.048588991165,4,versionC_stim.csv,READVersionD.csv,"Read Version D","Dissertation, read only version D",HUNGRY,PARK,Study1,U,68,24,Test,User,-,,Recall,Recall2,17645,satisfied,15.384615384615,13058,17515,0,0,,1
w214500,4moq18am1p,Nick_Dissertation_EX1,1,301,2020-04-20T21:03:05-07:00,2.3281309604645,4,versionC_stim.csv,READVersionD.csv,"Read Version D","Dissertation, read only version D",NEWS,EDITOR,Study1,B,10,11,Test,User,-,,Recall,Recall2,2010,paper,36.363636363636,1250,1889,0,0,,1
w214500,4moq18am1p,Nick_Dissertation_EX1,1,302,2020-04-20T21:03:10-07:00,4.5286049842834,4,versionC_stim.csv,READVersionD.csv,"Read Version D","Dissertation, read only version D",CHILI,HOT,Study1,F,37,43,Test,User,-,,Recall,Recall2,4229,soup,28.571428571429,3094,3894,0,0,,1
w214500,4moq18am1p,Nick_Dissertation_EX1,1,303,2020-04-20T21:03:12-07:00,2.0525829792023,4,versionC_stim.csv,READVersionD.csv,"Read Version D","Dissertation, read only version D",WOMAN,LIFT,Study1,U,69,82,Test,User,-,,Recall,Recall2,1753,male,25,1109,1582,0,0,,1
w214500,4moq18am1p,Nick_Dissertation_EX1,1,304,2020-04-20T21:03:15-07:00,3.8215630054474,4,versionC_stim.csv,READVersionD.csv,"Read Version D","Dissertation, read only version D",SALAD,LETTUCE,Study1,S,59,66,Test,User,-,,Recall,Recall2,3511,green,33.333333333333,2423,3185,0,0,,1
w214500,4moq18am1p,Nick_Dissertation_EX1,1,305,2020-04-20T21:03:18-07:00,2.9635419845581,4,versionC_stim.csv,READVersionD.csv,"Read Version D","Dissertation, read only version D",SICK,HIDE,Study1,U,84,83,Test,User,-,,Recall,Recall2,2654,well,25,1925,2438,0,0,,1
w214500,4moq18am1p,Nick_Dissertation_EX1,1,306,2020-04-20T21:03:21-07:00,2.500214099884,4,versionC_stim.csv,READVersionD.csv,"Read Version D","Dissertation, read only version D",PILOT,PLANE,Study1,F,44,50,Test,User,-,,Recall,Recall2,2185,plane,100,1376,1912,1,1,,1
w214500,4moq18am1p,Nick_Dissertation_EX1,1,307,2020-04-20T21:03:24-07:00,3.4521269798279,4,versionC_stim.csv,READVersionD.csv,"Read Version D","Dissertation, read only version D",FISH,TUNA,Study1,B,25,14,Test,User,-,,Recall,Recall2,3152,swim,0,2095,2854,0,0,,1
w214500,4moq18am1p,Nick_Dissertation_EX1,1,308,2020-04-20T21:03:29-07:00,4.3956768512726,4,versionC_stim.csv,READVersionD.csv,"Read Version D","Dissertation, read only version D",FAMINE,HUNGER,Study1,F,40,69,Test,User,-,,Recall,Recall2,4082,hunger,100,2923,3941,1,1,,1
w214500,4moq18am1p,Nick_Dissertation_EX1,1,309,2020-04-20T21:03:33-07:00,4.0702710151672,4,versionC_stim.csv,READVersionD.csv,"Read Version D","Dissertation, read only version D",WATER,BRIDGE,Study1,B,18,62,Test,User,-,,Recall,Recall2,3761,food,20,3198,3603,0,0,,1
w214500,4moq18am1p,Nick_Dissertation_EX1,1,310,2020-04-20T21:03:37-07:00,4.4287180900574,4,versionC_stim.csv,READVersionD.csv,"Read Version D","Dissertation, read only version D",CLUTTER,PUSHER,Study1,U,66,60,Test,User,-,,Recall,Recall2,2602,mess,20,1517,2441,0,0,,1
w214500,4moq18am1p,Nick_Dissertation_EX1,1,311,2020-04-20T21:03:45-07:00,7.3641788959503,4,versionC_stim.csv,READVersionD.csv,"Read Version D","Dissertation, read only version D",ACCIDENT,STRONG,Study1,U,80,74,Test,User,-,,Recall,Recall2,7044,purpose,30.769230769231,5382,6901,0,0,,1
w214500,4moq18am1p,Nick_Dissertation_EX1,1,312,2020-04-20T21:03:49-07:00,4.6675050258636,4,versionC_stim.csv,READVersionD.csv,"Read Version D","Dissertation, read only version D",FLOWER,ORCHID,Study1,B,24,59,Test,User,-,,Recall,Recall2,4353,plant,0,3340,4157,0,0,,1
w214500,4moq18am1p,Nick_Dissertation_EX1,1,313,2020-04-20T21:03:58-07:00,8.2401120662689,4,versionC_stim.csv,READVersionD.csv,"Read Version D","Dissertation, read only version D",POSITION,MACHINE,Study1,U,76,38,Test,User,-,,Recall,Recall2,7932,foward,15.384615384615,5768,7590,0,0,,1
w214500,4moq18am1p,Nick_Dissertation_EX1,1,314,2020-04-20T21:04:01-07:00,3.5316281318665,4,versionC_stim.csv,READVersionD.csv,"Read Version D","Dissertation, read only version D",WASTE,DUMP,Study1,S,49,16,Test,User,-,,Recall,Recall2,3207,dump,100,1892,2727,1,1,,1
w214500,4moq18am1p,Nick_Dissertation_EX1,1,315,2020-04-20T21:04:05-07:00,3.7492139339447,4,versionC_stim.csv,READVersionD.csv,"Read Version D","Dissertation, read only version D",SACKING,DIETARY,Study1,U,67,48,Test,User,-,,Recall,Recall2,3432,,0,-1,-1,0,0,,1
w214500,4moq18am1p,Nick_Dissertation_EX1,1,316,2020-04-20T21:04:07-07:00,2.2954058647156,4,versionC_stim.csv,READVersionD.csv,"Read Version D","Dissertation, read only version D",WOULD,CASH,Study1,U,83,85,Test,User,-,,Recall,Recall2,1990,could,22.222222222222,1158,1879,0,0,,1
w214500,4moq18am1p,Nick_Dissertation_EX1,1,317,2020-04-20T21:04:11-07:00,4.1936941146851,4,versionC_stim.csv,READVersionD.csv,"Read Version D","Dissertation, read only version D",MONEY,WAGE,Study1,B,8,86,Test,User,-,,Recall,Recall2,3887,earn,25,2539,3590,0,0,,1
w214500,4moq18am1p,Nick_Dissertation_EX1,1,318,2020-04-20T21:04:17-07:00,5.9721190929413,4,versionC_stim.csv,READVersionD.csv,"Read Version D","Dissertation, read only version D",GROWTH,HEIGHT,Study1,F,30,35,Test,User,-,,Recall,Recall2,5568,shrink,33.333333333333,2007,5303,0,0,,1
w214500,4moq18am1p,Nick_Dissertation_EX1,1,319,2020-04-20T21:04:21-07:00,4.1299889087677,4,versionC_stim.csv,READVersionD.csv,"Read Version D","Dissertation, read only version D",DIVISION,MATH,Study1,F,33,22,Test,User,-,,Recall,Recall2,3696,cut,28.571428571429,3187,3562,0,0,,1
w214500,4moq18am1p,Nick_Dissertation_EX1,1,320,2020-04-20T21:04:26-07:00,4.468230009079,4,versionC_stim.csv,READVersionD.csv,"Read Version D","Dissertation, read only version D",RACKET,BALL,Study1,F,38,45,Test,User,-,,Recall,Recall2,4066,loud,25,1531,3890,0,0,,1
w214500,4moq18am1p,Nick_Dissertation_EX1,1,321,2020-04-20T21:04:30-07:00,3.9070780277252,4,versionC_stim.csv,READVersionD.csv,"Read Version D","Dissertation, read only version D",BRONZE,ARTERY,Study1,U,74,42,Test,User,-,,Recall,Recall2,3590,silver,33.333333333333,2554,3436,0,0,,1
w214500,4moq18am1p,Nick_Dissertation_EX1,1,322,2020-04-20T21:04:35-07:00,4.7451620101929,4,versionC_stim.csv,READVersionD.csv,"Read Version D","Dissertation, read only version D",CAVE,DARK,Study1,F,28,71,Test,User,-,,Recall,Recall2,4435,hide,25,3746,4298,0,0,,1
w214500,4moq18am1p,Nick_Dissertation_EX1,1,323,2020-04-20T21:04:37-07:00,2.0884728431702,4,versionC_stim.csv,READVersionD.csv,"Read Version D","Dissertation, read only version D",WASP,BUG,Study1,F,32,17,Test,User,-,,Recall,Recall2,1774,bee,33.333333333333,1291,1576,0,0,,1
w214500,4moq18am1p,Nick_Dissertation_EX1,1,324,2020-04-20T21:04:40-07:00,3.8684329986572,4,versionC_stim.csv,READVersionD.csv,"Read Version D","Dissertation, read only version D",FANTASTIC,GREAT,Study1,F,35,53,Test,User,-,,Recall,Recall2,3559,great,100,1576,2757,1,1,,1
w214500,4moq18am1p,Nick_Dissertation_EX1,1,325,2020-04-20T21:04:43-07:00,2.8983480930328,4,versionC_stim.csv,READVersionD.csv,"Read Version D","Dissertation, read only version D",SODA,POP,Study1,S,56,26,Test,User,-,,Recall,Recall2,2591,pop,100,1937,2303,1,1,,1
w214500,4moq18am1p,Nick_Dissertation_EX1,1,326,2020-04-20T21:04:52-07:00,9.0194010734558,4,versionC_stim.csv,READVersionD.csv,"Read Version D","Dissertation, read only version D",BELT,SOON,Study1,U,70,8,Test,User,-,,Recall,Recall2,8709,pant,25,6353,8560,0,0,,1
w214500,4moq18am1p,Nick_Dissertation_EX1,1,327,2020-04-20T21:04:55-07:00,2.5534949302673,4,versionC_stim.csv,READVersionD.csv,"Read Version D","Dissertation, read only version D",BLAZE,FIRE,Study1,F,45,75,Test,User,-,,Recall,Recall2,2244,fire,100,1725,2134,1,1,,1
w214500,4moq18am1p,Nick_Dissertation_EX1,1,328,2020-04-20T21:04:59-07:00,3.7484850883484,4,versionC_stim.csv,READVersionD.csv,"Read Version D","Dissertation, read only version D",HAMMER,CHISEL,Study1,B,9,20,Test,User,-,,Recall,Recall2,3444,nail,40,1228,3206,0,0,,1
w214500,4moq18am1p,Nick_Dissertation_EX1,1,329,2020-04-20T21:05:04-07:00,5.6324968338013,4,versionC_stim.csv,READVersionD.csv,"Read Version D","Dissertation, read only version D",ENOUGH,FULL,Study1,F,26,78,Test,User,-,,Recall,Recall2,5309,"lack ",25,4320,5031,0,0,,1
w214500,4moq18am1p,Nick_Dissertation_EX1,1,330,2020-04-20T21:05:09-07:00,4.1947400569916,4,versionC_stim.csv,READVersionD.csv,"Read Version D","Dissertation, read only version D",BUSINESS,DEATH,Study1,U,72,29,Test,User,-,,Recall,Recall2,3876,suit,22.222222222222,3225,3716,0,0,,1
w214500,4moq18am1p,Nick_Dissertation_EX1,1,331,2020-04-20T21:05:12-07:00,3.400218963623,4,versionC_stim.csv,READVersionD.csv,"Read Version D","Dissertation, read only version D",SIP,DRINK,Study1,F,27,13,Test,User,-,,Recall,Recall2,3065,gulp,0,2081,2807,0,0,,1
w214500,4moq18am1p,Nick_Dissertation_EX1,1,332,2020-04-20T21:05:14-07:00,2.4513511657715,4,versionC_stim.csv,READVersionD.csv,"Read Version D","Dissertation, read only version D",BIRD,SWAN,Study1,B,14,56,Test,User,-,,Recall,Recall2,2098,fly,0,1326,1802,0,0,,1
w214500,4moq18am1p,Nick_Dissertation_EX1,1,333,2020-04-20T21:05:18-07:00,3.4897418022156,4,versionC_stim.csv,READVersionD.csv,"Read Version D","Dissertation, read only version D",DESIGN,ARCHITECTURE,Study1,S,51,12,Test,User,-,,Recall,Recall2,3170,worl,12.5,1986,2886,0,0,,1
w214500,4moq18am1p,Nick_Dissertation_EX1,1,334,2020-04-20T21:05:23-07:00,5.5302801132202,4,versionC_stim.csv,READVersionD.csv,"Read Version D","Dissertation, read only version D",DEFINITION,MEANING,Study1,S,62,40,Test,User,-,,Recall,Recall2,5215,word,0,3673,5025,0,0,,1
w214500,4moq18am1p,Nick_Dissertation_EX1,1,335,2020-04-20T21:05:26-07:00,2.986396074295,4,versionC_stim.csv,READVersionD.csv,"Read Version D","Dissertation, read only version D",FUTURE,PAST,Study1,S,61,19,Test,User,-,,Recall,Recall2,2647,past,100,1615,2502,1,1,,1
w214500,4moq18am1p,Nick_Dissertation_EX1,1,336,2020-04-20T21:05:30-07:00,3.3480858802795,4,versionC_stim.csv,READVersionD.csv,"Read Version D","Dissertation, read only version D",BEE,HONEY,Study1,S,63,55,Test,User,-,,Recall,Recall2,3033,wasp,0,1970,2597,0,0,,1
w214500,4moq18am1p,Nick_Dissertation_EX1,1,337,2020-04-20T21:05:32-07:00,2.6872239112854,4,versionC_stim.csv,READVersionD.csv,"Read Version D","Dissertation, read only version D",CLEAN,HYGIENE,Study1,B,17,61,Test,User,-,,Recall,Recall2,2382,dirty,16.666666666667,1495,2203,0,0,,1
w214500,4moq18am1p,Nick_Dissertation_EX1,1,338,2020-04-20T21:05:36-07:00,3.9385650157928,4,versionC_stim.csv,READVersionD.csv,"Read Version D","Dissertation, read only version D",BAR,GRILL,Study1,S,52,10,Test,User,-,,Recall,Recall2,3626,drink,40,2569,3367,0,0,,1
w214500,4moq18am1p,Nick_Dissertation_EX1,1,339,2020-04-20T21:05:41-07:00,4.8810021877289,4,versionC_stim.csv,READVersionD.csv,"Read Version D","Dissertation, read only version D",CAR,HAPPY,Study1,U,77,34,Test,User,-,,Recall,Recall2,4575,drive,0,3759,4393,0,0,,1
w214500,4moq18am1p,Nick_Dissertation_EX1,1,340,2020-04-20T21:05:45-07:00,3.3731729984283,4,versionC_stim.csv,READVersionD.csv,"Read Version D","Dissertation, read only version D",ADD,VALLEY,Study1,U,82,30,Test,User,-,,Recall,Recall2,3056,subtract,14.285714285714,1502,2707,0,0,,1
w214500,4moq18am1p,Nick_Dissertation_EX1,1,341,2020-04-20T21:05:48-07:00,3.8112177848816,4,versionC_stim.csv,READVersionD.csv,"Read Version D","Dissertation, read only version D",TALK,DISCUSSION,Study1,B,21,39,Test,User,-,,Recall,Recall2,3459,loud,14.285714285714,2754,3357,0,0,,1
w214500,4moq18am1p,Nick_Dissertation_EX1,1,342,2020-04-20T21:05:52-07:00,3.7494661808014,4,versionC_stim.csv,READVersionD.csv,"Read Version D","Dissertation, read only version D",FLOOR,DISCOVER,Study1,U,71,47,Test,User,-,,Recall,Recall2,3447,bottom,14.285714285714,2362,3173,0,0,,1
w214500,4moq18am1p,Nick_Dissertation_EX1,1,343,2020-04-20T21:05:57-07:00,4.7699530124664,4,versionC_stim.csv,READVersionD.csv,"Read Version D","Dissertation, read only version D",AMOUNT,NUMBER,Study1,S,47,76,Test,User,-,,Recall,Recall2,4453,value,36.363636363636,3288,4127,0,0,,1
w214500,4moq18am1p,Nick_Dissertation_EX1,1,344,2020-04-20T21:06:03-07:00,5.9096229076385,4,versionC_stim.csv,READVersionD.csv,"Read Version D","Dissertation, read only version D",COW,HERD,Study1,B,22,57,Test,User,-,,Recall,Recall2,5605,animal,0,4047,5322,0,0,,1
w214500,4moq18am1p,Nick_Dissertation_EX1,1,345,2020-04-20T21:06:08-07:00,5.5280749797821,4,versionC_stim.csv,READVersionD.csv,"Read Version D","Dissertation, read only version D",JURY,TRIAL,Study1,S,50,49,Test,User,-,,Recall,Recall2,5224,court,20,4128,5056,0,0,,1
w214500,4moq18am1p,Nick_Dissertation_EX1,1,346,2020-04-20T21:06:13-07:00,4.5945761203766,4,versionC_stim.csv,READVersionD.csv,"Read Version D","Dissertation, read only version D",DROWSY,SLEEP,Study1,F,41,31,Test,User,-,,Recall,Recall2,4289,awake,20,2133,4100,0,0,,1
w214500,4moq18am1p,Nick_Dissertation_EX1,1,347,2020-04-20T21:06:18-07:00,4.6444399356842,4,versionC_stim.csv,READVersionD.csv,"Read Version D","Dissertation, read only version D",ROUND,CIRCLE,Study1,S,65,64,Test,User,-,,Recall,Recall2,4174,circlr,83.333333333333,2761,3803,0,1,,1
w214500,4moq18am1p,Nick_Dissertation_EX1,1,348,2020-04-20T21:06:20-07:00,2.0243740081787,4,versionC_stim.csv,READVersionD.csv,"Read Version D","Dissertation, read only version D",COLD,BITTER,Study1,B,12,79,Test,User,-,,Recall,Recall2,1603,hot,22.222222222222,1085,1406,0,0,,1
w214500,4moq18am1p,Nick_Dissertation_EX1,1,349,2020-04-20T21:06:22-07:00,2.3760008811951,4,versionC_stim.csv,READVersionD.csv,"Read Version D","Dissertation, read only version D",,,,,,0,Instruct,User,-,"You have completed this section. Please press Enter.",,Instruct7,1928,,,-1,-1,,,,1
w214500,4moq18am1p,Nick_Dissertation_EX1,1,350,2020-04-20T21:06:25-07:00,2.6218430995941,4,versionC_stim.csv,READVersionD.csv,"Read Version D","Dissertation, read only version D",,,,,,0,Instruct,User,-,"The following screen will ask you a few questions abour your experience today. You must complete these questions to receive credit.",,Instruct8,2232,,,-1,-1,,,,1
