Username,ID,ExperimentName,Session,Trial,Date,TimeDif,"Condition Number","Stimuli File","Order File","Condition Description","Condition Notes",Stimuli*Cue,Stimuli*Answer,Stimuli*Shuffle,"Stimuli*Stimuli Notes",Stimuli*Value,Procedure*Item,"Procedure*Trial Type","Procedure*Max Time","Procedure*Min Time",Procedure*Text,"Procedure*Procedure Notes",Procedure*Shuffle,Response*RT,Response*Response,Response*Accuracy,Response*RTfirst,Response*RTlast,Response*strictAcc,Response*lenientAcc,Response*focus,Response*Focus
w870202,7wexdmlj6i,Nick_Dissertation_EX1_EP,1,1,2021-11-25T02:28:17+00:00,8.2858390808105,2,versionA_stim.csv,READVersionB.csv,"Read Version B","Dissertation, read only version B",,,,,,0,Instruct,-,5,"In this section, you will be presented with a series of word pairs.",Initial_Instruct,Instruct1,8098,,,-1,-1,,,,1
w870202,7wexdmlj6i,Nick_Dissertation_EX1_EP,1,2,2021-11-25T02:28:29+00:00,11.062350034714,2,versionA_stim.csv,READVersionB.csv,"Read Version B","Dissertation, read only version B",,,,,,0,Instruct,-,10,"Each word will be displayed on the computer screen for 8 seconds. The screen will automatically move to the next pair when time is up. Please study each pair. Your memory will be tested!",,Instruct15,10576,,,-1,-1,,,,1
w870202,7wexdmlj6i,Nick_Dissertation_EX1_EP,1,3,2021-11-25T02:28:31+00:00,2.2751059532166,2,versionA_stim.csv,READVersionB.csv,"Read Version B","Dissertation, read only version B",,,,,,0,Instruct,User,-,"You will now begin the study. Press Enter when you are ready to begin.",,Instruct16,2126,,,-1,-1,,,,1
w870202,7wexdmlj6i,Nick_Dissertation_EX1_EP,1,4,2021-11-25T02:28:39+00:00,8.2486209869385,2,versionA_stim.csv,READVersionB.csv,"Read Version B","Dissertation, read only version B",NOODLE,STRING,BUFFER3,Buffer,92,93,Study,8,8,,Study/JOL,BUFFER,8002,,,-1,-1,,,,1
w870202,7wexdmlj6i,Nick_Dissertation_EX1_EP,1,5,2021-11-25T02:28:47+00:00,8.2621259689331,2,versionA_stim.csv,READVersionB.csv,"Read Version B","Dissertation, read only version B",CARROT,POTATO,BUFFER3,Buffer,91,96,Study,8,8,,Study/JOL,BUFFER,8002,,,-1,-1,,,,1
w870202,7wexdmlj6i,Nick_Dissertation_EX1_EP,1,6,2021-11-25T02:28:56+00:00,8.3246469497681,2,versionA_stim.csv,READVersionB.csv,"Read Version B","Dissertation, read only version B",SHRIMP,FISH,BUFFER3,Buffer,93,94,Study,8,8,,Study/JOL,BUFFER,8007,,,-1,-1,,,,1
w870202,7wexdmlj6i,Nick_Dissertation_EX1_EP,1,7,2021-11-25T02:29:04+00:00,8.2599189281464,2,versionA_stim.csv,READVersionB.csv,"Read Version B","Dissertation, read only version B",ICE,FROZEN,BUFFER3,Buffer,94,95,Study,8,8,,Study/JOL,BUFFER,8002,,,-1,-1,,,,1
w870202,7wexdmlj6i,Nick_Dissertation_EX1_EP,1,8,2021-11-25T02:29:12+00:00,8.2464370727539,2,versionA_stim.csv,READVersionB.csv,"Read Version B","Dissertation, read only version B",CAMP,ADVENTURE,BUFFER3,Buffer,95,92,Study,8,8,,Study/JOL,BUFFER,8002,,,-1,-1,,,,1
w870202,7wexdmlj6i,Nick_Dissertation_EX1_EP,1,9,2021-11-25T02:29:20+00:00,8.2679829597473,2,versionA_stim.csv,READVersionB.csv,"Read Version B","Dissertation, read only version B",MIRROR,CHILDREN,Study2,U,174,106,Study,8,8,,Study/JOL,"Study Phase",8001,,,-1,-1,,,,1
w870202,7wexdmlj6i,Nick_Dissertation_EX1_EP,1,10,2021-11-25T02:29:29+00:00,8.2971241474152,2,versionA_stim.csv,READVersionB.csv,"Read Version B","Dissertation, read only version B",FIGHT,BRAWL,Study2,B,135,165,Study,8,8,,Study/JOL,"Study Phase",8002,,,-1,-1,,,,1
w870202,7wexdmlj6i,Nick_Dissertation_EX1_EP,1,11,2021-11-25T02:29:37+00:00,8.3055849075317,2,versionA_stim.csv,READVersionB.csv,"Read Version B","Dissertation, read only version B",LITTER,TRASH,Study2,F,103,112,Study,8,8,,Study/JOL,"Study Phase",8002,,,-1,-1,,,,0.867
w870202,7wexdmlj6i,Nick_Dissertation_EX1_EP,1,12,2021-11-25T02:29:45+00:00,8.2674849033356,2,versionA_stim.csv,READVersionB.csv,"Read Version B","Dissertation, read only version B",STAR,ACTRESS,Study2,B,120,143,Study,8,8,,Study/JOL,"Study Phase",8002,,,-1,-1,,,,1
w870202,7wexdmlj6i,Nick_Dissertation_EX1_EP,1,13,2021-11-25T02:29:54+00:00,8.2743101119995,2,versionA_stim.csv,READVersionB.csv,"Read Version B","Dissertation, read only version B",GONE,AWAY,Study2,S,142,115,Study,8,8,,Study/JOL,"Study Phase",8002,,,-1,-1,,,,1
w870202,7wexdmlj6i,Nick_Dissertation_EX1_EP,1,14,2021-11-25T02:30:03+00:00,8.9925389289856,2,versionA_stim.csv,READVersionB.csv,"Read Version B","Dissertation, read only version B",VEHICLE,CHARM,Study2,U,160,126,Study,8,8,,Study/JOL,"Study Phase",8002,,,-1,-1,,,,1
w870202,7wexdmlj6i,Nick_Dissertation_EX1_EP,1,15,2021-11-25T02:30:11+00:00,8.3515951633453,2,versionA_stim.csv,READVersionB.csv,"Read Version B","Dissertation, read only version B",SCALP,HEAD,Study2,F,105,129,Study,8,8,,Study/JOL,"Study Phase",8002,,,-1,-1,,,,1
w870202,7wexdmlj6i,Nick_Dissertation_EX1_EP,1,16,2021-11-25T02:30:19+00:00,8.2477989196777,2,versionA_stim.csv,READVersionB.csv,"Read Version B","Dissertation, read only version B",INCENSE,SMELL,Study2,F,110,139,Study,8,8,,Study/JOL,"Study Phase",8002,,,-1,-1,,,,1
w870202,7wexdmlj6i,Nick_Dissertation_EX1_EP,1,17,2021-11-25T02:30:27+00:00,8.2600140571594,2,versionA_stim.csv,READVersionB.csv,"Read Version B","Dissertation, read only version B",LOUD,NOISE,Study2,S,152,164,Study,8,8,,Study/JOL,"Study Phase",8002,,,-1,-1,,,,1
w870202,7wexdmlj6i,Nick_Dissertation_EX1_EP,1,18,2021-11-25T02:30:36+00:00,8.2332370281219,2,versionA_stim.csv,READVersionB.csv,"Read Version B","Dissertation, read only version B",KEYS,JOKE,Study2,U,165,138,Study,8,8,,Study/JOL,"Study Phase",8001,,,-1,-1,,,,0.946
w870202,7wexdmlj6i,Nick_Dissertation_EX1_EP,1,19,2021-11-25T02:30:44+00:00,8.2472019195557,2,versionA_stim.csv,READVersionB.csv,"Read Version B","Dissertation, read only version B",LEASE,TOIL,Study2,U,170,169,Study,8,8,,Study/JOL,"Study Phase",8002,,,-1,-1,,,,1
w870202,7wexdmlj6i,Nick_Dissertation_EX1_EP,1,20,2021-11-25T02:30:52+00:00,8.2581689357758,2,versionA_stim.csv,READVersionB.csv,"Read Version B","Dissertation, read only version B",CAR,WINDSHIELD,Study2,B,117,107,Study,8,8,,Study/JOL,"Study Phase",8001,,,-1,-1,,,,1
w870202,7wexdmlj6i,Nick_Dissertation_EX1_EP,1,21,2021-11-25T02:31:00+00:00,8.2868430614471,2,versionA_stim.csv,READVersionB.csv,"Read Version B","Dissertation, read only version B",MONEY,BANKER,Study2,B,132,97,Study,8,8,,Study/JOL,"Study Phase",8002,,,-1,-1,,,,1
w870202,7wexdmlj6i,Nick_Dissertation_EX1_EP,1,22,2021-11-25T02:31:09+00:00,8.2606339454651,2,versionA_stim.csv,READVersionB.csv,"Read Version B","Dissertation, read only version B",MULE,DONKEY,Study2,F,108,147,Study,8,8,,Study/JOL,"Study Phase",8002,,,-1,-1,,,,1
w870202,7wexdmlj6i,Nick_Dissertation_EX1_EP,1,23,2021-11-25T02:31:17+00:00,8.258917093277,2,versionA_stim.csv,READVersionB.csv,"Read Version B","Dissertation, read only version B",LOAN,SIGN,Study2,U,171,103,Study,8,8,,Study/JOL,"Study Phase",8002,,,-1,-1,,,,1
w870202,7wexdmlj6i,Nick_Dissertation_EX1_EP,1,24,2021-11-25T02:31:25+00:00,8.2814259529114,2,versionA_stim.csv,READVersionB.csv,"Read Version B","Dissertation, read only version B",MASON,JAR,Study2,S,138,116,Study,8,8,,Study/JOL,"Study Phase",8002,,,-1,-1,,,,1
w870202,7wexdmlj6i,Nick_Dissertation_EX1_EP,1,25,2021-11-25T02:31:33+00:00,8.2529990673065,2,versionA_stim.csv,READVersionB.csv,"Read Version B","Dissertation, read only version B",ELEMENT,CARBON,Study2,S,141,113,Study,8,8,,Study/JOL,"Study Phase",8002,,,-1,-1,,,,1
w870202,7wexdmlj6i,Nick_Dissertation_EX1_EP,1,26,2021-11-25T02:31:42+00:00,8.3860459327698,2,versionA_stim.csv,READVersionB.csv,"Read Version B","Dissertation, read only version B",FEUD,FIGHT,Study2,F,113,150,Study,8,8,,Study/JOL,"Study Phase",8002,,,-1,-1,,,,0.906
w870202,7wexdmlj6i,Nick_Dissertation_EX1_EP,1,27,2021-11-25T02:31:51+00:00,8.7388889789581,2,versionA_stim.csv,READVersionB.csv,"Read Version B","Dissertation, read only version B",MEAT,OBTAIN,Study2,U,161,157,Study,8,8,,Study/JOL,"Study Phase",8002,,,-1,-1,,,,1
w870202,7wexdmlj6i,Nick_Dissertation_EX1_EP,1,28,2021-11-25T02:31:59+00:00,8.3282430171967,2,versionA_stim.csv,READVersionB.csv,"Read Version B","Dissertation, read only version B",GIVE,STEAK,Study2,U,158,128,Study,8,8,,Study/JOL,"Study Phase",8002,,,-1,-1,,,,1
w870202,7wexdmlj6i,Nick_Dissertation_EX1_EP,1,29,2021-11-25T02:32:07+00:00,8.2426490783691,2,versionA_stim.csv,READVersionB.csv,"Read Version B","Dissertation, read only version B",EARTH,GROUND,Study2,S,144,117,Study,8,8,,Study/JOL,"Study Phase",8002,,,-1,-1,,,,1
w870202,7wexdmlj6i,Nick_Dissertation_EX1_EP,1,30,2021-11-25T02:32:15+00:00,8.2792809009552,2,versionA_stim.csv,READVersionB.csv,"Read Version B","Dissertation, read only version B",CACTUS,PLANT,Study2,F,98,99,Study,8,8,,Study/JOL,"Study Phase",8002,,,-1,-1,,,,1
w870202,7wexdmlj6i,Nick_Dissertation_EX1_EP,1,31,2021-11-25T02:32:24+00:00,8.2472779750824,2,versionA_stim.csv,READVersionB.csv,"Read Version B","Dissertation, read only version B",BASEBALL,LEAGUE,Study2,B,131,146,Study,8,8,,Study/JOL,"Study Phase",8002,,,-1,-1,,,,1
w870202,7wexdmlj6i,Nick_Dissertation_EX1_EP,1,32,2021-11-25T02:32:32+00:00,8.2465400695801,2,versionA_stim.csv,READVersionB.csv,"Read Version B","Dissertation, read only version B",DOCUMENT,PAPER,Study2,F,109,175,Study,8,8,,Study/JOL,"Study Phase",8002,,,-1,-1,,,,1
w870202,7wexdmlj6i,Nick_Dissertation_EX1_EP,1,33,2021-11-25T02:32:40+00:00,8.2476799488068,2,versionA_stim.csv,READVersionB.csv,"Read Version B","Dissertation, read only version B",RAZOR,SHAVE,Study2,S,136,145,Study,8,8,,Study/JOL,"Study Phase",8002,,,-1,-1,,,,1
w870202,7wexdmlj6i,Nick_Dissertation_EX1_EP,1,34,2021-11-25T02:32:48+00:00,8.247486114502,2,versionA_stim.csv,READVersionB.csv,"Read Version B","Dissertation, read only version B",WRIST,BRACELET,Study2,S,140,159,Study,8,8,,Study/JOL,"Study Phase",8003,,,-1,-1,,,,0.919
w870202,7wexdmlj6i,Nick_Dissertation_EX1_EP,1,35,2021-11-25T02:32:57+00:00,8.2542819976807,2,versionA_stim.csv,READVersionB.csv,"Read Version B","Dissertation, read only version B",ROD,REEL,Study2,S,150,130,Study,8,8,,Study/JOL,"Study Phase",8002,,,-1,-1,,,,1
w870202,7wexdmlj6i,Nick_Dissertation_EX1_EP,1,36,2021-11-25T02:33:05+00:00,8.2839019298553,2,versionA_stim.csv,READVersionB.csv,"Read Version B","Dissertation, read only version B",BAD,VILLAIN,Study2,B,118,100,Study,8,8,,Study/JOL,"Study Phase",8002,,,-1,-1,,,,1
w870202,7wexdmlj6i,Nick_Dissertation_EX1_EP,1,37,2021-11-25T02:33:13+00:00,8.2411758899689,2,versionA_stim.csv,READVersionB.csv,"Read Version B","Dissertation, read only version B",DEAD,COFFIN,Study2,B,128,160,Study,8,8,,Study/JOL,"Study Phase",8002,,,-1,-1,,,,1
w870202,7wexdmlj6i,Nick_Dissertation_EX1_EP,1,38,2021-11-25T02:33:21+00:00,8.2667970657349,2,versionA_stim.csv,READVersionB.csv,"Read Version B","Dissertation, read only version B",DRIVER,CAR,Study2,F,106,118,Study,8,8,,Study/JOL,"Study Phase",8003,,,-1,-1,,,,1
w870202,7wexdmlj6i,Nick_Dissertation_EX1_EP,1,39,2021-11-25T02:33:30+00:00,8.2634360790253,2,versionA_stim.csv,READVersionB.csv,"Read Version B","Dissertation, read only version B",FLEA,TICK,Study2,S,151,101,Study,8,8,,Study/JOL,"Study Phase",8003,,,-1,-1,,,,1
w870202,7wexdmlj6i,Nick_Dissertation_EX1_EP,1,40,2021-11-25T02:33:38+00:00,8.2535338401794,2,versionA_stim.csv,READVersionB.csv,"Read Version B","Dissertation, read only version B",TANTRUM,TEMPER,Study2,S,154,122,Study,8,8,,Study/JOL,"Study Phase",8002,,,-1,-1,,,,1
w870202,7wexdmlj6i,Nick_Dissertation_EX1_EP,1,41,2021-11-25T02:33:46+00:00,8.2615261077881,2,versionA_stim.csv,READVersionB.csv,"Read Version B","Dissertation, read only version B",MOAT,CLEAR,Study2,U,169,167,Study,8,8,,Study/JOL,"Study Phase",8002,,,-1,-1,,,,1
w870202,7wexdmlj6i,Nick_Dissertation_EX1_EP,1,42,2021-11-25T02:33:55+00:00,8.2515110969543,2,versionA_stim.csv,READVersionB.csv,"Read Version B","Dissertation, read only version B",FISH,SARDINE,Study2,B,130,158,Study,8,8,,Study/JOL,"Study Phase",8001,,,-1,-1,,,,1
w870202,7wexdmlj6i,Nick_Dissertation_EX1_EP,1,43,2021-11-25T02:34:03+00:00,8.2526569366455,2,versionA_stim.csv,READVersionB.csv,"Read Version B","Dissertation, read only version B",THREAD,THIMBLE,Study2,B,121,109,Study,8,8,,Study/JOL,"Study Phase",8002,,,-1,-1,,,,0.946
w870202,7wexdmlj6i,Nick_Dissertation_EX1_EP,1,44,2021-11-25T02:34:11+00:00,8.2566049098969,2,versionA_stim.csv,READVersionB.csv,"Read Version B","Dissertation, read only version B",CHERRY,RED,Study2,F,104,171,Study,8,8,,Study/JOL,"Study Phase",8003,,,-1,-1,,,,1
w870202,7wexdmlj6i,Nick_Dissertation_EX1_EP,1,45,2021-11-25T02:34:19+00:00,8.2730331420898,2,versionA_stim.csv,READVersionB.csv,"Read Version B","Dissertation, read only version B",FUZZY,BANG,Study2,U,168,152,Study,8,8,,Study/JOL,"Study Phase",8001,,,-1,-1,,,,1
w870202,7wexdmlj6i,Nick_Dissertation_EX1_EP,1,46,2021-11-25T02:34:28+00:00,8.2473800182343,2,versionA_stim.csv,READVersionB.csv,"Read Version B","Dissertation, read only version B",STRETCH,CLOTH,Study2,U,157,119,Study,8,8,,Study/JOL,"Study Phase",8002,,,-1,-1,,,,1
w870202,7wexdmlj6i,Nick_Dissertation_EX1_EP,1,47,2021-11-25T02:34:36+00:00,8.2411408424377,2,versionA_stim.csv,READVersionB.csv,"Read Version B","Dissertation, read only version B",TRUTH,LIE,Study2,S,148,134,Study,8,8,,Study/JOL,"Study Phase",8002,,,-1,-1,,,,1
w870202,7wexdmlj6i,Nick_Dissertation_EX1_EP,1,48,2021-11-25T02:34:44+00:00,8.2560620307922,2,versionA_stim.csv,READVersionB.csv,"Read Version B","Dissertation, read only version B",EVEN,REVENGE,Study2,B,122,153,Study,8,8,,Study/JOL,"Study Phase",8002,,,-1,-1,,,,1
w870202,7wexdmlj6i,Nick_Dissertation_EX1_EP,1,49,2021-11-25T02:34:52+00:00,8.244323015213,2,versionA_stim.csv,READVersionB.csv,"Read Version B","Dissertation, read only version B",WATER,DRINK,Study2,S,143,123,Study,8,8,,Study/JOL,"Study Phase",8002,,,-1,-1,,,,1
w870202,7wexdmlj6i,Nick_Dissertation_EX1_EP,1,50,2021-11-25T02:35:01+00:00,8.3490159511566,2,versionA_stim.csv,READVersionB.csv,"Read Version B","Dissertation, read only version B",DETECTIVE,MYSTERY,Study2,F,100,163,Study,8,8,,Study/JOL,"Study Phase",8001,,,-1,-1,,,,0.886
w870202,7wexdmlj6i,Nick_Dissertation_EX1_EP,1,51,2021-11-25T02:35:10+00:00,9.450798034668,2,versionA_stim.csv,READVersionB.csv,"Read Version B","Dissertation, read only version B",CHOP,CUT,Study2,F,107,110,Study,8,8,,Study/JOL,"Study Phase",8002,,,-1,-1,,,,1
w870202,7wexdmlj6i,Nick_Dissertation_EX1_EP,1,52,2021-11-25T02:35:18+00:00,8.2509880065918,2,versionA_stim.csv,READVersionB.csv,"Read Version B","Dissertation, read only version B",FRUIT,STRAWBERRY,Study2,B,124,162,Study,8,8,,Study/JOL,"Study Phase",8002,,,-1,-1,,,,1
w870202,7wexdmlj6i,Nick_Dissertation_EX1_EP,1,53,2021-11-25T02:35:27+00:00,8.3010139465332,2,versionA_stim.csv,READVersionB.csv,"Read Version B","Dissertation, read only version B",HONEST,TRUTHFUL,Study2,B,133,168,Study,8,8,,Study/JOL,"Study Phase",8002,,,-1,-1,,,,1
w870202,7wexdmlj6i,Nick_Dissertation_EX1_EP,1,54,2021-11-25T02:35:35+00:00,8.2693440914154,2,versionA_stim.csv,READVersionB.csv,"Read Version B","Dissertation, read only version B",SUN,TAN,Study2,S,155,170,Study,8,8,,Study/JOL,"Study Phase",8002,,,-1,-1,,,,1
w870202,7wexdmlj6i,Nick_Dissertation_EX1_EP,1,55,2021-11-25T02:35:43+00:00,8.2533640861511,2,versionA_stim.csv,READVersionB.csv,"Read Version B","Dissertation, read only version B",TEMPERATURE,Morning,Study2,U,173,133,Study,8,8,,Study/JOL,"Study Phase",8002,,,-1,-1,,,,1
w870202,7wexdmlj6i,Nick_Dissertation_EX1_EP,1,56,2021-11-25T02:35:51+00:00,8.2598218917847,2,versionA_stim.csv,READVersionB.csv,"Read Version B","Dissertation, read only version B",DRY,WET,Study2,S,146,120,Study,8,8,,Study/JOL,"Study Phase",8002,,,-1,-1,,,,1
w870202,7wexdmlj6i,Nick_Dissertation_EX1_EP,1,57,2021-11-25T02:36:00+00:00,8.2862648963928,2,versionA_stim.csv,READVersionB.csv,"Read Version B","Dissertation, read only version B",CHILL,COLD,Study2,F,114,98,Study,8,8,,Study/JOL,"Study Phase",8002,,,-1,-1,,,,0.946
w870202,7wexdmlj6i,Nick_Dissertation_EX1_EP,1,58,2021-11-25T02:36:08+00:00,8.3130941390991,2,versionA_stim.csv,READVersionB.csv,"Read Version B","Dissertation, read only version B",OWN,HAVE,Study2,S,153,151,Study,8,8,,Study/JOL,"Study Phase",8002,,,-1,-1,,,,1
w870202,7wexdmlj6i,Nick_Dissertation_EX1_EP,1,59,2021-11-25T02:36:16+00:00,8.2510249614716,2,versionA_stim.csv,READVersionB.csv,"Read Version B","Dissertation, read only version B",BOTH,OUNCE,Study2,U,172,131,Study,8,8,,Study/JOL,"Study Phase",8001,,,-1,-1,,,,1
w870202,7wexdmlj6i,Nick_Dissertation_EX1_EP,1,60,2021-11-25T02:36:25+00:00,8.2728219032288,2,versionA_stim.csv,READVersionB.csv,"Read Version B","Dissertation, read only version B",LISTEN,FICTION,Study2,U,164,141,Study,8,8,,Study/JOL,"Study Phase",8001,,,-1,-1,,,,1
w870202,7wexdmlj6i,Nick_Dissertation_EX1_EP,1,61,2021-11-25T02:36:33+00:00,8.2651391029358,2,versionA_stim.csv,READVersionB.csv,"Read Version B","Dissertation, read only version B",JUSTICE,MAROON,Study2,U,156,155,Study,8,8,,Study/JOL,"Study Phase",8002,,,-1,-1,,,,1
w870202,7wexdmlj6i,Nick_Dissertation_EX1_EP,1,62,2021-11-25T02:36:41+00:00,8.2500259876251,2,versionA_stim.csv,READVersionB.csv,"Read Version B","Dissertation, read only version B",ADJOURN,END,Study2,F,101,172,Study,8,8,,Study/JOL,"Study Phase",8002,,,-1,-1,,,,1
w870202,7wexdmlj6i,Nick_Dissertation_EX1_EP,1,63,2021-11-25T02:36:49+00:00,8.2519609928131,2,versionA_stim.csv,READVersionB.csv,"Read Version B","Dissertation, read only version B",DINE,EAT,Study2,F,111,176,Study,8,8,,Study/JOL,"Study Phase",8002,,,-1,-1,,,,1
w870202,7wexdmlj6i,Nick_Dissertation_EX1_EP,1,64,2021-11-25T02:36:58+00:00,8.3642909526825,2,versionA_stim.csv,READVersionB.csv,"Read Version B","Dissertation, read only version B",CRACKLE,ABLE,Study2,U,162,124,Study,8,8,,Study/JOL,"Study Phase",8001,,,-1,-1,,,,1
w870202,7wexdmlj6i,Nick_Dissertation_EX1_EP,1,65,2021-11-25T02:37:06+00:00,8.3400890827179,2,versionA_stim.csv,READVersionB.csv,"Read Version B","Dissertation, read only version B",SLEEP,NAP,Study2,B,134,140,Study,8,8,,Study/JOL,"Study Phase",8002,,,-1,-1,,,,0.941
w870202,7wexdmlj6i,Nick_Dissertation_EX1_EP,1,66,2021-11-25T02:37:14+00:00,8.2497699260712,2,versionA_stim.csv,READVersionB.csv,"Read Version B","Dissertation, read only version B",FURRY,DOG,Study2,F,102,144,Study,8,8,,Study/JOL,"Study Phase",8002,,,-1,-1,,,,1
w870202,7wexdmlj6i,Nick_Dissertation_EX1_EP,1,67,2021-11-25T02:37:23+00:00,8.2571740150452,2,versionA_stim.csv,READVersionB.csv,"Read Version B","Dissertation, read only version B",BIRD,PENGUIN,Study2,B,119,149,Study,8,8,,Study/JOL,"Study Phase",8002,,,-1,-1,,,,1
w870202,7wexdmlj6i,Nick_Dissertation_EX1_EP,1,68,2021-11-25T02:37:31+00:00,8.2480919361115,2,versionA_stim.csv,READVersionB.csv,"Read Version B","Dissertation, read only version B",SHEARS,SCISSORS,Study2,F,112,137,Study,8,8,,Study/JOL,"Study Phase",8002,,,-1,-1,,,,1
w870202,7wexdmlj6i,Nick_Dissertation_EX1_EP,1,69,2021-11-25T02:37:39+00:00,8.2693710327148,2,versionA_stim.csv,READVersionB.csv,"Read Version B","Dissertation, read only version B",MAIN,SCAR,Study2,U,175,154,Study,8,8,,Study/JOL,"Study Phase",8002,,,-1,-1,,,,1
w870202,7wexdmlj6i,Nick_Dissertation_EX1_EP,1,70,2021-11-25T02:37:47+00:00,8.2333781719208,2,versionA_stim.csv,READVersionB.csv,"Read Version B","Dissertation, read only version B",SAFETY,SEATBELT,Study2,S,147,102,Study,8,8,,Study/JOL,"Study Phase",8002,,,-1,-1,,,,1
w870202,7wexdmlj6i,Nick_Dissertation_EX1_EP,1,71,2021-11-25T02:37:56+00:00,8.2512187957764,2,versionA_stim.csv,READVersionB.csv,"Read Version B","Dissertation, read only version B",AFFECTION,LOVE,Study2,F,115,127,Study,8,8,,Study/JOL,"Study Phase",8002,,,-1,-1,,,,1
w870202,7wexdmlj6i,Nick_Dissertation_EX1_EP,1,72,2021-11-25T02:38:05+00:00,9.2184910774231,2,versionA_stim.csv,READVersionB.csv,"Read Version B","Dissertation, read only version B",POP,BALLOON,Study2,B,123,114,Study,8,8,,Study/JOL,"Study Phase",8972,,,-1,-1,,,,0.947
w870202,7wexdmlj6i,Nick_Dissertation_EX1_EP,1,73,2021-11-25T02:38:13+00:00,8.2717730998993,2,versionA_stim.csv,READVersionB.csv,"Read Version B","Dissertation, read only version B",BEST,FAVORITE,Study2,B,125,156,Study,8,8,,Study/JOL,"Study Phase",8001,,,-1,-1,,,,0.7
w870202,7wexdmlj6i,Nick_Dissertation_EX1_EP,1,74,2021-11-25T02:38:21+00:00,8.3159568309784,2,versionA_stim.csv,READVersionB.csv,"Read Version B","Dissertation, read only version B",EXTENSION,LONG,Study2,F,96,105,Study,8,8,,Study/JOL,"Study Phase",8002,,,-1,-1,,,,1
w870202,7wexdmlj6i,Nick_Dissertation_EX1_EP,1,75,2021-11-25T02:38:30+00:00,8.248419046402,2,versionA_stim.csv,READVersionB.csv,"Read Version B","Dissertation, read only version B",CLUE,GAME,Study2,F,97,108,Study,8,8,,Study/JOL,"Study Phase",8003,,,-1,-1,,,,1
w870202,7wexdmlj6i,Nick_Dissertation_EX1_EP,1,76,2021-11-25T02:38:38+00:00,8.2940990924835,2,versionA_stim.csv,READVersionB.csv,"Read Version B","Dissertation, read only version B",GLASS,BREAKABLE,Study2,B,127,136,Study,8,8,,Study/JOL,"Study Phase",8002,,,-1,-1,,,,1
w870202,7wexdmlj6i,Nick_Dissertation_EX1_EP,1,77,2021-11-25T02:38:46+00:00,8.2598769664764,2,versionA_stim.csv,READVersionB.csv,"Read Version B","Dissertation, read only version B",CAT,PANTHER,Study2,B,126,132,Study,8,8,,Study/JOL,"Study Phase",8002,,,-1,-1,,,,1
w870202,7wexdmlj6i,Nick_Dissertation_EX1_EP,1,78,2021-11-25T02:38:55+00:00,9.2078819274902,2,versionA_stim.csv,READVersionB.csv,"Read Version B","Dissertation, read only version B",Shell,SHAKE,Study2,U,163,125,Study,8,8,,Study/JOL,"Study Phase",8002,,,-1,-1,,,,1
w870202,7wexdmlj6i,Nick_Dissertation_EX1_EP,1,79,2021-11-25T02:39:04+00:00,8.2493031024933,2,versionA_stim.csv,READVersionB.csv,"Read Version B","Dissertation, read only version B",ALONE,LONELY,Study2,S,145,135,Study,8,8,,Study/JOL,"Study Phase",8002,,,-1,-1,,,,1
w870202,7wexdmlj6i,Nick_Dissertation_EX1_EP,1,80,2021-11-25T02:39:13+00:00,9.1514699459076,2,versionA_stim.csv,READVersionB.csv,"Read Version B","Dissertation, read only version B",CANDLE,WAX,Study2,S,139,142,Study,8,8,,Study/JOL,"Study Phase",8889,,,-1,-1,,,,0.946
w870202,7wexdmlj6i,Nick_Dissertation_EX1_EP,1,81,2021-11-25T02:39:21+00:00,8.2556190490723,2,versionA_stim.csv,READVersionB.csv,"Read Version B","Dissertation, read only version B",TURN,FLIP,Study2,B,116,166,Study,8,8,,Study/JOL,"Study Phase",8002,,,-1,-1,,,,0.975
w870202,7wexdmlj6i,Nick_Dissertation_EX1_EP,1,82,2021-11-25T02:39:29+00:00,8.269711971283,2,versionA_stim.csv,READVersionB.csv,"Read Version B","Dissertation, read only version B",NAME,HATE,Study2,U,167,173,Study,8,8,,Study/JOL,"Study Phase",8002,,,-1,-1,,,,1
w870202,7wexdmlj6i,Nick_Dissertation_EX1_EP,1,83,2021-11-25T02:39:38+00:00,8.2519888877869,2,versionA_stim.csv,READVersionB.csv,"Read Version B","Dissertation, read only version B",MAZE,ELECTION,Study2,U,159,148,Study,8,8,,Study/JOL,"Study Phase",8001,,,-1,-1,,,,1
w870202,7wexdmlj6i,Nick_Dissertation_EX1_EP,1,84,2021-11-25T02:39:46+00:00,8.2649881839752,2,versionA_stim.csv,READVersionB.csv,"Read Version B","Dissertation, read only version B",SHOELACE,TIE,Study2,F,99,104,Study,8,8,,Study/JOL,"Study Phase",8002,,,-1,-1,,,,1
w870202,7wexdmlj6i,Nick_Dissertation_EX1_EP,1,85,2021-11-25T02:39:54+00:00,8.2455458641052,2,versionA_stim.csv,READVersionB.csv,"Read Version B","Dissertation, read only version B",PLANE,AIRCRAFT,Study2,B,129,161,Study,8,8,,Study/JOL,"Study Phase",8002,,,-1,-1,,,,1
w870202,7wexdmlj6i,Nick_Dissertation_EX1_EP,1,86,2021-11-25T02:40:02+00:00,8.2781219482422,2,versionA_stim.csv,READVersionB.csv,"Read Version B","Dissertation, read only version B",PHONE,COMMUNICATION,Study2,S,149,121,Study,8,8,,Study/JOL,"Study Phase",8002,,,-1,-1,,,,1
w870202,7wexdmlj6i,Nick_Dissertation_EX1_EP,1,87,2021-11-25T02:40:11+00:00,8.2554571628571,2,versionA_stim.csv,READVersionB.csv,"Read Version B","Dissertation, read only version B",RIGHTS,EQUAL,Study2,S,137,111,Study,8,8,,Study/JOL,"Study Phase",8002,,,-1,-1,,,,1
w870202,7wexdmlj6i,Nick_Dissertation_EX1_EP,1,88,2021-11-25T02:40:19+00:00,8.2444548606873,2,versionA_stim.csv,READVersionB.csv,"Read Version B","Dissertation, read only version B",CAKE,CLOTHES,Study2,U,166,174,Study,8,8,,Study/JOL,"Study Phase",8002,,,-1,-1,,,,1
w870202,7wexdmlj6i,Nick_Dissertation_EX1_EP,1,89,2021-11-25T02:40:27+00:00,8.2526760101318,2,versionA_stim.csv,READVersionB.csv,"Read Version B","Dissertation, read only version B",DAYS,WEAKS,BUFFER4,Buffer,176,179,Study,8,8,,Study/JOL,BUFFER2,8002,,,-1,-1,,,,1
w870202,7wexdmlj6i,Nick_Dissertation_EX1_EP,1,90,2021-11-25T02:40:36+00:00,8.7277619838715,2,versionA_stim.csv,READVersionB.csv,"Read Version B","Dissertation, read only version B",OCTOBER,SPOOKY,BUFFER4,Buffer,180,177,Study,8,8,,Study/JOL,BUFFER2,8424,,,-1,-1,,,,0.947
w870202,7wexdmlj6i,Nick_Dissertation_EX1_EP,1,91,2021-11-25T02:40:45+00:00,9.0002031326294,2,versionA_stim.csv,READVersionB.csv,"Read Version B","Dissertation, read only version B",MONTH,YEAR,BUFFER4,Buffer,177,180,Study,8,8,,Study/JOL,BUFFER2,8692,,,-1,-1,,,,0
w870202,7wexdmlj6i,Nick_Dissertation_EX1_EP,1,92,2021-11-25T02:40:54+00:00,8.965852022171,2,versionA_stim.csv,READVersionB.csv,"Read Version B","Dissertation, read only version B",SPRING,MARCH,BUFFER4,Buffer,179,181,Study,8,8,,Study/JOL,BUFFER2,8709,,,-1,-1,,,,0
w870202,7wexdmlj6i,Nick_Dissertation_EX1_EP,1,93,2021-11-25T02:41:03+00:00,8.9943189620972,2,versionA_stim.csv,READVersionB.csv,"Read Version B","Dissertation, read only version B",TOOL,SHED,BUFFER4,Buffer,178,178,Study,8,8,,Study/JOL,BUFFER2,8740,,,-1,-1,,,,0
w870202,7wexdmlj6i,Nick_Dissertation_EX1_EP,1,94,2021-11-25T02:41:07+00:00,4.0795760154724,2,versionA_stim.csv,READVersionB.csv,"Read Version B","Dissertation, read only version B",,,,,,0,Instruct,User,-,"You have completed this section. Please press Enter.",Filler_Instruction,Instruct2,3923,,,-1,-1,,,,0.692
w870202,7wexdmlj6i,Nick_Dissertation_EX1_EP,1,95,2021-11-25T02:43:07+00:00,120.27059984207,2,versionA_stim.csv,READVersionB.csv,"Read Version B","Dissertation, read only version B",,,,,,0,FreeRecall,120,120,"Please list the 50 US states in alphabetical order. The task will automatically advance to the next screen after two minutes.",,Filler1,120002,"alabama, Alaska. Arizona Arkansas california colorado Connecticut Delaware Florida Georgia Hawaii Idaho Illinois indiana iowa kansas kentucky louisana maine maryland massachutes Michigan Minnesota Mississippi mousorri mo",0,12015,119904,0,0,,1
w870202,7wexdmlj6i,Nick_Dissertation_EX1_EP,1,96,2021-11-25T02:43:32+00:00,24.962514162064,2,versionA_stim.csv,READVersionB.csv,"Read Version B","Dissertation, read only version B",,,,,,0,Instruct,-,10,"You will now be presented with the first word from each of the previously studied item pairs. Please type the missing word. If you do not know the word, you may guess or press Enter to skip forward to the next pair.",,Instruct3,24717,,,-1,-1,,,,1
w870202,7wexdmlj6i,Nick_Dissertation_EX1_EP,1,97,2021-11-25T02:43:41+00:00,8.5142168998718,2,versionA_stim.csv,READVersionB.csv,"Read Version B","Dissertation, read only version B",GLASS,BREAKABLE,Study2,B,127,136,Test,User,-,,Recall,Recall1,8272,,0,-1,-1,0,0,,1
w870202,7wexdmlj6i,Nick_Dissertation_EX1_EP,1,98,2021-11-25T02:43:44+00:00,3.226086139679,2,versionA_stim.csv,READVersionB.csv,"Read Version B","Dissertation, read only version B",FURRY,DOG,Study2,F,102,144,Test,User,-,,Recall,Recall1,3074,dog,100,2424,2832,1,1,,1
w870202,7wexdmlj6i,Nick_Dissertation_EX1_EP,1,99,2021-11-25T02:43:53+00:00,9.0122768878937,2,versionA_stim.csv,READVersionB.csv,"Read Version B","Dissertation, read only version B",LISTEN,FICTION,Study2,U,164,141,Test,User,-,,Recall,Recall1,8740,fiction,100,7327,8365,1,1,,1
w870202,7wexdmlj6i,Nick_Dissertation_EX1_EP,1,100,2021-11-25T02:44:01+00:00,8.5100190639496,2,versionA_stim.csv,READVersionB.csv,"Read Version B","Dissertation, read only version B",FLEA,TICK,Study2,S,151,101,Test,User,-,,Recall,Recall1,8226,,0,-1,-1,0,0,,1
w870202,7wexdmlj6i,Nick_Dissertation_EX1_EP,1,101,2021-11-25T02:44:22+00:00,20.621438980103,2,versionA_stim.csv,READVersionB.csv,"Read Version B","Dissertation, read only version B",INCENSE,SMELL,Study2,F,110,139,Test,User,-,,Recall,Recall1,20372,smell,100,17898,20182,1,1,,1
w870202,7wexdmlj6i,Nick_Dissertation_EX1_EP,1,102,2021-11-25T02:44:35+00:00,13.30068397522,2,versionA_stim.csv,READVersionB.csv,"Read Version B","Dissertation, read only version B",ALONE,LONELY,Study2,S,145,135,Test,User,-,,Recall,Recall1,12980,,0,-1,-1,0,0,,1
w870202,7wexdmlj6i,Nick_Dissertation_EX1_EP,1,103,2021-11-25T02:44:50+00:00,14.889287948608,2,versionA_stim.csv,READVersionB.csv,"Read Version B","Dissertation, read only version B",NAME,HATE,Study2,U,167,173,Test,User,-,,Recall,Recall1,14563,,0,-1,-1,0,0,,1
w870202,7wexdmlj6i,Nick_Dissertation_EX1_EP,1,104,2021-11-25T02:45:04+00:00,13.460908174515,2,versionA_stim.csv,READVersionB.csv,"Read Version B","Dissertation, read only version B",CLUE,GAME,Study2,F,97,108,Test,User,-,,Recall,Recall1,13107,clue,25,12465,12866,0,0,,1
w870202,7wexdmlj6i,Nick_Dissertation_EX1_EP,1,105,2021-11-25T02:45:09+00:00,5.428249835968,2,versionA_stim.csv,READVersionB.csv,"Read Version B","Dissertation, read only version B",RAZOR,SHAVE,Study2,S,136,145,Test,User,-,,Recall,Recall1,5192,shave,100,4157,4867,1,1,,1
w870202,7wexdmlj6i,Nick_Dissertation_EX1_EP,1,106,2021-11-25T02:45:13+00:00,4.2396950721741,2,versionA_stim.csv,READVersionB.csv,"Read Version B","Dissertation, read only version B",FEUD,FIGHT,Study2,F,113,150,Test,User,-,,Recall,Recall1,3993,fight,100,3064,3806,1,1,,1
w870202,7wexdmlj6i,Nick_Dissertation_EX1_EP,1,107,2021-11-25T02:45:26+00:00,12.931658983231,2,versionA_stim.csv,READVersionB.csv,"Read Version B","Dissertation, read only version B",DRIVER,CAR,Study2,F,106,118,Test,User,-,,Recall,Recall1,12681,car,100,11708,12287,1,1,,1
w870202,7wexdmlj6i,Nick_Dissertation_EX1_EP,1,108,2021-11-25T02:45:34+00:00,7.7340490818024,2,versionA_stim.csv,READVersionB.csv,"Read Version B","Dissertation, read only version B",FUZZY,BANG,Study2,U,168,152,Test,User,-,,Recall,Recall1,7455,bang,100,5768,6195,1,1,,1
w870202,7wexdmlj6i,Nick_Dissertation_EX1_EP,1,109,2021-11-25T02:45:39+00:00,5.4907288551331,2,versionA_stim.csv,READVersionB.csv,"Read Version B","Dissertation, read only version B",MOAT,CLEAR,Study2,U,169,167,Test,User,-,,Recall,Recall1,5222,boat,22.222222222222,3951,4984,0,0,,1
w870202,7wexdmlj6i,Nick_Dissertation_EX1_EP,1,110,2021-11-25T02:45:48+00:00,8.1607429981232,2,versionA_stim.csv,READVersionB.csv,"Read Version B","Dissertation, read only version B",PHONE,COMMUNICATION,Study2,S,149,121,Test,User,-,,Recall,Recall1,7840,call,23.529411764706,6904,7501,0,0,,1
w870202,7wexdmlj6i,Nick_Dissertation_EX1_EP,1,111,2021-11-25T02:45:53+00:00,5.7193760871887,2,versionA_stim.csv,READVersionB.csv,"Read Version B","Dissertation, read only version B",JUSTICE,MAROON,Study2,U,156,155,Test,User,-,,Recall,Recall1,5408,maroon,100,3702,5115,1,1,,1
w870202,7wexdmlj6i,Nick_Dissertation_EX1_EP,1,112,2021-11-25T02:45:57+00:00,3.4497060775757,2,versionA_stim.csv,READVersionB.csv,"Read Version B","Dissertation, read only version B",LOAN,SIGN,Study2,U,171,103,Test,User,-,,Recall,Recall1,3185,gign,75,2432,2900,0,1,,1
w870202,7wexdmlj6i,Nick_Dissertation_EX1_EP,1,113,2021-11-25T02:46:08+00:00,11.731076955795,2,versionA_stim.csv,READVersionB.csv,"Read Version B","Dissertation, read only version B",AFFECTION,LOVE,Study2,F,115,127,Test,User,-,,Recall,Recall1,11484,love,100,10077,11069,1,1,,1
w870202,7wexdmlj6i,Nick_Dissertation_EX1_EP,1,114,2021-11-25T02:46:15+00:00,6.5689270496368,2,versionA_stim.csv,READVersionB.csv,"Read Version B","Dissertation, read only version B",CAKE,CLOTHES,Study2,U,166,174,Test,User,-,,Recall,Recall1,6319,,0,-1,-1,0,0,,1
w870202,7wexdmlj6i,Nick_Dissertation_EX1_EP,1,115,2021-11-25T02:46:19+00:00,3.8871648311615,2,versionA_stim.csv,READVersionB.csv,"Read Version B","Dissertation, read only version B",SHOELACE,TIE,Study2,F,99,104,Test,User,-,,Recall,Recall1,3736,tie,100,3124,3385,1,1,,1
w870202,7wexdmlj6i,Nick_Dissertation_EX1_EP,1,116,2021-11-25T02:46:27+00:00,7.7920391559601,2,versionA_stim.csv,READVersionB.csv,"Read Version B","Dissertation, read only version B",LEASE,TOIL,Study2,U,170,169,Test,User,-,,Recall,Recall1,7571,,0,-1,-1,0,0,,1
w870202,7wexdmlj6i,Nick_Dissertation_EX1_EP,1,117,2021-11-25T02:46:40+00:00,13.07493686676,2,versionA_stim.csv,READVersionB.csv,"Read Version B","Dissertation, read only version B",VEHICLE,CHARM,Study2,U,160,126,Test,User,-,,Recall,Recall1,12811,charm,100,11797,12404,1,1,,1
w870202,7wexdmlj6i,Nick_Dissertation_EX1_EP,1,118,2021-11-25T02:46:45+00:00,5.1259350776672,2,versionA_stim.csv,READVersionB.csv,"Read Version B","Dissertation, read only version B",SHEARS,SCISSORS,Study2,F,112,137,Test,User,-,,Recall,Recall1,4787,scissors,100,2114,4521,1,1,,1
w870202,7wexdmlj6i,Nick_Dissertation_EX1_EP,1,119,2021-11-25T02:46:54+00:00,9.5129709243774,2,versionA_stim.csv,READVersionB.csv,"Read Version B","Dissertation, read only version B",MIRROR,CHILDREN,Study2,U,174,106,Test,User,-,,Recall,Recall1,9269,,0,-1,-1,0,0,,1
w870202,7wexdmlj6i,Nick_Dissertation_EX1_EP,1,120,2021-11-25T02:47:01+00:00,6.7974820137024,2,versionA_stim.csv,READVersionB.csv,"Read Version B","Dissertation, read only version B",WATER,DRINK,Study2,S,143,123,Test,User,-,,Recall,Recall1,6557,,0,-1,-1,0,0,,1
w870202,7wexdmlj6i,Nick_Dissertation_EX1_EP,1,121,2021-11-25T02:47:06+00:00,4.9263961315155,2,versionA_stim.csv,READVersionB.csv,"Read Version B","Dissertation, read only version B",WRIST,BRACELET,Study2,S,140,159,Test,User,-,,Recall,Recall1,4626,braclet,93.333333333333,1733,4173,0,1,,1
w870202,7wexdmlj6i,Nick_Dissertation_EX1_EP,1,122,2021-11-25T02:47:14+00:00,7.4487829208374,2,versionA_stim.csv,READVersionB.csv,"Read Version B","Dissertation, read only version B",CAR,WINDSHIELD,Study2,B,117,107,Test,User,-,,Recall,Recall1,7220,,0,-1,-1,0,0,,1
w870202,7wexdmlj6i,Nick_Dissertation_EX1_EP,1,123,2021-11-25T02:47:24+00:00,10.103708982468,2,versionA_stim.csv,READVersionB.csv,"Read Version B","Dissertation, read only version B",DEAD,COFFIN,Study2,B,128,160,Test,User,-,,Recall,Recall1,9866,,0,-1,-1,0,0,,1
w870202,7wexdmlj6i,Nick_Dissertation_EX1_EP,1,124,2021-11-25T02:47:30+00:00,6.1653580665588,2,versionA_stim.csv,READVersionB.csv,"Read Version B","Dissertation, read only version B",DINE,EAT,Study2,F,111,176,Test,User,-,,Recall,Recall1,5920,eat,100,5184,5553,1,1,,1
w870202,7wexdmlj6i,Nick_Dissertation_EX1_EP,1,125,2021-11-25T02:47:35+00:00,5.4654278755188,2,versionA_stim.csv,READVersionB.csv,"Read Version B","Dissertation, read only version B",KEYS,JOKE,Study2,U,165,138,Test,User,-,,Recall,Recall1,5220,joke,100,3559,4609,1,1,,1
w870202,7wexdmlj6i,Nick_Dissertation_EX1_EP,1,126,2021-11-25T02:47:45+00:00,9.9789841175079,2,versionA_stim.csv,READVersionB.csv,"Read Version B","Dissertation, read only version B",GONE,AWAY,Study2,S,142,115,Test,User,-,,Recall,Recall1,9695,away,100,7410,9452,1,1,,1
w870202,7wexdmlj6i,Nick_Dissertation_EX1_EP,1,127,2021-11-25T02:48:08+00:00,23.047613859177,2,versionA_stim.csv,READVersionB.csv,"Read Version B","Dissertation, read only version B",THREAD,THIMBLE,Study2,B,121,109,Test,User,-,,Recall,Recall1,22790,thimble,100,19148,22498,1,1,,1
w870202,7wexdmlj6i,Nick_Dissertation_EX1_EP,1,128,2021-11-25T02:48:21+00:00,12.810732126236,2,versionA_stim.csv,READVersionB.csv,"Read Version B","Dissertation, read only version B",SLEEP,NAP,Study2,B,134,140,Test,User,-,,Recall,Recall1,12474,,0,-1,-1,0,0,,1
w870202,7wexdmlj6i,Nick_Dissertation_EX1_EP,1,129,2021-11-25T02:48:36+00:00,14.595368862152,2,versionA_stim.csv,READVersionB.csv,"Read Version B","Dissertation, read only version B",TRUTH,LIE,Study2,S,148,134,Test,User,-,,Recall,Recall1,14301,lie,100,13617,14059,1,1,,1
w870202,7wexdmlj6i,Nick_Dissertation_EX1_EP,1,130,2021-11-25T02:48:39+00:00,2.96328997612,2,versionA_stim.csv,READVersionB.csv,"Read Version B","Dissertation, read only version B",CHOP,CUT,Study2,F,107,110,Test,User,-,,Recall,Recall1,2803,cut,100,2185,2636,1,1,,1
w870202,7wexdmlj6i,Nick_Dissertation_EX1_EP,1,131,2021-11-25T02:48:44+00:00,4.9471490383148,2,versionA_stim.csv,READVersionB.csv,"Read Version B","Dissertation, read only version B",EXTENSION,LONG,Study2,F,96,105,Test,User,-,,Recall,Recall1,4693,,0,-1,-1,0,0,,1
w870202,7wexdmlj6i,Nick_Dissertation_EX1_EP,1,132,2021-11-25T02:48:48+00:00,4.3214890956879,2,versionA_stim.csv,READVersionB.csv,"Read Version B","Dissertation, read only version B",BEST,FAVORITE,Study2,B,125,156,Test,User,-,,Recall,Recall1,4076,worst,46.153846153846,3155,3884,0,0,,1
w870202,7wexdmlj6i,Nick_Dissertation_EX1_EP,1,133,2021-11-25T02:48:50+00:00,2.1197040081024,2,versionA_stim.csv,READVersionB.csv,"Read Version B","Dissertation, read only version B",MULE,DONKEY,Study2,F,108,147,Test,User,-,,Recall,Recall1,1967,donkey,100,993,1761,1,1,,1
w870202,7wexdmlj6i,Nick_Dissertation_EX1_EP,1,134,2021-11-25T02:48:55+00:00,4.3617670536041,2,versionA_stim.csv,READVersionB.csv,"Read Version B","Dissertation, read only version B",FIGHT,BRAWL,Study2,B,135,165,Test,User,-,,Recall,Recall1,4108,brawl,100,2958,3809,1,1,,1
w870202,7wexdmlj6i,Nick_Dissertation_EX1_EP,1,135,2021-11-25T02:48:58+00:00,3.9765899181366,2,versionA_stim.csv,READVersionB.csv,"Read Version B","Dissertation, read only version B",EARTH,GROUND,Study2,S,144,117,Test,User,-,,Recall,Recall1,3831,moon,40,3058,3611,0,0,,1
w870202,7wexdmlj6i,Nick_Dissertation_EX1_EP,1,136,2021-11-25T02:49:00+00:00,1.2096309661865,2,versionA_stim.csv,READVersionB.csv,"Read Version B","Dissertation, read only version B",MAZE,ELECTION,Study2,U,159,148,Test,User,-,,Recall,Recall1,1079,,0,-1,-1,0,0,,1
w870202,7wexdmlj6i,Nick_Dissertation_EX1_EP,1,137,2021-11-25T02:49:00+00:00,0.77591490745544,2,versionA_stim.csv,READVersionB.csv,"Read Version B","Dissertation, read only version B",BAD,VILLAIN,Study2,B,118,100,Test,User,-,,Recall,Recall1,644,,0,-1,-1,0,0,,1
w870202,7wexdmlj6i,Nick_Dissertation_EX1_EP,1,138,2021-11-25T02:49:05+00:00,4.5413830280304,2,versionA_stim.csv,READVersionB.csv,"Read Version B","Dissertation, read only version B",CANDLE,WAX,Study2,S,139,142,Test,User,-,,Recall,Recall1,4310,,0,-1,-1,0,0,,1
w870202,7wexdmlj6i,Nick_Dissertation_EX1_EP,1,139,2021-11-25T02:49:13+00:00,8.2998731136322,2,versionA_stim.csv,READVersionB.csv,"Read Version B","Dissertation, read only version B",BOTH,OUNCE,Study2,U,172,131,Test,User,-,,Recall,Recall1,8023,ounce,100,6853,7742,1,1,,1
w870202,7wexdmlj6i,Nick_Dissertation_EX1_EP,1,140,2021-11-25T02:49:17+00:00,3.3586139678955,2,versionA_stim.csv,READVersionB.csv,"Read Version B","Dissertation, read only version B",STAR,ACTRESS,Study2,B,120,143,Test,User,-,,Recall,Recall1,3167,actress,100,1682,2926,1,1,,1
w870202,7wexdmlj6i,Nick_Dissertation_EX1_EP,1,141,2021-11-25T02:49:19+00:00,2.1607069969177,2,versionA_stim.csv,READVersionB.csv,"Read Version B","Dissertation, read only version B",BASEBALL,LEAGUE,Study2,B,131,146,Test,User,-,,Recall,Recall1,2014,,0,-1,-1,0,0,,1
w870202,7wexdmlj6i,Nick_Dissertation_EX1_EP,1,142,2021-11-25T02:49:27+00:00,8.2376759052277,2,versionA_stim.csv,READVersionB.csv,"Read Version B","Dissertation, read only version B",Shell,SHAKE,Study2,U,163,125,Test,User,-,,Recall,Recall1,7979,,0,-1,-1,0,0,,1
w870202,7wexdmlj6i,Nick_Dissertation_EX1_EP,1,143,2021-11-25T02:49:46+00:00,18.522696018219,2,versionA_stim.csv,READVersionB.csv,"Read Version B","Dissertation, read only version B",SCALP,HEAD,Study2,F,105,129,Test,User,-,,Recall,Recall1,18271,head,100,17453,17933,1,1,,1
w870202,7wexdmlj6i,Nick_Dissertation_EX1_EP,1,144,2021-11-25T02:49:56+00:00,10.155435085297,2,versionA_stim.csv,READVersionB.csv,"Read Version B","Dissertation, read only version B",SUN,TAN,Study2,S,155,170,Test,User,-,,Recall,Recall1,9884,rays,28.571428571429,8945,9506,0,0,,1
w870202,7wexdmlj6i,Nick_Dissertation_EX1_EP,1,145,2021-11-25T02:50:03+00:00,7.3823530673981,2,versionA_stim.csv,READVersionB.csv,"Read Version B","Dissertation, read only version B",ELEMENT,CARBON,Study2,S,141,113,Test,User,-,,Recall,Recall1,7089,carbon,100,5632,6645,1,1,,1
w870202,7wexdmlj6i,Nick_Dissertation_EX1_EP,1,146,2021-11-25T02:50:11+00:00,8.1117899417877,2,versionA_stim.csv,READVersionB.csv,"Read Version B","Dissertation, read only version B",ADJOURN,END,Study2,F,101,172,Test,User,-,,Recall,Recall1,7835,,0,-1,-1,0,0,,1
w870202,7wexdmlj6i,Nick_Dissertation_EX1_EP,1,147,2021-11-25T02:50:14+00:00,2.6731309890747,2,versionA_stim.csv,READVersionB.csv,"Read Version B","Dissertation, read only version B",DOCUMENT,PAPER,Study2,F,109,175,Test,User,-,,Recall,Recall1,2524,,0,-1,-1,0,0,,1
w870202,7wexdmlj6i,Nick_Dissertation_EX1_EP,1,148,2021-11-25T02:50:24+00:00,9.9281439781189,2,versionA_stim.csv,READVersionB.csv,"Read Version B","Dissertation, read only version B",EVEN,REVENGE,Study2,B,122,153,Test,User,-,,Recall,Recall1,9614,steven,61.538461538462,5322,9245,0,0,,1
w870202,7wexdmlj6i,Nick_Dissertation_EX1_EP,1,149,2021-11-25T02:50:38+00:00,14.071707010269,2,versionA_stim.csv,READVersionB.csv,"Read Version B","Dissertation, read only version B",TANTRUM,TEMPER,Study2,S,154,122,Test,User,-,,Recall,Recall1,13712,temper,100,5970,13057,1,1,,1
w870202,7wexdmlj6i,Nick_Dissertation_EX1_EP,1,150,2021-11-25T02:50:45+00:00,7.34246301651,2,versionA_stim.csv,READVersionB.csv,"Read Version B","Dissertation, read only version B",SAFETY,SEATBELT,Study2,S,147,102,Test,User,-,,Recall,Recall1,7031,seatbelt,100,5110,6739,1,1,,1
w870202,7wexdmlj6i,Nick_Dissertation_EX1_EP,1,151,2021-11-25T02:50:54+00:00,8.8280260562897,2,versionA_stim.csv,READVersionB.csv,"Read Version B","Dissertation, read only version B",FRUIT,STRAWBERRY,Study2,B,124,162,Test,User,-,,Recall,Recall1,8429,strawberry,100,5314,8031,1,1,,1
w870202,7wexdmlj6i,Nick_Dissertation_EX1_EP,1,152,2021-11-25T02:50:58+00:00,3.650260925293,2,versionA_stim.csv,READVersionB.csv,"Read Version B","Dissertation, read only version B",RIGHTS,EQUAL,Study2,S,137,111,Test,User,-,,Recall,Recall1,3499,,0,-1,-1,0,0,,1
w870202,7wexdmlj6i,Nick_Dissertation_EX1_EP,1,153,2021-11-25T02:51:09+00:00,11.252945899963,2,versionA_stim.csv,READVersionB.csv,"Read Version B","Dissertation, read only version B",BIRD,PENGUIN,Study2,B,119,149,Test,User,-,,Recall,Recall1,11020,,0,-1,-1,0,0,,1
w870202,7wexdmlj6i,Nick_Dissertation_EX1_EP,1,154,2021-11-25T02:51:17+00:00,7.8337161540985,2,versionA_stim.csv,READVersionB.csv,"Read Version B","Dissertation, read only version B",CHILL,COLD,Study2,F,114,98,Test,User,-,,Recall,Recall1,7531,,0,-1,-1,0,0,,1
w870202,7wexdmlj6i,Nick_Dissertation_EX1_EP,1,155,2021-11-25T02:51:19+00:00,2.350604057312,2,versionA_stim.csv,READVersionB.csv,"Read Version B","Dissertation, read only version B",GIVE,STEAK,Study2,U,158,128,Test,User,-,,Recall,Recall1,2168,take,66.666666666667,1335,1875,0,0,,1
w870202,7wexdmlj6i,Nick_Dissertation_EX1_EP,1,156,2021-11-25T02:51:25+00:00,5.8230719566345,2,versionA_stim.csv,READVersionB.csv,"Read Version B","Dissertation, read only version B",CHERRY,RED,Study2,F,104,171,Test,User,-,,Recall,Recall1,5563,red,100,4957,5330,1,1,,1
w870202,7wexdmlj6i,Nick_Dissertation_EX1_EP,1,157,2021-11-25T02:51:27+00:00,1.6269299983978,2,versionA_stim.csv,READVersionB.csv,"Read Version B","Dissertation, read only version B",CRACKLE,ABLE,Study2,U,162,124,Test,User,-,,Recall,Recall1,1478,,0,-1,-1,0,0,,1
w870202,7wexdmlj6i,Nick_Dissertation_EX1_EP,1,158,2021-11-25T02:51:28+00:00,1.5628569126129,2,versionA_stim.csv,READVersionB.csv,"Read Version B","Dissertation, read only version B",OWN,HAVE,Study2,S,153,151,Test,User,-,,Recall,Recall1,1408,,0,-1,-1,0,0,,1
w870202,7wexdmlj6i,Nick_Dissertation_EX1_EP,1,159,2021-11-25T02:51:30+00:00,1.784019947052,2,versionA_stim.csv,READVersionB.csv,"Read Version B","Dissertation, read only version B",DETECTIVE,MYSTERY,Study2,F,100,163,Test,User,-,,Recall,Recall1,1645,,0,-1,-1,0,0,,1
w870202,7wexdmlj6i,Nick_Dissertation_EX1_EP,1,160,2021-11-25T02:51:32+00:00,1.8450050354004,2,versionA_stim.csv,READVersionB.csv,"Read Version B","Dissertation, read only version B",MASON,JAR,Study2,S,138,116,Test,User,-,,Recall,Recall1,1703,jar,100,1232,1520,1,1,,1
w870202,7wexdmlj6i,Nick_Dissertation_EX1_EP,1,161,2021-11-25T02:51:45+00:00,12.810515165329,2,versionA_stim.csv,READVersionB.csv,"Read Version B","Dissertation, read only version B",HONEST,TRUTHFUL,Study2,B,133,168,Test,User,-,,Recall,Recall1,12564,truthful,100,10729,12153,1,1,,1
w870202,7wexdmlj6i,Nick_Dissertation_EX1_EP,1,162,2021-11-25T02:51:52+00:00,7.2272248268127,2,versionA_stim.csv,READVersionB.csv,"Read Version B","Dissertation, read only version B",MEAT,OBTAIN,Study2,U,161,157,Test,User,-,,Recall,Recall1,6980,,0,-1,-1,0,0,,1
w870202,7wexdmlj6i,Nick_Dissertation_EX1_EP,1,163,2021-11-25T02:51:56+00:00,4.0711369514465,2,versionA_stim.csv,READVersionB.csv,"Read Version B","Dissertation, read only version B",DRY,WET,Study2,S,146,120,Test,User,-,,Recall,Recall1,3920,wet,100,2434,3703,1,1,,1
w870202,7wexdmlj6i,Nick_Dissertation_EX1_EP,1,164,2021-11-25T02:52:02+00:00,6.0087480545044,2,versionA_stim.csv,READVersionB.csv,"Read Version B","Dissertation, read only version B",FISH,SARDINE,Study2,B,130,158,Test,User,-,,Recall,Recall1,5734,sardine,100,4528,5525,1,1,,1
w870202,7wexdmlj6i,Nick_Dissertation_EX1_EP,1,165,2021-11-25T02:52:03+00:00,1.0919690132141,2,versionA_stim.csv,READVersionB.csv,"Read Version B","Dissertation, read only version B",POP,BALLOON,Study2,B,123,114,Test,User,-,,Recall,Recall1,873,,0,-1,-1,0,0,,1
w870202,7wexdmlj6i,Nick_Dissertation_EX1_EP,1,166,2021-11-25T02:52:04+00:00,0.6100959777832,2,versionA_stim.csv,READVersionB.csv,"Read Version B","Dissertation, read only version B",TEMPERATURE,Morning,Study2,U,173,133,Test,User,-,,Recall,Recall1,454,,0,-1,-1,0,0,,1
w870202,7wexdmlj6i,Nick_Dissertation_EX1_EP,1,167,2021-11-25T02:52:08+00:00,4.0891799926758,2,versionA_stim.csv,READVersionB.csv,"Read Version B","Dissertation, read only version B",LITTER,TRASH,Study2,F,103,112,Test,User,-,,Recall,Recall1,3949,trash,100,2591,3509,1,1,,1
w870202,7wexdmlj6i,Nick_Dissertation_EX1_EP,1,168,2021-11-25T02:52:12+00:00,3.9173550605774,2,versionA_stim.csv,READVersionB.csv,"Read Version B","Dissertation, read only version B",STRETCH,CLOTH,Study2,U,157,119,Test,User,-,,Recall,Recall1,3782,,0,-1,-1,0,0,,1
w870202,7wexdmlj6i,Nick_Dissertation_EX1_EP,1,169,2021-11-25T02:52:13+00:00,0.98766708374023,2,versionA_stim.csv,READVersionB.csv,"Read Version B","Dissertation, read only version B",MAIN,SCAR,Study2,U,175,154,Test,User,-,,Recall,Recall1,848,,0,-1,-1,0,0,,1
w870202,7wexdmlj6i,Nick_Dissertation_EX1_EP,1,170,2021-11-25T02:52:13+00:00,0.32820796966553,2,versionA_stim.csv,READVersionB.csv,"Read Version B","Dissertation, read only version B",TURN,FLIP,Study2,B,116,166,Test,User,-,,Recall,Recall1,188,,0,-1,-1,0,0,,1
w870202,7wexdmlj6i,Nick_Dissertation_EX1_EP,1,171,2021-11-25T02:52:13+00:00,0.49358487129211,2,versionA_stim.csv,READVersionB.csv,"Read Version B","Dissertation, read only version B",MONEY,BANKER,Study2,B,132,97,Test,User,-,,Recall,Recall1,369,,0,-1,-1,0,0,,1
w870202,7wexdmlj6i,Nick_Dissertation_EX1_EP,1,172,2021-11-25T02:52:14+00:00,0.72324013710022,2,versionA_stim.csv,READVersionB.csv,"Read Version B","Dissertation, read only version B",LOUD,NOISE,Study2,S,152,164,Test,User,-,,Recall,Recall1,589,,0,-1,-1,0,0,,1
w870202,7wexdmlj6i,Nick_Dissertation_EX1_EP,1,173,2021-11-25T02:52:17+00:00,2.3731589317322,2,versionA_stim.csv,READVersionB.csv,"Read Version B","Dissertation, read only version B",PLANE,AIRCRAFT,Study2,B,129,161,Test,User,-,,Recall,Recall1,2243,crash,46.153846153846,1233,1968,0,0,,1
w870202,7wexdmlj6i,Nick_Dissertation_EX1_EP,1,174,2021-11-25T02:52:18+00:00,0.97065901756287,2,versionA_stim.csv,READVersionB.csv,"Read Version B","Dissertation, read only version B",ROD,REEL,Study2,S,150,130,Test,User,-,,Recall,Recall1,841,,0,-1,-1,0,0,,1
w870202,7wexdmlj6i,Nick_Dissertation_EX1_EP,1,175,2021-11-25T02:52:20+00:00,2.7783389091492,2,versionA_stim.csv,READVersionB.csv,"Read Version B","Dissertation, read only version B",CACTUS,PLANT,Study2,F,98,99,Test,User,-,,Recall,Recall1,2630,plant,100,1311,2456,1,1,,1
w870202,7wexdmlj6i,Nick_Dissertation_EX1_EP,1,176,2021-11-25T02:52:26+00:00,5.4659101963043,2,versionA_stim.csv,READVersionB.csv,"Read Version B","Dissertation, read only version B",CAT,PANTHER,Study2,B,126,132,Test,User,-,,Recall,Recall1,5226,dog,0,3353,5009,0,0,,1
w870202,7wexdmlj6i,Nick_Dissertation_EX1_EP,1,177,2021-11-25T02:52:37+00:00,11.322580814362,2,versionA_stim.csv,READVersionB.csv,"Read Version B","Dissertation, read only version B",,,,,,0,Instruct,-,10,"You will now be presented with a new set of word pairs. Please study each pair. Remember that your memory will be tested! When finished, press Enter to move to the next pair.",Initial_Instruct,Instruct4,11087,,,-1,-1,,,,1
w870202,7wexdmlj6i,Nick_Dissertation_EX1_EP,1,178,2021-11-25T02:52:41+00:00,4.0554821491241,2,versionA_stim.csv,READVersionB.csv,"Read Version B","Dissertation, read only version B",,,,,,0,Instruct,User,-,"Each word will be displayed on the computer screen for 8 seconds. The screen will automatically move to the next pair when time is up. Press Enter when you are ready to begin.",,Instruct11,3907,,,-1,-1,,,,1
w870202,7wexdmlj6i,Nick_Dissertation_EX1_EP,1,179,2021-11-25T02:52:49+00:00,8.2304198741913,2,versionA_stim.csv,READVersionB.csv,"Read Version B","Dissertation, read only version B",TREES,GREEN,BUFFER1,Buffer,1,3,Study,8,8,,Study/JOL,BUFFER3,8002,,,-1,-1,,,,1
w870202,7wexdmlj6i,Nick_Dissertation_EX1_EP,1,180,2021-11-25T02:52:58+00:00,8.3365111351013,2,versionA_stim.csv,READVersionB.csv,"Read Version B","Dissertation, read only version B",PEANUT,BUTTER,BUFFER1,Buffer,3,2,Study,8,8,,Study/JOL,BUFFER3,8002,,,-1,-1,,,,0.903
w870202,7wexdmlj6i,Nick_Dissertation_EX1_EP,1,181,2021-11-25T02:53:09+00:00,11.067107915878,2,versionA_stim.csv,READVersionB.csv,"Read Version B","Dissertation, read only version B",BASEBALL,CATCHER,BUFFER1,Buffer,2,6,Study,8,8,,Study/JOL,BUFFER3,10799,,,-1,-1,,,,0
w870202,7wexdmlj6i,Nick_Dissertation_EX1_EP,1,182,2021-11-25T02:53:17+00:00,8.3112959861755,2,versionA_stim.csv,READVersionB.csv,"Read Version B","Dissertation, read only version B",SCARE,HIDE,BUFFER1,Buffer,4,5,Study,8,8,,Study/JOL,BUFFER3,8002,,,-1,-1,,,,0.333
w870202,7wexdmlj6i,Nick_Dissertation_EX1_EP,1,183,2021-11-25T02:53:25+00:00,8.2690999507904,2,versionA_stim.csv,READVersionB.csv,"Read Version B","Dissertation, read only version B",SPACE,JAM,BUFFER1,Buffer,5,4,Study,8,8,,Study/JOL,BUFFER3,8006,,,-1,-1,,,,1
w870202,7wexdmlj6i,Nick_Dissertation_EX1_EP,1,184,2021-11-25T02:53:34+00:00,8.2501840591431,2,versionA_stim.csv,READVersionB.csv,"Read Version B","Dissertation, read only version B",GREAT,FANTASTIC,Study1,B,35,30,Study,8,8,,Study/JOL,"Study Phase2",8001,,,-1,-1,,,,1
w870202,7wexdmlj6i,Nick_Dissertation_EX1_EP,1,185,2021-11-25T02:53:42+00:00,8.2676401138306,2,versionA_stim.csv,READVersionB.csv,"Read Version B","Dissertation, read only version B",KEY,LATCH,Study1,B,36,21,Study,8,8,,Study/JOL,"Study Phase2",8002,,,-1,-1,,,,1
w870202,7wexdmlj6i,Nick_Dissertation_EX1_EP,1,186,2021-11-25T02:53:50+00:00,8.237518787384,2,versionA_stim.csv,READVersionB.csv,"Read Version B","Dissertation, read only version B",HUNGER,FAMINE,Study1,B,40,54,Study,8,8,,Study/JOL,"Study Phase2",8002,,,-1,-1,,,,1
w870202,7wexdmlj6i,Nick_Dissertation_EX1_EP,1,187,2021-11-25T02:53:58+00:00,8.3409721851349,2,versionA_stim.csv,READVersionB.csv,"Read Version B","Dissertation, read only version B",ARTERY,BRONZE,Study1,U,74,25,Study,8,8,,Study/JOL,"Study Phase2",8002,,,-1,-1,,,,1
w870202,7wexdmlj6i,Nick_Dissertation_EX1_EP,1,188,2021-11-25T02:54:07+00:00,8.2777128219604,2,versionA_stim.csv,READVersionB.csv,"Read Version B","Dissertation, read only version B",DELINQUENT,BAD,Study1,F,6,9,Study,8,8,,Study/JOL,"Study Phase2",8002,,,-1,-1,,,,1
w870202,7wexdmlj6i,Nick_Dissertation_EX1_EP,1,189,2021-11-25T02:54:15+00:00,8.3271360397339,2,versionA_stim.csv,READVersionB.csv,"Read Version B","Dissertation, read only version B",TUNA,FISH,Study1,F,25,79,Study,8,8,,Study/JOL,"Study Phase2",8002,,,-1,-1,,,,1
w870202,7wexdmlj6i,Nick_Dissertation_EX1_EP,1,190,2021-11-25T02:54:25+00:00,9.9589841365814,2,versionA_stim.csv,READVersionB.csv,"Read Version B","Dissertation, read only version B",DRINK,SIP,Study1,B,27,58,Study,8,8,,Study/JOL,"Study Phase2",9610,,,-1,-1,,,,0.667
w870202,7wexdmlj6i,Nick_Dissertation_EX1_EP,1,191,2021-11-25T02:54:35+00:00,9.7843549251556,2,versionA_stim.csv,READVersionB.csv,"Read Version B","Dissertation, read only version B",ROOT,PLANT,Study1,F,13,36,Study,8,8,,Study/JOL,"Study Phase2",9303,,,-1,-1,,,,0
w870202,7wexdmlj6i,Nick_Dissertation_EX1_EP,1,192,2021-11-25T02:54:44+00:00,9.5739140510559,2,versionA_stim.csv,READVersionB.csv,"Read Version B","Dissertation, read only version B",PUSHER,CLUTTER,Study1,U,66,38,Study,8,8,,Study/JOL,"Study Phase2",9282,,,-1,-1,,,,0
w870202,7wexdmlj6i,Nick_Dissertation_EX1_EP,1,193,2021-11-25T02:54:56+00:00,12.006496906281,2,versionA_stim.csv,READVersionB.csv,"Read Version B","Dissertation, read only version B",FIX,HAND,Study1,U,75,81,Study,8,8,,Study/JOL,"Study Phase2",11748,,,-1,-1,,,,0
w870202,7wexdmlj6i,Nick_Dissertation_EX1_EP,1,194,2021-11-25T02:55:06+00:00,9.1950130462646,2,versionA_stim.csv,READVersionB.csv,"Read Version B","Dissertation, read only version B",TAKE,SEIZE,Study1,B,29,23,Study,8,8,,Study/JOL,"Study Phase2",8928,,,-1,-1,,,,0
w870202,7wexdmlj6i,Nick_Dissertation_EX1_EP,1,195,2021-11-25T02:55:14+00:00,8.6281321048737,2,versionA_stim.csv,READVersionB.csv,"Read Version B","Dissertation, read only version B",BATHROOM,TOILET,Study1,S,58,41,Study,8,8,,Study/JOL,"Study Phase2",8340,,,-1,-1,,,,0
w870202,7wexdmlj6i,Nick_Dissertation_EX1_EP,1,196,2021-11-25T02:55:25+00:00,10.76998591423,2,versionA_stim.csv,READVersionB.csv,"Read Version B","Dissertation, read only version B",HAPPY,CAR,Study1,U,77,77,Study,8,8,,Study/JOL,"Study Phase2",10490,,,-1,-1,,,,0
w870202,7wexdmlj6i,Nick_Dissertation_EX1_EP,1,197,2021-11-25T02:58:15+00:00,169.90086293221,2,versionA_stim.csv,READVersionB.csv,"Read Version B","Dissertation, read only version B",HEIGHT,GROWTH,Study1,B,30,49,Study,8,8,,Study/JOL,"Study Phase2",169587,,,-1,-1,,,,0.143
w870202,7wexdmlj6i,Nick_Dissertation_EX1_EP,1,198,2021-11-25T02:58:26+00:00,11.112345933914,2,versionA_stim.csv,READVersionB.csv,"Read Version B","Dissertation, read only version B",HONEY,BEE,Study1,S,63,64,Study,8,8,,Study/JOL,"Study Phase2",8002,,,-1,-1,,,,1
w870202,7wexdmlj6i,Nick_Dissertation_EX1_EP,1,199,2021-11-25T02:58:35+00:00,9.0622651576996,2,versionA_stim.csv,READVersionB.csv,"Read Version B","Dissertation, read only version B",HOT,CHILI,Study1,B,37,53,Study,8,8,,Study/JOL,"Study Phase2",8001,,,-1,-1,,,,1
w870202,7wexdmlj6i,Nick_Dissertation_EX1_EP,1,200,2021-11-25T02:58:43+00:00,8.3575809001923,2,versionA_stim.csv,READVersionB.csv,"Read Version B","Dissertation, read only version B",BABY,CHILD,Study1,S,64,27,Study,8,8,,Study/JOL,"Study Phase2",8001,,,-1,-1,,,,1
w870202,7wexdmlj6i,Nick_Dissertation_EX1_EP,1,201,2021-11-25T02:58:52+00:00,8.3266680240631,2,versionA_stim.csv,READVersionB.csv,"Read Version B","Dissertation, read only version B",DARK,CAVE,Study1,B,28,57,Study,8,8,,Study/JOL,"Study Phase2",8001,,,-1,-1,,,,1
w870202,7wexdmlj6i,Nick_Dissertation_EX1_EP,1,202,2021-11-25T02:59:00+00:00,8.2713091373444,2,versionA_stim.csv,READVersionB.csv,"Read Version B","Dissertation, read only version B",BUG,WASP,Study1,B,32,85,Study,8,8,,Study/JOL,"Study Phase2",8002,,,-1,-1,,,,1
w870202,7wexdmlj6i,Nick_Dissertation_EX1_EP,1,203,2021-11-25T02:59:08+00:00,8.2452998161316,2,versionA_stim.csv,READVersionB.csv,"Read Version B","Dissertation, read only version B",HORNET,STING,Study1,F,11,68,Study,8,8,,Study/JOL,"Study Phase2",8002,,,-1,-1,,,,1
w870202,7wexdmlj6i,Nick_Dissertation_EX1_EP,1,204,2021-11-25T02:59:17+00:00,8.6506819725037,2,versionA_stim.csv,READVersionB.csv,"Read Version B","Dissertation, read only version B",BITTER,COLD,Study1,F,12,10,Study,8,8,,Study/JOL,"Study Phase2",8407,,,-1,-1,,,,1
w870202,7wexdmlj6i,Nick_Dissertation_EX1_EP,1,205,2021-11-25T02:59:25+00:00,8.4267611503601,2,versionA_stim.csv,READVersionB.csv,"Read Version B","Dissertation, read only version B",NUMBER,AMOUNT,Study1,S,47,14,Study,8,8,,Study/JOL,"Study Phase2",8128,,,-1,-1,,,,0
w870202,7wexdmlj6i,Nick_Dissertation_EX1_EP,1,206,2021-11-25T02:59:34+00:00,8.8978350162506,2,versionA_stim.csv,READVersionB.csv,"Read Version B","Dissertation, read only version B",SOON,BELT,Study1,U,70,17,Study,8,8,,Study/JOL,"Study Phase2",8638,,,-1,-1,,,,0
w870202,7wexdmlj6i,Nick_Dissertation_EX1_EP,1,207,2021-11-25T02:59:43+00:00,8.3195018768311,2,versionA_stim.csv,READVersionB.csv,"Read Version B","Dissertation, read only version B",EDITOR,NEWS,Study1,F,10,80,Study,8,8,,Study/JOL,"Study Phase2",8001,,,-1,-1,,,,0.917
w870202,7wexdmlj6i,Nick_Dissertation_EX1_EP,1,208,2021-11-25T02:59:51+00:00,8.3712911605835,2,versionA_stim.csv,READVersionB.csv,"Read Version B","Dissertation, read only version B",DIETARY,SACKING,Study1,U,67,65,Study,8,8,,Study/JOL,"Study Phase2",8003,,,-1,-1,,,,1
w870202,7wexdmlj6i,Nick_Dissertation_EX1_EP,1,209,2021-11-25T02:59:59+00:00,8.2791798114777,2,versionA_stim.csv,READVersionB.csv,"Read Version B","Dissertation, read only version B",SWAN,BIRD,Study1,F,14,22,Study,8,8,,Study/JOL,"Study Phase2",8001,,,-1,-1,,,,1
w870202,7wexdmlj6i,Nick_Dissertation_EX1_EP,1,210,2021-11-25T03:00:07+00:00,8.2767400741577,2,versionA_stim.csv,READVersionB.csv,"Read Version B","Dissertation, read only version B",DEBATE,SIGHT,Study1,U,73,84,Study,8,8,,Study/JOL,"Study Phase2",8001,,,-1,-1,,,,1
w870202,7wexdmlj6i,Nick_Dissertation_EX1_EP,1,211,2021-11-25T03:00:16+00:00,8.2569301128387,2,versionA_stim.csv,READVersionB.csv,"Read Version B","Dissertation, read only version B",VALLEY,ADD,Study1,U,82,42,Study,8,8,,Study/JOL,"Study Phase2",8001,,,-1,-1,,,,1
w870202,7wexdmlj6i,Nick_Dissertation_EX1_EP,1,212,2021-11-25T03:00:24+00:00,8.4696338176727,2,versionA_stim.csv,READVersionB.csv,"Read Version B","Dissertation, read only version B",BALL,RACKET,Study1,B,38,60,Study,8,8,,Study/JOL,"Study Phase2",8001,,,-1,-1,,,,1
w870202,7wexdmlj6i,Nick_Dissertation_EX1_EP,1,213,2021-11-25T03:00:32+00:00,8.3046350479126,2,versionA_stim.csv,READVersionB.csv,"Read Version B","Dissertation, read only version B",LETTUCE,SALAD,Study1,S,59,18,Study,8,8,,Study/JOL,"Study Phase2",8002,,,-1,-1,,,,1
w870202,7wexdmlj6i,Nick_Dissertation_EX1_EP,1,214,2021-11-25T03:00:42+00:00,9.5723929405212,2,versionA_stim.csv,READVersionB.csv,"Read Version B","Dissertation, read only version B",MACHINE,POSITION,Study1,U,76,15,Study,8,8,,Study/JOL,"Study Phase2",9300,,,-1,-1,,,,0.897
w870202,7wexdmlj6i,Nick_Dissertation_EX1_EP,1,215,2021-11-25T03:00:51+00:00,9.1582930088043,2,versionA_stim.csv,READVersionB.csv,"Read Version B","Dissertation, read only version B",SENTENCE,WORD,Study1,B,31,13,Study,8,8,,Study/JOL,"Study Phase2",8880,,,-1,-1,,,,0.111
w870202,7wexdmlj6i,Nick_Dissertation_EX1_EP,1,216,2021-11-25T03:01:00+00:00,8.4235851764679,2,versionA_stim.csv,READVersionB.csv,"Read Version B","Dissertation, read only version B",GEOLOGY,ROCK,Study1,F,19,48,Study,8,8,,Study/JOL,"Study Phase2",8002,,,-1,-1,,,,1
w870202,7wexdmlj6i,Nick_Dissertation_EX1_EP,1,217,2021-11-25T03:01:08+00:00,8.2867608070374,2,versionA_stim.csv,READVersionB.csv,"Read Version B","Dissertation, read only version B",WORK,CHORE,Study1,B,39,28,Study,8,8,,Study/JOL,"Study Phase2",8002,,,-1,-1,,,,1
w870202,7wexdmlj6i,Nick_Dissertation_EX1_EP,1,218,2021-11-25T03:01:16+00:00,8.2512822151184,2,versionA_stim.csv,READVersionB.csv,"Read Version B","Dissertation, read only version B",MATH,DIVISION,Study1,B,33,78,Study,8,8,,Study/JOL,"Study Phase2",8001,,,-1,-1,,,,1
w870202,7wexdmlj6i,Nick_Dissertation_EX1_EP,1,219,2021-11-25T03:01:24+00:00,8.302402973175,2,versionA_stim.csv,READVersionB.csv,"Read Version B","Dissertation, read only version B",KIDNEY,LIVER,Study1,S,53,37,Study,8,8,,Study/JOL,"Study Phase2",8002,,,-1,-1,,,,1
w870202,7wexdmlj6i,Nick_Dissertation_EX1_EP,1,220,2021-11-25T03:01:33+00:00,8.3230979442596,2,versionA_stim.csv,READVersionB.csv,"Read Version B","Dissertation, read only version B",ARCHITECTURE,DESIGN,Study1,S,51,35,Study,8,8,,Study/JOL,"Study Phase2",8001,,,-1,-1,,,,1
w870202,7wexdmlj6i,Nick_Dissertation_EX1_EP,1,221,2021-11-25T03:01:41+00:00,8.2961740493774,2,versionA_stim.csv,READVersionB.csv,"Read Version B","Dissertation, read only version B",LAW,ATTORNEY,Study1,B,34,83,Study,8,8,,Study/JOL,"Study Phase2",8001,,,-1,-1,,,,1
w870202,7wexdmlj6i,Nick_Dissertation_EX1_EP,1,222,2021-11-25T03:01:49+00:00,8.2638130187988,2,versionA_stim.csv,READVersionB.csv,"Read Version B","Dissertation, read only version B",ORCHID,FLOWER,Study1,F,24,82,Study,8,8,,Study/JOL,"Study Phase2",8002,,,-1,-1,,,,1
w870202,7wexdmlj6i,Nick_Dissertation_EX1_EP,1,223,2021-11-25T03:01:58+00:00,8.2594900131226,2,versionA_stim.csv,READVersionB.csv,"Read Version B","Dissertation, read only version B",HYGIENE,CLEAN,Study1,F,17,86,Study,8,8,,Study/JOL,"Study Phase2",8002,,,-1,-1,,,,0.808
w870202,7wexdmlj6i,Nick_Dissertation_EX1_EP,1,224,2021-11-25T03:02:06+00:00,8.3427529335022,2,versionA_stim.csv,READVersionB.csv,"Read Version B","Dissertation, read only version B",SMELL,STENCH,Study1,B,42,56,Study,8,8,,Study/JOL,"Study Phase2",8001,,,-1,-1,,,,1
w870202,7wexdmlj6i,Nick_Dissertation_EX1_EP,1,225,2021-11-25T03:02:14+00:00,8.3080170154572,2,versionA_stim.csv,READVersionB.csv,"Read Version B","Dissertation, read only version B",PLANE,PILOT,Study1,B,44,34,Study,8,8,,Study/JOL,"Study Phase2",8003,,,-1,-1,,,,1
w870202,7wexdmlj6i,Nick_Dissertation_EX1_EP,1,226,2021-11-25T03:02:23+00:00,8.2500278949738,2,versionA_stim.csv,READVersionB.csv,"Read Version B","Dissertation, read only version B",SHOE,FOOT,Study1,S,60,76,Study,8,8,,Study/JOL,"Study Phase2",8001,,,-1,-1,,,,1
w870202,7wexdmlj6i,Nick_Dissertation_EX1_EP,1,227,2021-11-25T03:02:31+00:00,8.2778780460358,2,versionA_stim.csv,READVersionB.csv,"Read Version B","Dissertation, read only version B",HIDE,SICK,Study1,U,84,39,Study,8,8,,Study/JOL,"Study Phase2",8002,,,-1,-1,,,,1
w870202,7wexdmlj6i,Nick_Dissertation_EX1_EP,1,228,2021-11-25T03:02:39+00:00,8.2898879051208,2,versionA_stim.csv,READVersionB.csv,"Read Version B","Dissertation, read only version B",FULL,ENOUGH,Study1,B,26,47,Study,8,8,,Study/JOL,"Study Phase2",8002,,,-1,-1,,,,1
w870202,7wexdmlj6i,Nick_Dissertation_EX1_EP,1,229,2021-11-25T03:02:48+00:00,8.5011610984802,2,versionA_stim.csv,READVersionB.csv,"Read Version B","Dissertation, read only version B",WAY,OUT,Study1,F,16,19,Study,8,8,,Study/JOL,"Study Phase2",8002,,,-1,-1,,,,1
w870202,7wexdmlj6i,Nick_Dissertation_EX1_EP,1,230,2021-11-25T03:02:57+00:00,9.4729011058807,2,versionA_stim.csv,READVersionB.csv,"Read Version B","Dissertation, read only version B",DEATH,BUSINESS,Study1,U,72,46,Study,8,8,,Study/JOL,"Study Phase2",8001,,,-1,-1,,,,1
w870202,7wexdmlj6i,Nick_Dissertation_EX1_EP,1,231,2021-11-25T03:03:05+00:00,8.3628659248352,2,versionA_stim.csv,READVersionB.csv,"Read Version B","Dissertation, read only version B",POP,SODA,Study1,S,56,69,Study,8,8,,Study/JOL,"Study Phase2",8002,,,-1,-1,,,,1
w870202,7wexdmlj6i,Nick_Dissertation_EX1_EP,1,232,2021-11-25T03:03:14+00:00,8.3033599853516,2,versionA_stim.csv,READVersionB.csv,"Read Version B","Dissertation, read only version B",GRILL,BAR,Study1,S,52,29,Study,8,8,,Study/JOL,"Study Phase2",8003,,,-1,-1,,,,1
w870202,7wexdmlj6i,Nick_Dissertation_EX1_EP,1,233,2021-11-25T03:03:22+00:00,8.2524309158325,2,versionA_stim.csv,READVersionB.csv,"Read Version B","Dissertation, read only version B",DIGESTION,STOMACH,Study1,F,7,51,Study,8,8,,Study/JOL,"Study Phase2",8001,,,-1,-1,,,,1
w870202,7wexdmlj6i,Nick_Dissertation_EX1_EP,1,234,2021-11-25T03:03:30+00:00,8.2445900440216,2,versionA_stim.csv,READVersionB.csv,"Read Version B","Dissertation, read only version B",REVOLUTION,WAR,Study1,F,20,75,Study,8,8,,Study/JOL,"Study Phase2",8001,,,-1,-1,,,,1
w870202,7wexdmlj6i,Nick_Dissertation_EX1_EP,1,235,2021-11-25T03:03:38+00:00,8.2548561096191,2,versionA_stim.csv,READVersionB.csv,"Read Version B","Dissertation, read only version B",CASH,WOULD,Study1,U,83,73,Study,8,8,,Study/JOL,"Study Phase2",8001,,,-1,-1,,,,0.839
w870202,7wexdmlj6i,Nick_Dissertation_EX1_EP,1,236,2021-11-25T03:03:47+00:00,8.3110399246216,2,versionA_stim.csv,READVersionB.csv,"Read Version B","Dissertation, read only version B",DUMP,WASTE,Study1,S,49,72,Study,8,8,,Study/JOL,"Study Phase2",8001,,,-1,-1,,,,1
w870202,7wexdmlj6i,Nick_Dissertation_EX1_EP,1,237,2021-11-25T03:03:55+00:00,8.2722909450531,2,versionA_stim.csv,READVersionB.csv,"Read Version B","Dissertation, read only version B",ALLOW,TUCK,Study1,U,78,40,Study,8,8,,Study/JOL,"Study Phase2",8001,,,-1,-1,,,,1
w870202,7wexdmlj6i,Nick_Dissertation_EX1_EP,1,238,2021-11-25T03:04:03+00:00,8.3069541454315,2,versionA_stim.csv,READVersionB.csv,"Read Version B","Dissertation, read only version B",BLOW,WIND,Study1,S,55,24,Study,8,8,,Study/JOL,"Study Phase2",8001,,,-1,-1,,,,1
w870202,7wexdmlj6i,Nick_Dissertation_EX1_EP,1,239,2021-11-25T03:04:12+00:00,8.2467148303986,2,versionA_stim.csv,READVersionB.csv,"Read Version B","Dissertation, read only version B",WAGE,MONEY,Study1,F,8,52,Study,8,8,,Study/JOL,"Study Phase2",8001,,,-1,-1,,,,1
w870202,7wexdmlj6i,Nick_Dissertation_EX1_EP,1,240,2021-11-25T03:04:20+00:00,8.2742331027985,2,versionA_stim.csv,READVersionB.csv,"Read Version B","Dissertation, read only version B",MEANING,DEFINITION,Study1,S,62,11,Study,8,8,,Study/JOL,"Study Phase2",8002,,,-1,-1,,,,1
w870202,7wexdmlj6i,Nick_Dissertation_EX1_EP,1,241,2021-11-25T03:04:28+00:00,8.2338008880615,2,versionA_stim.csv,READVersionB.csv,"Read Version B","Dissertation, read only version B",DUE,ASSIGNMENT,Study1,S,46,61,Study,8,8,,Study/JOL,"Study Phase2",8002,,,-1,-1,,,,1
w870202,7wexdmlj6i,Nick_Dissertation_EX1_EP,1,242,2021-11-25T03:04:36+00:00,8.25017619133,2,versionA_stim.csv,READVersionB.csv,"Read Version B","Dissertation, read only version B",SUGAR,RIDDLE,Study1,U,81,31,Study,8,8,,Study/JOL,"Study Phase2",8001,,,-1,-1,,,,1
w870202,7wexdmlj6i,Nick_Dissertation_EX1_EP,1,243,2021-11-25T03:04:47+00:00,10.697495937347,2,versionA_stim.csv,READVersionB.csv,"Read Version B","Dissertation, read only version B",FIRE,BLAZE,Study1,B,45,16,Study,8,8,,Study/JOL,"Study Phase2",10440,,,-1,-1,,,,0.333
w870202,7wexdmlj6i,Nick_Dissertation_EX1_EP,1,244,2021-11-25T03:04:57+00:00,10.130103826523,2,versionA_stim.csv,READVersionB.csv,"Read Version B","Dissertation, read only version B",PAST,FUTURE,Study1,S,61,62,Study,8,8,,Study/JOL,"Study Phase2",9879,,,-1,-1,,,,0
w870202,7wexdmlj6i,Nick_Dissertation_EX1_EP,1,245,2021-11-25T03:05:05+00:00,8.275484085083,2,versionA_stim.csv,READVersionB.csv,"Read Version B","Dissertation, read only version B",WINE,CHEESE,Study1,S,57,67,Study,8,8,,Study/JOL,"Study Phase2",8001,,,-1,-1,,,,0.792
w870202,7wexdmlj6i,Nick_Dissertation_EX1_EP,1,246,2021-11-25T03:05:14+00:00,8.2879660129547,2,versionA_stim.csv,READVersionB.csv,"Read Version B","Dissertation, read only version B",DISCOVER,FLOOR,Study1,U,71,43,Study,8,8,,Study/JOL,"Study Phase2",8001,,,-1,-1,,,,1
w870202,7wexdmlj6i,Nick_Dissertation_EX1_EP,1,247,2021-11-25T03:05:22+00:00,8.3341929912567,2,versionA_stim.csv,READVersionB.csv,"Read Version B","Dissertation, read only version B",CHISEL,HAMMER,Study1,F,9,33,Study,8,8,,Study/JOL,"Study Phase2",8002,,,-1,-1,,,,1
w870202,7wexdmlj6i,Nick_Dissertation_EX1_EP,1,248,2021-11-25T03:05:30+00:00,8.275151014328,2,versionA_stim.csv,READVersionB.csv,"Read Version B","Dissertation, read only version B",SLEEP,DROWSY,Study1,B,41,59,Study,8,8,,Study/JOL,"Study Phase2",8001,,,-1,-1,,,,1
w870202,7wexdmlj6i,Nick_Dissertation_EX1_EP,1,249,2021-11-25T03:05:39+00:00,8.2494261264801,2,versionA_stim.csv,READVersionB.csv,"Read Version B","Dissertation, read only version B",LOCATION,SITE,Study1,S,48,74,Study,8,8,,Study/JOL,"Study Phase2",8002,,,-1,-1,,,,1
w870202,7wexdmlj6i,Nick_Dissertation_EX1_EP,1,250,2021-11-25T03:05:47+00:00,8.7594199180603,2,versionA_stim.csv,READVersionB.csv,"Read Version B","Dissertation, read only version B",CIRCLE,ROUND,Study1,S,65,12,Study,8,8,,Study/JOL,"Study Phase2",8002,,,-1,-1,,,,1
w870202,7wexdmlj6i,Nick_Dissertation_EX1_EP,1,251,2021-11-25T03:05:56+00:00,8.2870268821716,2,versionA_stim.csv,READVersionB.csv,"Read Version B","Dissertation, read only version B",ART,LION,Study1,U,79,71,Study,8,8,,Study/JOL,"Study Phase2",8001,,,-1,-1,,,,1
w870202,7wexdmlj6i,Nick_Dissertation_EX1_EP,1,252,2021-11-25T03:06:04+00:00,8.6083371639252,2,versionA_stim.csv,READVersionB.csv,"Read Version B","Dissertation, read only version B",CREDIT,CARD,Study1,F,23,63,Study,8,8,,Study/JOL,"Study Phase2",8342,,,-1,-1,,,,0.943
w870202,7wexdmlj6i,Nick_Dissertation_EX1_EP,1,253,2021-11-25T03:06:15+00:00,10.707618951797,2,versionA_stim.csv,READVersionB.csv,"Read Version B","Dissertation, read only version B",DISCUSSION,TALK,Study1,F,21,44,Study,8,8,,Study/JOL,"Study Phase2",10388,,,-1,-1,,,,0
w870202,7wexdmlj6i,Nick_Dissertation_EX1_EP,1,254,2021-11-25T03:06:26+00:00,11.231160879135,2,versionA_stim.csv,READVersionB.csv,"Read Version B","Dissertation, read only version B",LIFT,WOMAN,Study1,U,69,20,Study,8,8,,Study/JOL,"Study Phase2",10933,,,-1,-1,,,,0
w870202,7wexdmlj6i,Nick_Dissertation_EX1_EP,1,255,2021-11-25T03:06:34+00:00,8.2634150981903,2,versionA_stim.csv,READVersionB.csv,"Read Version B","Dissertation, read only version B",BEGIN,END,Study1,S,54,8,Study,8,8,,Study/JOL,"Study Phase2",8001,,,-1,-1,,,,0.917
w870202,7wexdmlj6i,Nick_Dissertation_EX1_EP,1,256,2021-11-25T03:06:43+00:00,8.2931900024414,2,versionA_stim.csv,READVersionB.csv,"Read Version B","Dissertation, read only version B",PAW,DOG,Study1,F,15,26,Study,8,8,,Study/JOL,"Study Phase2",8002,,,-1,-1,,,,1
w870202,7wexdmlj6i,Nick_Dissertation_EX1_EP,1,257,2021-11-25T03:06:51+00:00,8.2763769626617,2,versionA_stim.csv,READVersionB.csv,"Read Version B","Dissertation, read only version B",CLOTHES,ATTIRE,Study1,B,43,66,Study,8,8,,Study/JOL,"Study Phase2",8002,,,-1,-1,,,,1
w870202,7wexdmlj6i,Nick_Dissertation_EX1_EP,1,258,2021-11-25T03:06:59+00:00,8.2541301250458,2,versionA_stim.csv,READVersionB.csv,"Read Version B","Dissertation, read only version B",BRIDGE,WATER,Study1,F,18,50,Study,8,8,,Study/JOL,"Study Phase2",8000,,,-1,-1,,,,1
w870202,7wexdmlj6i,Nick_Dissertation_EX1_EP,1,259,2021-11-25T03:07:08+00:00,8.2698149681091,2,versionA_stim.csv,READVersionB.csv,"Read Version B","Dissertation, read only version B",STRONG,ACCIDENT,Study1,U,80,32,Study,8,8,,Study/JOL,"Study Phase2",8000,,,-1,-1,,,,1
w870202,7wexdmlj6i,Nick_Dissertation_EX1_EP,1,260,2021-11-25T03:07:16+00:00,8.2540290355682,2,versionA_stim.csv,READVersionB.csv,"Read Version B","Dissertation, read only version B",PARK,HUNGRY,Study1,U,68,70,Study,8,8,,Study/JOL,"Study Phase2",8002,,,-1,-1,,,,1
w870202,7wexdmlj6i,Nick_Dissertation_EX1_EP,1,261,2021-11-25T03:07:24+00:00,8.2567160129547,2,versionA_stim.csv,READVersionB.csv,"Read Version B","Dissertation, read only version B",KING,VASE,Study1,U,85,45,Study,8,8,,Study/JOL,"Study Phase2",8002,,,-1,-1,,,,1
w870202,7wexdmlj6i,Nick_Dissertation_EX1_EP,1,262,2021-11-25T03:07:33+00:00,8.8388979434967,2,versionA_stim.csv,READVersionB.csv,"Read Version B","Dissertation, read only version B",HERD,COW,Study1,F,22,7,Study,8,8,,Study/JOL,"Study Phase2",8578,,,-1,-1,,,,0.914
w870202,7wexdmlj6i,Nick_Dissertation_EX1_EP,1,263,2021-11-25T03:07:44+00:00,10.927229881287,2,versionA_stim.csv,READVersionB.csv,"Read Version B","Dissertation, read only version B",TRIAL,JURY,Study1,S,50,55,Study,8,8,,Study/JOL,"Study Phase2",10668,,,-1,-1,,,,0
w870202,7wexdmlj6i,Nick_Dissertation_EX1_EP,1,264,2021-11-25T03:07:55+00:00,11.611096143723,2,versionA_stim.csv,READVersionB.csv,"Read Version B","Dissertation, read only version B",THING,STUFF,BUFFER2,Buffer,90,89,Study,8,8,,Study/JOL,BUFFER4,11314,,,-1,-1,,,,0
w870202,7wexdmlj6i,Nick_Dissertation_EX1_EP,1,265,2021-11-25T03:08:04+00:00,8.4481790065765,2,versionA_stim.csv,READVersionB.csv,"Read Version B","Dissertation, read only version B",SHERRIF,POLICE,BUFFER2,Buffer,87,87,Study,8,8,,Study/JOL,BUFFER4,8160,,,-1,-1,,,,0
w870202,7wexdmlj6i,Nick_Dissertation_EX1_EP,1,266,2021-11-25T03:08:16+00:00,11.80206489563,2,versionA_stim.csv,READVersionB.csv,"Read Version B","Dissertation, read only version B",GEESE,GOOSE,BUFFER2,Buffer,86,88,Study,8,8,,Study/JOL,BUFFER4,11492,,,-1,-1,,,,0
w870202,7wexdmlj6i,Nick_Dissertation_EX1_EP,1,267,2021-11-25T03:08:28+00:00,11.872731924057,2,versionA_stim.csv,READVersionB.csv,"Read Version B","Dissertation, read only version B",MOON,SPACE,BUFFER2,Buffer,89,91,Study,8,8,,Study/JOL,BUFFER4,11601,,,-1,-1,,,,0
w870202,7wexdmlj6i,Nick_Dissertation_EX1_EP,1,268,2021-11-25T03:08:37+00:00,9.8224651813507,2,versionA_stim.csv,READVersionB.csv,"Read Version B","Dissertation, read only version B",MALT,CHOCOLATE,BUFFER2,Buffer,88,90,Study,8,8,,Study/JOL,BUFFER4,9535,,,-1,-1,,,,0
w870202,7wexdmlj6i,Nick_Dissertation_EX1_EP,1,269,2021-11-25T03:10:05+00:00,87.431852817535,2,versionA_stim.csv,READVersionB.csv,"Read Version B","Dissertation, read only version B",,,,,,0,Instruct,User,-,"You have completed this section. Please press Enter.",Filler_Instruction,Instruct5,87168,,,-1,-1,,,,0.529
w870202,7wexdmlj6i,Nick_Dissertation_EX1_EP,1,270,2021-11-25T03:12:05+00:00,120.32401609421,2,versionA_stim.csv,READVersionB.csv,"Read Version B","Dissertation, read only version B",,,,,,0,FreeRecall,120,120,"Please list the 50 US states in reverse alphabetical order (z - a). The task will automatically advance to the next screen after two minutes.",,Filler2,120002,"Wyoming, Wisconsin, West Virginia Washington Virginia Vermont Utah Texas Tennessee South Dakota South Carolina Rhode Island Pennsylvania Oregon Oklahoma Ohio North Dakota North Carolina New York New Mexico New Jersey New Hampshire Nevada Nebraska Montana ",0,31460,118271,0,0,,1
w870202,7wexdmlj6i,Nick_Dissertation_EX1_EP,1,271,2021-11-25T03:12:16+00:00,10.592538118362,2,versionA_stim.csv,READVersionB.csv,"Read Version B","Dissertation, read only version B",,,,,,0,Instruct,-,10,"You will now be presented with the first word from each of the previously studied item pairs. Please type the missing word. If you do not know the word, you may guess or press Enter to skip forward to the next pair.",,Instruct6,10325,,,1249,1419,,,,1
w870202,7wexdmlj6i,Nick_Dissertation_EX1_EP,1,272,2021-11-25T03:12:30+00:00,14.644013881683,2,versionA_stim.csv,READVersionB.csv,"Read Version B","Dissertation, read only version B",WINE,CHEESE,Study1,S,57,67,Test,User,-,,Recall,Recall2,14295,spirit,16.666666666667,12764,13709,0,0,,1
w870202,7wexdmlj6i,Nick_Dissertation_EX1_EP,1,273,2021-11-25T03:12:33+00:00,2.690514087677,2,versionA_stim.csv,READVersionB.csv,"Read Version B","Dissertation, read only version B",KING,VASE,Study1,U,85,45,Test,User,-,,Recall,Recall2,2508,queen,22.222222222222,1384,2185,0,0,,1
w870202,7wexdmlj6i,Nick_Dissertation_EX1_EP,1,274,2021-11-25T03:12:35+00:00,2.0492548942566,2,versionA_stim.csv,READVersionB.csv,"Read Version B","Dissertation, read only version B",GRILL,BAR,Study1,S,52,29,Test,User,-,,Recall,Recall2,1870,,0,-1,-1,0,0,,1
w870202,7wexdmlj6i,Nick_Dissertation_EX1_EP,1,275,2021-11-25T03:12:38+00:00,2.6007719039917,2,versionA_stim.csv,READVersionB.csv,"Read Version B","Dissertation, read only version B",ROOT,PLANT,Study1,F,13,36,Test,User,-,,Recall,Recall2,2455,beer,0,1570,2224,0,0,,1
w870202,7wexdmlj6i,Nick_Dissertation_EX1_EP,1,276,2021-11-25T03:12:39+00:00,1.6520071029663,2,versionA_stim.csv,READVersionB.csv,"Read Version B","Dissertation, read only version B",BEGIN,END,Study1,S,54,8,Test,User,-,,Recall,Recall2,1508,end,100,1053,1329,1,1,,1
w870202,7wexdmlj6i,Nick_Dissertation_EX1_EP,1,277,2021-11-25T03:12:43+00:00,3.5835130214691,2,versionA_stim.csv,READVersionB.csv,"Read Version B","Dissertation, read only version B",MACHINE,POSITION,Study1,U,76,15,Test,User,-,,Recall,Recall2,3435,wash,16.666666666667,1165,3144,0,0,,1
w870202,7wexdmlj6i,Nick_Dissertation_EX1_EP,1,278,2021-11-25T03:12:45+00:00,2.4185700416565,2,versionA_stim.csv,READVersionB.csv,"Read Version B","Dissertation, read only version B",POP,SODA,Study1,S,56,69,Test,User,-,,Recall,Recall2,2275,drink,22.222222222222,1268,1847,0,0,,1
w870202,7wexdmlj6i,Nick_Dissertation_EX1_EP,1,279,2021-11-25T03:12:48+00:00,2.5286018848419,2,versionA_stim.csv,READVersionB.csv,"Read Version B","Dissertation, read only version B",TUNA,FISH,Study1,F,25,79,Test,User,-,,Recall,Recall2,2393,fish,100,1559,2094,1,1,,1
w870202,7wexdmlj6i,Nick_Dissertation_EX1_EP,1,280,2021-11-25T03:12:49+00:00,1.2628290653229,2,versionA_stim.csv,READVersionB.csv,"Read Version B","Dissertation, read only version B",DRINK,SIP,Study1,B,27,58,Test,User,-,,Recall,Recall2,1034,,0,-1,-1,0,0,,1
w870202,7wexdmlj6i,Nick_Dissertation_EX1_EP,1,281,2021-11-25T03:12:52+00:00,2.3402070999146,2,versionA_stim.csv,READVersionB.csv,"Read Version B","Dissertation, read only version B",HONEY,BEE,Study1,S,63,64,Test,User,-,,Recall,Recall2,2199,,0,-1,-1,0,0,,1
w870202,7wexdmlj6i,Nick_Dissertation_EX1_EP,1,282,2021-11-25T03:12:55+00:00,3.6897029876709,2,versionA_stim.csv,READVersionB.csv,"Read Version B","Dissertation, read only version B",HOT,CHILI,Study1,B,37,53,Test,User,-,,Recall,Recall2,3556,pot,0,2380,3130,0,0,,1
w870202,7wexdmlj6i,Nick_Dissertation_EX1_EP,1,283,2021-11-25T03:12:57+00:00,1.3077218532562,2,versionA_stim.csv,READVersionB.csv,"Read Version B","Dissertation, read only version B",DIGESTION,STOMACH,Study1,F,7,51,Test,User,-,,Recall,Recall2,1087,,0,-1,-1,0,0,,1
w870202,7wexdmlj6i,Nick_Dissertation_EX1_EP,1,284,2021-11-25T03:12:57+00:00,0.58038806915283,2,versionA_stim.csv,READVersionB.csv,"Read Version B","Dissertation, read only version B",CREDIT,CARD,Study1,F,23,63,Test,User,-,,Recall,Recall2,416,,0,-1,-1,0,0,,1
w870202,7wexdmlj6i,Nick_Dissertation_EX1_EP,1,285,2021-11-25T03:12:57+00:00,0.26332402229309,2,versionA_stim.csv,READVersionB.csv,"Read Version B","Dissertation, read only version B",MATH,DIVISION,Study1,B,33,78,Test,User,-,,Recall,Recall2,57,,0,-1,-1,0,0,,1
w870202,7wexdmlj6i,Nick_Dissertation_EX1_EP,1,286,2021-11-25T03:12:58+00:00,0.52914595603943,2,versionA_stim.csv,READVersionB.csv,"Read Version B","Dissertation, read only version B",KIDNEY,LIVER,Study1,S,53,37,Test,User,-,,Recall,Recall2,146,,0,-1,-1,0,0,,1
w870202,7wexdmlj6i,Nick_Dissertation_EX1_EP,1,287,2021-11-25T03:12:58+00:00,0.48851799964905,2,versionA_stim.csv,READVersionB.csv,"Read Version B","Dissertation, read only version B",CHISEL,HAMMER,Study1,F,9,33,Test,User,-,,Recall,Recall2,186,,0,-1,-1,0,0,,1
w870202,7wexdmlj6i,Nick_Dissertation_EX1_EP,1,288,2021-11-25T03:12:59+00:00,0.39885902404785,2,versionA_stim.csv,READVersionB.csv,"Read Version B","Dissertation, read only version B",WAGE,MONEY,Study1,F,8,52,Test,User,-,,Recall,Recall2,29,,0,-1,-1,0,0,,1
w870202,7wexdmlj6i,Nick_Dissertation_EX1_EP,1,289,2021-11-25T03:12:59+00:00,0.42558097839355,2,versionA_stim.csv,READVersionB.csv,"Read Version B","Dissertation, read only version B",NUMBER,AMOUNT,Study1,S,47,14,Test,User,-,,Recall,Recall2,98,,0,-1,-1,0,0,,1
w870202,7wexdmlj6i,Nick_Dissertation_EX1_EP,1,290,2021-11-25T03:13:03+00:00,3.9751980304718,2,versionA_stim.csv,READVersionB.csv,"Read Version B","Dissertation, read only version B",TAKE,SEIZE,Study1,B,29,23,Test,User,-,,Recall,Recall2,3778,give,44.444444444444,2956,3507,0,0,,1
w870202,7wexdmlj6i,Nick_Dissertation_EX1_EP,1,291,2021-11-25T03:13:06+00:00,2.681389093399,2,versionA_stim.csv,READVersionB.csv,"Read Version B","Dissertation, read only version B",ORCHID,FLOWER,Study1,F,24,82,Test,User,-,,Recall,Recall2,2506,flower,100,1565,2349,1,1,,1
w870202,7wexdmlj6i,Nick_Dissertation_EX1_EP,1,292,2021-11-25T03:13:43+00:00,37.182777881622,2,versionA_stim.csv,READVersionB.csv,"Read Version B","Dissertation, read only version B",PAST,FUTURE,Study1,S,61,62,Test,User,-,,Recall,Recall2,36851,end,22.222222222222,33142,34097,0,0,,1
w870202,7wexdmlj6i,Nick_Dissertation_EX1_EP,1,293,2021-11-25T03:13:46+00:00,2.9383618831635,2,versionA_stim.csv,READVersionB.csv,"Read Version B","Dissertation, read only version B",FIX,HAND,Study1,U,75,81,Test,User,-,,Recall,Recall2,2778,,0,-1,-1,0,0,,1
w870202,7wexdmlj6i,Nick_Dissertation_EX1_EP,1,294,2021-11-25T03:13:47+00:00,1.0555040836334,2,versionA_stim.csv,READVersionB.csv,"Read Version B","Dissertation, read only version B",SMELL,STENCH,Study1,B,42,56,Test,User,-,,Recall,Recall2,916,,0,-1,-1,0,0,,1
w870202,7wexdmlj6i,Nick_Dissertation_EX1_EP,1,295,2021-11-25T03:13:51+00:00,4.4292590618134,2,versionA_stim.csv,READVersionB.csv,"Read Version B","Dissertation, read only version B",DELINQUENT,BAD,Study1,F,6,9,Test,User,-,,Recall,Recall2,4156,,0,-1,-1,0,0,,1
w870202,7wexdmlj6i,Nick_Dissertation_EX1_EP,1,296,2021-11-25T03:13:54+00:00,3.0136919021606,2,versionA_stim.csv,READVersionB.csv,"Read Version B","Dissertation, read only version B",HIDE,SICK,Study1,U,84,39,Test,User,-,,Recall,Recall2,2803,find,25,1419,2406,0,0,,1
w870202,7wexdmlj6i,Nick_Dissertation_EX1_EP,1,297,2021-11-25T03:13:56+00:00,1.2947120666504,2,versionA_stim.csv,READVersionB.csv,"Read Version B","Dissertation, read only version B",DIETARY,SACKING,Study1,U,67,65,Test,User,-,,Recall,Recall2,1162,,0,-1,-1,0,0,,1
w870202,7wexdmlj6i,Nick_Dissertation_EX1_EP,1,298,2021-11-25T03:13:59+00:00,3.1626210212708,2,versionA_stim.csv,READVersionB.csv,"Read Version B","Dissertation, read only version B",LETTUCE,SALAD,Study1,S,59,18,Test,User,-,,Recall,Recall2,3025,wrap,22.222222222222,1723,2692,0,0,,1
w870202,7wexdmlj6i,Nick_Dissertation_EX1_EP,1,299,2021-11-25T03:14:00+00:00,1.5054779052734,2,versionA_stim.csv,READVersionB.csv,"Read Version B","Dissertation, read only version B",SOON,BELT,Study1,U,70,17,Test,User,-,,Recall,Recall2,1369,,0,-1,-1,0,0,,1
w870202,7wexdmlj6i,Nick_Dissertation_EX1_EP,1,300,2021-11-25T03:14:02+00:00,1.3701550960541,2,versionA_stim.csv,READVersionB.csv,"Read Version B","Dissertation, read only version B",WORK,CHORE,Study1,B,39,28,Test,User,-,,Recall,Recall2,1232,,0,-1,-1,0,0,,1
w870202,7wexdmlj6i,Nick_Dissertation_EX1_EP,1,301,2021-11-25T03:14:03+00:00,0.86924409866333,2,versionA_stim.csv,READVersionB.csv,"Read Version B","Dissertation, read only version B",DARK,CAVE,Study1,B,28,57,Test,User,-,,Recall,Recall2,726,,0,-1,-1,0,0,,1
w870202,7wexdmlj6i,Nick_Dissertation_EX1_EP,1,302,2021-11-25T03:14:03+00:00,0.57073593139648,2,versionA_stim.csv,READVersionB.csv,"Read Version B","Dissertation, read only version B",CIRCLE,ROUND,Study1,S,65,12,Test,User,-,,Recall,Recall2,436,,0,-1,-1,0,0,,1
w870202,7wexdmlj6i,Nick_Dissertation_EX1_EP,1,303,2021-11-25T03:14:05+00:00,1.3947229385376,2,versionA_stim.csv,READVersionB.csv,"Read Version B","Dissertation, read only version B",LOCATION,SITE,Study1,S,48,74,Test,User,-,,Recall,Recall2,1261,,0,-1,-1,0,0,,1
w870202,7wexdmlj6i,Nick_Dissertation_EX1_EP,1,304,2021-11-25T03:14:06+00:00,1.218612909317,2,versionA_stim.csv,READVersionB.csv,"Read Version B","Dissertation, read only version B",TRIAL,JURY,Study1,S,50,55,Test,User,-,,Recall,Recall2,1083,,0,-1,-1,0,0,,1
w870202,7wexdmlj6i,Nick_Dissertation_EX1_EP,1,305,2021-11-25T03:14:10+00:00,3.886803150177,2,versionA_stim.csv,READVersionB.csv,"Read Version B","Dissertation, read only version B",HUNGER,FAMINE,Study1,B,40,54,Test,User,-,,Recall,Recall2,3732,games,54.545454545455,1671,3152,0,0,,1
w870202,7wexdmlj6i,Nick_Dissertation_EX1_EP,1,306,2021-11-25T03:14:11+00:00,0.83264493942261,2,versionA_stim.csv,READVersionB.csv,"Read Version B","Dissertation, read only version B",GEOLOGY,ROCK,Study1,F,19,48,Test,User,-,,Recall,Recall2,678,,0,-1,-1,0,0,,1
w870202,7wexdmlj6i,Nick_Dissertation_EX1_EP,1,307,2021-11-25T03:14:14+00:00,3.1110970973969,2,versionA_stim.csv,READVersionB.csv,"Read Version B","Dissertation, read only version B",DUE,ASSIGNMENT,Study1,S,46,61,Test,User,-,,Recall,Recall2,2976,date,28.571428571429,1361,2289,0,0,,1
w870202,7wexdmlj6i,Nick_Dissertation_EX1_EP,1,308,2021-11-25T03:14:15+00:00,1.1311128139496,2,versionA_stim.csv,READVersionB.csv,"Read Version B","Dissertation, read only version B",DEBATE,SIGHT,Study1,U,73,84,Test,User,-,,Recall,Recall2,986,,0,-1,-1,0,0,,1
w870202,7wexdmlj6i,Nick_Dissertation_EX1_EP,1,309,2021-11-25T03:14:17+00:00,2.278608083725,2,versionA_stim.csv,READVersionB.csv,"Read Version B","Dissertation, read only version B",SLEEP,DROWSY,Study1,B,41,59,Test,User,-,,Recall,Recall2,1424,,0,-1,-1,0,0,,1
w870202,7wexdmlj6i,Nick_Dissertation_EX1_EP,1,310,2021-11-25T03:14:19+00:00,2.1389501094818,2,versionA_stim.csv,READVersionB.csv,"Read Version B","Dissertation, read only version B",STRONG,ACCIDENT,Study1,U,80,32,Test,User,-,,Recall,Recall2,1950,,0,-1,-1,0,0,,1
w870202,7wexdmlj6i,Nick_Dissertation_EX1_EP,1,311,2021-11-25T03:14:21+00:00,1.9904580116272,2,versionA_stim.csv,READVersionB.csv,"Read Version B","Dissertation, read only version B",BUG,WASP,Study1,B,32,85,Test,User,-,,Recall,Recall2,1837,,0,-1,-1,0,0,,1
w870202,7wexdmlj6i,Nick_Dissertation_EX1_EP,1,312,2021-11-25T03:14:24+00:00,3.1145088672638,2,versionA_stim.csv,READVersionB.csv,"Read Version B","Dissertation, read only version B",HORNET,STING,Study1,F,11,68,Test,User,-,,Recall,Recall2,2958,,0,-1,-1,0,0,,1
w870202,7wexdmlj6i,Nick_Dissertation_EX1_EP,1,313,2021-11-25T03:14:32+00:00,7.797828912735,2,versionA_stim.csv,READVersionB.csv,"Read Version B","Dissertation, read only version B",FIRE,BLAZE,Study1,B,45,16,Test,User,-,,Recall,Recall2,7531,,0,-1,-1,0,0,,1
w870202,7wexdmlj6i,Nick_Dissertation_EX1_EP,1,314,2021-11-25T03:14:36+00:00,3.353814125061,2,versionA_stim.csv,READVersionB.csv,"Read Version B","Dissertation, read only version B",GREAT,FANTASTIC,Study1,B,35,30,Test,User,-,,Recall,Recall2,3207,,0,-1,-1,0,0,,1
w870202,7wexdmlj6i,Nick_Dissertation_EX1_EP,1,315,2021-11-25T03:14:43+00:00,7.4683570861816,2,versionA_stim.csv,READVersionB.csv,"Read Version B","Dissertation, read only version B",HAPPY,CAR,Study1,U,77,77,Test,User,-,,Recall,Recall2,7210,,0,-1,-1,0,0,,1
w870202,7wexdmlj6i,Nick_Dissertation_EX1_EP,1,316,2021-11-25T03:14:52+00:00,9.3046388626099,2,versionA_stim.csv,READVersionB.csv,"Read Version B","Dissertation, read only version B",SENTENCE,WORD,Study1,B,31,13,Test,User,-,,Recall,Recall2,9021,,0,-1,-1,0,0,,1
w870202,7wexdmlj6i,Nick_Dissertation_EX1_EP,1,317,2021-11-25T03:15:09+00:00,17.115994930267,2,versionA_stim.csv,READVersionB.csv,"Read Version B","Dissertation, read only version B",BLOW,WIND,Study1,S,55,24,Test,User,-,,Recall,Recall2,16862,,0,-1,-1,0,0,,1
w870202,7wexdmlj6i,Nick_Dissertation_EX1_EP,1,318,2021-11-25T03:15:18+00:00,8.2848200798035,2,versionA_stim.csv,READVersionB.csv,"Read Version B","Dissertation, read only version B",LIFT,WOMAN,Study1,U,69,20,Test,User,-,,Recall,Recall2,8032,,0,-1,-1,0,0,,1
w870202,7wexdmlj6i,Nick_Dissertation_EX1_EP,1,319,2021-11-25T03:15:22+00:00,4.5188329219818,2,versionA_stim.csv,READVersionB.csv,"Read Version B","Dissertation, read only version B",BITTER,COLD,Study1,F,12,10,Test,User,-,,Recall,Recall2,4263,taste,0,2225,3536,0,0,,1
w870202,7wexdmlj6i,Nick_Dissertation_EX1_EP,1,320,2021-11-25T03:15:40+00:00,18.023093223572,2,versionA_stim.csv,READVersionB.csv,"Read Version B","Dissertation, read only version B",ART,LION,Study1,U,79,71,Test,User,-,,Recall,Recall2,17767,class,22.222222222222,16683,17480,0,0,,1
w870202,7wexdmlj6i,Nick_Dissertation_EX1_EP,1,321,2021-11-25T03:16:16+00:00,35.565958976746,2,versionA_stim.csv,READVersionB.csv,"Read Version B","Dissertation, read only version B",ARCHITECTURE,DESIGN,Study1,S,51,35,Test,User,-,,Recall,Recall2,35288,,0,-1,-1,0,0,,1
w870202,7wexdmlj6i,Nick_Dissertation_EX1_EP,1,322,2021-11-25T03:16:17+00:00,1.2336618900299,2,versionA_stim.csv,READVersionB.csv,"Read Version B","Dissertation, read only version B",REVOLUTION,WAR,Study1,F,20,75,Test,User,-,,Recall,Recall2,1082,,0,-1,-1,0,0,,1
w870202,7wexdmlj6i,Nick_Dissertation_EX1_EP,1,323,2021-11-25T03:16:18+00:00,0.63785004615784,2,versionA_stim.csv,READVersionB.csv,"Read Version B","Dissertation, read only version B",ARTERY,BRONZE,Study1,U,74,25,Test,User,-,,Recall,Recall2,447,,0,-1,-1,0,0,,1
w870202,7wexdmlj6i,Nick_Dissertation_EX1_EP,1,324,2021-11-25T03:16:18+00:00,0.25385093688965,2,versionA_stim.csv,READVersionB.csv,"Read Version B","Dissertation, read only version B",ALLOW,TUCK,Study1,U,78,40,Test,User,-,,Recall,Recall2,116,,0,-1,-1,0,0,,1
w870202,7wexdmlj6i,Nick_Dissertation_EX1_EP,1,325,2021-11-25T03:16:18+00:00,0.21818900108337,2,versionA_stim.csv,READVersionB.csv,"Read Version B","Dissertation, read only version B",BALL,RACKET,Study1,B,38,60,Test,User,-,,Recall,Recall2,76,,0,-1,-1,0,0,,1
w870202,7wexdmlj6i,Nick_Dissertation_EX1_EP,1,326,2021-11-25T03:16:18+00:00,0.18051505088806,2,versionA_stim.csv,READVersionB.csv,"Read Version B","Dissertation, read only version B",WAY,OUT,Study1,F,16,19,Test,User,-,,Recall,Recall2,20,,0,-1,-1,0,0,,1
w870202,7wexdmlj6i,Nick_Dissertation_EX1_EP,1,327,2021-11-25T03:16:19+00:00,0.26987099647522,2,versionA_stim.csv,READVersionB.csv,"Read Version B","Dissertation, read only version B",SHOE,FOOT,Study1,S,60,76,Test,User,-,,Recall,Recall2,141,,0,-1,-1,0,0,,1
w870202,7wexdmlj6i,Nick_Dissertation_EX1_EP,1,328,2021-11-25T03:16:19+00:00,0.20698189735413,2,versionA_stim.csv,READVersionB.csv,"Read Version B","Dissertation, read only version B",BATHROOM,TOILET,Study1,S,58,41,Test,User,-,,Recall,Recall2,62,,0,-1,-1,0,0,,1
w870202,7wexdmlj6i,Nick_Dissertation_EX1_EP,1,329,2021-11-25T03:16:19+00:00,0.24308300018311,2,versionA_stim.csv,READVersionB.csv,"Read Version B","Dissertation, read only version B",LAW,ATTORNEY,Study1,B,34,83,Test,User,-,,Recall,Recall2,104,,0,-1,-1,0,0,,1
w870202,7wexdmlj6i,Nick_Dissertation_EX1_EP,1,330,2021-11-25T03:16:19+00:00,0.16697001457214,2,versionA_stim.csv,READVersionB.csv,"Read Version B","Dissertation, read only version B",FULL,ENOUGH,Study1,B,26,47,Test,User,-,,Recall,Recall2,20,,0,-1,-1,0,0,,1
w870202,7wexdmlj6i,Nick_Dissertation_EX1_EP,1,331,2021-11-25T03:16:19+00:00,0.1573371887207,2,versionA_stim.csv,READVersionB.csv,"Read Version B","Dissertation, read only version B",EDITOR,NEWS,Study1,F,10,80,Test,User,-,,Recall,Recall2,25,,0,-1,-1,0,0,,1
w870202,7wexdmlj6i,Nick_Dissertation_EX1_EP,1,332,2021-11-25T03:16:20+00:00,0.25107789039612,2,versionA_stim.csv,READVersionB.csv,"Read Version B","Dissertation, read only version B",CLOTHES,ATTIRE,Study1,B,43,66,Test,User,-,,Recall,Recall2,82,,0,-1,-1,0,0,,1
w870202,7wexdmlj6i,Nick_Dissertation_EX1_EP,1,333,2021-11-25T03:16:20+00:00,0.21625709533691,2,versionA_stim.csv,READVersionB.csv,"Read Version B","Dissertation, read only version B",DISCOVER,FLOOR,Study1,U,71,43,Test,User,-,,Recall,Recall2,65,,0,-1,-1,0,0,,1
w870202,7wexdmlj6i,Nick_Dissertation_EX1_EP,1,334,2021-11-25T03:16:20+00:00,0.24016499519348,2,versionA_stim.csv,READVersionB.csv,"Read Version B","Dissertation, read only version B",BRIDGE,WATER,Study1,F,18,50,Test,User,-,,Recall,Recall2,74,,0,-1,-1,0,0,,1
w870202,7wexdmlj6i,Nick_Dissertation_EX1_EP,1,335,2021-11-25T03:16:22+00:00,1.4418728351593,2,versionA_stim.csv,READVersionB.csv,"Read Version B","Dissertation, read only version B",KEY,LATCH,Study1,B,36,21,Test,User,-,,Recall,Recall2,1282,,0,-1,-1,0,0,,1
w870202,7wexdmlj6i,Nick_Dissertation_EX1_EP,1,336,2021-11-25T03:16:22+00:00,0.30694007873535,2,versionA_stim.csv,READVersionB.csv,"Read Version B","Dissertation, read only version B",SUGAR,RIDDLE,Study1,U,81,31,Test,User,-,,Recall,Recall2,177,,0,-1,-1,0,0,,1
w870202,7wexdmlj6i,Nick_Dissertation_EX1_EP,1,337,2021-11-25T03:16:25+00:00,3.1520380973816,2,versionA_stim.csv,READVersionB.csv,"Read Version B","Dissertation, read only version B",PAW,DOG,Study1,F,15,26,Test,User,-,,Recall,Recall2,3009,pads,28.571428571429,2019,2833,0,0,,1
w870202,7wexdmlj6i,Nick_Dissertation_EX1_EP,1,338,2021-11-25T03:16:27+00:00,2.3278949260712,2,versionA_stim.csv,READVersionB.csv,"Read Version B","Dissertation, read only version B",HERD,COW,Study1,F,22,7,Test,User,-,,Recall,Recall2,2180,cows,85.714285714286,1238,1977,0,1,,1
w870202,7wexdmlj6i,Nick_Dissertation_EX1_EP,1,339,2021-11-25T03:16:28+00:00,0.33559203147888,2,versionA_stim.csv,READVersionB.csv,"Read Version B","Dissertation, read only version B",SWAN,BIRD,Study1,F,14,22,Test,User,-,,Recall,Recall2,199,,0,-1,-1,0,0,,1
w870202,7wexdmlj6i,Nick_Dissertation_EX1_EP,1,340,2021-11-25T03:16:30+00:00,2.0772299766541,2,versionA_stim.csv,READVersionB.csv,"Read Version B","Dissertation, read only version B",CASH,WOULD,Study1,U,83,73,Test,User,-,,Recall,Recall2,1932,money,20,1102,1687,0,0,,1
w870202,7wexdmlj6i,Nick_Dissertation_EX1_EP,1,341,2021-11-25T03:16:31+00:00,1.1395800113678,2,versionA_stim.csv,READVersionB.csv,"Read Version B","Dissertation, read only version B",DISCUSSION,TALK,Study1,F,21,44,Test,User,-,,Recall,Recall2,995,,0,-1,-1,0,0,,1
w870202,7wexdmlj6i,Nick_Dissertation_EX1_EP,1,342,2021-11-25T03:16:33+00:00,2.291650056839,2,versionA_stim.csv,READVersionB.csv,"Read Version B","Dissertation, read only version B",PLANE,PILOT,Study1,B,44,34,Test,User,-,,Recall,Recall2,2142,trip,22.222222222222,1268,1804,0,0,,1
w870202,7wexdmlj6i,Nick_Dissertation_EX1_EP,1,343,2021-11-25T03:16:42+00:00,9.1733589172363,2,versionA_stim.csv,READVersionB.csv,"Read Version B","Dissertation, read only version B",DEATH,BUSINESS,Study1,U,72,46,Test,User,-,,Recall,Recall2,8925,,0,-1,-1,0,0,,1
w870202,7wexdmlj6i,Nick_Dissertation_EX1_EP,1,344,2021-11-25T03:16:43+00:00,1.1693239212036,2,versionA_stim.csv,READVersionB.csv,"Read Version B","Dissertation, read only version B",HEIGHT,GROWTH,Study1,B,30,49,Test,User,-,,Recall,Recall2,1001,,0,-1,-1,0,0,,1
w870202,7wexdmlj6i,Nick_Dissertation_EX1_EP,1,345,2021-11-25T03:17:41+00:00,57.336390018463,2,versionA_stim.csv,READVersionB.csv,"Read Version B","Dissertation, read only version B",BABY,CHILD,Study1,S,64,27,Test,User,-,,Recall,Recall2,57079,items,20,56135,56819,0,0,,1
w870202,7wexdmlj6i,Nick_Dissertation_EX1_EP,1,346,2021-11-25T03:17:43+00:00,2.5243589878082,2,versionA_stim.csv,READVersionB.csv,"Read Version B","Dissertation, read only version B",PARK,HUNGRY,Study1,U,68,70,Test,User,-,,Recall,Recall2,2365,run,44.444444444444,1733,2128,0,0,,1
w870202,7wexdmlj6i,Nick_Dissertation_EX1_EP,1,347,2021-11-25T03:17:46+00:00,2.4800930023193,2,versionA_stim.csv,READVersionB.csv,"Read Version B","Dissertation, read only version B",DUMP,WASTE,Study1,S,49,72,Test,User,-,,Recall,Recall2,2337,trash,40,1357,1996,0,0,,1
w870202,7wexdmlj6i,Nick_Dissertation_EX1_EP,1,348,2021-11-25T03:17:53+00:00,7.5895881652832,2,versionA_stim.csv,READVersionB.csv,"Read Version B","Dissertation, read only version B",VALLEY,ADD,Study1,U,82,42,Test,User,-,,Recall,Recall2,7323,trip,0,6451,6991,0,0,,1
w870202,7wexdmlj6i,Nick_Dissertation_EX1_EP,1,349,2021-11-25T03:17:54+00:00,0.52766585350037,2,versionA_stim.csv,READVersionB.csv,"Read Version B","Dissertation, read only version B",PUSHER,CLUTTER,Study1,U,66,38,Test,User,-,,Recall,Recall2,383,,0,-1,-1,0,0,,1
w870202,7wexdmlj6i,Nick_Dissertation_EX1_EP,1,350,2021-11-25T03:17:54+00:00,0.23562097549438,2,versionA_stim.csv,READVersionB.csv,"Read Version B","Dissertation, read only version B",MEANING,DEFINITION,Study1,S,62,11,Test,User,-,,Recall,Recall2,97,,0,-1,-1,0,0,,1
w870202,7wexdmlj6i,Nick_Dissertation_EX1_EP,1,351,2021-11-25T03:17:54+00:00,0.22185802459717,2,versionA_stim.csv,READVersionB.csv,"Read Version B","Dissertation, read only version B",HYGIENE,CLEAN,Study1,F,17,86,Test,User,-,,Recall,Recall2,80,,0,-1,-1,0,0,,1
w870202,7wexdmlj6i,Nick_Dissertation_EX1_EP,1,352,2021-11-25T03:17:56+00:00,1.1249921321869,2,versionA_stim.csv,READVersionB.csv,"Read Version B","Dissertation, read only version B",,,,,,0,Instruct,User,-,"You have completed this section. Please press Enter.",,Instruct7,966,,,-1,-1,,,,1
w870202,7wexdmlj6i,Nick_Dissertation_EX1_EP,1,353,2021-11-25T03:17:58+00:00,2.1776788234711,2,versionA_stim.csv,READVersionB.csv,"Read Version B","Dissertation, read only version B",,,,,,0,Instruct,User,-,"The following screen will ask you a few questions abour your experience today. You must complete these questions to receive credit.",,Instruct8,2035,,,-1,-1,,,,1
