Username,ID,ExperimentName,Session,Trial,Date,TimeDif,"Condition Number","Stimuli File","Order File","Condition Description","Condition Notes",Stimuli*Cue,Stimuli*Answer,Stimuli*Shuffle,"Stimuli*Stimuli Notes",Stimuli*Value,Procedure*Item,"Procedure*Trial Type","Procedure*Max Time","Procedure*Min Time",Procedure*Text,"Procedure*Procedure Notes",Procedure*Shuffle,Response*RT,Response*Response,Response*Accuracy,Response*RTfirst,Response*RTlast,Response*strictAcc,Response*lenientAcc,Response*focus,Response*Focus
W10129411_WB,3fy6z5nhyo,Nick_Dissertation_EX1_EP,1,1,2021-12-01T20:32:40+00:00,6.2716310024261,1,versionA_stim.csv,READVersionA.csv,"Read Version A","Dissertation, read only version A",,,,,,0,Instruct,-,5,"In this section, you will be presented with a series of word pairs.",Initial_Instruct,Instruct1,5922,,,-1,-1,,,,1
W10129411_WB,3fy6z5nhyo,Nick_Dissertation_EX1_EP,1,2,2021-12-01T20:33:02+00:00,22.044305086136,1,versionA_stim.csv,READVersionA.csv,"Read Version A","Dissertation, read only version A",,,,,,0,Instruct,-,10,"Each word will be displayed on the computer screen for 8 seconds. The screen will automatically move to the next pair when time is up. Please study each pair. Your memory will be tested!",,Instruct15,21985,,,-1,-1,,,,0.6
W10129411_WB,3fy6z5nhyo,Nick_Dissertation_EX1_EP,1,3,2021-12-01T20:33:22+00:00,19.471613883972,1,versionA_stim.csv,READVersionA.csv,"Read Version A","Dissertation, read only version A",,,,,,0,Instruct,User,-,"You will now begin the study. Press Enter when you are ready to begin.",,Instruct16,19410,,,-1,-1,,,,0.351
W10129411_WB,3fy6z5nhyo,Nick_Dissertation_EX1_EP,1,4,2021-12-01T20:33:30+00:00,8.0702512264252,1,versionA_stim.csv,READVersionA.csv,"Read Version A","Dissertation, read only version A",TREES,GREEN,BUFFER1,Buffer,1,2,Study,8,8,,Study/JOL,BUFFER,8000,,,-1,-1,,,,0.225
W10129411_WB,3fy6z5nhyo,Nick_Dissertation_EX1_EP,1,5,2021-12-01T20:33:38+00:00,8.0588748455048,1,versionA_stim.csv,READVersionA.csv,"Read Version A","Dissertation, read only version A",SCARE,HIDE,BUFFER1,Buffer,4,6,Study,8,8,,Study/JOL,BUFFER,8001,,,-1,-1,,,,0
W10129411_WB,3fy6z5nhyo,Nick_Dissertation_EX1_EP,1,6,2021-12-01T20:33:46+00:00,8.0565419197083,1,versionA_stim.csv,READVersionA.csv,"Read Version A","Dissertation, read only version A",PEANUT,BUTTER,BUFFER1,Buffer,3,3,Study,8,8,,Study/JOL,BUFFER,8001,,,-1,-1,,,,0
W10129411_WB,3fy6z5nhyo,Nick_Dissertation_EX1_EP,1,7,2021-12-01T20:33:54+00:00,8.0621402263641,1,versionA_stim.csv,READVersionA.csv,"Read Version A","Dissertation, read only version A",BASEBALL,CATCHER,BUFFER1,Buffer,2,5,Study,8,8,,Study/JOL,BUFFER,8001,,,-1,-1,,,,0
W10129411_WB,3fy6z5nhyo,Nick_Dissertation_EX1_EP,1,8,2021-12-01T20:34:02+00:00,8.1014659404755,1,versionA_stim.csv,READVersionA.csv,"Read Version A","Dissertation, read only version A",SPACE,JAM,BUFFER1,Buffer,5,4,Study,8,8,,Study/JOL,BUFFER,8002,,,-1,-1,,,,0
W10129411_WB,3fy6z5nhyo,Nick_Dissertation_EX1_EP,1,9,2021-12-01T20:34:10+00:00,8.0638449192047,1,versionA_stim.csv,READVersionA.csv,"Read Version A","Dissertation, read only version A",HIDE,SICK,Study1,U,84,34,Study,8,8,,Study/JOL,"Study Phase",8000,,,-1,-1,,,,0
W10129411_WB,3fy6z5nhyo,Nick_Dissertation_EX1_EP,1,10,2021-12-01T20:34:18+00:00,8.0769801139832,1,versionA_stim.csv,READVersionA.csv,"Read Version A","Dissertation, read only version A",ART,LION,Study1,U,79,67,Study,8,8,,Study/JOL,"Study Phase",8001,,,-1,-1,,,,0
W10129411_WB,3fy6z5nhyo,Nick_Dissertation_EX1_EP,1,11,2021-12-01T20:34:26+00:00,8.063759803772,1,versionA_stim.csv,READVersionA.csv,"Read Version A","Dissertation, read only version A",BEGIN,END,Study1,S,54,74,Study,8,8,,Study/JOL,"Study Phase",8001,,,-1,-1,,,,0
W10129411_WB,3fy6z5nhyo,Nick_Dissertation_EX1_EP,1,12,2021-12-01T20:34:34+00:00,8.0626230239868,1,versionA_stim.csv,READVersionA.csv,"Read Version A","Dissertation, read only version A",WINE,CHEESE,Study1,S,57,63,Study,8,8,,Study/JOL,"Study Phase",8004,,,-1,-1,,,,0
W10129411_WB,3fy6z5nhyo,Nick_Dissertation_EX1_EP,1,13,2021-12-01T20:34:42+00:00,8.0610640048981,1,versionA_stim.csv,READVersionA.csv,"Read Version A","Dissertation, read only version A",HEIGHT,GROWTH,Study1,B,30,54,Study,8,8,,Study/JOL,"Study Phase",8001,,,-1,-1,,,,0
W10129411_WB,3fy6z5nhyo,Nick_Dissertation_EX1_EP,1,14,2021-12-01T20:34:50+00:00,8.060467004776,1,versionA_stim.csv,READVersionA.csv,"Read Version A","Dissertation, read only version A",WORK,CHORE,Study1,B,39,55,Study,8,8,,Study/JOL,"Study Phase",8001,,,-1,-1,,,,0
W10129411_WB,3fy6z5nhyo,Nick_Dissertation_EX1_EP,1,15,2021-12-01T20:34:58+00:00,8.0598261356354,1,versionA_stim.csv,READVersionA.csv,"Read Version A","Dissertation, read only version A",HONEY,BEE,Study1,S,63,40,Study,8,8,,Study/JOL,"Study Phase",8000,,,-1,-1,,,,0
W10129411_WB,3fy6z5nhyo,Nick_Dissertation_EX1_EP,1,16,2021-12-01T20:35:06+00:00,8.0602869987488,1,versionA_stim.csv,READVersionA.csv,"Read Version A","Dissertation, read only version A",NUMBER,AMOUNT,Study1,S,47,60,Study,8,8,,Study/JOL,"Study Phase",8001,,,-1,-1,,,,0
W10129411_WB,3fy6z5nhyo,Nick_Dissertation_EX1_EP,1,17,2021-12-01T20:35:15+00:00,8.0894899368286,1,versionA_stim.csv,READVersionA.csv,"Read Version A","Dissertation, read only version A",BALL,RACKET,Study1,B,38,12,Study,8,8,,Study/JOL,"Study Phase",8000,,,-1,-1,,,,0
W10129411_WB,3fy6z5nhyo,Nick_Dissertation_EX1_EP,1,18,2021-12-01T20:35:23+00:00,8.07377409935,1,versionA_stim.csv,READVersionA.csv,"Read Version A","Dissertation, read only version A",DEBATE,SIGHT,Study1,U,73,45,Study,8,8,,Study/JOL,"Study Phase",8001,,,-1,-1,,,,0
W10129411_WB,3fy6z5nhyo,Nick_Dissertation_EX1_EP,1,19,2021-12-01T20:35:31+00:00,8.0613160133362,1,versionA_stim.csv,READVersionA.csv,"Read Version A","Dissertation, read only version A",ORCHID,FLOWER,Study1,F,24,19,Study,8,8,,Study/JOL,"Study Phase",8000,,,-1,-1,,,,0
W10129411_WB,3fy6z5nhyo,Nick_Dissertation_EX1_EP,1,20,2021-12-01T20:35:39+00:00,8.058825969696,1,versionA_stim.csv,READVersionA.csv,"Read Version A","Dissertation, read only version A",DIGESTION,STOMACH,Study1,F,7,16,Study,8,8,,Study/JOL,"Study Phase",8001,,,-1,-1,,,,0
W10129411_WB,3fy6z5nhyo,Nick_Dissertation_EX1_EP,1,21,2021-12-01T20:35:47+00:00,8.0604009628296,1,versionA_stim.csv,READVersionA.csv,"Read Version A","Dissertation, read only version A",BITTER,COLD,Study1,F,12,64,Study,8,8,,Study/JOL,"Study Phase",8000,,,-1,-1,,,,0
W10129411_WB,3fy6z5nhyo,Nick_Dissertation_EX1_EP,1,22,2021-12-01T20:35:55+00:00,8.0575439929962,1,versionA_stim.csv,READVersionA.csv,"Read Version A","Dissertation, read only version A",LOCATION,SITE,Study1,S,48,17,Study,8,8,,Study/JOL,"Study Phase",8001,,,-1,-1,,,,0
W10129411_WB,3fy6z5nhyo,Nick_Dissertation_EX1_EP,1,23,2021-12-01T20:36:03+00:00,8.0654380321503,1,versionA_stim.csv,READVersionA.csv,"Read Version A","Dissertation, read only version A",BATHROOM,TOILET,Study1,S,58,13,Study,8,8,,Study/JOL,"Study Phase",8001,,,-1,-1,,,,0
W10129411_WB,3fy6z5nhyo,Nick_Dissertation_EX1_EP,1,24,2021-12-01T20:36:11+00:00,8.1021189689636,1,versionA_stim.csv,READVersionA.csv,"Read Version A","Dissertation, read only version A",KING,VASE,Study1,U,85,32,Study,8,8,,Study/JOL,"Study Phase",8001,,,-1,-1,,,,0
W10129411_WB,3fy6z5nhyo,Nick_Dissertation_EX1_EP,1,25,2021-12-01T20:36:19+00:00,8.0671038627625,1,versionA_stim.csv,READVersionA.csv,"Read Version A","Dissertation, read only version A",ROOT,PLANT,Study1,F,13,42,Study,8,8,,Study/JOL,"Study Phase",8003,,,-1,-1,,,,0
W10129411_WB,3fy6z5nhyo,Nick_Dissertation_EX1_EP,1,26,2021-12-01T20:36:27+00:00,8.0589489936829,1,versionA_stim.csv,READVersionA.csv,"Read Version A","Dissertation, read only version A",VALLEY,ADD,Study1,U,82,84,Study,8,8,,Study/JOL,"Study Phase",8001,,,-1,-1,,,,0
W10129411_WB,3fy6z5nhyo,Nick_Dissertation_EX1_EP,1,27,2021-12-01T20:36:35+00:00,8.0614910125732,1,versionA_stim.csv,READVersionA.csv,"Read Version A","Dissertation, read only version A",PAST,FUTURE,Study1,S,61,59,Study,8,8,,Study/JOL,"Study Phase",8000,,,-1,-1,,,,0
W10129411_WB,3fy6z5nhyo,Nick_Dissertation_EX1_EP,1,28,2021-12-01T20:36:43+00:00,8.0633821487427,1,versionA_stim.csv,READVersionA.csv,"Read Version A","Dissertation, read only version A",DISCUSSION,TALK,Study1,F,21,10,Study,8,8,,Study/JOL,"Study Phase",8001,,,-1,-1,,,,0
W10129411_WB,3fy6z5nhyo,Nick_Dissertation_EX1_EP,1,29,2021-12-01T20:36:51+00:00,8.0661659240723,1,versionA_stim.csv,READVersionA.csv,"Read Version A","Dissertation, read only version A",TRIAL,JURY,Study1,S,50,49,Study,8,8,,Study/JOL,"Study Phase",8002,,,-1,-1,,,,0
W10129411_WB,3fy6z5nhyo,Nick_Dissertation_EX1_EP,1,30,2021-12-01T20:36:59+00:00,8.0861909389496,1,versionA_stim.csv,READVersionA.csv,"Read Version A","Dissertation, read only version A",PARK,HUNGRY,Study1,U,68,18,Study,8,8,,Study/JOL,"Study Phase",8000,,,-1,-1,,,,0
W10129411_WB,3fy6z5nhyo,Nick_Dissertation_EX1_EP,1,31,2021-12-01T20:37:07+00:00,8.0730020999908,1,versionA_stim.csv,READVersionA.csv,"Read Version A","Dissertation, read only version A",HAPPY,CAR,Study1,U,77,51,Study,8,8,,Study/JOL,"Study Phase",8001,,,-1,-1,,,,0
W10129411_WB,3fy6z5nhyo,Nick_Dissertation_EX1_EP,1,32,2021-12-01T20:37:16+00:00,8.0708019733429,1,versionA_stim.csv,READVersionA.csv,"Read Version A","Dissertation, read only version A",CIRCLE,ROUND,Study1,S,65,83,Study,8,8,,Study/JOL,"Study Phase",8001,,,-1,-1,,,,0
W10129411_WB,3fy6z5nhyo,Nick_Dissertation_EX1_EP,1,33,2021-12-01T20:37:24+00:00,8.0705559253693,1,versionA_stim.csv,READVersionA.csv,"Read Version A","Dissertation, read only version A",SLEEP,DROWSY,Study1,B,41,71,Study,8,8,,Study/JOL,"Study Phase",8000,,,-1,-1,,,,0
W10129411_WB,3fy6z5nhyo,Nick_Dissertation_EX1_EP,1,34,2021-12-01T20:37:32+00:00,8.0648641586304,1,versionA_stim.csv,READVersionA.csv,"Read Version A","Dissertation, read only version A",MACHINE,POSITION,Study1,U,76,77,Study,8,8,,Study/JOL,"Study Phase",8002,,,-1,-1,,,,0
W10129411_WB,3fy6z5nhyo,Nick_Dissertation_EX1_EP,1,35,2021-12-01T20:37:40+00:00,8.0640430450439,1,versionA_stim.csv,READVersionA.csv,"Read Version A","Dissertation, read only version A",GREAT,FANTASTIC,Study1,B,35,78,Study,8,8,,Study/JOL,"Study Phase",8001,,,-1,-1,,,,0
W10129411_WB,3fy6z5nhyo,Nick_Dissertation_EX1_EP,1,36,2021-12-01T20:37:48+00:00,8.0627539157867,1,versionA_stim.csv,READVersionA.csv,"Read Version A","Dissertation, read only version A",DRINK,SIP,Study1,B,27,33,Study,8,8,,Study/JOL,"Study Phase",8001,,,-1,-1,,,,0
W10129411_WB,3fy6z5nhyo,Nick_Dissertation_EX1_EP,1,37,2021-12-01T20:37:56+00:00,8.0647978782654,1,versionA_stim.csv,READVersionA.csv,"Read Version A","Dissertation, read only version A",SOON,BELT,Study1,U,70,70,Study,8,8,,Study/JOL,"Study Phase",8004,,,-1,-1,,,,0
W10129411_WB,3fy6z5nhyo,Nick_Dissertation_EX1_EP,1,38,2021-12-01T20:38:04+00:00,8.0652711391449,1,versionA_stim.csv,READVersionA.csv,"Read Version A","Dissertation, read only version A",BLOW,WIND,Study1,S,55,15,Study,8,8,,Study/JOL,"Study Phase",8000,,,-1,-1,,,,0
W10129411_WB,3fy6z5nhyo,Nick_Dissertation_EX1_EP,1,39,2021-12-01T20:38:12+00:00,8.0800499916077,1,versionA_stim.csv,READVersionA.csv,"Read Version A","Dissertation, read only version A",ARCHITECTURE,DESIGN,Study1,S,51,86,Study,8,8,,Study/JOL,"Study Phase",8000,,,-1,-1,,,,0
W10129411_WB,3fy6z5nhyo,Nick_Dissertation_EX1_EP,1,40,2021-12-01T20:38:20+00:00,8.0613009929657,1,versionA_stim.csv,READVersionA.csv,"Read Version A","Dissertation, read only version A",ARTERY,BRONZE,Study1,U,74,44,Study,8,8,,Study/JOL,"Study Phase",8000,,,-1,-1,,,,0
W10129411_WB,3fy6z5nhyo,Nick_Dissertation_EX1_EP,1,41,2021-12-01T20:38:28+00:00,8.0580670833588,1,versionA_stim.csv,READVersionA.csv,"Read Version A","Dissertation, read only version A",DIETARY,SACKING,Study1,U,67,29,Study,8,8,,Study/JOL,"Study Phase",8000,,,-1,-1,,,,0
W10129411_WB,3fy6z5nhyo,Nick_Dissertation_EX1_EP,1,42,2021-12-01T20:38:36+00:00,8.0627288818359,1,versionA_stim.csv,READVersionA.csv,"Read Version A","Dissertation, read only version A",POP,SODA,Study1,S,56,81,Study,8,8,,Study/JOL,"Study Phase",8000,,,-1,-1,,,,0
W10129411_WB,3fy6z5nhyo,Nick_Dissertation_EX1_EP,1,43,2021-12-01T20:38:45+00:00,8.4107959270477,1,versionA_stim.csv,READVersionA.csv,"Read Version A","Dissertation, read only version A",LETTUCE,SALAD,Study1,S,59,39,Study,8,8,,Study/JOL,"Study Phase",8001,,,-1,-1,,,,0
W10129411_WB,3fy6z5nhyo,Nick_Dissertation_EX1_EP,1,44,2021-12-01T20:38:53+00:00,8.066486120224,1,versionA_stim.csv,READVersionA.csv,"Read Version A","Dissertation, read only version A",CHISEL,HAMMER,Study1,F,9,28,Study,8,8,,Study/JOL,"Study Phase",8000,,,-1,-1,,,,0
W10129411_WB,3fy6z5nhyo,Nick_Dissertation_EX1_EP,1,45,2021-12-01T20:39:01+00:00,8.1023318767548,1,versionA_stim.csv,READVersionA.csv,"Read Version A","Dissertation, read only version A",WAY,OUT,Study1,F,16,43,Study,8,8,,Study/JOL,"Study Phase",8001,,,-1,-1,,,,0
W10129411_WB,3fy6z5nhyo,Nick_Dissertation_EX1_EP,1,46,2021-12-01T20:39:09+00:00,8.0643930435181,1,versionA_stim.csv,READVersionA.csv,"Read Version A","Dissertation, read only version A",HUNGER,FAMINE,Study1,B,40,25,Study,8,8,,Study/JOL,"Study Phase",8001,,,-1,-1,,,,0
W10129411_WB,3fy6z5nhyo,Nick_Dissertation_EX1_EP,1,47,2021-12-01T20:39:17+00:00,8.0612659454346,1,versionA_stim.csv,READVersionA.csv,"Read Version A","Dissertation, read only version A",ALLOW,TUCK,Study1,U,78,11,Study,8,8,,Study/JOL,"Study Phase",8000,,,-1,-1,,,,0
W10129411_WB,3fy6z5nhyo,Nick_Dissertation_EX1_EP,1,48,2021-12-01T20:39:25+00:00,8.0593039989471,1,versionA_stim.csv,READVersionA.csv,"Read Version A","Dissertation, read only version A",SHOE,FOOT,Study1,S,60,24,Study,8,8,,Study/JOL,"Study Phase",8001,,,-1,-1,,,,0
W10129411_WB,3fy6z5nhyo,Nick_Dissertation_EX1_EP,1,49,2021-12-01T20:39:33+00:00,8.0618460178375,1,versionA_stim.csv,READVersionA.csv,"Read Version A","Dissertation, read only version A",FIX,HAND,Study1,U,75,9,Study,8,8,,Study/JOL,"Study Phase",8000,,,-1,-1,,,,0
W10129411_WB,3fy6z5nhyo,Nick_Dissertation_EX1_EP,1,50,2021-12-01T20:39:41+00:00,8.0648641586304,1,versionA_stim.csv,READVersionA.csv,"Read Version A","Dissertation, read only version A",BABY,CHILD,Study1,S,64,68,Study,8,8,,Study/JOL,"Study Phase",8000,,,-1,-1,,,,0
W10129411_WB,3fy6z5nhyo,Nick_Dissertation_EX1_EP,1,51,2021-12-01T20:39:49+00:00,8.0621700286865,1,versionA_stim.csv,READVersionA.csv,"Read Version A","Dissertation, read only version A",DUE,ASSIGNMENT,Study1,S,46,46,Study,8,8,,Study/JOL,"Study Phase",8000,,,-1,-1,,,,0
W10129411_WB,3fy6z5nhyo,Nick_Dissertation_EX1_EP,1,52,2021-12-01T20:39:57+00:00,8.059937953949,1,versionA_stim.csv,READVersionA.csv,"Read Version A","Dissertation, read only version A",SENTENCE,WORD,Study1,B,31,21,Study,8,8,,Study/JOL,"Study Phase",8000,,,-1,-1,,,,0
W10129411_WB,3fy6z5nhyo,Nick_Dissertation_EX1_EP,1,53,2021-12-01T20:40:05+00:00,8.0650899410248,1,versionA_stim.csv,READVersionA.csv,"Read Version A","Dissertation, read only version A",MEANING,DEFINITION,Study1,S,62,73,Study,8,8,,Study/JOL,"Study Phase",8000,,,-1,-1,,,,0
W10129411_WB,3fy6z5nhyo,Nick_Dissertation_EX1_EP,1,54,2021-12-01T20:40:13+00:00,8.0636849403381,1,versionA_stim.csv,READVersionA.csv,"Read Version A","Dissertation, read only version A",KIDNEY,LIVER,Study1,S,53,27,Study,8,8,,Study/JOL,"Study Phase",8000,,,-1,-1,,,,0
W10129411_WB,3fy6z5nhyo,Nick_Dissertation_EX1_EP,1,55,2021-12-01T20:40:21+00:00,8.063159942627,1,versionA_stim.csv,READVersionA.csv,"Read Version A","Dissertation, read only version A",WAGE,MONEY,Study1,F,8,14,Study,8,8,,Study/JOL,"Study Phase",8002,,,-1,-1,,,,0
W10129411_WB,3fy6z5nhyo,Nick_Dissertation_EX1_EP,1,56,2021-12-01T20:40:29+00:00,8.0561201572418,1,versionA_stim.csv,READVersionA.csv,"Read Version A","Dissertation, read only version A",GEOLOGY,ROCK,Study1,F,19,7,Study,8,8,,Study/JOL,"Study Phase",8000,,,-1,-1,,,,0
W10129411_WB,3fy6z5nhyo,Nick_Dissertation_EX1_EP,1,57,2021-12-01T20:40:38+00:00,8.0983200073242,1,versionA_stim.csv,READVersionA.csv,"Read Version A","Dissertation, read only version A",PAW,DOG,Study1,F,15,69,Study,8,8,,Study/JOL,"Study Phase",8000,,,-1,-1,,,,0
W10129411_WB,3fy6z5nhyo,Nick_Dissertation_EX1_EP,1,58,2021-12-01T20:40:46+00:00,8.0838868618011,1,versionA_stim.csv,READVersionA.csv,"Read Version A","Dissertation, read only version A",CASH,WOULD,Study1,U,83,35,Study,8,8,,Study/JOL,"Study Phase",8001,,,-1,-1,,,,0
W10129411_WB,3fy6z5nhyo,Nick_Dissertation_EX1_EP,1,59,2021-12-01T20:40:54+00:00,8.0654280185699,1,versionA_stim.csv,READVersionA.csv,"Read Version A","Dissertation, read only version A",DISCOVER,FLOOR,Study1,U,71,57,Study,8,8,,Study/JOL,"Study Phase",8001,,,-1,-1,,,,0
W10129411_WB,3fy6z5nhyo,Nick_Dissertation_EX1_EP,1,60,2021-12-01T20:41:02+00:00,8.0616080760956,1,versionA_stim.csv,READVersionA.csv,"Read Version A","Dissertation, read only version A",MATH,DIVISION,Study1,B,33,62,Study,8,8,,Study/JOL,"Study Phase",8001,,,-1,-1,,,,0
W10129411_WB,3fy6z5nhyo,Nick_Dissertation_EX1_EP,1,61,2021-12-01T20:41:10+00:00,8.0634639263153,1,versionA_stim.csv,READVersionA.csv,"Read Version A","Dissertation, read only version A",SUGAR,RIDDLE,Study1,U,81,79,Study,8,8,,Study/JOL,"Study Phase",8001,,,-1,-1,,,,0
W10129411_WB,3fy6z5nhyo,Nick_Dissertation_EX1_EP,1,62,2021-12-01T20:41:18+00:00,8.0669310092926,1,versionA_stim.csv,READVersionA.csv,"Read Version A","Dissertation, read only version A",HOT,CHILI,Study1,B,37,47,Study,8,8,,Study/JOL,"Study Phase",8000,,,-1,-1,,,,0
W10129411_WB,3fy6z5nhyo,Nick_Dissertation_EX1_EP,1,63,2021-12-01T20:41:26+00:00,8.0626339912415,1,versionA_stim.csv,READVersionA.csv,"Read Version A","Dissertation, read only version A",DARK,CAVE,Study1,B,28,53,Study,8,8,,Study/JOL,"Study Phase",8000,,,-1,-1,,,,0
W10129411_WB,3fy6z5nhyo,Nick_Dissertation_EX1_EP,1,64,2021-12-01T20:41:34+00:00,8.0652229785919,1,versionA_stim.csv,READVersionA.csv,"Read Version A","Dissertation, read only version A",BRIDGE,WATER,Study1,F,18,75,Study,8,8,,Study/JOL,"Study Phase",8001,,,-1,-1,,,,0
W10129411_WB,3fy6z5nhyo,Nick_Dissertation_EX1_EP,1,65,2021-12-01T20:41:42+00:00,8.0632791519165,1,versionA_stim.csv,READVersionA.csv,"Read Version A","Dissertation, read only version A",CREDIT,CARD,Study1,F,23,65,Study,8,8,,Study/JOL,"Study Phase",8002,,,-1,-1,,,,0
W10129411_WB,3fy6z5nhyo,Nick_Dissertation_EX1_EP,1,66,2021-12-01T20:41:50+00:00,8.0626068115234,1,versionA_stim.csv,READVersionA.csv,"Read Version A","Dissertation, read only version A",FULL,ENOUGH,Study1,B,26,26,Study,8,8,,Study/JOL,"Study Phase",8001,,,-1,-1,,,,0
W10129411_WB,3fy6z5nhyo,Nick_Dissertation_EX1_EP,1,67,2021-12-01T20:41:58+00:00,8.0648701190948,1,versionA_stim.csv,READVersionA.csv,"Read Version A","Dissertation, read only version A",EDITOR,NEWS,Study1,F,10,38,Study,8,8,,Study/JOL,"Study Phase",8000,,,-1,-1,,,,0
W10129411_WB,3fy6z5nhyo,Nick_Dissertation_EX1_EP,1,68,2021-12-01T20:42:06+00:00,8.0618100166321,1,versionA_stim.csv,READVersionA.csv,"Read Version A","Dissertation, read only version A",STRONG,ACCIDENT,Study1,U,80,23,Study,8,8,,Study/JOL,"Study Phase",8000,,,-1,-1,,,,0
W10129411_WB,3fy6z5nhyo,Nick_Dissertation_EX1_EP,1,69,2021-12-01T20:42:14+00:00,8.0607390403748,1,versionA_stim.csv,READVersionA.csv,"Read Version A","Dissertation, read only version A",SMELL,STENCH,Study1,B,42,36,Study,8,8,,Study/JOL,"Study Phase",8000,,,-1,-1,,,,0
W10129411_WB,3fy6z5nhyo,Nick_Dissertation_EX1_EP,1,70,2021-12-01T20:42:22+00:00,8.0564739704132,1,versionA_stim.csv,READVersionA.csv,"Read Version A","Dissertation, read only version A",TAKE,SEIZE,Study1,B,29,20,Study,8,8,,Study/JOL,"Study Phase",8000,,,-1,-1,,,,0
W10129411_WB,3fy6z5nhyo,Nick_Dissertation_EX1_EP,1,71,2021-12-01T20:42:30+00:00,8.0660939216614,1,versionA_stim.csv,READVersionA.csv,"Read Version A","Dissertation, read only version A",HERD,COW,Study1,F,22,66,Study,8,8,,Study/JOL,"Study Phase",8001,,,-1,-1,,,,0
W10129411_WB,3fy6z5nhyo,Nick_Dissertation_EX1_EP,1,72,2021-12-01T20:42:39+00:00,8.0915770530701,1,versionA_stim.csv,READVersionA.csv,"Read Version A","Dissertation, read only version A",LAW,ATTORNEY,Study1,B,34,56,Study,8,8,,Study/JOL,"Study Phase",8001,,,-1,-1,,,,0
W10129411_WB,3fy6z5nhyo,Nick_Dissertation_EX1_EP,1,73,2021-12-01T20:42:47+00:00,8.1255929470062,1,versionA_stim.csv,READVersionA.csv,"Read Version A","Dissertation, read only version A",DELINQUENT,BAD,Study1,F,6,37,Study,8,8,,Study/JOL,"Study Phase",8002,,,-1,-1,,,,0
W10129411_WB,3fy6z5nhyo,Nick_Dissertation_EX1_EP,1,74,2021-12-01T20:42:55+00:00,8.0670230388641,1,versionA_stim.csv,READVersionA.csv,"Read Version A","Dissertation, read only version A",PUSHER,CLUTTER,Study1,U,66,48,Study,8,8,,Study/JOL,"Study Phase",8001,,,-1,-1,,,,0
W10129411_WB,3fy6z5nhyo,Nick_Dissertation_EX1_EP,1,75,2021-12-01T20:43:03+00:00,8.0982179641724,1,versionA_stim.csv,READVersionA.csv,"Read Version A","Dissertation, read only version A",HORNET,STING,Study1,F,11,41,Study,8,8,,Study/JOL,"Study Phase",8000,,,-1,-1,,,,0
W10129411_WB,3fy6z5nhyo,Nick_Dissertation_EX1_EP,1,76,2021-12-01T20:43:11+00:00,8.0644710063934,1,versionA_stim.csv,READVersionA.csv,"Read Version A","Dissertation, read only version A",REVOLUTION,WAR,Study1,F,20,76,Study,8,8,,Study/JOL,"Study Phase",8001,,,-1,-1,,,,0
W10129411_WB,3fy6z5nhyo,Nick_Dissertation_EX1_EP,1,77,2021-12-01T20:43:19+00:00,8.0653359889984,1,versionA_stim.csv,READVersionA.csv,"Read Version A","Dissertation, read only version A",DUMP,WASTE,Study1,S,49,82,Study,8,8,,Study/JOL,"Study Phase",8003,,,-1,-1,,,,0
W10129411_WB,3fy6z5nhyo,Nick_Dissertation_EX1_EP,1,78,2021-12-01T20:43:27+00:00,8.0965130329132,1,versionA_stim.csv,READVersionA.csv,"Read Version A","Dissertation, read only version A",LIFT,WOMAN,Study1,U,69,22,Study,8,8,,Study/JOL,"Study Phase",8001,,,-1,-1,,,,0
W10129411_WB,3fy6z5nhyo,Nick_Dissertation_EX1_EP,1,79,2021-12-01T20:43:35+00:00,8.0900480747223,1,versionA_stim.csv,READVersionA.csv,"Read Version A","Dissertation, read only version A",CLOTHES,ATTIRE,Study1,B,43,61,Study,8,8,,Study/JOL,"Study Phase",8001,,,-1,-1,,,,0
W10129411_WB,3fy6z5nhyo,Nick_Dissertation_EX1_EP,1,80,2021-12-01T20:43:43+00:00,8.062155008316,1,versionA_stim.csv,READVersionA.csv,"Read Version A","Dissertation, read only version A",TUNA,FISH,Study1,F,25,72,Study,8,8,,Study/JOL,"Study Phase",8001,,,-1,-1,,,,0
W10129411_WB,3fy6z5nhyo,Nick_Dissertation_EX1_EP,1,81,2021-12-01T20:43:51+00:00,8.0666379928589,1,versionA_stim.csv,READVersionA.csv,"Read Version A","Dissertation, read only version A",DEATH,BUSINESS,Study1,U,72,8,Study,8,8,,Study/JOL,"Study Phase",8001,,,-1,-1,,,,0
W10129411_WB,3fy6z5nhyo,Nick_Dissertation_EX1_EP,1,82,2021-12-01T20:43:59+00:00,8.0641169548035,1,versionA_stim.csv,READVersionA.csv,"Read Version A","Dissertation, read only version A",BUG,WASP,Study1,B,32,50,Study,8,8,,Study/JOL,"Study Phase",8000,,,-1,-1,,,,0
W10129411_WB,3fy6z5nhyo,Nick_Dissertation_EX1_EP,1,83,2021-12-01T20:44:07+00:00,8.0640060901642,1,versionA_stim.csv,READVersionA.csv,"Read Version A","Dissertation, read only version A",HYGIENE,CLEAN,Study1,F,17,30,Study,8,8,,Study/JOL,"Study Phase",8001,,,-1,-1,,,,0
W10129411_WB,3fy6z5nhyo,Nick_Dissertation_EX1_EP,1,84,2021-12-01T20:44:16+00:00,8.0860137939453,1,versionA_stim.csv,READVersionA.csv,"Read Version A","Dissertation, read only version A",FIRE,BLAZE,Study1,B,45,85,Study,8,8,,Study/JOL,"Study Phase",8004,,,-1,-1,,,,0
W10129411_WB,3fy6z5nhyo,Nick_Dissertation_EX1_EP,1,85,2021-12-01T20:44:24+00:00,8.0638341903687,1,versionA_stim.csv,READVersionA.csv,"Read Version A","Dissertation, read only version A",PLANE,PILOT,Study1,B,44,58,Study,8,8,,Study/JOL,"Study Phase",8001,,,-1,-1,,,,0
W10129411_WB,3fy6z5nhyo,Nick_Dissertation_EX1_EP,1,86,2021-12-01T20:44:32+00:00,8.0645279884338,1,versionA_stim.csv,READVersionA.csv,"Read Version A","Dissertation, read only version A",KEY,LATCH,Study1,B,36,31,Study,8,8,,Study/JOL,"Study Phase",8001,,,-1,-1,,,,0
W10129411_WB,3fy6z5nhyo,Nick_Dissertation_EX1_EP,1,87,2021-12-01T20:44:40+00:00,8.0615849494934,1,versionA_stim.csv,READVersionA.csv,"Read Version A","Dissertation, read only version A",GRILL,BAR,Study1,S,52,52,Study,8,8,,Study/JOL,"Study Phase",8001,,,-1,-1,,,,0
W10129411_WB,3fy6z5nhyo,Nick_Dissertation_EX1_EP,1,88,2021-12-01T20:44:48+00:00,8.059063911438,1,versionA_stim.csv,READVersionA.csv,"Read Version A","Dissertation, read only version A",SWAN,BIRD,Study1,F,14,80,Study,8,8,,Study/JOL,"Study Phase",8001,,,-1,-1,,,,0
W10129411_WB,3fy6z5nhyo,Nick_Dissertation_EX1_EP,1,89,2021-12-01T20:44:56+00:00,8.0609719753265,1,versionA_stim.csv,READVersionA.csv,"Read Version A","Dissertation, read only version A",GEESE,GOOSE,BUFFER2,Buffer,86,89,Study,8,8,,Study/JOL,BUFFER2,8000,,,-1,-1,,,,0
W10129411_WB,3fy6z5nhyo,Nick_Dissertation_EX1_EP,1,90,2021-12-01T20:45:04+00:00,8.0644199848175,1,versionA_stim.csv,READVersionA.csv,"Read Version A","Dissertation, read only version A",MALT,CHOCOLATE,BUFFER2,Buffer,88,90,Study,8,8,,Study/JOL,BUFFER2,8002,,,-1,-1,,,,0
W10129411_WB,3fy6z5nhyo,Nick_Dissertation_EX1_EP,1,91,2021-12-01T20:45:12+00:00,8.0891721248627,1,versionA_stim.csv,READVersionA.csv,"Read Version A","Dissertation, read only version A",MOON,SPACE,BUFFER2,Buffer,89,87,Study,8,8,,Study/JOL,BUFFER2,8001,,,-1,-1,,,,0
W10129411_WB,3fy6z5nhyo,Nick_Dissertation_EX1_EP,1,92,2021-12-01T20:45:20+00:00,8.0655570030212,1,versionA_stim.csv,READVersionA.csv,"Read Version A","Dissertation, read only version A",THING,STUFF,BUFFER2,Buffer,90,88,Study,8,8,,Study/JOL,BUFFER2,8002,,,-1,-1,,,,0
W10129411_WB,3fy6z5nhyo,Nick_Dissertation_EX1_EP,1,93,2021-12-01T20:45:28+00:00,8.059534072876,1,versionA_stim.csv,READVersionA.csv,"Read Version A","Dissertation, read only version A",SHERRIF,POLICE,BUFFER2,Buffer,87,91,Study,8,8,,Study/JOL,BUFFER2,8000,,,-1,-1,,,,0.175
W10129411_WB,3fy6z5nhyo,Nick_Dissertation_EX1_EP,1,94,2021-12-01T20:45:30+00:00,1.9472320079803,1,versionA_stim.csv,READVersionA.csv,"Read Version A","Dissertation, read only version A",,,,,,0,Instruct,User,-,"You have completed this section. Please press Enter.",Filler_Instruction,Instruct2,1861,,,-1,-1,,,,1
W10129411_WB,3fy6z5nhyo,Nick_Dissertation_EX1_EP,1,95,2021-12-01T20:47:30+00:00,120.08263993263,1,versionA_stim.csv,READVersionA.csv,"Read Version A","Dissertation, read only version A",,,,,,0,FreeRecall,120,120,"Please list the 50 US states in alphabetical order. The task will automatically advance to the next screen after two minutes.",,Filler1,120000,"Alabama, Alaska, Arizona, Arkansas, California, Colorado, Connecticut, Delaware, Florida, Georgia, Hawaii, Idaho, Illinois, Indiana, Iowa, Kansas, Kentucky, Louisiana, Maine, Maryland, Massachusetts, Michigan, Minnesota, Mississippi, Missouri, Montana, Nebraska Nevada, New Hampshire, New Jersey, New Mexico, New York, North Carolina, North Dakota, Ohio, Oklahoma, Oregon, Pennsylvania, Rhode Island,South Carolina South Dakota, Tennessee, Texas Utah Vermont Virginia Washington West Virginia Wisconsin Wyoming",0,32482,119669,0,0,,0.962
W10129411_WB,3fy6z5nhyo,Nick_Dissertation_EX1_EP,1,96,2021-12-01T20:47:44+00:00,13.452162981033,1,versionA_stim.csv,READVersionA.csv,"Read Version A","Dissertation, read only version A",,,,,,0,Instruct,-,10,"You will now be presented with the first word from each of the previously studied item pairs. Please type the missing word. If you do not know the word, you may guess or press Enter to skip forward to the next pair.",,Instruct3,13374,,,-1,-1,,,,1
W10129411_WB,3fy6z5nhyo,Nick_Dissertation_EX1_EP,1,97,2021-12-01T20:48:08+00:00,24.811336994171,1,versionA_stim.csv,READVersionA.csv,"Read Version A","Dissertation, read only version A",HERD,COW,Study1,F,22,66,Test,User,-,,Recall,Recall1,24740,Cow,100,24317,24587,1,1,,0.129
W10129411_WB,3fy6z5nhyo,Nick_Dissertation_EX1_EP,1,98,2021-12-01T20:48:31+00:00,22.253575086594,1,versionA_stim.csv,READVersionA.csv,"Read Version A","Dissertation, read only version A",BEGIN,END,Study1,S,54,74,Test,User,-,,Recall,Recall1,22189,End,100,21476,21825,1,1,,0.387
W10129411_WB,3fy6z5nhyo,Nick_Dissertation_EX1_EP,1,99,2021-12-01T20:48:39+00:00,8.3026759624481,1,versionA_stim.csv,READVersionA.csv,"Read Version A","Dissertation, read only version A",PARK,HUNGRY,Study1,U,68,18,Test,User,-,,Recall,Recall1,8232,Hungry,100,7215,8063,1,1,,0.405
W10129411_WB,3fy6z5nhyo,Nick_Dissertation_EX1_EP,1,100,2021-12-01T20:48:48+00:00,8.768611907959,1,versionA_stim.csv,READVersionA.csv,"Read Version A","Dissertation, read only version A",WAGE,MONEY,Study1,F,8,14,Test,User,-,,Recall,Recall1,8709,Money,100,7920,8550,1,1,,0.409
W10129411_WB,3fy6z5nhyo,Nick_Dissertation_EX1_EP,1,101,2021-12-01T20:48:51+00:00,2.9682559967041,1,versionA_stim.csv,READVersionA.csv,"Read Version A","Dissertation, read only version A",LAW,ATTORNEY,Study1,B,34,56,Test,User,-,,Recall,Recall1,2907,Attorney,100,1688,2774,1,1,,1
W10129411_WB,3fy6z5nhyo,Nick_Dissertation_EX1_EP,1,102,2021-12-01T20:48:58+00:00,7.5919780731201,1,versionA_stim.csv,READVersionA.csv,"Read Version A","Dissertation, read only version A",SHOE,FOOT,Study1,S,60,24,Test,User,-,,Recall,Recall1,7525,Foot,100,6671,7375,1,1,,0.474
W10129411_WB,3fy6z5nhyo,Nick_Dissertation_EX1_EP,1,103,2021-12-01T20:49:05+00:00,7.054692029953,1,versionA_stim.csv,READVersionA.csv,"Read Version A","Dissertation, read only version A",DEBATE,SIGHT,Study1,U,73,45,Test,User,-,,Recall,Recall1,6982,Sight',90.909090909091,6084,6980,0,1,,0.514
W10129411_WB,3fy6z5nhyo,Nick_Dissertation_EX1_EP,1,104,2021-12-01T20:49:15+00:00,9.4133129119873,1,versionA_stim.csv,READVersionA.csv,"Read Version A","Dissertation, read only version A",DISCUSSION,TALK,Study1,F,21,10,Test,User,-,,Recall,Recall1,9352,Talk,100,7854,8457,1,1,,0.468
W10129411_WB,3fy6z5nhyo,Nick_Dissertation_EX1_EP,1,105,2021-12-01T20:49:22+00:00,7.6679019927979,1,versionA_stim.csv,READVersionA.csv,"Read Version A","Dissertation, read only version A",PUSHER,CLUTTER,Study1,U,66,48,Test,User,-,,Recall,Recall1,7607,Clutter,100,6372,7484,1,1,,0.436
W10129411_WB,3fy6z5nhyo,Nick_Dissertation_EX1_EP,1,106,2021-12-01T20:49:30+00:00,7.2579960823059,1,versionA_stim.csv,READVersionA.csv,"Read Version A","Dissertation, read only version A",DEATH,BUSINESS,Study1,U,72,8,Test,User,-,,Recall,Recall1,7194,Business,100,6000,7067,1,1,,0.528
W10129411_WB,3fy6z5nhyo,Nick_Dissertation_EX1_EP,1,107,2021-12-01T20:49:37+00:00,7.4144859313965,1,versionA_stim.csv,READVersionA.csv,"Read Version A","Dissertation, read only version A",BABY,CHILD,Study1,S,64,68,Test,User,-,,Recall,Recall1,7255,Child,100,6224,7065,1,1,,0.459
W10129411_WB,3fy6z5nhyo,Nick_Dissertation_EX1_EP,1,108,2021-12-01T20:49:44+00:00,7.2172079086304,1,versionA_stim.csv,READVersionA.csv,"Read Version A","Dissertation, read only version A",HUNGER,FAMINE,Study1,B,40,25,Test,User,-,,Recall,Recall1,7156,Famine,100,6107,7013,1,1,,0.417
W10129411_WB,3fy6z5nhyo,Nick_Dissertation_EX1_EP,1,109,2021-12-01T20:49:52+00:00,7.4745721817017,1,versionA_stim.csv,READVersionA.csv,"Read Version A","Dissertation, read only version A",HOT,CHILI,Study1,B,37,47,Test,User,-,,Recall,Recall1,7413,Chili,100,6128,7133,1,1,,0.5
W10129411_WB,3fy6z5nhyo,Nick_Dissertation_EX1_EP,1,110,2021-12-01T20:50:00+00:00,8.0732510089874,1,versionA_stim.csv,READVersionA.csv,"Read Version A","Dissertation, read only version A",STRONG,ACCIDENT,Study1,U,80,23,Test,User,-,,Recall,Recall1,7997,Accident,100,6337,7848,1,1,,0.525
W10129411_WB,3fy6z5nhyo,Nick_Dissertation_EX1_EP,1,111,2021-12-01T20:50:03+00:00,3.6434879302979,1,versionA_stim.csv,READVersionA.csv,"Read Version A","Dissertation, read only version A",KING,VASE,Study1,U,85,32,Test,User,-,,Recall,Recall1,3583,Pin,0,2690,3184,0,0,,1
W10129411_WB,3fy6z5nhyo,Nick_Dissertation_EX1_EP,1,112,2021-12-01T20:50:16+00:00,12.839370965958,1,versionA_stim.csv,READVersionA.csv,"Read Version A","Dissertation, read only version A",ARCHITECTURE,DESIGN,Study1,S,51,86,Test,User,-,,Recall,Recall1,12778,Design,100,9772,12552,1,1,,0.5
W10129411_WB,3fy6z5nhyo,Nick_Dissertation_EX1_EP,1,113,2021-12-01T20:50:20+00:00,3.6330490112305,1,versionA_stim.csv,READVersionA.csv,"Read Version A","Dissertation, read only version A",REVOLUTION,WAR,Study1,F,20,76,Test,User,-,,Recall,Recall1,3573,War,100,1569,3028,1,1,,1
W10129411_WB,3fy6z5nhyo,Nick_Dissertation_EX1_EP,1,114,2021-12-01T20:50:29+00:00,9.30943608284,1,versionA_stim.csv,READVersionA.csv,"Read Version A","Dissertation, read only version A",ART,LION,Study1,U,79,67,Test,User,-,,Recall,Recall1,9250,Lion,100,8081,8878,1,1,,0.489
W10129411_WB,3fy6z5nhyo,Nick_Dissertation_EX1_EP,1,115,2021-12-01T20:50:32+00:00,2.3141078948975,1,versionA_stim.csv,READVersionA.csv,"Read Version A","Dissertation, read only version A",SMELL,STENCH,Study1,B,42,36,Test,User,-,,Recall,Recall1,2251,Stench,100,1257,2041,1,1,,1
W10129411_WB,3fy6z5nhyo,Nick_Dissertation_EX1_EP,1,116,2021-12-01T20:50:34+00:00,2.17049908638,1,versionA_stim.csv,READVersionA.csv,"Read Version A","Dissertation, read only version A",GRILL,BAR,Study1,S,52,52,Test,User,-,,Recall,Recall1,2114,Bar,100,1354,1666,1,1,,1
W10129411_WB,3fy6z5nhyo,Nick_Dissertation_EX1_EP,1,117,2021-12-01T20:50:43+00:00,8.8239150047302,1,versionA_stim.csv,READVersionA.csv,"Read Version A","Dissertation, read only version A",FULL,ENOUGH,Study1,B,26,26,Test,User,-,,Recall,Recall1,8765,Empty,18.181818181818,7827,8605,0,0,,0.636
W10129411_WB,3fy6z5nhyo,Nick_Dissertation_EX1_EP,1,118,2021-12-01T20:50:47+00:00,4.1041269302368,1,versionA_stim.csv,READVersionA.csv,"Read Version A","Dissertation, read only version A",DIGESTION,STOMACH,Study1,F,7,16,Test,User,-,,Recall,Recall1,4039,Stomach,100,2557,3788,1,1,,1
W10129411_WB,3fy6z5nhyo,Nick_Dissertation_EX1_EP,1,119,2021-12-01T20:50:54+00:00,7.4191699028015,1,versionA_stim.csv,READVersionA.csv,"Read Version A","Dissertation, read only version A",SOON,BELT,Study1,U,70,70,Test,User,-,,Recall,Recall1,7357,Belt,100,6629,7208,1,1,,0.541
W10129411_WB,3fy6z5nhyo,Nick_Dissertation_EX1_EP,1,120,2021-12-01T20:51:01+00:00,6.5678172111511,1,versionA_stim.csv,READVersionA.csv,"Read Version A","Dissertation, read only version A",HAPPY,CAR,Study1,U,77,51,Test,User,-,,Recall,Recall1,6508,Car,100,5679,5948,1,1,,0.455
W10129411_WB,3fy6z5nhyo,Nick_Dissertation_EX1_EP,1,121,2021-12-01T20:51:06+00:00,5.8010189533234,1,versionA_stim.csv,READVersionA.csv,"Read Version A","Dissertation, read only version A",GREAT,FANTASTIC,Study1,B,35,78,Test,User,-,,Recall,Recall1,5733,Fantastic,100,2863,5570,1,1,,0.793
W10129411_WB,3fy6z5nhyo,Nick_Dissertation_EX1_EP,1,122,2021-12-01T20:51:14+00:00,7.0387949943542,1,versionA_stim.csv,READVersionA.csv,"Read Version A","Dissertation, read only version A",TAKE,SEIZE,Study1,B,29,20,Test,User,-,,Recall,Recall1,6973,Seize,100,5858,6459,1,1,,0.486
W10129411_WB,3fy6z5nhyo,Nick_Dissertation_EX1_EP,1,123,2021-12-01T20:51:37+00:00,23.01219701767,1,versionA_stim.csv,READVersionA.csv,"Read Version A","Dissertation, read only version A",WAY,OUT,Study1,F,16,43,Test,User,-,,Recall,Recall1,22933,Out,100,22378,22772,1,1,,0.139
W10129411_WB,3fy6z5nhyo,Nick_Dissertation_EX1_EP,1,124,2021-12-01T20:52:05+00:00,28.911017894745,1,versionA_stim.csv,READVersionA.csv,"Read Version A","Dissertation, read only version A",BALL,RACKET,Study1,B,38,12,Test,User,-,,Recall,Recall1,27519,Racket,100,26394,27377,1,1,,0.21
W10129411_WB,3fy6z5nhyo,Nick_Dissertation_EX1_EP,1,125,2021-12-01T20:52:09+00:00,3.4667320251465,1,versionA_stim.csv,READVersionA.csv,"Read Version A","Dissertation, read only version A",LOCATION,SITE,Study1,S,48,17,Test,User,-,,Recall,Recall1,3406,Site,100,1803,3185,1,1,,1
W10129411_WB,3fy6z5nhyo,Nick_Dissertation_EX1_EP,1,126,2021-12-01T20:52:11+00:00,1.9586999416351,1,versionA_stim.csv,READVersionA.csv,"Read Version A","Dissertation, read only version A",SWAN,BIRD,Study1,F,14,80,Test,User,-,,Recall,Recall1,1898,Bird,100,1293,1825,1,1,,1
W10129411_WB,3fy6z5nhyo,Nick_Dissertation_EX1_EP,1,127,2021-12-01T20:52:15+00:00,3.8641650676727,1,versionA_stim.csv,READVersionA.csv,"Read Version A","Dissertation, read only version A",DUE,ASSIGNMENT,Study1,S,46,46,Test,User,-,,Recall,Recall1,3800,Assignment,100,2275,3635,1,1,,1
W10129411_WB,3fy6z5nhyo,Nick_Dissertation_EX1_EP,1,128,2021-12-01T20:52:37+00:00,21.790630102158,1,versionA_stim.csv,READVersionA.csv,"Read Version A","Dissertation, read only version A",KEY,LATCH,Study1,B,36,31,Test,User,-,,Recall,Recall1,21731,Latch,100,20817,21466,1,1,,0.183
W10129411_WB,3fy6z5nhyo,Nick_Dissertation_EX1_EP,1,129,2021-12-01T20:52:44+00:00,7.5177819728851,1,versionA_stim.csv,READVersionA.csv,"Read Version A","Dissertation, read only version A",FIRE,BLAZE,Study1,B,45,85,Test,User,-,,Recall,Recall1,7454,Blaze,100,6408,7286,1,1,,0.5
W10129411_WB,3fy6z5nhyo,Nick_Dissertation_EX1_EP,1,130,2021-12-01T20:52:59+00:00,14.77493596077,1,versionA_stim.csv,READVersionA.csv,"Read Version A","Dissertation, read only version A",DRINK,SIP,Study1,B,27,33,Test,User,-,,Recall,Recall1,14716,Sip,100,13796,14481,1,1,,0.216
W10129411_WB,3fy6z5nhyo,Nick_Dissertation_EX1_EP,1,131,2021-12-01T20:53:07+00:00,7.9763948917389,1,versionA_stim.csv,READVersionA.csv,"Read Version A","Dissertation, read only version A",LIFT,WOMAN,Study1,U,69,22,Test,User,-,,Recall,Recall1,7908,Woman,100,6797,7698,1,1,,0.5
W10129411_WB,3fy6z5nhyo,Nick_Dissertation_EX1_EP,1,132,2021-12-01T20:53:18+00:00,11.511768102646,1,versionA_stim.csv,READVersionA.csv,"Read Version A","Dissertation, read only version A",DISCOVER,FLOOR,Study1,U,71,57,Test,User,-,,Recall,Recall1,11448,Floor,100,10366,11311,1,1,,0.328
W10129411_WB,3fy6z5nhyo,Nick_Dissertation_EX1_EP,1,133,2021-12-01T20:53:30+00:00,11.463151931763,1,versionA_stim.csv,READVersionA.csv,"Read Version A","Dissertation, read only version A",CLOTHES,ATTIRE,Study1,B,43,61,Test,User,-,,Recall,Recall1,11399,Attire,100,10366,11264,1,1,,0.246
W10129411_WB,3fy6z5nhyo,Nick_Dissertation_EX1_EP,1,134,2021-12-01T20:53:34+00:00,4.3212039470673,1,versionA_stim.csv,READVersionA.csv,"Read Version A","Dissertation, read only version A",MEANING,DEFINITION,Study1,S,62,73,Test,User,-,,Recall,Recall1,4262,Definition,100,2747,4047,1,1,,1
W10129411_WB,3fy6z5nhyo,Nick_Dissertation_EX1_EP,1,135,2021-12-01T20:53:36+00:00,2.381756067276,1,versionA_stim.csv,READVersionA.csv,"Read Version A","Dissertation, read only version A",BRIDGE,WATER,Study1,F,18,75,Test,User,-,,Recall,Recall1,2324,Water,100,1592,2156,1,1,,1
W10129411_WB,3fy6z5nhyo,Nick_Dissertation_EX1_EP,1,136,2021-12-01T20:53:41+00:00,4.3004910945892,1,versionA_stim.csv,READVersionA.csv,"Read Version A","Dissertation, read only version A",TRIAL,JURY,Study1,S,50,49,Test,User,-,,Recall,Recall1,4240,Jury,100,3540,4058,1,1,,1
W10129411_WB,3fy6z5nhyo,Nick_Dissertation_EX1_EP,1,137,2021-12-01T20:53:50+00:00,9.3936538696289,1,versionA_stim.csv,READVersionA.csv,"Read Version A","Dissertation, read only version A",TUNA,FISH,Study1,F,25,72,Test,User,-,,Recall,Recall1,9325,Fish,100,8700,9130,1,1,,0.383
W10129411_WB,3fy6z5nhyo,Nick_Dissertation_EX1_EP,1,138,2021-12-01T20:53:52+00:00,2.2679440975189,1,versionA_stim.csv,READVersionA.csv,"Read Version A","Dissertation, read only version A",BUG,WASP,Study1,B,32,50,Test,User,-,,Recall,Recall1,2181,Wasp,100,1475,2001,1,1,,1
W10129411_WB,3fy6z5nhyo,Nick_Dissertation_EX1_EP,1,139,2021-12-01T20:53:55+00:00,2.8173458576202,1,versionA_stim.csv,READVersionA.csv,"Read Version A","Dissertation, read only version A",KIDNEY,LIVER,Study1,S,53,27,Test,User,-,,Recall,Recall1,2750,Liver,100,1837,2635,1,1,,1
W10129411_WB,3fy6z5nhyo,Nick_Dissertation_EX1_EP,1,140,2021-12-01T20:54:07+00:00,11.300165176392,1,versionA_stim.csv,READVersionA.csv,"Read Version A","Dissertation, read only version A",MACHINE,POSITION,Study1,U,76,77,Test,User,-,,Recall,Recall1,11237,Position,100,10059,11018,1,1,,0.509
W10129411_WB,3fy6z5nhyo,Nick_Dissertation_EX1_EP,1,141,2021-12-01T20:54:09+00:00,2.066633939743,1,versionA_stim.csv,READVersionA.csv,"Read Version A","Dissertation, read only version A",CIRCLE,ROUND,Study1,S,65,83,Test,User,-,,Recall,Recall1,2002,Round,100,1240,1857,1,1,,1
W10129411_WB,3fy6z5nhyo,Nick_Dissertation_EX1_EP,1,142,2021-12-01T20:54:12+00:00,3.1450109481812,1,versionA_stim.csv,READVersionA.csv,"Read Version A","Dissertation, read only version A",ARTERY,BRONZE,Study1,U,74,44,Test,User,-,,Recall,Recall1,3085,Bronze,100,2140,2921,1,1,,1
W10129411_WB,3fy6z5nhyo,Nick_Dissertation_EX1_EP,1,143,2021-12-01T20:54:14+00:00,2.5101039409637,1,versionA_stim.csv,READVersionA.csv,"Read Version A","Dissertation, read only version A",WORK,CHORE,Study1,B,39,55,Test,User,-,,Recall,Recall1,2451,Chore,100,1890,2315,1,1,,1
W10129411_WB,3fy6z5nhyo,Nick_Dissertation_EX1_EP,1,144,2021-12-01T20:54:26+00:00,11.547151088715,1,versionA_stim.csv,READVersionA.csv,"Read Version A","Dissertation, read only version A",POP,SODA,Study1,S,56,81,Test,User,-,,Recall,Recall1,11486,Soda,100,11004,11367,1,1,,0.414
W10129411_WB,3fy6z5nhyo,Nick_Dissertation_EX1_EP,1,145,2021-12-01T20:54:41+00:00,14.786190032959,1,versionA_stim.csv,READVersionA.csv,"Read Version A","Dissertation, read only version A",DIETARY,SACKING,Study1,U,67,29,Test,User,-,,Recall,Recall1,13994,Sacking,100,10990,13786,1,1,,0.457
W10129411_WB,3fy6z5nhyo,Nick_Dissertation_EX1_EP,1,146,2021-12-01T20:54:50+00:00,9.3376798629761,1,versionA_stim.csv,READVersionA.csv,"Read Version A","Dissertation, read only version A",GEOLOGY,ROCK,Study1,F,19,7,Test,User,-,,Recall,Recall1,9245,Rocks,88.888888888889,8407,9080,0,1,,0.489
W10129411_WB,3fy6z5nhyo,Nick_Dissertation_EX1_EP,1,147,2021-12-01T20:55:02+00:00,12.087222099304,1,versionA_stim.csv,READVersionA.csv,"Read Version A","Dissertation, read only version A",SUGAR,RIDDLE,Study1,U,81,79,Test,User,-,,Recall,Recall1,12004,Riddle,100,11171,11881,1,1,,0.283
W10129411_WB,3fy6z5nhyo,Nick_Dissertation_EX1_EP,1,148,2021-12-01T20:55:14+00:00,12.24351811409,1,versionA_stim.csv,READVersionA.csv,"Read Version A","Dissertation, read only version A",HORNET,STING,Study1,F,11,41,Test,User,-,,Recall,Recall1,12113,Sting,100,11045,11957,1,1,,0.311
W10129411_WB,3fy6z5nhyo,Nick_Dissertation_EX1_EP,1,149,2021-12-01T20:55:16+00:00,2.0642948150635,1,versionA_stim.csv,READVersionA.csv,"Read Version A","Dissertation, read only version A",CREDIT,CARD,Study1,F,23,65,Test,User,-,,Recall,Recall1,1989,Card,100,1018,1481,1,1,,1
W10129411_WB,3fy6z5nhyo,Nick_Dissertation_EX1_EP,1,150,2021-12-01T20:55:34+00:00,17.397751092911,1,versionA_stim.csv,READVersionA.csv,"Read Version A","Dissertation, read only version A",HEIGHT,GROWTH,Study1,B,30,54,Test,User,-,,Recall,Recall1,17337,growth,100,16301,17121,1,1,,0.23
W10129411_WB,3fy6z5nhyo,Nick_Dissertation_EX1_EP,1,151,2021-12-01T20:55:43+00:00,9.4386270046234,1,versionA_stim.csv,READVersionA.csv,"Read Version A","Dissertation, read only version A",BLOW,WIND,Study1,S,55,15,Test,User,-,,Recall,Recall1,9366,blow,25,8486,8894,0,0,,0.319
W10129411_WB,3fy6z5nhyo,Nick_Dissertation_EX1_EP,1,152,2021-12-01T20:55:49+00:00,5.7771821022034,1,versionA_stim.csv,READVersionA.csv,"Read Version A","Dissertation, read only version A",DARK,CAVE,Study1,B,28,53,Test,User,-,,Recall,Recall1,5712,Cave,100,5182,5580,1,1,,0.724
W10129411_WB,3fy6z5nhyo,Nick_Dissertation_EX1_EP,1,153,2021-12-01T20:55:56+00:00,7.3014698028564,1,versionA_stim.csv,READVersionA.csv,"Read Version A","Dissertation, read only version A",SLEEP,DROWSY,Study1,B,41,71,Test,User,-,,Recall,Recall1,7240,drowsy,100,5823,7006,1,1,,0.595
W10129411_WB,3fy6z5nhyo,Nick_Dissertation_EX1_EP,1,154,2021-12-01T20:56:10+00:00,13.936311006546,1,versionA_stim.csv,READVersionA.csv,"Read Version A","Dissertation, read only version A",SENTENCE,WORD,Study1,B,31,21,Test,User,-,,Recall,Recall1,13863,word,100,12612,13714,1,1,,0.257
W10129411_WB,3fy6z5nhyo,Nick_Dissertation_EX1_EP,1,155,2021-12-01T20:56:17+00:00,7.3044741153717,1,versionA_stim.csv,READVersionA.csv,"Read Version A","Dissertation, read only version A",ROOT,PLANT,Study1,F,13,42,Test,User,-,,Recall,Recall1,7239,plant,100,6600,7085,1,1,,0.486
W10129411_WB,3fy6z5nhyo,Nick_Dissertation_EX1_EP,1,156,2021-12-01T20:56:23+00:00,5.0893430709839,1,versionA_stim.csv,READVersionA.csv,"Read Version A","Dissertation, read only version A",DELINQUENT,BAD,Study1,F,6,37,Test,User,-,,Recall,Recall1,5027,juvenile,0,2367,4870,0,0,,1
W10129411_WB,3fy6z5nhyo,Nick_Dissertation_EX1_EP,1,157,2021-12-01T20:56:30+00:00,7.3083448410034,1,versionA_stim.csv,READVersionA.csv,"Read Version A","Dissertation, read only version A",ALLOW,TUCK,Study1,U,78,11,Test,User,-,,Recall,Recall1,6844,tuck,100,6292,6660,1,1,,0.514
W10129411_WB,3fy6z5nhyo,Nick_Dissertation_EX1_EP,1,158,2021-12-01T20:56:43+00:00,13.207281112671,1,versionA_stim.csv,READVersionA.csv,"Read Version A","Dissertation, read only version A",VALLEY,ADD,Study1,U,82,84,Test,User,-,,Recall,Recall1,13140,Green,0,12356,12893,0,0,,0.47
W10129411_WB,3fy6z5nhyo,Nick_Dissertation_EX1_EP,1,159,2021-12-01T20:56:46+00:00,3.0361349582672,1,versionA_stim.csv,READVersionA.csv,"Read Version A","Dissertation, read only version A",MATH,DIVISION,Study1,B,33,62,Test,User,-,,Recall,Recall1,2972,Division,100,1666,2784,1,1,,1
W10129411_WB,3fy6z5nhyo,Nick_Dissertation_EX1_EP,1,160,2021-12-01T20:56:55+00:00,9.1677370071411,1,versionA_stim.csv,READVersionA.csv,"Read Version A","Dissertation, read only version A",PLANE,PILOT,Study1,B,44,58,Test,User,-,,Recall,Recall1,9101,Pilot,100,8253,8965,1,1,,0.391
W10129411_WB,3fy6z5nhyo,Nick_Dissertation_EX1_EP,1,161,2021-12-01T20:57:06+00:00,11.197592020035,1,versionA_stim.csv,READVersionA.csv,"Read Version A","Dissertation, read only version A",CASH,WOULD,Study1,U,83,35,Test,User,-,,Recall,Recall1,10577,Would,100,9736,10420,1,1,,0.415
W10129411_WB,3fy6z5nhyo,Nick_Dissertation_EX1_EP,1,162,2021-12-01T20:57:13+00:00,6.4959080219269,1,versionA_stim.csv,READVersionA.csv,"Read Version A","Dissertation, read only version A",HYGIENE,CLEAN,Study1,F,17,30,Test,User,-,,Recall,Recall1,6427,Clean,100,5813,6221,1,1,,0.545
W10129411_WB,3fy6z5nhyo,Nick_Dissertation_EX1_EP,1,163,2021-12-01T20:57:16+00:00,2.7352519035339,1,versionA_stim.csv,READVersionA.csv,"Read Version A","Dissertation, read only version A",NUMBER,AMOUNT,Study1,S,47,60,Test,User,-,,Recall,Recall1,2674,Amount,100,1725,2459,1,1,,1
W10129411_WB,3fy6z5nhyo,Nick_Dissertation_EX1_EP,1,164,2021-12-01T20:57:18+00:00,2.447135925293,1,versionA_stim.csv,READVersionA.csv,"Read Version A","Dissertation, read only version A",PAW,DOG,Study1,F,15,69,Test,User,-,,Recall,Recall1,2385,Dog,100,1923,2258,1,1,,1
W10129411_WB,3fy6z5nhyo,Nick_Dissertation_EX1_EP,1,165,2021-12-01T20:57:21+00:00,2.4419209957123,1,versionA_stim.csv,READVersionA.csv,"Read Version A","Dissertation, read only version A",BITTER,COLD,Study1,F,12,64,Test,User,-,,Recall,Recall1,2372,Cold,100,1838,2263,1,1,,1
W10129411_WB,3fy6z5nhyo,Nick_Dissertation_EX1_EP,1,166,2021-12-01T20:57:22+00:00,1.8223102092743,1,versionA_stim.csv,READVersionA.csv,"Read Version A","Dissertation, read only version A",ORCHID,FLOWER,Study1,F,24,19,Test,User,-,,Recall,Recall1,1763,Flower,100,1197,1627,1,1,,1
W10129411_WB,3fy6z5nhyo,Nick_Dissertation_EX1_EP,1,167,2021-12-01T20:57:38+00:00,15.844784975052,1,versionA_stim.csv,READVersionA.csv,"Read Version A","Dissertation, read only version A",HIDE,SICK,Study1,U,84,34,Test,User,-,,Recall,Recall1,15774,"Sick and Scare",44.444444444444,8858,13269,0,0,,0.797
W10129411_WB,3fy6z5nhyo,Nick_Dissertation_EX1_EP,1,168,2021-12-01T20:57:46+00:00,8.0197689533234,1,versionA_stim.csv,READVersionA.csv,"Read Version A","Dissertation, read only version A",FIX,HAND,Study1,U,75,9,Test,User,-,,Recall,Recall1,7273,Hand,100,6667,7098,1,1,,0.541
W10129411_WB,3fy6z5nhyo,Nick_Dissertation_EX1_EP,1,169,2021-12-01T20:57:49+00:00,2.4698879718781,1,versionA_stim.csv,READVersionA.csv,"Read Version A","Dissertation, read only version A",CHISEL,HAMMER,Study1,F,9,28,Test,User,-,,Recall,Recall1,2403,Hammer,100,1545,2253,1,1,,1
W10129411_WB,3fy6z5nhyo,Nick_Dissertation_EX1_EP,1,170,2021-12-01T20:57:53+00:00,3.9877109527588,1,versionA_stim.csv,READVersionA.csv,"Read Version A","Dissertation, read only version A",LETTUCE,SALAD,Study1,S,59,39,Test,User,-,,Recall,Recall1,3917,Salad,100,3213,3696,1,1,,1
W10129411_WB,3fy6z5nhyo,Nick_Dissertation_EX1_EP,1,171,2021-12-01T20:57:55+00:00,1.9833769798279,1,versionA_stim.csv,READVersionA.csv,"Read Version A","Dissertation, read only version A",BATHROOM,TOILET,Study1,S,58,13,Test,User,-,,Recall,Recall1,1917,Toilet,100,1090,1777,1,1,,1
W10129411_WB,3fy6z5nhyo,Nick_Dissertation_EX1_EP,1,172,2021-12-01T20:57:56+00:00,1.6390149593353,1,versionA_stim.csv,READVersionA.csv,"Read Version A","Dissertation, read only version A",WINE,CHEESE,Study1,S,57,63,Test,User,-,,Recall,Recall1,1568,Cheese,100,780,1396,1,1,,1
W10129411_WB,3fy6z5nhyo,Nick_Dissertation_EX1_EP,1,173,2021-12-01T20:57:59+00:00,2.4695332050323,1,versionA_stim.csv,READVersionA.csv,"Read Version A","Dissertation, read only version A",PAST,FUTURE,Study1,S,61,59,Test,User,-,,Recall,Recall1,2406,Future,100,1681,2285,1,1,,1
W10129411_WB,3fy6z5nhyo,Nick_Dissertation_EX1_EP,1,174,2021-12-01T20:58:05+00:00,6.4350488185883,1,versionA_stim.csv,READVersionA.csv,"Read Version A","Dissertation, read only version A",DUMP,WASTE,Study1,S,49,82,Test,User,-,,Recall,Recall1,6374,Waste,100,5639,6241,1,1,,0.469
W10129411_WB,3fy6z5nhyo,Nick_Dissertation_EX1_EP,1,175,2021-12-01T20:58:10+00:00,4.7641170024872,1,versionA_stim.csv,READVersionA.csv,"Read Version A","Dissertation, read only version A",HONEY,BEE,Study1,S,63,40,Test,User,-,,Recall,Recall1,4701,Bee,100,4150,4547,1,1,,0.667
W10129411_WB,3fy6z5nhyo,Nick_Dissertation_EX1_EP,1,176,2021-12-01T20:58:17+00:00,7.139986038208,1,versionA_stim.csv,READVersionA.csv,"Read Version A","Dissertation, read only version A",EDITOR,NEWS,Study1,F,10,38,Test,User,-,,Recall,Recall1,7073,News,100,6535,6945,1,1,,0.528
W10129411_WB,3fy6z5nhyo,Nick_Dissertation_EX1_EP,1,177,2021-12-01T20:58:28+00:00,11.239499092102,1,versionA_stim.csv,READVersionA.csv,"Read Version A","Dissertation, read only version A",,,,,,0,Instruct,-,10,"You will now be presented with a new set of word pairs. Please study each pair. Remember that your memory will be tested! When finished, press Enter to move to the next pair.",Initial_Instruct,Instruct4,11175,,,-1,-1,,,,0.554
W10129411_WB,3fy6z5nhyo,Nick_Dissertation_EX1_EP,1,178,2021-12-01T20:58:31+00:00,2.1925158500671,1,versionA_stim.csv,READVersionA.csv,"Read Version A","Dissertation, read only version A",,,,,,0,Instruct,User,-,"Each word will be displayed on the computer screen for 8 seconds. The screen will automatically move to the next pair when time is up. Press Enter when you are ready to begin.",,Instruct11,2127,,,-1,-1,,,,1
W10129411_WB,3fy6z5nhyo,Nick_Dissertation_EX1_EP,1,179,2021-12-01T20:58:39+00:00,8.0634751319885,1,versionA_stim.csv,READVersionA.csv,"Read Version A","Dissertation, read only version A",CAMP,ADVENTURE,BUFFER3,Buffer,95,92,Study,8,8,,Study/JOL,BUFFER3,8001,,,-1,-1,,,,0.1
W10129411_WB,3fy6z5nhyo,Nick_Dissertation_EX1_EP,1,180,2021-12-01T20:58:47+00:00,8.0733370780945,1,versionA_stim.csv,READVersionA.csv,"Read Version A","Dissertation, read only version A",NOODLE,STRING,BUFFER3,Buffer,92,93,Study,8,8,,Study/JOL,BUFFER3,8002,,,-1,-1,,,,0
W10129411_WB,3fy6z5nhyo,Nick_Dissertation_EX1_EP,1,181,2021-12-01T20:58:55+00:00,8.0644588470459,1,versionA_stim.csv,READVersionA.csv,"Read Version A","Dissertation, read only version A",ICE,FROZEN,BUFFER3,Buffer,94,95,Study,8,8,,Study/JOL,BUFFER3,8001,,,-1,-1,,,,0
W10129411_WB,3fy6z5nhyo,Nick_Dissertation_EX1_EP,1,182,2021-12-01T20:59:03+00:00,8.0652060508728,1,versionA_stim.csv,READVersionA.csv,"Read Version A","Dissertation, read only version A",CARROT,POTATO,BUFFER3,Buffer,91,96,Study,8,8,,Study/JOL,BUFFER3,8002,,,-1,-1,,,,0
W10129411_WB,3fy6z5nhyo,Nick_Dissertation_EX1_EP,1,183,2021-12-01T20:59:11+00:00,8.0661110877991,1,versionA_stim.csv,READVersionA.csv,"Read Version A","Dissertation, read only version A",SHRIMP,FISH,BUFFER3,Buffer,93,94,Study,8,8,,Study/JOL,BUFFER3,8001,,,-1,-1,,,,0
W10129411_WB,3fy6z5nhyo,Nick_Dissertation_EX1_EP,1,184,2021-12-01T20:59:19+00:00,8.0621149539948,1,versionA_stim.csv,READVersionA.csv,"Read Version A","Dissertation, read only version A",MASON,JAR,Study2,S,138,105,Study,8,8,,Study/JOL,"Study Phase2",8001,,,-1,-1,,,,0
W10129411_WB,3fy6z5nhyo,Nick_Dissertation_EX1_EP,1,185,2021-12-01T20:59:27+00:00,8.0658638477325,1,versionA_stim.csv,READVersionA.csv,"Read Version A","Dissertation, read only version A",DRIVER,CAR,Study2,F,106,113,Study,8,8,,Study/JOL,"Study Phase2",8001,,,-1,-1,,,,0
W10129411_WB,3fy6z5nhyo,Nick_Dissertation_EX1_EP,1,186,2021-12-01T20:59:35+00:00,8.0598201751709,1,versionA_stim.csv,READVersionA.csv,"Read Version A","Dissertation, read only version A",CANDLE,WAX,Study2,S,139,156,Study,8,8,,Study/JOL,"Study Phase2",8000,,,-1,-1,,,,0
W10129411_WB,3fy6z5nhyo,Nick_Dissertation_EX1_EP,1,187,2021-12-01T20:59:43+00:00,8.072643995285,1,versionA_stim.csv,READVersionA.csv,"Read Version A","Dissertation, read only version A",STRETCH,CLOTH,Study2,U,157,172,Study,8,8,,Study/JOL,"Study Phase2",8004,,,-1,-1,,,,0
W10129411_WB,3fy6z5nhyo,Nick_Dissertation_EX1_EP,1,188,2021-12-01T20:59:52+00:00,8.3900609016418,1,versionA_stim.csv,READVersionA.csv,"Read Version A","Dissertation, read only version A",CLUE,GAME,Study2,F,97,161,Study,8,8,,Study/JOL,"Study Phase2",8002,,,-1,-1,,,,0
W10129411_WB,3fy6z5nhyo,Nick_Dissertation_EX1_EP,1,189,2021-12-01T21:00:00+00:00,8.0655889511108,1,versionA_stim.csv,READVersionA.csv,"Read Version A","Dissertation, read only version A",FISH,SARDINE,Study2,B,130,166,Study,8,8,,Study/JOL,"Study Phase2",8000,,,-1,-1,,,,0
W10129411_WB,3fy6z5nhyo,Nick_Dissertation_EX1_EP,1,190,2021-12-01T21:00:08+00:00,8.073949098587,1,versionA_stim.csv,READVersionA.csv,"Read Version A","Dissertation, read only version A",BASEBALL,LEAGUE,Study2,B,131,150,Study,8,8,,Study/JOL,"Study Phase2",8001,,,-1,-1,,,,0
W10129411_WB,3fy6z5nhyo,Nick_Dissertation_EX1_EP,1,191,2021-12-01T21:00:16+00:00,8.107146024704,1,versionA_stim.csv,READVersionA.csv,"Read Version A","Dissertation, read only version A",LEASE,TOIL,Study2,U,170,173,Study,8,8,,Study/JOL,"Study Phase2",8000,,,-1,-1,,,,0
W10129411_WB,3fy6z5nhyo,Nick_Dissertation_EX1_EP,1,192,2021-12-01T21:00:24+00:00,8.0685439109802,1,versionA_stim.csv,READVersionA.csv,"Read Version A","Dissertation, read only version A",CAR,WINDSHIELD,Study2,B,117,167,Study,8,8,,Study/JOL,"Study Phase2",8002,,,-1,-1,,,,0
W10129411_WB,3fy6z5nhyo,Nick_Dissertation_EX1_EP,1,193,2021-12-01T21:00:32+00:00,8.0714581012726,1,versionA_stim.csv,READVersionA.csv,"Read Version A","Dissertation, read only version A",NAME,HATE,Study2,U,167,127,Study,8,8,,Study/JOL,"Study Phase2",8000,,,-1,-1,,,,0
W10129411_WB,3fy6z5nhyo,Nick_Dissertation_EX1_EP,1,194,2021-12-01T21:00:40+00:00,8.0690078735352,1,versionA_stim.csv,READVersionA.csv,"Read Version A","Dissertation, read only version A",FURRY,DOG,Study2,F,102,137,Study,8,8,,Study/JOL,"Study Phase2",8000,,,-1,-1,,,,0
W10129411_WB,3fy6z5nhyo,Nick_Dissertation_EX1_EP,1,195,2021-12-01T21:00:48+00:00,8.0786681175232,1,versionA_stim.csv,READVersionA.csv,"Read Version A","Dissertation, read only version A",GLASS,BREAKABLE,Study2,B,127,119,Study,8,8,,Study/JOL,"Study Phase2",8001,,,-1,-1,,,,0
W10129411_WB,3fy6z5nhyo,Nick_Dissertation_EX1_EP,1,196,2021-12-01T21:00:56+00:00,8.0664989948273,1,versionA_stim.csv,READVersionA.csv,"Read Version A","Dissertation, read only version A",WATER,DRINK,Study2,S,143,117,Study,8,8,,Study/JOL,"Study Phase2",8001,,,-1,-1,,,,0
W10129411_WB,3fy6z5nhyo,Nick_Dissertation_EX1_EP,1,197,2021-12-01T21:01:04+00:00,8.098778963089,1,versionA_stim.csv,READVersionA.csv,"Read Version A","Dissertation, read only version A",RIGHTS,EQUAL,Study2,S,137,158,Study,8,8,,Study/JOL,"Study Phase2",8001,,,-1,-1,,,,0
W10129411_WB,3fy6z5nhyo,Nick_Dissertation_EX1_EP,1,198,2021-12-01T21:01:13+00:00,8.8776760101318,1,versionA_stim.csv,READVersionA.csv,"Read Version A","Dissertation, read only version A",BEST,FAVORITE,Study2,B,125,114,Study,8,8,,Study/JOL,"Study Phase2",8000,,,-1,-1,,,,0
W10129411_WB,3fy6z5nhyo,Nick_Dissertation_EX1_EP,1,199,2021-12-01T21:01:21+00:00,8.0725319385529,1,versionA_stim.csv,READVersionA.csv,"Read Version A","Dissertation, read only version A",DOCUMENT,PAPER,Study2,F,109,168,Study,8,8,,Study/JOL,"Study Phase2",8001,,,-1,-1,,,,0
W10129411_WB,3fy6z5nhyo,Nick_Dissertation_EX1_EP,1,200,2021-12-01T21:01:29+00:00,8.0660490989685,1,versionA_stim.csv,READVersionA.csv,"Read Version A","Dissertation, read only version A",ALONE,LONELY,Study2,S,145,143,Study,8,8,,Study/JOL,"Study Phase2",8000,,,-1,-1,,,,0
W10129411_WB,3fy6z5nhyo,Nick_Dissertation_EX1_EP,1,201,2021-12-01T21:01:37+00:00,8.0715489387512,1,versionA_stim.csv,READVersionA.csv,"Read Version A","Dissertation, read only version A",FLEA,TICK,Study2,S,151,144,Study,8,8,,Study/JOL,"Study Phase2",8001,,,-1,-1,,,,0
W10129411_WB,3fy6z5nhyo,Nick_Dissertation_EX1_EP,1,202,2021-12-01T21:01:45+00:00,8.0636351108551,1,versionA_stim.csv,READVersionA.csv,"Read Version A","Dissertation, read only version A",LISTEN,FICTION,Study2,U,164,128,Study,8,8,,Study/JOL,"Study Phase2",8000,,,-1,-1,,,,0
W10129411_WB,3fy6z5nhyo,Nick_Dissertation_EX1_EP,1,203,2021-12-01T21:01:54+00:00,8.0696988105774,1,versionA_stim.csv,READVersionA.csv,"Read Version A","Dissertation, read only version A",BOTH,OUNCE,Study2,U,172,106,Study,8,8,,Study/JOL,"Study Phase2",8002,,,-1,-1,,,,0
W10129411_WB,3fy6z5nhyo,Nick_Dissertation_EX1_EP,1,204,2021-12-01T21:02:02+00:00,8.0705511569977,1,versionA_stim.csv,READVersionA.csv,"Read Version A","Dissertation, read only version A",CHOP,CUT,Study2,F,107,121,Study,8,8,,Study/JOL,"Study Phase2",8001,,,-1,-1,,,,0
W10129411_WB,3fy6z5nhyo,Nick_Dissertation_EX1_EP,1,205,2021-12-01T21:02:10+00:00,8.0653278827667,1,versionA_stim.csv,READVersionA.csv,"Read Version A","Dissertation, read only version A",CRACKLE,ABLE,Study2,U,162,171,Study,8,8,,Study/JOL,"Study Phase2",8001,,,-1,-1,,,,0
W10129411_WB,3fy6z5nhyo,Nick_Dissertation_EX1_EP,1,206,2021-12-01T21:02:18+00:00,8.0695140361786,1,versionA_stim.csv,READVersionA.csv,"Read Version A","Dissertation, read only version A",TEMPERATURE,Morning,Study2,U,173,149,Study,8,8,,Study/JOL,"Study Phase2",8004,,,-1,-1,,,,0.195
W10129411_WB,3fy6z5nhyo,Nick_Dissertation_EX1_EP,1,207,2021-12-01T21:02:26+00:00,8.0645699501038,1,versionA_stim.csv,READVersionA.csv,"Read Version A","Dissertation, read only version A",MIRROR,CHILDREN,Study2,U,174,155,Study,8,8,,Study/JOL,"Study Phase2",8000,,,-1,-1,,,,0
W10129411_WB,3fy6z5nhyo,Nick_Dissertation_EX1_EP,1,208,2021-12-01T21:02:34+00:00,8.0648100376129,1,versionA_stim.csv,READVersionA.csv,"Read Version A","Dissertation, read only version A",VEHICLE,CHARM,Study2,U,160,123,Study,8,8,,Study/JOL,"Study Phase2",8000,,,-1,-1,,,,0
W10129411_WB,3fy6z5nhyo,Nick_Dissertation_EX1_EP,1,209,2021-12-01T21:02:42+00:00,8.0697519779205,1,versionA_stim.csv,READVersionA.csv,"Read Version A","Dissertation, read only version A",CHILL,COLD,Study2,F,114,115,Study,8,8,,Study/JOL,"Study Phase2",8001,,,-1,-1,,,,0
W10129411_WB,3fy6z5nhyo,Nick_Dissertation_EX1_EP,1,210,2021-12-01T21:02:50+00:00,8.0689430236816,1,versionA_stim.csv,READVersionA.csv,"Read Version A","Dissertation, read only version A",CAT,PANTHER,Study2,B,126,108,Study,8,8,,Study/JOL,"Study Phase2",8001,,,-1,-1,,,,0
W10129411_WB,3fy6z5nhyo,Nick_Dissertation_EX1_EP,1,211,2021-12-01T21:02:58+00:00,8.1025359630585,1,versionA_stim.csv,READVersionA.csv,"Read Version A","Dissertation, read only version A",OWN,HAVE,Study2,S,153,98,Study,8,8,,Study/JOL,"Study Phase2",8001,,,-1,-1,,,,0
W10129411_WB,3fy6z5nhyo,Nick_Dissertation_EX1_EP,1,212,2021-12-01T21:03:06+00:00,8.0670349597931,1,versionA_stim.csv,READVersionA.csv,"Read Version A","Dissertation, read only version A",EXTENSION,LONG,Study2,F,96,130,Study,8,8,,Study/JOL,"Study Phase2",8001,,,-1,-1,,,,0
W10129411_WB,3fy6z5nhyo,Nick_Dissertation_EX1_EP,1,213,2021-12-01T21:03:14+00:00,8.0701961517334,1,versionA_stim.csv,READVersionA.csv,"Read Version A","Dissertation, read only version A",PLANE,AIRCRAFT,Study2,B,129,132,Study,8,8,,Study/JOL,"Study Phase2",8003,,,-1,-1,,,,0
W10129411_WB,3fy6z5nhyo,Nick_Dissertation_EX1_EP,1,214,2021-12-01T21:03:22+00:00,8.069620847702,1,versionA_stim.csv,READVersionA.csv,"Read Version A","Dissertation, read only version A",WRIST,BRACELET,Study2,S,140,112,Study,8,8,,Study/JOL,"Study Phase2",8000,,,-1,-1,,,,0
W10129411_WB,3fy6z5nhyo,Nick_Dissertation_EX1_EP,1,215,2021-12-01T21:03:30+00:00,8.0705451965332,1,versionA_stim.csv,READVersionA.csv,"Read Version A","Dissertation, read only version A",FUZZY,BANG,Study2,U,168,107,Study,8,8,,Study/JOL,"Study Phase2",8000,,,-1,-1,,,,0
W10129411_WB,3fy6z5nhyo,Nick_Dissertation_EX1_EP,1,216,2021-12-01T21:03:38+00:00,8.0648009777069,1,versionA_stim.csv,READVersionA.csv,"Read Version A","Dissertation, read only version A",Shell,SHAKE,Study2,U,163,163,Study,8,8,,Study/JOL,"Study Phase2",8002,,,-1,-1,,,,0
W10129411_WB,3fy6z5nhyo,Nick_Dissertation_EX1_EP,1,217,2021-12-01T21:03:47+00:00,8.0713098049164,1,versionA_stim.csv,READVersionA.csv,"Read Version A","Dissertation, read only version A",TURN,FLIP,Study2,B,116,99,Study,8,8,,Study/JOL,"Study Phase2",8001,,,-1,-1,,,,0
W10129411_WB,3fy6z5nhyo,Nick_Dissertation_EX1_EP,1,218,2021-12-01T21:03:55+00:00,8.0707881450653,1,versionA_stim.csv,READVersionA.csv,"Read Version A","Dissertation, read only version A",ELEMENT,CARBON,Study2,S,141,101,Study,8,8,,Study/JOL,"Study Phase2",8000,,,-1,-1,,,,0
W10129411_WB,3fy6z5nhyo,Nick_Dissertation_EX1_EP,1,219,2021-12-01T21:04:03+00:00,8.0817608833313,1,versionA_stim.csv,READVersionA.csv,"Read Version A","Dissertation, read only version A",MEAT,OBTAIN,Study2,U,161,148,Study,8,8,,Study/JOL,"Study Phase2",8000,,,-1,-1,,,,0
W10129411_WB,3fy6z5nhyo,Nick_Dissertation_EX1_EP,1,220,2021-12-01T21:04:11+00:00,8.0692801475525,1,versionA_stim.csv,READVersionA.csv,"Read Version A","Dissertation, read only version A",MAIN,SCAR,Study2,U,175,110,Study,8,8,,Study/JOL,"Study Phase2",8002,,,-1,-1,,,,0
W10129411_WB,3fy6z5nhyo,Nick_Dissertation_EX1_EP,1,221,2021-12-01T21:04:19+00:00,8.0701558589935,1,versionA_stim.csv,READVersionA.csv,"Read Version A","Dissertation, read only version A",THREAD,THIMBLE,Study2,B,121,140,Study,8,8,,Study/JOL,"Study Phase2",8003,,,-1,-1,,,,0
W10129411_WB,3fy6z5nhyo,Nick_Dissertation_EX1_EP,1,222,2021-12-01T21:04:27+00:00,8.0839211940765,1,versionA_stim.csv,READVersionA.csv,"Read Version A","Dissertation, read only version A",CACTUS,PLANT,Study2,F,98,154,Study,8,8,,Study/JOL,"Study Phase2",8000,,,-1,-1,,,,0
W10129411_WB,3fy6z5nhyo,Nick_Dissertation_EX1_EP,1,223,2021-12-01T21:04:35+00:00,8.0963459014893,1,versionA_stim.csv,READVersionA.csv,"Read Version A","Dissertation, read only version A",ADJOURN,END,Study2,F,101,175,Study,8,8,,Study/JOL,"Study Phase2",8001,,,-1,-1,,,,0
W10129411_WB,3fy6z5nhyo,Nick_Dissertation_EX1_EP,1,224,2021-12-01T21:04:43+00:00,8.0983209609985,1,versionA_stim.csv,READVersionA.csv,"Read Version A","Dissertation, read only version A",TRUTH,LIE,Study2,S,148,174,Study,8,8,,Study/JOL,"Study Phase2",8001,,,-1,-1,,,,0
W10129411_WB,3fy6z5nhyo,Nick_Dissertation_EX1_EP,1,225,2021-12-01T21:04:51+00:00,8.0653479099274,1,versionA_stim.csv,READVersionA.csv,"Read Version A","Dissertation, read only version A",MONEY,BANKER,Study2,B,132,159,Study,8,8,,Study/JOL,"Study Phase2",8000,,,-1,-1,,,,0
W10129411_WB,3fy6z5nhyo,Nick_Dissertation_EX1_EP,1,226,2021-12-01T21:04:59+00:00,8.0615491867065,1,versionA_stim.csv,READVersionA.csv,"Read Version A","Dissertation, read only version A",CAKE,CLOTHES,Study2,U,166,157,Study,8,8,,Study/JOL,"Study Phase2",8001,,,-1,-1,,,,0
W10129411_WB,3fy6z5nhyo,Nick_Dissertation_EX1_EP,1,227,2021-12-01T21:05:07+00:00,8.0654909610748,1,versionA_stim.csv,READVersionA.csv,"Read Version A","Dissertation, read only version A",GONE,AWAY,Study2,S,142,176,Study,8,8,,Study/JOL,"Study Phase2",8000,,,-1,-1,,,,0
W10129411_WB,3fy6z5nhyo,Nick_Dissertation_EX1_EP,1,228,2021-12-01T21:05:15+00:00,8.0702669620514,1,versionA_stim.csv,READVersionA.csv,"Read Version A","Dissertation, read only version A",GIVE,STEAK,Study2,U,158,124,Study,8,8,,Study/JOL,"Study Phase2",8002,,,-1,-1,,,,0
W10129411_WB,3fy6z5nhyo,Nick_Dissertation_EX1_EP,1,229,2021-12-01T21:05:23+00:00,8.0770919322968,1,versionA_stim.csv,READVersionA.csv,"Read Version A","Dissertation, read only version A",EVEN,REVENGE,Study2,B,122,160,Study,8,8,,Study/JOL,"Study Phase2",8001,,,-1,-1,,,,0
W10129411_WB,3fy6z5nhyo,Nick_Dissertation_EX1_EP,1,230,2021-12-01T21:05:31+00:00,8.0653669834137,1,versionA_stim.csv,READVersionA.csv,"Read Version A","Dissertation, read only version A",SHEARS,SCISSORS,Study2,F,112,122,Study,8,8,,Study/JOL,"Study Phase2",8000,,,-1,-1,,,,0
W10129411_WB,3fy6z5nhyo,Nick_Dissertation_EX1_EP,1,231,2021-12-01T21:05:40+00:00,8.0698561668396,1,versionA_stim.csv,READVersionA.csv,"Read Version A","Dissertation, read only version A",DRY,WET,Study2,S,146,103,Study,8,8,,Study/JOL,"Study Phase2",8001,,,-1,-1,,,,0
W10129411_WB,3fy6z5nhyo,Nick_Dissertation_EX1_EP,1,232,2021-12-01T21:05:48+00:00,8.0707650184631,1,versionA_stim.csv,READVersionA.csv,"Read Version A","Dissertation, read only version A",DEAD,COFFIN,Study2,B,128,170,Study,8,8,,Study/JOL,"Study Phase2",8000,,,-1,-1,,,,0
W10129411_WB,3fy6z5nhyo,Nick_Dissertation_EX1_EP,1,233,2021-12-01T21:05:56+00:00,8.068648815155,1,versionA_stim.csv,READVersionA.csv,"Read Version A","Dissertation, read only version A",RAZOR,SHAVE,Study2,S,136,125,Study,8,8,,Study/JOL,"Study Phase2",8001,,,-1,-1,,,,0
W10129411_WB,3fy6z5nhyo,Nick_Dissertation_EX1_EP,1,234,2021-12-01T21:06:04+00:00,8.0832841396332,1,versionA_stim.csv,READVersionA.csv,"Read Version A","Dissertation, read only version A",LOAN,SIGN,Study2,U,171,109,Study,8,8,,Study/JOL,"Study Phase2",8000,,,-1,-1,,,,0
W10129411_WB,3fy6z5nhyo,Nick_Dissertation_EX1_EP,1,235,2021-12-01T21:06:12+00:00,8.0819389820099,1,versionA_stim.csv,READVersionA.csv,"Read Version A","Dissertation, read only version A",FEUD,FIGHT,Study2,F,113,146,Study,8,8,,Study/JOL,"Study Phase2",8000,,,-1,-1,,,,0
W10129411_WB,3fy6z5nhyo,Nick_Dissertation_EX1_EP,1,236,2021-12-01T21:06:20+00:00,8.0708699226379,1,versionA_stim.csv,READVersionA.csv,"Read Version A","Dissertation, read only version A",FIGHT,BRAWL,Study2,B,135,153,Study,8,8,,Study/JOL,"Study Phase2",8003,,,-1,-1,,,,0
W10129411_WB,3fy6z5nhyo,Nick_Dissertation_EX1_EP,1,237,2021-12-01T21:06:28+00:00,8.0840721130371,1,versionA_stim.csv,READVersionA.csv,"Read Version A","Dissertation, read only version A",EARTH,GROUND,Study2,S,144,138,Study,8,8,,Study/JOL,"Study Phase2",8001,,,-1,-1,,,,0
W10129411_WB,3fy6z5nhyo,Nick_Dissertation_EX1_EP,1,238,2021-12-01T21:06:37+00:00,9.2508459091187,1,versionA_stim.csv,READVersionA.csv,"Read Version A","Dissertation, read only version A",SHOELACE,TIE,Study2,F,99,100,Study,8,8,,Study/JOL,"Study Phase2",8000,,,-1,-1,,,,0
W10129411_WB,3fy6z5nhyo,Nick_Dissertation_EX1_EP,1,239,2021-12-01T21:06:45+00:00,8.1916790008545,1,versionA_stim.csv,READVersionA.csv,"Read Version A","Dissertation, read only version A",MAZE,ELECTION,Study2,U,159,97,Study,8,8,,Study/JOL,"Study Phase2",8006,,,-1,-1,,,,0
W10129411_WB,3fy6z5nhyo,Nick_Dissertation_EX1_EP,1,240,2021-12-01T21:06:54+00:00,8.0910620689392,1,versionA_stim.csv,READVersionA.csv,"Read Version A","Dissertation, read only version A",MULE,DONKEY,Study2,F,108,133,Study,8,8,,Study/JOL,"Study Phase2",8000,,,-1,-1,,,,0
W10129411_WB,3fy6z5nhyo,Nick_Dissertation_EX1_EP,1,241,2021-12-01T21:07:02+00:00,8.1923089027405,1,versionA_stim.csv,READVersionA.csv,"Read Version A","Dissertation, read only version A",ROD,REEL,Study2,S,150,165,Study,8,8,,Study/JOL,"Study Phase2",8001,,,-1,-1,,,,0
W10129411_WB,3fy6z5nhyo,Nick_Dissertation_EX1_EP,1,242,2021-12-01T21:07:10+00:00,8.0675060749054,1,versionA_stim.csv,READVersionA.csv,"Read Version A","Dissertation, read only version A",JUSTICE,MAROON,Study2,U,156,118,Study,8,8,,Study/JOL,"Study Phase2",8001,,,-1,-1,,,,0
W10129411_WB,3fy6z5nhyo,Nick_Dissertation_EX1_EP,1,243,2021-12-01T21:07:18+00:00,8.0902218818665,1,versionA_stim.csv,READVersionA.csv,"Read Version A","Dissertation, read only version A",LOUD,NOISE,Study2,S,152,164,Study,8,8,,Study/JOL,"Study Phase2",8000,,,-1,-1,,,,0
W10129411_WB,3fy6z5nhyo,Nick_Dissertation_EX1_EP,1,244,2021-12-01T21:07:26+00:00,8.0668251514435,1,versionA_stim.csv,READVersionA.csv,"Read Version A","Dissertation, read only version A",AFFECTION,LOVE,Study2,F,115,120,Study,8,8,,Study/JOL,"Study Phase2",8001,,,-1,-1,,,,0
W10129411_WB,3fy6z5nhyo,Nick_Dissertation_EX1_EP,1,245,2021-12-01T21:07:34+00:00,8.0659918785095,1,versionA_stim.csv,READVersionA.csv,"Read Version A","Dissertation, read only version A",TANTRUM,TEMPER,Study2,S,154,136,Study,8,8,,Study/JOL,"Study Phase2",8000,,,-1,-1,,,,0
W10129411_WB,3fy6z5nhyo,Nick_Dissertation_EX1_EP,1,246,2021-12-01T21:07:42+00:00,8.0662620067596,1,versionA_stim.csv,READVersionA.csv,"Read Version A","Dissertation, read only version A",PHONE,COMMUNICATION,Study2,S,149,129,Study,8,8,,Study/JOL,"Study Phase2",8001,,,-1,-1,,,,0
W10129411_WB,3fy6z5nhyo,Nick_Dissertation_EX1_EP,1,247,2021-12-01T21:07:50+00:00,8.0710990428925,1,versionA_stim.csv,READVersionA.csv,"Read Version A","Dissertation, read only version A",BIRD,PENGUIN,Study2,B,119,116,Study,8,8,,Study/JOL,"Study Phase2",8001,,,-1,-1,,,,0
W10129411_WB,3fy6z5nhyo,Nick_Dissertation_EX1_EP,1,248,2021-12-01T21:07:58+00:00,8.0736610889435,1,versionA_stim.csv,READVersionA.csv,"Read Version A","Dissertation, read only version A",DETECTIVE,MYSTERY,Study2,F,100,162,Study,8,8,,Study/JOL,"Study Phase2",8003,,,-1,-1,,,,0
W10129411_WB,3fy6z5nhyo,Nick_Dissertation_EX1_EP,1,249,2021-12-01T21:08:06+00:00,8.086051940918,1,versionA_stim.csv,READVersionA.csv,"Read Version A","Dissertation, read only version A",INCENSE,SMELL,Study2,F,110,145,Study,8,8,,Study/JOL,"Study Phase2",8000,,,-1,-1,,,,0
W10129411_WB,3fy6z5nhyo,Nick_Dissertation_EX1_EP,1,250,2021-12-01T21:08:14+00:00,8.1303939819336,1,versionA_stim.csv,READVersionA.csv,"Read Version A","Dissertation, read only version A",STAR,ACTRESS,Study2,B,120,111,Study,8,8,,Study/JOL,"Study Phase2",8001,,,-1,-1,,,,0
W10129411_WB,3fy6z5nhyo,Nick_Dissertation_EX1_EP,1,251,2021-12-01T21:08:23+00:00,8.2991199493408,1,versionA_stim.csv,READVersionA.csv,"Read Version A","Dissertation, read only version A",SLEEP,NAP,Study2,B,134,141,Study,8,8,,Study/JOL,"Study Phase2",8002,,,-1,-1,,,,0
W10129411_WB,3fy6z5nhyo,Nick_Dissertation_EX1_EP,1,252,2021-12-01T21:08:31+00:00,8.0957100391388,1,versionA_stim.csv,READVersionA.csv,"Read Version A","Dissertation, read only version A",POP,BALLOON,Study2,B,123,152,Study,8,8,,Study/JOL,"Study Phase2",8005,,,-1,-1,,,,0
W10129411_WB,3fy6z5nhyo,Nick_Dissertation_EX1_EP,1,253,2021-12-01T21:08:39+00:00,8.0672619342804,1,versionA_stim.csv,READVersionA.csv,"Read Version A","Dissertation, read only version A",DINE,EAT,Study2,F,111,131,Study,8,8,,Study/JOL,"Study Phase2",8000,,,-1,-1,,,,0
W10129411_WB,3fy6z5nhyo,Nick_Dissertation_EX1_EP,1,254,2021-12-01T21:08:47+00:00,8.0662851333618,1,versionA_stim.csv,READVersionA.csv,"Read Version A","Dissertation, read only version A",SAFETY,SEATBELT,Study2,S,147,102,Study,8,8,,Study/JOL,"Study Phase2",8001,,,-1,-1,,,,0
W10129411_WB,3fy6z5nhyo,Nick_Dissertation_EX1_EP,1,255,2021-12-01T21:08:55+00:00,8.0678129196167,1,versionA_stim.csv,READVersionA.csv,"Read Version A","Dissertation, read only version A",MOAT,CLEAR,Study2,U,169,151,Study,8,8,,Study/JOL,"Study Phase2",8000,,,-1,-1,,,,0
W10129411_WB,3fy6z5nhyo,Nick_Dissertation_EX1_EP,1,256,2021-12-01T21:09:03+00:00,8.0662269592285,1,versionA_stim.csv,READVersionA.csv,"Read Version A","Dissertation, read only version A",CHERRY,RED,Study2,F,104,126,Study,8,8,,Study/JOL,"Study Phase2",8001,,,-1,-1,,,,0
W10129411_WB,3fy6z5nhyo,Nick_Dissertation_EX1_EP,1,257,2021-12-01T21:09:11+00:00,8.0673100948334,1,versionA_stim.csv,READVersionA.csv,"Read Version A","Dissertation, read only version A",HONEST,TRUTHFUL,Study2,B,133,139,Study,8,8,,Study/JOL,"Study Phase2",8001,,,-1,-1,,,,0
W10129411_WB,3fy6z5nhyo,Nick_Dissertation_EX1_EP,1,258,2021-12-01T21:09:19+00:00,8.0746510028839,1,versionA_stim.csv,READVersionA.csv,"Read Version A","Dissertation, read only version A",SUN,TAN,Study2,S,155,142,Study,8,8,,Study/JOL,"Study Phase2",8002,,,-1,-1,,,,0
W10129411_WB,3fy6z5nhyo,Nick_Dissertation_EX1_EP,1,259,2021-12-01T21:09:27+00:00,8.0824458599091,1,versionA_stim.csv,READVersionA.csv,"Read Version A","Dissertation, read only version A",FRUIT,STRAWBERRY,Study2,B,124,135,Study,8,8,,Study/JOL,"Study Phase2",8000,,,-1,-1,,,,0
W10129411_WB,3fy6z5nhyo,Nick_Dissertation_EX1_EP,1,260,2021-12-01T21:09:35+00:00,8.1400001049042,1,versionA_stim.csv,READVersionA.csv,"Read Version A","Dissertation, read only version A",SCALP,HEAD,Study2,F,105,169,Study,8,8,,Study/JOL,"Study Phase2",8000,,,-1,-1,,,,0
W10129411_WB,3fy6z5nhyo,Nick_Dissertation_EX1_EP,1,261,2021-12-01T21:09:44+00:00,8.1315898895264,1,versionA_stim.csv,READVersionA.csv,"Read Version A","Dissertation, read only version A",BAD,VILLAIN,Study2,B,118,147,Study,8,8,,Study/JOL,"Study Phase2",8001,,,-1,-1,,,,0
W10129411_WB,3fy6z5nhyo,Nick_Dissertation_EX1_EP,1,262,2021-12-01T21:09:52+00:00,8.1405980587006,1,versionA_stim.csv,READVersionA.csv,"Read Version A","Dissertation, read only version A",LITTER,TRASH,Study2,F,103,104,Study,8,8,,Study/JOL,"Study Phase2",8001,,,-1,-1,,,,0
W10129411_WB,3fy6z5nhyo,Nick_Dissertation_EX1_EP,1,263,2021-12-01T21:10:00+00:00,8.0963799953461,1,versionA_stim.csv,READVersionA.csv,"Read Version A","Dissertation, read only version A",KEYS,JOKE,Study2,U,165,134,Study,8,8,,Study/JOL,"Study Phase2",8003,,,-1,-1,,,,0
W10129411_WB,3fy6z5nhyo,Nick_Dissertation_EX1_EP,1,264,2021-12-01T21:10:08+00:00,8.0879101753235,1,versionA_stim.csv,READVersionA.csv,"Read Version A","Dissertation, read only version A",TOOL,SHED,BUFFER4,Buffer,178,178,Study,8,8,,Study/JOL,BUFFER4,8002,,,-1,-1,,,,0
W10129411_WB,3fy6z5nhyo,Nick_Dissertation_EX1_EP,1,265,2021-12-01T21:10:16+00:00,8.1044778823853,1,versionA_stim.csv,READVersionA.csv,"Read Version A","Dissertation, read only version A",DAYS,WEAKS,BUFFER4,Buffer,176,180,Study,8,8,,Study/JOL,BUFFER4,8001,,,-1,-1,,,,0
W10129411_WB,3fy6z5nhyo,Nick_Dissertation_EX1_EP,1,266,2021-12-01T21:10:24+00:00,8.130145072937,1,versionA_stim.csv,READVersionA.csv,"Read Version A","Dissertation, read only version A",OCTOBER,SPOOKY,BUFFER4,Buffer,180,181,Study,8,8,,Study/JOL,BUFFER4,8000,,,-1,-1,,,,0
W10129411_WB,3fy6z5nhyo,Nick_Dissertation_EX1_EP,1,267,2021-12-01T21:10:33+00:00,8.3721740245819,1,versionA_stim.csv,READVersionA.csv,"Read Version A","Dissertation, read only version A",MONTH,YEAR,BUFFER4,Buffer,177,177,Study,8,8,,Study/JOL,BUFFER4,8001,,,-1,-1,,,,0
W10129411_WB,3fy6z5nhyo,Nick_Dissertation_EX1_EP,1,268,2021-12-01T21:10:41+00:00,8.0797939300537,1,versionA_stim.csv,READVersionA.csv,"Read Version A","Dissertation, read only version A",SPRING,MARCH,BUFFER4,Buffer,179,179,Study,8,8,,Study/JOL,BUFFER4,8003,,,-1,-1,,,,0
W10129411_WB,3fy6z5nhyo,Nick_Dissertation_EX1_EP,1,269,2021-12-01T21:10:45+00:00,4.2701530456543,1,versionA_stim.csv,READVersionA.csv,"Read Version A","Dissertation, read only version A",,,,,,0,Instruct,User,-,"You have completed this section. Please press Enter.",Filler_Instruction,Instruct5,4181,,,-1,-1,,,,0.286
W10129411_WB,3fy6z5nhyo,Nick_Dissertation_EX1_EP,1,270,2021-12-01T21:12:45+00:00,120.13776683807,1,versionA_stim.csv,READVersionA.csv,"Read Version A","Dissertation, read only version A",,,,,,0,FreeRecall,120,120,"Please list the 50 US states in reverse alphabetical order (z - a). The task will automatically advance to the next screen after two minutes.",,Filler2,120000,"Wyoming Wisconsin West Virginia Washington Virginia Vermont Utah Texas Tennessee South Dakota South Carolina Rhode Island Pennsylvania Oregon Ohlahoma Ohio North Dakota South Dakota New York New Mexico New Jersey New Hampshire Nevada Nebraska Montana Missouri Mississippi Mi",0,49039,119943,0,0,,0.865
W10129411_WB,3fy6z5nhyo,Nick_Dissertation_EX1_EP,1,271,2021-12-01T21:12:59+00:00,14.299647092819,1,versionA_stim.csv,READVersionA.csv,"Read Version A","Dissertation, read only version A",,,,,,0,Instruct,-,10,"You will now be presented with the first word from each of the previously studied item pairs. Please type the missing word. If you do not know the word, you may guess or press Enter to skip forward to the next pair.",,Instruct6,14215,,,-1,-1,,,,0.972
W10129411_WB,3fy6z5nhyo,Nick_Dissertation_EX1_EP,1,272,2021-12-01T21:13:10+00:00,10.353641033173,1,versionA_stim.csv,READVersionA.csv,"Read Version A","Dissertation, read only version A",MEAT,OBTAIN,Study2,U,161,148,Test,User,-,,Recall,Recall2,10276,obtain,100,8933,9615,1,1,,0.404
W10129411_WB,3fy6z5nhyo,Nick_Dissertation_EX1_EP,1,273,2021-12-01T21:13:20+00:00,9.9576399326324,1,versionA_stim.csv,READVersionA.csv,"Read Version A","Dissertation, read only version A",MULE,DONKEY,Study2,F,108,133,Test,User,-,,Recall,Recall2,9879,Donkey,100,8619,9579,1,1,,0.28
W10129411_WB,3fy6z5nhyo,Nick_Dissertation_EX1_EP,1,274,2021-12-01T21:13:41+00:00,21.652027130127,1,versionA_stim.csv,READVersionA.csv,"Read Version A","Dissertation, read only version A",MONEY,BANKER,Study2,B,132,159,Test,User,-,,Recall,Recall2,21583,Banker,100,20745,21402,1,1,,0.241
W10129411_WB,3fy6z5nhyo,Nick_Dissertation_EX1_EP,1,275,2021-12-01T21:13:48+00:00,7.0473129749298,1,versionA_stim.csv,READVersionA.csv,"Read Version A","Dissertation, read only version A",MAIN,SCAR,Study2,U,175,110,Test,User,-,,Recall,Recall2,6969,Scar,100,6308,6772,1,1,,0.429
W10129411_WB,3fy6z5nhyo,Nick_Dissertation_EX1_EP,1,276,2021-12-01T21:13:56+00:00,7.6623318195343,1,versionA_stim.csv,READVersionA.csv,"Read Version A","Dissertation, read only version A",FUZZY,BANG,Study2,U,168,107,Test,User,-,,Recall,Recall2,7594,Bang,100,6963,7406,1,1,,0.5
W10129411_WB,3fy6z5nhyo,Nick_Dissertation_EX1_EP,1,277,2021-12-01T21:14:03+00:00,7.1766881942749,1,versionA_stim.csv,READVersionA.csv,"Read Version A","Dissertation, read only version A",GLASS,BREAKABLE,Study2,B,127,119,Test,User,-,,Recall,Recall2,7110,Breakable,100,5441,6996,1,1,,0.806
W10129411_WB,3fy6z5nhyo,Nick_Dissertation_EX1_EP,1,278,2021-12-01T21:14:13+00:00,10.244968891144,1,versionA_stim.csv,READVersionA.csv,"Read Version A","Dissertation, read only version A",BEST,FAVORITE,Study2,B,125,114,Test,User,-,,Recall,Recall2,10170,Favourite,94.117647058824,8786,9790,0,1,,0.451
W10129411_WB,3fy6z5nhyo,Nick_Dissertation_EX1_EP,1,279,2021-12-01T21:14:21+00:00,7.1026790142059,1,versionA_stim.csv,READVersionA.csv,"Read Version A","Dissertation, read only version A",WRIST,BRACELET,Study2,S,140,112,Test,User,-,,Recall,Recall2,7032,Bracelet,100,5511,6433,1,1,,0.528
W10129411_WB,3fy6z5nhyo,Nick_Dissertation_EX1_EP,1,280,2021-12-01T21:14:38+00:00,17.336110115051,1,versionA_stim.csv,READVersionA.csv,"Read Version A","Dissertation, read only version A",ELEMENT,CARBON,Study2,S,141,101,Test,User,-,,Recall,Recall2,17263,Carbon,100,16252,17032,1,1,,0.943
W10129411_WB,3fy6z5nhyo,Nick_Dissertation_EX1_EP,1,281,2021-12-01T21:14:44+00:00,6.0782577991486,1,versionA_stim.csv,READVersionA.csv,"Read Version A","Dissertation, read only version A",NAME,HATE,Study2,U,167,127,Test,User,-,,Recall,Recall2,6006,Hate,100,5491,5862,1,1,,0.452
W10129411_WB,3fy6z5nhyo,Nick_Dissertation_EX1_EP,1,282,2021-12-01T21:14:56+00:00,11.749813079834,1,versionA_stim.csv,READVersionA.csv,"Read Version A","Dissertation, read only version A",LISTEN,FICTION,Study2,U,164,128,Test,User,-,,Recall,Recall2,11370,Fictional,87.5,8925,11032,0,1,,0.614
W10129411_WB,3fy6z5nhyo,Nick_Dissertation_EX1_EP,1,283,2021-12-01T21:15:06+00:00,9.8823781013489,1,versionA_stim.csv,READVersionA.csv,"Read Version A","Dissertation, read only version A",MIRROR,CHILDREN,Study2,U,174,155,Test,User,-,,Recall,Recall2,9806,Child,76.923076923077,8838,9582,0,1,,0.42
W10129411_WB,3fy6z5nhyo,Nick_Dissertation_EX1_EP,1,284,2021-12-01T21:15:15+00:00,8.9436240196228,1,versionA_stim.csv,READVersionA.csv,"Read Version A","Dissertation, read only version A",DEAD,COFFIN,Study2,B,128,170,Test,User,-,,Recall,Recall2,8863,Coffin,100,7794,8585,1,1,,0.467
W10129411_WB,3fy6z5nhyo,Nick_Dissertation_EX1_EP,1,285,2021-12-01T21:15:23+00:00,8.3524298667908,1,versionA_stim.csv,READVersionA.csv,"Read Version A","Dissertation, read only version A",CHILL,COLD,Study2,F,114,115,Test,User,-,,Recall,Recall2,8279,Cold,100,7624,8107,1,1,,0.595
W10129411_WB,3fy6z5nhyo,Nick_Dissertation_EX1_EP,1,286,2021-12-01T21:16:21+00:00,57.890403985977,1,versionA_stim.csv,READVersionA.csv,"Read Version A","Dissertation, read only version A",FLEA,TICK,Study2,S,151,144,Test,User,-,,Recall,Recall2,57808,Tick,100,57131,57553,1,1,,0.087
W10129411_WB,3fy6z5nhyo,Nick_Dissertation_EX1_EP,1,287,2021-12-01T21:16:28+00:00,7.0914120674133,1,versionA_stim.csv,READVersionA.csv,"Read Version A","Dissertation, read only version A",STRETCH,CLOTH,Study2,U,157,172,Test,User,-,,Recall,Recall2,6995,Cloth,100,5916,6631,1,1,,0.457
W10129411_WB,3fy6z5nhyo,Nick_Dissertation_EX1_EP,1,288,2021-12-01T21:16:36+00:00,8.6133639812469,1,versionA_stim.csv,READVersionA.csv,"Read Version A","Dissertation, read only version A",SCALP,HEAD,Study2,F,105,169,Test,User,-,,Recall,Recall2,8544,Head,100,7955,8371,1,1,,0.419
W10129411_WB,3fy6z5nhyo,Nick_Dissertation_EX1_EP,1,289,2021-12-01T21:16:46+00:00,9.771518945694,1,versionA_stim.csv,READVersionA.csv,"Read Version A","Dissertation, read only version A",MASON,JAR,Study2,S,138,105,Test,User,-,,Recall,Recall2,9699,Jar,100,9085,9383,1,1,,0.327
W10129411_WB,3fy6z5nhyo,Nick_Dissertation_EX1_EP,1,290,2021-12-01T21:16:55+00:00,8.69260597229,1,versionA_stim.csv,READVersionA.csv,"Read Version A","Dissertation, read only version A",PHONE,COMMUNICATION,Study2,S,149,129,Test,User,-,,Recall,Recall2,8619,Communication,100,6408,8384,1,1,,0.5
W10129411_WB,3fy6z5nhyo,Nick_Dissertation_EX1_EP,1,291,2021-12-01T21:17:01+00:00,6.1623721122742,1,versionA_stim.csv,READVersionA.csv,"Read Version A","Dissertation, read only version A",FURRY,DOG,Study2,F,102,137,Test,User,-,,Recall,Recall2,6090,Dog,100,5591,5940,1,1,,0.452
W10129411_WB,3fy6z5nhyo,Nick_Dissertation_EX1_EP,1,292,2021-12-01T21:17:08+00:00,6.4194478988647,1,versionA_stim.csv,READVersionA.csv,"Read Version A","Dissertation, read only version A",EVEN,REVENGE,Study2,B,122,160,Test,User,-,,Recall,Recall2,6338,Revenge,100,5398,6119,1,1,,0.438
W10129411_WB,3fy6z5nhyo,Nick_Dissertation_EX1_EP,1,293,2021-12-01T21:17:16+00:00,8.9370820522308,1,versionA_stim.csv,READVersionA.csv,"Read Version A","Dissertation, read only version A",CANDLE,WAX,Study2,S,139,156,Test,User,-,,Recall,Recall2,8865,Wax,100,8102,8624,1,1,,0.378
W10129411_WB,3fy6z5nhyo,Nick_Dissertation_EX1_EP,1,294,2021-12-01T21:17:21+00:00,5.003968000412,1,versionA_stim.csv,READVersionA.csv,"Read Version A","Dissertation, read only version A",ROD,REEL,Study2,S,150,165,Test,User,-,,Recall,Recall2,4911,Fishing,0,3061,4392,0,0,,1
W10129411_WB,3fy6z5nhyo,Nick_Dissertation_EX1_EP,1,295,2021-12-01T21:17:25+00:00,3.3983120918274,1,versionA_stim.csv,READVersionA.csv,"Read Version A","Dissertation, read only version A",MOAT,CLEAR,Study2,U,169,151,Test,User,-,,Recall,Recall2,3321,Clear,100,2459,3215,1,1,,1
W10129411_WB,3fy6z5nhyo,Nick_Dissertation_EX1_EP,1,296,2021-12-01T21:17:34+00:00,9.4206650257111,1,versionA_stim.csv,READVersionA.csv,"Read Version A","Dissertation, read only version A",KEYS,JOKE,Study2,U,165,134,Test,User,-,,Recall,Recall2,7672,Joke,100,6957,7481,1,1,,0.359
W10129411_WB,3fy6z5nhyo,Nick_Dissertation_EX1_EP,1,297,2021-12-01T21:17:41+00:00,6.3277368545532,1,versionA_stim.csv,READVersionA.csv,"Read Version A","Dissertation, read only version A",GIVE,STEAK,Study2,U,158,124,Test,User,-,,Recall,Recall2,6208,Steak,100,5358,5931,1,1,,0.531
W10129411_WB,3fy6z5nhyo,Nick_Dissertation_EX1_EP,1,298,2021-12-01T21:17:50+00:00,9.2876539230347,1,versionA_stim.csv,READVersionA.csv,"Read Version A","Dissertation, read only version A",TURN,FLIP,Study2,B,116,99,Test,User,-,,Recall,Recall2,9196,Flip,100,7899,8852,1,1,,0.478
W10129411_WB,3fy6z5nhyo,Nick_Dissertation_EX1_EP,1,299,2021-12-01T21:17:59+00:00,8.9191381931305,1,versionA_stim.csv,READVersionA.csv,"Read Version A","Dissertation, read only version A",JUSTICE,MAROON,Study2,U,156,118,Test,User,-,,Recall,Recall2,8848,Maroon,100,7636,8552,1,1,,0.444
W10129411_WB,3fy6z5nhyo,Nick_Dissertation_EX1_EP,1,300,2021-12-01T21:18:02+00:00,3.3632409572601,1,versionA_stim.csv,READVersionA.csv,"Read Version A","Dissertation, read only version A",DOCUMENT,PAPER,Study2,F,109,168,Test,User,-,,Recall,Recall2,3289,Paper,100,2549,3194,1,1,,1
W10129411_WB,3fy6z5nhyo,Nick_Dissertation_EX1_EP,1,301,2021-12-01T21:18:04+00:00,1.5122208595276,1,versionA_stim.csv,READVersionA.csv,"Read Version A","Dissertation, read only version A",AFFECTION,LOVE,Study2,F,115,120,Test,User,-,,Recall,Recall2,1444,Love,100,1005,1304,1,1,,1
W10129411_WB,3fy6z5nhyo,Nick_Dissertation_EX1_EP,1,302,2021-12-01T21:18:13+00:00,9.4033892154694,1,versionA_stim.csv,READVersionA.csv,"Read Version A","Dissertation, read only version A",BOTH,OUNCE,Study2,U,172,106,Test,User,-,,Recall,Recall2,9331,Ounce,100,8577,9159,1,1,,0.468
W10129411_WB,3fy6z5nhyo,Nick_Dissertation_EX1_EP,1,303,2021-12-01T21:18:16+00:00,2.7334299087524,1,versionA_stim.csv,READVersionA.csv,"Read Version A","Dissertation, read only version A",FEUD,FIGHT,Study2,F,113,146,Test,User,-,,Recall,Recall2,2645,Fight,100,1940,2456,1,1,,1
W10129411_WB,3fy6z5nhyo,Nick_Dissertation_EX1_EP,1,304,2021-12-01T21:18:18+00:00,2.6333329677582,1,versionA_stim.csv,READVersionA.csv,"Read Version A","Dissertation, read only version A",Shell,SHAKE,Study2,U,163,163,Test,User,-,,Recall,Recall2,2526,SHAKE,100,1367,2045,1,1,,1
W10129411_WB,3fy6z5nhyo,Nick_Dissertation_EX1_EP,1,305,2021-12-01T21:18:28+00:00,9.3461880683899,1,versionA_stim.csv,READVersionA.csv,"Read Version A","Dissertation, read only version A",VEHICLE,CHARM,Study2,U,160,123,Test,User,-,,Recall,Recall2,9278,Charm,100,8533,9034,1,1,,0.511
W10129411_WB,3fy6z5nhyo,Nick_Dissertation_EX1_EP,1,306,2021-12-01T21:18:40+00:00,11.8568110466,1,versionA_stim.csv,READVersionA.csv,"Read Version A","Dissertation, read only version A",FISH,SARDINE,Study2,B,130,166,Test,User,-,,Recall,Recall2,11781,"Sardine and Shrimp",56,7066,11522,0,0,,0.661
W10129411_WB,3fy6z5nhyo,Nick_Dissertation_EX1_EP,1,307,2021-12-01T21:18:49+00:00,9.0571718215942,1,versionA_stim.csv,READVersionA.csv,"Read Version A","Dissertation, read only version A",DRIVER,CAR,Study2,F,106,113,Test,User,-,,Recall,Recall2,8988,Car,100,8384,8641,1,1,,0.6
W10129411_WB,3fy6z5nhyo,Nick_Dissertation_EX1_EP,1,308,2021-12-01T21:18:58+00:00,9.7433750629425,1,versionA_stim.csv,READVersionA.csv,"Read Version A","Dissertation, read only version A",RAZOR,SHAVE,Study2,S,136,125,Test,User,-,,Recall,Recall2,9671,Shave,100,7914,9396,1,1,,0.633
W10129411_WB,3fy6z5nhyo,Nick_Dissertation_EX1_EP,1,309,2021-12-01T21:19:02+00:00,3.3327069282532,1,versionA_stim.csv,READVersionA.csv,"Read Version A","Dissertation, read only version A",ALONE,LONELY,Study2,S,145,143,Test,User,-,,Recall,Recall2,3265,Lonely,100,2274,3108,1,1,,1
W10129411_WB,3fy6z5nhyo,Nick_Dissertation_EX1_EP,1,310,2021-12-01T21:19:11+00:00,9.014151096344,1,versionA_stim.csv,READVersionA.csv,"Read Version A","Dissertation, read only version A",BIRD,PENGUIN,Study2,B,119,116,Test,User,-,,Recall,Recall2,8938,Penguin,100,7007,8625,1,1,,0.511
W10129411_WB,3fy6z5nhyo,Nick_Dissertation_EX1_EP,1,311,2021-12-01T21:19:14+00:00,3.1308748722076,1,versionA_stim.csv,READVersionA.csv,"Read Version A","Dissertation, read only version A",POP,BALLOON,Study2,B,123,152,Test,User,-,,Recall,Recall2,3058,Soda,18.181818181818,2168,2807,0,0,,1
W10129411_WB,3fy6z5nhyo,Nick_Dissertation_EX1_EP,1,312,2021-12-01T21:19:24+00:00,10.171205997467,1,versionA_stim.csv,READVersionA.csv,"Read Version A","Dissertation, read only version A",CAT,PANTHER,Study2,B,126,108,Test,User,-,,Recall,Recall2,10093,Panther,100,9029,9859,1,1,,0.353
W10129411_WB,3fy6z5nhyo,Nick_Dissertation_EX1_EP,1,313,2021-12-01T21:19:27+00:00,2.4922461509705,1,versionA_stim.csv,READVersionA.csv,"Read Version A","Dissertation, read only version A",TANTRUM,TEMPER,Study2,S,154,136,Test,User,-,,Recall,Recall2,2423,Temper,100,1400,2286,1,1,,1
W10129411_WB,3fy6z5nhyo,Nick_Dissertation_EX1_EP,1,314,2021-12-01T21:19:29+00:00,2.0143258571625,1,versionA_stim.csv,READVersionA.csv,"Read Version A","Dissertation, read only version A",INCENSE,SMELL,Study2,F,110,145,Test,User,-,,Recall,Recall2,1947,Smell,100,1030,1774,1,1,,1
W10129411_WB,3fy6z5nhyo,Nick_Dissertation_EX1_EP,1,315,2021-12-01T21:19:35+00:00,6.6215209960938,1,versionA_stim.csv,READVersionA.csv,"Read Version A","Dissertation, read only version A",SHEARS,SCISSORS,Study2,F,112,122,Test,User,-,,Recall,Recall2,6553,Scissors,100,5217,6358,1,1,,0.515
W10129411_WB,3fy6z5nhyo,Nick_Dissertation_EX1_EP,1,316,2021-12-01T21:19:45+00:00,9.745824098587,1,versionA_stim.csv,READVersionA.csv,"Read Version A","Dissertation, read only version A",RIGHTS,EQUAL,Study2,S,137,158,Test,User,-,,Recall,Recall2,9672,Equal,100,8715,9392,1,1,,0.327
W10129411_WB,3fy6z5nhyo,Nick_Dissertation_EX1_EP,1,317,2021-12-01T21:19:55+00:00,10.353950977325,1,versionA_stim.csv,READVersionA.csv,"Read Version A","Dissertation, read only version A",TRUTH,LIE,Study2,S,148,174,Test,User,-,,Recall,Recall2,10283,Lie,100,9600,9987,1,1,,0.577
W10129411_WB,3fy6z5nhyo,Nick_Dissertation_EX1_EP,1,318,2021-12-01T21:20:04+00:00,8.9956369400024,1,versionA_stim.csv,READVersionA.csv,"Read Version A","Dissertation, read only version A",BAD,VILLAIN,Study2,B,118,147,Test,User,-,,Recall,Recall2,8908,Villain,100,7730,8703,1,1,,0.533
W10129411_WB,3fy6z5nhyo,Nick_Dissertation_EX1_EP,1,319,2021-12-01T21:20:16+00:00,11.574271202087,1,versionA_stim.csv,READVersionA.csv,"Read Version A","Dissertation, read only version A",CAR,WINDSHIELD,Study2,B,117,167,Test,User,-,,Recall,Recall2,11462,"Driver and Windshield",64.516129032258,7326,11227,0,0,,0.603
W10129411_WB,3fy6z5nhyo,Nick_Dissertation_EX1_EP,1,320,2021-12-01T21:20:20+00:00,3.9456548690796,1,versionA_stim.csv,READVersionA.csv,"Read Version A","Dissertation, read only version A",EARTH,GROUND,Study2,S,144,138,Test,User,-,,Recall,Recall2,3856,Ground,100,2969,3695,1,1,,1
W10129411_WB,3fy6z5nhyo,Nick_Dissertation_EX1_EP,1,321,2021-12-01T21:20:31+00:00,10.656400918961,1,versionA_stim.csv,READVersionA.csv,"Read Version A","Dissertation, read only version A",STAR,ACTRESS,Study2,B,120,111,Test,User,-,,Recall,Recall2,7750,Actress,100,6532,7584,1,1,,0.513
W10129411_WB,3fy6z5nhyo,Nick_Dissertation_EX1_EP,1,322,2021-12-01T21:20:40+00:00,9.512176990509,1,versionA_stim.csv,READVersionA.csv,"Read Version A","Dissertation, read only version A",SUN,TAN,Study2,S,155,142,Test,User,-,,Recall,Recall2,9386,Tan,100,8831,9113,1,1,,0.298
W10129411_WB,3fy6z5nhyo,Nick_Dissertation_EX1_EP,1,323,2021-12-01T21:20:53+00:00,12.698399066925,1,versionA_stim.csv,READVersionA.csv,"Read Version A","Dissertation, read only version A",CACTUS,PLANT,Study2,F,98,154,Test,User,-,,Recall,Recall2,12629,Plant,100,10936,12336,1,1,,0.438
W10129411_WB,3fy6z5nhyo,Nick_Dissertation_EX1_EP,1,324,2021-12-01T21:21:01+00:00,8.6949150562286,1,versionA_stim.csv,READVersionA.csv,"Read Version A","Dissertation, read only version A",WATER,DRINK,Study2,S,143,117,Test,User,-,,Recall,Recall2,8612,Drink,100,7775,8370,1,1,,0.455
W10129411_WB,3fy6z5nhyo,Nick_Dissertation_EX1_EP,1,325,2021-12-01T21:21:08+00:00,7.0163240432739,1,versionA_stim.csv,READVersionA.csv,"Read Version A","Dissertation, read only version A",GONE,AWAY,Study2,S,142,176,Test,User,-,,Recall,Recall2,6935,Away,100,5720,6517,1,1,,0.514
W10129411_WB,3fy6z5nhyo,Nick_Dissertation_EX1_EP,1,326,2021-12-01T21:21:17+00:00,8.5010368824005,1,versionA_stim.csv,READVersionA.csv,"Read Version A","Dissertation, read only version A",HONEST,TRUTHFUL,Study2,B,133,139,Test,User,-,,Recall,Recall2,8425,Truthful,100,5936,8144,1,1,,0.605
W10129411_WB,3fy6z5nhyo,Nick_Dissertation_EX1_EP,1,327,2021-12-01T21:21:20+00:00,2.8912870883942,1,versionA_stim.csv,READVersionA.csv,"Read Version A","Dissertation, read only version A",THREAD,THIMBLE,Study2,B,121,140,Test,User,-,,Recall,Recall2,2817,Thimble,100,1652,2663,1,1,,1
W10129411_WB,3fy6z5nhyo,Nick_Dissertation_EX1_EP,1,328,2021-12-01T21:21:28+00:00,8.4608900547028,1,versionA_stim.csv,READVersionA.csv,"Read Version A","Dissertation, read only version A",DINE,EAT,Study2,F,111,131,Test,User,-,,Recall,Recall2,8387,Eat,100,2701,8143,1,1,,0.548
W10129411_WB,3fy6z5nhyo,Nick_Dissertation_EX1_EP,1,329,2021-12-01T21:21:37+00:00,9.1973400115967,1,versionA_stim.csv,READVersionA.csv,"Read Version A","Dissertation, read only version A",LOAN,SIGN,Study2,U,171,109,Test,User,-,,Recall,Recall2,9128,Sign,100,8117,8741,1,1,,0.522
W10129411_WB,3fy6z5nhyo,Nick_Dissertation_EX1_EP,1,330,2021-12-01T21:21:47+00:00,9.1361248493195,1,versionA_stim.csv,READVersionA.csv,"Read Version A","Dissertation, read only version A",SAFETY,SEATBELT,Study2,S,147,102,Test,User,-,,Recall,Recall2,9065,Seatbelt,100,7794,8883,1,1,,0.435
W10129411_WB,3fy6z5nhyo,Nick_Dissertation_EX1_EP,1,331,2021-12-01T21:21:56+00:00,9.8611390590668,1,versionA_stim.csv,READVersionA.csv,"Read Version A","Dissertation, read only version A",TEMPERATURE,Morning,Study2,U,173,149,Test,User,-,,Recall,Recall2,9790,Morning,100,7635,9585,1,1,,0.49
W10129411_WB,3fy6z5nhyo,Nick_Dissertation_EX1_EP,1,332,2021-12-01T21:22:10+00:00,13.684575080872,1,versionA_stim.csv,READVersionA.csv,"Read Version A","Dissertation, read only version A",FIGHT,BRAWL,Study2,B,135,153,Test,User,-,,Recall,Recall2,13607,"Brawl and Feud",52.631578947368,6925,13423,0,0,,0.652
W10129411_WB,3fy6z5nhyo,Nick_Dissertation_EX1_EP,1,333,2021-12-01T21:22:19+00:00,9.2604308128357,1,versionA_stim.csv,READVersionA.csv,"Read Version A","Dissertation, read only version A",SHOELACE,TIE,Study2,F,99,100,Test,User,-,,Recall,Recall2,9185,tie,100,7215,8869,1,1,,0.413
W10129411_WB,3fy6z5nhyo,Nick_Dissertation_EX1_EP,1,334,2021-12-01T21:22:29+00:00,9.091001033783,1,versionA_stim.csv,READVersionA.csv,"Read Version A","Dissertation, read only version A",CRACKLE,ABLE,Study2,U,162,171,Test,User,-,,Recall,Recall2,9010,able,100,8366,8841,1,1,,0.435
W10129411_WB,3fy6z5nhyo,Nick_Dissertation_EX1_EP,1,335,2021-12-01T21:22:37+00:00,8.1737439632416,1,versionA_stim.csv,READVersionA.csv,"Read Version A","Dissertation, read only version A",CHOP,CUT,Study2,F,107,121,Test,User,-,,Recall,Recall2,8102,cut,100,7536,7942,1,1,,0.439
W10129411_WB,3fy6z5nhyo,Nick_Dissertation_EX1_EP,1,336,2021-12-01T21:22:44+00:00,7.7111070156097,1,versionA_stim.csv,READVersionA.csv,"Read Version A","Dissertation, read only version A",ADJOURN,END,Study2,F,101,175,Test,User,-,,Recall,Recall2,7633,end,100,7109,7421,1,1,,0.359
W10129411_WB,3fy6z5nhyo,Nick_Dissertation_EX1_EP,1,337,2021-12-01T21:22:54+00:00,9.6208341121674,1,versionA_stim.csv,READVersionA.csv,"Read Version A","Dissertation, read only version A",BASEBALL,LEAGUE,Study2,B,131,150,Test,User,-,,Recall,Recall2,9548,league,100,8659,9239,1,1,,0.563
W10129411_WB,3fy6z5nhyo,Nick_Dissertation_EX1_EP,1,338,2021-12-01T21:23:12+00:00,17.797053098679,1,versionA_stim.csv,READVersionA.csv,"Read Version A","Dissertation, read only version A",LITTER,TRASH,Study2,F,103,104,Test,User,-,,Recall,Recall2,15186,Trash,100,14287,14856,1,1,,0.803
W10129411_WB,3fy6z5nhyo,Nick_Dissertation_EX1_EP,1,339,2021-12-01T21:23:21+00:00,9.3572599887848,1,versionA_stim.csv,READVersionA.csv,"Read Version A","Dissertation, read only version A",LOUD,NOISE,Study2,S,152,164,Test,User,-,,Recall,Recall2,9188,Noise,100,8019,8721,1,1,,0.5
W10129411_WB,3fy6z5nhyo,Nick_Dissertation_EX1_EP,1,340,2021-12-01T21:23:39+00:00,17.53679895401,1,versionA_stim.csv,READVersionA.csv,"Read Version A","Dissertation, read only version A",SLEEP,NAP,Study2,B,134,141,Test,User,-,,Recall,Recall2,17456,daze,28.571428571429,14669,16973,0,0,,0.341
W10129411_WB,3fy6z5nhyo,Nick_Dissertation_EX1_EP,1,341,2021-12-01T21:23:58+00:00,18.782799959183,1,versionA_stim.csv,READVersionA.csv,"Read Version A","Dissertation, read only version A",EXTENSION,LONG,Study2,F,96,130,Test,User,-,,Recall,Recall2,18709,lengthen,50,17434,18469,0,0,,0.277
W10129411_WB,3fy6z5nhyo,Nick_Dissertation_EX1_EP,1,342,2021-12-01T21:24:02+00:00,4.6037991046906,1,versionA_stim.csv,READVersionA.csv,"Read Version A","Dissertation, read only version A",DETECTIVE,MYSTERY,Study2,F,100,162,Test,User,-,,Recall,Recall2,4528,mystery,100,2750,4356,1,1,,1
W10129411_WB,3fy6z5nhyo,Nick_Dissertation_EX1_EP,1,343,2021-12-01T21:24:09+00:00,7.0686359405518,1,versionA_stim.csv,READVersionA.csv,"Read Version A","Dissertation, read only version A",MAZE,ELECTION,Study2,U,159,97,Test,User,-,,Recall,Recall2,6998,election,100,5420,6736,1,1,,0.486
W10129411_WB,3fy6z5nhyo,Nick_Dissertation_EX1_EP,1,344,2021-12-01T21:24:17+00:00,8.0788660049438,1,versionA_stim.csv,READVersionA.csv,"Read Version A","Dissertation, read only version A",FRUIT,STRAWBERRY,Study2,B,124,135,Test,User,-,,Recall,Recall2,8003,strawberry,100,6201,7777,1,1,,0.525
W10129411_WB,3fy6z5nhyo,Nick_Dissertation_EX1_EP,1,345,2021-12-01T21:24:31+00:00,13.92497587204,1,versionA_stim.csv,READVersionA.csv,"Read Version A","Dissertation, read only version A",PLANE,AIRCRAFT,Study2,B,129,132,Test,User,-,,Recall,Recall2,13851,Aircraft,100,12485,13680,1,1,,0.286
W10129411_WB,3fy6z5nhyo,Nick_Dissertation_EX1_EP,1,346,2021-12-01T21:24:38+00:00,7.3006341457367,1,versionA_stim.csv,READVersionA.csv,"Read Version A","Dissertation, read only version A",DRY,WET,Study2,S,146,103,Test,User,-,,Recall,Recall2,7224,Wet,100,6618,7003,1,1,,0.595
W10129411_WB,3fy6z5nhyo,Nick_Dissertation_EX1_EP,1,347,2021-12-01T21:25:02+00:00,23.216701030731,1,versionA_stim.csv,READVersionA.csv,"Read Version A","Dissertation, read only version A",OWN,HAVE,Study2,S,153,98,Test,User,-,,Recall,Recall2,23145,Have,100,22433,22902,1,1,,0.147
W10129411_WB,3fy6z5nhyo,Nick_Dissertation_EX1_EP,1,348,2021-12-01T21:25:09+00:00,7.5749619007111,1,versionA_stim.csv,READVersionA.csv,"Read Version A","Dissertation, read only version A",LEASE,TOIL,Study2,U,170,173,Test,User,-,,Recall,Recall2,7417,Toil,100,6592,7235,1,1,,0.447
W10129411_WB,3fy6z5nhyo,Nick_Dissertation_EX1_EP,1,349,2021-12-01T21:25:11+00:00,1.8003120422363,1,versionA_stim.csv,READVersionA.csv,"Read Version A","Dissertation, read only version A",CHERRY,RED,Study2,F,104,126,Test,User,-,,Recall,Recall2,1728,Red,100,1287,1612,1,1,,1
W10129411_WB,3fy6z5nhyo,Nick_Dissertation_EX1_EP,1,350,2021-12-01T21:25:18+00:00,6.5362708568573,1,versionA_stim.csv,READVersionA.csv,"Read Version A","Dissertation, read only version A",CAKE,CLOTHES,Study2,U,166,157,Test,User,-,,Recall,Recall2,6461,Clothes,100,5407,6257,1,1,,0.485
W10129411_WB,3fy6z5nhyo,Nick_Dissertation_EX1_EP,1,351,2021-12-01T21:25:24+00:00,6.4589149951935,1,versionA_stim.csv,READVersionA.csv,"Read Version A","Dissertation, read only version A",CLUE,GAME,Study2,F,97,161,Test,User,-,,Recall,Recall2,6388,Game,100,5768,6205,1,1,,0.469
W10129411_WB,3fy6z5nhyo,Nick_Dissertation_EX1_EP,1,352,2021-12-01T21:25:26+00:00,1.8749091625214,1,versionA_stim.csv,READVersionA.csv,"Read Version A","Dissertation, read only version A",,,,,,0,Instruct,User,-,"You have completed this section. Please press Enter.",,Instruct7,1804,,,-1,-1,,,,1
W10129411_WB,3fy6z5nhyo,Nick_Dissertation_EX1_EP,1,353,2021-12-01T21:25:31+00:00,4.7152478694916,1,versionA_stim.csv,READVersionA.csv,"Read Version A","Dissertation, read only version A",,,,,,0,Instruct,User,-,"The following screen will ask you a few questions abour your experience today. You must complete these questions to receive credit.",,Instruct8,4639,,,-1,-1,,,,1
