Username,ID,ExperimentName,Session,Trial,Date,TimeDif,"Condition Number","Stimuli File","Order File","Condition Description","Condition Notes",Stimuli*Cue,Stimuli*Answer,Stimuli*Shuffle,"Stimuli*Stimuli Notes",Stimuli*Value,Procedure*Item,"Procedure*Trial Type","Procedure*Max Time","Procedure*Min Time",Procedure*Text,"Procedure*Procedure Notes",Procedure*Shuffle,Response*RT,Response*Response,Response*Accuracy,Response*RTfirst,Response*RTlast,Response*strictAcc,Response*lenientAcc,Response*focus,Response*Focus
kw781666,i2s3tehuo2,Nick_Dissertation_EX1_EP,1,1,2021-12-01T22:44:12+00:00,12.212384939194,1,versionA_stim.csv,READVersionA.csv,"Read Version A","Dissertation, read only version A",,,,,,0,Instruct,-,5,"In this section, you will be presented with a series of word pairs.",Initial_Instruct,Instruct1,10448,,,-1,-1,,,,1
kw781666,i2s3tehuo2,Nick_Dissertation_EX1_EP,1,2,2021-12-01T22:44:23+00:00,11.322471141815,1,versionA_stim.csv,READVersionA.csv,"Read Version A","Dissertation, read only version A",,,,,,0,Instruct,-,10,"Each word will be displayed on the computer screen for 8 seconds. The screen will automatically move to the next pair when time is up. Please study each pair. Your memory will be tested!",,Instruct15,11047,,,-1,-1,,,,1
kw781666,i2s3tehuo2,Nick_Dissertation_EX1_EP,1,3,2021-12-01T22:44:25+00:00,1.5332338809967,1,versionA_stim.csv,READVersionA.csv,"Read Version A","Dissertation, read only version A",,,,,,0,Instruct,User,-,"You will now begin the study. Press Enter when you are ready to begin.",,Instruct16,1257,,,-1,-1,,,,1
kw781666,i2s3tehuo2,Nick_Dissertation_EX1_EP,1,4,2021-12-01T22:44:33+00:00,8.2505149841309,1,versionA_stim.csv,READVersionA.csv,"Read Version A","Dissertation, read only version A",TREES,GREEN,BUFFER1,Buffer,1,6,Study,8,8,,Study/JOL,BUFFER,8007,,,-1,-1,,,,1
kw781666,i2s3tehuo2,Nick_Dissertation_EX1_EP,1,5,2021-12-01T22:44:41+00:00,8.2953519821167,1,versionA_stim.csv,READVersionA.csv,"Read Version A","Dissertation, read only version A",BASEBALL,CATCHER,BUFFER1,Buffer,2,2,Study,8,8,,Study/JOL,BUFFER,8009,,,-1,-1,,,,1
kw781666,i2s3tehuo2,Nick_Dissertation_EX1_EP,1,6,2021-12-01T22:44:49+00:00,8.2390620708466,1,versionA_stim.csv,READVersionA.csv,"Read Version A","Dissertation, read only version A",SCARE,HIDE,BUFFER1,Buffer,4,3,Study,8,8,,Study/JOL,BUFFER,8006,,,-1,-1,,,,1
kw781666,i2s3tehuo2,Nick_Dissertation_EX1_EP,1,7,2021-12-01T22:44:58+00:00,8.2495970726013,1,versionA_stim.csv,READVersionA.csv,"Read Version A","Dissertation, read only version A",SPACE,JAM,BUFFER1,Buffer,5,5,Study,8,8,,Study/JOL,BUFFER,8006,,,-1,-1,,,,1
kw781666,i2s3tehuo2,Nick_Dissertation_EX1_EP,1,8,2021-12-01T22:45:06+00:00,8.2597470283508,1,versionA_stim.csv,READVersionA.csv,"Read Version A","Dissertation, read only version A",PEANUT,BUTTER,BUFFER1,Buffer,3,4,Study,8,8,,Study/JOL,BUFFER,8007,,,-1,-1,,,,1
kw781666,i2s3tehuo2,Nick_Dissertation_EX1_EP,1,9,2021-12-01T22:45:14+00:00,8.2628419399261,1,versionA_stim.csv,READVersionA.csv,"Read Version A","Dissertation, read only version A",HOT,CHILI,Study1,B,37,47,Study,8,8,,Study/JOL,"Study Phase",8005,,,-1,-1,,,,1
kw781666,i2s3tehuo2,Nick_Dissertation_EX1_EP,1,10,2021-12-01T22:45:23+00:00,8.2432019710541,1,versionA_stim.csv,READVersionA.csv,"Read Version A","Dissertation, read only version A",FIX,HAND,Study1,U,75,79,Study,8,8,,Study/JOL,"Study Phase",8006,,,-1,-1,,,,1
kw781666,i2s3tehuo2,Nick_Dissertation_EX1_EP,1,11,2021-12-01T22:45:31+00:00,8.2630219459534,1,versionA_stim.csv,READVersionA.csv,"Read Version A","Dissertation, read only version A",GRILL,BAR,Study1,S,52,25,Study,8,8,,Study/JOL,"Study Phase",8005,,,-1,-1,,,,1
kw781666,i2s3tehuo2,Nick_Dissertation_EX1_EP,1,12,2021-12-01T22:45:39+00:00,8.2787461280823,1,versionA_stim.csv,READVersionA.csv,"Read Version A","Dissertation, read only version A",DUMP,WASTE,Study1,S,49,86,Study,8,8,,Study/JOL,"Study Phase",8005,,,-1,-1,,,,1
kw781666,i2s3tehuo2,Nick_Dissertation_EX1_EP,1,13,2021-12-01T22:45:47+00:00,8.259073972702,1,versionA_stim.csv,READVersionA.csv,"Read Version A","Dissertation, read only version A",KEY,LATCH,Study1,B,36,83,Study,8,8,,Study/JOL,"Study Phase",8008,,,-1,-1,,,,1
kw781666,i2s3tehuo2,Nick_Dissertation_EX1_EP,1,14,2021-12-01T22:45:56+00:00,8.2540938854218,1,versionA_stim.csv,READVersionA.csv,"Read Version A","Dissertation, read only version A",FIRE,BLAZE,Study1,B,45,15,Study,8,8,,Study/JOL,"Study Phase",8005,,,-1,-1,,,,1
kw781666,i2s3tehuo2,Nick_Dissertation_EX1_EP,1,15,2021-12-01T22:46:04+00:00,8.2701990604401,1,versionA_stim.csv,READVersionA.csv,"Read Version A","Dissertation, read only version A",SENTENCE,WORD,Study1,B,31,67,Study,8,8,,Study/JOL,"Study Phase",8016,,,-1,-1,,,,1
kw781666,i2s3tehuo2,Nick_Dissertation_EX1_EP,1,16,2021-12-01T22:46:12+00:00,8.2509109973907,1,versionA_stim.csv,READVersionA.csv,"Read Version A","Dissertation, read only version A",POP,SODA,Study1,S,56,69,Study,8,8,,Study/JOL,"Study Phase",8005,,,-1,-1,,,,1
kw781666,i2s3tehuo2,Nick_Dissertation_EX1_EP,1,17,2021-12-01T22:46:20+00:00,8.2508320808411,1,versionA_stim.csv,READVersionA.csv,"Read Version A","Dissertation, read only version A",BLOW,WIND,Study1,S,55,75,Study,8,8,,Study/JOL,"Study Phase",8007,,,-1,-1,,,,1
kw781666,i2s3tehuo2,Nick_Dissertation_EX1_EP,1,18,2021-12-01T22:46:29+00:00,8.2499649524689,1,versionA_stim.csv,READVersionA.csv,"Read Version A","Dissertation, read only version A",DEBATE,SIGHT,Study1,U,73,33,Study,8,8,,Study/JOL,"Study Phase",8005,,,-1,-1,,,,1
kw781666,i2s3tehuo2,Nick_Dissertation_EX1_EP,1,19,2021-12-01T22:46:37+00:00,8.2679150104523,1,versionA_stim.csv,READVersionA.csv,"Read Version A","Dissertation, read only version A",BITTER,COLD,Study1,F,12,60,Study,8,8,,Study/JOL,"Study Phase",8007,,,-1,-1,,,,1
kw781666,i2s3tehuo2,Nick_Dissertation_EX1_EP,1,20,2021-12-01T22:46:45+00:00,8.2496631145477,1,versionA_stim.csv,READVersionA.csv,"Read Version A","Dissertation, read only version A",FULL,ENOUGH,Study1,B,26,65,Study,8,8,,Study/JOL,"Study Phase",8006,,,-1,-1,,,,1
kw781666,i2s3tehuo2,Nick_Dissertation_EX1_EP,1,21,2021-12-01T22:46:53+00:00,8.255931854248,1,versionA_stim.csv,READVersionA.csv,"Read Version A","Dissertation, read only version A",DUE,ASSIGNMENT,Study1,S,46,39,Study,8,8,,Study/JOL,"Study Phase",8006,,,-1,-1,,,,1
kw781666,i2s3tehuo2,Nick_Dissertation_EX1_EP,1,22,2021-12-01T22:47:02+00:00,8.376806974411,1,versionA_stim.csv,READVersionA.csv,"Read Version A","Dissertation, read only version A",HORNET,STING,Study1,F,11,62,Study,8,8,,Study/JOL,"Study Phase",8009,,,-1,-1,,,,1
kw781666,i2s3tehuo2,Nick_Dissertation_EX1_EP,1,23,2021-12-01T22:47:10+00:00,8.3341081142426,1,versionA_stim.csv,READVersionA.csv,"Read Version A","Dissertation, read only version A",BALL,RACKET,Study1,B,38,24,Study,8,8,,Study/JOL,"Study Phase",8011,,,-1,-1,,,,1
kw781666,i2s3tehuo2,Nick_Dissertation_EX1_EP,1,24,2021-12-01T22:47:18+00:00,8.2822580337524,1,versionA_stim.csv,READVersionA.csv,"Read Version A","Dissertation, read only version A",DISCUSSION,TALK,Study1,F,21,70,Study,8,8,,Study/JOL,"Study Phase",8005,,,-1,-1,,,,1
kw781666,i2s3tehuo2,Nick_Dissertation_EX1_EP,1,25,2021-12-01T22:47:27+00:00,8.3091278076172,1,versionA_stim.csv,READVersionA.csv,"Read Version A","Dissertation, read only version A",PAST,FUTURE,Study1,S,61,37,Study,8,8,,Study/JOL,"Study Phase",8009,,,-1,-1,,,,1
kw781666,i2s3tehuo2,Nick_Dissertation_EX1_EP,1,26,2021-12-01T22:47:35+00:00,8.256096124649,1,versionA_stim.csv,READVersionA.csv,"Read Version A","Dissertation, read only version A",PUSHER,CLUTTER,Study1,U,66,17,Study,8,8,,Study/JOL,"Study Phase",8007,,,-1,-1,,,,1
kw781666,i2s3tehuo2,Nick_Dissertation_EX1_EP,1,27,2021-12-01T22:47:43+00:00,8.2480170726776,1,versionA_stim.csv,READVersionA.csv,"Read Version A","Dissertation, read only version A",EDITOR,NEWS,Study1,F,10,41,Study,8,8,,Study/JOL,"Study Phase",8008,,,-1,-1,,,,1
kw781666,i2s3tehuo2,Nick_Dissertation_EX1_EP,1,28,2021-12-01T22:47:51+00:00,8.3117198944092,1,versionA_stim.csv,READVersionA.csv,"Read Version A","Dissertation, read only version A",WINE,CHEESE,Study1,S,57,23,Study,8,8,,Study/JOL,"Study Phase",8008,,,-1,-1,,,,1
kw781666,i2s3tehuo2,Nick_Dissertation_EX1_EP,1,29,2021-12-01T22:48:00+00:00,8.9018790721893,1,versionA_stim.csv,READVersionA.csv,"Read Version A","Dissertation, read only version A",HYGIENE,CLEAN,Study1,F,17,7,Study,8,8,,Study/JOL,"Study Phase",8023,,,-1,-1,,,,1
kw781666,i2s3tehuo2,Nick_Dissertation_EX1_EP,1,30,2021-12-01T22:48:10+00:00,9.2293808460236,1,versionA_stim.csv,READVersionA.csv,"Read Version A","Dissertation, read only version A",BRIDGE,WATER,Study1,F,18,40,Study,8,8,,Study/JOL,"Study Phase",8007,,,-1,-1,,,,1
kw781666,i2s3tehuo2,Nick_Dissertation_EX1_EP,1,31,2021-12-01T22:48:18+00:00,8.2552921772003,1,versionA_stim.csv,READVersionA.csv,"Read Version A","Dissertation, read only version A",VALLEY,ADD,Study1,U,82,13,Study,8,8,,Study/JOL,"Study Phase",8006,,,-1,-1,,,,1
kw781666,i2s3tehuo2,Nick_Dissertation_EX1_EP,1,32,2021-12-01T22:48:26+00:00,8.3342468738556,1,versionA_stim.csv,READVersionA.csv,"Read Version A","Dissertation, read only version A",DARK,CAVE,Study1,B,28,71,Study,8,8,,Study/JOL,"Study Phase",8007,,,-1,-1,,,,1
kw781666,i2s3tehuo2,Nick_Dissertation_EX1_EP,1,33,2021-12-01T22:48:35+00:00,8.3003060817719,1,versionA_stim.csv,READVersionA.csv,"Read Version A","Dissertation, read only version A",CREDIT,CARD,Study1,F,23,35,Study,8,8,,Study/JOL,"Study Phase",8007,,,-1,-1,,,,1
kw781666,i2s3tehuo2,Nick_Dissertation_EX1_EP,1,34,2021-12-01T22:48:43+00:00,8.266499042511,1,versionA_stim.csv,READVersionA.csv,"Read Version A","Dissertation, read only version A",LAW,ATTORNEY,Study1,B,34,42,Study,8,8,,Study/JOL,"Study Phase",8005,,,-1,-1,,,,1
kw781666,i2s3tehuo2,Nick_Dissertation_EX1_EP,1,35,2021-12-01T22:48:51+00:00,8.2791697978973,1,versionA_stim.csv,READVersionA.csv,"Read Version A","Dissertation, read only version A",HERD,COW,Study1,F,22,30,Study,8,8,,Study/JOL,"Study Phase",8007,,,-1,-1,,,,1
kw781666,i2s3tehuo2,Nick_Dissertation_EX1_EP,1,36,2021-12-01T22:48:59+00:00,8.2872831821442,1,versionA_stim.csv,READVersionA.csv,"Read Version A","Dissertation, read only version A",ROOT,PLANT,Study1,F,13,85,Study,8,8,,Study/JOL,"Study Phase",8006,,,-1,-1,,,,1
kw781666,i2s3tehuo2,Nick_Dissertation_EX1_EP,1,37,2021-12-01T22:49:08+00:00,8.3607959747314,1,versionA_stim.csv,READVersionA.csv,"Read Version A","Dissertation, read only version A",DRINK,SIP,Study1,B,27,58,Study,8,8,,Study/JOL,"Study Phase",8008,,,-1,-1,,,,1
kw781666,i2s3tehuo2,Nick_Dissertation_EX1_EP,1,38,2021-12-01T22:49:16+00:00,8.2752959728241,1,versionA_stim.csv,READVersionA.csv,"Read Version A","Dissertation, read only version A",LETTUCE,SALAD,Study1,S,59,48,Study,8,8,,Study/JOL,"Study Phase",8005,,,-1,-1,,,,1
kw781666,i2s3tehuo2,Nick_Dissertation_EX1_EP,1,39,2021-12-01T22:49:24+00:00,8.2976880073547,1,versionA_stim.csv,READVersionA.csv,"Read Version A","Dissertation, read only version A",ARTERY,BRONZE,Study1,U,74,20,Study,8,8,,Study/JOL,"Study Phase",8006,,,-1,-1,,,,1
kw781666,i2s3tehuo2,Nick_Dissertation_EX1_EP,1,40,2021-12-01T22:49:33+00:00,8.274710893631,1,versionA_stim.csv,READVersionA.csv,"Read Version A","Dissertation, read only version A",WAGE,MONEY,Study1,F,8,21,Study,8,8,,Study/JOL,"Study Phase",8011,,,-1,-1,,,,1
kw781666,i2s3tehuo2,Nick_Dissertation_EX1_EP,1,41,2021-12-01T22:49:41+00:00,8.2795560359955,1,versionA_stim.csv,READVersionA.csv,"Read Version A","Dissertation, read only version A",SUGAR,RIDDLE,Study1,U,81,52,Study,8,8,,Study/JOL,"Study Phase",8007,,,-1,-1,,,,1
kw781666,i2s3tehuo2,Nick_Dissertation_EX1_EP,1,42,2021-12-01T22:49:49+00:00,8.2708849906921,1,versionA_stim.csv,READVersionA.csv,"Read Version A","Dissertation, read only version A",TRIAL,JURY,Study1,S,50,12,Study,8,8,,Study/JOL,"Study Phase",8009,,,-1,-1,,,,1
kw781666,i2s3tehuo2,Nick_Dissertation_EX1_EP,1,43,2021-12-01T22:49:57+00:00,8.254821062088,1,versionA_stim.csv,READVersionA.csv,"Read Version A","Dissertation, read only version A",DEATH,BUSINESS,Study1,U,72,68,Study,8,8,,Study/JOL,"Study Phase",8006,,,-1,-1,,,,1
kw781666,i2s3tehuo2,Nick_Dissertation_EX1_EP,1,44,2021-12-01T22:50:06+00:00,8.2429299354553,1,versionA_stim.csv,READVersionA.csv,"Read Version A","Dissertation, read only version A",HUNGER,FAMINE,Study1,B,40,34,Study,8,8,,Study/JOL,"Study Phase",8007,,,-1,-1,,,,1
kw781666,i2s3tehuo2,Nick_Dissertation_EX1_EP,1,45,2021-12-01T22:50:14+00:00,8.3071739673615,1,versionA_stim.csv,READVersionA.csv,"Read Version A","Dissertation, read only version A",KING,VASE,Study1,U,85,50,Study,8,8,,Study/JOL,"Study Phase",8007,,,-1,-1,,,,1
kw781666,i2s3tehuo2,Nick_Dissertation_EX1_EP,1,46,2021-12-01T22:50:22+00:00,8.2681300640106,1,versionA_stim.csv,READVersionA.csv,"Read Version A","Dissertation, read only version A",HEIGHT,GROWTH,Study1,B,30,57,Study,8,8,,Study/JOL,"Study Phase",8009,,,-1,-1,,,,1
kw781666,i2s3tehuo2,Nick_Dissertation_EX1_EP,1,47,2021-12-01T22:50:30+00:00,8.2449359893799,1,versionA_stim.csv,READVersionA.csv,"Read Version A","Dissertation, read only version A",ARCHITECTURE,DESIGN,Study1,S,51,64,Study,8,8,,Study/JOL,"Study Phase",8007,,,-1,-1,,,,1
kw781666,i2s3tehuo2,Nick_Dissertation_EX1_EP,1,48,2021-12-01T22:50:39+00:00,8.2623889446259,1,versionA_stim.csv,READVersionA.csv,"Read Version A","Dissertation, read only version A",ART,LION,Study1,U,79,59,Study,8,8,,Study/JOL,"Study Phase",8009,,,-1,-1,,,,1
kw781666,i2s3tehuo2,Nick_Dissertation_EX1_EP,1,49,2021-12-01T22:50:47+00:00,8.2746300697327,1,versionA_stim.csv,READVersionA.csv,"Read Version A","Dissertation, read only version A",PAW,DOG,Study1,F,15,80,Study,8,8,,Study/JOL,"Study Phase",8005,,,-1,-1,,,,1
kw781666,i2s3tehuo2,Nick_Dissertation_EX1_EP,1,50,2021-12-01T22:50:55+00:00,8.2799201011658,1,versionA_stim.csv,READVersionA.csv,"Read Version A","Dissertation, read only version A",LIFT,WOMAN,Study1,U,69,29,Study,8,8,,Study/JOL,"Study Phase",8006,,,-1,-1,,,,1
kw781666,i2s3tehuo2,Nick_Dissertation_EX1_EP,1,51,2021-12-01T22:51:03+00:00,8.2512240409851,1,versionA_stim.csv,READVersionA.csv,"Read Version A","Dissertation, read only version A",SMELL,STENCH,Study1,B,42,76,Study,8,8,,Study/JOL,"Study Phase",8006,,,-1,-1,,,,1
kw781666,i2s3tehuo2,Nick_Dissertation_EX1_EP,1,52,2021-12-01T22:51:12+00:00,8.269092798233,1,versionA_stim.csv,READVersionA.csv,"Read Version A","Dissertation, read only version A",MATH,DIVISION,Study1,B,33,31,Study,8,8,,Study/JOL,"Study Phase",8007,,,-1,-1,,,,1
kw781666,i2s3tehuo2,Nick_Dissertation_EX1_EP,1,53,2021-12-01T22:51:20+00:00,8.2533130645752,1,versionA_stim.csv,READVersionA.csv,"Read Version A","Dissertation, read only version A",REVOLUTION,WAR,Study1,F,20,16,Study,8,8,,Study/JOL,"Study Phase",8006,,,-1,-1,,,,1
kw781666,i2s3tehuo2,Nick_Dissertation_EX1_EP,1,54,2021-12-01T22:51:28+00:00,8.2769320011139,1,versionA_stim.csv,READVersionA.csv,"Read Version A","Dissertation, read only version A",SOON,BELT,Study1,U,70,54,Study,8,8,,Study/JOL,"Study Phase",8009,,,-1,-1,,,,1
kw781666,i2s3tehuo2,Nick_Dissertation_EX1_EP,1,55,2021-12-01T22:51:37+00:00,8.2847909927368,1,versionA_stim.csv,READVersionA.csv,"Read Version A","Dissertation, read only version A",PARK,HUNGRY,Study1,U,68,74,Study,8,8,,Study/JOL,"Study Phase",8013,,,-1,-1,,,,1
kw781666,i2s3tehuo2,Nick_Dissertation_EX1_EP,1,56,2021-12-01T22:51:45+00:00,8.2599999904633,1,versionA_stim.csv,READVersionA.csv,"Read Version A","Dissertation, read only version A",ORCHID,FLOWER,Study1,F,24,53,Study,8,8,,Study/JOL,"Study Phase",8006,,,-1,-1,,,,1
kw781666,i2s3tehuo2,Nick_Dissertation_EX1_EP,1,57,2021-12-01T22:51:53+00:00,8.2796759605408,1,versionA_stim.csv,READVersionA.csv,"Read Version A","Dissertation, read only version A",MEANING,DEFINITION,Study1,S,62,36,Study,8,8,,Study/JOL,"Study Phase",8009,,,-1,-1,,,,1
kw781666,i2s3tehuo2,Nick_Dissertation_EX1_EP,1,58,2021-12-01T22:52:01+00:00,8.2924771308899,1,versionA_stim.csv,READVersionA.csv,"Read Version A","Dissertation, read only version A",TAKE,SEIZE,Study1,B,29,56,Study,8,8,,Study/JOL,"Study Phase",8005,,,-1,-1,,,,1
kw781666,i2s3tehuo2,Nick_Dissertation_EX1_EP,1,59,2021-12-01T22:52:10+00:00,8.3737590312958,1,versionA_stim.csv,READVersionA.csv,"Read Version A","Dissertation, read only version A",ALLOW,TUCK,Study1,U,78,26,Study,8,8,,Study/JOL,"Study Phase",8012,,,-1,-1,,,,1
kw781666,i2s3tehuo2,Nick_Dissertation_EX1_EP,1,60,2021-12-01T22:52:18+00:00,8.2691028118134,1,versionA_stim.csv,READVersionA.csv,"Read Version A","Dissertation, read only version A",BABY,CHILD,Study1,S,64,45,Study,8,8,,Study/JOL,"Study Phase",8005,,,-1,-1,,,,1
kw781666,i2s3tehuo2,Nick_Dissertation_EX1_EP,1,61,2021-12-01T22:52:26+00:00,8.2666351795197,1,versionA_stim.csv,READVersionA.csv,"Read Version A","Dissertation, read only version A",BATHROOM,TOILET,Study1,S,58,9,Study,8,8,,Study/JOL,"Study Phase",8006,,,-1,-1,,,,1
kw781666,i2s3tehuo2,Nick_Dissertation_EX1_EP,1,62,2021-12-01T22:52:35+00:00,8.2472689151764,1,versionA_stim.csv,READVersionA.csv,"Read Version A","Dissertation, read only version A",NUMBER,AMOUNT,Study1,S,47,8,Study,8,8,,Study/JOL,"Study Phase",8005,,,-1,-1,,,,1
kw781666,i2s3tehuo2,Nick_Dissertation_EX1_EP,1,63,2021-12-01T22:52:43+00:00,8.2539839744568,1,versionA_stim.csv,READVersionA.csv,"Read Version A","Dissertation, read only version A",WAY,OUT,Study1,F,16,32,Study,8,8,,Study/JOL,"Study Phase",8006,,,-1,-1,,,,1
kw781666,i2s3tehuo2,Nick_Dissertation_EX1_EP,1,64,2021-12-01T22:52:51+00:00,8.655611038208,1,versionA_stim.csv,READVersionA.csv,"Read Version A","Dissertation, read only version A",KIDNEY,LIVER,Study1,S,53,43,Study,8,8,,Study/JOL,"Study Phase",8006,,,-1,-1,,,,1
kw781666,i2s3tehuo2,Nick_Dissertation_EX1_EP,1,65,2021-12-01T22:53:00+00:00,8.9349648952484,1,versionA_stim.csv,READVersionA.csv,"Read Version A","Dissertation, read only version A",MACHINE,POSITION,Study1,U,76,14,Study,8,8,,Study/JOL,"Study Phase",8006,,,-1,-1,,,,1
kw781666,i2s3tehuo2,Nick_Dissertation_EX1_EP,1,66,2021-12-01T22:53:09+00:00,9.0775480270386,1,versionA_stim.csv,READVersionA.csv,"Read Version A","Dissertation, read only version A",GREAT,FANTASTIC,Study1,B,35,61,Study,8,8,,Study/JOL,"Study Phase",8011,,,-1,-1,,,,1
kw781666,i2s3tehuo2,Nick_Dissertation_EX1_EP,1,67,2021-12-01T22:53:18+00:00,8.2369620800018,1,versionA_stim.csv,READVersionA.csv,"Read Version A","Dissertation, read only version A",BEGIN,END,Study1,S,54,38,Study,8,8,,Study/JOL,"Study Phase",8006,,,-1,-1,,,,1
kw781666,i2s3tehuo2,Nick_Dissertation_EX1_EP,1,68,2021-12-01T22:53:26+00:00,8.3272221088409,1,versionA_stim.csv,READVersionA.csv,"Read Version A","Dissertation, read only version A",HONEY,BEE,Study1,S,63,82,Study,8,8,,Study/JOL,"Study Phase",8007,,,-1,-1,,,,1
kw781666,i2s3tehuo2,Nick_Dissertation_EX1_EP,1,69,2021-12-01T22:53:34+00:00,8.2800879478455,1,versionA_stim.csv,READVersionA.csv,"Read Version A","Dissertation, read only version A",PLANE,PILOT,Study1,B,44,63,Study,8,8,,Study/JOL,"Study Phase",8005,,,-1,-1,,,,1
kw781666,i2s3tehuo2,Nick_Dissertation_EX1_EP,1,70,2021-12-01T22:53:43+00:00,8.254714012146,1,versionA_stim.csv,READVersionA.csv,"Read Version A","Dissertation, read only version A",CLOTHES,ATTIRE,Study1,B,43,81,Study,8,8,,Study/JOL,"Study Phase",8008,,,-1,-1,,,,1
kw781666,i2s3tehuo2,Nick_Dissertation_EX1_EP,1,71,2021-12-01T22:53:51+00:00,8.4221520423889,1,versionA_stim.csv,READVersionA.csv,"Read Version A","Dissertation, read only version A",DELINQUENT,BAD,Study1,F,6,10,Study,8,8,,Study/JOL,"Study Phase",8152,,,-1,-1,,,,0.773
kw781666,i2s3tehuo2,Nick_Dissertation_EX1_EP,1,72,2021-12-01T22:54:01+00:00,9.5184509754181,1,versionA_stim.csv,READVersionA.csv,"Read Version A","Dissertation, read only version A",SHOE,FOOT,Study1,S,60,46,Study,8,8,,Study/JOL,"Study Phase",8724,,,-1,-1,,,,0
kw781666,i2s3tehuo2,Nick_Dissertation_EX1_EP,1,73,2021-12-01T22:54:10+00:00,9.5208759307861,1,versionA_stim.csv,READVersionA.csv,"Read Version A","Dissertation, read only version A",LOCATION,SITE,Study1,S,48,84,Study,8,8,,Study/JOL,"Study Phase",8199,,,-1,-1,,,,0
kw781666,i2s3tehuo2,Nick_Dissertation_EX1_EP,1,74,2021-12-01T22:54:19+00:00,8.9712879657745,1,versionA_stim.csv,READVersionA.csv,"Read Version A","Dissertation, read only version A",STRONG,ACCIDENT,Study1,U,80,18,Study,8,8,,Study/JOL,"Study Phase",8702,,,-1,-1,,,,0
kw781666,i2s3tehuo2,Nick_Dissertation_EX1_EP,1,75,2021-12-01T22:54:28+00:00,9.0178489685059,1,versionA_stim.csv,READVersionA.csv,"Read Version A","Dissertation, read only version A",SLEEP,DROWSY,Study1,B,41,44,Study,8,8,,Study/JOL,"Study Phase",8776,,,-1,-1,,,,0
kw781666,i2s3tehuo2,Nick_Dissertation_EX1_EP,1,76,2021-12-01T22:54:37+00:00,8.9744410514832,1,versionA_stim.csv,READVersionA.csv,"Read Version A","Dissertation, read only version A",SWAN,BIRD,Study1,F,14,19,Study,8,8,,Study/JOL,"Study Phase",8714,,,-1,-1,,,,0
kw781666,i2s3tehuo2,Nick_Dissertation_EX1_EP,1,77,2021-12-01T22:54:46+00:00,8.9985458850861,1,versionA_stim.csv,READVersionA.csv,"Read Version A","Dissertation, read only version A",HIDE,SICK,Study1,U,84,27,Study,8,8,,Study/JOL,"Study Phase",8757,,,-1,-1,,,,0
kw781666,i2s3tehuo2,Nick_Dissertation_EX1_EP,1,78,2021-12-01T22:54:55+00:00,9.0093240737915,1,versionA_stim.csv,READVersionA.csv,"Read Version A","Dissertation, read only version A",CASH,WOULD,Study1,U,83,66,Study,8,8,,Study/JOL,"Study Phase",8776,,,-1,-1,,,,0
kw781666,i2s3tehuo2,Nick_Dissertation_EX1_EP,1,79,2021-12-01T22:55:04+00:00,8.9898629188538,1,versionA_stim.csv,READVersionA.csv,"Read Version A","Dissertation, read only version A",DISCOVER,FLOOR,Study1,U,71,72,Study,8,8,,Study/JOL,"Study Phase",8748,,,-1,-1,,,,0.5
kw781666,i2s3tehuo2,Nick_Dissertation_EX1_EP,1,80,2021-12-01T22:55:13+00:00,8.9999241828918,1,versionA_stim.csv,READVersionA.csv,"Read Version A","Dissertation, read only version A",TUNA,FISH,Study1,F,25,11,Study,8,8,,Study/JOL,"Study Phase",8756,,,-1,-1,,,,0
kw781666,i2s3tehuo2,Nick_Dissertation_EX1_EP,1,81,2021-12-01T22:55:22+00:00,9.0059478282928,1,versionA_stim.csv,READVersionA.csv,"Read Version A","Dissertation, read only version A",DIGESTION,STOMACH,Study1,F,7,77,Study,8,8,,Study/JOL,"Study Phase",8323,,,-1,-1,,,,0.5
kw781666,i2s3tehuo2,Nick_Dissertation_EX1_EP,1,82,2021-12-01T22:55:31+00:00,8.9962141513824,1,versionA_stim.csv,READVersionA.csv,"Read Version A","Dissertation, read only version A",DIETARY,SACKING,Study1,U,67,51,Study,8,8,,Study/JOL,"Study Phase",8755,,,-1,-1,,,,0
kw781666,i2s3tehuo2,Nick_Dissertation_EX1_EP,1,83,2021-12-01T22:55:40+00:00,9.0278880596161,1,versionA_stim.csv,READVersionA.csv,"Read Version A","Dissertation, read only version A",GEOLOGY,ROCK,Study1,F,19,22,Study,8,8,,Study/JOL,"Study Phase",8738,,,-1,-1,,,,0.429
kw781666,i2s3tehuo2,Nick_Dissertation_EX1_EP,1,84,2021-12-01T22:55:48+00:00,8.2593789100647,1,versionA_stim.csv,READVersionA.csv,"Read Version A","Dissertation, read only version A",CIRCLE,ROUND,Study1,S,65,28,Study,8,8,,Study/JOL,"Study Phase",8011,,,-1,-1,,,,0.529
kw781666,i2s3tehuo2,Nick_Dissertation_EX1_EP,1,85,2021-12-01T22:55:57+00:00,8.7161319255829,1,versionA_stim.csv,READVersionA.csv,"Read Version A","Dissertation, read only version A",WORK,CHORE,Study1,B,39,73,Study,8,8,,Study/JOL,"Study Phase",8424,,,-1,-1,,,,0.182
kw781666,i2s3tehuo2,Nick_Dissertation_EX1_EP,1,86,2021-12-01T22:56:05+00:00,8.2464339733124,1,versionA_stim.csv,READVersionA.csv,"Read Version A","Dissertation, read only version A",BUG,WASP,Study1,B,32,55,Study,8,8,,Study/JOL,"Study Phase",8008,,,-1,-1,,,,0.529
kw781666,i2s3tehuo2,Nick_Dissertation_EX1_EP,1,87,2021-12-01T22:56:14+00:00,8.7557060718536,1,versionA_stim.csv,READVersionA.csv,"Read Version A","Dissertation, read only version A",HAPPY,CAR,Study1,U,77,78,Study,8,8,,Study/JOL,"Study Phase",8438,,,-1,-1,,,,0
kw781666,i2s3tehuo2,Nick_Dissertation_EX1_EP,1,88,2021-12-01T22:56:23+00:00,8.9916899204254,1,versionA_stim.csv,READVersionA.csv,"Read Version A","Dissertation, read only version A",CHISEL,HAMMER,Study1,F,9,49,Study,8,8,,Study/JOL,"Study Phase",8698,,,-1,-1,,,,0.72
kw781666,i2s3tehuo2,Nick_Dissertation_EX1_EP,1,89,2021-12-01T22:56:32+00:00,9.0046091079712,1,versionA_stim.csv,READVersionA.csv,"Read Version A","Dissertation, read only version A",SHERRIF,POLICE,BUFFER2,Buffer,87,87,Study,8,8,,Study/JOL,BUFFER2,8759,,,-1,-1,,,,0
kw781666,i2s3tehuo2,Nick_Dissertation_EX1_EP,1,90,2021-12-01T22:56:41+00:00,9.0037229061127,1,versionA_stim.csv,READVersionA.csv,"Read Version A","Dissertation, read only version A",GEESE,GOOSE,BUFFER2,Buffer,86,88,Study,8,8,,Study/JOL,BUFFER2,8755,,,-1,-1,,,,0
kw781666,i2s3tehuo2,Nick_Dissertation_EX1_EP,1,91,2021-12-01T22:56:50+00:00,9.0008311271667,1,versionA_stim.csv,READVersionA.csv,"Read Version A","Dissertation, read only version A",MALT,CHOCOLATE,BUFFER2,Buffer,88,89,Study,8,8,,Study/JOL,BUFFER2,8753,,,-1,-1,,,,0
kw781666,i2s3tehuo2,Nick_Dissertation_EX1_EP,1,92,2021-12-01T22:56:59+00:00,9.0010409355164,1,versionA_stim.csv,READVersionA.csv,"Read Version A","Dissertation, read only version A",MOON,SPACE,BUFFER2,Buffer,89,90,Study,8,8,,Study/JOL,BUFFER2,8770,,,-1,-1,,,,0
kw781666,i2s3tehuo2,Nick_Dissertation_EX1_EP,1,93,2021-12-01T22:57:08+00:00,9.0100529193878,1,versionA_stim.csv,READVersionA.csv,"Read Version A","Dissertation, read only version A",THING,STUFF,BUFFER2,Buffer,90,91,Study,8,8,,Study/JOL,BUFFER2,8698,,,-1,-1,,,,0
kw781666,i2s3tehuo2,Nick_Dissertation_EX1_EP,1,94,2021-12-01T22:57:14+00:00,5.92888712883,1,versionA_stim.csv,READVersionA.csv,"Read Version A","Dissertation, read only version A",,,,,,0,Instruct,User,-,"You have completed this section. Please press Enter.",Filler_Instruction,Instruct2,5667,,,-1,-1,,,,0.706
kw781666,i2s3tehuo2,Nick_Dissertation_EX1_EP,1,95,2021-12-01T22:59:14+00:00,120.31545686722,1,versionA_stim.csv,READVersionA.csv,"Read Version A","Dissertation, read only version A",,,,,,0,FreeRecall,120,120,"Please list the 50 US states in alphabetical order. The task will automatically advance to the next screen after two minutes.",,Filler1,120011,"Alabama AL Montgomery, Birmingham Dec 14, 1819 Alaska AK Juneau, Anchorage Jan 3, 1959 Arizona AZ Phoenix Feb 14, 1912 Arkansas AR Little Rock Jun 15, 1836 California CA Sacramento, Los Angeles Sep 9, 1850 Colorado CO Denver Aug 1, 1876 Connecticut CT Hartford, Bridgeport Jan 9, 1788 Delaware DE Dover, Wilmington Dec 7, 1787 Florida FL Tallahassee, Jacksonville Mar 3, 1845 Georgia GA Atlanta Jan 2, 1788 Hawaii HI Honolulu Aug 21, 1959 Idaho ID Boise Jul 3, 1890 Illinois IL Springfield, Chicago Dec 3, 1818 Indiana IN Indianapolis Dec 11, 1816 Iowa IA Des Moines Dec 28, 1846 Kansas KS Topeka, Wichita Jan 29, 1861 Kentucky KY Frankfort, Louisville Jun 1, 1792 Louisiana LA Baton Rouge, New Orleans Apr 30, 1812 Maine ME Augusta, Portland Mar 15, 1820 Maryland MD Annapolis, Baltimore Apr 28, 1788 Massachusetts[ MA Boston Feb 6, 1788 Michigan MI Lansing, Detroit Jan 26, 1837 Minnesota MN St. Paul, Minneapolis May 11, 1858 Mississippi MS Jackson Dec 10, 1817 Missouri MO Jefferson City, Kansas City Aug 10, 1821 Montana MT Helena, Billings Nov 8, 1889 Nebraska NE Lincoln, Omaha Mar 1, 1867 Nevada NV Carson City, Las Vegas Oct 31, 1864 New Hampshire NH Concord, Manchester Jun 21, 1788 New Jersey New Mexico NM Santa Fe, Albuquerque Jan 6, 1912 New York North Carolina North Dakota Ohio Oklahoma Oregon Pennsylvania Rhode Island RI South Carolina South Dakota Tennessee Texas Utah Vermont Virginia VA Washington West Virginia Wisconsin Wyoming",0,-1,-1,0,0,,0.952
kw781666,i2s3tehuo2,Nick_Dissertation_EX1_EP,1,96,2021-12-01T22:59:26+00:00,11.961008071899,1,versionA_stim.csv,READVersionA.csv,"Read Version A","Dissertation, read only version A",,,,,,0,Instruct,-,10,"You will now be presented with the first word from each of the previously studied item pairs. Please type the missing word. If you do not know the word, you may guess or press Enter to skip forward to the next pair.",,Instruct3,11678,,,-1,-1,,,,1
kw781666,i2s3tehuo2,Nick_Dissertation_EX1_EP,1,97,2021-12-01T22:59:43+00:00,16.962337970734,1,versionA_stim.csv,READVersionA.csv,"Read Version A","Dissertation, read only version A",LOCATION,SITE,Study1,S,48,84,Test,User,-,,Recall,Recall1,16720,place,22.222222222222,15027,15478,0,0,,1
kw781666,i2s3tehuo2,Nick_Dissertation_EX1_EP,1,98,2021-12-01T22:59:48+00:00,4.397369146347,1,versionA_stim.csv,READVersionA.csv,"Read Version A","Dissertation, read only version A",FULL,ENOUGH,Study1,B,26,65,Test,User,-,,Recall,Recall1,4118,enough,100,2287,2988,1,1,,1
kw781666,i2s3tehuo2,Nick_Dissertation_EX1_EP,1,99,2021-12-01T22:59:54+00:00,6.4431958198547,1,versionA_stim.csv,READVersionA.csv,"Read Version A","Dissertation, read only version A",DELINQUENT,BAD,Study1,F,6,10,Test,User,-,,Recall,Recall1,5195,bad,100,3588,3881,1,1,,1
kw781666,i2s3tehuo2,Nick_Dissertation_EX1_EP,1,100,2021-12-01T22:59:58+00:00,4.1387751102448,1,versionA_stim.csv,READVersionA.csv,"Read Version A","Dissertation, read only version A",HIDE,SICK,Study1,U,84,27,Test,User,-,,Recall,Recall1,3863,seek,50,1710,2359,0,0,,1
kw781666,i2s3tehuo2,Nick_Dissertation_EX1_EP,1,101,2021-12-01T23:00:07+00:00,8.7110569477081,1,versionA_stim.csv,READVersionA.csv,"Read Version A","Dissertation, read only version A",BLOW,WIND,Study1,S,55,75,Test,User,-,,Recall,Recall1,8435,wind,100,6899,7393,1,1,,1
kw781666,i2s3tehuo2,Nick_Dissertation_EX1_EP,1,102,2021-12-01T23:00:24+00:00,17.078552961349,1,versionA_stim.csv,READVersionA.csv,"Read Version A","Dissertation, read only version A",FIX,HAND,Study1,U,75,79,Test,User,-,,Recall,Recall1,16793,mend,50,15244,15616,0,0,,1
kw781666,i2s3tehuo2,Nick_Dissertation_EX1_EP,1,103,2021-12-01T23:00:36+00:00,12.428853034973,1,versionA_stim.csv,READVersionA.csv,"Read Version A","Dissertation, read only version A",LIFT,WOMAN,Study1,U,69,29,Test,User,-,,Recall,Recall1,12128,pick,0,10691,11037,0,0,,1
kw781666,i2s3tehuo2,Nick_Dissertation_EX1_EP,1,104,2021-12-01T23:01:02+00:00,25.411867141724,1,versionA_stim.csv,READVersionA.csv,"Read Version A","Dissertation, read only version A",HUNGER,FAMINE,Study1,B,40,34,Test,User,-,,Recall,Recall1,25065,famine,100,22498,24184,1,1,,1
kw781666,i2s3tehuo2,Nick_Dissertation_EX1_EP,1,105,2021-12-01T23:01:04+00:00,2.3977530002594,1,versionA_stim.csv,READVersionA.csv,"Read Version A","Dissertation, read only version A",VALLEY,ADD,Study1,U,82,13,Test,User,-,,Recall,Recall1,2063,add,100,1381,1651,1,1,,1
kw781666,i2s3tehuo2,Nick_Dissertation_EX1_EP,1,106,2021-12-01T23:01:12+00:00,7.6664710044861,1,versionA_stim.csv,READVersionA.csv,"Read Version A","Dissertation, read only version A",DUE,ASSIGNMENT,Study1,S,46,39,Test,User,-,,Recall,Recall1,7409,assignment,100,3601,6143,1,1,,1
kw781666,i2s3tehuo2,Nick_Dissertation_EX1_EP,1,107,2021-12-01T23:01:19+00:00,7.1920869350433,1,versionA_stim.csv,READVersionA.csv,"Read Version A","Dissertation, read only version A",SUGAR,RIDDLE,Study1,U,81,52,Test,User,-,,Recall,Recall1,5311,kiss,20,3878,4547,0,0,,1
kw781666,i2s3tehuo2,Nick_Dissertation_EX1_EP,1,108,2021-12-01T23:01:32+00:00,12.576514005661,1,versionA_stim.csv,READVersionA.csv,"Read Version A","Dissertation, read only version A",DIGESTION,STOMACH,Study1,F,7,77,Test,User,-,,Recall,Recall1,12318,eat,20,10577,10982,0,0,,1
kw781666,i2s3tehuo2,Nick_Dissertation_EX1_EP,1,109,2021-12-01T23:01:37+00:00,4.9403738975525,1,versionA_stim.csv,READVersionA.csv,"Read Version A","Dissertation, read only version A",BRIDGE,WATER,Study1,F,18,40,Test,User,-,,Recall,Recall1,4655,gap,25,1878,3149,0,0,,1
kw781666,i2s3tehuo2,Nick_Dissertation_EX1_EP,1,110,2021-12-01T23:01:40+00:00,3.399934053421,1,versionA_stim.csv,READVersionA.csv,"Read Version A","Dissertation, read only version A",DISCOVER,FLOOR,Study1,U,71,72,Test,User,-,,Recall,Recall1,3120,find,22.222222222222,1575,2120,0,0,,1
kw781666,i2s3tehuo2,Nick_Dissertation_EX1_EP,1,111,2021-12-01T23:01:45+00:00,5.3835499286652,1,versionA_stim.csv,READVersionA.csv,"Read Version A","Dissertation, read only version A",ORCHID,FLOWER,Study1,F,24,53,Test,User,-,,Recall,Recall1,5139,flower,100,1594,2929,1,1,,1
kw781666,i2s3tehuo2,Nick_Dissertation_EX1_EP,1,112,2021-12-01T23:01:49+00:00,3.2214360237122,1,versionA_stim.csv,READVersionA.csv,"Read Version A","Dissertation, read only version A",SOON,BELT,Study1,U,70,54,Test,User,-,,Recall,Recall1,2956,now,0,1507,1801,0,0,,1
kw781666,i2s3tehuo2,Nick_Dissertation_EX1_EP,1,113,2021-12-01T23:01:53+00:00,3.9378809928894,1,versionA_stim.csv,READVersionA.csv,"Read Version A","Dissertation, read only version A",ART,LION,Study1,U,79,59,Test,User,-,,Recall,Recall1,3704,craft,0,1886,2661,0,0,,1
kw781666,i2s3tehuo2,Nick_Dissertation_EX1_EP,1,114,2021-12-01T23:02:05+00:00,12.001466989517,1,versionA_stim.csv,READVersionA.csv,"Read Version A","Dissertation, read only version A",CHISEL,HAMMER,Study1,F,9,49,Test,User,-,,Recall,Recall1,11759,make,40,9414,10852,0,0,,1
kw781666,i2s3tehuo2,Nick_Dissertation_EX1_EP,1,115,2021-12-01T23:02:08+00:00,3.7759830951691,1,versionA_stim.csv,READVersionA.csv,"Read Version A","Dissertation, read only version A",PUSHER,CLUTTER,Study1,U,66,17,Test,User,-,,Recall,Recall1,3510,puller,46.153846153846,1461,2467,0,0,,1
kw781666,i2s3tehuo2,Nick_Dissertation_EX1_EP,1,116,2021-12-01T23:02:12+00:00,3.4573390483856,1,versionA_stim.csv,READVersionA.csv,"Read Version A","Dissertation, read only version A",KIDNEY,LIVER,Study1,S,53,43,Test,User,-,,Recall,Recall1,3221,liver,100,1797,2379,1,1,,1
kw781666,i2s3tehuo2,Nick_Dissertation_EX1_EP,1,117,2021-12-01T23:02:17+00:00,5.6654489040375,1,versionA_stim.csv,READVersionA.csv,"Read Version A","Dissertation, read only version A",MEANING,DEFINITION,Study1,S,62,36,Test,User,-,,Recall,Recall1,5414,definition,100,1966,4198,1,1,,1
kw781666,i2s3tehuo2,Nick_Dissertation_EX1_EP,1,118,2021-12-01T23:02:22+00:00,4.6496570110321,1,versionA_stim.csv,READVersionA.csv,"Read Version A","Dissertation, read only version A",DRINK,SIP,Study1,B,27,58,Test,User,-,,Recall,Recall1,4341,water,0,2781,3179,0,0,,1
kw781666,i2s3tehuo2,Nick_Dissertation_EX1_EP,1,119,2021-12-01T23:02:26+00:00,3.928729057312,1,versionA_stim.csv,READVersionA.csv,"Read Version A","Dissertation, read only version A",SMELL,STENCH,Study1,B,42,76,Test,User,-,,Recall,Recall1,3699,taste,54.545454545455,1330,2025,0,0,,1
kw781666,i2s3tehuo2,Nick_Dissertation_EX1_EP,1,120,2021-12-01T23:02:29+00:00,3.0427339076996,1,versionA_stim.csv,READVersionA.csv,"Read Version A","Dissertation, read only version A",BEGIN,END,Study1,S,54,38,Test,User,-,,Recall,Recall1,2800,start,0,1469,2013,0,0,,1
kw781666,i2s3tehuo2,Nick_Dissertation_EX1_EP,1,121,2021-12-01T23:02:33+00:00,3.7164721488953,1,versionA_stim.csv,READVersionA.csv,"Read Version A","Dissertation, read only version A",HAPPY,CAR,Study1,U,77,78,Test,User,-,,Recall,Recall1,3474,smile,0,1203,1770,0,0,,1
kw781666,i2s3tehuo2,Nick_Dissertation_EX1_EP,1,122,2021-12-01T23:02:57+00:00,23.866397857666,1,versionA_stim.csv,READVersionA.csv,"Read Version A","Dissertation, read only version A",ARTERY,BRONZE,Study1,U,74,20,Test,User,-,,Recall,Recall1,23606,weapon,33.333333333333,20881,22212,0,0,,1
kw781666,i2s3tehuo2,Nick_Dissertation_EX1_EP,1,123,2021-12-01T23:03:01+00:00,4.3234760761261,1,versionA_stim.csv,READVersionA.csv,"Read Version A","Dissertation, read only version A",TRIAL,JURY,Study1,S,50,12,Test,User,-,,Recall,Recall1,3864,jury,100,1334,1709,1,1,,1
kw781666,i2s3tehuo2,Nick_Dissertation_EX1_EP,1,124,2021-12-01T23:03:19+00:00,17.57231092453,1,versionA_stim.csv,READVersionA.csv,"Read Version A","Dissertation, read only version A",TAKE,SEIZE,Study1,B,29,56,Test,User,-,,Recall,Recall1,17064,keep,44.444444444444,15332,15670,0,0,,1
kw781666,i2s3tehuo2,Nick_Dissertation_EX1_EP,1,125,2021-12-01T23:03:23+00:00,4.6270680427551,1,versionA_stim.csv,READVersionA.csv,"Read Version A","Dissertation, read only version A",KEY,LATCH,Study1,B,36,83,Test,User,-,,Recall,Recall1,4355,lock,44.444444444444,1571,1922,0,0,,1
kw781666,i2s3tehuo2,Nick_Dissertation_EX1_EP,1,126,2021-12-01T23:03:28+00:00,4.848424911499,1,versionA_stim.csv,READVersionA.csv,"Read Version A","Dissertation, read only version A",ARCHITECTURE,DESIGN,Study1,S,51,64,Test,User,-,,Recall,Recall1,4611,design,100,2410,3488,1,1,,1
kw781666,i2s3tehuo2,Nick_Dissertation_EX1_EP,1,127,2021-12-01T23:03:38+00:00,9.8325431346893,1,versionA_stim.csv,READVersionA.csv,"Read Version A","Dissertation, read only version A",BITTER,COLD,Study1,F,12,60,Test,User,-,,Recall,Recall1,7883,cold,100,6427,6803,1,1,,1
kw781666,i2s3tehuo2,Nick_Dissertation_EX1_EP,1,128,2021-12-01T23:03:48+00:00,10.265908002853,1,versionA_stim.csv,READVersionA.csv,"Read Version A","Dissertation, read only version A",CLOTHES,ATTIRE,Study1,B,43,81,Test,User,-,,Recall,Recall1,9978,shirt,36.363636363636,8298,9039,0,0,,1
kw781666,i2s3tehuo2,Nick_Dissertation_EX1_EP,1,129,2021-12-01T23:03:54+00:00,5.5112788677216,1,versionA_stim.csv,READVersionA.csv,"Read Version A","Dissertation, read only version A",POP,SODA,Study1,S,56,69,Test,User,-,,Recall,Recall1,5263,culture,0,1350,4109,0,0,,1
kw781666,i2s3tehuo2,Nick_Dissertation_EX1_EP,1,130,2021-12-01T23:04:13+00:00,19.42080616951,1,versionA_stim.csv,READVersionA.csv,"Read Version A","Dissertation, read only version A",HEIGHT,GROWTH,Study1,B,30,57,Test,User,-,,Recall,Recall1,19162,tall,20,6873,17585,0,0,,1
kw781666,i2s3tehuo2,Nick_Dissertation_EX1_EP,1,131,2021-12-01T23:04:48+00:00,34.923400878906,1,versionA_stim.csv,READVersionA.csv,"Read Version A","Dissertation, read only version A",TUNA,FISH,Study1,F,25,11,Test,User,-,,Recall,Recall1,33511,fish,100,30338,32388,1,1,,1
kw781666,i2s3tehuo2,Nick_Dissertation_EX1_EP,1,132,2021-12-01T23:04:51+00:00,3.117537021637,1,versionA_stim.csv,READVersionA.csv,"Read Version A","Dissertation, read only version A",CREDIT,CARD,Study1,F,23,35,Test,User,-,,Recall,Recall1,2817,card,100,1200,1607,1,1,,1
kw781666,i2s3tehuo2,Nick_Dissertation_EX1_EP,1,133,2021-12-01T23:04:58+00:00,7.3952159881592,1,versionA_stim.csv,READVersionA.csv,"Read Version A","Dissertation, read only version A",FIRE,BLAZE,Study1,B,45,15,Test,User,-,,Recall,Recall1,7141,flame,60,4228,5867,0,0,,1
kw781666,i2s3tehuo2,Nick_Dissertation_EX1_EP,1,134,2021-12-01T23:05:03+00:00,4.8322830200195,1,versionA_stim.csv,READVersionA.csv,"Read Version A","Dissertation, read only version A",HORNET,STING,Study1,F,11,62,Test,User,-,,Recall,Recall1,4526,sting,100,2688,3477,1,1,,1
kw781666,i2s3tehuo2,Nick_Dissertation_EX1_EP,1,135,2021-12-01T23:05:10+00:00,6.5826230049133,1,versionA_stim.csv,READVersionA.csv,"Read Version A","Dissertation, read only version A",STRONG,ACCIDENT,Study1,U,80,18,Test,User,-,,Recall,Recall1,6337,steel,15.384615384615,3216,4951,0,0,,1
kw781666,i2s3tehuo2,Nick_Dissertation_EX1_EP,1,136,2021-12-01T23:05:22+00:00,12.065200090408,1,versionA_stim.csv,READVersionA.csv,"Read Version A","Dissertation, read only version A",MACHINE,POSITION,Study1,U,76,14,Test,User,-,,Recall,Recall1,11818,position,100,9651,10464,1,1,,1
kw781666,i2s3tehuo2,Nick_Dissertation_EX1_EP,1,137,2021-12-01T23:05:25+00:00,3.5668189525604,1,versionA_stim.csv,READVersionA.csv,"Read Version A","Dissertation, read only version A",ALLOW,TUCK,Study1,U,78,26,Test,User,-,,Recall,Recall1,3322,let,28.571428571429,2041,2224,0,0,,1
kw781666,i2s3tehuo2,Nick_Dissertation_EX1_EP,1,138,2021-12-01T23:05:30+00:00,4.6468110084534,1,versionA_stim.csv,READVersionA.csv,"Read Version A","Dissertation, read only version A",DUMP,WASTE,Study1,S,49,86,Test,User,-,,Recall,Recall1,4404,dumpster,46.153846153846,1348,3530,0,0,,1
kw781666,i2s3tehuo2,Nick_Dissertation_EX1_EP,1,139,2021-12-01T23:05:34+00:00,3.9493889808655,1,versionA_stim.csv,READVersionA.csv,"Read Version A","Dissertation, read only version A",LAW,ATTORNEY,Study1,B,34,42,Test,User,-,,Recall,Recall1,3702,jury,33.333333333333,1982,2316,0,0,,1
kw781666,i2s3tehuo2,Nick_Dissertation_EX1_EP,1,140,2021-12-01T23:05:38+00:00,3.7690780162811,1,versionA_stim.csv,READVersionA.csv,"Read Version A","Dissertation, read only version A",HOT,CHILI,Study1,B,37,47,Test,User,-,,Recall,Recall1,3500,cold,44.444444444444,1706,2480,0,0,,1
kw781666,i2s3tehuo2,Nick_Dissertation_EX1_EP,1,141,2021-12-01T23:05:41+00:00,3.0194449424744,1,versionA_stim.csv,READVersionA.csv,"Read Version A","Dissertation, read only version A",REVOLUTION,WAR,Study1,F,20,16,Test,User,-,,Recall,Recall1,2790,war,100,1517,1708,1,1,,1
kw781666,i2s3tehuo2,Nick_Dissertation_EX1_EP,1,142,2021-12-01T23:05:53+00:00,12.217000007629,1,versionA_stim.csv,READVersionA.csv,"Read Version A","Dissertation, read only version A",HYGIENE,CLEAN,Study1,F,17,7,Test,User,-,,Recall,Recall1,11987,clean,100,7820,10898,1,1,,1
kw781666,i2s3tehuo2,Nick_Dissertation_EX1_EP,1,143,2021-12-01T23:06:03+00:00,10.050016880035,1,versionA_stim.csv,READVersionA.csv,"Read Version A","Dissertation, read only version A",BUG,WASP,Study1,B,32,55,Test,User,-,,Recall,Recall1,9751,bite,0,4542,8734,0,0,,1
kw781666,i2s3tehuo2,Nick_Dissertation_EX1_EP,1,144,2021-12-01T23:06:07+00:00,4.1528720855713,1,versionA_stim.csv,READVersionA.csv,"Read Version A","Dissertation, read only version A",BATHROOM,TOILET,Study1,S,58,9,Test,User,-,,Recall,Recall1,3887,tiolet,83.333333333333,1446,2164,0,1,,1
kw781666,i2s3tehuo2,Nick_Dissertation_EX1_EP,1,145,2021-12-01T23:06:12+00:00,5.0512759685516,1,versionA_stim.csv,READVersionA.csv,"Read Version A","Dissertation, read only version A",DEATH,BUSINESS,Study1,U,72,68,Test,User,-,,Recall,Recall1,4777,die,36.363636363636,1728,3790,0,0,,1
kw781666,i2s3tehuo2,Nick_Dissertation_EX1_EP,1,146,2021-12-01T23:06:13+00:00,0.95715808868408,1,versionA_stim.csv,READVersionA.csv,"Read Version A","Dissertation, read only version A",ROOT,PLANT,Study1,F,13,85,Test,User,-,,Recall,Recall1,692,,0,-1,-1,0,0,,1
kw781666,i2s3tehuo2,Nick_Dissertation_EX1_EP,1,147,2021-12-01T23:06:14+00:00,1.1233079433441,1,versionA_stim.csv,READVersionA.csv,"Read Version A","Dissertation, read only version A",LETTUCE,SALAD,Study1,S,59,48,Test,User,-,,Recall,Recall1,865,,0,-1,-1,0,0,,1
kw781666,i2s3tehuo2,Nick_Dissertation_EX1_EP,1,148,2021-12-01T23:06:15+00:00,0.69392704963684,1,versionA_stim.csv,READVersionA.csv,"Read Version A","Dissertation, read only version A",PAST,FUTURE,Study1,S,61,37,Test,User,-,,Recall,Recall1,466,,0,-1,-1,0,0,,1
kw781666,i2s3tehuo2,Nick_Dissertation_EX1_EP,1,149,2021-12-01T23:06:16+00:00,0.6076340675354,1,versionA_stim.csv,READVersionA.csv,"Read Version A","Dissertation, read only version A",SWAN,BIRD,Study1,F,14,19,Test,User,-,,Recall,Recall1,396,,0,-1,-1,0,0,,1
kw781666,i2s3tehuo2,Nick_Dissertation_EX1_EP,1,150,2021-12-01T23:06:16+00:00,0.5333878993988,1,versionA_stim.csv,READVersionA.csv,"Read Version A","Dissertation, read only version A",GREAT,FANTASTIC,Study1,B,35,61,Test,User,-,,Recall,Recall1,313,,0,-1,-1,0,0,,1
kw781666,i2s3tehuo2,Nick_Dissertation_EX1_EP,1,151,2021-12-01T23:06:17+00:00,0.48762392997742,1,versionA_stim.csv,READVersionA.csv,"Read Version A","Dissertation, read only version A",HERD,COW,Study1,F,22,30,Test,User,-,,Recall,Recall1,275,,0,-1,-1,0,0,,1
kw781666,i2s3tehuo2,Nick_Dissertation_EX1_EP,1,152,2021-12-01T23:06:17+00:00,0.42176198959351,1,versionA_stim.csv,READVersionA.csv,"Read Version A","Dissertation, read only version A",DISCUSSION,TALK,Study1,F,21,70,Test,User,-,,Recall,Recall1,213,,0,-1,-1,0,0,,1
kw781666,i2s3tehuo2,Nick_Dissertation_EX1_EP,1,153,2021-12-01T23:06:18+00:00,0.46405601501465,1,versionA_stim.csv,READVersionA.csv,"Read Version A","Dissertation, read only version A",WINE,CHEESE,Study1,S,57,23,Test,User,-,,Recall,Recall1,232,,0,-1,-1,0,0,,1
kw781666,i2s3tehuo2,Nick_Dissertation_EX1_EP,1,154,2021-12-01T23:06:18+00:00,0.40815711021423,1,versionA_stim.csv,READVersionA.csv,"Read Version A","Dissertation, read only version A",DEBATE,SIGHT,Study1,U,73,33,Test,User,-,,Recall,Recall1,180,,0,-1,-1,0,0,,1
kw781666,i2s3tehuo2,Nick_Dissertation_EX1_EP,1,155,2021-12-01T23:06:19+00:00,0.60754799842834,1,versionA_stim.csv,READVersionA.csv,"Read Version A","Dissertation, read only version A",WAY,OUT,Study1,F,16,32,Test,User,-,,Recall,Recall1,410,,0,-1,-1,0,0,,1
kw781666,i2s3tehuo2,Nick_Dissertation_EX1_EP,1,156,2021-12-01T23:06:19+00:00,0.50848793983459,1,versionA_stim.csv,READVersionA.csv,"Read Version A","Dissertation, read only version A",SLEEP,DROWSY,Study1,B,41,44,Test,User,-,,Recall,Recall1,284,,0,-1,-1,0,0,,1
kw781666,i2s3tehuo2,Nick_Dissertation_EX1_EP,1,157,2021-12-01T23:06:20+00:00,0.43869400024414,1,versionA_stim.csv,READVersionA.csv,"Read Version A","Dissertation, read only version A",SHOE,FOOT,Study1,S,60,46,Test,User,-,,Recall,Recall1,233,,0,-1,-1,0,0,,1
kw781666,i2s3tehuo2,Nick_Dissertation_EX1_EP,1,158,2021-12-01T23:06:20+00:00,0.69698905944824,1,versionA_stim.csv,READVersionA.csv,"Read Version A","Dissertation, read only version A",BABY,CHILD,Study1,S,64,45,Test,User,-,,Recall,Recall1,474,,0,-1,-1,0,0,,1
kw781666,i2s3tehuo2,Nick_Dissertation_EX1_EP,1,159,2021-12-01T23:06:21+00:00,0.41621208190918,1,versionA_stim.csv,READVersionA.csv,"Read Version A","Dissertation, read only version A",PLANE,PILOT,Study1,B,44,63,Test,User,-,,Recall,Recall1,189,,0,-1,-1,0,0,,1
kw781666,i2s3tehuo2,Nick_Dissertation_EX1_EP,1,160,2021-12-01T23:06:21+00:00,0.54296898841858,1,versionA_stim.csv,READVersionA.csv,"Read Version A","Dissertation, read only version A",SENTENCE,WORD,Study1,B,31,67,Test,User,-,,Recall,Recall1,328,,0,-1,-1,0,0,,1
kw781666,i2s3tehuo2,Nick_Dissertation_EX1_EP,1,161,2021-12-01T23:06:22+00:00,0.48549485206604,1,versionA_stim.csv,READVersionA.csv,"Read Version A","Dissertation, read only version A",CASH,WOULD,Study1,U,83,66,Test,User,-,,Recall,Recall1,269,,0,-1,-1,0,0,,1
kw781666,i2s3tehuo2,Nick_Dissertation_EX1_EP,1,162,2021-12-01T23:06:22+00:00,0.48657202720642,1,versionA_stim.csv,READVersionA.csv,"Read Version A","Dissertation, read only version A",DARK,CAVE,Study1,B,28,71,Test,User,-,,Recall,Recall1,264,,0,-1,-1,0,0,,1
kw781666,i2s3tehuo2,Nick_Dissertation_EX1_EP,1,163,2021-12-01T23:06:23+00:00,0.4937150478363,1,versionA_stim.csv,READVersionA.csv,"Read Version A","Dissertation, read only version A",MATH,DIVISION,Study1,B,33,31,Test,User,-,,Recall,Recall1,281,,0,-1,-1,0,0,,1
kw781666,i2s3tehuo2,Nick_Dissertation_EX1_EP,1,164,2021-12-01T23:06:23+00:00,0.45916700363159,1,versionA_stim.csv,READVersionA.csv,"Read Version A","Dissertation, read only version A",DIETARY,SACKING,Study1,U,67,51,Test,User,-,,Recall,Recall1,244,,0,-1,-1,0,0,,1
kw781666,i2s3tehuo2,Nick_Dissertation_EX1_EP,1,165,2021-12-01T23:06:24+00:00,0.46988606452942,1,versionA_stim.csv,READVersionA.csv,"Read Version A","Dissertation, read only version A",GEOLOGY,ROCK,Study1,F,19,22,Test,User,-,,Recall,Recall1,229,,0,-1,-1,0,0,,1
kw781666,i2s3tehuo2,Nick_Dissertation_EX1_EP,1,166,2021-12-01T23:06:24+00:00,0.46627688407898,1,versionA_stim.csv,READVersionA.csv,"Read Version A","Dissertation, read only version A",GRILL,BAR,Study1,S,52,25,Test,User,-,,Recall,Recall1,257,,0,-1,-1,0,0,,1
kw781666,i2s3tehuo2,Nick_Dissertation_EX1_EP,1,167,2021-12-01T23:06:25+00:00,0.46493697166443,1,versionA_stim.csv,READVersionA.csv,"Read Version A","Dissertation, read only version A",BALL,RACKET,Study1,B,38,24,Test,User,-,,Recall,Recall1,256,,0,-1,-1,0,0,,1
kw781666,i2s3tehuo2,Nick_Dissertation_EX1_EP,1,168,2021-12-01T23:06:25+00:00,0.49405813217163,1,versionA_stim.csv,READVersionA.csv,"Read Version A","Dissertation, read only version A",CIRCLE,ROUND,Study1,S,65,28,Test,User,-,,Recall,Recall1,276,,0,-1,-1,0,0,,1
kw781666,i2s3tehuo2,Nick_Dissertation_EX1_EP,1,169,2021-12-01T23:06:26+00:00,0.43754696846008,1,versionA_stim.csv,READVersionA.csv,"Read Version A","Dissertation, read only version A",HONEY,BEE,Study1,S,63,82,Test,User,-,,Recall,Recall1,193,,0,-1,-1,0,0,,1
kw781666,i2s3tehuo2,Nick_Dissertation_EX1_EP,1,170,2021-12-01T23:06:26+00:00,0.40249085426331,1,versionA_stim.csv,READVersionA.csv,"Read Version A","Dissertation, read only version A",PAW,DOG,Study1,F,15,80,Test,User,-,,Recall,Recall1,185,,0,-1,-1,0,0,,1
kw781666,i2s3tehuo2,Nick_Dissertation_EX1_EP,1,171,2021-12-01T23:06:26+00:00,0.41481614112854,1,versionA_stim.csv,READVersionA.csv,"Read Version A","Dissertation, read only version A",WAGE,MONEY,Study1,F,8,21,Test,User,-,,Recall,Recall1,188,,0,-1,-1,0,0,,1
kw781666,i2s3tehuo2,Nick_Dissertation_EX1_EP,1,172,2021-12-01T23:06:27+00:00,0.45426487922668,1,versionA_stim.csv,READVersionA.csv,"Read Version A","Dissertation, read only version A",PARK,HUNGRY,Study1,U,68,74,Test,User,-,,Recall,Recall1,239,,0,-1,-1,0,0,,1
kw781666,i2s3tehuo2,Nick_Dissertation_EX1_EP,1,173,2021-12-01T23:06:28+00:00,0.80648517608643,1,versionA_stim.csv,READVersionA.csv,"Read Version A","Dissertation, read only version A",WORK,CHORE,Study1,B,39,73,Test,User,-,,Recall,Recall1,533,,0,-1,-1,0,0,,1
kw781666,i2s3tehuo2,Nick_Dissertation_EX1_EP,1,174,2021-12-01T23:06:29+00:00,1.0494458675385,1,versionA_stim.csv,READVersionA.csv,"Read Version A","Dissertation, read only version A",NUMBER,AMOUNT,Study1,S,47,8,Test,User,-,,Recall,Recall1,813,,0,-1,-1,0,0,,1
kw781666,i2s3tehuo2,Nick_Dissertation_EX1_EP,1,175,2021-12-01T23:06:29+00:00,0.59677910804749,1,versionA_stim.csv,READVersionA.csv,"Read Version A","Dissertation, read only version A",EDITOR,NEWS,Study1,F,10,41,Test,User,-,,Recall,Recall1,372,,0,-1,-1,0,0,,1
kw781666,i2s3tehuo2,Nick_Dissertation_EX1_EP,1,176,2021-12-01T23:06:30+00:00,0.57088589668274,1,versionA_stim.csv,READVersionA.csv,"Read Version A","Dissertation, read only version A",KING,VASE,Study1,U,85,50,Test,User,-,,Recall,Recall1,360,,0,-1,-1,0,0,,1
kw781666,i2s3tehuo2,Nick_Dissertation_EX1_EP,1,177,2021-12-01T23:06:52+00:00,22.151083946228,1,versionA_stim.csv,READVersionA.csv,"Read Version A","Dissertation, read only version A",,,,,,0,Instruct,-,10,"You will now be presented with a new set of word pairs. Please study each pair. Remember that your memory will be tested! When finished, press Enter to move to the next pair.",Initial_Instruct,Instruct4,21936,,,-1,-1,,,,1
kw781666,i2s3tehuo2,Nick_Dissertation_EX1_EP,1,178,2021-12-01T23:06:53+00:00,1.0546581745148,1,versionA_stim.csv,READVersionA.csv,"Read Version A","Dissertation, read only version A",,,,,,0,Instruct,User,-,"Each word will be displayed on the computer screen for 8 seconds. The screen will automatically move to the next pair when time is up. Press Enter when you are ready to begin.",,Instruct11,809,,,-1,-1,,,,1
kw781666,i2s3tehuo2,Nick_Dissertation_EX1_EP,1,179,2021-12-01T23:07:03+00:00,9.8819839954376,1,versionA_stim.csv,READVersionA.csv,"Read Version A","Dissertation, read only version A",CARROT,POTATO,BUFFER3,Buffer,91,94,Study,8,8,,Study/JOL,BUFFER3,9569,,,-1,-1,,,,0.821
kw781666,i2s3tehuo2,Nick_Dissertation_EX1_EP,1,180,2021-12-01T23:07:12+00:00,9.0979468822479,1,versionA_stim.csv,READVersionA.csv,"Read Version A","Dissertation, read only version A",SHRIMP,FISH,BUFFER3,Buffer,93,93,Study,8,8,,Study/JOL,BUFFER3,8158,,,-1,-1,,,,0
kw781666,i2s3tehuo2,Nick_Dissertation_EX1_EP,1,181,2021-12-01T23:07:21+00:00,8.99751496315,1,versionA_stim.csv,READVersionA.csv,"Read Version A","Dissertation, read only version A",ICE,FROZEN,BUFFER3,Buffer,94,95,Study,8,8,,Study/JOL,BUFFER3,8730,,,-1,-1,,,,0
kw781666,i2s3tehuo2,Nick_Dissertation_EX1_EP,1,182,2021-12-01T23:07:30+00:00,8.9903490543365,1,versionA_stim.csv,READVersionA.csv,"Read Version A","Dissertation, read only version A",CAMP,ADVENTURE,BUFFER3,Buffer,95,96,Study,8,8,,Study/JOL,BUFFER3,8747,,,-1,-1,,,,0
kw781666,i2s3tehuo2,Nick_Dissertation_EX1_EP,1,183,2021-12-01T23:07:39+00:00,9.0051560401917,1,versionA_stim.csv,READVersionA.csv,"Read Version A","Dissertation, read only version A",NOODLE,STRING,BUFFER3,Buffer,92,92,Study,8,8,,Study/JOL,BUFFER3,8739,,,-1,-1,,,,0
kw781666,i2s3tehuo2,Nick_Dissertation_EX1_EP,1,184,2021-12-01T23:07:48+00:00,8.9975578784943,1,versionA_stim.csv,READVersionA.csv,"Read Version A","Dissertation, read only version A",JUSTICE,MAROON,Study2,U,156,174,Study,8,8,,Study/JOL,"Study Phase2",8726,,,-1,-1,,,,0
kw781666,i2s3tehuo2,Nick_Dissertation_EX1_EP,1,185,2021-12-01T23:07:57+00:00,8.9900100231171,1,versionA_stim.csv,READVersionA.csv,"Read Version A","Dissertation, read only version A",BEST,FAVORITE,Study2,B,125,176,Study,8,8,,Study/JOL,"Study Phase2",8707,,,-1,-1,,,,0
kw781666,i2s3tehuo2,Nick_Dissertation_EX1_EP,1,186,2021-12-01T23:08:06+00:00,9.0070290565491,1,versionA_stim.csv,READVersionA.csv,"Read Version A","Dissertation, read only version A",SCALP,HEAD,Study2,F,105,130,Study,8,8,,Study/JOL,"Study Phase2",8775,,,-1,-1,,,,0
kw781666,i2s3tehuo2,Nick_Dissertation_EX1_EP,1,187,2021-12-01T23:08:15+00:00,8.9992229938507,1,versionA_stim.csv,READVersionA.csv,"Read Version A","Dissertation, read only version A",CAKE,CLOTHES,Study2,U,166,104,Study,8,8,,Study/JOL,"Study Phase2",8688,,,-1,-1,,,,0
kw781666,i2s3tehuo2,Nick_Dissertation_EX1_EP,1,188,2021-12-01T23:08:24+00:00,8.9970600605011,1,versionA_stim.csv,READVersionA.csv,"Read Version A","Dissertation, read only version A",MULE,DONKEY,Study2,F,108,149,Study,8,8,,Study/JOL,"Study Phase2",8757,,,-1,-1,,,,0.556
kw781666,i2s3tehuo2,Nick_Dissertation_EX1_EP,1,189,2021-12-01T23:08:33+00:00,9.0086009502411,1,versionA_stim.csv,READVersionA.csv,"Read Version A","Dissertation, read only version A",CHERRY,RED,Study2,F,104,157,Study,8,8,,Study/JOL,"Study Phase2",8754,,,-1,-1,,,,0
kw781666,i2s3tehuo2,Nick_Dissertation_EX1_EP,1,190,2021-12-01T23:08:42+00:00,8.9932789802551,1,versionA_stim.csv,READVersionA.csv,"Read Version A","Dissertation, read only version A",VEHICLE,CHARM,Study2,U,160,136,Study,8,8,,Study/JOL,"Study Phase2",8722,,,-1,-1,,,,0
kw781666,i2s3tehuo2,Nick_Dissertation_EX1_EP,1,191,2021-12-01T23:08:51+00:00,8.9920449256897,1,versionA_stim.csv,READVersionA.csv,"Read Version A","Dissertation, read only version A",WRIST,BRACELET,Study2,S,140,175,Study,8,8,,Study/JOL,"Study Phase2",8749,,,-1,-1,,,,0
kw781666,i2s3tehuo2,Nick_Dissertation_EX1_EP,1,192,2021-12-01T23:09:00+00:00,9.4835112094879,1,versionA_stim.csv,READVersionA.csv,"Read Version A","Dissertation, read only version A",CANDLE,WAX,Study2,S,139,105,Study,8,8,,Study/JOL,"Study Phase2",8749,,,-1,-1,,,,0
kw781666,i2s3tehuo2,Nick_Dissertation_EX1_EP,1,193,2021-12-01T23:09:11+00:00,10.530985832214,1,versionA_stim.csv,READVersionA.csv,"Read Version A","Dissertation, read only version A",RIGHTS,EQUAL,Study2,S,137,121,Study,8,8,,Study/JOL,"Study Phase2",8772,,,-1,-1,,,,0.357
kw781666,i2s3tehuo2,Nick_Dissertation_EX1_EP,1,194,2021-12-01T23:09:20+00:00,8.9989531040192,1,versionA_stim.csv,READVersionA.csv,"Read Version A","Dissertation, read only version A",WATER,DRINK,Study2,S,143,160,Study,8,8,,Study/JOL,"Study Phase2",8739,,,-1,-1,,,,0
kw781666,i2s3tehuo2,Nick_Dissertation_EX1_EP,1,195,2021-12-01T23:09:29+00:00,9.046159029007,1,versionA_stim.csv,READVersionA.csv,"Read Version A","Dissertation, read only version A",CLUE,GAME,Study2,F,97,102,Study,8,8,,Study/JOL,"Study Phase2",8724,,,-1,-1,,,,0
kw781666,i2s3tehuo2,Nick_Dissertation_EX1_EP,1,196,2021-12-01T23:09:38+00:00,8.978001832962,1,versionA_stim.csv,READVersionA.csv,"Read Version A","Dissertation, read only version A",FIGHT,BRAWL,Study2,B,135,171,Study,8,8,,Study/JOL,"Study Phase2",8700,,,-1,-1,,,,0
kw781666,i2s3tehuo2,Nick_Dissertation_EX1_EP,1,197,2021-12-01T23:09:47+00:00,8.967719078064,1,versionA_stim.csv,READVersionA.csv,"Read Version A","Dissertation, read only version A",BOTH,OUNCE,Study2,U,172,97,Study,8,8,,Study/JOL,"Study Phase2",8667,,,-1,-1,,,,0
kw781666,i2s3tehuo2,Nick_Dissertation_EX1_EP,1,198,2021-12-01T23:09:56+00:00,8.99591588974,1,versionA_stim.csv,READVersionA.csv,"Read Version A","Dissertation, read only version A",EARTH,GROUND,Study2,S,144,151,Study,8,8,,Study/JOL,"Study Phase2",8764,,,-1,-1,,,,0
kw781666,i2s3tehuo2,Nick_Dissertation_EX1_EP,1,199,2021-12-01T23:10:05+00:00,9.0107171535492,1,versionA_stim.csv,READVersionA.csv,"Read Version A","Dissertation, read only version A",POP,BALLOON,Study2,B,123,115,Study,8,8,,Study/JOL,"Study Phase2",8747,,,-1,-1,,,,0
kw781666,i2s3tehuo2,Nick_Dissertation_EX1_EP,1,200,2021-12-01T23:10:14+00:00,9.0016639232635,1,versionA_stim.csv,READVersionA.csv,"Read Version A","Dissertation, read only version A",DRIVER,CAR,Study2,F,106,100,Study,8,8,,Study/JOL,"Study Phase2",8694,,,-1,-1,,,,0
kw781666,i2s3tehuo2,Nick_Dissertation_EX1_EP,1,201,2021-12-01T23:10:23+00:00,8.9976530075073,1,versionA_stim.csv,READVersionA.csv,"Read Version A","Dissertation, read only version A",DETECTIVE,MYSTERY,Study2,F,100,107,Study,8,8,,Study/JOL,"Study Phase2",8710,,,-1,-1,,,,0
kw781666,i2s3tehuo2,Nick_Dissertation_EX1_EP,1,202,2021-12-01T23:10:31+00:00,8.2683329582214,1,versionA_stim.csv,READVersionA.csv,"Read Version A","Dissertation, read only version A",INCENSE,SMELL,Study2,F,110,172,Study,8,8,,Study/JOL,"Study Phase2",8006,,,-1,-1,,,,0.667
kw781666,i2s3tehuo2,Nick_Dissertation_EX1_EP,1,203,2021-12-01T23:10:40+00:00,8.7318511009216,1,versionA_stim.csv,READVersionA.csv,"Read Version A","Dissertation, read only version A",MONEY,BANKER,Study2,B,132,127,Study,8,8,,Study/JOL,"Study Phase2",8483,,,-1,-1,,,,0.7
kw781666,i2s3tehuo2,Nick_Dissertation_EX1_EP,1,204,2021-12-01T23:10:49+00:00,8.9861688613892,1,versionA_stim.csv,READVersionA.csv,"Read Version A","Dissertation, read only version A",CAT,PANTHER,Study2,B,126,167,Study,8,8,,Study/JOL,"Study Phase2",8716,,,-1,-1,,,,0
kw781666,i2s3tehuo2,Nick_Dissertation_EX1_EP,1,205,2021-12-01T23:10:58+00:00,9.0004050731659,1,versionA_stim.csv,READVersionA.csv,"Read Version A","Dissertation, read only version A",TANTRUM,TEMPER,Study2,S,154,134,Study,8,8,,Study/JOL,"Study Phase2",8708,,,-1,-1,,,,0
kw781666,i2s3tehuo2,Nick_Dissertation_EX1_EP,1,206,2021-12-01T23:11:07+00:00,9.0116119384766,1,versionA_stim.csv,READVersionA.csv,"Read Version A","Dissertation, read only version A",FURRY,DOG,Study2,F,102,142,Study,8,8,,Study/JOL,"Study Phase2",8759,,,-1,-1,,,,0
kw781666,i2s3tehuo2,Nick_Dissertation_EX1_EP,1,207,2021-12-01T23:11:16+00:00,8.9982841014862,1,versionA_stim.csv,READVersionA.csv,"Read Version A","Dissertation, read only version A",FEUD,FIGHT,Study2,F,113,126,Study,8,8,,Study/JOL,"Study Phase2",8726,,,-1,-1,,,,0
kw781666,i2s3tehuo2,Nick_Dissertation_EX1_EP,1,208,2021-12-01T23:11:25+00:00,9.001373052597,1,versionA_stim.csv,READVersionA.csv,"Read Version A","Dissertation, read only version A",CHOP,CUT,Study2,F,107,153,Study,8,8,,Study/JOL,"Study Phase2",8750,,,-1,-1,,,,0
kw781666,i2s3tehuo2,Nick_Dissertation_EX1_EP,1,209,2021-12-01T23:11:34+00:00,9.0008430480957,1,versionA_stim.csv,READVersionA.csv,"Read Version A","Dissertation, read only version A",DRY,WET,Study2,S,146,122,Study,8,8,,Study/JOL,"Study Phase2",8725,,,-1,-1,,,,0
kw781666,i2s3tehuo2,Nick_Dissertation_EX1_EP,1,210,2021-12-01T23:11:43+00:00,9.0052239894867,1,versionA_stim.csv,READVersionA.csv,"Read Version A","Dissertation, read only version A",FRUIT,STRAWBERRY,Study2,B,124,111,Study,8,8,,Study/JOL,"Study Phase2",8726,,,-1,-1,,,,0
kw781666,i2s3tehuo2,Nick_Dissertation_EX1_EP,1,211,2021-12-01T23:11:52+00:00,8.9907288551331,1,versionA_stim.csv,READVersionA.csv,"Read Version A","Dissertation, read only version A",MAIN,SCAR,Study2,U,175,141,Study,8,8,,Study/JOL,"Study Phase2",8719,,,-1,-1,,,,0
kw781666,i2s3tehuo2,Nick_Dissertation_EX1_EP,1,212,2021-12-01T23:12:01+00:00,9.0341100692749,1,versionA_stim.csv,READVersionA.csv,"Read Version A","Dissertation, read only version A",GONE,AWAY,Study2,S,142,109,Study,8,8,,Study/JOL,"Study Phase2",8505,,,-1,-1,,,,0
kw781666,i2s3tehuo2,Nick_Dissertation_EX1_EP,1,213,2021-12-01T23:12:10+00:00,8.9745869636536,1,versionA_stim.csv,READVersionA.csv,"Read Version A","Dissertation, read only version A",STRETCH,CLOTH,Study2,U,157,108,Study,8,8,,Study/JOL,"Study Phase2",8356,,,-1,-1,,,,0
kw781666,i2s3tehuo2,Nick_Dissertation_EX1_EP,1,214,2021-12-01T23:12:19+00:00,8.989373922348,1,versionA_stim.csv,READVersionA.csv,"Read Version A","Dissertation, read only version A",DOCUMENT,PAPER,Study2,F,109,117,Study,8,8,,Study/JOL,"Study Phase2",8712,,,-1,-1,,,,0
kw781666,i2s3tehuo2,Nick_Dissertation_EX1_EP,1,215,2021-12-01T23:12:28+00:00,9.4293990135193,1,versionA_stim.csv,READVersionA.csv,"Read Version A","Dissertation, read only version A",GLASS,BREAKABLE,Study2,B,127,118,Study,8,8,,Study/JOL,"Study Phase2",8016,,,-1,-1,,,,0.357
kw781666,i2s3tehuo2,Nick_Dissertation_EX1_EP,1,216,2021-12-01T23:12:37+00:00,8.5996220111847,1,versionA_stim.csv,READVersionA.csv,"Read Version A","Dissertation, read only version A",NAME,HATE,Study2,U,167,140,Study,8,8,,Study/JOL,"Study Phase2",8267,,,-1,-1,,,,0
kw781666,i2s3tehuo2,Nick_Dissertation_EX1_EP,1,217,2021-12-01T23:12:46+00:00,8.9759199619293,1,versionA_stim.csv,READVersionA.csv,"Read Version A","Dissertation, read only version A",Shell,SHAKE,Study2,U,163,128,Study,8,8,,Study/JOL,"Study Phase2",8736,,,-1,-1,,,,0
kw781666,i2s3tehuo2,Nick_Dissertation_EX1_EP,1,218,2021-12-01T23:12:56+00:00,9.8759081363678,1,versionA_stim.csv,READVersionA.csv,"Read Version A","Dissertation, read only version A",SHOELACE,TIE,Study2,F,99,161,Study,8,8,,Study/JOL,"Study Phase2",8717,,,-1,-1,,,,0.64
kw781666,i2s3tehuo2,Nick_Dissertation_EX1_EP,1,219,2021-12-01T23:13:05+00:00,9.1186048984528,1,versionA_stim.csv,READVersionA.csv,"Read Version A","Dissertation, read only version A",PHONE,COMMUNICATION,Study2,S,149,116,Study,8,8,,Study/JOL,"Study Phase2",8873,,,-1,-1,,,,0
kw781666,i2s3tehuo2,Nick_Dissertation_EX1_EP,1,220,2021-12-01T23:13:14+00:00,8.9948120117188,1,versionA_stim.csv,READVersionA.csv,"Read Version A","Dissertation, read only version A",LEASE,TOIL,Study2,U,170,162,Study,8,8,,Study/JOL,"Study Phase2",8735,,,-1,-1,,,,0.471
kw781666,i2s3tehuo2,Nick_Dissertation_EX1_EP,1,221,2021-12-01T23:13:23+00:00,9.0000951290131,1,versionA_stim.csv,READVersionA.csv,"Read Version A","Dissertation, read only version A",SAFETY,SEATBELT,Study2,S,147,169,Study,8,8,,Study/JOL,"Study Phase2",8710,,,-1,-1,,,,0
kw781666,i2s3tehuo2,Nick_Dissertation_EX1_EP,1,222,2021-12-01T23:13:32+00:00,9.0013709068298,1,versionA_stim.csv,READVersionA.csv,"Read Version A","Dissertation, read only version A",LITTER,TRASH,Study2,F,103,166,Study,8,8,,Study/JOL,"Study Phase2",8727,,,-1,-1,,,,0
kw781666,i2s3tehuo2,Nick_Dissertation_EX1_EP,1,223,2021-12-01T23:13:41+00:00,9.0220849514008,1,versionA_stim.csv,READVersionA.csv,"Read Version A","Dissertation, read only version A",BASEBALL,LEAGUE,Study2,B,131,120,Study,8,8,,Study/JOL,"Study Phase2",8746,,,-1,-1,,,,0
kw781666,i2s3tehuo2,Nick_Dissertation_EX1_EP,1,224,2021-12-01T23:13:50+00:00,8.9862451553345,1,versionA_stim.csv,READVersionA.csv,"Read Version A","Dissertation, read only version A",MAZE,ELECTION,Study2,U,159,144,Study,8,8,,Study/JOL,"Study Phase2",8684,,,-1,-1,,,,0
kw781666,i2s3tehuo2,Nick_Dissertation_EX1_EP,1,225,2021-12-01T23:13:59+00:00,8.9902670383453,1,versionA_stim.csv,READVersionA.csv,"Read Version A","Dissertation, read only version A",STAR,ACTRESS,Study2,B,120,133,Study,8,8,,Study/JOL,"Study Phase2",8746,,,-1,-1,,,,0
kw781666,i2s3tehuo2,Nick_Dissertation_EX1_EP,1,226,2021-12-01T23:14:08+00:00,9.0005009174347,1,versionA_stim.csv,READVersionA.csv,"Read Version A","Dissertation, read only version A",DINE,EAT,Study2,F,111,110,Study,8,8,,Study/JOL,"Study Phase2",8697,,,-1,-1,,,,0
kw781666,i2s3tehuo2,Nick_Dissertation_EX1_EP,1,227,2021-12-01T23:14:17+00:00,9.0011479854584,1,versionA_stim.csv,READVersionA.csv,"Read Version A","Dissertation, read only version A",TRUTH,LIE,Study2,S,148,146,Study,8,8,,Study/JOL,"Study Phase2",8755,,,-1,-1,,,,0
kw781666,i2s3tehuo2,Nick_Dissertation_EX1_EP,1,228,2021-12-01T23:14:26+00:00,9.0000159740448,1,versionA_stim.csv,READVersionA.csv,"Read Version A","Dissertation, read only version A",LOUD,NOISE,Study2,S,152,125,Study,8,8,,Study/JOL,"Study Phase2",8758,,,-1,-1,,,,0
kw781666,i2s3tehuo2,Nick_Dissertation_EX1_EP,1,229,2021-12-01T23:14:35+00:00,9.0057380199432,1,versionA_stim.csv,READVersionA.csv,"Read Version A","Dissertation, read only version A",PLANE,AIRCRAFT,Study2,B,129,135,Study,8,8,,Study/JOL,"Study Phase2",8743,,,-1,-1,,,,0
kw781666,i2s3tehuo2,Nick_Dissertation_EX1_EP,1,230,2021-12-01T23:14:44+00:00,9.0005829334259,1,versionA_stim.csv,READVersionA.csv,"Read Version A","Dissertation, read only version A",FLEA,TICK,Study2,S,151,98,Study,8,8,,Study/JOL,"Study Phase2",8734,,,-1,-1,,,,0
kw781666,i2s3tehuo2,Nick_Dissertation_EX1_EP,1,231,2021-12-01T23:14:53+00:00,8.9948480129242,1,versionA_stim.csv,READVersionA.csv,"Read Version A","Dissertation, read only version A",GIVE,STEAK,Study2,U,158,139,Study,8,8,,Study/JOL,"Study Phase2",8740,,,-1,-1,,,,0
kw781666,i2s3tehuo2,Nick_Dissertation_EX1_EP,1,232,2021-12-01T23:15:02+00:00,9.0034000873566,1,versionA_stim.csv,READVersionA.csv,"Read Version A","Dissertation, read only version A",EXTENSION,LONG,Study2,F,96,165,Study,8,8,,Study/JOL,"Study Phase2",8763,,,-1,-1,,,,0
kw781666,i2s3tehuo2,Nick_Dissertation_EX1_EP,1,233,2021-12-01T23:15:11+00:00,8.9992799758911,1,versionA_stim.csv,READVersionA.csv,"Read Version A","Dissertation, read only version A",CHILL,COLD,Study2,F,114,113,Study,8,8,,Study/JOL,"Study Phase2",8739,,,-1,-1,,,,0
kw781666,i2s3tehuo2,Nick_Dissertation_EX1_EP,1,234,2021-12-01T23:15:20+00:00,9.0011379718781,1,versionA_stim.csv,READVersionA.csv,"Read Version A","Dissertation, read only version A",CRACKLE,ABLE,Study2,U,162,143,Study,8,8,,Study/JOL,"Study Phase2",8754,,,-1,-1,,,,0
kw781666,i2s3tehuo2,Nick_Dissertation_EX1_EP,1,235,2021-12-01T23:15:29+00:00,8.9998519420624,1,versionA_stim.csv,READVersionA.csv,"Read Version A","Dissertation, read only version A",MASON,JAR,Study2,S,138,114,Study,8,8,,Study/JOL,"Study Phase2",8735,,,-1,-1,,,,0
kw781666,i2s3tehuo2,Nick_Dissertation_EX1_EP,1,236,2021-12-01T23:15:38+00:00,8.9920120239258,1,versionA_stim.csv,READVersionA.csv,"Read Version A","Dissertation, read only version A",OWN,HAVE,Study2,S,153,168,Study,8,8,,Study/JOL,"Study Phase2",8745,,,-1,-1,,,,0
kw781666,i2s3tehuo2,Nick_Dissertation_EX1_EP,1,237,2021-12-01T23:15:47+00:00,9.0034871101379,1,versionA_stim.csv,READVersionA.csv,"Read Version A","Dissertation, read only version A",BIRD,PENGUIN,Study2,B,119,138,Study,8,8,,Study/JOL,"Study Phase2",8765,,,-1,-1,,,,0
kw781666,i2s3tehuo2,Nick_Dissertation_EX1_EP,1,238,2021-12-01T23:15:56+00:00,9.0064008235931,1,versionA_stim.csv,READVersionA.csv,"Read Version A","Dissertation, read only version A",DEAD,COFFIN,Study2,B,128,112,Study,8,8,,Study/JOL,"Study Phase2",8756,,,-1,-1,,,,0
kw781666,i2s3tehuo2,Nick_Dissertation_EX1_EP,1,239,2021-12-01T23:16:05+00:00,8.9871201515198,1,versionA_stim.csv,READVersionA.csv,"Read Version A","Dissertation, read only version A",MEAT,OBTAIN,Study2,U,161,159,Study,8,8,,Study/JOL,"Study Phase2",8707,,,-1,-1,,,,0
kw781666,i2s3tehuo2,Nick_Dissertation_EX1_EP,1,240,2021-12-01T23:16:14+00:00,9.0102620124817,1,versionA_stim.csv,READVersionA.csv,"Read Version A","Dissertation, read only version A",RAZOR,SHAVE,Study2,S,136,154,Study,8,8,,Study/JOL,"Study Phase2",8767,,,-1,-1,,,,0
kw781666,i2s3tehuo2,Nick_Dissertation_EX1_EP,1,241,2021-12-01T23:16:23+00:00,8.992495059967,1,versionA_stim.csv,READVersionA.csv,"Read Version A","Dissertation, read only version A",FISH,SARDINE,Study2,B,130,173,Study,8,8,,Study/JOL,"Study Phase2",8749,,,-1,-1,,,,0
kw781666,i2s3tehuo2,Nick_Dissertation_EX1_EP,1,242,2021-12-01T23:16:32+00:00,9.0069899559021,1,versionA_stim.csv,READVersionA.csv,"Read Version A","Dissertation, read only version A",AFFECTION,LOVE,Study2,F,115,152,Study,8,8,,Study/JOL,"Study Phase2",8746,,,-1,-1,,,,0
kw781666,i2s3tehuo2,Nick_Dissertation_EX1_EP,1,243,2021-12-01T23:16:41+00:00,8.9889140129089,1,versionA_stim.csv,READVersionA.csv,"Read Version A","Dissertation, read only version A",CAR,WINDSHIELD,Study2,B,117,132,Study,8,8,,Study/JOL,"Study Phase2",8496,,,-1,-1,,,,0
kw781666,i2s3tehuo2,Nick_Dissertation_EX1_EP,1,244,2021-12-01T23:16:50+00:00,9.0043549537659,1,versionA_stim.csv,READVersionA.csv,"Read Version A","Dissertation, read only version A",TURN,FLIP,Study2,B,116,137,Study,8,8,,Study/JOL,"Study Phase2",8744,,,-1,-1,,,,0
kw781666,i2s3tehuo2,Nick_Dissertation_EX1_EP,1,245,2021-12-01T23:16:59+00:00,8.9927849769592,1,versionA_stim.csv,READVersionA.csv,"Read Version A","Dissertation, read only version A",EVEN,REVENGE,Study2,B,122,156,Study,8,8,,Study/JOL,"Study Phase2",8754,,,-1,-1,,,,0
kw781666,i2s3tehuo2,Nick_Dissertation_EX1_EP,1,246,2021-12-01T23:17:08+00:00,9.0151469707489,1,versionA_stim.csv,READVersionA.csv,"Read Version A","Dissertation, read only version A",FUZZY,BANG,Study2,U,168,101,Study,8,8,,Study/JOL,"Study Phase2",8724,,,-1,-1,,,,0
kw781666,i2s3tehuo2,Nick_Dissertation_EX1_EP,1,247,2021-12-01T23:17:17+00:00,8.99520611763,1,versionA_stim.csv,READVersionA.csv,"Read Version A","Dissertation, read only version A",HONEST,TRUTHFUL,Study2,B,133,131,Study,8,8,,Study/JOL,"Study Phase2",8740,,,-1,-1,,,,0
kw781666,i2s3tehuo2,Nick_Dissertation_EX1_EP,1,248,2021-12-01T23:17:26+00:00,8.9949769973755,1,versionA_stim.csv,READVersionA.csv,"Read Version A","Dissertation, read only version A",ALONE,LONELY,Study2,S,145,164,Study,8,8,,Study/JOL,"Study Phase2",8746,,,-1,-1,,,,0
kw781666,i2s3tehuo2,Nick_Dissertation_EX1_EP,1,249,2021-12-01T23:17:35+00:00,8.9984707832336,1,versionA_stim.csv,READVersionA.csv,"Read Version A","Dissertation, read only version A",KEYS,JOKE,Study2,U,165,103,Study,8,8,,Study/JOL,"Study Phase2",8754,,,-1,-1,,,,0
kw781666,i2s3tehuo2,Nick_Dissertation_EX1_EP,1,250,2021-12-01T23:17:44+00:00,9.0038430690765,1,versionA_stim.csv,READVersionA.csv,"Read Version A","Dissertation, read only version A",LISTEN,FICTION,Study2,U,164,99,Study,8,8,,Study/JOL,"Study Phase2",8752,,,-1,-1,,,,0
kw781666,i2s3tehuo2,Nick_Dissertation_EX1_EP,1,251,2021-12-01T23:17:53+00:00,9.0242710113525,1,versionA_stim.csv,READVersionA.csv,"Read Version A","Dissertation, read only version A",SHEARS,SCISSORS,Study2,F,112,106,Study,8,8,,Study/JOL,"Study Phase2",8774,,,-1,-1,,,,0
kw781666,i2s3tehuo2,Nick_Dissertation_EX1_EP,1,252,2021-12-01T23:18:02+00:00,9.0880160331726,1,versionA_stim.csv,READVersionA.csv,"Read Version A","Dissertation, read only version A",ROD,REEL,Study2,S,150,145,Study,8,8,,Study/JOL,"Study Phase2",8619,,,-1,-1,,,,0
kw781666,i2s3tehuo2,Nick_Dissertation_EX1_EP,1,253,2021-12-01T23:18:11+00:00,8.8798429965973,1,versionA_stim.csv,READVersionA.csv,"Read Version A","Dissertation, read only version A",SLEEP,NAP,Study2,B,134,150,Study,8,8,,Study/JOL,"Study Phase2",8261,,,-1,-1,,,,0
kw781666,i2s3tehuo2,Nick_Dissertation_EX1_EP,1,254,2021-12-01T23:18:20+00:00,9.0117509365082,1,versionA_stim.csv,READVersionA.csv,"Read Version A","Dissertation, read only version A",MIRROR,CHILDREN,Study2,U,174,158,Study,8,8,,Study/JOL,"Study Phase2",8737,,,-1,-1,,,,0
kw781666,i2s3tehuo2,Nick_Dissertation_EX1_EP,1,255,2021-12-01T23:18:29+00:00,8.9962160587311,1,versionA_stim.csv,READVersionA.csv,"Read Version A","Dissertation, read only version A",ADJOURN,END,Study2,F,101,147,Study,8,8,,Study/JOL,"Study Phase2",8687,,,-1,-1,,,,0
kw781666,i2s3tehuo2,Nick_Dissertation_EX1_EP,1,256,2021-12-01T23:18:38+00:00,9.0169188976288,1,versionA_stim.csv,READVersionA.csv,"Read Version A","Dissertation, read only version A",MOAT,CLEAR,Study2,U,169,124,Study,8,8,,Study/JOL,"Study Phase2",8633,,,-1,-1,,,,0
kw781666,i2s3tehuo2,Nick_Dissertation_EX1_EP,1,257,2021-12-01T23:18:47+00:00,8.9927821159363,1,versionA_stim.csv,READVersionA.csv,"Read Version A","Dissertation, read only version A",SUN,TAN,Study2,S,155,148,Study,8,8,,Study/JOL,"Study Phase2",8542,,,-1,-1,,,,0
kw781666,i2s3tehuo2,Nick_Dissertation_EX1_EP,1,258,2021-12-01T23:18:56+00:00,8.9931669235229,1,versionA_stim.csv,READVersionA.csv,"Read Version A","Dissertation, read only version A",BAD,VILLAIN,Study2,B,118,163,Study,8,8,,Study/JOL,"Study Phase2",8656,,,-1,-1,,,,0
kw781666,i2s3tehuo2,Nick_Dissertation_EX1_EP,1,259,2021-12-01T23:19:05+00:00,8.9885280132294,1,versionA_stim.csv,READVersionA.csv,"Read Version A","Dissertation, read only version A",THREAD,THIMBLE,Study2,B,121,129,Study,8,8,,Study/JOL,"Study Phase2",8704,,,-1,-1,,,,0
kw781666,i2s3tehuo2,Nick_Dissertation_EX1_EP,1,260,2021-12-01T23:19:14+00:00,9.0119321346283,1,versionA_stim.csv,READVersionA.csv,"Read Version A","Dissertation, read only version A",LOAN,SIGN,Study2,U,171,170,Study,8,8,,Study/JOL,"Study Phase2",8739,,,-1,-1,,,,0
kw781666,i2s3tehuo2,Nick_Dissertation_EX1_EP,1,261,2021-12-01T23:19:23+00:00,8.9913768768311,1,versionA_stim.csv,READVersionA.csv,"Read Version A","Dissertation, read only version A",TEMPERATURE,Morning,Study2,U,173,123,Study,8,8,,Study/JOL,"Study Phase2",8680,,,-1,-1,,,,0
kw781666,i2s3tehuo2,Nick_Dissertation_EX1_EP,1,262,2021-12-01T23:19:32+00:00,9.006196975708,1,versionA_stim.csv,READVersionA.csv,"Read Version A","Dissertation, read only version A",ELEMENT,CARBON,Study2,S,141,119,Study,8,8,,Study/JOL,"Study Phase2",8656,,,-1,-1,,,,0
kw781666,i2s3tehuo2,Nick_Dissertation_EX1_EP,1,263,2021-12-01T23:19:41+00:00,9.0205869674683,1,versionA_stim.csv,READVersionA.csv,"Read Version A","Dissertation, read only version A",CACTUS,PLANT,Study2,F,98,155,Study,8,8,,Study/JOL,"Study Phase2",8740,,,-1,-1,,,,0
kw781666,i2s3tehuo2,Nick_Dissertation_EX1_EP,1,264,2021-12-01T23:19:50+00:00,9.0102000236511,1,versionA_stim.csv,READVersionA.csv,"Read Version A","Dissertation, read only version A",DAYS,WEAKS,BUFFER4,Buffer,176,177,Study,8,8,,Study/JOL,BUFFER4,8684,,,-1,-1,,,,0
kw781666,i2s3tehuo2,Nick_Dissertation_EX1_EP,1,265,2021-12-01T23:19:59+00:00,9.0031991004944,1,versionA_stim.csv,READVersionA.csv,"Read Version A","Dissertation, read only version A",OCTOBER,SPOOKY,BUFFER4,Buffer,180,180,Study,8,8,,Study/JOL,BUFFER4,8703,,,-1,-1,,,,0
kw781666,i2s3tehuo2,Nick_Dissertation_EX1_EP,1,266,2021-12-01T23:20:08+00:00,9.0266890525818,1,versionA_stim.csv,READVersionA.csv,"Read Version A","Dissertation, read only version A",SPRING,MARCH,BUFFER4,Buffer,179,179,Study,8,8,,Study/JOL,BUFFER4,8590,,,-1,-1,,,,0
kw781666,i2s3tehuo2,Nick_Dissertation_EX1_EP,1,267,2021-12-01T23:20:17+00:00,8.9347259998322,1,versionA_stim.csv,READVersionA.csv,"Read Version A","Dissertation, read only version A",MONTH,YEAR,BUFFER4,Buffer,177,181,Study,8,8,,Study/JOL,BUFFER4,8687,,,-1,-1,,,,0
kw781666,i2s3tehuo2,Nick_Dissertation_EX1_EP,1,268,2021-12-01T23:20:26+00:00,8.9960968494415,1,versionA_stim.csv,READVersionA.csv,"Read Version A","Dissertation, read only version A",TOOL,SHED,BUFFER4,Buffer,178,178,Study,8,8,,Study/JOL,BUFFER4,8730,,,-1,-1,,,,0
kw781666,i2s3tehuo2,Nick_Dissertation_EX1_EP,1,269,2021-12-01T23:39:14+00:00,1128.5043861866,1,versionA_stim.csv,READVersionA.csv,"Read Version A","Dissertation, read only version A",,,,,,0,Instruct,User,-,"You have completed this section. Please press Enter.",Filler_Instruction,Instruct5,1128187,,,-1,-1,,,,0.324
kw781666,i2s3tehuo2,Nick_Dissertation_EX1_EP,1,270,2021-12-01T23:41:15+00:00,120.43577098846,1,versionA_stim.csv,READVersionA.csv,"Read Version A","Dissertation, read only version A",,,,,,0,FreeRecall,120,120,"Please list the 50 US states in reverse alphabetical order (z - a). The task will automatically advance to the next screen after two minutes.",,Filler2,120008,"Alabama AL Montgomery, Birmingham Dec 14, 1819 Alaska AK Juneau, Anchorage Jan 3, 1959 Arizona AZ Phoenix Feb 14, 1912 Arkansas AR Little Rock Jun 15, 1836 California CA Sacramento, Los Angeles Sep 9, 1850 Colorado CO Denver Aug 1, 1876 Connecticut CT Hartford, Bridgeport Jan 9, 1788 Delaware DE Dover, Wilmington Dec 7, 1787 Florida FL Tallahassee, Jacksonville Mar 3, 1845 Georgia GA Atlanta Jan 2, 1788 Hawaii HI Honolulu Aug 21, 1959 Idaho ID Boise Jul 3, 1890 Illinois IL Springfield, Chicago Dec 3, 1818 Indiana IN Indianapolis Dec 11, 1816 Iowa IA Des Moines Dec 28, 1846 Kansas KS Topeka, Wichita Jan 29, 1861 Kentucky KY Frankfort, Louisville Jun 1, 1792 Louisiana LA Baton Rouge, New Orleans Apr 30, 1812 Maine ME Augusta, Portland Mar 15, 1820 Maryland MD Annapolis, Baltimore Apr 28, 1788 Massachusetts[ MA Boston Feb 6, 1788 Michigan MI Lansing, Detroit Jan 26, 1837 Minnesota MN St. Paul, Minneapolis May 11, 1858 Mississippi MS Jackson Dec 10, 1817 Missouri MO Jefferson City, Kansas City Aug 10, 1821 Montana MT Helena, Billings Nov 8, 1889 Nebraska NE Lincoln, Omaha Mar 1, 1867 Nevada NV Carson City, Las Vegas Oct 31, 1864 New Hampshire NH Concord, Manchester Jun 21, 1788 New Jersey NJ Trenton, Newark Dec 18, 1787 New Mexico NM Santa Fe, Albuquerque Jan 6, 1912 New York NY Albany, New York City Jul 26, 1788 North Carolina NC Raleigh, Charlotte Nov 21, 1789 North Dakota ND Bismarck, Fargo Nov 2, 1889 Ohio OH Columbus Mar 1, 1803 Oklahoma OK Oklahoma City Nov 16, 1907 Oregon OR Salem, Portland Feb 14, 1859 Pennsylvania PA Harrisburg, Philadelphia Dec 12, 1787 Rhode Island RI Providence May 29, 1790 South Carolina SC Columbia, Charleston May 23, 1788 South Dakota SD Pierre, Sioux Falls Nov 2, 1889 Tennessee TN Nashville Jun 1, 1796 Texas TX Austin, Houston Dec 29, 1845 Utah UT Salt Lake City Jan 4, 1896 Vermont VT Montpelier, Burlington Mar 4, 1791 Virginia VA Richmond, Virginia Beach Jun 25, 1788 Washington WA Olympia, Seattle Nov 11, 1889 West Virginia WV Charleston Jun 20, 1863 Wisconsin WI Madison, Milwaukee May 29, 1848 Wyoming",0,-1,-1,0,0,,0.941
kw781666,i2s3tehuo2,Nick_Dissertation_EX1_EP,1,271,2021-12-01T23:54:35+00:00,800.34299397469,1,versionA_stim.csv,READVersionA.csv,"Read Version A","Dissertation, read only version A",,,,,,0,Instruct,-,10,"You will now be presented with the first word from each of the previously studied item pairs. Please type the missing word. If you do not know the word, you may guess or press Enter to skip forward to the next pair.",,Instruct6,800016,,,-1,-1,,,,0.167
kw781666,i2s3tehuo2,Nick_Dissertation_EX1_EP,1,272,2021-12-01T23:54:38+00:00,2.8078098297119,1,versionA_stim.csv,READVersionA.csv,"Read Version A","Dissertation, read only version A",PHONE,COMMUNICATION,Study2,S,149,116,Test,User,-,,Recall,Recall2,2516,,0,-1,-1,0,0,,1
kw781666,i2s3tehuo2,Nick_Dissertation_EX1_EP,1,273,2021-12-01T23:54:39+00:00,0.64702105522156,1,versionA_stim.csv,READVersionA.csv,"Read Version A","Dissertation, read only version A",LITTER,TRASH,Study2,F,103,166,Test,User,-,,Recall,Recall2,387,,0,-1,-1,0,0,,1
kw781666,i2s3tehuo2,Nick_Dissertation_EX1_EP,1,274,2021-12-01T23:54:39+00:00,0.56857705116272,1,versionA_stim.csv,READVersionA.csv,"Read Version A","Dissertation, read only version A",JUSTICE,MAROON,Study2,U,156,174,Test,User,-,,Recall,Recall2,337,,0,-1,-1,0,0,,1
kw781666,i2s3tehuo2,Nick_Dissertation_EX1_EP,1,275,2021-12-01T23:54:40+00:00,0.54136610031128,1,versionA_stim.csv,READVersionA.csv,"Read Version A","Dissertation, read only version A",INCENSE,SMELL,Study2,F,110,172,Test,User,-,,Recall,Recall2,303,,0,-1,-1,0,0,,1
kw781666,i2s3tehuo2,Nick_Dissertation_EX1_EP,1,276,2021-12-01T23:54:40+00:00,0.4293098449707,1,versionA_stim.csv,READVersionA.csv,"Read Version A","Dissertation, read only version A",PLANE,AIRCRAFT,Study2,B,129,135,Test,User,-,,Recall,Recall2,199,,0,-1,-1,0,0,,1
kw781666,i2s3tehuo2,Nick_Dissertation_EX1_EP,1,277,2021-12-01T23:54:41+00:00,0.36677193641663,1,versionA_stim.csv,READVersionA.csv,"Read Version A","Dissertation, read only version A",EXTENSION,LONG,Study2,F,96,165,Test,User,-,,Recall,Recall2,152,,0,-1,-1,0,0,,1
kw781666,i2s3tehuo2,Nick_Dissertation_EX1_EP,1,278,2021-12-01T23:54:41+00:00,0.33279418945312,1,versionA_stim.csv,READVersionA.csv,"Read Version A","Dissertation, read only version A",STAR,ACTRESS,Study2,B,120,133,Test,User,-,,Recall,Recall2,116,,0,-1,-1,0,0,,1
kw781666,i2s3tehuo2,Nick_Dissertation_EX1_EP,1,279,2021-12-01T23:54:41+00:00,0.3372859954834,1,versionA_stim.csv,READVersionA.csv,"Read Version A","Dissertation, read only version A",LOUD,NOISE,Study2,S,152,125,Test,User,-,,Recall,Recall2,109,,0,-1,-1,0,0,,1
kw781666,i2s3tehuo2,Nick_Dissertation_EX1_EP,1,280,2021-12-01T23:54:42+00:00,0.35801696777344,1,versionA_stim.csv,READVersionA.csv,"Read Version A","Dissertation, read only version A",HONEST,TRUTHFUL,Study2,B,133,131,Test,User,-,,Recall,Recall2,140,,0,-1,-1,0,0,,1
kw781666,i2s3tehuo2,Nick_Dissertation_EX1_EP,1,281,2021-12-01T23:54:42+00:00,0.37593388557434,1,versionA_stim.csv,READVersionA.csv,"Read Version A","Dissertation, read only version A",RAZOR,SHAVE,Study2,S,136,154,Test,User,-,,Recall,Recall2,144,,0,-1,-1,0,0,,1
kw781666,i2s3tehuo2,Nick_Dissertation_EX1_EP,1,282,2021-12-01T23:54:43+00:00,0.53276801109314,1,versionA_stim.csv,READVersionA.csv,"Read Version A","Dissertation, read only version A",DRIVER,CAR,Study2,F,106,100,Test,User,-,,Recall,Recall2,299,,0,-1,-1,0,0,,1
kw781666,i2s3tehuo2,Nick_Dissertation_EX1_EP,1,283,2021-12-01T23:54:43+00:00,0.38935494422913,1,versionA_stim.csv,READVersionA.csv,"Read Version A","Dissertation, read only version A",CAT,PANTHER,Study2,B,126,167,Test,User,-,,Recall,Recall2,176,,0,-1,-1,0,0,,1
kw781666,i2s3tehuo2,Nick_Dissertation_EX1_EP,1,284,2021-12-01T23:54:43+00:00,0.39229917526245,1,versionA_stim.csv,READVersionA.csv,"Read Version A","Dissertation, read only version A",FEUD,FIGHT,Study2,F,113,126,Test,User,-,,Recall,Recall2,175,,0,-1,-1,0,0,,1
kw781666,i2s3tehuo2,Nick_Dissertation_EX1_EP,1,285,2021-12-01T23:54:44+00:00,0.39562201499939,1,versionA_stim.csv,READVersionA.csv,"Read Version A","Dissertation, read only version A",MIRROR,CHILDREN,Study2,U,174,158,Test,User,-,,Recall,Recall2,164,,0,-1,-1,0,0,,1
kw781666,i2s3tehuo2,Nick_Dissertation_EX1_EP,1,286,2021-12-01T23:54:44+00:00,0.38989090919495,1,versionA_stim.csv,READVersionA.csv,"Read Version A","Dissertation, read only version A",AFFECTION,LOVE,Study2,F,115,152,Test,User,-,,Recall,Recall2,174,,0,-1,-1,0,0,,1
kw781666,i2s3tehuo2,Nick_Dissertation_EX1_EP,1,287,2021-12-01T23:54:45+00:00,0.45302200317383,1,versionA_stim.csv,READVersionA.csv,"Read Version A","Dissertation, read only version A",CHILL,COLD,Study2,F,114,113,Test,User,-,,Recall,Recall2,214,,0,-1,-1,0,0,,1
kw781666,i2s3tehuo2,Nick_Dissertation_EX1_EP,1,288,2021-12-01T23:54:45+00:00,0.44920206069946,1,versionA_stim.csv,READVersionA.csv,"Read Version A","Dissertation, read only version A",THREAD,THIMBLE,Study2,B,121,129,Test,User,-,,Recall,Recall2,226,,0,-1,-1,0,0,,1
kw781666,i2s3tehuo2,Nick_Dissertation_EX1_EP,1,289,2021-12-01T23:54:45+00:00,0.43506383895874,1,versionA_stim.csv,READVersionA.csv,"Read Version A","Dissertation, read only version A",WRIST,BRACELET,Study2,S,140,175,Test,User,-,,Recall,Recall2,200,,0,-1,-1,0,0,,1
kw781666,i2s3tehuo2,Nick_Dissertation_EX1_EP,1,290,2021-12-01T23:54:46+00:00,0.41730904579163,1,versionA_stim.csv,READVersionA.csv,"Read Version A","Dissertation, read only version A",CHOP,CUT,Study2,F,107,153,Test,User,-,,Recall,Recall2,169,,0,-1,-1,0,0,,1
kw781666,i2s3tehuo2,Nick_Dissertation_EX1_EP,1,291,2021-12-01T23:54:46+00:00,0.42637610435486,1,versionA_stim.csv,READVersionA.csv,"Read Version A","Dissertation, read only version A",GIVE,STEAK,Study2,U,158,139,Test,User,-,,Recall,Recall2,203,,0,-1,-1,0,0,,1
kw781666,i2s3tehuo2,Nick_Dissertation_EX1_EP,1,292,2021-12-01T23:54:47+00:00,0.44585299491882,1,versionA_stim.csv,READVersionA.csv,"Read Version A","Dissertation, read only version A",ROD,REEL,Study2,S,150,145,Test,User,-,,Recall,Recall2,239,,0,-1,-1,0,0,,1
kw781666,i2s3tehuo2,Nick_Dissertation_EX1_EP,1,293,2021-12-01T23:54:47+00:00,0.42954206466675,1,versionA_stim.csv,READVersionA.csv,"Read Version A","Dissertation, read only version A",OWN,HAVE,Study2,S,153,168,Test,User,-,,Recall,Recall2,210,,0,-1,-1,0,0,,1
kw781666,i2s3tehuo2,Nick_Dissertation_EX1_EP,1,294,2021-12-01T23:54:48+00:00,0.41848182678223,1,versionA_stim.csv,READVersionA.csv,"Read Version A","Dissertation, read only version A",EVEN,REVENGE,Study2,B,122,156,Test,User,-,,Recall,Recall2,195,,0,-1,-1,0,0,,1
kw781666,i2s3tehuo2,Nick_Dissertation_EX1_EP,1,295,2021-12-01T23:54:48+00:00,0.44566702842712,1,versionA_stim.csv,READVersionA.csv,"Read Version A","Dissertation, read only version A",GONE,AWAY,Study2,S,142,109,Test,User,-,,Recall,Recall2,223,,0,-1,-1,0,0,,1
kw781666,i2s3tehuo2,Nick_Dissertation_EX1_EP,1,296,2021-12-01T23:54:48+00:00,0.43987703323364,1,versionA_stim.csv,READVersionA.csv,"Read Version A","Dissertation, read only version A",DINE,EAT,Study2,F,111,110,Test,User,-,,Recall,Recall2,233,,0,-1,-1,0,0,,1
kw781666,i2s3tehuo2,Nick_Dissertation_EX1_EP,1,297,2021-12-01T23:54:49+00:00,0.43952107429504,1,versionA_stim.csv,READVersionA.csv,"Read Version A","Dissertation, read only version A",BEST,FAVORITE,Study2,B,125,176,Test,User,-,,Recall,Recall2,234,,0,-1,-1,0,0,,1
kw781666,i2s3tehuo2,Nick_Dissertation_EX1_EP,1,298,2021-12-01T23:54:49+00:00,0.42248582839966,1,versionA_stim.csv,READVersionA.csv,"Read Version A","Dissertation, read only version A",MAIN,SCAR,Study2,U,175,141,Test,User,-,,Recall,Recall2,217,,0,-1,-1,0,0,,1
kw781666,i2s3tehuo2,Nick_Dissertation_EX1_EP,1,299,2021-12-01T23:54:50+00:00,0.45210409164429,1,versionA_stim.csv,READVersionA.csv,"Read Version A","Dissertation, read only version A",SLEEP,NAP,Study2,B,134,150,Test,User,-,,Recall,Recall2,242,,0,-1,-1,0,0,,1
kw781666,i2s3tehuo2,Nick_Dissertation_EX1_EP,1,300,2021-12-01T23:54:50+00:00,0.43362498283386,1,versionA_stim.csv,READVersionA.csv,"Read Version A","Dissertation, read only version A",SHOELACE,TIE,Study2,F,99,161,Test,User,-,,Recall,Recall2,209,,0,-1,-1,0,0,,1
kw781666,i2s3tehuo2,Nick_Dissertation_EX1_EP,1,301,2021-12-01T23:54:51+00:00,0.42595505714417,1,versionA_stim.csv,READVersionA.csv,"Read Version A","Dissertation, read only version A",CACTUS,PLANT,Study2,F,98,155,Test,User,-,,Recall,Recall2,219,,0,-1,-1,0,0,,1
kw781666,i2s3tehuo2,Nick_Dissertation_EX1_EP,1,302,2021-12-01T23:54:51+00:00,0.45032596588135,1,versionA_stim.csv,READVersionA.csv,"Read Version A","Dissertation, read only version A",VEHICLE,CHARM,Study2,U,160,136,Test,User,-,,Recall,Recall2,232,,0,-1,-1,0,0,,1
kw781666,i2s3tehuo2,Nick_Dissertation_EX1_EP,1,303,2021-12-01T23:54:52+00:00,0.44843196868896,1,versionA_stim.csv,READVersionA.csv,"Read Version A","Dissertation, read only version A",BOTH,OUNCE,Study2,U,172,97,Test,User,-,,Recall,Recall2,230,,0,-1,-1,0,0,,1
kw781666,i2s3tehuo2,Nick_Dissertation_EX1_EP,1,304,2021-12-01T23:54:52+00:00,0.41398811340332,1,versionA_stim.csv,READVersionA.csv,"Read Version A","Dissertation, read only version A",TRUTH,LIE,Study2,S,148,146,Test,User,-,,Recall,Recall2,179,,0,-1,-1,0,0,,1
kw781666,i2s3tehuo2,Nick_Dissertation_EX1_EP,1,305,2021-12-01T23:54:52+00:00,0.38645482063293,1,versionA_stim.csv,READVersionA.csv,"Read Version A","Dissertation, read only version A",CAR,WINDSHIELD,Study2,B,117,132,Test,User,-,,Recall,Recall2,186,,0,-1,-1,0,0,,1
kw781666,i2s3tehuo2,Nick_Dissertation_EX1_EP,1,306,2021-12-01T23:54:53+00:00,0.6272451877594,1,versionA_stim.csv,READVersionA.csv,"Read Version A","Dissertation, read only version A",FLEA,TICK,Study2,S,151,98,Test,User,-,,Recall,Recall2,420,,0,-1,-1,0,0,,1
kw781666,i2s3tehuo2,Nick_Dissertation_EX1_EP,1,307,2021-12-01T23:54:53+00:00,0.45092582702637,1,versionA_stim.csv,READVersionA.csv,"Read Version A","Dissertation, read only version A",WATER,DRINK,Study2,S,143,160,Test,User,-,,Recall,Recall2,245,,0,-1,-1,0,0,,1
kw781666,i2s3tehuo2,Nick_Dissertation_EX1_EP,1,308,2021-12-01T23:54:54+00:00,0.48098111152649,1,versionA_stim.csv,READVersionA.csv,"Read Version A","Dissertation, read only version A",CRACKLE,ABLE,Study2,U,162,143,Test,User,-,,Recall,Recall2,277,,0,-1,-1,0,0,,1
kw781666,i2s3tehuo2,Nick_Dissertation_EX1_EP,1,309,2021-12-01T23:54:54+00:00,0.47723793983459,1,versionA_stim.csv,READVersionA.csv,"Read Version A","Dissertation, read only version A",FURRY,DOG,Study2,F,102,142,Test,User,-,,Recall,Recall2,267,,0,-1,-1,0,0,,1
kw781666,i2s3tehuo2,Nick_Dissertation_EX1_EP,1,310,2021-12-01T23:54:55+00:00,0.41143798828125,1,versionA_stim.csv,READVersionA.csv,"Read Version A","Dissertation, read only version A",TEMPERATURE,Morning,Study2,U,173,123,Test,User,-,,Recall,Recall2,203,,0,-1,-1,0,0,,1
kw781666,i2s3tehuo2,Nick_Dissertation_EX1_EP,1,311,2021-12-01T23:54:55+00:00,0.46526503562927,1,versionA_stim.csv,READVersionA.csv,"Read Version A","Dissertation, read only version A",CANDLE,WAX,Study2,S,139,105,Test,User,-,,Recall,Recall2,258,,0,-1,-1,0,0,,1
kw781666,i2s3tehuo2,Nick_Dissertation_EX1_EP,1,312,2021-12-01T23:54:56+00:00,0.46653604507446,1,versionA_stim.csv,READVersionA.csv,"Read Version A","Dissertation, read only version A",MASON,JAR,Study2,S,138,114,Test,User,-,,Recall,Recall2,253,,0,-1,-1,0,0,,1
kw781666,i2s3tehuo2,Nick_Dissertation_EX1_EP,1,313,2021-12-01T23:54:56+00:00,0.42987895011902,1,versionA_stim.csv,READVersionA.csv,"Read Version A","Dissertation, read only version A",POP,BALLOON,Study2,B,123,115,Test,User,-,,Recall,Recall2,208,,0,-1,-1,0,0,,1
kw781666,i2s3tehuo2,Nick_Dissertation_EX1_EP,1,314,2021-12-01T23:54:57+00:00,0.43684697151184,1,versionA_stim.csv,READVersionA.csv,"Read Version A","Dissertation, read only version A",MULE,DONKEY,Study2,F,108,149,Test,User,-,,Recall,Recall2,227,,0,-1,-1,0,0,,1
kw781666,i2s3tehuo2,Nick_Dissertation_EX1_EP,1,315,2021-12-01T23:54:57+00:00,0.49377012252808,1,versionA_stim.csv,READVersionA.csv,"Read Version A","Dissertation, read only version A",FRUIT,STRAWBERRY,Study2,B,124,111,Test,User,-,,Recall,Recall2,253,,0,-1,-1,0,0,,1
kw781666,i2s3tehuo2,Nick_Dissertation_EX1_EP,1,316,2021-12-01T23:54:58+00:00,0.45540404319763,1,versionA_stim.csv,READVersionA.csv,"Read Version A","Dissertation, read only version A",DOCUMENT,PAPER,Study2,F,109,117,Test,User,-,,Recall,Recall2,227,,0,-1,-1,0,0,,1
kw781666,i2s3tehuo2,Nick_Dissertation_EX1_EP,1,317,2021-12-01T23:54:58+00:00,0.45162081718445,1,versionA_stim.csv,READVersionA.csv,"Read Version A","Dissertation, read only version A",TANTRUM,TEMPER,Study2,S,154,134,Test,User,-,,Recall,Recall2,233,,0,-1,-1,0,0,,1
kw781666,i2s3tehuo2,Nick_Dissertation_EX1_EP,1,318,2021-12-01T23:54:58+00:00,0.49389815330505,1,versionA_stim.csv,READVersionA.csv,"Read Version A","Dissertation, read only version A",MAZE,ELECTION,Study2,U,159,144,Test,User,-,,Recall,Recall2,277,,0,-1,-1,0,0,,1
kw781666,i2s3tehuo2,Nick_Dissertation_EX1_EP,1,319,2021-12-01T23:54:59+00:00,0.50235390663147,1,versionA_stim.csv,READVersionA.csv,"Read Version A","Dissertation, read only version A",MOAT,CLEAR,Study2,U,169,124,Test,User,-,,Recall,Recall2,185,,0,-1,-1,0,0,,1
kw781666,i2s3tehuo2,Nick_Dissertation_EX1_EP,1,320,2021-12-01T23:54:59+00:00,0.47361493110657,1,versionA_stim.csv,READVersionA.csv,"Read Version A","Dissertation, read only version A",SUN,TAN,Study2,S,155,148,Test,User,-,,Recall,Recall2,175,,0,-1,-1,0,0,,1
kw781666,i2s3tehuo2,Nick_Dissertation_EX1_EP,1,321,2021-12-01T23:55:01+00:00,1.9444901943207,1,versionA_stim.csv,READVersionA.csv,"Read Version A","Dissertation, read only version A",BAD,VILLAIN,Study2,B,118,163,Test,User,-,,Recall,Recall2,1356,,0,-1,-1,0,0,,1
kw781666,i2s3tehuo2,Nick_Dissertation_EX1_EP,1,322,2021-12-01T23:55:03+00:00,1.1950469017029,1,versionA_stim.csv,READVersionA.csv,"Read Version A","Dissertation, read only version A",BASEBALL,LEAGUE,Study2,B,131,120,Test,User,-,,Recall,Recall2,664,,0,-1,-1,0,0,,1
kw781666,i2s3tehuo2,Nick_Dissertation_EX1_EP,1,323,2021-12-01T23:55:03+00:00,0.64628410339355,1,versionA_stim.csv,READVersionA.csv,"Read Version A","Dissertation, read only version A",TURN,FLIP,Study2,B,116,137,Test,User,-,,Recall,Recall2,379,,0,-1,-1,0,0,,1
kw781666,i2s3tehuo2,Nick_Dissertation_EX1_EP,1,324,2021-12-01T23:55:04+00:00,0.40821981430054,1,versionA_stim.csv,READVersionA.csv,"Read Version A","Dissertation, read only version A",ELEMENT,CARBON,Study2,S,141,119,Test,User,-,,Recall,Recall2,134,,0,-1,-1,0,0,,1
kw781666,i2s3tehuo2,Nick_Dissertation_EX1_EP,1,325,2021-12-01T23:55:04+00:00,0.65272116661072,1,versionA_stim.csv,READVersionA.csv,"Read Version A","Dissertation, read only version A",DEAD,COFFIN,Study2,B,128,112,Test,User,-,,Recall,Recall2,425,,0,-1,-1,0,0,,1
kw781666,i2s3tehuo2,Nick_Dissertation_EX1_EP,1,326,2021-12-01T23:55:05+00:00,0.68849682807922,1,versionA_stim.csv,READVersionA.csv,"Read Version A","Dissertation, read only version A",SHEARS,SCISSORS,Study2,F,112,106,Test,User,-,,Recall,Recall2,457,,0,-1,-1,0,0,,1
kw781666,i2s3tehuo2,Nick_Dissertation_EX1_EP,1,327,2021-12-01T23:55:05+00:00,0.4163670539856,1,versionA_stim.csv,READVersionA.csv,"Read Version A","Dissertation, read only version A",CHERRY,RED,Study2,F,104,157,Test,User,-,,Recall,Recall2,174,,0,-1,-1,0,0,,1
kw781666,i2s3tehuo2,Nick_Dissertation_EX1_EP,1,328,2021-12-01T23:55:06+00:00,0.37591099739075,1,versionA_stim.csv,READVersionA.csv,"Read Version A","Dissertation, read only version A",EARTH,GROUND,Study2,S,144,151,Test,User,-,,Recall,Recall2,152,,0,-1,-1,0,0,,1
kw781666,i2s3tehuo2,Nick_Dissertation_EX1_EP,1,329,2021-12-01T23:55:07+00:00,0.73422408103943,1,versionA_stim.csv,READVersionA.csv,"Read Version A","Dissertation, read only version A",Shell,SHAKE,Study2,U,163,128,Test,User,-,,Recall,Recall2,516,,0,-1,-1,0,0,,1
kw781666,i2s3tehuo2,Nick_Dissertation_EX1_EP,1,330,2021-12-01T23:55:07+00:00,0.70211696624756,1,versionA_stim.csv,READVersionA.csv,"Read Version A","Dissertation, read only version A",FUZZY,BANG,Study2,U,168,101,Test,User,-,,Recall,Recall2,475,,0,-1,-1,0,0,,1
kw781666,i2s3tehuo2,Nick_Dissertation_EX1_EP,1,331,2021-12-01T23:55:08+00:00,0.88070797920227,1,versionA_stim.csv,READVersionA.csv,"Read Version A","Dissertation, read only version A",CLUE,GAME,Study2,F,97,102,Test,User,-,,Recall,Recall2,423,,0,-1,-1,0,0,,1
kw781666,i2s3tehuo2,Nick_Dissertation_EX1_EP,1,332,2021-12-01T23:55:09+00:00,0.52395796775818,1,versionA_stim.csv,READVersionA.csv,"Read Version A","Dissertation, read only version A",RIGHTS,EQUAL,Study2,S,137,121,Test,User,-,,Recall,Recall2,309,,0,-1,-1,0,0,,1
kw781666,i2s3tehuo2,Nick_Dissertation_EX1_EP,1,333,2021-12-01T23:55:09+00:00,0.71152901649475,1,versionA_stim.csv,READVersionA.csv,"Read Version A","Dissertation, read only version A",SAFETY,SEATBELT,Study2,S,147,169,Test,User,-,,Recall,Recall2,492,,0,-1,-1,0,0,,1
kw781666,i2s3tehuo2,Nick_Dissertation_EX1_EP,1,334,2021-12-01T23:55:10+00:00,0.7221519947052,1,versionA_stim.csv,READVersionA.csv,"Read Version A","Dissertation, read only version A",CAKE,CLOTHES,Study2,U,166,104,Test,User,-,,Recall,Recall2,508,,0,-1,-1,0,0,,1
kw781666,i2s3tehuo2,Nick_Dissertation_EX1_EP,1,335,2021-12-01T23:55:11+00:00,0.72603511810303,1,versionA_stim.csv,READVersionA.csv,"Read Version A","Dissertation, read only version A",FISH,SARDINE,Study2,B,130,173,Test,User,-,,Recall,Recall2,488,,0,-1,-1,0,0,,1
kw781666,i2s3tehuo2,Nick_Dissertation_EX1_EP,1,336,2021-12-01T23:55:11+00:00,0.63210892677307,1,versionA_stim.csv,READVersionA.csv,"Read Version A","Dissertation, read only version A",LEASE,TOIL,Study2,U,170,162,Test,User,-,,Recall,Recall2,420,,0,-1,-1,0,0,,1
kw781666,i2s3tehuo2,Nick_Dissertation_EX1_EP,1,337,2021-12-01T23:55:12+00:00,0.62363505363464,1,versionA_stim.csv,READVersionA.csv,"Read Version A","Dissertation, read only version A",BIRD,PENGUIN,Study2,B,119,138,Test,User,-,,Recall,Recall2,413,,0,-1,-1,0,0,,1
kw781666,i2s3tehuo2,Nick_Dissertation_EX1_EP,1,338,2021-12-01T23:55:13+00:00,0.62602090835571,1,versionA_stim.csv,READVersionA.csv,"Read Version A","Dissertation, read only version A",LOAN,SIGN,Study2,U,171,170,Test,User,-,,Recall,Recall2,394,,0,-1,-1,0,0,,1
kw781666,i2s3tehuo2,Nick_Dissertation_EX1_EP,1,339,2021-12-01T23:55:13+00:00,0.58838891983032,1,versionA_stim.csv,READVersionA.csv,"Read Version A","Dissertation, read only version A",DETECTIVE,MYSTERY,Study2,F,100,107,Test,User,-,,Recall,Recall2,362,,0,-1,-1,0,0,,1
kw781666,i2s3tehuo2,Nick_Dissertation_EX1_EP,1,340,2021-12-01T23:55:14+00:00,0.50630211830139,1,versionA_stim.csv,READVersionA.csv,"Read Version A","Dissertation, read only version A",NAME,HATE,Study2,U,167,140,Test,User,-,,Recall,Recall2,287,,0,-1,-1,0,0,,1
kw781666,i2s3tehuo2,Nick_Dissertation_EX1_EP,1,341,2021-12-01T23:55:14+00:00,0.50355887413025,1,versionA_stim.csv,READVersionA.csv,"Read Version A","Dissertation, read only version A",KEYS,JOKE,Study2,U,165,103,Test,User,-,,Recall,Recall2,232,,0,-1,-1,0,0,,1
kw781666,i2s3tehuo2,Nick_Dissertation_EX1_EP,1,342,2021-12-01T23:55:15+00:00,0.52834916114807,1,versionA_stim.csv,READVersionA.csv,"Read Version A","Dissertation, read only version A",LISTEN,FICTION,Study2,U,164,99,Test,User,-,,Recall,Recall2,319,,0,-1,-1,0,0,,1
kw781666,i2s3tehuo2,Nick_Dissertation_EX1_EP,1,343,2021-12-01T23:55:15+00:00,0.51269602775574,1,versionA_stim.csv,READVersionA.csv,"Read Version A","Dissertation, read only version A",FIGHT,BRAWL,Study2,B,135,171,Test,User,-,,Recall,Recall2,283,,0,-1,-1,0,0,,1
kw781666,i2s3tehuo2,Nick_Dissertation_EX1_EP,1,344,2021-12-01T23:55:16+00:00,0.59878587722778,1,versionA_stim.csv,READVersionA.csv,"Read Version A","Dissertation, read only version A",GLASS,BREAKABLE,Study2,B,127,118,Test,User,-,,Recall,Recall2,388,,0,-1,-1,0,0,,1
kw781666,i2s3tehuo2,Nick_Dissertation_EX1_EP,1,345,2021-12-01T23:55:18+00:00,2.0398349761963,1,versionA_stim.csv,READVersionA.csv,"Read Version A","Dissertation, read only version A",SCALP,HEAD,Study2,F,105,130,Test,User,-,,Recall,Recall2,1802,,0,-1,-1,0,0,,1
kw781666,i2s3tehuo2,Nick_Dissertation_EX1_EP,1,346,2021-12-01T23:55:19+00:00,0.69441199302673,1,versionA_stim.csv,READVersionA.csv,"Read Version A","Dissertation, read only version A",STRETCH,CLOTH,Study2,U,157,108,Test,User,-,,Recall,Recall2,460,,0,-1,-1,0,0,,1
kw781666,i2s3tehuo2,Nick_Dissertation_EX1_EP,1,347,2021-12-01T23:55:19+00:00,0.67050313949585,1,versionA_stim.csv,READVersionA.csv,"Read Version A","Dissertation, read only version A",ALONE,LONELY,Study2,S,145,164,Test,User,-,,Recall,Recall2,457,,0,-1,-1,0,0,,1
kw781666,i2s3tehuo2,Nick_Dissertation_EX1_EP,1,348,2021-12-01T23:55:23+00:00,3.391105890274,1,versionA_stim.csv,READVersionA.csv,"Read Version A","Dissertation, read only version A",DRY,WET,Study2,S,146,122,Test,User,-,,Recall,Recall2,3176,df,0,1929,2016,0,0,,1
kw781666,i2s3tehuo2,Nick_Dissertation_EX1_EP,1,349,2021-12-01T23:55:24+00:00,1.0068321228027,1,versionA_stim.csv,READVersionA.csv,"Read Version A","Dissertation, read only version A",MONEY,BANKER,Study2,B,132,127,Test,User,-,,Recall,Recall2,723,f,0,344,344,0,0,,1
kw781666,i2s3tehuo2,Nick_Dissertation_EX1_EP,1,350,2021-12-01T23:55:24+00:00,0.65968489646912,1,versionA_stim.csv,READVersionA.csv,"Read Version A","Dissertation, read only version A",MEAT,OBTAIN,Study2,U,161,159,Test,User,-,,Recall,Recall2,438,f,0,317,317,0,0,,1
kw781666,i2s3tehuo2,Nick_Dissertation_EX1_EP,1,351,2021-12-01T23:55:25+00:00,0.65271401405334,1,versionA_stim.csv,READVersionA.csv,"Read Version A","Dissertation, read only version A",ADJOURN,END,Study2,F,101,147,Test,User,-,,Recall,Recall2,416,,0,318,318,0,0,,1
kw781666,i2s3tehuo2,Nick_Dissertation_EX1_EP,1,352,2021-12-01T23:55:27+00:00,1.9535291194916,1,versionA_stim.csv,READVersionA.csv,"Read Version A","Dissertation, read only version A",,,,,,0,Instruct,User,-,"You have completed this section. Please press Enter.",,Instruct7,1747,,,162,163,,,,1
kw781666,i2s3tehuo2,Nick_Dissertation_EX1_EP,1,353,2021-12-01T23:55:28+00:00,1.5077848434448,1,versionA_stim.csv,READVersionA.csv,"Read Version A","Dissertation, read only version A",,,,,,0,Instruct,User,-,"The following screen will ask you a few questions abour your experience today. You must complete these questions to receive credit.",,Instruct8,1289,,,-1,-1,,,,1
