Username,ID,ExperimentName,Session,Trial,Date,TimeDif,"Condition Number","Stimuli File","Order File","Condition Description","Condition Notes",Stimuli*Cue,Stimuli*Answer,Stimuli*Shuffle,"Stimuli*Stimuli Notes",Stimuli*Value,Procedure*Item,"Procedure*Trial Type","Procedure*Max Time","Procedure*Min Time",Procedure*Text,"Procedure*Procedure Notes",Procedure*Shuffle,Response*RT,Response*Response,Response*Accuracy,Response*RTfirst,Response*RTlast,Response*strictAcc,Response*lenientAcc,Response*focus,Response*Focus
w10108633_kcc,ajej7y8fww,Nick_Dissertation_EX1_EP,1,1,2021-11-30T22:40:02+00:00,5.5985541343689,2,versionA_stim.csv,READVersionB.csv,"Read Version B","Dissertation, read only version B",,,,,,0,Instruct,-,5,"In this section, you will be presented with a series of word pairs.",Initial_Instruct,Instruct1,5308,,,-1,-1,,,,1
w10108633_kcc,ajej7y8fww,Nick_Dissertation_EX1_EP,1,2,2021-11-30T22:40:14+00:00,11.756886005402,2,versionA_stim.csv,READVersionB.csv,"Read Version B","Dissertation, read only version B",,,,,,0,Instruct,-,10,"Each word will be displayed on the computer screen for 8 seconds. The screen will automatically move to the next pair when time is up. Please study each pair. Your memory will be tested!",,Instruct15,11440,,,-1,-1,,,,1
w10108633_kcc,ajej7y8fww,Nick_Dissertation_EX1_EP,1,3,2021-11-30T22:40:16+00:00,2.182797908783,2,versionA_stim.csv,READVersionB.csv,"Read Version B","Dissertation, read only version B",,,,,,0,Instruct,User,-,"You will now begin the study. Press Enter when you are ready to begin.",,Instruct16,1841,,,-1,-1,,,,1
w10108633_kcc,ajej7y8fww,Nick_Dissertation_EX1_EP,1,4,2021-11-30T22:40:25+00:00,8.31334400177,2,versionA_stim.csv,READVersionB.csv,"Read Version B","Dissertation, read only version B",CARROT,POTATO,BUFFER3,Buffer,91,95,Study,8,8,,Study/JOL,BUFFER,8012,,,-1,-1,,,,1
w10108633_kcc,ajej7y8fww,Nick_Dissertation_EX1_EP,1,5,2021-11-30T22:40:33+00:00,8.3087220191956,2,versionA_stim.csv,READVersionB.csv,"Read Version B","Dissertation, read only version B",NOODLE,STRING,BUFFER3,Buffer,92,92,Study,8,8,,Study/JOL,BUFFER,8004,,,-1,-1,,,,1
w10108633_kcc,ajej7y8fww,Nick_Dissertation_EX1_EP,1,6,2021-11-30T22:40:41+00:00,8.3061721324921,2,versionA_stim.csv,READVersionB.csv,"Read Version B","Dissertation, read only version B",CAMP,ADVENTURE,BUFFER3,Buffer,95,96,Study,8,8,,Study/JOL,BUFFER,8005,,,-1,-1,,,,1
w10108633_kcc,ajej7y8fww,Nick_Dissertation_EX1_EP,1,7,2021-11-30T22:40:49+00:00,8.295923948288,2,versionA_stim.csv,READVersionB.csv,"Read Version B","Dissertation, read only version B",SHRIMP,FISH,BUFFER3,Buffer,93,93,Study,8,8,,Study/JOL,BUFFER,8006,,,-1,-1,,,,1
w10108633_kcc,ajej7y8fww,Nick_Dissertation_EX1_EP,1,8,2021-11-30T22:40:58+00:00,8.2955939769745,2,versionA_stim.csv,READVersionB.csv,"Read Version B","Dissertation, read only version B",ICE,FROZEN,BUFFER3,Buffer,94,94,Study,8,8,,Study/JOL,BUFFER,8005,,,-1,-1,,,,1
w10108633_kcc,ajej7y8fww,Nick_Dissertation_EX1_EP,1,9,2021-11-30T22:41:06+00:00,8.2992579936981,2,versionA_stim.csv,READVersionB.csv,"Read Version B","Dissertation, read only version B",MEAT,OBTAIN,Study2,U,161,172,Study,8,8,,Study/JOL,"Study Phase",8009,,,-1,-1,,,,1
w10108633_kcc,ajej7y8fww,Nick_Dissertation_EX1_EP,1,10,2021-11-30T22:41:14+00:00,8.3045780658722,2,versionA_stim.csv,READVersionB.csv,"Read Version B","Dissertation, read only version B",POP,BALLOON,Study2,B,123,119,Study,8,8,,Study/JOL,"Study Phase",8010,,,-1,-1,,,,1
w10108633_kcc,ajej7y8fww,Nick_Dissertation_EX1_EP,1,11,2021-11-30T22:41:23+00:00,8.2941818237305,2,versionA_stim.csv,READVersionB.csv,"Read Version B","Dissertation, read only version B",CANDLE,WAX,Study2,S,139,108,Study,8,8,,Study/JOL,"Study Phase",8005,,,-1,-1,,,,1
w10108633_kcc,ajej7y8fww,Nick_Dissertation_EX1_EP,1,12,2021-11-30T22:41:31+00:00,8.3185300827026,2,versionA_stim.csv,READVersionB.csv,"Read Version B","Dissertation, read only version B",PLANE,AIRCRAFT,Study2,B,129,154,Study,8,8,,Study/JOL,"Study Phase",8005,,,-1,-1,,,,1
w10108633_kcc,ajej7y8fww,Nick_Dissertation_EX1_EP,1,13,2021-11-30T22:41:39+00:00,8.3142631053925,2,versionA_stim.csv,READVersionB.csv,"Read Version B","Dissertation, read only version B",STAR,ACTRESS,Study2,B,120,121,Study,8,8,,Study/JOL,"Study Phase",8014,,,-1,-1,,,,1
w10108633_kcc,ajej7y8fww,Nick_Dissertation_EX1_EP,1,14,2021-11-30T22:41:48+00:00,8.3083298206329,2,versionA_stim.csv,READVersionB.csv,"Read Version B","Dissertation, read only version B",FEUD,FIGHT,Study2,F,113,107,Study,8,8,,Study/JOL,"Study Phase",8008,,,-1,-1,,,,1
w10108633_kcc,ajej7y8fww,Nick_Dissertation_EX1_EP,1,15,2021-11-30T22:41:56+00:00,8.4164671897888,2,versionA_stim.csv,READVersionB.csv,"Read Version B","Dissertation, read only version B",BASEBALL,LEAGUE,Study2,B,131,171,Study,8,8,,Study/JOL,"Study Phase",8006,,,-1,-1,,,,1
w10108633_kcc,ajej7y8fww,Nick_Dissertation_EX1_EP,1,16,2021-11-30T22:42:06+00:00,9.4661870002747,2,versionA_stim.csv,READVersionB.csv,"Read Version B","Dissertation, read only version B",DETECTIVE,MYSTERY,Study2,F,100,175,Study,8,8,,Study/JOL,"Study Phase",8005,,,-1,-1,,,,1
w10108633_kcc,ajej7y8fww,Nick_Dissertation_EX1_EP,1,17,2021-11-30T22:42:14+00:00,8.2901828289032,2,versionA_stim.csv,READVersionB.csv,"Read Version B","Dissertation, read only version B",ROD,REEL,Study2,S,150,173,Study,8,8,,Study/JOL,"Study Phase",8006,,,-1,-1,,,,1
w10108633_kcc,ajej7y8fww,Nick_Dissertation_EX1_EP,1,18,2021-11-30T22:42:22+00:00,8.2999560832977,2,versionA_stim.csv,READVersionB.csv,"Read Version B","Dissertation, read only version B",DEAD,COFFIN,Study2,B,128,160,Study,8,8,,Study/JOL,"Study Phase",8005,,,-1,-1,,,,1
w10108633_kcc,ajej7y8fww,Nick_Dissertation_EX1_EP,1,19,2021-11-30T22:42:30+00:00,8.310968875885,2,versionA_stim.csv,READVersionB.csv,"Read Version B","Dissertation, read only version B",DINE,EAT,Study2,F,111,127,Study,8,8,,Study/JOL,"Study Phase",8008,,,-1,-1,,,,1
w10108633_kcc,ajej7y8fww,Nick_Dissertation_EX1_EP,1,20,2021-11-30T22:42:39+00:00,8.2980670928955,2,versionA_stim.csv,READVersionB.csv,"Read Version B","Dissertation, read only version B",CAKE,CLOTHES,Study2,U,166,133,Study,8,8,,Study/JOL,"Study Phase",8004,,,-1,-1,,,,1
w10108633_kcc,ajej7y8fww,Nick_Dissertation_EX1_EP,1,21,2021-11-30T22:42:47+00:00,8.2974870204926,2,versionA_stim.csv,READVersionB.csv,"Read Version B","Dissertation, read only version B",BEST,FAVORITE,Study2,B,125,116,Study,8,8,,Study/JOL,"Study Phase",8010,,,-1,-1,,,,1
w10108633_kcc,ajej7y8fww,Nick_Dissertation_EX1_EP,1,22,2021-11-30T22:42:55+00:00,8.3009901046753,2,versionA_stim.csv,READVersionB.csv,"Read Version B","Dissertation, read only version B",MAZE,ELECTION,Study2,U,159,162,Study,8,8,,Study/JOL,"Study Phase",8012,,,-1,-1,,,,1
w10108633_kcc,ajej7y8fww,Nick_Dissertation_EX1_EP,1,23,2021-11-30T22:43:04+00:00,8.2855648994446,2,versionA_stim.csv,READVersionB.csv,"Read Version B","Dissertation, read only version B",FURRY,DOG,Study2,F,102,167,Study,8,8,,Study/JOL,"Study Phase",8007,,,-1,-1,,,,1
w10108633_kcc,ajej7y8fww,Nick_Dissertation_EX1_EP,1,24,2021-11-30T22:43:12+00:00,8.2977180480957,2,versionA_stim.csv,READVersionB.csv,"Read Version B","Dissertation, read only version B",ALONE,LONELY,Study2,S,145,109,Study,8,8,,Study/JOL,"Study Phase",8005,,,-1,-1,,,,1
w10108633_kcc,ajej7y8fww,Nick_Dissertation_EX1_EP,1,25,2021-11-30T22:43:20+00:00,8.2955060005188,2,versionA_stim.csv,READVersionB.csv,"Read Version B","Dissertation, read only version B",DOCUMENT,PAPER,Study2,F,109,126,Study,8,8,,Study/JOL,"Study Phase",8005,,,-1,-1,,,,1
w10108633_kcc,ajej7y8fww,Nick_Dissertation_EX1_EP,1,26,2021-11-30T22:43:28+00:00,8.2920508384705,2,versionA_stim.csv,READVersionB.csv,"Read Version B","Dissertation, read only version B",ADJOURN,END,Study2,F,101,129,Study,8,8,,Study/JOL,"Study Phase",8006,,,-1,-1,,,,1
w10108633_kcc,ajej7y8fww,Nick_Dissertation_EX1_EP,1,27,2021-11-30T22:43:37+00:00,8.2941391468048,2,versionA_stim.csv,READVersionB.csv,"Read Version B","Dissertation, read only version B",LITTER,TRASH,Study2,F,103,176,Study,8,8,,Study/JOL,"Study Phase",8011,,,-1,-1,,,,1
w10108633_kcc,ajej7y8fww,Nick_Dissertation_EX1_EP,1,28,2021-11-30T22:43:45+00:00,8.2968518733978,2,versionA_stim.csv,READVersionB.csv,"Read Version B","Dissertation, read only version B",EVEN,REVENGE,Study2,B,122,157,Study,8,8,,Study/JOL,"Study Phase",8005,,,-1,-1,,,,1
w10108633_kcc,ajej7y8fww,Nick_Dissertation_EX1_EP,1,29,2021-11-30T22:43:54+00:00,8.4907021522522,2,versionA_stim.csv,READVersionB.csv,"Read Version B","Dissertation, read only version B",FLEA,TICK,Study2,S,151,146,Study,8,8,,Study/JOL,"Study Phase",8007,,,-1,-1,,,,1
w10108633_kcc,ajej7y8fww,Nick_Dissertation_EX1_EP,1,30,2021-11-30T22:44:02+00:00,8.2926268577576,2,versionA_stim.csv,READVersionB.csv,"Read Version B","Dissertation, read only version B",MULE,DONKEY,Study2,F,108,145,Study,8,8,,Study/JOL,"Study Phase",8005,,,-1,-1,,,,1
w10108633_kcc,ajej7y8fww,Nick_Dissertation_EX1_EP,1,31,2021-11-30T22:44:10+00:00,8.293890953064,2,versionA_stim.csv,READVersionB.csv,"Read Version B","Dissertation, read only version B",VEHICLE,CHARM,Study2,U,160,124,Study,8,8,,Study/JOL,"Study Phase",8005,,,-1,-1,,,,1
w10108633_kcc,ajej7y8fww,Nick_Dissertation_EX1_EP,1,32,2021-11-30T22:44:18+00:00,8.2998111248016,2,versionA_stim.csv,READVersionB.csv,"Read Version B","Dissertation, read only version B",TURN,FLIP,Study2,B,116,136,Study,8,8,,Study/JOL,"Study Phase",8004,,,-1,-1,,,,1
w10108633_kcc,ajej7y8fww,Nick_Dissertation_EX1_EP,1,33,2021-11-30T22:44:27+00:00,8.30362200737,2,versionA_stim.csv,READVersionB.csv,"Read Version B","Dissertation, read only version B",EARTH,GROUND,Study2,S,144,159,Study,8,8,,Study/JOL,"Study Phase",8005,,,-1,-1,,,,1
w10108633_kcc,ajej7y8fww,Nick_Dissertation_EX1_EP,1,34,2021-11-30T22:44:35+00:00,8.3468170166016,2,versionA_stim.csv,READVersionB.csv,"Read Version B","Dissertation, read only version B",RAZOR,SHAVE,Study2,S,136,97,Study,8,8,,Study/JOL,"Study Phase",8008,,,-1,-1,,,,1
w10108633_kcc,ajej7y8fww,Nick_Dissertation_EX1_EP,1,35,2021-11-30T22:44:43+00:00,8.2909100055695,2,versionA_stim.csv,READVersionB.csv,"Read Version B","Dissertation, read only version B",CACTUS,PLANT,Study2,F,98,112,Study,8,8,,Study/JOL,"Study Phase",8005,,,-1,-1,,,,1
w10108633_kcc,ajej7y8fww,Nick_Dissertation_EX1_EP,1,36,2021-11-30T22:44:52+00:00,8.2842099666595,2,versionA_stim.csv,READVersionB.csv,"Read Version B","Dissertation, read only version B",SUN,TAN,Study2,S,155,137,Study,8,8,,Study/JOL,"Study Phase",8005,,,-1,-1,,,,1
w10108633_kcc,ajej7y8fww,Nick_Dissertation_EX1_EP,1,37,2021-11-30T22:45:00+00:00,8.301794052124,2,versionA_stim.csv,READVersionB.csv,"Read Version B","Dissertation, read only version B",FISH,SARDINE,Study2,B,130,113,Study,8,8,,Study/JOL,"Study Phase",8004,,,-1,-1,,,,1
w10108633_kcc,ajej7y8fww,Nick_Dissertation_EX1_EP,1,38,2021-11-30T22:45:08+00:00,8.3059530258179,2,versionA_stim.csv,READVersionB.csv,"Read Version B","Dissertation, read only version B",PHONE,COMMUNICATION,Study2,S,149,151,Study,8,8,,Study/JOL,"Study Phase",8006,,,-1,-1,,,,1
w10108633_kcc,ajej7y8fww,Nick_Dissertation_EX1_EP,1,39,2021-11-30T22:45:17+00:00,8.295872926712,2,versionA_stim.csv,READVersionB.csv,"Read Version B","Dissertation, read only version B",MASON,JAR,Study2,S,138,131,Study,8,8,,Study/JOL,"Study Phase",8006,,,-1,-1,,,,1
w10108633_kcc,ajej7y8fww,Nick_Dissertation_EX1_EP,1,40,2021-11-30T22:45:25+00:00,8.2974290847778,2,versionA_stim.csv,READVersionB.csv,"Read Version B","Dissertation, read only version B",JUSTICE,MAROON,Study2,U,156,125,Study,8,8,,Study/JOL,"Study Phase",8005,,,-1,-1,,,,1
w10108633_kcc,ajej7y8fww,Nick_Dissertation_EX1_EP,1,41,2021-11-30T22:45:33+00:00,8.3167788982391,2,versionA_stim.csv,READVersionB.csv,"Read Version B","Dissertation, read only version B",STRETCH,CLOTH,Study2,U,157,118,Study,8,8,,Study/JOL,"Study Phase",8007,,,-1,-1,,,,1
w10108633_kcc,ajej7y8fww,Nick_Dissertation_EX1_EP,1,42,2021-11-30T22:45:41+00:00,8.3010239601135,2,versionA_stim.csv,READVersionB.csv,"Read Version B","Dissertation, read only version B",CAT,PANTHER,Study2,B,126,110,Study,8,8,,Study/JOL,"Study Phase",8004,,,-1,-1,,,,1
w10108633_kcc,ajej7y8fww,Nick_Dissertation_EX1_EP,1,43,2021-11-30T22:45:50+00:00,8.2841210365295,2,versionA_stim.csv,READVersionB.csv,"Read Version B","Dissertation, read only version B",SLEEP,NAP,Study2,B,134,152,Study,8,8,,Study/JOL,"Study Phase",8005,,,-1,-1,,,,1
w10108633_kcc,ajej7y8fww,Nick_Dissertation_EX1_EP,1,44,2021-11-30T22:45:58+00:00,8.2928791046143,2,versionA_stim.csv,READVersionB.csv,"Read Version B","Dissertation, read only version B",EXTENSION,LONG,Study2,F,96,102,Study,8,8,,Study/JOL,"Study Phase",8006,,,-1,-1,,,,1
w10108633_kcc,ajej7y8fww,Nick_Dissertation_EX1_EP,1,45,2021-11-30T22:46:06+00:00,8.2986719608307,2,versionA_stim.csv,READVersionB.csv,"Read Version B","Dissertation, read only version B",MONEY,BANKER,Study2,B,132,130,Study,8,8,,Study/JOL,"Study Phase",8005,,,-1,-1,,,,1
w10108633_kcc,ajej7y8fww,Nick_Dissertation_EX1_EP,1,46,2021-11-30T22:46:15+00:00,8.3334720134735,2,versionA_stim.csv,READVersionB.csv,"Read Version B","Dissertation, read only version B",GLASS,BREAKABLE,Study2,B,127,105,Study,8,8,,Study/JOL,"Study Phase",8012,,,-1,-1,,,,1
w10108633_kcc,ajej7y8fww,Nick_Dissertation_EX1_EP,1,47,2021-11-30T22:46:23+00:00,8.3216319084167,2,versionA_stim.csv,READVersionB.csv,"Read Version B","Dissertation, read only version B",SHOELACE,TIE,Study2,F,99,142,Study,8,8,,Study/JOL,"Study Phase",8006,,,-1,-1,,,,1
w10108633_kcc,ajej7y8fww,Nick_Dissertation_EX1_EP,1,48,2021-11-30T22:46:31+00:00,8.3134760856628,2,versionA_stim.csv,READVersionB.csv,"Read Version B","Dissertation, read only version B",NAME,HATE,Study2,U,167,156,Study,8,8,,Study/JOL,"Study Phase",8005,,,-1,-1,,,,1
w10108633_kcc,ajej7y8fww,Nick_Dissertation_EX1_EP,1,49,2021-11-30T22:46:40+00:00,8.3195109367371,2,versionA_stim.csv,READVersionB.csv,"Read Version B","Dissertation, read only version B",WRIST,BRACELET,Study2,S,140,170,Study,8,8,,Study/JOL,"Study Phase",8006,,,-1,-1,,,,1
w10108633_kcc,ajej7y8fww,Nick_Dissertation_EX1_EP,1,50,2021-11-30T22:46:48+00:00,8.2945489883423,2,versionA_stim.csv,READVersionB.csv,"Read Version B","Dissertation, read only version B",TRUTH,LIE,Study2,S,148,144,Study,8,8,,Study/JOL,"Study Phase",8004,,,-1,-1,,,,1
w10108633_kcc,ajej7y8fww,Nick_Dissertation_EX1_EP,1,51,2021-11-30T22:46:56+00:00,8.2923429012299,2,versionA_stim.csv,READVersionB.csv,"Read Version B","Dissertation, read only version B",CHOP,CUT,Study2,F,107,99,Study,8,8,,Study/JOL,"Study Phase",8009,,,-1,-1,,,,1
w10108633_kcc,ajej7y8fww,Nick_Dissertation_EX1_EP,1,52,2021-11-30T22:47:05+00:00,8.3347132205963,2,versionA_stim.csv,READVersionB.csv,"Read Version B","Dissertation, read only version B",TANTRUM,TEMPER,Study2,S,154,155,Study,8,8,,Study/JOL,"Study Phase",8006,,,-1,-1,,,,1
w10108633_kcc,ajej7y8fww,Nick_Dissertation_EX1_EP,1,53,2021-11-30T22:47:13+00:00,8.4125728607178,2,versionA_stim.csv,READVersionB.csv,"Read Version B","Dissertation, read only version B",HONEST,TRUTHFUL,Study2,B,133,104,Study,8,8,,Study/JOL,"Study Phase",8006,,,-1,-1,,,,1
w10108633_kcc,ajej7y8fww,Nick_Dissertation_EX1_EP,1,54,2021-11-30T22:47:21+00:00,8.2994129657745,2,versionA_stim.csv,READVersionB.csv,"Read Version B","Dissertation, read only version B",LEASE,TOIL,Study2,U,170,164,Study,8,8,,Study/JOL,"Study Phase",8007,,,-1,-1,,,,1
w10108633_kcc,ajej7y8fww,Nick_Dissertation_EX1_EP,1,55,2021-11-30T22:47:30+00:00,8.3133080005646,2,versionA_stim.csv,READVersionB.csv,"Read Version B","Dissertation, read only version B",INCENSE,SMELL,Study2,F,110,174,Study,8,8,,Study/JOL,"Study Phase",8007,,,-1,-1,,,,1
w10108633_kcc,ajej7y8fww,Nick_Dissertation_EX1_EP,1,56,2021-11-30T22:47:38+00:00,8.3014800548553,2,versionA_stim.csv,READVersionB.csv,"Read Version B","Dissertation, read only version B",MAIN,SCAR,Study2,U,175,140,Study,8,8,,Study/JOL,"Study Phase",8005,,,-1,-1,,,,1
w10108633_kcc,ajej7y8fww,Nick_Dissertation_EX1_EP,1,57,2021-11-30T22:47:46+00:00,8.2964730262756,2,versionA_stim.csv,READVersionB.csv,"Read Version B","Dissertation, read only version B",CHILL,COLD,Study2,F,114,101,Study,8,8,,Study/JOL,"Study Phase",8005,,,-1,-1,,,,1
w10108633_kcc,ajej7y8fww,Nick_Dissertation_EX1_EP,1,58,2021-11-30T22:47:55+00:00,8.2983479499817,2,versionA_stim.csv,READVersionB.csv,"Read Version B","Dissertation, read only version B",Shell,SHAKE,Study2,U,163,115,Study,8,8,,Study/JOL,"Study Phase",8005,,,-1,-1,,,,1
w10108633_kcc,ajej7y8fww,Nick_Dissertation_EX1_EP,1,59,2021-11-30T22:48:03+00:00,8.2973721027374,2,versionA_stim.csv,READVersionB.csv,"Read Version B","Dissertation, read only version B",FUZZY,BANG,Study2,U,168,165,Study,8,8,,Study/JOL,"Study Phase",8005,,,-1,-1,,,,1
w10108633_kcc,ajej7y8fww,Nick_Dissertation_EX1_EP,1,60,2021-11-30T22:48:11+00:00,8.3203539848328,2,versionA_stim.csv,READVersionB.csv,"Read Version B","Dissertation, read only version B",SAFETY,SEATBELT,Study2,S,147,166,Study,8,8,,Study/JOL,"Study Phase",8011,,,-1,-1,,,,1
w10108633_kcc,ajej7y8fww,Nick_Dissertation_EX1_EP,1,61,2021-11-30T22:48:19+00:00,8.2949850559235,2,versionA_stim.csv,READVersionB.csv,"Read Version B","Dissertation, read only version B",RIGHTS,EQUAL,Study2,S,137,117,Study,8,8,,Study/JOL,"Study Phase",8005,,,-1,-1,,,,1
w10108633_kcc,ajej7y8fww,Nick_Dissertation_EX1_EP,1,62,2021-11-30T22:48:28+00:00,8.2997608184814,2,versionA_stim.csv,READVersionB.csv,"Read Version B","Dissertation, read only version B",CHERRY,RED,Study2,F,104,149,Study,8,8,,Study/JOL,"Study Phase",8011,,,-1,-1,,,,1
w10108633_kcc,ajej7y8fww,Nick_Dissertation_EX1_EP,1,63,2021-11-30T22:48:36+00:00,8.2955770492554,2,versionA_stim.csv,READVersionB.csv,"Read Version B","Dissertation, read only version B",CLUE,GAME,Study2,F,97,122,Study,8,8,,Study/JOL,"Study Phase",8005,,,-1,-1,,,,1
w10108633_kcc,ajej7y8fww,Nick_Dissertation_EX1_EP,1,64,2021-11-30T22:48:44+00:00,8.3036921024323,2,versionA_stim.csv,READVersionB.csv,"Read Version B","Dissertation, read only version B",SCALP,HEAD,Study2,F,105,106,Study,8,8,,Study/JOL,"Study Phase",8010,,,-1,-1,,,,1
w10108633_kcc,ajej7y8fww,Nick_Dissertation_EX1_EP,1,65,2021-11-30T22:48:53+00:00,8.2937040328979,2,versionA_stim.csv,READVersionB.csv,"Read Version B","Dissertation, read only version B",CRACKLE,ABLE,Study2,U,162,141,Study,8,8,,Study/JOL,"Study Phase",8005,,,-1,-1,,,,1
w10108633_kcc,ajej7y8fww,Nick_Dissertation_EX1_EP,1,66,2021-11-30T22:49:01+00:00,8.2948298454285,2,versionA_stim.csv,READVersionB.csv,"Read Version B","Dissertation, read only version B",BOTH,OUNCE,Study2,U,172,114,Study,8,8,,Study/JOL,"Study Phase",8005,,,-1,-1,,,,1
w10108633_kcc,ajej7y8fww,Nick_Dissertation_EX1_EP,1,67,2021-11-30T22:49:09+00:00,8.3020370006561,2,versionA_stim.csv,READVersionB.csv,"Read Version B","Dissertation, read only version B",THREAD,THIMBLE,Study2,B,121,132,Study,8,8,,Study/JOL,"Study Phase",8006,,,-1,-1,,,,1
w10108633_kcc,ajej7y8fww,Nick_Dissertation_EX1_EP,1,68,2021-11-30T22:49:18+00:00,8.2969100475311,2,versionA_stim.csv,READVersionB.csv,"Read Version B","Dissertation, read only version B",GIVE,STEAK,Study2,U,158,100,Study,8,8,,Study/JOL,"Study Phase",8005,,,-1,-1,,,,1
w10108633_kcc,ajej7y8fww,Nick_Dissertation_EX1_EP,1,69,2021-11-30T22:49:26+00:00,8.3053050041199,2,versionA_stim.csv,READVersionB.csv,"Read Version B","Dissertation, read only version B",BAD,VILLAIN,Study2,B,118,139,Study,8,8,,Study/JOL,"Study Phase",8004,,,-1,-1,,,,1
w10108633_kcc,ajej7y8fww,Nick_Dissertation_EX1_EP,1,70,2021-11-30T22:49:34+00:00,8.2911150455475,2,versionA_stim.csv,READVersionB.csv,"Read Version B","Dissertation, read only version B",MIRROR,CHILDREN,Study2,U,174,103,Study,8,8,,Study/JOL,"Study Phase",8005,,,-1,-1,,,,1
w10108633_kcc,ajej7y8fww,Nick_Dissertation_EX1_EP,1,71,2021-11-30T22:49:42+00:00,8.3030459880829,2,versionA_stim.csv,READVersionB.csv,"Read Version B","Dissertation, read only version B",LOAN,SIGN,Study2,U,171,143,Study,8,8,,Study/JOL,"Study Phase",8005,,,-1,-1,,,,1
w10108633_kcc,ajej7y8fww,Nick_Dissertation_EX1_EP,1,72,2021-11-30T22:49:51+00:00,8.2957980632782,2,versionA_stim.csv,READVersionB.csv,"Read Version B","Dissertation, read only version B",CAR,WINDSHIELD,Study2,B,117,168,Study,8,8,,Study/JOL,"Study Phase",8012,,,-1,-1,,,,1
w10108633_kcc,ajej7y8fww,Nick_Dissertation_EX1_EP,1,73,2021-11-30T22:49:59+00:00,8.3026528358459,2,versionA_stim.csv,READVersionB.csv,"Read Version B","Dissertation, read only version B",TEMPERATURE,Morning,Study2,U,173,135,Study,8,8,,Study/JOL,"Study Phase",8005,,,-1,-1,,,,1
w10108633_kcc,ajej7y8fww,Nick_Dissertation_EX1_EP,1,74,2021-11-30T22:50:07+00:00,8.3177480697632,2,versionA_stim.csv,READVersionB.csv,"Read Version B","Dissertation, read only version B",DRIVER,CAR,Study2,F,106,163,Study,8,8,,Study/JOL,"Study Phase",8005,,,-1,-1,,,,1
w10108633_kcc,ajej7y8fww,Nick_Dissertation_EX1_EP,1,75,2021-11-30T22:50:16+00:00,8.2935450077057,2,versionA_stim.csv,READVersionB.csv,"Read Version B","Dissertation, read only version B",KEYS,JOKE,Study2,U,165,138,Study,8,8,,Study/JOL,"Study Phase",8005,,,-1,-1,,,,1
w10108633_kcc,ajej7y8fww,Nick_Dissertation_EX1_EP,1,76,2021-11-30T22:50:24+00:00,8.5930690765381,2,versionA_stim.csv,READVersionB.csv,"Read Version B","Dissertation, read only version B",FRUIT,STRAWBERRY,Study2,B,124,161,Study,8,8,,Study/JOL,"Study Phase",8005,,,-1,-1,,,,1
w10108633_kcc,ajej7y8fww,Nick_Dissertation_EX1_EP,1,77,2021-11-30T22:50:33+00:00,8.3010549545288,2,versionA_stim.csv,READVersionB.csv,"Read Version B","Dissertation, read only version B",GONE,AWAY,Study2,S,142,98,Study,8,8,,Study/JOL,"Study Phase",8004,,,-1,-1,,,,1
w10108633_kcc,ajej7y8fww,Nick_Dissertation_EX1_EP,1,78,2021-11-30T22:50:41+00:00,8.3064498901367,2,versionA_stim.csv,READVersionB.csv,"Read Version B","Dissertation, read only version B",ELEMENT,CARBON,Study2,S,141,148,Study,8,8,,Study/JOL,"Study Phase",8013,,,-1,-1,,,,1
w10108633_kcc,ajej7y8fww,Nick_Dissertation_EX1_EP,1,79,2021-11-30T22:50:49+00:00,8.3041291236877,2,versionA_stim.csv,READVersionB.csv,"Read Version B","Dissertation, read only version B",OWN,HAVE,Study2,S,153,169,Study,8,8,,Study/JOL,"Study Phase",8005,,,-1,-1,,,,1
w10108633_kcc,ajej7y8fww,Nick_Dissertation_EX1_EP,1,80,2021-11-30T22:50:57+00:00,8.3156778812408,2,versionA_stim.csv,READVersionB.csv,"Read Version B","Dissertation, read only version B",WATER,DRINK,Study2,S,143,128,Study,8,8,,Study/JOL,"Study Phase",8005,,,-1,-1,,,,1
w10108633_kcc,ajej7y8fww,Nick_Dissertation_EX1_EP,1,81,2021-11-30T22:51:06+00:00,8.2946181297302,2,versionA_stim.csv,READVersionB.csv,"Read Version B","Dissertation, read only version B",LISTEN,FICTION,Study2,U,164,147,Study,8,8,,Study/JOL,"Study Phase",8005,,,-1,-1,,,,1
w10108633_kcc,ajej7y8fww,Nick_Dissertation_EX1_EP,1,82,2021-11-30T22:51:14+00:00,8.300518989563,2,versionA_stim.csv,READVersionB.csv,"Read Version B","Dissertation, read only version B",MOAT,CLEAR,Study2,U,169,153,Study,8,8,,Study/JOL,"Study Phase",8006,,,-1,-1,,,,1
w10108633_kcc,ajej7y8fww,Nick_Dissertation_EX1_EP,1,83,2021-11-30T22:51:22+00:00,8.2991118431091,2,versionA_stim.csv,READVersionB.csv,"Read Version B","Dissertation, read only version B",DRY,WET,Study2,S,146,150,Study,8,8,,Study/JOL,"Study Phase",8011,,,-1,-1,,,,1
w10108633_kcc,ajej7y8fww,Nick_Dissertation_EX1_EP,1,84,2021-11-30T22:51:31+00:00,8.2952780723572,2,versionA_stim.csv,READVersionB.csv,"Read Version B","Dissertation, read only version B",AFFECTION,LOVE,Study2,F,115,134,Study,8,8,,Study/JOL,"Study Phase",8006,,,-1,-1,,,,1
w10108633_kcc,ajej7y8fww,Nick_Dissertation_EX1_EP,1,85,2021-11-30T22:51:39+00:00,8.3148519992828,2,versionA_stim.csv,READVersionB.csv,"Read Version B","Dissertation, read only version B",LOUD,NOISE,Study2,S,152,158,Study,8,8,,Study/JOL,"Study Phase",8006,,,-1,-1,,,,1
w10108633_kcc,ajej7y8fww,Nick_Dissertation_EX1_EP,1,86,2021-11-30T22:51:47+00:00,8.3001971244812,2,versionA_stim.csv,READVersionB.csv,"Read Version B","Dissertation, read only version B",BIRD,PENGUIN,Study2,B,119,111,Study,8,8,,Study/JOL,"Study Phase",8006,,,-1,-1,,,,1
w10108633_kcc,ajej7y8fww,Nick_Dissertation_EX1_EP,1,87,2021-11-30T22:51:56+00:00,8.2917168140411,2,versionA_stim.csv,READVersionB.csv,"Read Version B","Dissertation, read only version B",FIGHT,BRAWL,Study2,B,135,120,Study,8,8,,Study/JOL,"Study Phase",8005,,,-1,-1,,,,1
w10108633_kcc,ajej7y8fww,Nick_Dissertation_EX1_EP,1,88,2021-11-30T22:52:04+00:00,8.2954351902008,2,versionA_stim.csv,READVersionB.csv,"Read Version B","Dissertation, read only version B",SHEARS,SCISSORS,Study2,F,112,123,Study,8,8,,Study/JOL,"Study Phase",8005,,,-1,-1,,,,1
w10108633_kcc,ajej7y8fww,Nick_Dissertation_EX1_EP,1,89,2021-11-30T22:52:12+00:00,8.3004338741302,2,versionA_stim.csv,READVersionB.csv,"Read Version B","Dissertation, read only version B",SPRING,MARCH,BUFFER4,Buffer,179,180,Study,8,8,,Study/JOL,BUFFER2,8004,,,-1,-1,,,,1
w10108633_kcc,ajej7y8fww,Nick_Dissertation_EX1_EP,1,90,2021-11-30T22:52:20+00:00,8.2926230430603,2,versionA_stim.csv,READVersionB.csv,"Read Version B","Dissertation, read only version B",DAYS,WEAKS,BUFFER4,Buffer,176,179,Study,8,8,,Study/JOL,BUFFER2,8006,,,-1,-1,,,,1
w10108633_kcc,ajej7y8fww,Nick_Dissertation_EX1_EP,1,91,2021-11-30T22:52:29+00:00,8.2897689342499,2,versionA_stim.csv,READVersionB.csv,"Read Version B","Dissertation, read only version B",MONTH,YEAR,BUFFER4,Buffer,177,181,Study,8,8,,Study/JOL,BUFFER2,8005,,,-1,-1,,,,1
w10108633_kcc,ajej7y8fww,Nick_Dissertation_EX1_EP,1,92,2021-11-30T22:52:37+00:00,8.2899050712585,2,versionA_stim.csv,READVersionB.csv,"Read Version B","Dissertation, read only version B",OCTOBER,SPOOKY,BUFFER4,Buffer,180,177,Study,8,8,,Study/JOL,BUFFER2,8005,,,-1,-1,,,,1
w10108633_kcc,ajej7y8fww,Nick_Dissertation_EX1_EP,1,93,2021-11-30T22:52:45+00:00,8.2894420623779,2,versionA_stim.csv,READVersionB.csv,"Read Version B","Dissertation, read only version B",TOOL,SHED,BUFFER4,Buffer,178,178,Study,8,8,,Study/JOL,BUFFER2,8005,,,-1,-1,,,,1
w10108633_kcc,ajej7y8fww,Nick_Dissertation_EX1_EP,1,94,2021-11-30T22:52:48+00:00,2.4995520114899,2,versionA_stim.csv,READVersionB.csv,"Read Version B","Dissertation, read only version B",,,,,,0,Instruct,User,-,"You have completed this section. Please press Enter.",Filler_Instruction,Instruct2,2230,,,-1,-1,,,,1
w10108633_kcc,ajej7y8fww,Nick_Dissertation_EX1_EP,1,95,2021-11-30T22:54:48+00:00,120.36205196381,2,versionA_stim.csv,READVersionB.csv,"Read Version B","Dissertation, read only version B",,,,,,0,FreeRecall,120,120,"Please list the 50 US states in alphabetical order. The task will automatically advance to the next screen after two minutes.",,Filler1,120006,"Alabama Alaska Arizona Arkansas California Colorado Conneticut delaware florida gorgia idaho illinois idiana iowa kansas kentucky louisiana main maryland massachusettes michigan minisoda ",0,17576,119414,0,0,,1
w10108633_kcc,ajej7y8fww,Nick_Dissertation_EX1_EP,1,96,2021-11-30T22:55:01+00:00,12.814112901688,2,versionA_stim.csv,READVersionB.csv,"Read Version B","Dissertation, read only version B",,,,,,0,Instruct,-,10,"You will now be presented with the first word from each of the previously studied item pairs. Please type the missing word. If you do not know the word, you may guess or press Enter to skip forward to the next pair.",,Instruct3,12400,,,-1,-1,,,,1
w10108633_kcc,ajej7y8fww,Nick_Dissertation_EX1_EP,1,97,2021-11-30T22:55:14+00:00,12.984185934067,2,versionA_stim.csv,READVersionB.csv,"Read Version B","Dissertation, read only version B",VEHICLE,CHARM,Study2,U,160,124,Test,User,-,,Recall,Recall1,12617,motor,20,10642,11497,0,0,,1
w10108633_kcc,ajej7y8fww,Nick_Dissertation_EX1_EP,1,98,2021-11-30T22:55:18+00:00,4.2530660629272,2,versionA_stim.csv,READVersionB.csv,"Read Version B","Dissertation, read only version B",ADJOURN,END,Study2,F,101,129,Test,User,-,,Recall,Recall1,3960,end,100,1694,1970,1,1,,1
w10108633_kcc,ajej7y8fww,Nick_Dissertation_EX1_EP,1,99,2021-11-30T22:55:25+00:00,6.9092030525208,2,versionA_stim.csv,READVersionB.csv,"Read Version B","Dissertation, read only version B",DRY,WET,Study2,S,146,150,Test,User,-,,Recall,Recall1,6611,wet,100,3404,3932,1,1,,1
w10108633_kcc,ajej7y8fww,Nick_Dissertation_EX1_EP,1,100,2021-11-30T22:55:31+00:00,6.3838250637054,2,versionA_stim.csv,READVersionB.csv,"Read Version B","Dissertation, read only version B",DRIVER,CAR,Study2,F,106,163,Test,User,-,,Recall,Recall1,6016,license,20,3099,4082,0,0,,1
w10108633_kcc,ajej7y8fww,Nick_Dissertation_EX1_EP,1,101,2021-11-30T22:55:37+00:00,5.6884949207306,2,versionA_stim.csv,READVersionB.csv,"Read Version B","Dissertation, read only version B",CAT,PANTHER,Study2,B,126,110,Test,User,-,,Recall,Recall1,5394,dog,0,3121,4016,0,0,,1
w10108633_kcc,ajej7y8fww,Nick_Dissertation_EX1_EP,1,102,2021-11-30T22:55:45+00:00,7.6421020030975,2,versionA_stim.csv,READVersionB.csv,"Read Version B","Dissertation, read only version B",WATER,DRINK,Study2,S,143,128,Test,User,-,,Recall,Recall1,7338,drink,100,2087,4861,1,1,,1
w10108633_kcc,ajej7y8fww,Nick_Dissertation_EX1_EP,1,103,2021-11-30T22:55:48+00:00,3.3616108894348,2,versionA_stim.csv,READVersionB.csv,"Read Version B","Dissertation, read only version B",DEAD,COFFIN,Study2,B,128,160,Test,User,-,,Recall,Recall1,3051,coffin,100,1278,1898,1,1,,1
w10108633_kcc,ajej7y8fww,Nick_Dissertation_EX1_EP,1,104,2021-11-30T22:55:56+00:00,7.8706240653992,2,versionA_stim.csv,READVersionB.csv,"Read Version B","Dissertation, read only version B",MAZE,ELECTION,Study2,U,159,162,Test,User,-,,Recall,Recall1,7548,election,100,5186,6297,1,1,,1
w10108633_kcc,ajej7y8fww,Nick_Dissertation_EX1_EP,1,105,2021-11-30T22:56:00+00:00,3.4993081092834,2,versionA_stim.csv,READVersionB.csv,"Read Version B","Dissertation, read only version B",BIRD,PENGUIN,Study2,B,119,111,Test,User,-,,Recall,Recall1,3197,fly,0,1378,1765,0,0,,1
w10108633_kcc,ajej7y8fww,Nick_Dissertation_EX1_EP,1,106,2021-11-30T22:56:04+00:00,4.7095859050751,2,versionA_stim.csv,READVersionB.csv,"Read Version B","Dissertation, read only version B",MONEY,BANKER,Study2,B,132,130,Test,User,-,,Recall,Recall1,4386,power,36.363636363636,1732,2483,0,0,,1
w10108633_kcc,ajej7y8fww,Nick_Dissertation_EX1_EP,1,107,2021-11-30T22:56:07+00:00,3.2164390087128,2,versionA_stim.csv,READVersionB.csv,"Read Version B","Dissertation, read only version B",FLEA,TICK,Study2,S,151,146,Test,User,-,,Recall,Recall1,2902,tick,100,1388,1739,1,1,,1
w10108633_kcc,ajej7y8fww,Nick_Dissertation_EX1_EP,1,108,2021-11-30T22:56:16+00:00,8.773334980011,2,versionA_stim.csv,READVersionB.csv,"Read Version B","Dissertation, read only version B",ALONE,LONELY,Study2,S,145,109,Test,User,-,,Recall,Recall1,8453,lonely,100,1587,7282,1,1,,1
w10108633_kcc,ajej7y8fww,Nick_Dissertation_EX1_EP,1,109,2021-11-30T22:56:20+00:00,4.1644129753113,2,versionA_stim.csv,READVersionB.csv,"Read Version B","Dissertation, read only version B",BEST,FAVORITE,Study2,B,125,116,Test,User,-,,Recall,Recall1,3868,favorite,100,1573,2568,1,1,,1
w10108633_kcc,ajej7y8fww,Nick_Dissertation_EX1_EP,1,110,2021-11-30T22:56:24+00:00,3.4573709964752,2,versionA_stim.csv,READVersionB.csv,"Read Version B","Dissertation, read only version B",BOTH,OUNCE,Study2,U,172,114,Test,User,-,,Recall,Recall1,3130,and,25,1841,1986,0,0,,1
w10108633_kcc,ajej7y8fww,Nick_Dissertation_EX1_EP,1,111,2021-11-30T22:56:28+00:00,4.521656036377,2,versionA_stim.csv,READVersionB.csv,"Read Version B","Dissertation, read only version B",CAKE,CLOTHES,Study2,U,166,133,Test,User,-,,Recall,Recall1,4213,clothes,100,1039,1804,1,1,,1
w10108633_kcc,ajej7y8fww,Nick_Dissertation_EX1_EP,1,112,2021-11-30T22:56:33+00:00,4.9158039093018,2,versionA_stim.csv,READVersionB.csv,"Read Version B","Dissertation, read only version B",LOUD,NOISE,Study2,S,152,158,Test,User,-,,Recall,Recall1,4614,noise,100,1625,2279,1,1,,1
w10108633_kcc,ajej7y8fww,Nick_Dissertation_EX1_EP,1,113,2021-11-30T22:56:36+00:00,2.9754331111908,2,versionA_stim.csv,READVersionB.csv,"Read Version B","Dissertation, read only version B",GLASS,BREAKABLE,Study2,B,127,105,Test,User,-,,Recall,Recall1,2689,door,15.384615384615,1041,1526,0,0,,1
w10108633_kcc,ajej7y8fww,Nick_Dissertation_EX1_EP,1,114,2021-11-30T22:56:40+00:00,4.1867470741272,2,versionA_stim.csv,READVersionB.csv,"Read Version B","Dissertation, read only version B",THREAD,THIMBLE,Study2,B,121,132,Test,User,-,,Recall,Recall1,3886,bare,36.363636363636,1345,1898,0,0,,1
w10108633_kcc,ajej7y8fww,Nick_Dissertation_EX1_EP,1,115,2021-11-30T22:56:46+00:00,5.5028138160706,2,versionA_stim.csv,READVersionB.csv,"Read Version B","Dissertation, read only version B",ROD,REEL,Study2,S,150,173,Test,User,-,,Recall,Recall1,5208,fish,0,1212,3128,0,0,,1
w10108633_kcc,ajej7y8fww,Nick_Dissertation_EX1_EP,1,116,2021-11-30T22:57:01+00:00,15.468777179718,2,versionA_stim.csv,READVersionB.csv,"Read Version B","Dissertation, read only version B",KEYS,JOKE,Study2,U,165,138,Test,User,-,,Recall,Recall1,15151,lock,50,13547,13996,0,0,,1
w10108633_kcc,ajej7y8fww,Nick_Dissertation_EX1_EP,1,117,2021-11-30T22:57:09+00:00,7.0581619739532,2,versionA_stim.csv,READVersionB.csv,"Read Version B","Dissertation, read only version B",FISH,SARDINE,Study2,B,130,113,Test,User,-,,Recall,Recall1,6691,shrimp,46.153846153846,2777,4923,0,0,,1
w10108633_kcc,ajej7y8fww,Nick_Dissertation_EX1_EP,1,118,2021-11-30T22:57:22+00:00,13.36824798584,2,versionA_stim.csv,READVersionB.csv,"Read Version B","Dissertation, read only version B",CLUE,GAME,Study2,F,97,122,Test,User,-,,Recall,Recall1,13071,mystery,36.363636363636,2655,11302,0,0,,1
w10108633_kcc,ajej7y8fww,Nick_Dissertation_EX1_EP,1,119,2021-11-30T22:57:30+00:00,7.9243080615997,2,versionA_stim.csv,READVersionB.csv,"Read Version B","Dissertation, read only version B",MAIN,SCAR,Study2,U,175,140,Test,User,-,,Recall,Recall1,7507,important,15.384615384615,4601,5852,0,0,,1
w10108633_kcc,ajej7y8fww,Nick_Dissertation_EX1_EP,1,120,2021-11-30T22:57:34+00:00,4.4218859672546,2,versionA_stim.csv,READVersionB.csv,"Read Version B","Dissertation, read only version B",SLEEP,NAP,Study2,B,134,152,Test,User,-,,Recall,Recall1,4084,bed,0,2392,2651,0,0,,1
w10108633_kcc,ajej7y8fww,Nick_Dissertation_EX1_EP,1,121,2021-11-30T22:57:40+00:00,5.3637528419495,2,versionA_stim.csv,READVersionB.csv,"Read Version B","Dissertation, read only version B",RAZOR,SHAVE,Study2,S,136,97,Test,User,-,,Recall,Recall1,5058,sharp,60,1154,3039,0,0,,1
w10108633_kcc,ajej7y8fww,Nick_Dissertation_EX1_EP,1,122,2021-11-30T22:57:43+00:00,3.5628371238708,2,versionA_stim.csv,READVersionB.csv,"Read Version B","Dissertation, read only version B",POP,BALLOON,Study2,B,123,119,Test,User,-,,Recall,Recall1,3255,tart,18.181818181818,1244,1745,0,0,,1
w10108633_kcc,ajej7y8fww,Nick_Dissertation_EX1_EP,1,123,2021-11-30T22:57:54+00:00,10.56556892395,2,versionA_stim.csv,READVersionB.csv,"Read Version B","Dissertation, read only version B",TURN,FLIP,Study2,B,116,136,Test,User,-,,Recall,Recall1,10267,flip,100,5600,8949,1,1,,1
w10108633_kcc,ajej7y8fww,Nick_Dissertation_EX1_EP,1,124,2021-11-30T22:57:58+00:00,4.4951429367065,2,versionA_stim.csv,READVersionB.csv,"Read Version B","Dissertation, read only version B",FRUIT,STRAWBERRY,Study2,B,124,161,Test,User,-,,Recall,Recall1,4205,strawberry,100,1056,2991,1,1,,1
w10108633_kcc,ajej7y8fww,Nick_Dissertation_EX1_EP,1,125,2021-11-30T22:58:03+00:00,4.9467060565948,2,versionA_stim.csv,READVersionB.csv,"Read Version B","Dissertation, read only version B",STAR,ACTRESS,Study2,B,120,121,Test,User,-,,Recall,Recall1,4618,night,16.666666666667,3148,3501,0,0,,1
w10108633_kcc,ajej7y8fww,Nick_Dissertation_EX1_EP,1,126,2021-11-30T22:58:09+00:00,5.9719460010529,2,versionA_stim.csv,READVersionB.csv,"Read Version B","Dissertation, read only version B",DETECTIVE,MYSTERY,Study2,F,100,175,Test,User,-,,Recall,Recall1,5663,mystery,100,1812,3099,1,1,,1
w10108633_kcc,ajej7y8fww,Nick_Dissertation_EX1_EP,1,127,2021-11-30T22:58:14+00:00,4.6919400691986,2,versionA_stim.csv,READVersionB.csv,"Read Version B","Dissertation, read only version B",MULE,DONKEY,Study2,F,108,145,Test,User,-,,Recall,Recall1,4341,donkey,100,2124,2998,1,1,,1
w10108633_kcc,ajej7y8fww,Nick_Dissertation_EX1_EP,1,128,2021-11-30T22:58:18+00:00,4.0438919067383,2,versionA_stim.csv,READVersionB.csv,"Read Version B","Dissertation, read only version B",OWN,HAVE,Study2,S,153,169,Test,User,-,,Recall,Recall1,3740,have,100,1687,2028,1,1,,1
w10108633_kcc,ajej7y8fww,Nick_Dissertation_EX1_EP,1,129,2021-11-30T22:58:28+00:00,9.8593020439148,2,versionA_stim.csv,READVersionB.csv,"Read Version B","Dissertation, read only version B",EXTENSION,LONG,Study2,F,96,102,Test,User,-,,Recall,Recall1,9548,deadline,33.333333333333,6980,7966,0,0,,1
w10108633_kcc,ajej7y8fww,Nick_Dissertation_EX1_EP,1,130,2021-11-30T22:58:34+00:00,6.198744058609,2,versionA_stim.csv,READVersionB.csv,"Read Version B","Dissertation, read only version B",LOAN,SIGN,Study2,U,171,143,Test,User,-,,Recall,Recall1,5891,bank,25,4322,4641,0,0,,1
w10108633_kcc,ajej7y8fww,Nick_Dissertation_EX1_EP,1,131,2021-11-30T22:58:39+00:00,5.3849279880524,2,versionA_stim.csv,READVersionB.csv,"Read Version B","Dissertation, read only version B",PLANE,AIRCRAFT,Study2,B,129,154,Test,User,-,,Recall,Recall1,5092,aircraft,100,1178,3247,1,1,,1
w10108633_kcc,ajej7y8fww,Nick_Dissertation_EX1_EP,1,132,2021-11-30T22:58:43+00:00,3.8963270187378,2,versionA_stim.csv,READVersionB.csv,"Read Version B","Dissertation, read only version B",DOCUMENT,PAPER,Study2,F,109,126,Test,User,-,,Recall,Recall1,3587,paper,100,1361,1750,1,1,,1
w10108633_kcc,ajej7y8fww,Nick_Dissertation_EX1_EP,1,133,2021-11-30T22:58:49+00:00,6.2881710529327,2,versionA_stim.csv,READVersionB.csv,"Read Version B","Dissertation, read only version B",PHONE,COMMUNICATION,Study2,S,149,151,Test,User,-,,Recall,Recall1,5974,ring,23.529411764706,3883,4370,0,0,,1
w10108633_kcc,ajej7y8fww,Nick_Dissertation_EX1_EP,1,134,2021-11-30T22:58:56+00:00,6.8906438350677,2,versionA_stim.csv,READVersionB.csv,"Read Version B","Dissertation, read only version B",FIGHT,BRAWL,Study2,B,135,120,Test,User,-,,Recall,Recall1,6607,violent,16.666666666667,2634,4865,0,0,,1
w10108633_kcc,ajej7y8fww,Nick_Dissertation_EX1_EP,1,135,2021-11-30T22:59:01+00:00,4.5952031612396,2,versionA_stim.csv,READVersionB.csv,"Read Version B","Dissertation, read only version B",SUN,TAN,Study2,S,155,137,Test,User,-,,Recall,Recall1,4277,tan,100,2685,2939,1,1,,1
w10108633_kcc,ajej7y8fww,Nick_Dissertation_EX1_EP,1,136,2021-11-30T22:59:04+00:00,3.4388499259949,2,versionA_stim.csv,READVersionB.csv,"Read Version B","Dissertation, read only version B",CHILL,COLD,Study2,F,114,101,Test,User,-,,Recall,Recall1,3142,cold,100,1128,1412,1,1,,1
w10108633_kcc,ajej7y8fww,Nick_Dissertation_EX1_EP,1,137,2021-11-30T22:59:09+00:00,4.9133310317993,2,versionA_stim.csv,READVersionB.csv,"Read Version B","Dissertation, read only version B",SAFETY,SEATBELT,Study2,S,147,166,Test,User,-,,Recall,Recall1,4600,seatbelt,100,1887,3313,1,1,,1
w10108633_kcc,ajej7y8fww,Nick_Dissertation_EX1_EP,1,138,2021-11-30T22:59:12+00:00,2.9009900093079,2,versionA_stim.csv,READVersionB.csv,"Read Version B","Dissertation, read only version B",MASON,JAR,Study2,S,138,131,Test,User,-,,Recall,Recall1,2571,jar,100,966,1195,1,1,,1
w10108633_kcc,ajej7y8fww,Nick_Dissertation_EX1_EP,1,139,2021-11-30T22:59:16+00:00,3.433070898056,2,versionA_stim.csv,READVersionB.csv,"Read Version B","Dissertation, read only version B",RIGHTS,EQUAL,Study2,S,137,117,Test,User,-,,Recall,Recall1,3137,equal,100,891,1944,1,1,,1
w10108633_kcc,ajej7y8fww,Nick_Dissertation_EX1_EP,1,140,2021-11-30T22:59:19+00:00,3.676666021347,2,versionA_stim.csv,READVersionB.csv,"Read Version B","Dissertation, read only version B",TRUTH,LIE,Study2,S,148,144,Test,User,-,,Recall,Recall1,3365,Dare,28.571428571429,1214,2141,0,0,,1
w10108633_kcc,ajej7y8fww,Nick_Dissertation_EX1_EP,1,141,2021-11-30T22:59:24+00:00,4.3155570030212,2,versionA_stim.csv,READVersionB.csv,"Read Version B","Dissertation, read only version B",DINE,EAT,Study2,F,111,127,Test,User,-,,Recall,Recall1,4016,Eat,100,1926,2416,1,1,,1
w10108633_kcc,ajej7y8fww,Nick_Dissertation_EX1_EP,1,142,2021-11-30T22:59:28+00:00,4.5196211338043,2,versionA_stim.csv,READVersionB.csv,"Read Version B","Dissertation, read only version B",MIRROR,CHILDREN,Study2,U,174,103,Test,User,-,,Recall,Recall1,4238,Children,100,1907,3076,1,1,,1
w10108633_kcc,ajej7y8fww,Nick_Dissertation_EX1_EP,1,143,2021-11-30T22:59:32+00:00,3.4379568099976,2,versionA_stim.csv,READVersionB.csv,"Read Version B","Dissertation, read only version B",STRETCH,CLOTH,Study2,U,157,118,Test,User,-,,Recall,Recall1,3129,cloth,100,1161,1720,1,1,,1
w10108633_kcc,ajej7y8fww,Nick_Dissertation_EX1_EP,1,144,2021-11-30T22:59:36+00:00,4.4356660842896,2,versionA_stim.csv,READVersionB.csv,"Read Version B","Dissertation, read only version B",LITTER,TRASH,Study2,F,103,176,Test,User,-,,Recall,Recall1,4143,Kitty,20,1632,2207,0,0,,1
w10108633_kcc,ajej7y8fww,Nick_Dissertation_EX1_EP,1,145,2021-11-30T22:59:39+00:00,3.0976529121399,2,versionA_stim.csv,READVersionB.csv,"Read Version B","Dissertation, read only version B",BASEBALL,LEAGUE,Study2,B,131,171,Test,User,-,,Recall,Recall1,2799,league,100,954,1651,1,1,,1
w10108633_kcc,ajej7y8fww,Nick_Dissertation_EX1_EP,1,146,2021-11-30T22:59:43+00:00,3.8512082099915,2,versionA_stim.csv,READVersionB.csv,"Read Version B","Dissertation, read only version B",CRACKLE,ABLE,Study2,U,162,141,Test,User,-,,Recall,Recall1,3560,pop,0,1570,1944,0,0,,1
w10108633_kcc,ajej7y8fww,Nick_Dissertation_EX1_EP,1,147,2021-11-30T22:59:50+00:00,7.1303389072418,2,versionA_stim.csv,READVersionB.csv,"Read Version B","Dissertation, read only version B",LEASE,TOIL,Study2,U,170,164,Test,User,-,,Recall,Recall1,6491,toil,100,3292,4973,1,1,,1
w10108633_kcc,ajej7y8fww,Nick_Dissertation_EX1_EP,1,148,2021-11-30T22:59:57+00:00,6.7934050559998,2,versionA_stim.csv,READVersionB.csv,"Read Version B","Dissertation, read only version B",NAME,HATE,Study2,U,167,156,Test,User,-,,Recall,Recall1,6492,Adress,40,3900,5298,0,0,,1
w10108633_kcc,ajej7y8fww,Nick_Dissertation_EX1_EP,1,149,2021-11-30T23:00:02+00:00,4.6503028869629,2,versionA_stim.csv,READVersionB.csv,"Read Version B","Dissertation, read only version B",ELEMENT,CARBON,Study2,S,141,148,Test,User,-,,Recall,Recall1,4323,surprise,14.285714285714,1435,2668,0,0,,1
w10108633_kcc,ajej7y8fww,Nick_Dissertation_EX1_EP,1,150,2021-11-30T23:00:06+00:00,4.2586929798126,2,versionA_stim.csv,READVersionB.csv,"Read Version B","Dissertation, read only version B",BAD,VILLAIN,Study2,B,118,139,Test,User,-,,Recall,Recall1,3927,Good,0,2062,2452,0,0,,1
w10108633_kcc,ajej7y8fww,Nick_Dissertation_EX1_EP,1,151,2021-11-30T23:00:09+00:00,3.2263910770416,2,versionA_stim.csv,READVersionB.csv,"Read Version B","Dissertation, read only version B",MOAT,CLEAR,Study2,U,169,153,Test,User,-,,Recall,Recall1,2925,clear,100,1007,1449,1,1,,1
w10108633_kcc,ajej7y8fww,Nick_Dissertation_EX1_EP,1,152,2021-11-30T23:00:28+00:00,18.550889015198,2,versionA_stim.csv,READVersionB.csv,"Read Version B","Dissertation, read only version B",JUSTICE,MAROON,Study2,U,156,125,Test,User,-,,Recall,Recall1,18243,league,16.666666666667,13055,16794,0,0,,1
w10108633_kcc,ajej7y8fww,Nick_Dissertation_EX1_EP,1,153,2021-11-30T23:00:34+00:00,6.2457559108734,2,versionA_stim.csv,READVersionB.csv,"Read Version B","Dissertation, read only version B",MEAT,OBTAIN,Study2,U,161,172,Test,User,-,,Recall,Recall1,5929,obtain,100,3932,4732,1,1,,1
w10108633_kcc,ajej7y8fww,Nick_Dissertation_EX1_EP,1,154,2021-11-30T23:00:38+00:00,4.4547009468079,2,versionA_stim.csv,READVersionB.csv,"Read Version B","Dissertation, read only version B",INCENSE,SMELL,Study2,F,110,174,Test,User,-,,Recall,Recall1,4162,candle,18.181818181818,1424,2811,0,0,,1
w10108633_kcc,ajej7y8fww,Nick_Dissertation_EX1_EP,1,155,2021-11-30T23:00:42+00:00,3.8599460124969,2,versionA_stim.csv,READVersionB.csv,"Read Version B","Dissertation, read only version B",HONEST,TRUTHFUL,Study2,B,133,104,Test,User,-,,Recall,Recall1,3492,lie,18.181818181818,1789,2069,0,0,,1
w10108633_kcc,ajej7y8fww,Nick_Dissertation_EX1_EP,1,156,2021-11-30T23:00:49+00:00,6.458419084549,2,versionA_stim.csv,READVersionB.csv,"Read Version B","Dissertation, read only version B",TANTRUM,TEMPER,Study2,S,154,155,Test,User,-,,Recall,Recall1,6154,Baby,0,3706,4873,0,0,,1
w10108633_kcc,ajej7y8fww,Nick_Dissertation_EX1_EP,1,157,2021-11-30T23:00:54+00:00,5.2934551239014,2,versionA_stim.csv,READVersionB.csv,"Read Version B","Dissertation, read only version B",LISTEN,FICTION,Study2,U,164,147,Test,User,-,,Recall,Recall1,5000,ignore,30.769230769231,2120,3659,0,0,,1
w10108633_kcc,ajej7y8fww,Nick_Dissertation_EX1_EP,1,158,2021-11-30T23:00:57+00:00,3.2776229381561,2,versionA_stim.csv,READVersionB.csv,"Read Version B","Dissertation, read only version B",EVEN,REVENGE,Study2,B,122,157,Test,User,-,,Recall,Recall1,2979,odd,0,1120,1451,0,0,,1
w10108633_kcc,ajej7y8fww,Nick_Dissertation_EX1_EP,1,159,2021-11-30T23:01:01+00:00,3.8266909122467,2,versionA_stim.csv,READVersionB.csv,"Read Version B","Dissertation, read only version B",AFFECTION,LOVE,Study2,F,115,134,Test,User,-,,Recall,Recall1,3521,love,100,1345,2135,1,1,,1
w10108633_kcc,ajej7y8fww,Nick_Dissertation_EX1_EP,1,160,2021-11-30T23:01:09+00:00,7.9296450614929,2,versionA_stim.csv,READVersionB.csv,"Read Version B","Dissertation, read only version B",EARTH,GROUND,Study2,S,144,159,Test,User,-,,Recall,Recall1,7617,science,15.384615384615,5163,6188,0,0,,1
w10108633_kcc,ajej7y8fww,Nick_Dissertation_EX1_EP,1,161,2021-11-30T23:01:12+00:00,3.1163408756256,2,versionA_stim.csv,READVersionB.csv,"Read Version B","Dissertation, read only version B",WRIST,BRACELET,Study2,S,140,170,Test,User,-,,Recall,Recall1,2782,hand,16.666666666667,1258,1675,0,0,,1
w10108633_kcc,ajej7y8fww,Nick_Dissertation_EX1_EP,1,162,2021-11-30T23:01:15+00:00,3.095724105835,2,versionA_stim.csv,READVersionB.csv,"Read Version B","Dissertation, read only version B",SCALP,HEAD,Study2,F,105,106,Test,User,-,,Recall,Recall1,2781,hair,50,1296,1579,0,0,,1
w10108633_kcc,ajej7y8fww,Nick_Dissertation_EX1_EP,1,163,2021-11-30T23:01:19+00:00,4.0427439212799,2,versionA_stim.csv,READVersionB.csv,"Read Version B","Dissertation, read only version B",FURRY,DOG,Study2,F,102,167,Test,User,-,,Recall,Recall1,3738,Dog,100,1292,2358,1,1,,1
w10108633_kcc,ajej7y8fww,Nick_Dissertation_EX1_EP,1,164,2021-11-30T23:01:37+00:00,17.611255168915,2,versionA_stim.csv,READVersionB.csv,"Read Version B","Dissertation, read only version B",CHOP,CUT,Study2,F,107,99,Test,User,-,,Recall,Recall1,17273,"vegtables ",16.666666666667,3927,9791,0,0,,1
w10108633_kcc,ajej7y8fww,Nick_Dissertation_EX1_EP,1,165,2021-11-30T23:01:42+00:00,4.9685599803925,2,versionA_stim.csv,READVersionB.csv,"Read Version B","Dissertation, read only version B",GIVE,STEAK,Study2,U,158,100,Test,User,-,,Recall,Recall1,4653,get,25,2939,3217,0,0,,1
w10108633_kcc,ajej7y8fww,Nick_Dissertation_EX1_EP,1,166,2021-11-30T23:01:48+00:00,6.3968830108643,2,versionA_stim.csv,READVersionB.csv,"Read Version B","Dissertation, read only version B",CANDLE,WAX,Study2,S,139,108,Test,User,-,,Recall,Recall1,6097,Scent,0,2931,3780,0,0,,1
w10108633_kcc,ajej7y8fww,Nick_Dissertation_EX1_EP,1,167,2021-11-30T23:01:55+00:00,6.4463868141174,2,versionA_stim.csv,READVersionB.csv,"Read Version B","Dissertation, read only version B",FUZZY,BANG,Study2,U,168,165,Test,User,-,,Recall,Recall1,6060,,0,-1,-1,0,0,,1
w10108633_kcc,ajej7y8fww,Nick_Dissertation_EX1_EP,1,168,2021-11-30T23:01:59+00:00,3.9249980449677,2,versionA_stim.csv,READVersionB.csv,"Read Version B","Dissertation, read only version B",FEUD,FIGHT,Study2,F,113,107,Test,User,-,,Recall,Recall1,3631,fight,100,1911,2376,1,1,,1
w10108633_kcc,ajej7y8fww,Nick_Dissertation_EX1_EP,1,169,2021-11-30T23:02:03+00:00,4.3242020606995,2,versionA_stim.csv,READVersionB.csv,"Read Version B","Dissertation, read only version B",Shell,SHAKE,Study2,U,163,115,Test,User,-,,Recall,Recall1,3948,shake,100,2270,2824,1,1,,1
w10108633_kcc,ajej7y8fww,Nick_Dissertation_EX1_EP,1,170,2021-11-30T23:02:08+00:00,4.6695780754089,2,versionA_stim.csv,READVersionB.csv,"Read Version B","Dissertation, read only version B",SHOELACE,TIE,Study2,F,99,142,Test,User,-,,Recall,Recall1,4374,tie,100,1663,3162,1,1,,1
w10108633_kcc,ajej7y8fww,Nick_Dissertation_EX1_EP,1,171,2021-11-30T23:02:10+00:00,2.903217792511,2,versionA_stim.csv,READVersionB.csv,"Read Version B","Dissertation, read only version B",CAR,WINDSHIELD,Study2,B,117,168,Test,User,-,,Recall,Recall1,2607,wash,42.857142857143,1052,1418,0,0,,1
w10108633_kcc,ajej7y8fww,Nick_Dissertation_EX1_EP,1,172,2021-11-30T23:02:15+00:00,4.8411331176758,2,versionA_stim.csv,READVersionB.csv,"Read Version B","Dissertation, read only version B",SHEARS,SCISSORS,Study2,F,112,123,Test,User,-,,Recall,Recall1,4557,scissors,100,1686,3203,1,1,,1
w10108633_kcc,ajej7y8fww,Nick_Dissertation_EX1_EP,1,173,2021-11-30T23:02:23+00:00,7.2752740383148,2,versionA_stim.csv,READVersionB.csv,"Read Version B","Dissertation, read only version B",GONE,AWAY,Study2,S,142,98,Test,User,-,,Recall,Recall1,6936,away,100,5125,5587,1,1,,1
w10108633_kcc,ajej7y8fww,Nick_Dissertation_EX1_EP,1,174,2021-11-30T23:02:25+00:00,2.7079770565033,2,versionA_stim.csv,READVersionB.csv,"Read Version B","Dissertation, read only version B",CHERRY,RED,Study2,F,104,149,Test,User,-,,Recall,Recall1,2376,red,100,1504,1803,1,1,,1
w10108633_kcc,ajej7y8fww,Nick_Dissertation_EX1_EP,1,175,2021-11-30T23:02:27+00:00,1.9737279415131,2,versionA_stim.csv,READVersionB.csv,"Read Version B","Dissertation, read only version B",CACTUS,PLANT,Study2,F,98,112,Test,User,-,,Recall,Recall1,1672,plant,100,1043,1551,1,1,,1
w10108633_kcc,ajej7y8fww,Nick_Dissertation_EX1_EP,1,176,2021-11-30T23:02:30+00:00,2.5887370109558,2,versionA_stim.csv,READVersionB.csv,"Read Version B","Dissertation, read only version B",TEMPERATURE,Morning,Study2,U,173,135,Test,User,-,,Recall,Recall1,2280,hot,20,1988,2128,0,0,,1
w10108633_kcc,ajej7y8fww,Nick_Dissertation_EX1_EP,1,177,2021-11-30T23:02:41+00:00,10.999317884445,2,versionA_stim.csv,READVersionB.csv,"Read Version B","Dissertation, read only version B",,,,,,0,Instruct,-,10,"You will now be presented with a new set of word pairs. Please study each pair. Remember that your memory will be tested! When finished, press Enter to move to the next pair.",Initial_Instruct,Instruct4,10709,,,-1,-1,,,,1
w10108633_kcc,ajej7y8fww,Nick_Dissertation_EX1_EP,1,178,2021-11-30T23:02:44+00:00,3.4402050971985,2,versionA_stim.csv,READVersionB.csv,"Read Version B","Dissertation, read only version B",,,,,,0,Instruct,User,-,"Each word will be displayed on the computer screen for 8 seconds. The screen will automatically move to the next pair when time is up. Press Enter when you are ready to begin.",,Instruct11,3158,,,-1,-1,,,,1
w10108633_kcc,ajej7y8fww,Nick_Dissertation_EX1_EP,1,179,2021-11-30T23:02:53+00:00,8.3561110496521,2,versionA_stim.csv,READVersionB.csv,"Read Version B","Dissertation, read only version B",TREES,GREEN,BUFFER1,Buffer,1,4,Study,8,8,,Study/JOL,BUFFER3,8007,,,-1,-1,,,,1
w10108633_kcc,ajej7y8fww,Nick_Dissertation_EX1_EP,1,180,2021-11-30T23:03:01+00:00,8.2993319034576,2,versionA_stim.csv,READVersionB.csv,"Read Version B","Dissertation, read only version B",SPACE,JAM,BUFFER1,Buffer,5,5,Study,8,8,,Study/JOL,BUFFER3,8006,,,-1,-1,,,,1
w10108633_kcc,ajej7y8fww,Nick_Dissertation_EX1_EP,1,181,2021-11-30T23:03:09+00:00,8.3217709064484,2,versionA_stim.csv,READVersionB.csv,"Read Version B","Dissertation, read only version B",SCARE,HIDE,BUFFER1,Buffer,4,2,Study,8,8,,Study/JOL,BUFFER3,8005,,,-1,-1,,,,1
w10108633_kcc,ajej7y8fww,Nick_Dissertation_EX1_EP,1,182,2021-11-30T23:03:18+00:00,8.295392036438,2,versionA_stim.csv,READVersionB.csv,"Read Version B","Dissertation, read only version B",BASEBALL,CATCHER,BUFFER1,Buffer,2,6,Study,8,8,,Study/JOL,BUFFER3,8004,,,-1,-1,,,,1
w10108633_kcc,ajej7y8fww,Nick_Dissertation_EX1_EP,1,183,2021-11-30T23:03:26+00:00,8.2988030910492,2,versionA_stim.csv,READVersionB.csv,"Read Version B","Dissertation, read only version B",PEANUT,BUTTER,BUFFER1,Buffer,3,3,Study,8,8,,Study/JOL,BUFFER3,8005,,,-1,-1,,,,1
w10108633_kcc,ajej7y8fww,Nick_Dissertation_EX1_EP,1,184,2021-11-30T23:03:34+00:00,8.3518970012665,2,versionA_stim.csv,READVersionB.csv,"Read Version B","Dissertation, read only version B",CLOTHES,ATTIRE,Study1,B,43,52,Study,8,8,,Study/JOL,"Study Phase2",8005,,,-1,-1,,,,1
w10108633_kcc,ajej7y8fww,Nick_Dissertation_EX1_EP,1,185,2021-11-30T23:03:43+00:00,8.3184099197388,2,versionA_stim.csv,READVersionB.csv,"Read Version B","Dissertation, read only version B",PLANE,PILOT,Study1,B,44,21,Study,8,8,,Study/JOL,"Study Phase2",8003,,,-1,-1,,,,1
w10108633_kcc,ajej7y8fww,Nick_Dissertation_EX1_EP,1,186,2021-11-30T23:03:51+00:00,8.3522429466248,2,versionA_stim.csv,READVersionB.csv,"Read Version B","Dissertation, read only version B",CASH,WOULD,Study1,U,83,20,Study,8,8,,Study/JOL,"Study Phase2",8007,,,-1,-1,,,,1
w10108633_kcc,ajej7y8fww,Nick_Dissertation_EX1_EP,1,187,2021-11-30T23:03:59+00:00,8.3091821670532,2,versionA_stim.csv,READVersionB.csv,"Read Version B","Dissertation, read only version B",ROOT,PLANT,Study1,F,13,8,Study,8,8,,Study/JOL,"Study Phase2",8004,,,-1,-1,,,,1
w10108633_kcc,ajej7y8fww,Nick_Dissertation_EX1_EP,1,188,2021-11-30T23:04:07+00:00,8.3167679309845,2,versionA_stim.csv,READVersionB.csv,"Read Version B","Dissertation, read only version B",LAW,ATTORNEY,Study1,B,34,78,Study,8,8,,Study/JOL,"Study Phase2",8003,,,-1,-1,,,,1
w10108633_kcc,ajej7y8fww,Nick_Dissertation_EX1_EP,1,189,2021-11-30T23:04:16+00:00,8.3048899173737,2,versionA_stim.csv,READVersionB.csv,"Read Version B","Dissertation, read only version B",NUMBER,AMOUNT,Study1,S,47,41,Study,8,8,,Study/JOL,"Study Phase2",8003,,,-1,-1,,,,1
w10108633_kcc,ajej7y8fww,Nick_Dissertation_EX1_EP,1,190,2021-11-30T23:04:24+00:00,8.2968511581421,2,versionA_stim.csv,READVersionB.csv,"Read Version B","Dissertation, read only version B",DUE,ASSIGNMENT,Study1,S,46,37,Study,8,8,,Study/JOL,"Study Phase2",8003,,,-1,-1,,,,1
w10108633_kcc,ajej7y8fww,Nick_Dissertation_EX1_EP,1,191,2021-11-30T23:04:32+00:00,8.3108198642731,2,versionA_stim.csv,READVersionB.csv,"Read Version B","Dissertation, read only version B",ORCHID,FLOWER,Study1,F,24,30,Study,8,8,,Study/JOL,"Study Phase2",8003,,,-1,-1,,,,1
w10108633_kcc,ajej7y8fww,Nick_Dissertation_EX1_EP,1,192,2021-11-30T23:04:41+00:00,8.3069109916687,2,versionA_stim.csv,READVersionB.csv,"Read Version B","Dissertation, read only version B",PAST,FUTURE,Study1,S,61,67,Study,8,8,,Study/JOL,"Study Phase2",8006,,,-1,-1,,,,1
w10108633_kcc,ajej7y8fww,Nick_Dissertation_EX1_EP,1,193,2021-11-30T23:04:49+00:00,8.3304381370544,2,versionA_stim.csv,READVersionB.csv,"Read Version B","Dissertation, read only version B",BRIDGE,WATER,Study1,F,18,50,Study,8,8,,Study/JOL,"Study Phase2",8003,,,-1,-1,,,,1
w10108633_kcc,ajej7y8fww,Nick_Dissertation_EX1_EP,1,194,2021-11-30T23:04:58+00:00,8.7212128639221,2,versionA_stim.csv,READVersionB.csv,"Read Version B","Dissertation, read only version B",DISCUSSION,TALK,Study1,F,21,66,Study,8,8,,Study/JOL,"Study Phase2",8006,,,-1,-1,,,,1
w10108633_kcc,ajej7y8fww,Nick_Dissertation_EX1_EP,1,195,2021-11-30T23:05:06+00:00,8.3100180625916,2,versionA_stim.csv,READVersionB.csv,"Read Version B","Dissertation, read only version B",DUMP,WASTE,Study1,S,49,59,Study,8,8,,Study/JOL,"Study Phase2",8007,,,-1,-1,,,,1
w10108633_kcc,ajej7y8fww,Nick_Dissertation_EX1_EP,1,196,2021-11-30T23:05:14+00:00,8.3155500888824,2,versionA_stim.csv,READVersionB.csv,"Read Version B","Dissertation, read only version B",DARK,CAVE,Study1,B,28,74,Study,8,8,,Study/JOL,"Study Phase2",8008,,,-1,-1,,,,1
w10108633_kcc,ajej7y8fww,Nick_Dissertation_EX1_EP,1,197,2021-11-30T23:05:23+00:00,8.3114860057831,2,versionA_stim.csv,READVersionB.csv,"Read Version B","Dissertation, read only version B",BITTER,COLD,Study1,F,12,72,Study,8,8,,Study/JOL,"Study Phase2",8004,,,-1,-1,,,,1
w10108633_kcc,ajej7y8fww,Nick_Dissertation_EX1_EP,1,198,2021-11-30T23:05:31+00:00,8.3156950473785,2,versionA_stim.csv,READVersionB.csv,"Read Version B","Dissertation, read only version B",TUNA,FISH,Study1,F,25,24,Study,8,8,,Study/JOL,"Study Phase2",8003,,,-1,-1,,,,1
w10108633_kcc,ajej7y8fww,Nick_Dissertation_EX1_EP,1,199,2021-11-30T23:05:39+00:00,8.3380889892578,2,versionA_stim.csv,READVersionB.csv,"Read Version B","Dissertation, read only version B",BLOW,WIND,Study1,S,55,75,Study,8,8,,Study/JOL,"Study Phase2",8009,,,-1,-1,,,,1
w10108633_kcc,ajej7y8fww,Nick_Dissertation_EX1_EP,1,200,2021-11-30T23:05:48+00:00,8.310754776001,2,versionA_stim.csv,READVersionB.csv,"Read Version B","Dissertation, read only version B",FULL,ENOUGH,Study1,B,26,29,Study,8,8,,Study/JOL,"Study Phase2",8005,,,-1,-1,,,,1
w10108633_kcc,ajej7y8fww,Nick_Dissertation_EX1_EP,1,201,2021-11-30T23:05:56+00:00,8.31316614151,2,versionA_stim.csv,READVersionB.csv,"Read Version B","Dissertation, read only version B",HORNET,STING,Study1,F,11,80,Study,8,8,,Study/JOL,"Study Phase2",8006,,,-1,-1,,,,1
w10108633_kcc,ajej7y8fww,Nick_Dissertation_EX1_EP,1,202,2021-11-30T23:06:04+00:00,8.3147149085999,2,versionA_stim.csv,READVersionB.csv,"Read Version B","Dissertation, read only version B",MACHINE,POSITION,Study1,U,76,31,Study,8,8,,Study/JOL,"Study Phase2",8003,,,-1,-1,,,,1
w10108633_kcc,ajej7y8fww,Nick_Dissertation_EX1_EP,1,203,2021-11-30T23:06:13+00:00,8.3064789772034,2,versionA_stim.csv,READVersionB.csv,"Read Version B","Dissertation, read only version B",DRINK,SIP,Study1,B,27,46,Study,8,8,,Study/JOL,"Study Phase2",8003,,,-1,-1,,,,1
w10108633_kcc,ajej7y8fww,Nick_Dissertation_EX1_EP,1,204,2021-11-30T23:06:21+00:00,8.3342881202698,2,versionA_stim.csv,READVersionB.csv,"Read Version B","Dissertation, read only version B",ALLOW,TUCK,Study1,U,78,11,Study,8,8,,Study/JOL,"Study Phase2",8008,,,-1,-1,,,,1
w10108633_kcc,ajej7y8fww,Nick_Dissertation_EX1_EP,1,205,2021-11-30T23:06:29+00:00,8.3033220767975,2,versionA_stim.csv,READVersionB.csv,"Read Version B","Dissertation, read only version B",KIDNEY,LIVER,Study1,S,53,49,Study,8,8,,Study/JOL,"Study Phase2",8003,,,-1,-1,,,,1
w10108633_kcc,ajej7y8fww,Nick_Dissertation_EX1_EP,1,206,2021-11-30T23:06:38+00:00,8.3089997768402,2,versionA_stim.csv,READVersionB.csv,"Read Version B","Dissertation, read only version B",FIRE,BLAZE,Study1,B,45,48,Study,8,8,,Study/JOL,"Study Phase2",8007,,,-1,-1,,,,1
w10108633_kcc,ajej7y8fww,Nick_Dissertation_EX1_EP,1,207,2021-11-30T23:06:46+00:00,8.3058571815491,2,versionA_stim.csv,READVersionB.csv,"Read Version B","Dissertation, read only version B",VALLEY,ADD,Study1,U,82,18,Study,8,8,,Study/JOL,"Study Phase2",8004,,,-1,-1,,,,1
w10108633_kcc,ajej7y8fww,Nick_Dissertation_EX1_EP,1,208,2021-11-30T23:06:54+00:00,8.3212549686432,2,versionA_stim.csv,READVersionB.csv,"Read Version B","Dissertation, read only version B",ART,LION,Study1,U,79,34,Study,8,8,,Study/JOL,"Study Phase2",8004,,,-1,-1,,,,1
w10108633_kcc,ajej7y8fww,Nick_Dissertation_EX1_EP,1,209,2021-11-30T23:07:02+00:00,8.3136510848999,2,versionA_stim.csv,READVersionB.csv,"Read Version B","Dissertation, read only version B",SHOE,FOOT,Study1,S,60,84,Study,8,8,,Study/JOL,"Study Phase2",8014,,,-1,-1,,,,1
w10108633_kcc,ajej7y8fww,Nick_Dissertation_EX1_EP,1,210,2021-11-30T23:07:11+00:00,8.3055589199066,2,versionA_stim.csv,READVersionB.csv,"Read Version B","Dissertation, read only version B",GRILL,BAR,Study1,S,52,19,Study,8,8,,Study/JOL,"Study Phase2",8004,,,-1,-1,,,,1
w10108633_kcc,ajej7y8fww,Nick_Dissertation_EX1_EP,1,211,2021-11-30T23:07:19+00:00,8.3011798858643,2,versionA_stim.csv,READVersionB.csv,"Read Version B","Dissertation, read only version B",CHISEL,HAMMER,Study1,F,9,79,Study,8,8,,Study/JOL,"Study Phase2",8007,,,-1,-1,,,,1
w10108633_kcc,ajej7y8fww,Nick_Dissertation_EX1_EP,1,212,2021-11-30T23:07:27+00:00,8.3034980297089,2,versionA_stim.csv,READVersionB.csv,"Read Version B","Dissertation, read only version B",HUNGER,FAMINE,Study1,B,40,81,Study,8,8,,Study/JOL,"Study Phase2",8003,,,-1,-1,,,,1
w10108633_kcc,ajej7y8fww,Nick_Dissertation_EX1_EP,1,213,2021-11-30T23:07:36+00:00,8.3482789993286,2,versionA_stim.csv,READVersionB.csv,"Read Version B","Dissertation, read only version B",DIGESTION,STOMACH,Study1,F,7,57,Study,8,8,,Study/JOL,"Study Phase2",8009,,,-1,-1,,,,1
w10108633_kcc,ajej7y8fww,Nick_Dissertation_EX1_EP,1,214,2021-11-30T23:07:44+00:00,8.3225159645081,2,versionA_stim.csv,READVersionB.csv,"Read Version B","Dissertation, read only version B",WINE,CHEESE,Study1,S,57,63,Study,8,8,,Study/JOL,"Study Phase2",8003,,,-1,-1,,,,1
w10108633_kcc,ajej7y8fww,Nick_Dissertation_EX1_EP,1,215,2021-11-30T23:07:52+00:00,8.3122680187225,2,versionA_stim.csv,READVersionB.csv,"Read Version B","Dissertation, read only version B",HOT,CHILI,Study1,B,37,85,Study,8,8,,Study/JOL,"Study Phase2",8004,,,-1,-1,,,,1
w10108633_kcc,ajej7y8fww,Nick_Dissertation_EX1_EP,1,216,2021-11-30T23:08:01+00:00,8.3042521476746,2,versionA_stim.csv,READVersionB.csv,"Read Version B","Dissertation, read only version B",ARTERY,BRONZE,Study1,U,74,68,Study,8,8,,Study/JOL,"Study Phase2",8005,,,-1,-1,,,,1
w10108633_kcc,ajej7y8fww,Nick_Dissertation_EX1_EP,1,217,2021-11-30T23:08:09+00:00,8.3018839359283,2,versionA_stim.csv,READVersionB.csv,"Read Version B","Dissertation, read only version B",FIX,HAND,Study1,U,75,15,Study,8,8,,Study/JOL,"Study Phase2",8006,,,-1,-1,,,,1
w10108633_kcc,ajej7y8fww,Nick_Dissertation_EX1_EP,1,218,2021-11-30T23:08:17+00:00,8.3254098892212,2,versionA_stim.csv,READVersionB.csv,"Read Version B","Dissertation, read only version B",STRONG,ACCIDENT,Study1,U,80,43,Study,8,8,,Study/JOL,"Study Phase2",8003,,,-1,-1,,,,1
w10108633_kcc,ajej7y8fww,Nick_Dissertation_EX1_EP,1,219,2021-11-30T23:08:26+00:00,8.3170871734619,2,versionA_stim.csv,READVersionB.csv,"Read Version B","Dissertation, read only version B",SENTENCE,WORD,Study1,B,31,28,Study,8,8,,Study/JOL,"Study Phase2",8005,,,-1,-1,,,,1
w10108633_kcc,ajej7y8fww,Nick_Dissertation_EX1_EP,1,220,2021-11-30T23:08:34+00:00,8.2963268756866,2,versionA_stim.csv,READVersionB.csv,"Read Version B","Dissertation, read only version B",LOCATION,SITE,Study1,S,48,58,Study,8,8,,Study/JOL,"Study Phase2",8003,,,-1,-1,,,,1
w10108633_kcc,ajej7y8fww,Nick_Dissertation_EX1_EP,1,221,2021-11-30T23:08:42+00:00,8.3551421165466,2,versionA_stim.csv,READVersionB.csv,"Read Version B","Dissertation, read only version B",POP,SODA,Study1,S,56,25,Study,8,8,,Study/JOL,"Study Phase2",8003,,,-1,-1,,,,1
w10108633_kcc,ajej7y8fww,Nick_Dissertation_EX1_EP,1,222,2021-11-30T23:08:51+00:00,8.3024568557739,2,versionA_stim.csv,READVersionB.csv,"Read Version B","Dissertation, read only version B",KING,VASE,Study1,U,85,51,Study,8,8,,Study/JOL,"Study Phase2",8003,,,-1,-1,,,,1
w10108633_kcc,ajej7y8fww,Nick_Dissertation_EX1_EP,1,223,2021-11-30T23:08:59+00:00,8.3111560344696,2,versionA_stim.csv,READVersionB.csv,"Read Version B","Dissertation, read only version B",SMELL,STENCH,Study1,B,42,64,Study,8,8,,Study/JOL,"Study Phase2",8004,,,-1,-1,,,,1
w10108633_kcc,ajej7y8fww,Nick_Dissertation_EX1_EP,1,224,2021-11-30T23:09:07+00:00,8.3128440380096,2,versionA_stim.csv,READVersionB.csv,"Read Version B","Dissertation, read only version B",SUGAR,RIDDLE,Study1,U,81,42,Study,8,8,,Study/JOL,"Study Phase2",8005,,,-1,-1,,,,1
w10108633_kcc,ajej7y8fww,Nick_Dissertation_EX1_EP,1,225,2021-11-30T23:09:16+00:00,8.3097479343414,2,versionA_stim.csv,READVersionB.csv,"Read Version B","Dissertation, read only version B",TAKE,SEIZE,Study1,B,29,83,Study,8,8,,Study/JOL,"Study Phase2",8010,,,-1,-1,,,,1
w10108633_kcc,ajej7y8fww,Nick_Dissertation_EX1_EP,1,226,2021-11-30T23:09:24+00:00,8.3013279438019,2,versionA_stim.csv,READVersionB.csv,"Read Version B","Dissertation, read only version B",HEIGHT,GROWTH,Study1,B,30,9,Study,8,8,,Study/JOL,"Study Phase2",8006,,,-1,-1,,,,1
w10108633_kcc,ajej7y8fww,Nick_Dissertation_EX1_EP,1,227,2021-11-30T23:09:32+00:00,8.3166220188141,2,versionA_stim.csv,READVersionB.csv,"Read Version B","Dissertation, read only version B",WAGE,MONEY,Study1,F,8,82,Study,8,8,,Study/JOL,"Study Phase2",8006,,,-1,-1,,,,1
w10108633_kcc,ajej7y8fww,Nick_Dissertation_EX1_EP,1,228,2021-11-30T23:09:40+00:00,8.2903590202332,2,versionA_stim.csv,READVersionB.csv,"Read Version B","Dissertation, read only version B",ARCHITECTURE,DESIGN,Study1,S,51,14,Study,8,8,,Study/JOL,"Study Phase2",8004,,,-1,-1,,,,1
w10108633_kcc,ajej7y8fww,Nick_Dissertation_EX1_EP,1,229,2021-11-30T23:09:49+00:00,8.2882010936737,2,versionA_stim.csv,READVersionB.csv,"Read Version B","Dissertation, read only version B",SWAN,BIRD,Study1,F,14,44,Study,8,8,,Study/JOL,"Study Phase2",8008,,,-1,-1,,,,1
w10108633_kcc,ajej7y8fww,Nick_Dissertation_EX1_EP,1,230,2021-11-30T23:09:57+00:00,8.2878959178925,2,versionA_stim.csv,READVersionB.csv,"Read Version B","Dissertation, read only version B",DIETARY,SACKING,Study1,U,67,77,Study,8,8,,Study/JOL,"Study Phase2",8003,,,-1,-1,,,,1
w10108633_kcc,ajej7y8fww,Nick_Dissertation_EX1_EP,1,231,2021-11-30T23:10:05+00:00,8.2943971157074,2,versionA_stim.csv,READVersionB.csv,"Read Version B","Dissertation, read only version B",LETTUCE,SALAD,Study1,S,59,40,Study,8,8,,Study/JOL,"Study Phase2",8003,,,-1,-1,,,,1
w10108633_kcc,ajej7y8fww,Nick_Dissertation_EX1_EP,1,232,2021-11-30T23:10:14+00:00,8.3032639026642,2,versionA_stim.csv,READVersionB.csv,"Read Version B","Dissertation, read only version B",BATHROOM,TOILET,Study1,S,58,22,Study,8,8,,Study/JOL,"Study Phase2",8005,,,-1,-1,,,,1
w10108633_kcc,ajej7y8fww,Nick_Dissertation_EX1_EP,1,233,2021-11-30T23:10:22+00:00,8.2997419834137,2,versionA_stim.csv,READVersionB.csv,"Read Version B","Dissertation, read only version B",BABY,CHILD,Study1,S,64,60,Study,8,8,,Study/JOL,"Study Phase2",8004,,,-1,-1,,,,1
w10108633_kcc,ajej7y8fww,Nick_Dissertation_EX1_EP,1,234,2021-11-30T23:10:30+00:00,8.3135800361633,2,versionA_stim.csv,READVersionB.csv,"Read Version B","Dissertation, read only version B",BALL,RACKET,Study1,B,38,12,Study,8,8,,Study/JOL,"Study Phase2",8007,,,-1,-1,,,,1
w10108633_kcc,ajej7y8fww,Nick_Dissertation_EX1_EP,1,235,2021-11-30T23:10:39+00:00,8.2868659496307,2,versionA_stim.csv,READVersionB.csv,"Read Version B","Dissertation, read only version B",PARK,HUNGRY,Study1,U,68,47,Study,8,8,,Study/JOL,"Study Phase2",8003,,,-1,-1,,,,1
w10108633_kcc,ajej7y8fww,Nick_Dissertation_EX1_EP,1,236,2021-11-30T23:10:47+00:00,8.289635181427,2,versionA_stim.csv,READVersionB.csv,"Read Version B","Dissertation, read only version B",SLEEP,DROWSY,Study1,B,41,13,Study,8,8,,Study/JOL,"Study Phase2",8003,,,-1,-1,,,,1
w10108633_kcc,ajej7y8fww,Nick_Dissertation_EX1_EP,1,237,2021-11-30T23:10:55+00:00,8.2860338687897,2,versionA_stim.csv,READVersionB.csv,"Read Version B","Dissertation, read only version B",WAY,OUT,Study1,F,16,76,Study,8,8,,Study/JOL,"Study Phase2",8003,,,-1,-1,,,,1
w10108633_kcc,ajej7y8fww,Nick_Dissertation_EX1_EP,1,238,2021-11-30T23:11:03+00:00,8.2930071353912,2,versionA_stim.csv,READVersionB.csv,"Read Version B","Dissertation, read only version B",DELINQUENT,BAD,Study1,F,6,17,Study,8,8,,Study/JOL,"Study Phase2",8003,,,-1,-1,,,,1
w10108633_kcc,ajej7y8fww,Nick_Dissertation_EX1_EP,1,239,2021-11-30T23:11:12+00:00,8.2976858615875,2,versionA_stim.csv,READVersionB.csv,"Read Version B","Dissertation, read only version B",EDITOR,NEWS,Study1,F,10,27,Study,8,8,,Study/JOL,"Study Phase2",8004,,,-1,-1,,,,1
w10108633_kcc,ajej7y8fww,Nick_Dissertation_EX1_EP,1,240,2021-11-30T23:11:20+00:00,8.3027369976044,2,versionA_stim.csv,READVersionB.csv,"Read Version B","Dissertation, read only version B",MATH,DIVISION,Study1,B,33,38,Study,8,8,,Study/JOL,"Study Phase2",8006,,,-1,-1,,,,1
w10108633_kcc,ajej7y8fww,Nick_Dissertation_EX1_EP,1,241,2021-11-30T23:11:28+00:00,8.2898390293121,2,versionA_stim.csv,READVersionB.csv,"Read Version B","Dissertation, read only version B",HAPPY,CAR,Study1,U,77,73,Study,8,8,,Study/JOL,"Study Phase2",8003,,,-1,-1,,,,1
w10108633_kcc,ajej7y8fww,Nick_Dissertation_EX1_EP,1,242,2021-11-30T23:11:37+00:00,8.3094520568848,2,versionA_stim.csv,READVersionB.csv,"Read Version B","Dissertation, read only version B",TRIAL,JURY,Study1,S,50,62,Study,8,8,,Study/JOL,"Study Phase2",8007,,,-1,-1,,,,1
w10108633_kcc,ajej7y8fww,Nick_Dissertation_EX1_EP,1,243,2021-11-30T23:11:45+00:00,8.2928948402405,2,versionA_stim.csv,READVersionB.csv,"Read Version B","Dissertation, read only version B",CREDIT,CARD,Study1,F,23,55,Study,8,8,,Study/JOL,"Study Phase2",8003,,,-1,-1,,,,1
w10108633_kcc,ajej7y8fww,Nick_Dissertation_EX1_EP,1,244,2021-11-30T23:11:53+00:00,8.2966220378876,2,versionA_stim.csv,READVersionB.csv,"Read Version B","Dissertation, read only version B",REVOLUTION,WAR,Study1,F,20,56,Study,8,8,,Study/JOL,"Study Phase2",8004,,,-1,-1,,,,1
w10108633_kcc,ajej7y8fww,Nick_Dissertation_EX1_EP,1,245,2021-11-30T23:12:01+00:00,8.3033831119537,2,versionA_stim.csv,READVersionB.csv,"Read Version B","Dissertation, read only version B",SOON,BELT,Study1,U,70,71,Study,8,8,,Study/JOL,"Study Phase2",8004,,,-1,-1,,,,1
w10108633_kcc,ajej7y8fww,Nick_Dissertation_EX1_EP,1,246,2021-11-30T23:12:10+00:00,8.2842988967896,2,versionA_stim.csv,READVersionB.csv,"Read Version B","Dissertation, read only version B",KEY,LATCH,Study1,B,36,54,Study,8,8,,Study/JOL,"Study Phase2",8003,,,-1,-1,,,,1
w10108633_kcc,ajej7y8fww,Nick_Dissertation_EX1_EP,1,247,2021-11-30T23:12:18+00:00,8.2926361560822,2,versionA_stim.csv,READVersionB.csv,"Read Version B","Dissertation, read only version B",PAW,DOG,Study1,F,15,65,Study,8,8,,Study/JOL,"Study Phase2",8003,,,-1,-1,,,,1
w10108633_kcc,ajej7y8fww,Nick_Dissertation_EX1_EP,1,248,2021-11-30T23:12:26+00:00,8.3010919094086,2,versionA_stim.csv,READVersionB.csv,"Read Version B","Dissertation, read only version B",PUSHER,CLUTTER,Study1,U,66,35,Study,8,8,,Study/JOL,"Study Phase2",8003,,,-1,-1,,,,1
w10108633_kcc,ajej7y8fww,Nick_Dissertation_EX1_EP,1,249,2021-11-30T23:12:35+00:00,8.3090250492096,2,versionA_stim.csv,READVersionB.csv,"Read Version B","Dissertation, read only version B",BUG,WASP,Study1,B,32,69,Study,8,8,,Study/JOL,"Study Phase2",8008,,,-1,-1,,,,1
w10108633_kcc,ajej7y8fww,Nick_Dissertation_EX1_EP,1,250,2021-11-30T23:12:43+00:00,8.3309848308563,2,versionA_stim.csv,READVersionB.csv,"Read Version B","Dissertation, read only version B",HONEY,BEE,Study1,S,63,33,Study,8,8,,Study/JOL,"Study Phase2",8006,,,-1,-1,,,,1
w10108633_kcc,ajej7y8fww,Nick_Dissertation_EX1_EP,1,251,2021-11-30T23:12:51+00:00,8.3022150993347,2,versionA_stim.csv,READVersionB.csv,"Read Version B","Dissertation, read only version B",GREAT,FANTASTIC,Study1,B,35,61,Study,8,8,,Study/JOL,"Study Phase2",8004,,,-1,-1,,,,1
w10108633_kcc,ajej7y8fww,Nick_Dissertation_EX1_EP,1,252,2021-11-30T23:13:00+00:00,8.3051109313965,2,versionA_stim.csv,READVersionB.csv,"Read Version B","Dissertation, read only version B",HERD,COW,Study1,F,22,45,Study,8,8,,Study/JOL,"Study Phase2",8004,,,-1,-1,,,,1
w10108633_kcc,ajej7y8fww,Nick_Dissertation_EX1_EP,1,253,2021-11-30T23:13:08+00:00,8.3122580051422,2,versionA_stim.csv,READVersionB.csv,"Read Version B","Dissertation, read only version B",CIRCLE,ROUND,Study1,S,65,10,Study,8,8,,Study/JOL,"Study Phase2",8009,,,-1,-1,,,,1
w10108633_kcc,ajej7y8fww,Nick_Dissertation_EX1_EP,1,254,2021-11-30T23:13:16+00:00,8.3015401363373,2,versionA_stim.csv,READVersionB.csv,"Read Version B","Dissertation, read only version B",DEATH,BUSINESS,Study1,U,72,23,Study,8,8,,Study/JOL,"Study Phase2",8004,,,-1,-1,,,,1
w10108633_kcc,ajej7y8fww,Nick_Dissertation_EX1_EP,1,255,2021-11-30T23:13:25+00:00,8.3071708679199,2,versionA_stim.csv,READVersionB.csv,"Read Version B","Dissertation, read only version B",LIFT,WOMAN,Study1,U,69,39,Study,8,8,,Study/JOL,"Study Phase2",8003,,,-1,-1,,,,1
w10108633_kcc,ajej7y8fww,Nick_Dissertation_EX1_EP,1,256,2021-11-30T23:13:33+00:00,8.3033890724182,2,versionA_stim.csv,READVersionB.csv,"Read Version B","Dissertation, read only version B",DISCOVER,FLOOR,Study1,U,71,86,Study,8,8,,Study/JOL,"Study Phase2",8005,,,-1,-1,,,,1
w10108633_kcc,ajej7y8fww,Nick_Dissertation_EX1_EP,1,257,2021-11-30T23:13:41+00:00,8.3048961162567,2,versionA_stim.csv,READVersionB.csv,"Read Version B","Dissertation, read only version B",DEBATE,SIGHT,Study1,U,73,53,Study,8,8,,Study/JOL,"Study Phase2",8005,,,-1,-1,,,,1
w10108633_kcc,ajej7y8fww,Nick_Dissertation_EX1_EP,1,258,2021-11-30T23:13:49+00:00,8.3165698051453,2,versionA_stim.csv,READVersionB.csv,"Read Version B","Dissertation, read only version B",GEOLOGY,ROCK,Study1,F,19,16,Study,8,8,,Study/JOL,"Study Phase2",8004,,,-1,-1,,,,1
w10108633_kcc,ajej7y8fww,Nick_Dissertation_EX1_EP,1,259,2021-11-30T23:13:58+00:00,8.307569026947,2,versionA_stim.csv,READVersionB.csv,"Read Version B","Dissertation, read only version B",WORK,CHORE,Study1,B,39,26,Study,8,8,,Study/JOL,"Study Phase2",8008,,,-1,-1,,,,1
w10108633_kcc,ajej7y8fww,Nick_Dissertation_EX1_EP,1,260,2021-11-30T23:14:06+00:00,8.3103160858154,2,versionA_stim.csv,READVersionB.csv,"Read Version B","Dissertation, read only version B",HYGIENE,CLEAN,Study1,F,17,36,Study,8,8,,Study/JOL,"Study Phase2",8004,,,-1,-1,,,,1
w10108633_kcc,ajej7y8fww,Nick_Dissertation_EX1_EP,1,261,2021-11-30T23:14:14+00:00,8.2954339981079,2,versionA_stim.csv,READVersionB.csv,"Read Version B","Dissertation, read only version B",HIDE,SICK,Study1,U,84,70,Study,8,8,,Study/JOL,"Study Phase2",8003,,,-1,-1,,,,1
w10108633_kcc,ajej7y8fww,Nick_Dissertation_EX1_EP,1,262,2021-11-30T23:14:23+00:00,8.3156759738922,2,versionA_stim.csv,READVersionB.csv,"Read Version B","Dissertation, read only version B",MEANING,DEFINITION,Study1,S,62,32,Study,8,8,,Study/JOL,"Study Phase2",8009,,,-1,-1,,,,1
w10108633_kcc,ajej7y8fww,Nick_Dissertation_EX1_EP,1,263,2021-11-30T23:14:31+00:00,8.3168818950653,2,versionA_stim.csv,READVersionB.csv,"Read Version B","Dissertation, read only version B",BEGIN,END,Study1,S,54,7,Study,8,8,,Study/JOL,"Study Phase2",8005,,,-1,-1,,,,1
w10108633_kcc,ajej7y8fww,Nick_Dissertation_EX1_EP,1,264,2021-11-30T23:14:39+00:00,8.3006401062012,2,versionA_stim.csv,READVersionB.csv,"Read Version B","Dissertation, read only version B",GEESE,GOOSE,BUFFER2,Buffer,86,88,Study,8,8,,Study/JOL,BUFFER4,8004,,,-1,-1,,,,1
w10108633_kcc,ajej7y8fww,Nick_Dissertation_EX1_EP,1,265,2021-11-30T23:14:48+00:00,8.3046538829803,2,versionA_stim.csv,READVersionB.csv,"Read Version B","Dissertation, read only version B",MOON,SPACE,BUFFER2,Buffer,89,90,Study,8,8,,Study/JOL,BUFFER4,8003,,,-1,-1,,,,1
w10108633_kcc,ajej7y8fww,Nick_Dissertation_EX1_EP,1,266,2021-11-30T23:14:56+00:00,8.2996511459351,2,versionA_stim.csv,READVersionB.csv,"Read Version B","Dissertation, read only version B",MALT,CHOCOLATE,BUFFER2,Buffer,88,89,Study,8,8,,Study/JOL,BUFFER4,8003,,,-1,-1,,,,1
w10108633_kcc,ajej7y8fww,Nick_Dissertation_EX1_EP,1,267,2021-11-30T23:15:04+00:00,8.3020880222321,2,versionA_stim.csv,READVersionB.csv,"Read Version B","Dissertation, read only version B",THING,STUFF,BUFFER2,Buffer,90,87,Study,8,8,,Study/JOL,BUFFER4,8003,,,-1,-1,,,,1
w10108633_kcc,ajej7y8fww,Nick_Dissertation_EX1_EP,1,268,2021-11-30T23:15:13+00:00,8.3167338371277,2,versionA_stim.csv,READVersionB.csv,"Read Version B","Dissertation, read only version B",SHERRIF,POLICE,BUFFER2,Buffer,87,91,Study,8,8,,Study/JOL,BUFFER4,8004,,,-1,-1,,,,1
w10108633_kcc,ajej7y8fww,Nick_Dissertation_EX1_EP,1,269,2021-11-30T23:15:14+00:00,1.9086320400238,2,versionA_stim.csv,READVersionB.csv,"Read Version B","Dissertation, read only version B",,,,,,0,Instruct,User,-,"You have completed this section. Please press Enter.",Filler_Instruction,Instruct5,1609,,,-1,-1,,,,1
w10108633_kcc,ajej7y8fww,Nick_Dissertation_EX1_EP,1,270,2021-11-30T23:17:15+00:00,120.41321206093,2,versionA_stim.csv,READVersionB.csv,"Read Version B","Dissertation, read only version B",,,,,,0,FreeRecall,120,120,"Please list the 50 US states in reverse alphabetical order (z - a). The task will automatically advance to the next screen after two minutes.",,Filler2,120009,"wyomming wisconsin washington virginia utah texas tennisee south carolina rhode island organ ohio north carolina north dakota new york new hampshire nevada nebraska montan mississippi minnisota michigan massachusetts maryland main louisiana kentucky kansas ",0,12990,119764,0,0,,1
w10108633_kcc,ajej7y8fww,Nick_Dissertation_EX1_EP,1,271,2021-11-30T23:17:28+00:00,13.287957906723,2,versionA_stim.csv,READVersionB.csv,"Read Version B","Dissertation, read only version B",,,,,,0,Instruct,-,10,"You will now be presented with the first word from each of the previously studied item pairs. Please type the missing word. If you do not know the word, you may guess or press Enter to skip forward to the next pair.",,Instruct6,12678,,,-1,-1,,,,1
w10108633_kcc,ajej7y8fww,Nick_Dissertation_EX1_EP,1,272,2021-11-30T23:17:39+00:00,10.76288819313,2,versionA_stim.csv,READVersionB.csv,"Read Version B","Dissertation, read only version B",GRILL,BAR,Study1,S,52,19,Test,User,-,,Recall,Recall2,10394,fire,28.571428571429,7141,10105,0,0,,1
w10108633_kcc,ajej7y8fww,Nick_Dissertation_EX1_EP,1,273,2021-11-30T23:17:53+00:00,13.730437994003,2,versionA_stim.csv,READVersionB.csv,"Read Version B","Dissertation, read only version B",SUGAR,RIDDLE,Study1,U,81,42,Test,User,-,,Recall,Recall2,13357,,0,-1,-1,0,0,,1
w10108633_kcc,ajej7y8fww,Nick_Dissertation_EX1_EP,1,274,2021-11-30T23:17:54+00:00,1.7046849727631,2,versionA_stim.csv,READVersionB.csv,"Read Version B","Dissertation, read only version B",BEGIN,END,Study1,S,54,7,Test,User,-,,Recall,Recall2,1383,end,100,1024,1242,1,1,,1
w10108633_kcc,ajej7y8fww,Nick_Dissertation_EX1_EP,1,275,2021-11-30T23:17:56+00:00,1.605171918869,2,versionA_stim.csv,READVersionB.csv,"Read Version B","Dissertation, read only version B",WAY,OUT,Study1,F,16,76,Test,User,-,,Recall,Recall2,1286,out,100,912,1118,1,1,,1
w10108633_kcc,ajej7y8fww,Nick_Dissertation_EX1_EP,1,276,2021-11-30T23:17:59+00:00,2.6348240375519,2,versionA_stim.csv,READVersionB.csv,"Read Version B","Dissertation, read only version B",HEIGHT,GROWTH,Study1,B,30,9,Test,User,-,,Recall,Recall2,2316,growth,100,1050,2087,1,1,,1
w10108633_kcc,ajej7y8fww,Nick_Dissertation_EX1_EP,1,277,2021-11-30T23:18:03+00:00,4.8188889026642,2,versionA_stim.csv,READVersionB.csv,"Read Version B","Dissertation, read only version B",SWAN,BIRD,Study1,F,14,44,Test,User,-,,Recall,Recall2,4522,bird,100,1394,4367,1,1,,1
w10108633_kcc,ajej7y8fww,Nick_Dissertation_EX1_EP,1,278,2021-11-30T23:18:06+00:00,3.0143270492554,2,versionA_stim.csv,READVersionB.csv,"Read Version B","Dissertation, read only version B",WAGE,MONEY,Study1,F,8,82,Test,User,-,,Recall,Recall2,2728,income,36.363636363636,1933,2575,0,0,,1
w10108633_kcc,ajej7y8fww,Nick_Dissertation_EX1_EP,1,279,2021-11-30T23:18:12+00:00,5.1796889305115,2,versionA_stim.csv,READVersionB.csv,"Read Version B","Dissertation, read only version B",BALL,RACKET,Study1,B,38,12,Test,User,-,,Recall,Recall2,4873,throw,18.181818181818,3299,3820,0,0,,1
w10108633_kcc,ajej7y8fww,Nick_Dissertation_EX1_EP,1,280,2021-11-30T23:18:14+00:00,2.5501141548157,2,versionA_stim.csv,READVersionB.csv,"Read Version B","Dissertation, read only version B",CHISEL,HAMMER,Study1,F,9,79,Test,User,-,,Recall,Recall2,2265,art,44.444444444444,1845,2167,0,0,,1
w10108633_kcc,ajej7y8fww,Nick_Dissertation_EX1_EP,1,281,2021-11-30T23:18:18+00:00,3.4191508293152,2,versionA_stim.csv,READVersionB.csv,"Read Version B","Dissertation, read only version B",DIGESTION,STOMACH,Study1,F,7,57,Test,User,-,,Recall,Recall2,3105,stomach,100,1120,2883,1,1,,1
w10108633_kcc,ajej7y8fww,Nick_Dissertation_EX1_EP,1,282,2021-11-30T23:18:19+00:00,1.6750030517578,2,versionA_stim.csv,READVersionB.csv,"Read Version B","Dissertation, read only version B",TUNA,FISH,Study1,F,25,24,Test,User,-,,Recall,Recall2,1370,fish,100,776,1117,1,1,,1
w10108633_kcc,ajej7y8fww,Nick_Dissertation_EX1_EP,1,283,2021-11-30T23:18:27+00:00,7.7540471553802,2,versionA_stim.csv,READVersionB.csv,"Read Version B","Dissertation, read only version B",CREDIT,CARD,Study1,F,23,55,Test,User,-,,Recall,Recall2,7462,cardd,88.888888888889,838,7376,0,1,,1
w10108633_kcc,ajej7y8fww,Nick_Dissertation_EX1_EP,1,284,2021-11-30T23:18:29+00:00,2.5365118980408,2,versionA_stim.csv,READVersionB.csv,"Read Version B","Dissertation, read only version B",CIRCLE,ROUND,Study1,S,65,10,Test,User,-,,Recall,Recall2,2233,round,100,975,1493,1,1,,1
w10108633_kcc,ajej7y8fww,Nick_Dissertation_EX1_EP,1,285,2021-11-30T23:18:32+00:00,2.2579309940338,2,versionA_stim.csv,READVersionB.csv,"Read Version B","Dissertation, read only version B",LIFT,WOMAN,Study1,U,69,39,Test,User,-,,Recall,Recall2,1965,woman,100,1267,1743,1,1,,1
w10108633_kcc,ajej7y8fww,Nick_Dissertation_EX1_EP,1,286,2021-11-30T23:18:34+00:00,2.566428899765,2,versionA_stim.csv,READVersionB.csv,"Read Version B","Dissertation, read only version B",LOCATION,SITE,Study1,S,48,58,Test,User,-,,Recall,Recall2,2249,place,22.222222222222,1463,2158,0,0,,1
w10108633_kcc,ajej7y8fww,Nick_Dissertation_EX1_EP,1,287,2021-11-30T23:18:40+00:00,5.2153432369232,2,versionA_stim.csv,READVersionB.csv,"Read Version B","Dissertation, read only version B",ARTERY,BRONZE,Study1,U,74,68,Test,User,-,,Recall,Recall2,4915,bronze,100,3153,4728,1,1,,1
w10108633_kcc,ajej7y8fww,Nick_Dissertation_EX1_EP,1,288,2021-11-30T23:18:42+00:00,2.7195298671722,2,versionA_stim.csv,READVersionB.csv,"Read Version B","Dissertation, read only version B",HERD,COW,Study1,F,22,45,Test,User,-,,Recall,Recall2,2430,cow,100,2022,2286,1,1,,1
w10108633_kcc,ajej7y8fww,Nick_Dissertation_EX1_EP,1,289,2021-11-30T23:18:48+00:00,5.3200490474701,2,versionA_stim.csv,READVersionB.csv,"Read Version B","Dissertation, read only version B",HUNGER,FAMINE,Study1,B,40,81,Test,User,-,,Recall,Recall2,5019,pian,40,3516,4833,0,0,,1
w10108633_kcc,ajej7y8fww,Nick_Dissertation_EX1_EP,1,290,2021-11-30T23:18:51+00:00,3.540727853775,2,versionA_stim.csv,READVersionB.csv,"Read Version B","Dissertation, read only version B",KIDNEY,LIVER,Study1,S,53,49,Test,User,-,,Recall,Recall2,3254,digestion,28.571428571429,1605,2782,0,0,,1
w10108633_kcc,ajej7y8fww,Nick_Dissertation_EX1_EP,1,291,2021-11-30T23:18:53+00:00,2.041766166687,2,versionA_stim.csv,READVersionB.csv,"Read Version B","Dissertation, read only version B",BITTER,COLD,Study1,F,12,72,Test,User,-,,Recall,Recall2,1740,cold,100,1201,1607,1,1,,1
w10108633_kcc,ajej7y8fww,Nick_Dissertation_EX1_EP,1,292,2021-11-30T23:18:55+00:00,1.7913289070129,2,versionA_stim.csv,READVersionB.csv,"Read Version B","Dissertation, read only version B",HYGIENE,CLEAN,Study1,F,17,36,Test,User,-,,Recall,Recall2,1480,clean,100,950,1304,1,1,,1
w10108633_kcc,ajej7y8fww,Nick_Dissertation_EX1_EP,1,293,2021-11-30T23:18:57+00:00,2.4418039321899,2,versionA_stim.csv,READVersionB.csv,"Read Version B","Dissertation, read only version B",DISCUSSION,TALK,Study1,F,21,66,Test,User,-,,Recall,Recall2,2140,talk,100,1296,1762,1,1,,1
w10108633_kcc,ajej7y8fww,Nick_Dissertation_EX1_EP,1,294,2021-11-30T23:19:00+00:00,2.4725441932678,2,versionA_stim.csv,READVersionB.csv,"Read Version B","Dissertation, read only version B",WINE,CHEESE,Study1,S,57,63,Test,User,-,,Recall,Recall2,2182,cheese,100,995,2052,1,1,,1
w10108633_kcc,ajej7y8fww,Nick_Dissertation_EX1_EP,1,295,2021-11-30T23:19:02+00:00,2.1755628585815,2,versionA_stim.csv,READVersionB.csv,"Read Version B","Dissertation, read only version B",SMELL,STENCH,Study1,B,42,64,Test,User,-,,Recall,Recall2,1873,stench,100,896,1622,1,1,,1
w10108633_kcc,ajej7y8fww,Nick_Dissertation_EX1_EP,1,296,2021-11-30T23:19:06+00:00,4.1813960075378,2,versionA_stim.csv,READVersionB.csv,"Read Version B","Dissertation, read only version B",LETTUCE,SALAD,Study1,S,59,40,Test,User,-,,Recall,Recall2,3894,iceberg,0,2044,3509,0,0,,1
w10108633_kcc,ajej7y8fww,Nick_Dissertation_EX1_EP,1,297,2021-11-30T23:19:11+00:00,4.9231810569763,2,versionA_stim.csv,READVersionB.csv,"Read Version B","Dissertation, read only version B",MEANING,DEFINITION,Study1,S,62,32,Test,User,-,,Recall,Recall2,4626,point,40,3246,4481,0,0,,1
w10108633_kcc,ajej7y8fww,Nick_Dissertation_EX1_EP,1,298,2021-11-30T23:19:13+00:00,2.0735230445862,2,versionA_stim.csv,READVersionB.csv,"Read Version B","Dissertation, read only version B",BRIDGE,WATER,Study1,F,18,50,Test,User,-,,Recall,Recall2,1764,water,100,1103,1617,1,1,,1
w10108633_kcc,ajej7y8fww,Nick_Dissertation_EX1_EP,1,299,2021-11-30T23:19:17+00:00,3.892541885376,2,versionA_stim.csv,READVersionB.csv,"Read Version B","Dissertation, read only version B",DEATH,BUSINESS,Study1,U,72,23,Test,User,-,,Recall,Recall2,3592,business,100,1522,3430,1,1,,1
w10108633_kcc,ajej7y8fww,Nick_Dissertation_EX1_EP,1,300,2021-11-30T23:19:20+00:00,2.8582799434662,2,versionA_stim.csv,READVersionB.csv,"Read Version B","Dissertation, read only version B",EDITOR,NEWS,Study1,F,10,27,Test,User,-,,Recall,Recall2,2567,news,100,2048,2410,1,1,,1
w10108633_kcc,ajej7y8fww,Nick_Dissertation_EX1_EP,1,301,2021-11-30T23:19:26+00:00,6.2476282119751,2,versionA_stim.csv,READVersionB.csv,"Read Version B","Dissertation, read only version B",VALLEY,ADD,Study1,U,82,18,Test,User,-,,Recall,Recall2,5952,mountain,18.181818181818,2053,5676,0,0,,1
w10108633_kcc,ajej7y8fww,Nick_Dissertation_EX1_EP,1,302,2021-11-30T23:19:35+00:00,8.7696218490601,2,versionA_stim.csv,READVersionB.csv,"Read Version B","Dissertation, read only version B",BATHROOM,TOILET,Study1,S,58,22,Test,User,-,,Recall,Recall2,8473,restroom,28.571428571429,6414,8280,0,0,,1
w10108633_kcc,ajej7y8fww,Nick_Dissertation_EX1_EP,1,303,2021-11-30T23:19:37+00:00,2.1335480213165,2,versionA_stim.csv,READVersionB.csv,"Read Version B","Dissertation, read only version B",REVOLUTION,WAR,Study1,F,20,56,Test,User,-,,Recall,Recall2,1843,war,100,1525,1711,1,1,,1
w10108633_kcc,ajej7y8fww,Nick_Dissertation_EX1_EP,1,304,2021-11-30T23:19:39+00:00,2.1177361011505,2,versionA_stim.csv,READVersionB.csv,"Read Version B","Dissertation, read only version B",TRIAL,JURY,Study1,S,50,62,Test,User,-,,Recall,Recall2,1834,jury,100,925,1632,1,1,,1
w10108633_kcc,ajej7y8fww,Nick_Dissertation_EX1_EP,1,305,2021-11-30T23:19:41+00:00,1.9810609817505,2,versionA_stim.csv,READVersionB.csv,"Read Version B","Dissertation, read only version B",ROOT,PLANT,Study1,F,13,8,Test,User,-,,Recall,Recall2,1690,plant,100,1107,1593,1,1,,1
w10108633_kcc,ajej7y8fww,Nick_Dissertation_EX1_EP,1,306,2021-11-30T23:19:44+00:00,2.7127878665924,2,versionA_stim.csv,READVersionB.csv,"Read Version B","Dissertation, read only version B",PAST,FUTURE,Study1,S,61,67,Test,User,-,,Recall,Recall2,2414,future,100,1707,2286,1,1,,1
w10108633_kcc,ajej7y8fww,Nick_Dissertation_EX1_EP,1,307,2021-11-30T23:19:48+00:00,3.6459400653839,2,versionA_stim.csv,READVersionB.csv,"Read Version B","Dissertation, read only version B",KEY,LATCH,Study1,B,36,54,Test,User,-,,Recall,Recall2,3352,latch,100,1899,2553,1,1,,1
w10108633_kcc,ajej7y8fww,Nick_Dissertation_EX1_EP,1,308,2021-11-30T23:19:50+00:00,2.272922039032,2,versionA_stim.csv,READVersionB.csv,"Read Version B","Dissertation, read only version B",BABY,CHILD,Study1,S,64,60,Test,User,-,,Recall,Recall2,1988,kid,50,1013,1339,0,0,,1
w10108633_kcc,ajej7y8fww,Nick_Dissertation_EX1_EP,1,309,2021-11-30T23:19:54+00:00,4.598473072052,2,versionA_stim.csv,READVersionB.csv,"Read Version B","Dissertation, read only version B",PARK,HUNGRY,Study1,U,68,47,Test,User,-,,Recall,Recall2,4300,hungery,92.307692307692,1439,3842,0,1,,1
w10108633_kcc,ajej7y8fww,Nick_Dissertation_EX1_EP,1,310,2021-11-30T23:19:57+00:00,2.1745998859406,2,versionA_stim.csv,READVersionB.csv,"Read Version B","Dissertation, read only version B",CASH,WOULD,Study1,U,83,20,Test,User,-,,Recall,Recall2,1895,would,100,1258,1701,1,1,,1
w10108633_kcc,ajej7y8fww,Nick_Dissertation_EX1_EP,1,311,2021-11-30T23:19:59+00:00,2.6437110900879,2,versionA_stim.csv,READVersionB.csv,"Read Version B","Dissertation, read only version B",ART,LION,Study1,U,79,34,Test,User,-,,Recall,Recall2,2310,,0,-1,-1,0,0,,1
w10108633_kcc,ajej7y8fww,Nick_Dissertation_EX1_EP,1,312,2021-11-30T23:20:02+00:00,2.5970649719238,2,versionA_stim.csv,READVersionB.csv,"Read Version B","Dissertation, read only version B",HONEY,BEE,Study1,S,63,33,Test,User,-,,Recall,Recall2,2282,sweet,50,1254,2082,0,0,,1
w10108633_kcc,ajej7y8fww,Nick_Dissertation_EX1_EP,1,313,2021-11-30T23:20:05+00:00,3.5034148693085,2,versionA_stim.csv,READVersionB.csv,"Read Version B","Dissertation, read only version B",DUE,ASSIGNMENT,Study1,S,46,37,Test,User,-,,Recall,Recall2,3105,assignment,100,1366,3004,1,1,,1
w10108633_kcc,ajej7y8fww,Nick_Dissertation_EX1_EP,1,314,2021-11-30T23:20:08+00:00,2.3667449951172,2,versionA_stim.csv,READVersionB.csv,"Read Version B","Dissertation, read only version B",WORK,CHORE,Study1,B,39,26,Test,User,-,,Recall,Recall2,2070,study,0,956,1833,0,0,,1
w10108633_kcc,ajej7y8fww,Nick_Dissertation_EX1_EP,1,315,2021-11-30T23:20:11+00:00,2.8683760166168,2,versionA_stim.csv,READVersionB.csv,"Read Version B","Dissertation, read only version B",HORNET,STING,Study1,F,11,80,Test,User,-,,Recall,Recall2,2582,sting,100,1022,2381,1,1,,1
w10108633_kcc,ajej7y8fww,Nick_Dissertation_EX1_EP,1,316,2021-11-30T23:20:30+00:00,19.147601127625,2,versionA_stim.csv,READVersionB.csv,"Read Version B","Dissertation, read only version B",KING,VASE,Study1,U,85,51,Test,User,-,,Recall,Recall2,18856,lion,0,17903,18604,0,0,,1
w10108633_kcc,ajej7y8fww,Nick_Dissertation_EX1_EP,1,317,2021-11-30T23:20:33+00:00,3.6233630180359,2,versionA_stim.csv,READVersionB.csv,"Read Version B","Dissertation, read only version B",DEBATE,SIGHT,Study1,U,73,53,Test,User,-,,Recall,Recall2,3316,won,0,2198,2465,0,0,,1
w10108633_kcc,ajej7y8fww,Nick_Dissertation_EX1_EP,1,318,2021-11-30T23:20:37+00:00,3.7821168899536,2,versionA_stim.csv,READVersionB.csv,"Read Version B","Dissertation, read only version B",MATH,DIVISION,Study1,B,33,38,Test,User,-,,Recall,Recall2,3474,number,14.285714285714,1421,3389,0,0,,1
w10108633_kcc,ajej7y8fww,Nick_Dissertation_EX1_EP,1,319,2021-11-30T23:20:41+00:00,4.1165111064911,2,versionA_stim.csv,READVersionB.csv,"Read Version B","Dissertation, read only version B",HOT,CHILI,Study1,B,37,85,Test,User,-,,Recall,Recall2,3829,cold,44.444444444444,3029,3697,0,0,,1
w10108633_kcc,ajej7y8fww,Nick_Dissertation_EX1_EP,1,320,2021-11-30T23:20:44+00:00,3.1494200229645,2,versionA_stim.csv,READVersionB.csv,"Read Version B","Dissertation, read only version B",LAW,ATTORNEY,Study1,B,34,78,Test,User,-,,Recall,Recall2,2859,attorny,93.333333333333,1454,2527,0,1,,1
w10108633_kcc,ajej7y8fww,Nick_Dissertation_EX1_EP,1,321,2021-11-30T23:20:50+00:00,5.8091328144073,2,versionA_stim.csv,READVersionB.csv,"Read Version B","Dissertation, read only version B",SOON,BELT,Study1,U,70,71,Test,User,-,,Recall,Recall2,5508,close,22.222222222222,4842,5307,0,0,,1
w10108633_kcc,ajej7y8fww,Nick_Dissertation_EX1_EP,1,322,2021-11-30T23:20:52+00:00,2.2143511772156,2,versionA_stim.csv,READVersionB.csv,"Read Version B","Dissertation, read only version B",ORCHID,FLOWER,Study1,F,24,30,Test,User,-,,Recall,Recall2,1908,flower,100,1008,1733,1,1,,1
w10108633_kcc,ajej7y8fww,Nick_Dissertation_EX1_EP,1,323,2021-11-30T23:20:55+00:00,2.7529458999634,2,versionA_stim.csv,READVersionB.csv,"Read Version B","Dissertation, read only version B",ARCHITECTURE,DESIGN,Study1,S,51,14,Test,User,-,,Recall,Recall2,2450,building,28.571428571429,1315,2346,0,0,,1
w10108633_kcc,ajej7y8fww,Nick_Dissertation_EX1_EP,1,324,2021-11-30T23:20:58+00:00,2.4914319515228,2,versionA_stim.csv,READVersionB.csv,"Read Version B","Dissertation, read only version B",TAKE,SEIZE,Study1,B,29,83,Test,User,-,,Recall,Recall2,2161,away,0,1475,1943,0,0,,1
w10108633_kcc,ajej7y8fww,Nick_Dissertation_EX1_EP,1,325,2021-11-30T23:21:00+00:00,2.706915140152,2,versionA_stim.csv,READVersionB.csv,"Read Version B","Dissertation, read only version B",PUSHER,CLUTTER,Study1,U,66,35,Test,User,-,,Recall,Recall2,2345,puller,46.153846153846,1307,2164,0,0,,1
w10108633_kcc,ajej7y8fww,Nick_Dissertation_EX1_EP,1,326,2021-11-30T23:21:02+00:00,1.9186010360718,2,versionA_stim.csv,READVersionB.csv,"Read Version B","Dissertation, read only version B",FIX,HAND,Study1,U,75,15,Test,User,-,,Recall,Recall2,1614,hands,88.888888888889,953,1412,0,1,,1
w10108633_kcc,ajej7y8fww,Nick_Dissertation_EX1_EP,1,327,2021-11-30T23:21:08+00:00,5.1882619857788,2,versionA_stim.csv,READVersionB.csv,"Read Version B","Dissertation, read only version B",FIRE,BLAZE,Study1,B,45,48,Test,User,-,,Recall,Recall2,4883,water,40,1749,4615,0,0,,1
w10108633_kcc,ajej7y8fww,Nick_Dissertation_EX1_EP,1,328,2021-11-30T23:21:10+00:00,2.8732008934021,2,versionA_stim.csv,READVersionB.csv,"Read Version B","Dissertation, read only version B",SENTENCE,WORD,Study1,B,31,28,Test,User,-,,Recall,Recall2,2582,word,100,1974,2476,1,1,,1
w10108633_kcc,ajej7y8fww,Nick_Dissertation_EX1_EP,1,329,2021-11-30T23:21:15+00:00,4.9908308982849,2,versionA_stim.csv,READVersionB.csv,"Read Version B","Dissertation, read only version B",BUG,WASP,Study1,B,32,69,Test,User,-,,Recall,Recall2,4686,insect,20,3435,4515,0,0,,1
w10108633_kcc,ajej7y8fww,Nick_Dissertation_EX1_EP,1,330,2021-11-30T23:21:18+00:00,2.6600270271301,2,versionA_stim.csv,READVersionB.csv,"Read Version B","Dissertation, read only version B",CLOTHES,ATTIRE,Study1,B,43,52,Test,User,-,,Recall,Recall2,2323,attire,100,1454,2193,1,1,,1
w10108633_kcc,ajej7y8fww,Nick_Dissertation_EX1_EP,1,331,2021-11-30T23:21:23+00:00,4.6244781017303,2,versionA_stim.csv,READVersionB.csv,"Read Version B","Dissertation, read only version B",PLANE,PILOT,Study1,B,44,21,Test,User,-,,Recall,Recall2,4334,pilot,100,3506,4190,1,1,,1
w10108633_kcc,ajej7y8fww,Nick_Dissertation_EX1_EP,1,332,2021-11-30T23:21:25+00:00,2.2711389064789,2,versionA_stim.csv,READVersionB.csv,"Read Version B","Dissertation, read only version B",DUMP,WASTE,Study1,S,49,59,Test,User,-,,Recall,Recall2,1967,trash,40,1079,1788,0,0,,1
w10108633_kcc,ajej7y8fww,Nick_Dissertation_EX1_EP,1,333,2021-11-30T23:21:30+00:00,4.9753820896149,2,versionA_stim.csv,READVersionB.csv,"Read Version B","Dissertation, read only version B",NUMBER,AMOUNT,Study1,S,47,41,Test,User,-,,Recall,Recall2,4670,letter,16.666666666667,3752,4548,0,0,,1
w10108633_kcc,ajej7y8fww,Nick_Dissertation_EX1_EP,1,334,2021-11-30T23:21:32+00:00,2.0412249565125,2,versionA_stim.csv,READVersionB.csv,"Read Version B","Dissertation, read only version B",BLOW,WIND,Study1,S,55,75,Test,User,-,,Recall,Recall2,1751,wind,100,1367,1613,1,1,,1
w10108633_kcc,ajej7y8fww,Nick_Dissertation_EX1_EP,1,335,2021-11-30T23:21:35+00:00,3.4047110080719,2,versionA_stim.csv,READVersionB.csv,"Read Version B","Dissertation, read only version B",DIETARY,SACKING,Study1,U,67,77,Test,User,-,,Recall,Recall2,3123,restriction,33.333333333333,1321,2867,0,0,,1
w10108633_kcc,ajej7y8fww,Nick_Dissertation_EX1_EP,1,336,2021-11-30T23:21:39+00:00,3.6638290882111,2,versionA_stim.csv,READVersionB.csv,"Read Version B","Dissertation, read only version B",FULL,ENOUGH,Study1,B,26,29,Test,User,-,,Recall,Recall2,3349,enough,100,2548,3136,1,1,,1
w10108633_kcc,ajej7y8fww,Nick_Dissertation_EX1_EP,1,337,2021-11-30T23:21:41+00:00,2.0765559673309,2,versionA_stim.csv,READVersionB.csv,"Read Version B","Dissertation, read only version B",GEOLOGY,ROCK,Study1,F,19,16,Test,User,-,,Recall,Recall2,1784,rock,100,1211,1622,1,1,,1
w10108633_kcc,ajej7y8fww,Nick_Dissertation_EX1_EP,1,338,2021-11-30T23:21:45+00:00,3.5065109729767,2,versionA_stim.csv,READVersionB.csv,"Read Version B","Dissertation, read only version B",GREAT,FANTASTIC,Study1,B,35,61,Test,User,-,,Recall,Recall2,3218,fantastic,100,1554,3057,1,1,,1
w10108633_kcc,ajej7y8fww,Nick_Dissertation_EX1_EP,1,339,2021-11-30T23:21:46+00:00,1.8256180286407,2,versionA_stim.csv,READVersionB.csv,"Read Version B","Dissertation, read only version B",DELINQUENT,BAD,Study1,F,6,17,Test,User,-,,Recall,Recall2,1540,bad,100,1214,1422,1,1,,1
w10108633_kcc,ajej7y8fww,Nick_Dissertation_EX1_EP,1,340,2021-11-30T23:21:51+00:00,4.9345638751984,2,versionA_stim.csv,READVersionB.csv,"Read Version B","Dissertation, read only version B",SHOE,FOOT,Study1,S,60,84,Test,User,-,,Recall,Recall2,4614,shoelace,16.666666666667,2472,4489,0,0,,1
w10108633_kcc,ajej7y8fww,Nick_Dissertation_EX1_EP,1,341,2021-11-30T23:22:02+00:00,11.044747114182,2,versionA_stim.csv,READVersionB.csv,"Read Version B","Dissertation, read only version B",HAPPY,CAR,Study1,U,77,73,Test,User,-,,Recall,Recall2,10747,puppy,0,1284,10572,0,0,,1
w10108633_kcc,ajej7y8fww,Nick_Dissertation_EX1_EP,1,342,2021-11-30T23:22:05+00:00,2.4302699565887,2,versionA_stim.csv,READVersionB.csv,"Read Version B","Dissertation, read only version B",DRINK,SIP,Study1,B,27,46,Test,User,-,,Recall,Recall2,2150,water,0,1465,2024,0,0,,1
w10108633_kcc,ajej7y8fww,Nick_Dissertation_EX1_EP,1,343,2021-11-30T23:22:16+00:00,11.108834981918,2,versionA_stim.csv,READVersionB.csv,"Read Version B","Dissertation, read only version B",STRONG,ACCIDENT,Study1,U,80,43,Test,User,-,,Recall,Recall2,10766,wind,33.333333333333,10235,10663,0,0,,1
w10108633_kcc,ajej7y8fww,Nick_Dissertation_EX1_EP,1,344,2021-11-30T23:22:20+00:00,3.7181580066681,2,versionA_stim.csv,READVersionB.csv,"Read Version B","Dissertation, read only version B",POP,SODA,Study1,S,56,25,Test,User,-,,Recall,Recall2,3422,soda,100,2852,3296,1,1,,1
w10108633_kcc,ajej7y8fww,Nick_Dissertation_EX1_EP,1,345,2021-11-30T23:22:26+00:00,6.5033400058746,2,versionA_stim.csv,READVersionB.csv,"Read Version B","Dissertation, read only version B",DISCOVER,FLOOR,Study1,U,71,86,Test,User,-,,Recall,Recall2,6206,adventure,14.285714285714,4839,6028,0,0,,1
w10108633_kcc,ajej7y8fww,Nick_Dissertation_EX1_EP,1,346,2021-11-30T23:22:30+00:00,3.6542789936066,2,versionA_stim.csv,READVersionB.csv,"Read Version B","Dissertation, read only version B",PAW,DOG,Study1,F,15,65,Test,User,-,,Recall,Recall2,3239,puppy,0,2400,3054,0,0,,1
w10108633_kcc,ajej7y8fww,Nick_Dissertation_EX1_EP,1,347,2021-11-30T23:22:36+00:00,6.2404761314392,2,versionA_stim.csv,READVersionB.csv,"Read Version B","Dissertation, read only version B",SLEEP,DROWSY,Study1,B,41,13,Test,User,-,,Recall,Recall2,5913,,0,4252,4793,0,0,,1
w10108633_kcc,ajej7y8fww,Nick_Dissertation_EX1_EP,1,348,2021-11-30T23:22:38+00:00,2.139349937439,2,versionA_stim.csv,READVersionB.csv,"Read Version B","Dissertation, read only version B",DARK,CAVE,Study1,B,28,74,Test,User,-,,Recall,Recall2,1836,light,0,1344,1755,0,0,,1
w10108633_kcc,ajej7y8fww,Nick_Dissertation_EX1_EP,1,349,2021-11-30T23:22:41+00:00,2.8965668678284,2,versionA_stim.csv,READVersionB.csv,"Read Version B","Dissertation, read only version B",HIDE,SICK,Study1,U,84,70,Test,User,-,,Recall,Recall2,2592,fear,0,2096,2451,0,0,,1
w10108633_kcc,ajej7y8fww,Nick_Dissertation_EX1_EP,1,350,2021-11-30T23:22:46+00:00,5.3642091751099,2,versionA_stim.csv,READVersionB.csv,"Read Version B","Dissertation, read only version B",ALLOW,TUCK,Study1,U,78,11,Test,User,-,,Recall,Recall2,5055,in,0,4746,4909,0,0,,1
w10108633_kcc,ajej7y8fww,Nick_Dissertation_EX1_EP,1,351,2021-11-30T23:22:51+00:00,4.2423808574677,2,versionA_stim.csv,READVersionB.csv,"Read Version B","Dissertation, read only version B",MACHINE,POSITION,Study1,U,76,31,Test,User,-,,Recall,Recall2,3956,person,57.142857142857,3174,3717,0,0,,1
w10108633_kcc,ajej7y8fww,Nick_Dissertation_EX1_EP,1,352,2021-11-30T23:22:52+00:00,0.9596221446991,2,versionA_stim.csv,READVersionB.csv,"Read Version B","Dissertation, read only version B",,,,,,0,Instruct,User,-,"You have completed this section. Please press Enter.",,Instruct7,673,,,-1,-1,,,,1
w10108633_kcc,ajej7y8fww,Nick_Dissertation_EX1_EP,1,353,2021-11-30T23:22:54+00:00,2.312304019928,2,versionA_stim.csv,READVersionB.csv,"Read Version B","Dissertation, read only version B",,,,,,0,Instruct,User,-,"The following screen will ask you a few questions abour your experience today. You must complete these questions to receive credit.",,Instruct8,2039,,,-1,-1,,,,1
