Username,ID,ExperimentName,Session,Trial,Date,TimeDif,"Condition Number","Stimuli File","Order File","Condition Description","Condition Notes",Stimuli*Cue,Stimuli*Answer,Stimuli*Shuffle,"Stimuli*Stimuli Notes",Stimuli*Value,Procedure*Item,"Procedure*Trial Type","Procedure*Max Time","Procedure*Min Time",Procedure*Text,"Procedure*Procedure Notes",Procedure*Shuffle,Response*RT,Response*Response,Response*Accuracy,Response*RTfirst,Response*RTlast,Response*strictAcc,Response*lenientAcc,Response*focus,Response*Focus
w10029079_mjm,fuyc1lafgw,Nick_Dissertation_EX1_EP,1,1,2021-11-04T22:19:32+00:00,6.5648059844971,1,versionA_stim.csv,READVersionA.csv,"Read Version A","Dissertation, read only version A",,,,,,0,Instruct,-,5,"In this section, you will be presented with a series of word pairs.",Initial_Instruct,Instruct1,6300,,,-1,-1,,,,1
w10029079_mjm,fuyc1lafgw,Nick_Dissertation_EX1_EP,1,2,2021-11-04T22:19:42+00:00,10.970515012741,1,versionA_stim.csv,READVersionA.csv,"Read Version A","Dissertation, read only version A",,,,,,0,Instruct,-,10,"Each word will be displayed on the computer screen for 8 seconds. The screen will automatically move to the next pair when time is up. Please study each pair. Your memory will be tested!",,Instruct15,10644,,,-1,-1,,,,1
w10029079_mjm,fuyc1lafgw,Nick_Dissertation_EX1_EP,1,3,2021-11-04T22:19:44+00:00,1.8360059261322,1,versionA_stim.csv,READVersionA.csv,"Read Version A","Dissertation, read only version A",,,,,,0,Instruct,User,-,"You will now begin the study. Press Enter when you are ready to begin.",,Instruct16,1609,,,-1,-1,,,,1
w10029079_mjm,fuyc1lafgw,Nick_Dissertation_EX1_EP,1,4,2021-11-04T22:19:53+00:00,8.2164940834045,1,versionA_stim.csv,READVersionA.csv,"Read Version A","Dissertation, read only version A",PEANUT,BUTTER,BUFFER1,Buffer,3,6,Study,8,8,,Study/JOL,BUFFER,8002,,,-1,-1,,,,1
w10029079_mjm,fuyc1lafgw,Nick_Dissertation_EX1_EP,1,5,2021-11-04T22:20:01+00:00,8.263739824295,1,versionA_stim.csv,READVersionA.csv,"Read Version A","Dissertation, read only version A",SCARE,HIDE,BUFFER1,Buffer,4,4,Study,8,8,,Study/JOL,BUFFER,8005,,,-1,-1,,,,1
w10029079_mjm,fuyc1lafgw,Nick_Dissertation_EX1_EP,1,6,2021-11-04T22:20:09+00:00,8.3313081264496,1,versionA_stim.csv,READVersionA.csv,"Read Version A","Dissertation, read only version A",BASEBALL,CATCHER,BUFFER1,Buffer,2,5,Study,8,8,,Study/JOL,BUFFER,8002,,,-1,-1,,,,1
w10029079_mjm,fuyc1lafgw,Nick_Dissertation_EX1_EP,1,7,2021-11-04T22:20:17+00:00,8.2188708782196,1,versionA_stim.csv,READVersionA.csv,"Read Version A","Dissertation, read only version A",SPACE,JAM,BUFFER1,Buffer,5,3,Study,8,8,,Study/JOL,BUFFER,8003,,,-1,-1,,,,1
w10029079_mjm,fuyc1lafgw,Nick_Dissertation_EX1_EP,1,8,2021-11-04T22:20:26+00:00,8.2251961231232,1,versionA_stim.csv,READVersionA.csv,"Read Version A","Dissertation, read only version A",TREES,GREEN,BUFFER1,Buffer,1,2,Study,8,8,,Study/JOL,BUFFER,8002,,,-1,-1,,,,1
w10029079_mjm,fuyc1lafgw,Nick_Dissertation_EX1_EP,1,9,2021-11-04T22:20:34+00:00,8.2194068431854,1,versionA_stim.csv,READVersionA.csv,"Read Version A","Dissertation, read only version A",BLOW,WIND,Study1,S,55,39,Study,8,8,,Study/JOL,"Study Phase",8002,,,-1,-1,,,,0.762
w10029079_mjm,fuyc1lafgw,Nick_Dissertation_EX1_EP,1,10,2021-11-04T22:20:42+00:00,8.2244160175323,1,versionA_stim.csv,READVersionA.csv,"Read Version A","Dissertation, read only version A",DIGESTION,STOMACH,Study1,F,7,63,Study,8,8,,Study/JOL,"Study Phase",8003,,,-1,-1,,,,0.783
w10029079_mjm,fuyc1lafgw,Nick_Dissertation_EX1_EP,1,11,2021-11-04T22:20:51+00:00,8.8485341072083,1,versionA_stim.csv,READVersionA.csv,"Read Version A","Dissertation, read only version A",TAKE,SEIZE,Study1,B,29,81,Study,8,8,,Study/JOL,"Study Phase",8003,,,-1,-1,,,,1
w10029079_mjm,fuyc1lafgw,Nick_Dissertation_EX1_EP,1,12,2021-11-04T22:20:59+00:00,8.2220380306244,1,versionA_stim.csv,READVersionA.csv,"Read Version A","Dissertation, read only version A",CLOTHES,ATTIRE,Study1,B,43,49,Study,8,8,,Study/JOL,"Study Phase",8001,,,-1,-1,,,,1
w10029079_mjm,fuyc1lafgw,Nick_Dissertation_EX1_EP,1,13,2021-11-04T22:21:08+00:00,8.417181968689,1,versionA_stim.csv,READVersionA.csv,"Read Version A","Dissertation, read only version A",FIX,HAND,Study1,U,75,56,Study,8,8,,Study/JOL,"Study Phase",8131,,,-1,-1,,,,0.846
w10029079_mjm,fuyc1lafgw,Nick_Dissertation_EX1_EP,1,14,2021-11-04T22:21:16+00:00,8.2074398994446,1,versionA_stim.csv,READVersionA.csv,"Read Version A","Dissertation, read only version A",ALLOW,TUCK,Study1,U,78,80,Study,8,8,,Study/JOL,"Study Phase",8002,,,-1,-1,,,,0.783
w10029079_mjm,fuyc1lafgw,Nick_Dissertation_EX1_EP,1,15,2021-11-04T22:21:24+00:00,8.2292540073395,1,versionA_stim.csv,READVersionA.csv,"Read Version A","Dissertation, read only version A",DUMP,WASTE,Study1,S,49,29,Study,8,8,,Study/JOL,"Study Phase",8002,,,-1,-1,,,,1
w10029079_mjm,fuyc1lafgw,Nick_Dissertation_EX1_EP,1,16,2021-11-04T22:21:32+00:00,8.2192800045013,1,versionA_stim.csv,READVersionA.csv,"Read Version A","Dissertation, read only version A",HYGIENE,CLEAN,Study1,F,17,67,Study,8,8,,Study/JOL,"Study Phase",8004,,,-1,-1,,,,1
w10029079_mjm,fuyc1lafgw,Nick_Dissertation_EX1_EP,1,17,2021-11-04T22:21:40+00:00,8.2118360996246,1,versionA_stim.csv,READVersionA.csv,"Read Version A","Dissertation, read only version A",EDITOR,NEWS,Study1,F,10,23,Study,8,8,,Study/JOL,"Study Phase",8002,,,-1,-1,,,,1
w10029079_mjm,fuyc1lafgw,Nick_Dissertation_EX1_EP,1,18,2021-11-04T22:21:49+00:00,8.2165129184723,1,versionA_stim.csv,READVersionA.csv,"Read Version A","Dissertation, read only version A",KING,VASE,Study1,U,85,34,Study,8,8,,Study/JOL,"Study Phase",8003,,,-1,-1,,,,1
w10029079_mjm,fuyc1lafgw,Nick_Dissertation_EX1_EP,1,19,2021-11-04T22:21:57+00:00,8.3239319324493,1,versionA_stim.csv,READVersionA.csv,"Read Version A","Dissertation, read only version A",DRINK,SIP,Study1,B,27,30,Study,8,8,,Study/JOL,"Study Phase",8001,,,-1,-1,,,,1
w10029079_mjm,fuyc1lafgw,Nick_Dissertation_EX1_EP,1,20,2021-11-04T22:22:05+00:00,8.2308490276337,1,versionA_stim.csv,READVersionA.csv,"Read Version A","Dissertation, read only version A",ART,LION,Study1,U,79,74,Study,8,8,,Study/JOL,"Study Phase",8004,,,-1,-1,,,,1
w10029079_mjm,fuyc1lafgw,Nick_Dissertation_EX1_EP,1,21,2021-11-04T22:22:14+00:00,8.3486371040344,1,versionA_stim.csv,READVersionA.csv,"Read Version A","Dissertation, read only version A",WINE,CHEESE,Study1,S,57,38,Study,8,8,,Study/JOL,"Study Phase",8002,,,-1,-1,,,,1
w10029079_mjm,fuyc1lafgw,Nick_Dissertation_EX1_EP,1,22,2021-11-04T22:22:22+00:00,8.2124269008636,1,versionA_stim.csv,READVersionA.csv,"Read Version A","Dissertation, read only version A",CREDIT,CARD,Study1,F,23,77,Study,8,8,,Study/JOL,"Study Phase",8002,,,-1,-1,,,,1
w10029079_mjm,fuyc1lafgw,Nick_Dissertation_EX1_EP,1,23,2021-11-04T22:22:30+00:00,8.3296010494232,1,versionA_stim.csv,READVersionA.csv,"Read Version A","Dissertation, read only version A",LAW,ATTORNEY,Study1,B,34,75,Study,8,8,,Study/JOL,"Study Phase",8002,,,-1,-1,,,,1
w10029079_mjm,fuyc1lafgw,Nick_Dissertation_EX1_EP,1,24,2021-11-04T22:22:38+00:00,8.2028539180756,1,versionA_stim.csv,READVersionA.csv,"Read Version A","Dissertation, read only version A",BRIDGE,WATER,Study1,F,18,37,Study,8,8,,Study/JOL,"Study Phase",8002,,,-1,-1,,,,1
w10029079_mjm,fuyc1lafgw,Nick_Dissertation_EX1_EP,1,25,2021-11-04T22:22:46+00:00,8.2244231700897,1,versionA_stim.csv,READVersionA.csv,"Read Version A","Dissertation, read only version A",POP,SODA,Study1,S,56,7,Study,8,8,,Study/JOL,"Study Phase",8004,,,-1,-1,,,,1
w10029079_mjm,fuyc1lafgw,Nick_Dissertation_EX1_EP,1,26,2021-11-04T22:22:55+00:00,8.2818360328674,1,versionA_stim.csv,READVersionA.csv,"Read Version A","Dissertation, read only version A",LOCATION,SITE,Study1,S,48,50,Study,8,8,,Study/JOL,"Study Phase",8002,,,-1,-1,,,,0.667
w10029079_mjm,fuyc1lafgw,Nick_Dissertation_EX1_EP,1,27,2021-11-04T22:23:03+00:00,8.2505660057068,1,versionA_stim.csv,READVersionA.csv,"Read Version A","Dissertation, read only version A",SUGAR,RIDDLE,Study1,U,81,12,Study,8,8,,Study/JOL,"Study Phase",8027,,,-1,-1,,,,0.81
w10029079_mjm,fuyc1lafgw,Nick_Dissertation_EX1_EP,1,28,2021-11-04T22:23:11+00:00,8.246248960495,1,versionA_stim.csv,READVersionA.csv,"Read Version A","Dissertation, read only version A",SWAN,BIRD,Study1,F,14,82,Study,8,8,,Study/JOL,"Study Phase",8001,,,-1,-1,,,,0.575
w10029079_mjm,fuyc1lafgw,Nick_Dissertation_EX1_EP,1,29,2021-11-04T22:23:19+00:00,8.1977269649506,1,versionA_stim.csv,READVersionA.csv,"Read Version A","Dissertation, read only version A",REVOLUTION,WAR,Study1,F,20,60,Study,8,8,,Study/JOL,"Study Phase",8003,,,-1,-1,,,,0.325
w10029079_mjm,fuyc1lafgw,Nick_Dissertation_EX1_EP,1,30,2021-11-04T22:23:28+00:00,8.199588060379,1,versionA_stim.csv,READVersionA.csv,"Read Version A","Dissertation, read only version A",DISCUSSION,TALK,Study1,F,21,85,Study,8,8,,Study/JOL,"Study Phase",8001,,,-1,-1,,,,0.3
w10029079_mjm,fuyc1lafgw,Nick_Dissertation_EX1_EP,1,31,2021-11-04T22:23:36+00:00,8.2288508415222,1,versionA_stim.csv,READVersionA.csv,"Read Version A","Dissertation, read only version A",HEIGHT,GROWTH,Study1,B,30,35,Study,8,8,,Study/JOL,"Study Phase",8005,,,-1,-1,,,,0.625
w10029079_mjm,fuyc1lafgw,Nick_Dissertation_EX1_EP,1,32,2021-11-04T22:23:44+00:00,8.2390930652618,1,versionA_stim.csv,READVersionA.csv,"Read Version A","Dissertation, read only version A",DEATH,BUSINESS,Study1,U,72,26,Study,8,8,,Study/JOL,"Study Phase",8003,,,-1,-1,,,,0.122
w10029079_mjm,fuyc1lafgw,Nick_Dissertation_EX1_EP,1,33,2021-11-04T22:23:52+00:00,8.3272149562836,1,versionA_stim.csv,READVersionA.csv,"Read Version A","Dissertation, read only version A",PAST,FUTURE,Study1,S,61,44,Study,8,8,,Study/JOL,"Study Phase",8001,,,-1,-1,,,,1
w10029079_mjm,fuyc1lafgw,Nick_Dissertation_EX1_EP,1,34,2021-11-04T22:24:01+00:00,8.466295003891,1,versionA_stim.csv,READVersionA.csv,"Read Version A","Dissertation, read only version A",KIDNEY,LIVER,Study1,S,53,59,Study,8,8,,Study/JOL,"Study Phase",8002,,,-1,-1,,,,1
w10029079_mjm,fuyc1lafgw,Nick_Dissertation_EX1_EP,1,35,2021-11-04T22:24:09+00:00,8.2440781593323,1,versionA_stim.csv,READVersionA.csv,"Read Version A","Dissertation, read only version A",TRIAL,JURY,Study1,S,50,70,Study,8,8,,Study/JOL,"Study Phase",8002,,,-1,-1,,,,1
w10029079_mjm,fuyc1lafgw,Nick_Dissertation_EX1_EP,1,36,2021-11-04T22:24:17+00:00,8.2208549976349,1,versionA_stim.csv,READVersionA.csv,"Read Version A","Dissertation, read only version A",PUSHER,CLUTTER,Study1,U,66,48,Study,8,8,,Study/JOL,"Study Phase",8003,,,-1,-1,,,,1
w10029079_mjm,fuyc1lafgw,Nick_Dissertation_EX1_EP,1,37,2021-11-04T22:24:26+00:00,8.2147378921509,1,versionA_stim.csv,READVersionA.csv,"Read Version A","Dissertation, read only version A",CIRCLE,ROUND,Study1,S,65,24,Study,8,8,,Study/JOL,"Study Phase",8004,,,-1,-1,,,,1
w10029079_mjm,fuyc1lafgw,Nick_Dissertation_EX1_EP,1,38,2021-11-04T22:24:34+00:00,8.3030610084534,1,versionA_stim.csv,READVersionA.csv,"Read Version A","Dissertation, read only version A",VALLEY,ADD,Study1,U,82,84,Study,8,8,,Study/JOL,"Study Phase",8002,,,-1,-1,,,,1
w10029079_mjm,fuyc1lafgw,Nick_Dissertation_EX1_EP,1,39,2021-11-04T22:24:42+00:00,8.3068010807037,1,versionA_stim.csv,READVersionA.csv,"Read Version A","Dissertation, read only version A",FULL,ENOUGH,Study1,B,26,76,Study,8,8,,Study/JOL,"Study Phase",8002,,,-1,-1,,,,1
w10029079_mjm,fuyc1lafgw,Nick_Dissertation_EX1_EP,1,40,2021-11-04T22:24:50+00:00,8.2314488887787,1,versionA_stim.csv,READVersionA.csv,"Read Version A","Dissertation, read only version A",HAPPY,CAR,Study1,U,77,42,Study,8,8,,Study/JOL,"Study Phase",8001,,,-1,-1,,,,1
w10029079_mjm,fuyc1lafgw,Nick_Dissertation_EX1_EP,1,41,2021-11-04T22:24:59+00:00,8.1997170448303,1,versionA_stim.csv,READVersionA.csv,"Read Version A","Dissertation, read only version A",HIDE,SICK,Study1,U,84,45,Study,8,8,,Study/JOL,"Study Phase",8002,,,-1,-1,,,,1
w10029079_mjm,fuyc1lafgw,Nick_Dissertation_EX1_EP,1,42,2021-11-04T22:25:07+00:00,8.2385408878326,1,versionA_stim.csv,READVersionA.csv,"Read Version A","Dissertation, read only version A",DEBATE,SIGHT,Study1,U,73,19,Study,8,8,,Study/JOL,"Study Phase",8003,,,-1,-1,,,,1
w10029079_mjm,fuyc1lafgw,Nick_Dissertation_EX1_EP,1,43,2021-11-04T22:25:15+00:00,8.2317600250244,1,versionA_stim.csv,READVersionA.csv,"Read Version A","Dissertation, read only version A",BITTER,COLD,Study1,F,12,83,Study,8,8,,Study/JOL,"Study Phase",8002,,,-1,-1,,,,1
w10029079_mjm,fuyc1lafgw,Nick_Dissertation_EX1_EP,1,44,2021-11-04T22:25:23+00:00,8.3259329795837,1,versionA_stim.csv,READVersionA.csv,"Read Version A","Dissertation, read only version A",GEOLOGY,ROCK,Study1,F,19,54,Study,8,8,,Study/JOL,"Study Phase",8002,,,-1,-1,,,,1
w10029079_mjm,fuyc1lafgw,Nick_Dissertation_EX1_EP,1,45,2021-11-04T22:25:32+00:00,8.2106339931488,1,versionA_stim.csv,READVersionA.csv,"Read Version A","Dissertation, read only version A",DUE,ASSIGNMENT,Study1,S,46,47,Study,8,8,,Study/JOL,"Study Phase",8003,,,-1,-1,,,,1
w10029079_mjm,fuyc1lafgw,Nick_Dissertation_EX1_EP,1,46,2021-11-04T22:25:40+00:00,8.2161631584167,1,versionA_stim.csv,READVersionA.csv,"Read Version A","Dissertation, read only version A",ARCHITECTURE,DESIGN,Study1,S,51,41,Study,8,8,,Study/JOL,"Study Phase",8003,,,-1,-1,,,,1
w10029079_mjm,fuyc1lafgw,Nick_Dissertation_EX1_EP,1,47,2021-11-04T22:25:48+00:00,8.2401180267334,1,versionA_stim.csv,READVersionA.csv,"Read Version A","Dissertation, read only version A",DISCOVER,FLOOR,Study1,U,71,40,Study,8,8,,Study/JOL,"Study Phase",8001,,,-1,-1,,,,1
w10029079_mjm,fuyc1lafgw,Nick_Dissertation_EX1_EP,1,48,2021-11-04T22:25:57+00:00,8.4960470199585,1,versionA_stim.csv,READVersionA.csv,"Read Version A","Dissertation, read only version A",SHOE,FOOT,Study1,S,60,17,Study,8,8,,Study/JOL,"Study Phase",8150,,,-1,-1,,,,0.538
w10029079_mjm,fuyc1lafgw,Nick_Dissertation_EX1_EP,1,49,2021-11-04T22:26:06+00:00,9.0824458599091,1,versionA_stim.csv,READVersionA.csv,"Read Version A","Dissertation, read only version A",HERD,COW,Study1,F,22,13,Study,8,8,,Study/JOL,"Study Phase",8865,,,-1,-1,,,,0
w10029079_mjm,fuyc1lafgw,Nick_Dissertation_EX1_EP,1,50,2021-11-04T22:26:15+00:00,8.8945031166077,1,versionA_stim.csv,READVersionA.csv,"Read Version A","Dissertation, read only version A",MACHINE,POSITION,Study1,U,76,33,Study,8,8,,Study/JOL,"Study Phase",8560,,,-1,-1,,,,0.273
w10029079_mjm,fuyc1lafgw,Nick_Dissertation_EX1_EP,1,51,2021-11-04T22:26:23+00:00,8.2911958694458,1,versionA_stim.csv,READVersionA.csv,"Read Version A","Dissertation, read only version A",KEY,LATCH,Study1,B,36,20,Study,8,8,,Study/JOL,"Study Phase",8002,,,-1,-1,,,,0.792
w10029079_mjm,fuyc1lafgw,Nick_Dissertation_EX1_EP,1,52,2021-11-04T22:26:31+00:00,8.2209780216217,1,versionA_stim.csv,READVersionA.csv,"Read Version A","Dissertation, read only version A",DELINQUENT,BAD,Study1,F,6,28,Study,8,8,,Study/JOL,"Study Phase",8002,,,-1,-1,,,,1
w10029079_mjm,fuyc1lafgw,Nick_Dissertation_EX1_EP,1,53,2021-11-04T22:26:39+00:00,8.2230501174927,1,versionA_stim.csv,READVersionA.csv,"Read Version A","Dissertation, read only version A",ARTERY,BRONZE,Study1,U,74,36,Study,8,8,,Study/JOL,"Study Phase",8003,,,-1,-1,,,,1
w10029079_mjm,fuyc1lafgw,Nick_Dissertation_EX1_EP,1,54,2021-11-04T22:26:48+00:00,8.2292799949646,1,versionA_stim.csv,READVersionA.csv,"Read Version A","Dissertation, read only version A",HUNGER,FAMINE,Study1,B,40,66,Study,8,8,,Study/JOL,"Study Phase",8002,,,-1,-1,,,,1
w10029079_mjm,fuyc1lafgw,Nick_Dissertation_EX1_EP,1,55,2021-11-04T22:26:56+00:00,8.2601208686829,1,versionA_stim.csv,READVersionA.csv,"Read Version A","Dissertation, read only version A",NUMBER,AMOUNT,Study1,S,47,65,Study,8,8,,Study/JOL,"Study Phase",8003,,,-1,-1,,,,1
w10029079_mjm,fuyc1lafgw,Nick_Dissertation_EX1_EP,1,56,2021-11-04T22:27:04+00:00,8.2286520004272,1,versionA_stim.csv,READVersionA.csv,"Read Version A","Dissertation, read only version A",LIFT,WOMAN,Study1,U,69,46,Study,8,8,,Study/JOL,"Study Phase",8002,,,-1,-1,,,,1
w10029079_mjm,fuyc1lafgw,Nick_Dissertation_EX1_EP,1,57,2021-11-04T22:27:12+00:00,8.2103929519653,1,versionA_stim.csv,READVersionA.csv,"Read Version A","Dissertation, read only version A",WORK,CHORE,Study1,B,39,71,Study,8,8,,Study/JOL,"Study Phase",8001,,,-1,-1,,,,1
w10029079_mjm,fuyc1lafgw,Nick_Dissertation_EX1_EP,1,58,2021-11-04T22:27:20+00:00,8.2303810119629,1,versionA_stim.csv,READVersionA.csv,"Read Version A","Dissertation, read only version A",STRONG,ACCIDENT,Study1,U,80,11,Study,8,8,,Study/JOL,"Study Phase",8003,,,-1,-1,,,,1
w10029079_mjm,fuyc1lafgw,Nick_Dissertation_EX1_EP,1,59,2021-11-04T22:27:29+00:00,8.2309801578522,1,versionA_stim.csv,READVersionA.csv,"Read Version A","Dissertation, read only version A",WAY,OUT,Study1,F,16,52,Study,8,8,,Study/JOL,"Study Phase",8002,,,-1,-1,,,,1
w10029079_mjm,fuyc1lafgw,Nick_Dissertation_EX1_EP,1,60,2021-11-04T22:27:37+00:00,8.216029882431,1,versionA_stim.csv,READVersionA.csv,"Read Version A","Dissertation, read only version A",MATH,DIVISION,Study1,B,33,61,Study,8,8,,Study/JOL,"Study Phase",8002,,,-1,-1,,,,1
w10029079_mjm,fuyc1lafgw,Nick_Dissertation_EX1_EP,1,61,2021-11-04T22:27:45+00:00,8.2602469921112,1,versionA_stim.csv,READVersionA.csv,"Read Version A","Dissertation, read only version A",BABY,CHILD,Study1,S,64,16,Study,8,8,,Study/JOL,"Study Phase",8002,,,-1,-1,,,,1
w10029079_mjm,fuyc1lafgw,Nick_Dissertation_EX1_EP,1,62,2021-11-04T22:27:53+00:00,8.2467460632324,1,versionA_stim.csv,READVersionA.csv,"Read Version A","Dissertation, read only version A",PAW,DOG,Study1,F,15,10,Study,8,8,,Study/JOL,"Study Phase",8002,,,-1,-1,,,,1
w10029079_mjm,fuyc1lafgw,Nick_Dissertation_EX1_EP,1,63,2021-11-04T22:28:02+00:00,8.2155258655548,1,versionA_stim.csv,READVersionA.csv,"Read Version A","Dissertation, read only version A",WAGE,MONEY,Study1,F,8,14,Study,8,8,,Study/JOL,"Study Phase",8002,,,-1,-1,,,,1
w10029079_mjm,fuyc1lafgw,Nick_Dissertation_EX1_EP,1,64,2021-11-04T22:28:10+00:00,8.2075040340424,1,versionA_stim.csv,READVersionA.csv,"Read Version A","Dissertation, read only version A",BALL,RACKET,Study1,B,38,86,Study,8,8,,Study/JOL,"Study Phase",8005,,,-1,-1,,,,1
w10029079_mjm,fuyc1lafgw,Nick_Dissertation_EX1_EP,1,65,2021-11-04T22:28:18+00:00,8.2144310474396,1,versionA_stim.csv,READVersionA.csv,"Read Version A","Dissertation, read only version A",BATHROOM,TOILET,Study1,S,58,58,Study,8,8,,Study/JOL,"Study Phase",8002,,,-1,-1,,,,1
w10029079_mjm,fuyc1lafgw,Nick_Dissertation_EX1_EP,1,66,2021-11-04T22:28:26+00:00,8.2346949577332,1,versionA_stim.csv,READVersionA.csv,"Read Version A","Dissertation, read only version A",GREAT,FANTASTIC,Study1,B,35,22,Study,8,8,,Study/JOL,"Study Phase",8002,,,-1,-1,,,,1
w10029079_mjm,fuyc1lafgw,Nick_Dissertation_EX1_EP,1,67,2021-11-04T22:28:35+00:00,8.2365829944611,1,versionA_stim.csv,READVersionA.csv,"Read Version A","Dissertation, read only version A",DARK,CAVE,Study1,B,28,62,Study,8,8,,Study/JOL,"Study Phase",8004,,,-1,-1,,,,1
w10029079_mjm,fuyc1lafgw,Nick_Dissertation_EX1_EP,1,68,2021-11-04T22:28:43+00:00,8.2212829589844,1,versionA_stim.csv,READVersionA.csv,"Read Version A","Dissertation, read only version A",CASH,WOULD,Study1,U,83,69,Study,8,8,,Study/JOL,"Study Phase",8002,,,-1,-1,,,,1
w10029079_mjm,fuyc1lafgw,Nick_Dissertation_EX1_EP,1,69,2021-11-04T22:28:51+00:00,8.2185142040253,1,versionA_stim.csv,READVersionA.csv,"Read Version A","Dissertation, read only version A",DIETARY,SACKING,Study1,U,67,15,Study,8,8,,Study/JOL,"Study Phase",8003,,,-1,-1,,,,1
w10029079_mjm,fuyc1lafgw,Nick_Dissertation_EX1_EP,1,70,2021-11-04T22:28:59+00:00,8.2431788444519,1,versionA_stim.csv,READVersionA.csv,"Read Version A","Dissertation, read only version A",PLANE,PILOT,Study1,B,44,53,Study,8,8,,Study/JOL,"Study Phase",8002,,,-1,-1,,,,1
w10029079_mjm,fuyc1lafgw,Nick_Dissertation_EX1_EP,1,71,2021-11-04T22:29:07+00:00,8.250636100769,1,versionA_stim.csv,READVersionA.csv,"Read Version A","Dissertation, read only version A",LETTUCE,SALAD,Study1,S,59,31,Study,8,8,,Study/JOL,"Study Phase",8002,,,-1,-1,,,,1
w10029079_mjm,fuyc1lafgw,Nick_Dissertation_EX1_EP,1,72,2021-11-04T22:29:16+00:00,8.235002040863,1,versionA_stim.csv,READVersionA.csv,"Read Version A","Dissertation, read only version A",ROOT,PLANT,Study1,F,13,21,Study,8,8,,Study/JOL,"Study Phase",8002,,,-1,-1,,,,1
w10029079_mjm,fuyc1lafgw,Nick_Dissertation_EX1_EP,1,73,2021-11-04T22:29:24+00:00,8.2373719215393,1,versionA_stim.csv,READVersionA.csv,"Read Version A","Dissertation, read only version A",MEANING,DEFINITION,Study1,S,62,18,Study,8,8,,Study/JOL,"Study Phase",8002,,,-1,-1,,,,1
w10029079_mjm,fuyc1lafgw,Nick_Dissertation_EX1_EP,1,74,2021-11-04T22:29:32+00:00,8.2288930416107,1,versionA_stim.csv,READVersionA.csv,"Read Version A","Dissertation, read only version A",BUG,WASP,Study1,B,32,78,Study,8,8,,Study/JOL,"Study Phase",8002,,,-1,-1,,,,1
w10029079_mjm,fuyc1lafgw,Nick_Dissertation_EX1_EP,1,75,2021-11-04T22:29:40+00:00,8.2971749305725,1,versionA_stim.csv,READVersionA.csv,"Read Version A","Dissertation, read only version A",SOON,BELT,Study1,U,70,9,Study,8,8,,Study/JOL,"Study Phase",8005,,,-1,-1,,,,1
w10029079_mjm,fuyc1lafgw,Nick_Dissertation_EX1_EP,1,76,2021-11-04T22:29:49+00:00,8.2259929180145,1,versionA_stim.csv,READVersionA.csv,"Read Version A","Dissertation, read only version A",TUNA,FISH,Study1,F,25,73,Study,8,8,,Study/JOL,"Study Phase",8002,,,-1,-1,,,,1
w10029079_mjm,fuyc1lafgw,Nick_Dissertation_EX1_EP,1,77,2021-11-04T22:29:57+00:00,8.2319450378418,1,versionA_stim.csv,READVersionA.csv,"Read Version A","Dissertation, read only version A",FIRE,BLAZE,Study1,B,45,27,Study,8,8,,Study/JOL,"Study Phase",8004,,,-1,-1,,,,1
w10029079_mjm,fuyc1lafgw,Nick_Dissertation_EX1_EP,1,78,2021-11-04T22:30:05+00:00,8.2288010120392,1,versionA_stim.csv,READVersionA.csv,"Read Version A","Dissertation, read only version A",BEGIN,END,Study1,S,54,64,Study,8,8,,Study/JOL,"Study Phase",8002,,,-1,-1,,,,1
w10029079_mjm,fuyc1lafgw,Nick_Dissertation_EX1_EP,1,79,2021-11-04T22:30:13+00:00,8.2332611083984,1,versionA_stim.csv,READVersionA.csv,"Read Version A","Dissertation, read only version A",HORNET,STING,Study1,F,11,8,Study,8,8,,Study/JOL,"Study Phase",8002,,,-1,-1,,,,1
w10029079_mjm,fuyc1lafgw,Nick_Dissertation_EX1_EP,1,80,2021-11-04T22:30:22+00:00,8.2165060043335,1,versionA_stim.csv,READVersionA.csv,"Read Version A","Dissertation, read only version A",PARK,HUNGRY,Study1,U,68,72,Study,8,8,,Study/JOL,"Study Phase",8001,,,-1,-1,,,,1
w10029079_mjm,fuyc1lafgw,Nick_Dissertation_EX1_EP,1,81,2021-11-04T22:30:30+00:00,8.3267409801483,1,versionA_stim.csv,READVersionA.csv,"Read Version A","Dissertation, read only version A",HOT,CHILI,Study1,B,37,68,Study,8,8,,Study/JOL,"Study Phase",8001,,,-1,-1,,,,1
w10029079_mjm,fuyc1lafgw,Nick_Dissertation_EX1_EP,1,82,2021-11-04T22:30:38+00:00,8.2275218963623,1,versionA_stim.csv,READVersionA.csv,"Read Version A","Dissertation, read only version A",SLEEP,DROWSY,Study1,B,41,51,Study,8,8,,Study/JOL,"Study Phase",8005,,,-1,-1,,,,1
w10029079_mjm,fuyc1lafgw,Nick_Dissertation_EX1_EP,1,83,2021-11-04T22:30:47+00:00,8.3701009750366,1,versionA_stim.csv,READVersionA.csv,"Read Version A","Dissertation, read only version A",SMELL,STENCH,Study1,B,42,57,Study,8,8,,Study/JOL,"Study Phase",8003,,,-1,-1,,,,1
w10029079_mjm,fuyc1lafgw,Nick_Dissertation_EX1_EP,1,84,2021-11-04T22:30:55+00:00,8.2593870162964,1,versionA_stim.csv,READVersionA.csv,"Read Version A","Dissertation, read only version A",HONEY,BEE,Study1,S,63,43,Study,8,8,,Study/JOL,"Study Phase",8003,,,-1,-1,,,,1
w10029079_mjm,fuyc1lafgw,Nick_Dissertation_EX1_EP,1,85,2021-11-04T22:31:03+00:00,8.339231967926,1,versionA_stim.csv,READVersionA.csv,"Read Version A","Dissertation, read only version A",GRILL,BAR,Study1,S,52,25,Study,8,8,,Study/JOL,"Study Phase",8002,,,-1,-1,,,,1
w10029079_mjm,fuyc1lafgw,Nick_Dissertation_EX1_EP,1,86,2021-11-04T22:31:11+00:00,8.3738341331482,1,versionA_stim.csv,READVersionA.csv,"Read Version A","Dissertation, read only version A",CHISEL,HAMMER,Study1,F,9,32,Study,8,8,,Study/JOL,"Study Phase",8002,,,-1,-1,,,,1
w10029079_mjm,fuyc1lafgw,Nick_Dissertation_EX1_EP,1,87,2021-11-04T22:31:20+00:00,8.2441508769989,1,versionA_stim.csv,READVersionA.csv,"Read Version A","Dissertation, read only version A",ORCHID,FLOWER,Study1,F,24,79,Study,8,8,,Study/JOL,"Study Phase",8006,,,-1,-1,,,,1
w10029079_mjm,fuyc1lafgw,Nick_Dissertation_EX1_EP,1,88,2021-11-04T22:31:28+00:00,8.2407310009003,1,versionA_stim.csv,READVersionA.csv,"Read Version A","Dissertation, read only version A",SENTENCE,WORD,Study1,B,31,55,Study,8,8,,Study/JOL,"Study Phase",8003,,,-1,-1,,,,1
w10029079_mjm,fuyc1lafgw,Nick_Dissertation_EX1_EP,1,89,2021-11-04T22:31:36+00:00,8.2389531135559,1,versionA_stim.csv,READVersionA.csv,"Read Version A","Dissertation, read only version A",MOON,SPACE,BUFFER2,Buffer,89,91,Study,8,8,,Study/JOL,BUFFER2,8003,,,-1,-1,,,,1
w10029079_mjm,fuyc1lafgw,Nick_Dissertation_EX1_EP,1,90,2021-11-04T22:31:44+00:00,8.244854927063,1,versionA_stim.csv,READVersionA.csv,"Read Version A","Dissertation, read only version A",THING,STUFF,BUFFER2,Buffer,90,89,Study,8,8,,Study/JOL,BUFFER2,8003,,,-1,-1,,,,1
w10029079_mjm,fuyc1lafgw,Nick_Dissertation_EX1_EP,1,91,2021-11-04T22:31:53+00:00,8.4587099552155,1,versionA_stim.csv,READVersionA.csv,"Read Version A","Dissertation, read only version A",SHERRIF,POLICE,BUFFER2,Buffer,87,88,Study,8,8,,Study/JOL,BUFFER2,8238,,,-1,-1,,,,0.7
w10029079_mjm,fuyc1lafgw,Nick_Dissertation_EX1_EP,1,92,2021-11-04T22:32:02+00:00,8.7110512256622,1,versionA_stim.csv,READVersionA.csv,"Read Version A","Dissertation, read only version A",GEESE,GOOSE,BUFFER2,Buffer,86,90,Study,8,8,,Study/JOL,BUFFER2,8367,,,-1,-1,,,,0.731
w10029079_mjm,fuyc1lafgw,Nick_Dissertation_EX1_EP,1,93,2021-11-04T22:32:10+00:00,8.4240529537201,1,versionA_stim.csv,READVersionA.csv,"Read Version A","Dissertation, read only version A",MALT,CHOCOLATE,BUFFER2,Buffer,88,87,Study,8,8,,Study/JOL,BUFFER2,8169,,,-1,-1,,,,0
w10029079_mjm,fuyc1lafgw,Nick_Dissertation_EX1_EP,1,94,2021-11-04T22:32:12+00:00,2.3481879234314,1,versionA_stim.csv,READVersionA.csv,"Read Version A","Dissertation, read only version A",,,,,,0,Instruct,User,-,"You have completed this section. Please press Enter.",Filler_Instruction,Instruct2,2103,,,-1,-1,,,,0.7
w10029079_mjm,fuyc1lafgw,Nick_Dissertation_EX1_EP,1,95,2021-11-04T22:34:13+00:00,120.31599497795,1,versionA_stim.csv,READVersionA.csv,"Read Version A","Dissertation, read only version A",,,,,,0,FreeRecall,120,120,"Please list the 50 US states in alphabetical order. The task will automatically advance to the next screen after two minutes.",,Filler1,120003,"Alabama Alaska Arizona Arkansas California Colorado Connecticut Delaware Florida Georgia Hawaii Idaho Illinois Indiana Iowa Kansas Kentucky Louisiana Maine Maryland Massachusetts Michigan Minnesota Mississippi Missouri Montana Nebraska Nevada New Hampshire New Jersey New Mexico New York North Carolina North Dakota Ohio Oklahoma Oregon Pennsylvania Rhode Island South Carolina South Dakota Tennessee Texas Utah Vermont Virginia Washington West Virginia Wisconsin Wyoming",0,36945,36945,0,0,,0.959
w10029079_mjm,fuyc1lafgw,Nick_Dissertation_EX1_EP,1,96,2021-11-04T22:34:24+00:00,11.195557117462,1,versionA_stim.csv,READVersionA.csv,"Read Version A","Dissertation, read only version A",,,,,,0,Instruct,-,10,"You will now be presented with the first word from each of the previously studied item pairs. Please type the missing word. If you do not know the word, you may guess or press Enter to skip forward to the next pair.",,Instruct3,10865,,,-1,-1,,,,1
w10029079_mjm,fuyc1lafgw,Nick_Dissertation_EX1_EP,1,97,2021-11-04T22:34:28+00:00,4.2262949943542,1,versionA_stim.csv,READVersionA.csv,"Read Version A","Dissertation, read only version A",WAGE,MONEY,Study1,F,8,14,Test,User,-,,Recall,Recall1,3904,Money,100,1698,2347,1,1,,1
w10029079_mjm,fuyc1lafgw,Nick_Dissertation_EX1_EP,1,98,2021-11-04T22:34:31+00:00,2.7161719799042,1,versionA_stim.csv,READVersionA.csv,"Read Version A","Dissertation, read only version A",FIX,HAND,Study1,U,75,56,Test,User,-,,Recall,Recall1,2467,,0,-1,-1,0,0,,1
w10029079_mjm,fuyc1lafgw,Nick_Dissertation_EX1_EP,1,99,2021-11-04T22:34:34+00:00,3.3959958553314,1,versionA_stim.csv,READVersionA.csv,"Read Version A","Dissertation, read only version A",LAW,ATTORNEY,Study1,B,34,75,Test,User,-,,Recall,Recall1,3182,School,14.285714285714,1526,2494,0,0,,1
w10029079_mjm,fuyc1lafgw,Nick_Dissertation_EX1_EP,1,100,2021-11-04T22:34:37+00:00,2.9865050315857,1,versionA_stim.csv,READVersionA.csv,"Read Version A","Dissertation, read only version A",HYGIENE,CLEAN,Study1,F,17,67,Test,User,-,,Recall,Recall1,2689,wash,22.222222222222,1996,2400,0,0,,1
w10029079_mjm,fuyc1lafgw,Nick_Dissertation_EX1_EP,1,101,2021-11-04T22:34:42+00:00,5.0375170707703,1,versionA_stim.csv,READVersionA.csv,"Read Version A","Dissertation, read only version A",TAKE,SEIZE,Study1,B,29,81,Test,User,-,,Recall,Recall1,4825,out,0,4363,4639,0,0,,1
w10029079_mjm,fuyc1lafgw,Nick_Dissertation_EX1_EP,1,102,2021-11-04T22:34:49+00:00,6.9352478981018,1,versionA_stim.csv,READVersionA.csv,"Read Version A","Dissertation, read only version A",DUMP,WASTE,Study1,S,49,29,Test,User,-,,Recall,Recall1,6708,trash,40,5733,6291,0,0,,1
w10029079_mjm,fuyc1lafgw,Nick_Dissertation_EX1_EP,1,103,2021-11-04T22:34:54+00:00,4.8533201217651,1,versionA_stim.csv,READVersionA.csv,"Read Version A","Dissertation, read only version A",SMELL,STENCH,Study1,B,42,57,Test,User,-,,Recall,Recall1,4640,sense,54.545454545455,4021,4534,0,0,,1
w10029079_mjm,fuyc1lafgw,Nick_Dissertation_EX1_EP,1,104,2021-11-04T22:34:57+00:00,2.463800907135,1,versionA_stim.csv,READVersionA.csv,"Read Version A","Dissertation, read only version A",GREAT,FANTASTIC,Study1,B,35,22,Test,User,-,,Recall,Recall1,2269,bad,16.666666666667,1932,2173,0,0,,1
w10029079_mjm,fuyc1lafgw,Nick_Dissertation_EX1_EP,1,105,2021-11-04T22:35:00+00:00,3.0773589611053,1,versionA_stim.csv,READVersionA.csv,"Read Version A","Dissertation, read only version A",TRIAL,JURY,Study1,S,50,70,Test,User,-,,Recall,Recall1,2868,run,28.571428571429,2339,2657,0,0,,1
w10029079_mjm,fuyc1lafgw,Nick_Dissertation_EX1_EP,1,106,2021-11-04T22:35:02+00:00,2.8798930644989,1,versionA_stim.csv,READVersionA.csv,"Read Version A","Dissertation, read only version A",GEOLOGY,ROCK,Study1,F,19,54,Test,User,-,,Recall,Recall1,2626,science,18.181818181818,1724,2490,0,0,,1
w10029079_mjm,fuyc1lafgw,Nick_Dissertation_EX1_EP,1,107,2021-11-04T22:35:10+00:00,7.2377610206604,1,versionA_stim.csv,READVersionA.csv,"Read Version A","Dissertation, read only version A",BITTER,COLD,Study1,F,12,83,Test,User,-,,Recall,Recall1,6997,sweet,0,3468,6694,0,0,,1
w10029079_mjm,fuyc1lafgw,Nick_Dissertation_EX1_EP,1,108,2021-11-04T22:35:13+00:00,3.4767079353333,1,versionA_stim.csv,READVersionA.csv,"Read Version A","Dissertation, read only version A",PUSHER,CLUTTER,Study1,U,66,48,Test,User,-,,Recall,Recall1,3282,Lover,50,2435,3178,0,0,,1
w10029079_mjm,fuyc1lafgw,Nick_Dissertation_EX1_EP,1,109,2021-11-04T22:35:17+00:00,4.2599141597748,1,versionA_stim.csv,READVersionA.csv,"Read Version A","Dissertation, read only version A",ARTERY,BRONZE,Study1,U,74,36,Test,User,-,,Recall,Recall1,4062,medical,15.384615384615,2791,3855,0,0,,1
w10029079_mjm,fuyc1lafgw,Nick_Dissertation_EX1_EP,1,110,2021-11-04T22:35:20+00:00,2.2632699012756,1,versionA_stim.csv,READVersionA.csv,"Read Version A","Dissertation, read only version A",DEBATE,SIGHT,Study1,U,73,19,Test,User,-,,Recall,Recall1,2052,talk,22.222222222222,1413,1868,0,0,,1
w10029079_mjm,fuyc1lafgw,Nick_Dissertation_EX1_EP,1,111,2021-11-04T22:35:23+00:00,3.4961669445038,1,versionA_stim.csv,READVersionA.csv,"Read Version A","Dissertation, read only version A",BLOW,WIND,Study1,S,55,39,Test,User,-,,Recall,Recall1,3288,snow,25,2483,2809,0,0,,1
w10029079_mjm,fuyc1lafgw,Nick_Dissertation_EX1_EP,1,112,2021-11-04T22:35:26+00:00,2.9249880313873,1,versionA_stim.csv,READVersionA.csv,"Read Version A","Dissertation, read only version A",CREDIT,CARD,Study1,F,23,77,Test,User,-,,Recall,Recall1,2729,extra,22.222222222222,2010,2639,0,0,,1
w10029079_mjm,fuyc1lafgw,Nick_Dissertation_EX1_EP,1,113,2021-11-04T22:35:28+00:00,2.3087730407715,1,versionA_stim.csv,READVersionA.csv,"Read Version A","Dissertation, read only version A",HEIGHT,GROWTH,Study1,B,30,35,Test,User,-,,Recall,Recall1,2097,size,0,1570,1968,0,0,,1
w10029079_mjm,fuyc1lafgw,Nick_Dissertation_EX1_EP,1,114,2021-11-04T22:35:35+00:00,6.4164040088654,1,versionA_stim.csv,READVersionA.csv,"Read Version A","Dissertation, read only version A",EDITOR,NEWS,Study1,F,10,23,Test,User,-,,Recall,Recall1,6221,chief,22.222222222222,5381,5837,0,0,,1
w10029079_mjm,fuyc1lafgw,Nick_Dissertation_EX1_EP,1,115,2021-11-04T22:35:38+00:00,3.4958739280701,1,versionA_stim.csv,READVersionA.csv,"Read Version A","Dissertation, read only version A",DRINK,SIP,Study1,B,27,30,Test,User,-,,Recall,Recall1,3278,hot,0,2869,3159,0,0,,1
w10029079_mjm,fuyc1lafgw,Nick_Dissertation_EX1_EP,1,116,2021-11-04T22:35:42+00:00,3.4406349658966,1,versionA_stim.csv,READVersionA.csv,"Read Version A","Dissertation, read only version A",HONEY,BEE,Study1,S,63,43,Test,User,-,,Recall,Recall1,3233,bee,100,2887,3110,1,1,,1
w10029079_mjm,fuyc1lafgw,Nick_Dissertation_EX1_EP,1,117,2021-11-04T22:35:47+00:00,4.9244451522827,1,versionA_stim.csv,READVersionA.csv,"Read Version A","Dissertation, read only version A",HIDE,SICK,Study1,U,84,45,Test,User,-,,Recall,Recall1,4712,scary,44.444444444444,3928,4492,0,0,,1
w10029079_mjm,fuyc1lafgw,Nick_Dissertation_EX1_EP,1,118,2021-11-04T22:35:50+00:00,2.9356968402863,1,versionA_stim.csv,READVersionA.csv,"Read Version A","Dissertation, read only version A",STRONG,ACCIDENT,Study1,U,80,11,Test,User,-,,Recall,Recall1,2709,weak,16.666666666667,2071,2494,0,0,,1
w10029079_mjm,fuyc1lafgw,Nick_Dissertation_EX1_EP,1,119,2021-11-04T22:35:52+00:00,2.6396989822388,1,versionA_stim.csv,READVersionA.csv,"Read Version A","Dissertation, read only version A",LIFT,WOMAN,Study1,U,69,46,Test,User,-,,Recall,Recall1,2402,carry,20,1597,2176,0,0,,1
w10029079_mjm,fuyc1lafgw,Nick_Dissertation_EX1_EP,1,120,2021-11-04T22:35:56+00:00,3.4329681396484,1,versionA_stim.csv,READVersionA.csv,"Read Version A","Dissertation, read only version A",SENTENCE,WORD,Study1,B,31,55,Test,User,-,,Recall,Recall1,3204,period,40,2475,3081,0,0,,1
w10029079_mjm,fuyc1lafgw,Nick_Dissertation_EX1_EP,1,121,2021-11-04T22:35:58+00:00,1.9335699081421,1,versionA_stim.csv,READVersionA.csv,"Read Version A","Dissertation, read only version A",HERD,COW,Study1,F,22,13,Test,User,-,,Recall,Recall1,1693,cow,100,1402,1591,1,1,,1
w10029079_mjm,fuyc1lafgw,Nick_Dissertation_EX1_EP,1,122,2021-11-04T22:36:03+00:00,5.2390780448914,1,versionA_stim.csv,READVersionA.csv,"Read Version A","Dissertation, read only version A",BABY,CHILD,Study1,S,64,16,Test,User,-,,Recall,Recall1,4538,infant,18.181818181818,3780,4403,0,0,,1
w10029079_mjm,fuyc1lafgw,Nick_Dissertation_EX1_EP,1,123,2021-11-04T22:36:08+00:00,5.383945941925,1,versionA_stim.csv,READVersionA.csv,"Read Version A","Dissertation, read only version A",PARK,HUNGRY,Study1,U,68,72,Test,User,-,,Recall,Recall1,5175,car,22.222222222222,2217,5061,0,0,,1
w10029079_mjm,fuyc1lafgw,Nick_Dissertation_EX1_EP,1,124,2021-11-04T22:36:15+00:00,7.1526830196381,1,versionA_stim.csv,READVersionA.csv,"Read Version A","Dissertation, read only version A",MATH,DIVISION,Study1,B,33,61,Test,User,-,,Recall,Recall1,6948,numbers,13.333333333333,5671,6818,0,0,,1
w10029079_mjm,fuyc1lafgw,Nick_Dissertation_EX1_EP,1,125,2021-11-04T22:36:19+00:00,3.2000470161438,1,versionA_stim.csv,READVersionA.csv,"Read Version A","Dissertation, read only version A",ARCHITECTURE,DESIGN,Study1,S,51,41,Test,User,-,,Recall,Recall1,2994,building,28.571428571429,1438,2444,0,0,,1
w10029079_mjm,fuyc1lafgw,Nick_Dissertation_EX1_EP,1,126,2021-11-04T22:36:22+00:00,3.5065140724182,1,versionA_stim.csv,READVersionA.csv,"Read Version A","Dissertation, read only version A",NUMBER,AMOUNT,Study1,S,47,65,Test,User,-,,Recall,Recall1,3293,letter,16.666666666667,2539,3220,0,0,,1
w10029079_mjm,fuyc1lafgw,Nick_Dissertation_EX1_EP,1,127,2021-11-04T22:36:25+00:00,2.9694628715515,1,versionA_stim.csv,READVersionA.csv,"Read Version A","Dissertation, read only version A",BUG,WASP,Study1,B,32,78,Test,User,-,,Recall,Recall1,2687,roach,22.222222222222,2015,2444,0,0,,1
w10029079_mjm,fuyc1lafgw,Nick_Dissertation_EX1_EP,1,128,2021-11-04T22:36:28+00:00,2.8922221660614,1,versionA_stim.csv,READVersionA.csv,"Read Version A","Dissertation, read only version A",HORNET,STING,Study1,F,11,8,Test,User,-,,Recall,Recall1,2649,bee,0,2111,2449,0,0,,1
w10029079_mjm,fuyc1lafgw,Nick_Dissertation_EX1_EP,1,129,2021-11-04T22:36:31+00:00,3.2718558311462,1,versionA_stim.csv,READVersionA.csv,"Read Version A","Dissertation, read only version A",HUNGER,FAMINE,Study1,B,40,66,Test,User,-,,Recall,Recall1,3026,starving,42.857142857143,1758,2847,0,0,,1
w10029079_mjm,fuyc1lafgw,Nick_Dissertation_EX1_EP,1,130,2021-11-04T22:36:33+00:00,1.827632188797,1,versionA_stim.csv,READVersionA.csv,"Read Version A","Dissertation, read only version A",HAPPY,CAR,Study1,U,77,42,Test,User,-,,Recall,Recall1,1355,sad,33.333333333333,931,1250,0,0,,1
w10029079_mjm,fuyc1lafgw,Nick_Dissertation_EX1_EP,1,131,2021-11-04T22:36:38+00:00,4.4044489860535,1,versionA_stim.csv,READVersionA.csv,"Read Version A","Dissertation, read only version A",KIDNEY,LIVER,Study1,S,53,59,Test,User,-,,Recall,Recall1,4166,liver,100,3496,4059,1,1,,1
w10029079_mjm,fuyc1lafgw,Nick_Dissertation_EX1_EP,1,132,2021-11-04T22:36:40+00:00,2.2002098560333,1,versionA_stim.csv,READVersionA.csv,"Read Version A","Dissertation, read only version A",KEY,LATCH,Study1,B,36,20,Test,User,-,,Recall,Recall1,1996,lock,44.444444444444,1470,1793,0,0,,1
w10029079_mjm,fuyc1lafgw,Nick_Dissertation_EX1_EP,1,133,2021-11-04T22:36:42+00:00,2.0692141056061,1,versionA_stim.csv,READVersionA.csv,"Read Version A","Dissertation, read only version A",KING,VASE,Study1,U,85,34,Test,User,-,,Recall,Recall1,1870,queen,22.222222222222,1222,1658,0,0,,1
w10029079_mjm,fuyc1lafgw,Nick_Dissertation_EX1_EP,1,134,2021-11-04T22:36:45+00:00,2.7762460708618,1,versionA_stim.csv,READVersionA.csv,"Read Version A","Dissertation, read only version A",LETTUCE,SALAD,Study1,S,59,31,Test,User,-,,Recall,Recall1,2576,green,0,1919,2367,0,0,,1
w10029079_mjm,fuyc1lafgw,Nick_Dissertation_EX1_EP,1,135,2021-11-04T22:36:48+00:00,3.4647037982941,1,versionA_stim.csv,READVersionA.csv,"Read Version A","Dissertation, read only version A",MEANING,DEFINITION,Study1,S,62,18,Test,User,-,,Recall,Recall1,3272,saying,25,1774,3123,0,0,,1
w10029079_mjm,fuyc1lafgw,Nick_Dissertation_EX1_EP,1,136,2021-11-04T22:36:50+00:00,1.9754300117493,1,versionA_stim.csv,READVersionA.csv,"Read Version A","Dissertation, read only version A",CLOTHES,ATTIRE,Study1,B,43,49,Test,User,-,,Recall,Recall1,1748,shoes,18.181818181818,1131,1662,0,0,,1
w10029079_mjm,fuyc1lafgw,Nick_Dissertation_EX1_EP,1,137,2021-11-04T22:36:53+00:00,3.1391689777374,1,versionA_stim.csv,READVersionA.csv,"Read Version A","Dissertation, read only version A",DIETARY,SACKING,Study1,U,67,15,Test,User,-,,Recall,Recall1,2924,weight,30.769230769231,2195,2768,0,0,,1
w10029079_mjm,fuyc1lafgw,Nick_Dissertation_EX1_EP,1,138,2021-11-04T22:36:59+00:00,5.535530090332,1,versionA_stim.csv,READVersionA.csv,"Read Version A","Dissertation, read only version A",WINE,CHEESE,Study1,S,57,38,Test,User,-,,Recall,Recall1,5330,alcohol,30.769230769231,2360,5157,0,0,,1
w10029079_mjm,fuyc1lafgw,Nick_Dissertation_EX1_EP,1,139,2021-11-04T22:37:01+00:00,2.6018879413605,1,versionA_stim.csv,READVersionA.csv,"Read Version A","Dissertation, read only version A",DUE,ASSIGNMENT,Study1,S,46,47,Test,User,-,,Recall,Recall1,2384,homework,22.222222222222,1067,2162,0,0,,1
w10029079_mjm,fuyc1lafgw,Nick_Dissertation_EX1_EP,1,140,2021-11-04T22:37:08+00:00,6.925546169281,1,versionA_stim.csv,READVersionA.csv,"Read Version A","Dissertation, read only version A",BRIDGE,WATER,Study1,F,18,37,Test,User,-,,Recall,Recall1,6733,road,22.222222222222,6076,6621,0,0,,1
w10029079_mjm,fuyc1lafgw,Nick_Dissertation_EX1_EP,1,141,2021-11-04T22:37:10+00:00,1.9136798381805,1,versionA_stim.csv,READVersionA.csv,"Read Version A","Dissertation, read only version A",PAW,DOG,Study1,F,15,10,Test,User,-,,Recall,Recall1,1671,dog,100,1254,1502,1,1,,1
w10029079_mjm,fuyc1lafgw,Nick_Dissertation_EX1_EP,1,142,2021-11-04T22:37:12+00:00,1.831787109375,1,versionA_stim.csv,READVersionA.csv,"Read Version A","Dissertation, read only version A",ROOT,PLANT,Study1,F,13,21,Test,User,-,,Recall,Recall1,1623,beer,0,1119,1488,0,0,,1
w10029079_mjm,fuyc1lafgw,Nick_Dissertation_EX1_EP,1,143,2021-11-04T22:37:14+00:00,1.779433965683,1,versionA_stim.csv,READVersionA.csv,"Read Version A","Dissertation, read only version A",SUGAR,RIDDLE,Study1,U,81,12,Test,User,-,,Recall,Recall1,1582,cane,20,1087,1459,0,0,,1
w10029079_mjm,fuyc1lafgw,Nick_Dissertation_EX1_EP,1,144,2021-11-04T22:37:16+00:00,2.0280559062958,1,versionA_stim.csv,READVersionA.csv,"Read Version A","Dissertation, read only version A",TUNA,FISH,Study1,F,25,73,Test,User,-,,Recall,Recall1,1830,fish,100,1144,1583,1,1,,1
w10029079_mjm,fuyc1lafgw,Nick_Dissertation_EX1_EP,1,145,2021-11-04T22:37:21+00:00,4.8632750511169,1,versionA_stim.csv,READVersionA.csv,"Read Version A","Dissertation, read only version A",SOON,BELT,Study1,U,70,9,Test,User,-,,Recall,Recall1,4653,possible,33.333333333333,2609,4523,0,0,,1
w10029079_mjm,fuyc1lafgw,Nick_Dissertation_EX1_EP,1,146,2021-11-04T22:37:25+00:00,3.9334650039673,1,versionA_stim.csv,READVersionA.csv,"Read Version A","Dissertation, read only version A",VALLEY,ADD,Study1,U,82,84,Test,User,-,,Recall,Recall1,3724,mountains,16.666666666667,2294,3599,0,0,,1
w10029079_mjm,fuyc1lafgw,Nick_Dissertation_EX1_EP,1,147,2021-11-04T22:37:27+00:00,2.2757201194763,1,versionA_stim.csv,READVersionA.csv,"Read Version A","Dissertation, read only version A",PAST,FUTURE,Study1,S,61,44,Test,User,-,,Recall,Recall1,2063,future,100,1361,1964,1,1,,1
w10029079_mjm,fuyc1lafgw,Nick_Dissertation_EX1_EP,1,148,2021-11-04T22:37:29+00:00,1.746542930603,1,versionA_stim.csv,READVersionA.csv,"Read Version A","Dissertation, read only version A",HOT,CHILI,Study1,B,37,68,Test,User,-,,Recall,Recall1,1546,cold,44.444444444444,1062,1390,0,0,,1
w10029079_mjm,fuyc1lafgw,Nick_Dissertation_EX1_EP,1,149,2021-11-04T22:37:31+00:00,2.8771178722382,1,versionA_stim.csv,READVersionA.csv,"Read Version A","Dissertation, read only version A",DISCUSSION,TALK,Study1,F,21,85,Test,User,-,,Recall,Recall1,2670,post,25,1133,2529,0,0,,1
w10029079_mjm,fuyc1lafgw,Nick_Dissertation_EX1_EP,1,150,2021-11-04T22:37:43+00:00,11.420200109482,1,versionA_stim.csv,READVersionA.csv,"Read Version A","Dissertation, read only version A",ALLOW,TUCK,Study1,U,78,80,Test,User,-,,Recall,Recall1,11174,no,0,10745,10931,0,0,,1
w10029079_mjm,fuyc1lafgw,Nick_Dissertation_EX1_EP,1,151,2021-11-04T22:37:46+00:00,3.0624070167542,1,versionA_stim.csv,READVersionA.csv,"Read Version A","Dissertation, read only version A",GRILL,BAR,Study1,S,52,25,Test,User,-,,Recall,Recall1,2836,meat,28.571428571429,2218,2693,0,0,,1
w10029079_mjm,fuyc1lafgw,Nick_Dissertation_EX1_EP,1,152,2021-11-04T22:37:48+00:00,2.0623888969421,1,versionA_stim.csv,READVersionA.csv,"Read Version A","Dissertation, read only version A",BEGIN,END,Study1,S,54,64,Test,User,-,,Recall,Recall1,1863,end,100,1526,1733,1,1,,1
w10029079_mjm,fuyc1lafgw,Nick_Dissertation_EX1_EP,1,153,2021-11-04T22:37:54+00:00,5.9946491718292,1,versionA_stim.csv,READVersionA.csv,"Read Version A","Dissertation, read only version A",BALL,RACKET,Study1,B,38,86,Test,User,-,,Recall,Recall1,5782,baseball,28.571428571429,4283,5578,0,0,,1
w10029079_mjm,fuyc1lafgw,Nick_Dissertation_EX1_EP,1,154,2021-11-04T22:37:57+00:00,3.3665859699249,1,versionA_stim.csv,READVersionA.csv,"Read Version A","Dissertation, read only version A",DIGESTION,STOMACH,Study1,F,7,63,Test,User,-,,Recall,Recall1,3162,kidney,0,2366,2903,0,0,,1
w10029079_mjm,fuyc1lafgw,Nick_Dissertation_EX1_EP,1,155,2021-11-04T22:38:01+00:00,3.6231639385223,1,versionA_stim.csv,READVersionA.csv,"Read Version A","Dissertation, read only version A",SHOE,FOOT,Study1,S,60,17,Test,User,-,,Recall,Recall1,3403,shoelace,16.666666666667,2352,3272,0,0,,1
w10029079_mjm,fuyc1lafgw,Nick_Dissertation_EX1_EP,1,156,2021-11-04T22:38:04+00:00,2.5845010280609,1,versionA_stim.csv,READVersionA.csv,"Read Version A","Dissertation, read only version A",SLEEP,DROWSY,Study1,B,41,51,Test,User,-,,Recall,Recall1,2361,hours,36.363636363636,1684,2282,0,0,,1
w10029079_mjm,fuyc1lafgw,Nick_Dissertation_EX1_EP,1,157,2021-11-04T22:38:08+00:00,3.9881219863892,1,versionA_stim.csv,READVersionA.csv,"Read Version A","Dissertation, read only version A",PLANE,PILOT,Study1,B,44,53,Test,User,-,,Recall,Recall1,3734,sk,0,3329,3423,0,0,,1
w10029079_mjm,fuyc1lafgw,Nick_Dissertation_EX1_EP,1,158,2021-11-04T22:38:10+00:00,2.5631558895111,1,versionA_stim.csv,READVersionA.csv,"Read Version A","Dissertation, read only version A",SWAN,BIRD,Study1,F,14,82,Test,User,-,,Recall,Recall1,2358,bird,100,1699,2204,1,1,,1
w10029079_mjm,fuyc1lafgw,Nick_Dissertation_EX1_EP,1,159,2021-11-04T22:38:12+00:00,1.9822142124176,1,versionA_stim.csv,READVersionA.csv,"Read Version A","Dissertation, read only version A",WORK,CHORE,Study1,B,39,71,Test,User,-,,Recall,Recall1,1765,bad,0,1393,1624,0,0,,1
w10029079_mjm,fuyc1lafgw,Nick_Dissertation_EX1_EP,1,160,2021-11-04T22:38:14+00:00,2.2765879631042,1,versionA_stim.csv,READVersionA.csv,"Read Version A","Dissertation, read only version A",CHISEL,HAMMER,Study1,F,9,32,Test,User,-,,Recall,Recall1,2063,shovel,33.333333333333,1322,1883,0,0,,1
w10029079_mjm,fuyc1lafgw,Nick_Dissertation_EX1_EP,1,161,2021-11-04T22:38:17+00:00,2.6463048458099,1,versionA_stim.csv,READVersionA.csv,"Read Version A","Dissertation, read only version A",ART,LION,Study1,U,79,74,Test,User,-,,Recall,Recall1,2431,decore,20,1680,2337,0,0,,1
w10029079_mjm,fuyc1lafgw,Nick_Dissertation_EX1_EP,1,162,2021-11-04T22:38:19+00:00,2.4230711460114,1,versionA_stim.csv,READVersionA.csv,"Read Version A","Dissertation, read only version A",DISCOVER,FLOOR,Study1,U,71,40,Test,User,-,,Recall,Recall1,2219,card,22.222222222222,1483,2073,0,0,,1
w10029079_mjm,fuyc1lafgw,Nick_Dissertation_EX1_EP,1,163,2021-11-04T22:38:22+00:00,2.1421730518341,1,versionA_stim.csv,READVersionA.csv,"Read Version A","Dissertation, read only version A",FIRE,BLAZE,Study1,B,45,27,Test,User,-,,Recall,Recall1,1925,snow,0,1452,1784,0,0,,1
w10029079_mjm,fuyc1lafgw,Nick_Dissertation_EX1_EP,1,164,2021-11-04T22:38:24+00:00,2.16530585289,1,versionA_stim.csv,READVersionA.csv,"Read Version A","Dissertation, read only version A",POP,SODA,Study1,S,56,7,Test,User,-,,Recall,Recall1,1948,clap,25,1429,1741,0,0,,1
w10029079_mjm,fuyc1lafgw,Nick_Dissertation_EX1_EP,1,165,2021-11-04T22:38:26+00:00,2.4835770130157,1,versionA_stim.csv,READVersionA.csv,"Read Version A","Dissertation, read only version A",CIRCLE,ROUND,Study1,S,65,24,Test,User,-,,Recall,Recall1,2256,sqaur,20,1386,1997,0,0,,1
w10029079_mjm,fuyc1lafgw,Nick_Dissertation_EX1_EP,1,166,2021-11-04T22:38:29+00:00,2.8973050117493,1,versionA_stim.csv,READVersionA.csv,"Read Version A","Dissertation, read only version A",ORCHID,FLOWER,Study1,F,24,79,Test,User,-,,Recall,Recall1,2654,flower,100,1219,2535,1,1,,1
w10029079_mjm,fuyc1lafgw,Nick_Dissertation_EX1_EP,1,167,2021-11-04T22:38:31+00:00,2.3549399375916,1,versionA_stim.csv,READVersionA.csv,"Read Version A","Dissertation, read only version A",CASH,WOULD,Study1,U,83,69,Test,User,-,,Recall,Recall1,2131,money,20,1028,1918,0,0,,1
w10029079_mjm,fuyc1lafgw,Nick_Dissertation_EX1_EP,1,168,2021-11-04T22:38:35+00:00,3.2642221450806,1,versionA_stim.csv,READVersionA.csv,"Read Version A","Dissertation, read only version A",WAY,OUT,Study1,F,16,52,Test,User,-,,Recall,Recall1,3055,"no way",22.222222222222,1584,2691,0,0,,1
w10029079_mjm,fuyc1lafgw,Nick_Dissertation_EX1_EP,1,169,2021-11-04T22:38:40+00:00,5.2128820419312,1,versionA_stim.csv,READVersionA.csv,"Read Version A","Dissertation, read only version A",LOCATION,SITE,Study1,S,48,50,Test,User,-,,Recall,Recall1,4997,spot,50,4443,4819,0,0,,1
w10029079_mjm,fuyc1lafgw,Nick_Dissertation_EX1_EP,1,170,2021-11-04T22:38:45+00:00,4.5526759624481,1,versionA_stim.csv,READVersionA.csv,"Read Version A","Dissertation, read only version A",FULL,ENOUGH,Study1,B,26,76,Test,User,-,,Recall,Recall1,4311,empty,18.181818181818,1425,3506,0,0,,1
w10029079_mjm,fuyc1lafgw,Nick_Dissertation_EX1_EP,1,171,2021-11-04T22:38:48+00:00,3.5737779140472,1,versionA_stim.csv,READVersionA.csv,"Read Version A","Dissertation, read only version A",DARK,CAVE,Study1,B,28,62,Test,User,-,,Recall,Recall1,3372,light,0,2720,3170,0,0,,1
w10029079_mjm,fuyc1lafgw,Nick_Dissertation_EX1_EP,1,172,2021-11-04T22:38:53+00:00,5.0522379875183,1,versionA_stim.csv,READVersionA.csv,"Read Version A","Dissertation, read only version A",DELINQUENT,BAD,Study1,F,6,28,Test,User,-,,Recall,Recall1,4840,juvenile,0,2748,4706,0,0,,1
w10029079_mjm,fuyc1lafgw,Nick_Dissertation_EX1_EP,1,173,2021-11-04T22:38:56+00:00,3.3200669288635,1,versionA_stim.csv,READVersionA.csv,"Read Version A","Dissertation, read only version A",DEATH,BUSINESS,Study1,U,72,26,Test,User,-,,Recall,Recall1,3089,sadness,66.666666666667,2159,2970,0,0,,1
w10029079_mjm,fuyc1lafgw,Nick_Dissertation_EX1_EP,1,174,2021-11-04T22:38:59+00:00,2.55535197258,1,versionA_stim.csv,READVersionA.csv,"Read Version A","Dissertation, read only version A",BATHROOM,TOILET,Study1,S,58,58,Test,User,-,,Recall,Recall1,2354,toilet,100,1478,2215,1,1,,1
w10029079_mjm,fuyc1lafgw,Nick_Dissertation_EX1_EP,1,175,2021-11-04T22:39:01+00:00,2.230859041214,1,versionA_stim.csv,READVersionA.csv,"Read Version A","Dissertation, read only version A",MACHINE,POSITION,Study1,U,76,33,Test,User,-,,Recall,Recall1,2005,work,16.666666666667,1513,1803,0,0,,1
w10029079_mjm,fuyc1lafgw,Nick_Dissertation_EX1_EP,1,176,2021-11-04T22:39:04+00:00,2.5035891532898,1,versionA_stim.csv,READVersionA.csv,"Read Version A","Dissertation, read only version A",REVOLUTION,WAR,Study1,F,20,60,Test,User,-,,Recall,Recall1,2296,old,0,1902,2169,0,0,,1
w10029079_mjm,fuyc1lafgw,Nick_Dissertation_EX1_EP,1,177,2021-11-04T22:39:15+00:00,11.731772899628,1,versionA_stim.csv,READVersionA.csv,"Read Version A","Dissertation, read only version A",,,,,,0,Instruct,-,10,"You will now be presented with a new set of word pairs. Please study each pair. Remember that your memory will be tested! When finished, press Enter to move to the next pair.",Initial_Instruct,Instruct4,11512,,,-1,-1,,,,1
w10029079_mjm,fuyc1lafgw,Nick_Dissertation_EX1_EP,1,178,2021-11-04T22:39:34+00:00,18.021894931793,1,versionA_stim.csv,READVersionA.csv,"Read Version A","Dissertation, read only version A",,,,,,0,Instruct,User,-,"Each word will be displayed on the computer screen for 8 seconds. The screen will automatically move to the next pair when time is up. Press Enter when you are ready to begin.",,Instruct11,17782,,,-1,-1,,,,1
w10029079_mjm,fuyc1lafgw,Nick_Dissertation_EX1_EP,1,179,2021-11-04T22:39:42+00:00,8.3264870643616,1,versionA_stim.csv,READVersionA.csv,"Read Version A","Dissertation, read only version A",CAMP,ADVENTURE,BUFFER3,Buffer,95,93,Study,8,8,,Study/JOL,BUFFER3,8002,,,-1,-1,,,,1
w10029079_mjm,fuyc1lafgw,Nick_Dissertation_EX1_EP,1,180,2021-11-04T22:39:50+00:00,8.3365240097046,1,versionA_stim.csv,READVersionA.csv,"Read Version A","Dissertation, read only version A",SHRIMP,FISH,BUFFER3,Buffer,93,94,Study,8,8,,Study/JOL,BUFFER3,8003,,,-1,-1,,,,1
w10029079_mjm,fuyc1lafgw,Nick_Dissertation_EX1_EP,1,181,2021-11-04T22:39:59+00:00,8.3353269100189,1,versionA_stim.csv,READVersionA.csv,"Read Version A","Dissertation, read only version A",ICE,FROZEN,BUFFER3,Buffer,94,95,Study,8,8,,Study/JOL,BUFFER3,8002,,,-1,-1,,,,1
w10029079_mjm,fuyc1lafgw,Nick_Dissertation_EX1_EP,1,182,2021-11-04T22:40:07+00:00,8.2479691505432,1,versionA_stim.csv,READVersionA.csv,"Read Version A","Dissertation, read only version A",NOODLE,STRING,BUFFER3,Buffer,92,96,Study,8,8,,Study/JOL,BUFFER3,8003,,,-1,-1,,,,1
w10029079_mjm,fuyc1lafgw,Nick_Dissertation_EX1_EP,1,183,2021-11-04T22:40:15+00:00,8.2349219322205,1,versionA_stim.csv,READVersionA.csv,"Read Version A","Dissertation, read only version A",CARROT,POTATO,BUFFER3,Buffer,91,92,Study,8,8,,Study/JOL,BUFFER3,8002,,,-1,-1,,,,1
w10029079_mjm,fuyc1lafgw,Nick_Dissertation_EX1_EP,1,184,2021-11-04T22:40:23+00:00,8.2230880260468,1,versionA_stim.csv,READVersionA.csv,"Read Version A","Dissertation, read only version A",TRUTH,LIE,Study2,S,148,141,Study,8,8,,Study/JOL,"Study Phase2",8002,,,-1,-1,,,,1
w10029079_mjm,fuyc1lafgw,Nick_Dissertation_EX1_EP,1,185,2021-11-04T22:40:31+00:00,8.2545959949493,1,versionA_stim.csv,READVersionA.csv,"Read Version A","Dissertation, read only version A",BEST,FAVORITE,Study2,B,125,170,Study,8,8,,Study/JOL,"Study Phase2",8002,,,-1,-1,,,,1
w10029079_mjm,fuyc1lafgw,Nick_Dissertation_EX1_EP,1,186,2021-11-04T22:40:40+00:00,8.2275779247284,1,versionA_stim.csv,READVersionA.csv,"Read Version A","Dissertation, read only version A",BOTH,OUNCE,Study2,U,172,134,Study,8,8,,Study/JOL,"Study Phase2",8003,,,-1,-1,,,,1
w10029079_mjm,fuyc1lafgw,Nick_Dissertation_EX1_EP,1,187,2021-11-04T22:40:48+00:00,8.2272610664368,1,versionA_stim.csv,READVersionA.csv,"Read Version A","Dissertation, read only version A",FUZZY,BANG,Study2,U,168,154,Study,8,8,,Study/JOL,"Study Phase2",8003,,,-1,-1,,,,1
w10029079_mjm,fuyc1lafgw,Nick_Dissertation_EX1_EP,1,188,2021-11-04T22:40:56+00:00,8.2280719280243,1,versionA_stim.csv,READVersionA.csv,"Read Version A","Dissertation, read only version A",ALONE,LONELY,Study2,S,145,142,Study,8,8,,Study/JOL,"Study Phase2",8003,,,-1,-1,,,,1
w10029079_mjm,fuyc1lafgw,Nick_Dissertation_EX1_EP,1,189,2021-11-04T22:41:04+00:00,8.3347280025482,1,versionA_stim.csv,READVersionA.csv,"Read Version A","Dissertation, read only version A",AFFECTION,LOVE,Study2,F,115,110,Study,8,8,,Study/JOL,"Study Phase2",8001,,,-1,-1,,,,1
w10029079_mjm,fuyc1lafgw,Nick_Dissertation_EX1_EP,1,190,2021-11-04T22:41:14+00:00,9.1319689750671,1,versionA_stim.csv,READVersionA.csv,"Read Version A","Dissertation, read only version A",CLUE,GAME,Study2,F,97,104,Study,8,8,,Study/JOL,"Study Phase2",8002,,,-1,-1,,,,1
w10029079_mjm,fuyc1lafgw,Nick_Dissertation_EX1_EP,1,191,2021-11-04T22:41:22+00:00,8.2332961559296,1,versionA_stim.csv,READVersionA.csv,"Read Version A","Dissertation, read only version A",CANDLE,WAX,Study2,S,139,118,Study,8,8,,Study/JOL,"Study Phase2",8002,,,-1,-1,,,,1
w10029079_mjm,fuyc1lafgw,Nick_Dissertation_EX1_EP,1,192,2021-11-04T22:41:30+00:00,8.2206349372864,1,versionA_stim.csv,READVersionA.csv,"Read Version A","Dissertation, read only version A",DRY,WET,Study2,S,146,150,Study,8,8,,Study/JOL,"Study Phase2",8003,,,-1,-1,,,,1
w10029079_mjm,fuyc1lafgw,Nick_Dissertation_EX1_EP,1,193,2021-11-04T22:41:38+00:00,8.320415019989,1,versionA_stim.csv,READVersionA.csv,"Read Version A","Dissertation, read only version A",LISTEN,FICTION,Study2,U,164,102,Study,8,8,,Study/JOL,"Study Phase2",8001,,,-1,-1,,,,1
w10029079_mjm,fuyc1lafgw,Nick_Dissertation_EX1_EP,1,194,2021-11-04T22:41:47+00:00,8.2501599788666,1,versionA_stim.csv,READVersionA.csv,"Read Version A","Dissertation, read only version A",MASON,JAR,Study2,S,138,174,Study,8,8,,Study/JOL,"Study Phase2",8003,,,-1,-1,,,,1
w10029079_mjm,fuyc1lafgw,Nick_Dissertation_EX1_EP,1,195,2021-11-04T22:41:55+00:00,8.2378671169281,1,versionA_stim.csv,READVersionA.csv,"Read Version A","Dissertation, read only version A",TEMPERATURE,Morning,Study2,U,173,113,Study,8,8,,Study/JOL,"Study Phase2",8002,,,-1,-1,,,,1
w10029079_mjm,fuyc1lafgw,Nick_Dissertation_EX1_EP,1,196,2021-11-04T22:42:03+00:00,8.2173318862915,1,versionA_stim.csv,READVersionA.csv,"Read Version A","Dissertation, read only version A",EXTENSION,LONG,Study2,F,96,156,Study,8,8,,Study/JOL,"Study Phase2",8003,,,-1,-1,,,,1
w10029079_mjm,fuyc1lafgw,Nick_Dissertation_EX1_EP,1,197,2021-11-04T22:42:11+00:00,8.3366920948029,1,versionA_stim.csv,READVersionA.csv,"Read Version A","Dissertation, read only version A",LOAN,SIGN,Study2,U,171,139,Study,8,8,,Study/JOL,"Study Phase2",8001,,,-1,-1,,,,1
w10029079_mjm,fuyc1lafgw,Nick_Dissertation_EX1_EP,1,198,2021-11-04T22:42:20+00:00,8.2437038421631,1,versionA_stim.csv,READVersionA.csv,"Read Version A","Dissertation, read only version A",CHILL,COLD,Study2,F,114,165,Study,8,8,,Study/JOL,"Study Phase2",8003,,,-1,-1,,,,1
w10029079_mjm,fuyc1lafgw,Nick_Dissertation_EX1_EP,1,199,2021-11-04T22:42:28+00:00,8.3272891044617,1,versionA_stim.csv,READVersionA.csv,"Read Version A","Dissertation, read only version A",FEUD,FIGHT,Study2,F,113,167,Study,8,8,,Study/JOL,"Study Phase2",8002,,,-1,-1,,,,1
w10029079_mjm,fuyc1lafgw,Nick_Dissertation_EX1_EP,1,200,2021-11-04T22:42:36+00:00,8.2199518680573,1,versionA_stim.csv,READVersionA.csv,"Read Version A","Dissertation, read only version A",ELEMENT,CARBON,Study2,S,141,100,Study,8,8,,Study/JOL,"Study Phase2",8002,,,-1,-1,,,,1
w10029079_mjm,fuyc1lafgw,Nick_Dissertation_EX1_EP,1,201,2021-11-04T22:42:44+00:00,8.2303941249847,1,versionA_stim.csv,READVersionA.csv,"Read Version A","Dissertation, read only version A",PLANE,AIRCRAFT,Study2,B,129,109,Study,8,8,,Study/JOL,"Study Phase2",8002,,,-1,-1,,,,1
w10029079_mjm,fuyc1lafgw,Nick_Dissertation_EX1_EP,1,202,2021-11-04T22:42:53+00:00,8.2128779888153,1,versionA_stim.csv,READVersionA.csv,"Read Version A","Dissertation, read only version A",THREAD,THIMBLE,Study2,B,121,116,Study,8,8,,Study/JOL,"Study Phase2",8003,,,-1,-1,,,,1
w10029079_mjm,fuyc1lafgw,Nick_Dissertation_EX1_EP,1,203,2021-11-04T22:43:01+00:00,8.2244811058044,1,versionA_stim.csv,READVersionA.csv,"Read Version A","Dissertation, read only version A",DEAD,COFFIN,Study2,B,128,138,Study,8,8,,Study/JOL,"Study Phase2",8002,,,-1,-1,,,,1
w10029079_mjm,fuyc1lafgw,Nick_Dissertation_EX1_EP,1,204,2021-11-04T22:43:09+00:00,8.2143409252167,1,versionA_stim.csv,READVersionA.csv,"Read Version A","Dissertation, read only version A",LEASE,TOIL,Study2,U,170,155,Study,8,8,,Study/JOL,"Study Phase2",8003,,,-1,-1,,,,1
w10029079_mjm,fuyc1lafgw,Nick_Dissertation_EX1_EP,1,205,2021-11-04T22:43:17+00:00,8.2427659034729,1,versionA_stim.csv,READVersionA.csv,"Read Version A","Dissertation, read only version A",SAFETY,SEATBELT,Study2,S,147,112,Study,8,8,,Study/JOL,"Study Phase2",8003,,,-1,-1,,,,1
w10029079_mjm,fuyc1lafgw,Nick_Dissertation_EX1_EP,1,206,2021-11-04T22:43:26+00:00,8.2287001609802,1,versionA_stim.csv,READVersionA.csv,"Read Version A","Dissertation, read only version A",MIRROR,CHILDREN,Study2,U,174,153,Study,8,8,,Study/JOL,"Study Phase2",8003,,,-1,-1,,,,1
w10029079_mjm,fuyc1lafgw,Nick_Dissertation_EX1_EP,1,207,2021-11-04T22:43:34+00:00,8.253485918045,1,versionA_stim.csv,READVersionA.csv,"Read Version A","Dissertation, read only version A",CRACKLE,ABLE,Study2,U,162,144,Study,8,8,,Study/JOL,"Study Phase2",8003,,,-1,-1,,,,1
w10029079_mjm,fuyc1lafgw,Nick_Dissertation_EX1_EP,1,208,2021-11-04T22:43:42+00:00,8.2219290733337,1,versionA_stim.csv,READVersionA.csv,"Read Version A","Dissertation, read only version A",SLEEP,NAP,Study2,B,134,125,Study,8,8,,Study/JOL,"Study Phase2",8002,,,-1,-1,,,,1
w10029079_mjm,fuyc1lafgw,Nick_Dissertation_EX1_EP,1,209,2021-11-04T22:43:50+00:00,8.2449059486389,1,versionA_stim.csv,READVersionA.csv,"Read Version A","Dissertation, read only version A",SCALP,HEAD,Study2,F,105,176,Study,8,8,,Study/JOL,"Study Phase2",8003,,,-1,-1,,,,1
w10029079_mjm,fuyc1lafgw,Nick_Dissertation_EX1_EP,1,210,2021-11-04T22:43:59+00:00,8.2288980484009,1,versionA_stim.csv,READVersionA.csv,"Read Version A","Dissertation, read only version A",MOAT,CLEAR,Study2,U,169,169,Study,8,8,,Study/JOL,"Study Phase2",8003,,,-1,-1,,,,1
w10029079_mjm,fuyc1lafgw,Nick_Dissertation_EX1_EP,1,211,2021-11-04T22:44:07+00:00,8.3741807937622,1,versionA_stim.csv,READVersionA.csv,"Read Version A","Dissertation, read only version A",MAZE,ELECTION,Study2,U,159,168,Study,8,8,,Study/JOL,"Study Phase2",8001,,,-1,-1,,,,1
w10029079_mjm,fuyc1lafgw,Nick_Dissertation_EX1_EP,1,212,2021-11-04T22:44:15+00:00,8.2309901714325,1,versionA_stim.csv,READVersionA.csv,"Read Version A","Dissertation, read only version A",PHONE,COMMUNICATION,Study2,S,149,128,Study,8,8,,Study/JOL,"Study Phase2",8005,,,-1,-1,,,,1
w10029079_mjm,fuyc1lafgw,Nick_Dissertation_EX1_EP,1,213,2021-11-04T22:44:23+00:00,8.2252979278564,1,versionA_stim.csv,READVersionA.csv,"Read Version A","Dissertation, read only version A",KEYS,JOKE,Study2,U,165,120,Study,8,8,,Study/JOL,"Study Phase2",8002,,,-1,-1,,,,1
w10029079_mjm,fuyc1lafgw,Nick_Dissertation_EX1_EP,1,214,2021-11-04T22:44:32+00:00,8.2296359539032,1,versionA_stim.csv,READVersionA.csv,"Read Version A","Dissertation, read only version A",GIVE,STEAK,Study2,U,158,164,Study,8,8,,Study/JOL,"Study Phase2",8002,,,-1,-1,,,,1
w10029079_mjm,fuyc1lafgw,Nick_Dissertation_EX1_EP,1,215,2021-11-04T22:44:40+00:00,8.2426609992981,1,versionA_stim.csv,READVersionA.csv,"Read Version A","Dissertation, read only version A",GLASS,BREAKABLE,Study2,B,127,157,Study,8,8,,Study/JOL,"Study Phase2",8003,,,-1,-1,,,,1
w10029079_mjm,fuyc1lafgw,Nick_Dissertation_EX1_EP,1,216,2021-11-04T22:44:48+00:00,8.2372269630432,1,versionA_stim.csv,READVersionA.csv,"Read Version A","Dissertation, read only version A",JUSTICE,MAROON,Study2,U,156,121,Study,8,8,,Study/JOL,"Study Phase2",8003,,,-1,-1,,,,1
w10029079_mjm,fuyc1lafgw,Nick_Dissertation_EX1_EP,1,217,2021-11-04T22:44:57+00:00,8.4514820575714,1,versionA_stim.csv,READVersionA.csv,"Read Version A","Dissertation, read only version A",EARTH,GROUND,Study2,S,144,175,Study,8,8,,Study/JOL,"Study Phase2",8002,,,-1,-1,,,,1
w10029079_mjm,fuyc1lafgw,Nick_Dissertation_EX1_EP,1,218,2021-11-04T22:45:05+00:00,8.2244279384613,1,versionA_stim.csv,READVersionA.csv,"Read Version A","Dissertation, read only version A",RIGHTS,EQUAL,Study2,S,137,152,Study,8,8,,Study/JOL,"Study Phase2",8003,,,-1,-1,,,,1
w10029079_mjm,fuyc1lafgw,Nick_Dissertation_EX1_EP,1,219,2021-11-04T22:45:13+00:00,8.2518911361694,1,versionA_stim.csv,READVersionA.csv,"Read Version A","Dissertation, read only version A",CAT,PANTHER,Study2,B,126,133,Study,8,8,,Study/JOL,"Study Phase2",8003,,,-1,-1,,,,1
w10029079_mjm,fuyc1lafgw,Nick_Dissertation_EX1_EP,1,220,2021-11-04T22:45:21+00:00,8.2313718795776,1,versionA_stim.csv,READVersionA.csv,"Read Version A","Dissertation, read only version A",FISH,SARDINE,Study2,B,130,117,Study,8,8,,Study/JOL,"Study Phase2",8002,,,-1,-1,,,,1
w10029079_mjm,fuyc1lafgw,Nick_Dissertation_EX1_EP,1,221,2021-11-04T22:45:30+00:00,8.2759420871735,1,versionA_stim.csv,READVersionA.csv,"Read Version A","Dissertation, read only version A",FURRY,DOG,Study2,F,102,148,Study,8,8,,Study/JOL,"Study Phase2",8003,,,-1,-1,,,,1
w10029079_mjm,fuyc1lafgw,Nick_Dissertation_EX1_EP,1,222,2021-11-04T22:45:38+00:00,8.2678298950195,1,versionA_stim.csv,READVersionA.csv,"Read Version A","Dissertation, read only version A",LITTER,TRASH,Study2,F,103,140,Study,8,8,,Study/JOL,"Study Phase2",8002,,,-1,-1,,,,1
w10029079_mjm,fuyc1lafgw,Nick_Dissertation_EX1_EP,1,223,2021-11-04T22:45:46+00:00,8.3305780887604,1,versionA_stim.csv,READVersionA.csv,"Read Version A","Dissertation, read only version A",ROD,REEL,Study2,S,150,122,Study,8,8,,Study/JOL,"Study Phase2",8001,,,-1,-1,,,,1
w10029079_mjm,fuyc1lafgw,Nick_Dissertation_EX1_EP,1,224,2021-11-04T22:45:54+00:00,8.223149061203,1,versionA_stim.csv,READVersionA.csv,"Read Version A","Dissertation, read only version A",LOUD,NOISE,Study2,S,152,172,Study,8,8,,Study/JOL,"Study Phase2",8002,,,-1,-1,,,,1
w10029079_mjm,fuyc1lafgw,Nick_Dissertation_EX1_EP,1,225,2021-11-04T22:46:03+00:00,8.3390879631042,1,versionA_stim.csv,READVersionA.csv,"Read Version A","Dissertation, read only version A",GONE,AWAY,Study2,S,142,123,Study,8,8,,Study/JOL,"Study Phase2",8002,,,-1,-1,,,,1
w10029079_mjm,fuyc1lafgw,Nick_Dissertation_EX1_EP,1,226,2021-11-04T22:46:11+00:00,8.2335479259491,1,versionA_stim.csv,READVersionA.csv,"Read Version A","Dissertation, read only version A",BASEBALL,LEAGUE,Study2,B,131,145,Study,8,8,,Study/JOL,"Study Phase2",8003,,,-1,-1,,,,1
w10029079_mjm,fuyc1lafgw,Nick_Dissertation_EX1_EP,1,227,2021-11-04T22:46:19+00:00,8.2406389713287,1,versionA_stim.csv,READVersionA.csv,"Read Version A","Dissertation, read only version A",NAME,HATE,Study2,U,167,173,Study,8,8,,Study/JOL,"Study Phase2",8002,,,-1,-1,,,,1
w10029079_mjm,fuyc1lafgw,Nick_Dissertation_EX1_EP,1,228,2021-11-04T22:46:27+00:00,8.2249410152435,1,versionA_stim.csv,READVersionA.csv,"Read Version A","Dissertation, read only version A",STRETCH,CLOTH,Study2,U,157,136,Study,8,8,,Study/JOL,"Study Phase2",8002,,,-1,-1,,,,1
w10029079_mjm,fuyc1lafgw,Nick_Dissertation_EX1_EP,1,229,2021-11-04T22:46:36+00:00,8.2177841663361,1,versionA_stim.csv,READVersionA.csv,"Read Version A","Dissertation, read only version A",MAIN,SCAR,Study2,U,175,158,Study,8,8,,Study/JOL,"Study Phase2",8003,,,-1,-1,,,,1
w10029079_mjm,fuyc1lafgw,Nick_Dissertation_EX1_EP,1,230,2021-11-04T22:46:44+00:00,8.2219009399414,1,versionA_stim.csv,READVersionA.csv,"Read Version A","Dissertation, read only version A",BIRD,PENGUIN,Study2,B,119,161,Study,8,8,,Study/JOL,"Study Phase2",8002,,,-1,-1,,,,1
w10029079_mjm,fuyc1lafgw,Nick_Dissertation_EX1_EP,1,231,2021-11-04T22:46:52+00:00,8.3369970321655,1,versionA_stim.csv,READVersionA.csv,"Read Version A","Dissertation, read only version A",DINE,EAT,Study2,F,111,126,Study,8,8,,Study/JOL,"Study Phase2",8002,,,-1,-1,,,,1
w10029079_mjm,fuyc1lafgw,Nick_Dissertation_EX1_EP,1,232,2021-11-04T22:47:00+00:00,8.2305450439453,1,versionA_stim.csv,READVersionA.csv,"Read Version A","Dissertation, read only version A",VEHICLE,CHARM,Study2,U,160,105,Study,8,8,,Study/JOL,"Study Phase2",8002,,,-1,-1,,,,1
w10029079_mjm,fuyc1lafgw,Nick_Dissertation_EX1_EP,1,233,2021-11-04T22:47:09+00:00,8.2409119606018,1,versionA_stim.csv,READVersionA.csv,"Read Version A","Dissertation, read only version A",FRUIT,STRAWBERRY,Study2,B,124,146,Study,8,8,,Study/JOL,"Study Phase2",8005,,,-1,-1,,,,1
w10029079_mjm,fuyc1lafgw,Nick_Dissertation_EX1_EP,1,234,2021-11-04T22:47:17+00:00,8.2186398506165,1,versionA_stim.csv,READVersionA.csv,"Read Version A","Dissertation, read only version A",WRIST,BRACELET,Study2,S,140,171,Study,8,8,,Study/JOL,"Study Phase2",8001,,,-1,-1,,,,1
w10029079_mjm,fuyc1lafgw,Nick_Dissertation_EX1_EP,1,235,2021-11-04T22:47:25+00:00,8.2170720100403,1,versionA_stim.csv,READVersionA.csv,"Read Version A","Dissertation, read only version A",HONEST,TRUTHFUL,Study2,B,133,166,Study,8,8,,Study/JOL,"Study Phase2",8002,,,-1,-1,,,,1
w10029079_mjm,fuyc1lafgw,Nick_Dissertation_EX1_EP,1,236,2021-11-04T22:47:33+00:00,8.218150138855,1,versionA_stim.csv,READVersionA.csv,"Read Version A","Dissertation, read only version A",DRIVER,CAR,Study2,F,106,160,Study,8,8,,Study/JOL,"Study Phase2",8003,,,-1,-1,,,,1
w10029079_mjm,fuyc1lafgw,Nick_Dissertation_EX1_EP,1,237,2021-11-04T22:47:41+00:00,8.2079429626465,1,versionA_stim.csv,READVersionA.csv,"Read Version A","Dissertation, read only version A",SHOELACE,TIE,Study2,F,99,130,Study,8,8,,Study/JOL,"Study Phase2",8002,,,-1,-1,,,,1
w10029079_mjm,fuyc1lafgw,Nick_Dissertation_EX1_EP,1,238,2021-11-04T22:47:50+00:00,8.2366180419922,1,versionA_stim.csv,READVersionA.csv,"Read Version A","Dissertation, read only version A",SHEARS,SCISSORS,Study2,F,112,101,Study,8,8,,Study/JOL,"Study Phase2",8002,,,-1,-1,,,,1
w10029079_mjm,fuyc1lafgw,Nick_Dissertation_EX1_EP,1,239,2021-11-04T22:47:58+00:00,8.2506108283997,1,versionA_stim.csv,READVersionA.csv,"Read Version A","Dissertation, read only version A",DETECTIVE,MYSTERY,Study2,F,100,107,Study,8,8,,Study/JOL,"Study Phase2",8002,,,-1,-1,,,,1
w10029079_mjm,fuyc1lafgw,Nick_Dissertation_EX1_EP,1,240,2021-11-04T22:48:06+00:00,8.2343471050262,1,versionA_stim.csv,READVersionA.csv,"Read Version A","Dissertation, read only version A",BAD,VILLAIN,Study2,B,118,147,Study,8,8,,Study/JOL,"Study Phase2",8003,,,-1,-1,,,,1
w10029079_mjm,fuyc1lafgw,Nick_Dissertation_EX1_EP,1,241,2021-11-04T22:48:14+00:00,8.2190470695496,1,versionA_stim.csv,READVersionA.csv,"Read Version A","Dissertation, read only version A",POP,BALLOON,Study2,B,123,149,Study,8,8,,Study/JOL,"Study Phase2",8002,,,-1,-1,,,,1
w10029079_mjm,fuyc1lafgw,Nick_Dissertation_EX1_EP,1,242,2021-11-04T22:48:23+00:00,8.2335259914398,1,versionA_stim.csv,READVersionA.csv,"Read Version A","Dissertation, read only version A",FLEA,TICK,Study2,S,151,135,Study,8,8,,Study/JOL,"Study Phase2",8006,,,-1,-1,,,,1
w10029079_mjm,fuyc1lafgw,Nick_Dissertation_EX1_EP,1,243,2021-11-04T22:48:31+00:00,8.2346839904785,1,versionA_stim.csv,READVersionA.csv,"Read Version A","Dissertation, read only version A",CAR,WINDSHIELD,Study2,B,117,137,Study,8,8,,Study/JOL,"Study Phase2",8001,,,-1,-1,,,,1
w10029079_mjm,fuyc1lafgw,Nick_Dissertation_EX1_EP,1,244,2021-11-04T22:48:39+00:00,8.2289378643036,1,versionA_stim.csv,READVersionA.csv,"Read Version A","Dissertation, read only version A",CACTUS,PLANT,Study2,F,98,97,Study,8,8,,Study/JOL,"Study Phase2",8003,,,-1,-1,,,,1
w10029079_mjm,fuyc1lafgw,Nick_Dissertation_EX1_EP,1,245,2021-11-04T22:48:47+00:00,8.226811170578,1,versionA_stim.csv,READVersionA.csv,"Read Version A","Dissertation, read only version A",MONEY,BANKER,Study2,B,132,127,Study,8,8,,Study/JOL,"Study Phase2",8005,,,-1,-1,,,,1
w10029079_mjm,fuyc1lafgw,Nick_Dissertation_EX1_EP,1,246,2021-11-04T22:48:56+00:00,8.2213819026947,1,versionA_stim.csv,READVersionA.csv,"Read Version A","Dissertation, read only version A",CAKE,CLOTHES,Study2,U,166,114,Study,8,8,,Study/JOL,"Study Phase2",8002,,,-1,-1,,,,1
w10029079_mjm,fuyc1lafgw,Nick_Dissertation_EX1_EP,1,247,2021-11-04T22:49:04+00:00,8.226135969162,1,versionA_stim.csv,READVersionA.csv,"Read Version A","Dissertation, read only version A",ADJOURN,END,Study2,F,101,108,Study,8,8,,Study/JOL,"Study Phase2",8002,,,-1,-1,,,,1
w10029079_mjm,fuyc1lafgw,Nick_Dissertation_EX1_EP,1,248,2021-11-04T22:49:12+00:00,8.2217230796814,1,versionA_stim.csv,READVersionA.csv,"Read Version A","Dissertation, read only version A",CHERRY,RED,Study2,F,104,115,Study,8,8,,Study/JOL,"Study Phase2",8002,,,-1,-1,,,,1
w10029079_mjm,fuyc1lafgw,Nick_Dissertation_EX1_EP,1,249,2021-11-04T22:49:20+00:00,8.2342710494995,1,versionA_stim.csv,READVersionA.csv,"Read Version A","Dissertation, read only version A",INCENSE,SMELL,Study2,F,110,143,Study,8,8,,Study/JOL,"Study Phase2",8003,,,-1,-1,,,,1
w10029079_mjm,fuyc1lafgw,Nick_Dissertation_EX1_EP,1,250,2021-11-04T22:49:29+00:00,8.2597138881683,1,versionA_stim.csv,READVersionA.csv,"Read Version A","Dissertation, read only version A",STAR,ACTRESS,Study2,B,120,103,Study,8,8,,Study/JOL,"Study Phase2",8002,,,-1,-1,,,,1
w10029079_mjm,fuyc1lafgw,Nick_Dissertation_EX1_EP,1,251,2021-11-04T22:49:37+00:00,8.2509760856628,1,versionA_stim.csv,READVersionA.csv,"Read Version A","Dissertation, read only version A",CHOP,CUT,Study2,F,107,124,Study,8,8,,Study/JOL,"Study Phase2",8005,,,-1,-1,,,,1
w10029079_mjm,fuyc1lafgw,Nick_Dissertation_EX1_EP,1,252,2021-11-04T22:49:45+00:00,8.2387108802795,1,versionA_stim.csv,READVersionA.csv,"Read Version A","Dissertation, read only version A",FIGHT,BRAWL,Study2,B,135,162,Study,8,8,,Study/JOL,"Study Phase2",8003,,,-1,-1,,,,1
w10029079_mjm,fuyc1lafgw,Nick_Dissertation_EX1_EP,1,253,2021-11-04T22:49:53+00:00,8.2339279651642,1,versionA_stim.csv,READVersionA.csv,"Read Version A","Dissertation, read only version A",TURN,FLIP,Study2,B,116,132,Study,8,8,,Study/JOL,"Study Phase2",8003,,,-1,-1,,,,1
w10029079_mjm,fuyc1lafgw,Nick_Dissertation_EX1_EP,1,254,2021-11-04T22:50:02+00:00,8.2827751636505,1,versionA_stim.csv,READVersionA.csv,"Read Version A","Dissertation, read only version A",MULE,DONKEY,Study2,F,108,131,Study,8,8,,Study/JOL,"Study Phase2",8002,,,-1,-1,,,,1
w10029079_mjm,fuyc1lafgw,Nick_Dissertation_EX1_EP,1,255,2021-11-04T22:50:10+00:00,8.266077041626,1,versionA_stim.csv,READVersionA.csv,"Read Version A","Dissertation, read only version A",EVEN,REVENGE,Study2,B,122,151,Study,8,8,,Study/JOL,"Study Phase2",8002,,,-1,-1,,,,1
w10029079_mjm,fuyc1lafgw,Nick_Dissertation_EX1_EP,1,256,2021-11-04T22:50:18+00:00,8.2092709541321,1,versionA_stim.csv,READVersionA.csv,"Read Version A","Dissertation, read only version A",WATER,DRINK,Study2,S,143,106,Study,8,8,,Study/JOL,"Study Phase2",8002,,,-1,-1,,,,1
w10029079_mjm,fuyc1lafgw,Nick_Dissertation_EX1_EP,1,257,2021-11-04T22:50:26+00:00,8.2182419300079,1,versionA_stim.csv,READVersionA.csv,"Read Version A","Dissertation, read only version A",Shell,SHAKE,Study2,U,163,163,Study,8,8,,Study/JOL,"Study Phase2",8002,,,-1,-1,,,,1
w10029079_mjm,fuyc1lafgw,Nick_Dissertation_EX1_EP,1,258,2021-11-04T22:50:34+00:00,8.2339038848877,1,versionA_stim.csv,READVersionA.csv,"Read Version A","Dissertation, read only version A",MEAT,OBTAIN,Study2,U,161,98,Study,8,8,,Study/JOL,"Study Phase2",8002,,,-1,-1,,,,1
w10029079_mjm,fuyc1lafgw,Nick_Dissertation_EX1_EP,1,259,2021-11-04T22:50:43+00:00,8.2333831787109,1,versionA_stim.csv,READVersionA.csv,"Read Version A","Dissertation, read only version A",RAZOR,SHAVE,Study2,S,136,111,Study,8,8,,Study/JOL,"Study Phase2",8002,,,-1,-1,,,,1
w10029079_mjm,fuyc1lafgw,Nick_Dissertation_EX1_EP,1,260,2021-11-04T22:50:51+00:00,8.213268995285,1,versionA_stim.csv,READVersionA.csv,"Read Version A","Dissertation, read only version A",TANTRUM,TEMPER,Study2,S,154,159,Study,8,8,,Study/JOL,"Study Phase2",8002,,,-1,-1,,,,1
w10029079_mjm,fuyc1lafgw,Nick_Dissertation_EX1_EP,1,261,2021-11-04T22:50:59+00:00,8.2366609573364,1,versionA_stim.csv,READVersionA.csv,"Read Version A","Dissertation, read only version A",DOCUMENT,PAPER,Study2,F,109,99,Study,8,8,,Study/JOL,"Study Phase2",8003,,,-1,-1,,,,1
w10029079_mjm,fuyc1lafgw,Nick_Dissertation_EX1_EP,1,262,2021-11-04T22:51:07+00:00,8.2323589324951,1,versionA_stim.csv,READVersionA.csv,"Read Version A","Dissertation, read only version A",OWN,HAVE,Study2,S,153,119,Study,8,8,,Study/JOL,"Study Phase2",8003,,,-1,-1,,,,1
w10029079_mjm,fuyc1lafgw,Nick_Dissertation_EX1_EP,1,263,2021-11-04T22:51:16+00:00,8.2349679470062,1,versionA_stim.csv,READVersionA.csv,"Read Version A","Dissertation, read only version A",SUN,TAN,Study2,S,155,129,Study,8,8,,Study/JOL,"Study Phase2",8007,,,-1,-1,,,,1
w10029079_mjm,fuyc1lafgw,Nick_Dissertation_EX1_EP,1,264,2021-11-04T22:51:24+00:00,8.2268090248108,1,versionA_stim.csv,READVersionA.csv,"Read Version A","Dissertation, read only version A",MONTH,YEAR,BUFFER4,Buffer,177,181,Study,8,8,,Study/JOL,BUFFER4,8002,,,-1,-1,,,,1
w10029079_mjm,fuyc1lafgw,Nick_Dissertation_EX1_EP,1,265,2021-11-04T22:51:32+00:00,8.2063090801239,1,versionA_stim.csv,READVersionA.csv,"Read Version A","Dissertation, read only version A",TOOL,SHED,BUFFER4,Buffer,178,179,Study,8,8,,Study/JOL,BUFFER4,8003,,,-1,-1,,,,1
w10029079_mjm,fuyc1lafgw,Nick_Dissertation_EX1_EP,1,266,2021-11-04T22:51:40+00:00,8.2250590324402,1,versionA_stim.csv,READVersionA.csv,"Read Version A","Dissertation, read only version A",OCTOBER,SPOOKY,BUFFER4,Buffer,180,178,Study,8,8,,Study/JOL,BUFFER4,8002,,,-1,-1,,,,1
w10029079_mjm,fuyc1lafgw,Nick_Dissertation_EX1_EP,1,267,2021-11-04T22:51:48+00:00,8.2371270656586,1,versionA_stim.csv,READVersionA.csv,"Read Version A","Dissertation, read only version A",DAYS,WEAKS,BUFFER4,Buffer,176,180,Study,8,8,,Study/JOL,BUFFER4,8002,,,-1,-1,,,,1
w10029079_mjm,fuyc1lafgw,Nick_Dissertation_EX1_EP,1,268,2021-11-04T22:51:57+00:00,8.231153011322,1,versionA_stim.csv,READVersionA.csv,"Read Version A","Dissertation, read only version A",SPRING,MARCH,BUFFER4,Buffer,179,177,Study,8,8,,Study/JOL,BUFFER4,8003,,,-1,-1,,,,1
w10029079_mjm,fuyc1lafgw,Nick_Dissertation_EX1_EP,1,269,2021-11-04T22:52:00+00:00,3.6927359104156,1,versionA_stim.csv,READVersionA.csv,"Read Version A","Dissertation, read only version A",,,,,,0,Instruct,User,-,"You have completed this section. Please press Enter.",Filler_Instruction,Instruct5,3358,,,-1,-1,,,,1
w10029079_mjm,fuyc1lafgw,Nick_Dissertation_EX1_EP,1,270,2021-11-04T22:54:01+00:00,120.29152607918,1,versionA_stim.csv,READVersionA.csv,"Read Version A","Dissertation, read only version A",,,,,,0,FreeRecall,120,120,"Please list the 50 US states in reverse alphabetical order (z - a). The task will automatically advance to the next screen after two minutes.",,Filler2,120003,"Wyoming Wisconsin West virginia washington",0,98678,119931,0,0,,0.663
w10029079_mjm,fuyc1lafgw,Nick_Dissertation_EX1_EP,1,271,2021-11-04T22:54:12+00:00,11.326036930084,1,versionA_stim.csv,READVersionA.csv,"Read Version A","Dissertation, read only version A",,,,,,0,Instruct,-,10,"You will now be presented with the first word from each of the previously studied item pairs. Please type the missing word. If you do not know the word, you may guess or press Enter to skip forward to the next pair.",,Instruct6,10966,,,-1,-1,,,,1
w10029079_mjm,fuyc1lafgw,Nick_Dissertation_EX1_EP,1,272,2021-11-04T22:54:15+00:00,3.2874989509583,1,versionA_stim.csv,READVersionA.csv,"Read Version A","Dissertation, read only version A",WRIST,BRACELET,Study2,S,140,171,Test,User,-,,Recall,Recall2,2942,hand,16.666666666667,2435,2822,0,0,,1
w10029079_mjm,fuyc1lafgw,Nick_Dissertation_EX1_EP,1,273,2021-11-04T22:54:18+00:00,2.3016500473022,1,versionA_stim.csv,READVersionA.csv,"Read Version A","Dissertation, read only version A",TANTRUM,TEMPER,Study2,S,154,159,Test,User,-,,Recall,Recall2,2069,fit,22.222222222222,1714,1921,0,0,,1
w10029079_mjm,fuyc1lafgw,Nick_Dissertation_EX1_EP,1,274,2021-11-04T22:54:20+00:00,2.5054039955139,1,versionA_stim.csv,READVersionA.csv,"Read Version A","Dissertation, read only version A",SAFETY,SEATBELT,Study2,S,147,112,Test,User,-,,Recall,Recall2,2284,hazard,14.285714285714,1286,2196,0,0,,1
w10029079_mjm,fuyc1lafgw,Nick_Dissertation_EX1_EP,1,275,2021-11-04T22:54:22+00:00,2.0927579402924,1,versionA_stim.csv,READVersionA.csv,"Read Version A","Dissertation, read only version A",PLANE,AIRCRAFT,Study2,B,129,109,Test,User,-,,Recall,Recall2,1863,air,54.545454545455,1476,1720,0,0,,1
w10029079_mjm,fuyc1lafgw,Nick_Dissertation_EX1_EP,1,276,2021-11-04T22:54:24+00:00,2.0550670623779,1,versionA_stim.csv,READVersionA.csv,"Read Version A","Dissertation, read only version A",DEAD,COFFIN,Study2,B,128,138,Test,User,-,,Recall,Recall2,1830,alive,18.181818181818,1277,1742,0,0,,1
w10029079_mjm,fuyc1lafgw,Nick_Dissertation_EX1_EP,1,277,2021-11-04T22:54:27+00:00,3.0977320671082,1,versionA_stim.csv,READVersionA.csv,"Read Version A","Dissertation, read only version A",CACTUS,PLANT,Study2,F,98,97,Test,User,-,,Recall,Recall2,2882,poke,22.222222222222,2357,2784,0,0,,1
w10029079_mjm,fuyc1lafgw,Nick_Dissertation_EX1_EP,1,278,2021-11-04T22:54:31+00:00,3.7445018291473,1,versionA_stim.csv,READVersionA.csv,"Read Version A","Dissertation, read only version A",FISH,SARDINE,Study2,B,130,117,Test,User,-,,Recall,Recall2,3542,food,18.181818181818,3076,3425,0,0,,1
w10029079_mjm,fuyc1lafgw,Nick_Dissertation_EX1_EP,1,279,2021-11-04T22:54:34+00:00,3.1007649898529,1,versionA_stim.csv,READVersionA.csv,"Read Version A","Dissertation, read only version A",MAZE,ELECTION,Study2,U,159,168,Test,User,-,,Recall,Recall2,2608,grass,0,1861,2499,0,0,,1
w10029079_mjm,fuyc1lafgw,Nick_Dissertation_EX1_EP,1,280,2021-11-04T22:54:36+00:00,1.8064520359039,1,versionA_stim.csv,READVersionA.csv,"Read Version A","Dissertation, read only version A",CANDLE,WAX,Study2,S,139,118,Test,User,-,,Recall,Recall2,1592,light,0,1024,1432,0,0,,1
w10029079_mjm,fuyc1lafgw,Nick_Dissertation_EX1_EP,1,281,2021-11-04T22:54:39+00:00,2.7642500400543,1,versionA_stim.csv,READVersionA.csv,"Read Version A","Dissertation, read only version A",DETECTIVE,MYSTERY,Study2,F,100,107,Test,User,-,,Recall,Recall2,2540,cop,0,1897,2184,0,0,,1
w10029079_mjm,fuyc1lafgw,Nick_Dissertation_EX1_EP,1,282,2021-11-04T22:54:42+00:00,3.3096950054169,1,versionA_stim.csv,READVersionA.csv,"Read Version A","Dissertation, read only version A",SHOELACE,TIE,Study2,F,99,130,Test,User,-,,Recall,Recall2,3109,shoe,28.571428571429,1051,3008,0,0,,1
w10029079_mjm,fuyc1lafgw,Nick_Dissertation_EX1_EP,1,283,2021-11-04T22:54:45+00:00,3.0431110858917,1,versionA_stim.csv,READVersionA.csv,"Read Version A","Dissertation, read only version A",FEUD,FIGHT,Study2,F,113,167,Test,User,-,,Recall,Recall2,2839,fight,100,2348,2688,1,1,,1
w10029079_mjm,fuyc1lafgw,Nick_Dissertation_EX1_EP,1,284,2021-11-04T22:54:47+00:00,1.9078388214111,1,versionA_stim.csv,READVersionA.csv,"Read Version A","Dissertation, read only version A",LEASE,TOIL,Study2,U,170,155,Test,User,-,,Recall,Recall2,1709,house,22.222222222222,1059,1616,0,0,,1
w10029079_mjm,fuyc1lafgw,Nick_Dissertation_EX1_EP,1,285,2021-11-04T22:54:50+00:00,3.3308200836182,1,versionA_stim.csv,READVersionA.csv,"Read Version A","Dissertation, read only version A",MULE,DONKEY,Study2,F,108,131,Test,User,-,,Recall,Recall2,3116,donkey,100,1451,2977,1,1,,1
w10029079_mjm,fuyc1lafgw,Nick_Dissertation_EX1_EP,1,286,2021-11-04T22:54:52+00:00,1.8570380210876,1,versionA_stim.csv,READVersionA.csv,"Read Version A","Dissertation, read only version A",TRUTH,LIE,Study2,S,148,141,Test,User,-,,Recall,Recall2,1631,lie,100,1145,1536,1,1,,1
w10029079_mjm,fuyc1lafgw,Nick_Dissertation_EX1_EP,1,287,2021-11-04T22:54:56+00:00,3.2961320877075,1,versionA_stim.csv,READVersionA.csv,"Read Version A","Dissertation, read only version A",SUN,TAN,Study2,S,155,129,Test,User,-,,Recall,Recall2,2993,cloud,0,2167,2646,0,0,,1
w10029079_mjm,fuyc1lafgw,Nick_Dissertation_EX1_EP,1,288,2021-11-04T22:54:58+00:00,2.7526609897614,1,versionA_stim.csv,READVersionA.csv,"Read Version A","Dissertation, read only version A",ELEMENT,CARBON,Study2,S,141,100,Test,User,-,,Recall,Recall2,2501,fire,20,2066,2405,0,0,,1
w10029079_mjm,fuyc1lafgw,Nick_Dissertation_EX1_EP,1,289,2021-11-04T22:55:00+00:00,1.8053789138794,1,versionA_stim.csv,READVersionA.csv,"Read Version A","Dissertation, read only version A",GONE,AWAY,Study2,S,142,123,Test,User,-,,Recall,Recall2,1575,bye,28.571428571429,1129,1427,0,0,,1
w10029079_mjm,fuyc1lafgw,Nick_Dissertation_EX1_EP,1,290,2021-11-04T22:55:03+00:00,3.3428471088409,1,versionA_stim.csv,READVersionA.csv,"Read Version A","Dissertation, read only version A",MONEY,BANKER,Study2,B,132,127,Test,User,-,,Recall,Recall2,3136,cash,20,1560,2188,0,0,,1
w10029079_mjm,fuyc1lafgw,Nick_Dissertation_EX1_EP,1,291,2021-11-04T22:55:06+00:00,2.4390778541565,1,versionA_stim.csv,READVersionA.csv,"Read Version A","Dissertation, read only version A",EARTH,GROUND,Study2,S,144,175,Test,User,-,,Recall,Recall2,2224,round,90.909090909091,1515,2079,0,1,,1
w10029079_mjm,fuyc1lafgw,Nick_Dissertation_EX1_EP,1,292,2021-11-04T22:55:08+00:00,2.6126239299774,1,versionA_stim.csv,READVersionA.csv,"Read Version A","Dissertation, read only version A",BIRD,PENGUIN,Study2,B,119,161,Test,User,-,,Recall,Recall2,2393,dog,20,2068,2254,0,0,,1
w10029079_mjm,fuyc1lafgw,Nick_Dissertation_EX1_EP,1,293,2021-11-04T22:55:11+00:00,2.5159990787506,1,versionA_stim.csv,READVersionA.csv,"Read Version A","Dissertation, read only version A",CAKE,CLOTHES,Study2,U,166,114,Test,User,-,,Recall,Recall2,2303,sweet,16.666666666667,1518,2202,0,0,,1
w10029079_mjm,fuyc1lafgw,Nick_Dissertation_EX1_EP,1,294,2021-11-04T22:55:13+00:00,2.3813180923462,1,versionA_stim.csv,READVersionA.csv,"Read Version A","Dissertation, read only version A",TURN,FLIP,Study2,B,116,132,Test,User,-,,Recall,Recall2,2172,right,22.222222222222,1141,2015,0,0,,1
w10029079_mjm,fuyc1lafgw,Nick_Dissertation_EX1_EP,1,295,2021-11-04T22:55:15+00:00,2.0796680450439,1,versionA_stim.csv,READVersionA.csv,"Read Version A","Dissertation, read only version A",MIRROR,CHILDREN,Study2,U,174,153,Test,User,-,,Recall,Recall2,1852,image,30.769230769231,1145,1699,0,0,,1
w10029079_mjm,fuyc1lafgw,Nick_Dissertation_EX1_EP,1,296,2021-11-04T22:55:19+00:00,3.0739758014679,1,versionA_stim.csv,READVersionA.csv,"Read Version A","Dissertation, read only version A",Shell,SHAKE,Study2,U,163,163,Test,User,-,,Recall,Recall2,2868,beach,20,2146,2621,0,0,,1
w10029079_mjm,fuyc1lafgw,Nick_Dissertation_EX1_EP,1,297,2021-11-04T22:55:20+00:00,1.6418790817261,1,versionA_stim.csv,READVersionA.csv,"Read Version A","Dissertation, read only version A",LITTER,TRASH,Study2,F,103,140,Test,User,-,,Recall,Recall2,1429,dog,0,1065,1272,0,0,,1
w10029079_mjm,fuyc1lafgw,Nick_Dissertation_EX1_EP,1,298,2021-11-04T22:55:23+00:00,2.8699231147766,1,versionA_stim.csv,READVersionA.csv,"Read Version A","Dissertation, read only version A",KEYS,JOKE,Study2,U,165,120,Test,User,-,,Recall,Recall2,2663,jangle,40,1784,2451,0,0,,1
w10029079_mjm,fuyc1lafgw,Nick_Dissertation_EX1_EP,1,299,2021-11-04T22:55:25+00:00,2.1074819564819,1,versionA_stim.csv,READVersionA.csv,"Read Version A","Dissertation, read only version A",ADJOURN,END,Study2,F,101,108,Test,User,-,,Recall,Recall2,1902,law,0,1524,1780,0,0,,1
w10029079_mjm,fuyc1lafgw,Nick_Dissertation_EX1_EP,1,300,2021-11-04T22:55:27+00:00,2.2033400535583,1,versionA_stim.csv,READVersionA.csv,"Read Version A","Dissertation, read only version A",DINE,EAT,Study2,F,111,126,Test,User,-,,Recall,Recall2,1954,out,33.333333333333,1124,1376,0,0,,1
w10029079_mjm,fuyc1lafgw,Nick_Dissertation_EX1_EP,1,301,2021-11-04T22:55:30+00:00,2.1977248191833,1,versionA_stim.csv,READVersionA.csv,"Read Version A","Dissertation, read only version A",PHONE,COMMUNICATION,Study2,S,149,128,Test,User,-,,Recall,Recall2,1978,number,10.526315789474,1072,1829,0,0,,1
w10029079_mjm,fuyc1lafgw,Nick_Dissertation_EX1_EP,1,302,2021-11-04T22:55:30+00:00,0.69004416465759,1,versionA_stim.csv,READVersionA.csv,"Read Version A","Dissertation, read only version A",CHILL,COLD,Study2,F,114,165,Test,User,-,,Recall,Recall2,482,,0,-1,-1,0,0,,1
w10029079_mjm,fuyc1lafgw,Nick_Dissertation_EX1_EP,1,303,2021-11-04T22:55:32+00:00,2.1142938137054,1,versionA_stim.csv,READVersionA.csv,"Read Version A","Dissertation, read only version A",LOAN,SIGN,Study2,U,171,139,Test,User,-,,Recall,Recall2,1862,money,22.222222222222,1052,1738,0,0,,1
w10029079_mjm,fuyc1lafgw,Nick_Dissertation_EX1_EP,1,304,2021-11-04T22:55:34+00:00,1.7758440971375,1,versionA_stim.csv,READVersionA.csv,"Read Version A","Dissertation, read only version A",BAD,VILLAIN,Study2,B,118,147,Test,User,-,,Recall,Recall2,1543,good,0,1047,1408,0,0,,1
w10029079_mjm,fuyc1lafgw,Nick_Dissertation_EX1_EP,1,305,2021-11-04T22:55:36+00:00,2.1603910923004,1,versionA_stim.csv,READVersionA.csv,"Read Version A","Dissertation, read only version A",FIGHT,BRAWL,Study2,B,135,162,Test,User,-,,Recall,Recall2,1951,,0,-1,-1,0,0,,1
w10029079_mjm,fuyc1lafgw,Nick_Dissertation_EX1_EP,1,306,2021-11-04T22:55:39+00:00,3.0105509757996,1,versionA_stim.csv,READVersionA.csv,"Read Version A","Dissertation, read only version A",MEAT,OBTAIN,Study2,U,161,98,Test,User,-,,Recall,Recall2,2788,food,20,2316,2675,0,0,,1
w10029079_mjm,fuyc1lafgw,Nick_Dissertation_EX1_EP,1,307,2021-11-04T22:55:41+00:00,1.7984158992767,1,versionA_stim.csv,READVersionA.csv,"Read Version A","Dissertation, read only version A",LISTEN,FICTION,Study2,U,164,102,Test,User,-,,Recall,Recall2,1569,hear,0,1037,1458,0,0,,1
w10029079_mjm,fuyc1lafgw,Nick_Dissertation_EX1_EP,1,308,2021-11-04T22:55:44+00:00,2.6946589946747,1,versionA_stim.csv,READVersionA.csv,"Read Version A","Dissertation, read only version A",THREAD,THIMBLE,Study2,B,121,116,Test,User,-,,Recall,Recall2,2459,sew,20,1943,2303,0,0,,1
w10029079_mjm,fuyc1lafgw,Nick_Dissertation_EX1_EP,1,309,2021-11-04T22:55:46+00:00,1.7604789733887,1,versionA_stim.csv,READVersionA.csv,"Read Version A","Dissertation, read only version A",SCALP,HEAD,Study2,F,105,176,Test,User,-,,Recall,Recall2,1544,head,100,1009,1423,1,1,,1
w10029079_mjm,fuyc1lafgw,Nick_Dissertation_EX1_EP,1,310,2021-11-04T22:55:50+00:00,4.1565361022949,1,versionA_stim.csv,READVersionA.csv,"Read Version A","Dissertation, read only version A",ALONE,LONELY,Study2,S,145,142,Test,User,-,,Recall,Recall2,3935,sad,0,3490,3818,0,0,,1
w10029079_mjm,fuyc1lafgw,Nick_Dissertation_EX1_EP,1,311,2021-11-04T22:55:51+00:00,1.7231638431549,1,versionA_stim.csv,READVersionA.csv,"Read Version A","Dissertation, read only version A",CRACKLE,ABLE,Study2,U,162,144,Test,User,-,,Recall,Recall2,1463,,0,-1,-1,0,0,,1
w10029079_mjm,fuyc1lafgw,Nick_Dissertation_EX1_EP,1,312,2021-11-04T22:55:53+00:00,1.4072360992432,1,versionA_stim.csv,READVersionA.csv,"Read Version A","Dissertation, read only version A",BOTH,OUNCE,Study2,U,172,134,Test,User,-,,Recall,Recall2,1142,,0,-1,-1,0,0,,1
w10029079_mjm,fuyc1lafgw,Nick_Dissertation_EX1_EP,1,313,2021-11-04T22:55:58+00:00,4.9471719264984,1,versionA_stim.csv,READVersionA.csv,"Read Version A","Dissertation, read only version A",LOUD,NOISE,Study2,S,152,172,Test,User,-,,Recall,Recall2,4709,,0,-1,-1,0,0,,1
w10029079_mjm,fuyc1lafgw,Nick_Dissertation_EX1_EP,1,314,2021-11-04T22:56:00+00:00,1.905308008194,1,versionA_stim.csv,READVersionA.csv,"Read Version A","Dissertation, read only version A",GIVE,STEAK,Study2,U,158,164,Test,User,-,,Recall,Recall2,1657,take,66.666666666667,1103,1510,0,0,,1
w10029079_mjm,fuyc1lafgw,Nick_Dissertation_EX1_EP,1,315,2021-11-04T22:56:03+00:00,3.0948441028595,1,versionA_stim.csv,READVersionA.csv,"Read Version A","Dissertation, read only version A",HONEST,TRUTHFUL,Study2,B,133,166,Test,User,-,,Recall,Recall2,2878,opinion,0,1272,2589,0,0,,1
w10029079_mjm,fuyc1lafgw,Nick_Dissertation_EX1_EP,1,316,2021-11-04T22:56:04+00:00,1.3459899425507,1,versionA_stim.csv,READVersionA.csv,"Read Version A","Dissertation, read only version A",MOAT,CLEAR,Study2,U,169,169,Test,User,-,,Recall,Recall2,1126,,0,-1,-1,0,0,,1
w10029079_mjm,fuyc1lafgw,Nick_Dissertation_EX1_EP,1,317,2021-11-04T22:56:06+00:00,2.3624339103699,1,versionA_stim.csv,READVersionA.csv,"Read Version A","Dissertation, read only version A",CLUE,GAME,Study2,F,97,104,Test,User,-,,Recall,Recall2,2154,game,100,1603,2006,1,1,,1
w10029079_mjm,fuyc1lafgw,Nick_Dissertation_EX1_EP,1,318,2021-11-04T22:56:09+00:00,2.0814781188965,1,versionA_stim.csv,READVersionA.csv,"Read Version A","Dissertation, read only version A",POP,BALLOON,Study2,B,123,149,Test,User,-,,Recall,Recall2,1868,smack,16.666666666667,1225,1654,0,0,,1
w10029079_mjm,fuyc1lafgw,Nick_Dissertation_EX1_EP,1,319,2021-11-04T22:56:11+00:00,2.300409078598,1,versionA_stim.csv,READVersionA.csv,"Read Version A","Dissertation, read only version A",DOCUMENT,PAPER,Study2,F,109,99,Test,User,-,,Recall,Recall2,2072,letter,36.363636363636,1366,2007,0,0,,1
w10029079_mjm,fuyc1lafgw,Nick_Dissertation_EX1_EP,1,320,2021-11-04T22:56:13+00:00,2.5396189689636,1,versionA_stim.csv,READVersionA.csv,"Read Version A","Dissertation, read only version A",CAR,WINDSHIELD,Study2,B,117,137,Test,User,-,,Recall,Recall2,2331,truck,0,1548,2099,0,0,,1
w10029079_mjm,fuyc1lafgw,Nick_Dissertation_EX1_EP,1,321,2021-11-04T22:56:14+00:00,0.89811491966248,1,versionA_stim.csv,READVersionA.csv,"Read Version A","Dissertation, read only version A",MASON,JAR,Study2,S,138,174,Test,User,-,,Recall,Recall2,665,,0,-1,-1,0,0,,1
w10029079_mjm,fuyc1lafgw,Nick_Dissertation_EX1_EP,1,322,2021-11-04T22:56:21+00:00,6.9038069248199,1,versionA_stim.csv,READVersionA.csv,"Read Version A","Dissertation, read only version A",STRETCH,CLOTH,Study2,U,157,136,Test,User,-,,Recall,Recall2,6624,good,22.222222222222,6195,6497,0,0,,1
w10029079_mjm,fuyc1lafgw,Nick_Dissertation_EX1_EP,1,323,2021-11-04T22:56:23+00:00,2.2334690093994,1,versionA_stim.csv,READVersionA.csv,"Read Version A","Dissertation, read only version A",RAZOR,SHAVE,Study2,S,136,111,Test,User,-,,Recall,Recall2,1982,burn,0,1439,1778,0,0,,1
w10029079_mjm,fuyc1lafgw,Nick_Dissertation_EX1_EP,1,324,2021-11-04T22:56:27+00:00,3.1204290390015,1,versionA_stim.csv,READVersionA.csv,"Read Version A","Dissertation, read only version A",SHEARS,SCISSORS,Study2,F,112,101,Test,User,-,,Recall,Recall2,2864,garden,14.285714285714,1979,2639,0,0,,1
w10029079_mjm,fuyc1lafgw,Nick_Dissertation_EX1_EP,1,325,2021-11-04T22:56:31+00:00,4.71746301651,1,versionA_stim.csv,READVersionA.csv,"Read Version A","Dissertation, read only version A",DRIVER,CAR,Study2,F,106,160,Test,User,-,,Recall,Recall2,4506,passenger,33.333333333333,1345,4368,0,0,,1
w10029079_mjm,fuyc1lafgw,Nick_Dissertation_EX1_EP,1,326,2021-11-04T22:56:33+00:00,2.0532569885254,1,versionA_stim.csv,READVersionA.csv,"Read Version A","Dissertation, read only version A",AFFECTION,LOVE,Study2,F,115,110,Test,User,-,,Recall,Recall2,1839,hug,0,1328,1569,0,0,,1
w10029079_mjm,fuyc1lafgw,Nick_Dissertation_EX1_EP,1,327,2021-11-04T22:56:36+00:00,2.4225840568542,1,versionA_stim.csv,READVersionA.csv,"Read Version A","Dissertation, read only version A",OWN,HAVE,Study2,S,153,119,Test,User,-,,Recall,Recall2,2218,house,44.444444444444,1546,2094,0,0,,1
w10029079_mjm,fuyc1lafgw,Nick_Dissertation_EX1_EP,1,328,2021-11-04T22:56:39+00:00,2.8408010005951,1,versionA_stim.csv,READVersionA.csv,"Read Version A","Dissertation, read only version A",WATER,DRINK,Study2,S,143,106,Test,User,-,,Recall,Recall2,2604,soda,22.222222222222,1686,2499,0,0,,1
w10029079_mjm,fuyc1lafgw,Nick_Dissertation_EX1_EP,1,329,2021-11-04T22:56:41+00:00,2.5422089099884,1,versionA_stim.csv,READVersionA.csv,"Read Version A","Dissertation, read only version A",EXTENSION,LONG,Study2,F,96,156,Test,User,-,,Recall,Recall2,2335,chord,22.222222222222,1377,2241,0,0,,1
w10029079_mjm,fuyc1lafgw,Nick_Dissertation_EX1_EP,1,330,2021-11-04T22:56:44+00:00,3.0063621997833,1,versionA_stim.csv,READVersionA.csv,"Read Version A","Dissertation, read only version A",INCENSE,SMELL,Study2,F,110,143,Test,User,-,,Recall,Recall2,2782,smell,100,2107,2620,1,1,,1
w10029079_mjm,fuyc1lafgw,Nick_Dissertation_EX1_EP,1,331,2021-11-04T22:56:46+00:00,1.7842569351196,1,versionA_stim.csv,READVersionA.csv,"Read Version A","Dissertation, read only version A",VEHICLE,CHARM,Study2,U,160,105,Test,User,-,,Recall,Recall2,1529,car,75,1084,1416,0,1,,1
w10029079_mjm,fuyc1lafgw,Nick_Dissertation_EX1_EP,1,332,2021-11-04T22:56:50+00:00,3.6174209117889,1,versionA_stim.csv,READVersionA.csv,"Read Version A","Dissertation, read only version A",FRUIT,STRAWBERRY,Study2,B,124,146,Test,User,-,,Recall,Recall2,3397,bowl,14.285714285714,2054,3154,0,0,,1
w10029079_mjm,fuyc1lafgw,Nick_Dissertation_EX1_EP,1,333,2021-11-04T22:56:52+00:00,2.6047189235687,1,versionA_stim.csv,READVersionA.csv,"Read Version A","Dissertation, read only version A",CHERRY,RED,Study2,F,104,115,Test,User,-,,Recall,Recall2,2389,fruit,25,1733,2232,0,0,,1
w10029079_mjm,fuyc1lafgw,Nick_Dissertation_EX1_EP,1,334,2021-11-04T22:56:53+00:00,0.83106112480164,1,versionA_stim.csv,READVersionA.csv,"Read Version A","Dissertation, read only version A",MAIN,SCAR,Study2,U,175,158,Test,User,-,,Recall,Recall2,619,,0,-1,-1,0,0,,1
w10029079_mjm,fuyc1lafgw,Nick_Dissertation_EX1_EP,1,335,2021-11-04T22:56:56+00:00,3.0036880970001,1,versionA_stim.csv,READVersionA.csv,"Read Version A","Dissertation, read only version A",FURRY,DOG,Study2,F,102,148,Test,User,-,,Recall,Recall2,2811,cat,0,2325,2704,0,0,,1
w10029079_mjm,fuyc1lafgw,Nick_Dissertation_EX1_EP,1,336,2021-11-04T22:56:58+00:00,2.2315468788147,1,versionA_stim.csv,READVersionA.csv,"Read Version A","Dissertation, read only version A",STAR,ACTRESS,Study2,B,120,103,Test,User,-,,Recall,Recall2,2006,sky,20,1498,1861,0,0,,1
w10029079_mjm,fuyc1lafgw,Nick_Dissertation_EX1_EP,1,337,2021-11-04T22:57:00+00:00,2.1683850288391,1,versionA_stim.csv,READVersionA.csv,"Read Version A","Dissertation, read only version A",DRY,WET,Study2,S,146,150,Test,User,-,,Recall,Recall2,1953,wet,100,1505,1827,1,1,,1
w10029079_mjm,fuyc1lafgw,Nick_Dissertation_EX1_EP,1,338,2021-11-04T22:57:02+00:00,1.9673969745636,1,versionA_stim.csv,READVersionA.csv,"Read Version A","Dissertation, read only version A",ROD,REEL,Study2,S,150,122,Test,User,-,,Recall,Recall2,1752,fish,0,1185,1566,0,0,,1
w10029079_mjm,fuyc1lafgw,Nick_Dissertation_EX1_EP,1,339,2021-11-04T22:57:05+00:00,2.841157913208,1,versionA_stim.csv,READVersionA.csv,"Read Version A","Dissertation, read only version A",SLEEP,NAP,Study2,B,134,125,Test,User,-,,Recall,Recall2,2594,snooze,22.222222222222,1415,2456,0,0,,1
w10029079_mjm,fuyc1lafgw,Nick_Dissertation_EX1_EP,1,340,2021-11-04T22:57:07+00:00,1.6965141296387,1,versionA_stim.csv,READVersionA.csv,"Read Version A","Dissertation, read only version A",FLEA,TICK,Study2,S,151,135,Test,User,-,,Recall,Recall2,1439,dog,0,1038,1251,0,0,,1
w10029079_mjm,fuyc1lafgw,Nick_Dissertation_EX1_EP,1,341,2021-11-04T22:57:09+00:00,2.5649480819702,1,versionA_stim.csv,READVersionA.csv,"Read Version A","Dissertation, read only version A",FUZZY,BANG,Study2,U,168,154,Test,User,-,,Recall,Recall2,1851,ball,50,1304,1689,0,0,,1
w10029079_mjm,fuyc1lafgw,Nick_Dissertation_EX1_EP,1,342,2021-11-04T22:57:13+00:00,3.5175659656525,1,versionA_stim.csv,READVersionA.csv,"Read Version A","Dissertation, read only version A",CAT,PANTHER,Study2,B,126,133,Test,User,-,,Recall,Recall2,3305,sneeze,30.769230769231,2152,3192,0,0,,1
w10029079_mjm,fuyc1lafgw,Nick_Dissertation_EX1_EP,1,343,2021-11-04T22:57:18+00:00,5.2706599235535,1,versionA_stim.csv,READVersionA.csv,"Read Version A","Dissertation, read only version A",RIGHTS,EQUAL,Study2,S,137,152,Test,User,-,,Recall,Recall2,5058,liberty,16.666666666667,1570,4220,0,0,,1
w10029079_mjm,fuyc1lafgw,Nick_Dissertation_EX1_EP,1,344,2021-11-04T22:57:22+00:00,3.6235809326172,1,versionA_stim.csv,READVersionA.csv,"Read Version A","Dissertation, read only version A",NAME,HATE,Study2,U,167,173,Test,User,-,,Recall,Recall2,3382,age,57.142857142857,2966,3219,0,0,,1
w10029079_mjm,fuyc1lafgw,Nick_Dissertation_EX1_EP,1,345,2021-11-04T22:57:24+00:00,1.915675163269,1,versionA_stim.csv,READVersionA.csv,"Read Version A","Dissertation, read only version A",EVEN,REVENGE,Study2,B,122,151,Test,User,-,,Recall,Recall2,1707,odd,0,1186,1529,0,0,,1
w10029079_mjm,fuyc1lafgw,Nick_Dissertation_EX1_EP,1,346,2021-11-04T22:57:31+00:00,7.2682030200958,1,versionA_stim.csv,READVersionA.csv,"Read Version A","Dissertation, read only version A",TEMPERATURE,Morning,Study2,U,173,113,Test,User,-,,Recall,Recall2,7049,hot,20,6629,6912,0,0,,1
w10029079_mjm,fuyc1lafgw,Nick_Dissertation_EX1_EP,1,347,2021-11-04T22:57:33+00:00,2.2546038627625,1,versionA_stim.csv,READVersionA.csv,"Read Version A","Dissertation, read only version A",BASEBALL,LEAGUE,Study2,B,131,145,Test,User,-,,Recall,Recall2,2038,sport,0,1421,1911,0,0,,1
w10029079_mjm,fuyc1lafgw,Nick_Dissertation_EX1_EP,1,348,2021-11-04T22:57:37+00:00,3.8549320697784,1,versionA_stim.csv,READVersionA.csv,"Read Version A","Dissertation, read only version A",BEST,FAVORITE,Study2,B,125,170,Test,User,-,,Recall,Recall2,3611,worst,46.153846153846,1423,3487,0,0,,1
w10029079_mjm,fuyc1lafgw,Nick_Dissertation_EX1_EP,1,349,2021-11-04T22:57:40+00:00,2.3630359172821,1,versionA_stim.csv,READVersionA.csv,"Read Version A","Dissertation, read only version A",CHOP,CUT,Study2,F,107,124,Test,User,-,,Recall,Recall2,2130,mest,28.571428571429,1468,1970,0,0,,1
w10029079_mjm,fuyc1lafgw,Nick_Dissertation_EX1_EP,1,350,2021-11-04T22:57:43+00:00,3.645015001297,1,versionA_stim.csv,READVersionA.csv,"Read Version A","Dissertation, read only version A",GLASS,BREAKABLE,Study2,B,127,157,Test,User,-,,Recall,Recall2,3429,bal,50,2733,3138,0,0,,1
w10029079_mjm,fuyc1lafgw,Nick_Dissertation_EX1_EP,1,351,2021-11-04T22:57:46+00:00,2.571741104126,1,versionA_stim.csv,READVersionA.csv,"Read Version A","Dissertation, read only version A",JUSTICE,MAROON,Study2,U,156,121,Test,User,-,,Recall,Recall2,2289,"syste,",0,1392,2052,0,0,,1
w10029079_mjm,fuyc1lafgw,Nick_Dissertation_EX1_EP,1,352,2021-11-04T22:57:47+00:00,0.90181398391724,1,versionA_stim.csv,READVersionA.csv,"Read Version A","Dissertation, read only version A",,,,,,0,Instruct,User,-,"You have completed this section. Please press Enter.",,Instruct7,698,,,-1,-1,,,,1
w10029079_mjm,fuyc1lafgw,Nick_Dissertation_EX1_EP,1,353,2021-11-04T22:57:50+00:00,2.8503119945526,1,versionA_stim.csv,READVersionA.csv,"Read Version A","Dissertation, read only version A",,,,,,0,Instruct,User,-,"The following screen will ask you a few questions abour your experience today. You must complete these questions to receive credit.",,Instruct8,2620,,,-1,-1,,,,1
