Username,ID,ExperimentName,Session,Trial,Date,TimeDif,"Condition Number","Stimuli File","Order File","Condition Description","Condition Notes",Stimuli*Cue,Stimuli*Answer,Stimuli*Shuffle,"Stimuli*Stimuli Notes",Stimuli*Value,Procedure*Item,"Procedure*Trial Type","Procedure*Max Time","Procedure*Min Time",Procedure*Text,"Procedure*Procedure Notes",Procedure*Shuffle,Response*RT,Response*Response,Response*Accuracy,Response*RTfirst,Response*RTlast,Response*strictAcc,Response*lenientAcc,Response*focus,Response*Focus
w10095909FS,x7sufcmmzw,Nick_Dissertation_EX1_EP,1,1,2021-10-28T03:55:29+00:00,7.6085979938507,2,versionA_stim.csv,READVersionB.csv,"Read Version B","Dissertation, read only version B",,,,,,0,Instruct,-,5,"In this section, you will be presented with a series of word pairs.",Initial_Instruct,Instruct1,7198,,,-1,-1,,,,1
w10095909FS,x7sufcmmzw,Nick_Dissertation_EX1_EP,1,2,2021-10-28T03:55:42+00:00,13.22349691391,2,versionA_stim.csv,READVersionB.csv,"Read Version B","Dissertation, read only version B",,,,,,0,Instruct,-,10,"Each word will be displayed on the computer screen for 8 seconds. The screen will automatically move to the next pair when time is up. Please study each pair. Your memory will be tested!",,Instruct15,13029,,,-1,-1,,,,1
w10095909FS,x7sufcmmzw,Nick_Dissertation_EX1_EP,1,3,2021-10-28T03:55:44+00:00,2.5365810394287,2,versionA_stim.csv,READVersionB.csv,"Read Version B","Dissertation, read only version B",,,,,,0,Instruct,User,-,"You will now begin the study. Press Enter when you are ready to begin.",,Instruct16,2356,,,-1,-1,,,,1
w10095909FS,x7sufcmmzw,Nick_Dissertation_EX1_EP,1,4,2021-10-28T03:55:53+00:00,8.176609992981,2,versionA_stim.csv,READVersionB.csv,"Read Version B","Dissertation, read only version B",NOODLE,STRING,BUFFER3,Buffer,92,95,Study,8,8,,Study/JOL,BUFFER,8003,,,-1,-1,,,,1
w10095909FS,x7sufcmmzw,Nick_Dissertation_EX1_EP,1,5,2021-10-28T03:56:01+00:00,8.2038221359253,2,versionA_stim.csv,READVersionB.csv,"Read Version B","Dissertation, read only version B",CARROT,POTATO,BUFFER3,Buffer,91,92,Study,8,8,,Study/JOL,BUFFER,8002,,,-1,-1,,,,1
w10095909FS,x7sufcmmzw,Nick_Dissertation_EX1_EP,1,6,2021-10-28T03:56:09+00:00,8.1962029933929,2,versionA_stim.csv,READVersionB.csv,"Read Version B","Dissertation, read only version B",CAMP,ADVENTURE,BUFFER3,Buffer,95,93,Study,8,8,,Study/JOL,BUFFER,8001,,,-1,-1,,,,1
w10095909FS,x7sufcmmzw,Nick_Dissertation_EX1_EP,1,7,2021-10-28T03:56:17+00:00,8.2043969631195,2,versionA_stim.csv,READVersionB.csv,"Read Version B","Dissertation, read only version B",SHRIMP,FISH,BUFFER3,Buffer,93,94,Study,8,8,,Study/JOL,BUFFER,8001,,,-1,-1,,,,1
w10095909FS,x7sufcmmzw,Nick_Dissertation_EX1_EP,1,8,2021-10-28T03:56:25+00:00,8.2053799629211,2,versionA_stim.csv,READVersionB.csv,"Read Version B","Dissertation, read only version B",ICE,FROZEN,BUFFER3,Buffer,94,96,Study,8,8,,Study/JOL,BUFFER,8003,,,-1,-1,,,,1
w10095909FS,x7sufcmmzw,Nick_Dissertation_EX1_EP,1,9,2021-10-28T03:56:34+00:00,8.202260017395,2,versionA_stim.csv,READVersionB.csv,"Read Version B","Dissertation, read only version B",DEAD,COFFIN,Study2,B,128,161,Study,8,8,,Study/JOL,"Study Phase",8004,,,-1,-1,,,,1
w10095909FS,x7sufcmmzw,Nick_Dissertation_EX1_EP,1,10,2021-10-28T03:56:42+00:00,8.2562780380249,2,versionA_stim.csv,READVersionB.csv,"Read Version B","Dissertation, read only version B",SUN,TAN,Study2,S,155,173,Study,8,8,,Study/JOL,"Study Phase",8001,,,-1,-1,,,,1
w10095909FS,x7sufcmmzw,Nick_Dissertation_EX1_EP,1,11,2021-10-28T03:56:50+00:00,8.1938228607178,2,versionA_stim.csv,READVersionB.csv,"Read Version B","Dissertation, read only version B",BIRD,PENGUIN,Study2,B,119,128,Study,8,8,,Study/JOL,"Study Phase",8003,,,-1,-1,,,,1
w10095909FS,x7sufcmmzw,Nick_Dissertation_EX1_EP,1,12,2021-10-28T03:56:58+00:00,8.1973249912262,2,versionA_stim.csv,READVersionB.csv,"Read Version B","Dissertation, read only version B",HONEST,TRUTHFUL,Study2,B,133,136,Study,8,8,,Study/JOL,"Study Phase",8002,,,-1,-1,,,,1
w10095909FS,x7sufcmmzw,Nick_Dissertation_EX1_EP,1,13,2021-10-28T03:57:07+00:00,8.2064960002899,2,versionA_stim.csv,READVersionB.csv,"Read Version B","Dissertation, read only version B",ALONE,LONELY,Study2,S,145,125,Study,8,8,,Study/JOL,"Study Phase",8003,,,-1,-1,,,,1
w10095909FS,x7sufcmmzw,Nick_Dissertation_EX1_EP,1,14,2021-10-28T03:57:15+00:00,8.6031939983368,2,versionA_stim.csv,READVersionB.csv,"Read Version B","Dissertation, read only version B",MOAT,CLEAR,Study2,U,169,134,Study,8,8,,Study/JOL,"Study Phase",8002,,,-1,-1,,,,1
w10095909FS,x7sufcmmzw,Nick_Dissertation_EX1_EP,1,15,2021-10-28T03:57:23+00:00,8.1850860118866,2,versionA_stim.csv,READVersionB.csv,"Read Version B","Dissertation, read only version B",FLEA,TICK,Study2,S,151,176,Study,8,8,,Study/JOL,"Study Phase",8002,,,-1,-1,,,,1
w10095909FS,x7sufcmmzw,Nick_Dissertation_EX1_EP,1,16,2021-10-28T03:57:32+00:00,8.1935560703278,2,versionA_stim.csv,READVersionB.csv,"Read Version B","Dissertation, read only version B",BEST,FAVORITE,Study2,B,125,167,Study,8,8,,Study/JOL,"Study Phase",8001,,,-1,-1,,,,1
w10095909FS,x7sufcmmzw,Nick_Dissertation_EX1_EP,1,17,2021-10-28T03:57:40+00:00,8.2091338634491,2,versionA_stim.csv,READVersionB.csv,"Read Version B","Dissertation, read only version B",CHERRY,RED,Study2,F,104,113,Study,8,8,,Study/JOL,"Study Phase",8002,,,-1,-1,,,,1
w10095909FS,x7sufcmmzw,Nick_Dissertation_EX1_EP,1,18,2021-10-28T03:57:48+00:00,8.2024581432343,2,versionA_stim.csv,READVersionB.csv,"Read Version B","Dissertation, read only version B",DINE,EAT,Study2,F,111,160,Study,8,8,,Study/JOL,"Study Phase",8004,,,-1,-1,,,,1
w10095909FS,x7sufcmmzw,Nick_Dissertation_EX1_EP,1,19,2021-10-28T03:57:56+00:00,8.2086758613586,2,versionA_stim.csv,READVersionB.csv,"Read Version B","Dissertation, read only version B",MASON,JAR,Study2,S,138,149,Study,8,8,,Study/JOL,"Study Phase",8002,,,-1,-1,,,,1
w10095909FS,x7sufcmmzw,Nick_Dissertation_EX1_EP,1,20,2021-10-28T03:58:04+00:00,8.2076101303101,2,versionA_stim.csv,READVersionB.csv,"Read Version B","Dissertation, read only version B",VEHICLE,CHARM,Study2,U,160,171,Study,8,8,,Study/JOL,"Study Phase",8001,,,-1,-1,,,,1
w10095909FS,x7sufcmmzw,Nick_Dissertation_EX1_EP,1,21,2021-10-28T03:58:13+00:00,8.1885690689087,2,versionA_stim.csv,READVersionB.csv,"Read Version B","Dissertation, read only version B",CHILL,COLD,Study2,F,114,116,Study,8,8,,Study/JOL,"Study Phase",8002,,,-1,-1,,,,1
w10095909FS,x7sufcmmzw,Nick_Dissertation_EX1_EP,1,22,2021-10-28T03:58:21+00:00,8.2720370292664,2,versionA_stim.csv,READVersionB.csv,"Read Version B","Dissertation, read only version B",EVEN,REVENGE,Study2,B,122,117,Study,8,8,,Study/JOL,"Study Phase",8002,,,-1,-1,,,,1
w10095909FS,x7sufcmmzw,Nick_Dissertation_EX1_EP,1,23,2021-10-28T03:58:30+00:00,9.2226228713989,2,versionA_stim.csv,READVersionB.csv,"Read Version B","Dissertation, read only version B",SAFETY,SEATBELT,Study2,S,147,101,Study,8,8,,Study/JOL,"Study Phase",8001,,,-1,-1,,,,1
w10095909FS,x7sufcmmzw,Nick_Dissertation_EX1_EP,1,24,2021-10-28T03:58:38+00:00,8.215047121048,2,versionA_stim.csv,READVersionB.csv,"Read Version B","Dissertation, read only version B",RAZOR,SHAVE,Study2,S,136,121,Study,8,8,,Study/JOL,"Study Phase",8005,,,-1,-1,,,,1
w10095909FS,x7sufcmmzw,Nick_Dissertation_EX1_EP,1,25,2021-10-28T03:58:46+00:00,8.1879069805145,2,versionA_stim.csv,READVersionB.csv,"Read Version B","Dissertation, read only version B",INCENSE,SMELL,Study2,F,110,102,Study,8,8,,Study/JOL,"Study Phase",8001,,,-1,-1,,,,1
w10095909FS,x7sufcmmzw,Nick_Dissertation_EX1_EP,1,26,2021-10-28T03:59:02+00:00,15.195672988892,2,versionA_stim.csv,READVersionB.csv,"Read Version B","Dissertation, read only version B",LITTER,TRASH,Study2,F,103,166,Study,8,8,,Study/JOL,"Study Phase",8001,,,-1,-1,,,,1
w10095909FS,x7sufcmmzw,Nick_Dissertation_EX1_EP,1,27,2021-10-28T03:59:10+00:00,8.2093079090118,2,versionA_stim.csv,READVersionB.csv,"Read Version B","Dissertation, read only version B",OWN,HAVE,Study2,S,153,145,Study,8,8,,Study/JOL,"Study Phase",8002,,,-1,-1,,,,1
w10095909FS,x7sufcmmzw,Nick_Dissertation_EX1_EP,1,28,2021-10-28T03:59:18+00:00,8.2006680965424,2,versionA_stim.csv,READVersionB.csv,"Read Version B","Dissertation, read only version B",FISH,SARDINE,Study2,B,130,109,Study,8,8,,Study/JOL,"Study Phase",8002,,,-1,-1,,,,1
w10095909FS,x7sufcmmzw,Nick_Dissertation_EX1_EP,1,29,2021-10-28T03:59:27+00:00,9.1277549266815,2,versionA_stim.csv,READVersionB.csv,"Read Version B","Dissertation, read only version B",KEYS,JOKE,Study2,U,165,129,Study,8,8,,Study/JOL,"Study Phase",8001,,,-1,-1,,,,1
w10095909FS,x7sufcmmzw,Nick_Dissertation_EX1_EP,1,30,2021-10-28T03:59:45+00:00,17.796894073486,2,versionA_stim.csv,READVersionB.csv,"Read Version B","Dissertation, read only version B",DOCUMENT,PAPER,Study2,F,109,108,Study,8,8,,Study/JOL,"Study Phase",8001,,,-1,-1,,,,1
w10095909FS,x7sufcmmzw,Nick_Dissertation_EX1_EP,1,31,2021-10-28T03:59:54+00:00,9.0245099067688,2,versionA_stim.csv,READVersionB.csv,"Read Version B","Dissertation, read only version B",FRUIT,STRAWBERRY,Study2,B,124,137,Study,8,8,,Study/JOL,"Study Phase",8003,,,-1,-1,,,,1
w10095909FS,x7sufcmmzw,Nick_Dissertation_EX1_EP,1,32,2021-10-28T04:00:04+00:00,9.6434099674225,2,versionA_stim.csv,READVersionB.csv,"Read Version B","Dissertation, read only version B",Shell,SHAKE,Study2,U,163,172,Study,8,8,,Study/JOL,"Study Phase",8003,,,-1,-1,,,,1
w10095909FS,x7sufcmmzw,Nick_Dissertation_EX1_EP,1,33,2021-10-28T04:00:12+00:00,8.2674670219421,2,versionA_stim.csv,READVersionB.csv,"Read Version B","Dissertation, read only version B",BOTH,OUNCE,Study2,U,172,144,Study,8,8,,Study/JOL,"Study Phase",8004,,,-1,-1,,,,1
w10095909FS,x7sufcmmzw,Nick_Dissertation_EX1_EP,1,34,2021-10-28T04:00:20+00:00,8.1981639862061,2,versionA_stim.csv,READVersionB.csv,"Read Version B","Dissertation, read only version B",GONE,AWAY,Study2,S,142,175,Study,8,8,,Study/JOL,"Study Phase",8003,,,-1,-1,,,,1
w10095909FS,x7sufcmmzw,Nick_Dissertation_EX1_EP,1,35,2021-10-28T04:00:28+00:00,8.212366104126,2,versionA_stim.csv,READVersionB.csv,"Read Version B","Dissertation, read only version B",ELEMENT,CARBON,Study2,S,141,127,Study,8,8,,Study/JOL,"Study Phase",8003,,,-1,-1,,,,1
w10095909FS,x7sufcmmzw,Nick_Dissertation_EX1_EP,1,36,2021-10-28T04:00:37+00:00,8.4689209461212,2,versionA_stim.csv,READVersionB.csv,"Read Version B","Dissertation, read only version B",AFFECTION,LOVE,Study2,F,115,133,Study,8,8,,Study/JOL,"Study Phase",8005,,,-1,-1,,,,1
w10095909FS,x7sufcmmzw,Nick_Dissertation_EX1_EP,1,37,2021-10-28T04:00:45+00:00,8.2071270942688,2,versionA_stim.csv,READVersionB.csv,"Read Version B","Dissertation, read only version B",LISTEN,FICTION,Study2,U,164,105,Study,8,8,,Study/JOL,"Study Phase",8003,,,-1,-1,,,,1
w10095909FS,x7sufcmmzw,Nick_Dissertation_EX1_EP,1,38,2021-10-28T04:00:53+00:00,8.2160129547119,2,versionA_stim.csv,READVersionB.csv,"Read Version B","Dissertation, read only version B",DRY,WET,Study2,S,146,135,Study,8,8,,Study/JOL,"Study Phase",8006,,,-1,-1,,,,1
w10095909FS,x7sufcmmzw,Nick_Dissertation_EX1_EP,1,39,2021-10-28T04:01:01+00:00,8.2269580364227,2,versionA_stim.csv,READVersionB.csv,"Read Version B","Dissertation, read only version B",WATER,DRINK,Study2,S,143,114,Study,8,8,,Study/JOL,"Study Phase",8003,,,-1,-1,,,,1
w10095909FS,x7sufcmmzw,Nick_Dissertation_EX1_EP,1,40,2021-10-28T04:01:10+00:00,8.202761888504,2,versionA_stim.csv,READVersionB.csv,"Read Version B","Dissertation, read only version B",STAR,ACTRESS,Study2,B,120,148,Study,8,8,,Study/JOL,"Study Phase",8003,,,-1,-1,,,,1
w10095909FS,x7sufcmmzw,Nick_Dissertation_EX1_EP,1,41,2021-10-28T04:01:18+00:00,8.2028551101685,2,versionA_stim.csv,READVersionB.csv,"Read Version B","Dissertation, read only version B",FUZZY,BANG,Study2,U,168,123,Study,8,8,,Study/JOL,"Study Phase",8002,,,-1,-1,,,,1
w10095909FS,x7sufcmmzw,Nick_Dissertation_EX1_EP,1,42,2021-10-28T04:01:26+00:00,8.1873288154602,2,versionA_stim.csv,READVersionB.csv,"Read Version B","Dissertation, read only version B",DRIVER,CAR,Study2,F,106,146,Study,8,8,,Study/JOL,"Study Phase",8002,,,-1,-1,,,,1
w10095909FS,x7sufcmmzw,Nick_Dissertation_EX1_EP,1,43,2021-10-28T04:01:34+00:00,8.2190930843353,2,versionA_stim.csv,READVersionB.csv,"Read Version B","Dissertation, read only version B",JUSTICE,MAROON,Study2,U,156,107,Study,8,8,,Study/JOL,"Study Phase",8003,,,-1,-1,,,,1
w10095909FS,x7sufcmmzw,Nick_Dissertation_EX1_EP,1,44,2021-10-28T04:01:42+00:00,8.2076549530029,2,versionA_stim.csv,READVersionB.csv,"Read Version B","Dissertation, read only version B",DETECTIVE,MYSTERY,Study2,F,100,165,Study,8,8,,Study/JOL,"Study Phase",8002,,,-1,-1,,,,1
w10095909FS,x7sufcmmzw,Nick_Dissertation_EX1_EP,1,45,2021-10-28T04:01:51+00:00,8.2191951274872,2,versionA_stim.csv,READVersionB.csv,"Read Version B","Dissertation, read only version B",BAD,VILLAIN,Study2,B,118,151,Study,8,8,,Study/JOL,"Study Phase",8003,,,-1,-1,,,,1
w10095909FS,x7sufcmmzw,Nick_Dissertation_EX1_EP,1,46,2021-10-28T04:01:59+00:00,8.1828458309174,2,versionA_stim.csv,READVersionB.csv,"Read Version B","Dissertation, read only version B",CACTUS,PLANT,Study2,F,98,159,Study,8,8,,Study/JOL,"Study Phase",8003,,,-1,-1,,,,1
w10095909FS,x7sufcmmzw,Nick_Dissertation_EX1_EP,1,47,2021-10-28T04:02:07+00:00,8.2118830680847,2,versionA_stim.csv,READVersionB.csv,"Read Version B","Dissertation, read only version B",CHOP,CUT,Study2,F,107,154,Study,8,8,,Study/JOL,"Study Phase",8004,,,-1,-1,,,,1
w10095909FS,x7sufcmmzw,Nick_Dissertation_EX1_EP,1,48,2021-10-28T04:02:15+00:00,8.186311006546,2,versionA_stim.csv,READVersionB.csv,"Read Version B","Dissertation, read only version B",SHEARS,SCISSORS,Study2,F,112,155,Study,8,8,,Study/JOL,"Study Phase",8005,,,-1,-1,,,,1
w10095909FS,x7sufcmmzw,Nick_Dissertation_EX1_EP,1,49,2021-10-28T04:02:23+00:00,8.1861000061035,2,versionA_stim.csv,READVersionB.csv,"Read Version B","Dissertation, read only version B",CAR,WINDSHIELD,Study2,B,117,138,Study,8,8,,Study/JOL,"Study Phase",8002,,,-1,-1,,,,1
w10095909FS,x7sufcmmzw,Nick_Dissertation_EX1_EP,1,50,2021-10-28T04:02:32+00:00,8.2142291069031,2,versionA_stim.csv,READVersionB.csv,"Read Version B","Dissertation, read only version B",SHOELACE,TIE,Study2,F,99,119,Study,8,8,,Study/JOL,"Study Phase",8002,,,-1,-1,,,,1
w10095909FS,x7sufcmmzw,Nick_Dissertation_EX1_EP,1,51,2021-10-28T04:02:40+00:00,8.2067828178406,2,versionA_stim.csv,READVersionB.csv,"Read Version B","Dissertation, read only version B",MONEY,BANKER,Study2,B,132,158,Study,8,8,,Study/JOL,"Study Phase",8004,,,-1,-1,,,,1
w10095909FS,x7sufcmmzw,Nick_Dissertation_EX1_EP,1,52,2021-10-28T04:02:48+00:00,8.1896040439606,2,versionA_stim.csv,READVersionB.csv,"Read Version B","Dissertation, read only version B",GLASS,BREAKABLE,Study2,B,127,130,Study,8,8,,Study/JOL,"Study Phase",8002,,,-1,-1,,,,1
w10095909FS,x7sufcmmzw,Nick_Dissertation_EX1_EP,1,53,2021-10-28T04:02:56+00:00,8.2050499916077,2,versionA_stim.csv,READVersionB.csv,"Read Version B","Dissertation, read only version B",POP,BALLOON,Study2,B,123,153,Study,8,8,,Study/JOL,"Study Phase",8006,,,-1,-1,,,,1
w10095909FS,x7sufcmmzw,Nick_Dissertation_EX1_EP,1,54,2021-10-28T04:03:04+00:00,8.2072620391846,2,versionA_stim.csv,READVersionB.csv,"Read Version B","Dissertation, read only version B",LOUD,NOISE,Study2,S,152,164,Study,8,8,,Study/JOL,"Study Phase",8001,,,-1,-1,,,,1
w10095909FS,x7sufcmmzw,Nick_Dissertation_EX1_EP,1,55,2021-10-28T04:03:13+00:00,8.2050099372864,2,versionA_stim.csv,READVersionB.csv,"Read Version B","Dissertation, read only version B",STRETCH,CLOTH,Study2,U,157,163,Study,8,8,,Study/JOL,"Study Phase",8001,,,-1,-1,,,,1
w10095909FS,x7sufcmmzw,Nick_Dissertation_EX1_EP,1,56,2021-10-28T04:03:21+00:00,8.1994450092316,2,versionA_stim.csv,READVersionB.csv,"Read Version B","Dissertation, read only version B",PHONE,COMMUNICATION,Study2,S,149,126,Study,8,8,,Study/JOL,"Study Phase",8001,,,-1,-1,,,,1
w10095909FS,x7sufcmmzw,Nick_Dissertation_EX1_EP,1,57,2021-10-28T04:03:29+00:00,8.2210969924927,2,versionA_stim.csv,READVersionB.csv,"Read Version B","Dissertation, read only version B",TEMPERATURE,Morning,Study2,U,173,162,Study,8,8,,Study/JOL,"Study Phase",8001,,,-1,-1,,,,1
w10095909FS,x7sufcmmzw,Nick_Dissertation_EX1_EP,1,58,2021-10-28T04:03:37+00:00,8.2175121307373,2,versionA_stim.csv,READVersionB.csv,"Read Version B","Dissertation, read only version B",CAKE,CLOTHES,Study2,U,166,97,Study,8,8,,Study/JOL,"Study Phase",8003,,,-1,-1,,,,1
w10095909FS,x7sufcmmzw,Nick_Dissertation_EX1_EP,1,59,2021-10-28T04:03:45+00:00,8.1928069591522,2,versionA_stim.csv,READVersionB.csv,"Read Version B","Dissertation, read only version B",CAT,PANTHER,Study2,B,126,103,Study,8,8,,Study/JOL,"Study Phase",8001,,,-1,-1,,,,1
w10095909FS,x7sufcmmzw,Nick_Dissertation_EX1_EP,1,60,2021-10-28T04:03:54+00:00,8.198096036911,2,versionA_stim.csv,READVersionB.csv,"Read Version B","Dissertation, read only version B",CRACKLE,ABLE,Study2,U,162,131,Study,8,8,,Study/JOL,"Study Phase",8001,,,-1,-1,,,,1
w10095909FS,x7sufcmmzw,Nick_Dissertation_EX1_EP,1,61,2021-10-28T04:04:02+00:00,8.1846978664398,2,versionA_stim.csv,READVersionB.csv,"Read Version B","Dissertation, read only version B",LEASE,TOIL,Study2,U,170,140,Study,8,8,,Study/JOL,"Study Phase",8001,,,-1,-1,,,,1
w10095909FS,x7sufcmmzw,Nick_Dissertation_EX1_EP,1,62,2021-10-28T04:04:10+00:00,8.2055811882019,2,versionA_stim.csv,READVersionB.csv,"Read Version B","Dissertation, read only version B",SLEEP,NAP,Study2,B,134,99,Study,8,8,,Study/JOL,"Study Phase",8006,,,-1,-1,,,,1
w10095909FS,x7sufcmmzw,Nick_Dissertation_EX1_EP,1,63,2021-10-28T04:04:18+00:00,8.2222788333893,2,versionA_stim.csv,READVersionB.csv,"Read Version B","Dissertation, read only version B",MAZE,ELECTION,Study2,U,159,111,Study,8,8,,Study/JOL,"Study Phase",8002,,,-1,-1,,,,1
w10095909FS,x7sufcmmzw,Nick_Dissertation_EX1_EP,1,64,2021-10-28T04:04:26+00:00,8.1975600719452,2,versionA_stim.csv,READVersionB.csv,"Read Version B","Dissertation, read only version B",FIGHT,BRAWL,Study2,B,135,152,Study,8,8,,Study/JOL,"Study Phase",8001,,,-1,-1,,,,1
w10095909FS,x7sufcmmzw,Nick_Dissertation_EX1_EP,1,65,2021-10-28T04:04:35+00:00,8.2119960784912,2,versionA_stim.csv,READVersionB.csv,"Read Version B","Dissertation, read only version B",TURN,FLIP,Study2,B,116,143,Study,8,8,,Study/JOL,"Study Phase",8001,,,-1,-1,,,,1
w10095909FS,x7sufcmmzw,Nick_Dissertation_EX1_EP,1,66,2021-10-28T04:04:43+00:00,8.2051498889923,2,versionA_stim.csv,READVersionB.csv,"Read Version B","Dissertation, read only version B",EXTENSION,LONG,Study2,F,96,110,Study,8,8,,Study/JOL,"Study Phase",8002,,,-1,-1,,,,1
w10095909FS,x7sufcmmzw,Nick_Dissertation_EX1_EP,1,67,2021-10-28T04:04:51+00:00,8.2028770446777,2,versionA_stim.csv,READVersionB.csv,"Read Version B","Dissertation, read only version B",SCALP,HEAD,Study2,F,105,170,Study,8,8,,Study/JOL,"Study Phase",8002,,,-1,-1,,,,1
w10095909FS,x7sufcmmzw,Nick_Dissertation_EX1_EP,1,68,2021-10-28T04:04:59+00:00,8.2497689723969,2,versionA_stim.csv,READVersionB.csv,"Read Version B","Dissertation, read only version B",EARTH,GROUND,Study2,S,144,169,Study,8,8,,Study/JOL,"Study Phase",8001,,,-1,-1,,,,1
w10095909FS,x7sufcmmzw,Nick_Dissertation_EX1_EP,1,69,2021-10-28T04:05:08+00:00,8.1962690353394,2,versionA_stim.csv,READVersionB.csv,"Read Version B","Dissertation, read only version B",PLANE,AIRCRAFT,Study2,B,129,168,Study,8,8,,Study/JOL,"Study Phase",8001,,,-1,-1,,,,1
w10095909FS,x7sufcmmzw,Nick_Dissertation_EX1_EP,1,70,2021-10-28T04:05:16+00:00,8.199863910675,2,versionA_stim.csv,READVersionB.csv,"Read Version B","Dissertation, read only version B",THREAD,THIMBLE,Study2,B,121,150,Study,8,8,,Study/JOL,"Study Phase",8002,,,-1,-1,,,,1
w10095909FS,x7sufcmmzw,Nick_Dissertation_EX1_EP,1,71,2021-10-28T04:05:24+00:00,8.1910040378571,2,versionA_stim.csv,READVersionB.csv,"Read Version B","Dissertation, read only version B",MEAT,OBTAIN,Study2,U,161,106,Study,8,8,,Study/JOL,"Study Phase",8005,,,-1,-1,,,,1
w10095909FS,x7sufcmmzw,Nick_Dissertation_EX1_EP,1,72,2021-10-28T04:05:32+00:00,8.2155790328979,2,versionA_stim.csv,READVersionB.csv,"Read Version B","Dissertation, read only version B",MULE,DONKEY,Study2,F,108,118,Study,8,8,,Study/JOL,"Study Phase",8006,,,-1,-1,,,,1
w10095909FS,x7sufcmmzw,Nick_Dissertation_EX1_EP,1,73,2021-10-28T04:05:41+00:00,8.3661119937897,2,versionA_stim.csv,READVersionB.csv,"Read Version B","Dissertation, read only version B",CANDLE,WAX,Study2,S,139,141,Study,8,8,,Study/JOL,"Study Phase",8002,,,-1,-1,,,,1
w10095909FS,x7sufcmmzw,Nick_Dissertation_EX1_EP,1,74,2021-10-28T04:05:49+00:00,8.2018620967865,2,versionA_stim.csv,READVersionB.csv,"Read Version B","Dissertation, read only version B",WRIST,BRACELET,Study2,S,140,104,Study,8,8,,Study/JOL,"Study Phase",8001,,,-1,-1,,,,1
w10095909FS,x7sufcmmzw,Nick_Dissertation_EX1_EP,1,75,2021-10-28T04:05:59+00:00,10.587960004807,2,versionA_stim.csv,READVersionB.csv,"Read Version B","Dissertation, read only version B",ADJOURN,END,Study2,F,101,124,Study,8,8,,Study/JOL,"Study Phase",8004,,,-1,-1,,,,1
w10095909FS,x7sufcmmzw,Nick_Dissertation_EX1_EP,1,76,2021-10-28T04:06:13+00:00,14.038361787796,2,versionA_stim.csv,READVersionB.csv,"Read Version B","Dissertation, read only version B",NAME,HATE,Study2,U,167,122,Study,8,8,,Study/JOL,"Study Phase",8002,,,-1,-1,,,,1
w10095909FS,x7sufcmmzw,Nick_Dissertation_EX1_EP,1,77,2021-10-28T04:06:22+00:00,8.2729601860046,2,versionA_stim.csv,READVersionB.csv,"Read Version B","Dissertation, read only version B",RIGHTS,EQUAL,Study2,S,137,100,Study,8,8,,Study/JOL,"Study Phase",8001,,,-1,-1,,,,1
w10095909FS,x7sufcmmzw,Nick_Dissertation_EX1_EP,1,78,2021-10-28T04:06:30+00:00,8.2000908851624,2,versionA_stim.csv,READVersionB.csv,"Read Version B","Dissertation, read only version B",MAIN,SCAR,Study2,U,175,142,Study,8,8,,Study/JOL,"Study Phase",8001,,,-1,-1,,,,1
w10095909FS,x7sufcmmzw,Nick_Dissertation_EX1_EP,1,79,2021-10-28T04:06:38+00:00,8.2066490650177,2,versionA_stim.csv,READVersionB.csv,"Read Version B","Dissertation, read only version B",CLUE,GAME,Study2,F,97,157,Study,8,8,,Study/JOL,"Study Phase",8003,,,-1,-1,,,,1
w10095909FS,x7sufcmmzw,Nick_Dissertation_EX1_EP,1,80,2021-10-28T04:06:46+00:00,8.2026979923248,2,versionA_stim.csv,READVersionB.csv,"Read Version B","Dissertation, read only version B",TRUTH,LIE,Study2,S,148,112,Study,8,8,,Study/JOL,"Study Phase",8002,,,-1,-1,,,,1
w10095909FS,x7sufcmmzw,Nick_Dissertation_EX1_EP,1,81,2021-10-28T04:06:54+00:00,8.2106759548187,2,versionA_stim.csv,READVersionB.csv,"Read Version B","Dissertation, read only version B",FURRY,DOG,Study2,F,102,120,Study,8,8,,Study/JOL,"Study Phase",8005,,,-1,-1,,,,1
w10095909FS,x7sufcmmzw,Nick_Dissertation_EX1_EP,1,82,2021-10-28T04:07:03+00:00,8.2314040660858,2,versionA_stim.csv,READVersionB.csv,"Read Version B","Dissertation, read only version B",MIRROR,CHILDREN,Study2,U,174,132,Study,8,8,,Study/JOL,"Study Phase",8003,,,-1,-1,,,,1
w10095909FS,x7sufcmmzw,Nick_Dissertation_EX1_EP,1,83,2021-10-28T04:07:11+00:00,8.2014949321747,2,versionA_stim.csv,READVersionB.csv,"Read Version B","Dissertation, read only version B",FEUD,FIGHT,Study2,F,113,98,Study,8,8,,Study/JOL,"Study Phase",8002,,,-1,-1,,,,1
w10095909FS,x7sufcmmzw,Nick_Dissertation_EX1_EP,1,84,2021-10-28T04:07:19+00:00,8.1893119812012,2,versionA_stim.csv,READVersionB.csv,"Read Version B","Dissertation, read only version B",BASEBALL,LEAGUE,Study2,B,131,139,Study,8,8,,Study/JOL,"Study Phase",8003,,,-1,-1,,,,1
w10095909FS,x7sufcmmzw,Nick_Dissertation_EX1_EP,1,85,2021-10-28T04:07:27+00:00,8.2112491130829,2,versionA_stim.csv,READVersionB.csv,"Read Version B","Dissertation, read only version B",TANTRUM,TEMPER,Study2,S,154,156,Study,8,8,,Study/JOL,"Study Phase",8002,,,-1,-1,,,,1
w10095909FS,x7sufcmmzw,Nick_Dissertation_EX1_EP,1,86,2021-10-28T04:07:35+00:00,8.2012548446655,2,versionA_stim.csv,READVersionB.csv,"Read Version B","Dissertation, read only version B",GIVE,STEAK,Study2,U,158,174,Study,8,8,,Study/JOL,"Study Phase",8002,,,-1,-1,,,,1
w10095909FS,x7sufcmmzw,Nick_Dissertation_EX1_EP,1,87,2021-10-28T04:07:44+00:00,8.1970009803772,2,versionA_stim.csv,READVersionB.csv,"Read Version B","Dissertation, read only version B",LOAN,SIGN,Study2,U,171,115,Study,8,8,,Study/JOL,"Study Phase",8002,,,-1,-1,,,,1
w10095909FS,x7sufcmmzw,Nick_Dissertation_EX1_EP,1,88,2021-10-28T04:07:52+00:00,8.2195720672607,2,versionA_stim.csv,READVersionB.csv,"Read Version B","Dissertation, read only version B",ROD,REEL,Study2,S,150,147,Study,8,8,,Study/JOL,"Study Phase",8002,,,-1,-1,,,,1
w10095909FS,x7sufcmmzw,Nick_Dissertation_EX1_EP,1,89,2021-10-28T04:08:00+00:00,8.2623569965363,2,versionA_stim.csv,READVersionB.csv,"Read Version B","Dissertation, read only version B",MONTH,YEAR,BUFFER4,Buffer,177,179,Study,8,8,,Study/JOL,BUFFER2,8004,,,-1,-1,,,,1
w10095909FS,x7sufcmmzw,Nick_Dissertation_EX1_EP,1,90,2021-10-28T04:08:08+00:00,8.2412331104279,2,versionA_stim.csv,READVersionB.csv,"Read Version B","Dissertation, read only version B",SPRING,MARCH,BUFFER4,Buffer,179,178,Study,8,8,,Study/JOL,BUFFER2,8002,,,-1,-1,,,,1
w10095909FS,x7sufcmmzw,Nick_Dissertation_EX1_EP,1,91,2021-10-28T04:08:17+00:00,8.1997008323669,2,versionA_stim.csv,READVersionB.csv,"Read Version B","Dissertation, read only version B",TOOL,SHED,BUFFER4,Buffer,178,177,Study,8,8,,Study/JOL,BUFFER2,8007,,,-1,-1,,,,1
w10095909FS,x7sufcmmzw,Nick_Dissertation_EX1_EP,1,92,2021-10-28T04:08:25+00:00,8.2084732055664,2,versionA_stim.csv,READVersionB.csv,"Read Version B","Dissertation, read only version B",OCTOBER,SPOOKY,BUFFER4,Buffer,180,181,Study,8,8,,Study/JOL,BUFFER2,8005,,,-1,-1,,,,1
w10095909FS,x7sufcmmzw,Nick_Dissertation_EX1_EP,1,93,2021-10-28T04:08:33+00:00,8.2996549606323,2,versionA_stim.csv,READVersionB.csv,"Read Version B","Dissertation, read only version B",DAYS,WEAKS,BUFFER4,Buffer,176,180,Study,8,8,,Study/JOL,BUFFER2,8003,,,-1,-1,,,,1
w10095909FS,x7sufcmmzw,Nick_Dissertation_EX1_EP,1,94,2021-10-28T04:08:42+00:00,9.1904528141022,2,versionA_stim.csv,READVersionB.csv,"Read Version B","Dissertation, read only version B",,,,,,0,Instruct,User,-,"You have completed this section. Please press Enter.",Filler_Instruction,Instruct2,8995,,,-1,-1,,,,1
w10095909FS,x7sufcmmzw,Nick_Dissertation_EX1_EP,1,95,2021-10-28T04:10:43+00:00,120.29387021065,2,versionA_stim.csv,READVersionB.csv,"Read Version B","Dissertation, read only version B",,,,,,0,FreeRecall,120,120,"Please list the 50 US states in alphabetical order. The task will automatically advance to the next screen after two minutes.",,Filler1,120003,"Alabama, Alaska, Arkansas, I don't know because there are so many states dude. ",0,24138,59566,0,0,,1
w10095909FS,x7sufcmmzw,Nick_Dissertation_EX1_EP,1,96,2021-10-28T04:10:59+00:00,15.952932834625,2,versionA_stim.csv,READVersionB.csv,"Read Version B","Dissertation, read only version B",,,,,,0,Instruct,-,10,"You will now be presented with the first word from each of the previously studied item pairs. Please type the missing word. If you do not know the word, you may guess or press Enter to skip forward to the next pair.",,Instruct3,15541,,,-1,-1,,,,1
w10095909FS,x7sufcmmzw,Nick_Dissertation_EX1_EP,1,97,2021-10-28T04:11:02+00:00,3.6734039783478,2,versionA_stim.csv,READVersionB.csv,"Read Version B","Dissertation, read only version B",TRUTH,LIE,Study2,S,148,112,Test,User,-,,Recall,Recall1,3388,lie,100,1698,1934,1,1,,1
w10095909FS,x7sufcmmzw,Nick_Dissertation_EX1_EP,1,98,2021-10-28T04:11:07+00:00,4.6154999732971,2,versionA_stim.csv,READVersionB.csv,"Read Version B","Dissertation, read only version B",DRY,WET,Study2,S,146,135,Test,User,-,,Recall,Recall1,4452,wet,100,3724,4076,1,1,,1
w10095909FS,x7sufcmmzw,Nick_Dissertation_EX1_EP,1,99,2021-10-28T04:11:11+00:00,4.1485211849213,2,versionA_stim.csv,READVersionB.csv,"Read Version B","Dissertation, read only version B",GLASS,BREAKABLE,Study2,B,127,130,Test,User,-,,Recall,Recall1,3988,broken,53.333333333333,2625,3760,0,0,,1
w10095909FS,x7sufcmmzw,Nick_Dissertation_EX1_EP,1,100,2021-10-28T04:11:13+00:00,2.2610368728638,2,versionA_stim.csv,READVersionB.csv,"Read Version B","Dissertation, read only version B",PLANE,AIRCRAFT,Study2,B,129,168,Test,User,-,,Recall,Recall1,2087,fly,18.181818181818,1544,1796,0,0,,1
w10095909FS,x7sufcmmzw,Nick_Dissertation_EX1_EP,1,101,2021-10-28T04:11:15+00:00,2.1369550228119,2,versionA_stim.csv,READVersionB.csv,"Read Version B","Dissertation, read only version B",TANTRUM,TEMPER,Study2,S,154,156,Test,User,-,,Recall,Recall1,1968,anger,36.363636363636,1389,1819,0,0,,1
w10095909FS,x7sufcmmzw,Nick_Dissertation_EX1_EP,1,102,2021-10-28T04:11:17+00:00,1.5234990119934,2,versionA_stim.csv,READVersionB.csv,"Read Version B","Dissertation, read only version B",CHERRY,RED,Study2,F,104,113,Test,User,-,,Recall,Recall1,1360,rejd,85.714285714286,959,1246,0,1,,1
w10095909FS,x7sufcmmzw,Nick_Dissertation_EX1_EP,1,103,2021-10-28T04:11:19+00:00,2.2224390506744,2,versionA_stim.csv,READVersionB.csv,"Read Version B","Dissertation, read only version B",BAD,VILLAIN,Study2,B,118,151,Test,User,-,,Recall,Recall1,2043,good,0,1448,1758,0,0,,1
w10095909FS,x7sufcmmzw,Nick_Dissertation_EX1_EP,1,104,2021-10-28T04:11:22+00:00,2.6179180145264,2,versionA_stim.csv,READVersionB.csv,"Read Version B","Dissertation, read only version B",SAFETY,SEATBELT,Study2,S,147,101,Test,User,-,,Recall,Recall1,2459,danger,28.571428571429,1668,2224,0,0,,1
w10095909FS,x7sufcmmzw,Nick_Dissertation_EX1_EP,1,105,2021-10-28T04:11:25+00:00,3.6082310676575,2,versionA_stim.csv,READVersionB.csv,"Read Version B","Dissertation, read only version B",CAR,WINDSHIELD,Study2,B,117,138,Test,User,-,,Recall,Recall1,3429,fast,14.285714285714,2793,3239,0,0,,1
w10095909FS,x7sufcmmzw,Nick_Dissertation_EX1_EP,1,106,2021-10-28T04:11:38+00:00,12.238211870193,2,versionA_stim.csv,READVersionB.csv,"Read Version B","Dissertation, read only version B",FEUD,FIGHT,Study2,F,113,98,Test,User,-,,Recall,Recall1,12059,fight,100,11168,11619,1,1,,1
w10095909FS,x7sufcmmzw,Nick_Dissertation_EX1_EP,1,107,2021-10-28T04:11:40+00:00,2.3824970722198,2,versionA_stim.csv,READVersionB.csv,"Read Version B","Dissertation, read only version B",PHONE,COMMUNICATION,Study2,S,149,126,Test,User,-,,Recall,Recall1,2187,call,23.529411764706,1606,1983,0,0,,1
w10095909FS,x7sufcmmzw,Nick_Dissertation_EX1_EP,1,108,2021-10-28T04:11:42+00:00,2.0165278911591,2,versionA_stim.csv,READVersionB.csv,"Read Version B","Dissertation, read only version B",BEST,FAVORITE,Study2,B,125,167,Test,User,-,,Recall,Recall1,1833,friend,57.142857142857,897,1442,0,0,,1
w10095909FS,x7sufcmmzw,Nick_Dissertation_EX1_EP,1,109,2021-10-28T04:11:46+00:00,4.1337599754333,2,versionA_stim.csv,READVersionB.csv,"Read Version B","Dissertation, read only version B",Shell,SHAKE,Study2,U,163,172,Test,User,-,,Recall,Recall1,3946,shock,60,1758,3719,0,0,,1
w10095909FS,x7sufcmmzw,Nick_Dissertation_EX1_EP,1,110,2021-10-28T04:11:49+00:00,2.3752520084381,2,versionA_stim.csv,READVersionB.csv,"Read Version B","Dissertation, read only version B",NAME,HATE,Study2,U,167,122,Test,User,-,,Recall,Recall1,2203,tag,28.571428571429,1727,2009,0,0,,1
w10095909FS,x7sufcmmzw,Nick_Dissertation_EX1_EP,1,111,2021-10-28T04:11:52+00:00,3.3097620010376,2,versionA_stim.csv,READVersionB.csv,"Read Version B","Dissertation, read only version B",BOTH,OUNCE,Study2,U,172,144,Test,User,-,,Recall,Recall1,3151,camel,40,2399,2866,0,0,,1
w10095909FS,x7sufcmmzw,Nick_Dissertation_EX1_EP,1,112,2021-10-28T04:11:56+00:00,3.8824350833893,2,versionA_stim.csv,READVersionB.csv,"Read Version B","Dissertation, read only version B",OWN,HAVE,Study2,S,153,145,Test,User,-,,Recall,Recall1,3705,disown,0,2892,3559,0,0,,1
w10095909FS,x7sufcmmzw,Nick_Dissertation_EX1_EP,1,113,2021-10-28T04:11:57+00:00,1.5523688793182,2,versionA_stim.csv,READVersionB.csv,"Read Version B","Dissertation, read only version B",EVEN,REVENGE,Study2,B,122,117,Test,User,-,,Recall,Recall1,1391,odd,0,1018,1260,0,0,,1
w10095909FS,x7sufcmmzw,Nick_Dissertation_EX1_EP,1,114,2021-10-28T04:12:06+00:00,8.6768341064453,2,versionA_stim.csv,READVersionB.csv,"Read Version B","Dissertation, read only version B",FIGHT,BRAWL,Study2,B,135,152,Test,User,-,,Recall,Recall1,8489,feud,0,1611,8132,0,0,,1
w10095909FS,x7sufcmmzw,Nick_Dissertation_EX1_EP,1,115,2021-10-28T04:12:09+00:00,3.0527589321136,2,versionA_stim.csv,READVersionB.csv,"Read Version B","Dissertation, read only version B",CHOP,CUT,Study2,F,107,154,Test,User,-,,Recall,Recall1,2859,chop,28.571428571429,1393,2232,0,0,,1
w10095909FS,x7sufcmmzw,Nick_Dissertation_EX1_EP,1,116,2021-10-28T04:12:23+00:00,14.115139961243,2,versionA_stim.csv,READVersionB.csv,"Read Version B","Dissertation, read only version B",SHOELACE,TIE,Study2,F,99,119,Test,User,-,,Recall,Recall1,5877,shoe,28.571428571429,5370,5717,0,0,,1
w10095909FS,x7sufcmmzw,Nick_Dissertation_EX1_EP,1,117,2021-10-28T04:12:30+00:00,6.7698900699615,2,versionA_stim.csv,READVersionB.csv,"Read Version B","Dissertation, read only version B",FRUIT,STRAWBERRY,Study2,B,124,137,Test,User,-,,Recall,Recall1,6502,basket,25,3258,6345,0,0,,1
w10095909FS,x7sufcmmzw,Nick_Dissertation_EX1_EP,1,118,2021-10-28T04:12:32+00:00,2.5990200042725,2,versionA_stim.csv,READVersionB.csv,"Read Version B","Dissertation, read only version B",DOCUMENT,PAPER,Study2,F,109,108,Test,User,-,,Recall,Recall1,2406,copy,22.222222222222,1520,2021,0,0,,1
w10095909FS,x7sufcmmzw,Nick_Dissertation_EX1_EP,1,119,2021-10-28T04:12:35+00:00,2.0675580501556,2,versionA_stim.csv,READVersionB.csv,"Read Version B","Dissertation, read only version B",TURN,FLIP,Study2,B,116,143,Test,User,-,,Recall,Recall1,1904,in,33.333333333333,1138,1195,0,0,,1
w10095909FS,x7sufcmmzw,Nick_Dissertation_EX1_EP,1,120,2021-10-28T04:12:36+00:00,1.9093470573425,2,versionA_stim.csv,READVersionB.csv,"Read Version B","Dissertation, read only version B",GIVE,STEAK,Study2,U,158,174,Test,User,-,,Recall,Recall1,1702,up,0,1094,1256,0,0,,1
w10095909FS,x7sufcmmzw,Nick_Dissertation_EX1_EP,1,121,2021-10-28T04:12:38+00:00,1.8337359428406,2,versionA_stim.csv,READVersionB.csv,"Read Version B","Dissertation, read only version B",CAT,PANTHER,Study2,B,126,103,Test,User,-,,Recall,Recall1,1629,dog,0,1297,1482,0,0,,1
w10095909FS,x7sufcmmzw,Nick_Dissertation_EX1_EP,1,122,2021-10-28T04:12:41+00:00,2.2286760807037,2,versionA_stim.csv,READVersionB.csv,"Read Version B","Dissertation, read only version B",DRIVER,CAR,Study2,F,106,146,Test,User,-,,Recall,Recall1,2053,car,100,1352,1613,1,1,,1
w10095909FS,x7sufcmmzw,Nick_Dissertation_EX1_EP,1,123,2021-10-28T04:12:45+00:00,4.2206678390503,2,versionA_stim.csv,READVersionB.csv,"Read Version B","Dissertation, read only version B",SLEEP,NAP,Study2,B,134,99,Test,User,-,,Recall,Recall1,4057,awake,25,3158,3851,0,0,,1
w10095909FS,x7sufcmmzw,Nick_Dissertation_EX1_EP,1,124,2021-10-28T04:12:48+00:00,3.1251130104065,2,versionA_stim.csv,READVersionB.csv,"Read Version B","Dissertation, read only version B",WATER,DRINK,Study2,S,143,114,Test,User,-,,Recall,Recall1,2927,faucet,0,1632,2770,0,0,,1
w10095909FS,x7sufcmmzw,Nick_Dissertation_EX1_EP,1,125,2021-10-28T04:12:50+00:00,2.5482170581818,2,versionA_stim.csv,READVersionB.csv,"Read Version B","Dissertation, read only version B",LOAN,SIGN,Study2,U,171,115,Test,User,-,,Recall,Recall1,2379,bank,25,1113,2168,0,0,,1
w10095909FS,x7sufcmmzw,Nick_Dissertation_EX1_EP,1,126,2021-10-28T04:13:01+00:00,10.13081407547,2,versionA_stim.csv,READVersionB.csv,"Read Version B","Dissertation, read only version B",MONEY,BANKER,Study2,B,132,158,Test,User,-,,Recall,Recall1,2935,"man ",44.444444444444,1740,2134,0,0,,1
w10095909FS,x7sufcmmzw,Nick_Dissertation_EX1_EP,1,127,2021-10-28T04:13:15+00:00,14.094889879227,2,versionA_stim.csv,READVersionB.csv,"Read Version B","Dissertation, read only version B",STRETCH,CLOTH,Study2,U,157,163,Test,User,-,,Recall,Recall1,5294,,0,-1,-1,0,0,,1
w10095909FS,x7sufcmmzw,Nick_Dissertation_EX1_EP,1,128,2021-10-28T04:13:17+00:00,2.7091670036316,2,versionA_stim.csv,READVersionB.csv,"Read Version B","Dissertation, read only version B",FLEA,TICK,Study2,S,151,176,Test,User,-,,Recall,Recall1,2435,tick,100,1788,2160,1,1,,1
w10095909FS,x7sufcmmzw,Nick_Dissertation_EX1_EP,1,129,2021-10-28T04:13:20+00:00,2.5305271148682,2,versionA_stim.csv,READVersionB.csv,"Read Version B","Dissertation, read only version B",INCENSE,SMELL,Study2,F,110,102,Test,User,-,,Recall,Recall1,2361,smell,100,1224,2100,1,1,,1
w10095909FS,x7sufcmmzw,Nick_Dissertation_EX1_EP,1,130,2021-10-28T04:13:25+00:00,4.8642048835754,2,versionA_stim.csv,READVersionB.csv,"Read Version B","Dissertation, read only version B",EARTH,GROUND,Study2,S,144,169,Test,User,-,,Recall,Recall1,4679,planet,16.666666666667,1770,4560,0,0,,1
w10095909FS,x7sufcmmzw,Nick_Dissertation_EX1_EP,1,131,2021-10-28T04:13:27+00:00,1.8239390850067,2,versionA_stim.csv,READVersionB.csv,"Read Version B","Dissertation, read only version B",RAZOR,SHAVE,Study2,S,136,121,Test,User,-,,Recall,Recall1,1655,blade,40,1007,1567,0,0,,1
w10095909FS,x7sufcmmzw,Nick_Dissertation_EX1_EP,1,132,2021-10-28T04:13:29+00:00,1.9670040607452,2,versionA_stim.csv,READVersionB.csv,"Read Version B","Dissertation, read only version B",DINE,EAT,Study2,F,111,160,Test,User,-,,Recall,Recall1,1792,dash,28.571428571429,1111,1540,0,0,,1
w10095909FS,x7sufcmmzw,Nick_Dissertation_EX1_EP,1,133,2021-10-28T04:13:34+00:00,5.9085919857025,2,versionA_stim.csv,READVersionB.csv,"Read Version B","Dissertation, read only version B",DETECTIVE,MYSTERY,Study2,F,100,165,Test,User,-,,Recall,Recall1,5732,"Light Yagami",21.052631578947,3067,5394,0,0,,1
w10095909FS,x7sufcmmzw,Nick_Dissertation_EX1_EP,1,134,2021-10-28T04:13:42+00:00,7.9557478427887,2,versionA_stim.csv,READVersionB.csv,"Read Version B","Dissertation, read only version B",RIGHTS,EQUAL,Study2,S,137,100,Test,User,-,,Recall,Recall1,7770,Given,20,6082,7570,0,0,,1
w10095909FS,x7sufcmmzw,Nick_Dissertation_EX1_EP,1,135,2021-10-28T04:13:48+00:00,5.206120967865,2,versionA_stim.csv,READVersionB.csv,"Read Version B","Dissertation, read only version B",STAR,ACTRESS,Study2,B,120,148,Test,User,-,,Recall,Recall1,4904,azure,50,3857,4698,0,0,,1
w10095909FS,x7sufcmmzw,Nick_Dissertation_EX1_EP,1,136,2021-10-28T04:13:50+00:00,2.3595821857452,2,versionA_stim.csv,READVersionB.csv,"Read Version B","Dissertation, read only version B",CHILL,COLD,Study2,F,114,116,Test,User,-,,Recall,Recall1,2175,cool,75,1613,1975,0,1,,1
w10095909FS,x7sufcmmzw,Nick_Dissertation_EX1_EP,1,137,2021-10-28T04:13:52+00:00,2.1641948223114,2,versionA_stim.csv,READVersionB.csv,"Read Version B","Dissertation, read only version B",SUN,TAN,Study2,S,155,173,Test,User,-,,Recall,Recall1,1997,light,25,1344,1828,0,0,,1
w10095909FS,x7sufcmmzw,Nick_Dissertation_EX1_EP,1,138,2021-10-28T04:13:56+00:00,3.5170609951019,2,versionA_stim.csv,READVersionB.csv,"Read Version B","Dissertation, read only version B",CRACKLE,ABLE,Study2,U,162,131,Test,User,-,,Recall,Recall1,3339,pop,0,1285,3020,0,0,,1
w10095909FS,x7sufcmmzw,Nick_Dissertation_EX1_EP,1,139,2021-10-28T04:13:58+00:00,2.2528481483459,2,versionA_stim.csv,READVersionB.csv,"Read Version B","Dissertation, read only version B",KEYS,JOKE,Study2,U,165,129,Test,User,-,,Recall,Recall1,2086,jingle,40,1446,1908,0,0,,1
w10095909FS,x7sufcmmzw,Nick_Dissertation_EX1_EP,1,140,2021-10-28T04:14:00+00:00,2.2372708320618,2,versionA_stim.csv,READVersionB.csv,"Read Version B","Dissertation, read only version B",WRIST,BRACELET,Study2,S,140,104,Test,User,-,,Recall,Recall1,2053,wraps,30.769230769231,1306,1828,0,0,,1
w10095909FS,x7sufcmmzw,Nick_Dissertation_EX1_EP,1,141,2021-10-28T04:14:07+00:00,7.1369380950928,2,versionA_stim.csv,READVersionB.csv,"Read Version B","Dissertation, read only version B",EXTENSION,LONG,Study2,F,96,110,Test,User,-,,Recall,Recall1,6949,,0,2814,3871,0,0,,1
w10095909FS,x7sufcmmzw,Nick_Dissertation_EX1_EP,1,142,2021-10-28T04:14:18+00:00,10.643923997879,2,versionA_stim.csv,READVersionB.csv,"Read Version B","Dissertation, read only version B",ADJOURN,END,Study2,F,101,124,Test,User,-,,Recall,Recall1,10456,end,100,10060,10282,1,1,,1
w10095909FS,x7sufcmmzw,Nick_Dissertation_EX1_EP,1,143,2021-10-28T04:14:30+00:00,12.161056041718,2,versionA_stim.csv,READVersionB.csv,"Read Version B","Dissertation, read only version B",ELEMENT,CARBON,Study2,S,141,127,Test,User,-,,Recall,Recall1,11944,,0,-1,-1,0,0,,1
w10095909FS,x7sufcmmzw,Nick_Dissertation_EX1_EP,1,144,2021-10-28T04:14:33+00:00,3.1932489871979,2,versionA_stim.csv,READVersionB.csv,"Read Version B","Dissertation, read only version B",LISTEN,FICTION,Study2,U,164,105,Test,User,-,,Recall,Recall1,2995,hear,0,1379,2848,0,0,,1
w10095909FS,x7sufcmmzw,Nick_Dissertation_EX1_EP,1,145,2021-10-28T04:14:37+00:00,3.8662629127502,2,versionA_stim.csv,READVersionB.csv,"Read Version B","Dissertation, read only version B",TEMPERATURE,Morning,Study2,U,173,162,Test,User,-,,Recall,Recall1,3680,hot,20,2009,3535,0,0,,1
w10095909FS,x7sufcmmzw,Nick_Dissertation_EX1_EP,1,146,2021-10-28T04:14:40+00:00,3.3703720569611,2,versionA_stim.csv,READVersionB.csv,"Read Version B","Dissertation, read only version B",FISH,SARDINE,Study2,B,130,109,Test,User,-,,Recall,Recall1,3190,water,33.333333333333,1955,2938,0,0,,1
w10095909FS,x7sufcmmzw,Nick_Dissertation_EX1_EP,1,147,2021-10-28T04:14:44+00:00,3.6356720924377,2,versionA_stim.csv,READVersionB.csv,"Read Version B","Dissertation, read only version B",ALONE,LONELY,Study2,S,145,125,Test,User,-,,Recall,Recall1,3460,lonely,100,1759,2784,1,1,,1
w10095909FS,x7sufcmmzw,Nick_Dissertation_EX1_EP,1,148,2021-10-28T04:14:50+00:00,5.78586602211,2,versionA_stim.csv,READVersionB.csv,"Read Version B","Dissertation, read only version B",FUZZY,BANG,Study2,U,168,123,Test,User,-,,Recall,Recall1,5611,scratchy,16.666666666667,4102,5370,0,0,,1
w10095909FS,x7sufcmmzw,Nick_Dissertation_EX1_EP,1,149,2021-10-28T04:14:52+00:00,2.378574848175,2,versionA_stim.csv,READVersionB.csv,"Read Version B","Dissertation, read only version B",BIRD,PENGUIN,Study2,B,119,128,Test,User,-,,Recall,Recall1,2180,flying,30.769230769231,1415,2028,0,0,,1
w10095909FS,x7sufcmmzw,Nick_Dissertation_EX1_EP,1,150,2021-10-28T04:14:56+00:00,3.2518780231476,2,versionA_stim.csv,READVersionB.csv,"Read Version B","Dissertation, read only version B",BASEBALL,LEAGUE,Study2,B,131,139,Test,User,-,,Recall,Recall1,3068,homerun,30.769230769231,1461,2915,0,0,,1
w10095909FS,x7sufcmmzw,Nick_Dissertation_EX1_EP,1,151,2021-10-28T04:14:59+00:00,3.3887870311737,2,versionA_stim.csv,READVersionB.csv,"Read Version B","Dissertation, read only version B",FURRY,DOG,Study2,F,102,120,Test,User,-,,Recall,Recall1,3221,fuzzy,0,2415,3029,0,0,,1
w10095909FS,x7sufcmmzw,Nick_Dissertation_EX1_EP,1,152,2021-10-28T04:15:06+00:00,7.1452550888062,2,versionA_stim.csv,READVersionB.csv,"Read Version B","Dissertation, read only version B",MULE,DONKEY,Study2,F,108,118,Test,User,-,,Recall,Recall1,6968,donkey,100,4071,6351,1,1,,1
w10095909FS,x7sufcmmzw,Nick_Dissertation_EX1_EP,1,153,2021-10-28T04:15:08+00:00,1.8717269897461,2,versionA_stim.csv,READVersionB.csv,"Read Version B","Dissertation, read only version B",AFFECTION,LOVE,Study2,F,115,133,Test,User,-,,Recall,Recall1,1630,love,100,1184,1526,1,1,,1
w10095909FS,x7sufcmmzw,Nick_Dissertation_EX1_EP,1,154,2021-10-28T04:15:10+00:00,2.3135888576508,2,versionA_stim.csv,READVersionB.csv,"Read Version B","Dissertation, read only version B",LEASE,TOIL,Study2,U,170,140,Test,User,-,,Recall,Recall1,2136,renew,0,1413,2022,0,0,,1
w10095909FS,x7sufcmmzw,Nick_Dissertation_EX1_EP,1,155,2021-10-28T04:15:12+00:00,1.9027061462402,2,versionA_stim.csv,READVersionB.csv,"Read Version B","Dissertation, read only version B",VEHICLE,CHARM,Study2,U,160,171,Test,User,-,,Recall,Recall1,1735,drive,20,1191,1642,0,0,,1
w10095909FS,x7sufcmmzw,Nick_Dissertation_EX1_EP,1,156,2021-10-28T04:15:14+00:00,1.6189448833466,2,versionA_stim.csv,READVersionB.csv,"Read Version B","Dissertation, read only version B",CANDLE,WAX,Study2,S,139,141,Test,User,-,,Recall,Recall1,1445,light,0,920,1332,0,0,,1
w10095909FS,x7sufcmmzw,Nick_Dissertation_EX1_EP,1,157,2021-10-28T04:15:17+00:00,2.821300983429,2,versionA_stim.csv,READVersionB.csv,"Read Version B","Dissertation, read only version B",CAKE,CLOTHES,Study2,U,166,97,Test,User,-,,Recall,Recall1,2658,birthday,26.666666666667,1458,2467,0,0,,1
w10095909FS,x7sufcmmzw,Nick_Dissertation_EX1_EP,1,158,2021-10-28T04:15:26+00:00,9.0811049938202,2,versionA_stim.csv,READVersionB.csv,"Read Version B","Dissertation, read only version B",GONE,AWAY,Study2,S,142,175,Test,User,-,,Recall,Recall1,8896,away,100,8201,8720,1,1,,1
w10095909FS,x7sufcmmzw,Nick_Dissertation_EX1_EP,1,159,2021-10-28T04:15:28+00:00,2.0892751216888,2,versionA_stim.csv,READVersionB.csv,"Read Version B","Dissertation, read only version B",SHEARS,SCISSORS,Study2,F,112,155,Test,User,-,,Recall,Recall1,1904,sheep,15.384615384615,1246,1693,0,0,,1
w10095909FS,x7sufcmmzw,Nick_Dissertation_EX1_EP,1,160,2021-10-28T04:15:31+00:00,3.5077610015869,2,versionA_stim.csv,READVersionB.csv,"Read Version B","Dissertation, read only version B",THREAD,THIMBLE,Study2,B,121,150,Test,User,-,,Recall,Recall1,3332,noodle,30.769230769231,1070,2330,0,0,,1
w10095909FS,x7sufcmmzw,Nick_Dissertation_EX1_EP,1,161,2021-10-28T04:15:35+00:00,3.3138828277588,2,versionA_stim.csv,READVersionB.csv,"Read Version B","Dissertation, read only version B",LOUD,NOISE,Study2,S,152,164,Test,User,-,,Recall,Recall1,3143,noise,100,2538,3002,1,1,,1
w10095909FS,x7sufcmmzw,Nick_Dissertation_EX1_EP,1,162,2021-10-28T04:15:37+00:00,2.7896711826324,2,versionA_stim.csv,READVersionB.csv,"Read Version B","Dissertation, read only version B",CLUE,GAME,Study2,F,97,157,Test,User,-,,Recall,Recall1,2610,detective,15.384615384615,1214,2469,0,0,,1
w10095909FS,x7sufcmmzw,Nick_Dissertation_EX1_EP,1,163,2021-10-28T04:15:46+00:00,8.343827009201,2,versionA_stim.csv,READVersionB.csv,"Read Version B","Dissertation, read only version B",JUSTICE,MAROON,Study2,U,156,107,Test,User,-,,Recall,Recall1,8156,man,66.666666666667,7799,7989,0,0,,1
w10095909FS,x7sufcmmzw,Nick_Dissertation_EX1_EP,1,164,2021-10-28T04:15:48+00:00,2.2790579795837,2,versionA_stim.csv,READVersionB.csv,"Read Version B","Dissertation, read only version B",MASON,JAR,Study2,S,138,149,Test,User,-,,Recall,Recall1,1948,free,28.571428571429,1266,1745,0,0,,1
w10095909FS,x7sufcmmzw,Nick_Dissertation_EX1_EP,1,165,2021-10-28T04:15:51+00:00,3.1389670372009,2,versionA_stim.csv,READVersionB.csv,"Read Version B","Dissertation, read only version B",POP,BALLOON,Study2,B,123,153,Test,User,-,,Recall,Recall1,2949,crackle,28.571428571429,1028,2840,0,0,,1
w10095909FS,x7sufcmmzw,Nick_Dissertation_EX1_EP,1,166,2021-10-28T04:15:54+00:00,2.7026228904724,2,versionA_stim.csv,READVersionB.csv,"Read Version B","Dissertation, read only version B",DEAD,COFFIN,Study2,B,128,161,Test,User,-,,Recall,Recall1,2516,man,22.222222222222,1918,2084,0,0,,1
w10095909FS,x7sufcmmzw,Nick_Dissertation_EX1_EP,1,167,2021-10-28T04:15:57+00:00,3.2772369384766,2,versionA_stim.csv,READVersionB.csv,"Read Version B","Dissertation, read only version B",MEAT,OBTAIN,Study2,U,161,106,Test,User,-,,Recall,Recall1,3099,eater,18.181818181818,1489,2975,0,0,,1
w10095909FS,x7sufcmmzw,Nick_Dissertation_EX1_EP,1,168,2021-10-28T04:16:02+00:00,4.5274200439453,2,versionA_stim.csv,READVersionB.csv,"Read Version B","Dissertation, read only version B",CACTUS,PLANT,Study2,F,98,159,Test,User,-,,Recall,Recall1,4361,prickle,33.333333333333,2651,4230,0,0,,1
w10095909FS,x7sufcmmzw,Nick_Dissertation_EX1_EP,1,169,2021-10-28T04:16:04+00:00,2.5798809528351,2,versionA_stim.csv,READVersionB.csv,"Read Version B","Dissertation, read only version B",HONEST,TRUTHFUL,Study2,B,133,136,Test,User,-,,Recall,Recall1,2403,truth,76.923076923077,1700,2167,0,1,,1
w10095909FS,x7sufcmmzw,Nick_Dissertation_EX1_EP,1,170,2021-10-28T04:16:16+00:00,11.284795045853,2,versionA_stim.csv,READVersionB.csv,"Read Version B","Dissertation, read only version B",MIRROR,CHILDREN,Study2,U,174,132,Test,User,-,,Recall,Recall1,11111,children,100,7982,10304,1,1,,1
w10095909FS,x7sufcmmzw,Nick_Dissertation_EX1_EP,1,171,2021-10-28T04:16:18+00:00,2.6566820144653,2,versionA_stim.csv,READVersionB.csv,"Read Version B","Dissertation, read only version B",ROD,REEL,Study2,S,150,147,Test,User,-,,Recall,Recall1,2483,wave,25,1188,2323,0,0,,1
w10095909FS,x7sufcmmzw,Nick_Dissertation_EX1_EP,1,172,2021-10-28T04:16:20+00:00,2.1727130413055,2,versionA_stim.csv,READVersionB.csv,"Read Version B","Dissertation, read only version B",LITTER,TRASH,Study2,F,103,166,Test,User,-,,Recall,Recall1,2003,cat,25,1437,1781,0,0,,1
w10095909FS,x7sufcmmzw,Nick_Dissertation_EX1_EP,1,173,2021-10-28T04:16:22+00:00,2.0805220603943,2,versionA_stim.csv,READVersionB.csv,"Read Version B","Dissertation, read only version B",MOAT,CLEAR,Study2,U,169,134,Test,User,-,,Recall,Recall1,1905,clear,100,1299,1728,1,1,,1
w10095909FS,x7sufcmmzw,Nick_Dissertation_EX1_EP,1,174,2021-10-28T04:16:25+00:00,2.7136778831482,2,versionA_stim.csv,READVersionB.csv,"Read Version B","Dissertation, read only version B",MAIN,SCAR,Study2,U,175,142,Test,User,-,,Recall,Recall1,2541,stay,50,1879,2322,0,0,,1
w10095909FS,x7sufcmmzw,Nick_Dissertation_EX1_EP,1,175,2021-10-28T04:16:41+00:00,15.364839076996,2,versionA_stim.csv,READVersionB.csv,"Read Version B","Dissertation, read only version B",SCALP,HEAD,Study2,F,105,170,Test,User,-,,Recall,Recall1,10087,"accident of '77",21.052631578947,4085,9427,0,0,,1
w10095909FS,x7sufcmmzw,Nick_Dissertation_EX1_EP,1,176,2021-10-28T04:16:43+00:00,2.380970954895,2,versionA_stim.csv,READVersionB.csv,"Read Version B","Dissertation, read only version B",MAZE,ELECTION,Study2,U,159,111,Test,User,-,,Recall,Recall1,2111,lost,33.333333333333,1634,2008,0,0,,1
w10095909FS,x7sufcmmzw,Nick_Dissertation_EX1_EP,1,177,2021-10-28T04:16:56+00:00,13.141060113907,2,versionA_stim.csv,READVersionB.csv,"Read Version B","Dissertation, read only version B",,,,,,0,Instruct,-,10,"You will now be presented with a new set of word pairs. Please study each pair. Remember that your memory will be tested! When finished, press Enter to move to the next pair.",Initial_Instruct,Instruct4,12959,,,-1,-1,,,,1
w10095909FS,x7sufcmmzw,Nick_Dissertation_EX1_EP,1,178,2021-10-28T04:17:01+00:00,4.9527559280396,2,versionA_stim.csv,READVersionB.csv,"Read Version B","Dissertation, read only version B",,,,,,0,Instruct,User,-,"Each word will be displayed on the computer screen for 8 seconds. The screen will automatically move to the next pair when time is up. Press Enter when you are ready to begin.",,Instruct11,4690,,,-1,-1,,,,1
w10095909FS,x7sufcmmzw,Nick_Dissertation_EX1_EP,1,179,2021-10-28T04:17:09+00:00,8.2064819335938,2,versionA_stim.csv,READVersionB.csv,"Read Version B","Dissertation, read only version B",BASEBALL,CATCHER,BUFFER1,Buffer,2,6,Study,8,8,,Study/JOL,BUFFER3,8005,,,-1,-1,,,,1
w10095909FS,x7sufcmmzw,Nick_Dissertation_EX1_EP,1,180,2021-10-28T04:17:17+00:00,8.2054929733276,2,versionA_stim.csv,READVersionB.csv,"Read Version B","Dissertation, read only version B",TREES,GREEN,BUFFER1,Buffer,1,2,Study,8,8,,Study/JOL,BUFFER3,8002,,,-1,-1,,,,1
w10095909FS,x7sufcmmzw,Nick_Dissertation_EX1_EP,1,181,2021-10-28T04:17:26+00:00,8.2171030044556,2,versionA_stim.csv,READVersionB.csv,"Read Version B","Dissertation, read only version B",PEANUT,BUTTER,BUFFER1,Buffer,3,4,Study,8,8,,Study/JOL,BUFFER3,8001,,,-1,-1,,,,1
w10095909FS,x7sufcmmzw,Nick_Dissertation_EX1_EP,1,182,2021-10-28T04:17:34+00:00,8.2030489444733,2,versionA_stim.csv,READVersionB.csv,"Read Version B","Dissertation, read only version B",SCARE,HIDE,BUFFER1,Buffer,4,3,Study,8,8,,Study/JOL,BUFFER3,8002,,,-1,-1,,,,1
w10095909FS,x7sufcmmzw,Nick_Dissertation_EX1_EP,1,183,2021-10-28T04:17:42+00:00,8.215399980545,2,versionA_stim.csv,READVersionB.csv,"Read Version B","Dissertation, read only version B",SPACE,JAM,BUFFER1,Buffer,5,5,Study,8,8,,Study/JOL,BUFFER3,8002,,,-1,-1,,,,1
w10095909FS,x7sufcmmzw,Nick_Dissertation_EX1_EP,1,184,2021-10-28T04:17:50+00:00,8.1982440948486,2,versionA_stim.csv,READVersionB.csv,"Read Version B","Dissertation, read only version B",BEGIN,END,Study1,S,54,61,Study,8,8,,Study/JOL,"Study Phase2",8002,,,-1,-1,,,,1
w10095909FS,x7sufcmmzw,Nick_Dissertation_EX1_EP,1,185,2021-10-28T04:17:58+00:00,8.226105928421,2,versionA_stim.csv,READVersionB.csv,"Read Version B","Dissertation, read only version B",ARTERY,BRONZE,Study1,U,74,76,Study,8,8,,Study/JOL,"Study Phase2",8001,,,-1,-1,,,,1
w10095909FS,x7sufcmmzw,Nick_Dissertation_EX1_EP,1,186,2021-10-28T04:18:07+00:00,8.207768201828,2,versionA_stim.csv,READVersionB.csv,"Read Version B","Dissertation, read only version B",HORNET,STING,Study1,F,11,11,Study,8,8,,Study/JOL,"Study Phase2",8001,,,-1,-1,,,,1
w10095909FS,x7sufcmmzw,Nick_Dissertation_EX1_EP,1,187,2021-10-28T04:18:15+00:00,8.1978600025177,2,versionA_stim.csv,READVersionB.csv,"Read Version B","Dissertation, read only version B",SENTENCE,WORD,Study1,B,31,52,Study,8,8,,Study/JOL,"Study Phase2",8006,,,-1,-1,,,,1
w10095909FS,x7sufcmmzw,Nick_Dissertation_EX1_EP,1,188,2021-10-28T04:18:23+00:00,8.1896259784698,2,versionA_stim.csv,READVersionB.csv,"Read Version B","Dissertation, read only version B",SHOE,FOOT,Study1,S,60,84,Study,8,8,,Study/JOL,"Study Phase2",8002,,,-1,-1,,,,1
w10095909FS,x7sufcmmzw,Nick_Dissertation_EX1_EP,1,189,2021-10-28T04:18:31+00:00,8.1952879428864,2,versionA_stim.csv,READVersionB.csv,"Read Version B","Dissertation, read only version B",BLOW,WIND,Study1,S,55,40,Study,8,8,,Study/JOL,"Study Phase2",8002,,,-1,-1,,,,1
w10095909FS,x7sufcmmzw,Nick_Dissertation_EX1_EP,1,190,2021-10-28T04:18:39+00:00,8.1946818828583,2,versionA_stim.csv,READVersionB.csv,"Read Version B","Dissertation, read only version B",ROOT,PLANT,Study1,F,13,23,Study,8,8,,Study/JOL,"Study Phase2",8003,,,-1,-1,,,,1
w10095909FS,x7sufcmmzw,Nick_Dissertation_EX1_EP,1,191,2021-10-28T04:18:48+00:00,8.9134681224823,2,versionA_stim.csv,READVersionB.csv,"Read Version B","Dissertation, read only version B",CIRCLE,ROUND,Study1,S,65,74,Study,8,8,,Study/JOL,"Study Phase2",8001,,,-1,-1,,,,1
w10095909FS,x7sufcmmzw,Nick_Dissertation_EX1_EP,1,192,2021-10-28T04:18:57+00:00,8.1950988769531,2,versionA_stim.csv,READVersionB.csv,"Read Version B","Dissertation, read only version B",HOT,CHILI,Study1,B,37,33,Study,8,8,,Study/JOL,"Study Phase2",8002,,,-1,-1,,,,1
w10095909FS,x7sufcmmzw,Nick_Dissertation_EX1_EP,1,193,2021-10-28T04:19:05+00:00,8.1880509853363,2,versionA_stim.csv,READVersionB.csv,"Read Version B","Dissertation, read only version B",FULL,ENOUGH,Study1,B,26,72,Study,8,8,,Study/JOL,"Study Phase2",8001,,,-1,-1,,,,1
w10095909FS,x7sufcmmzw,Nick_Dissertation_EX1_EP,1,194,2021-10-28T04:19:13+00:00,8.2043650150299,2,versionA_stim.csv,READVersionB.csv,"Read Version B","Dissertation, read only version B",BRIDGE,WATER,Study1,F,18,46,Study,8,8,,Study/JOL,"Study Phase2",8002,,,-1,-1,,,,1
w10095909FS,x7sufcmmzw,Nick_Dissertation_EX1_EP,1,195,2021-10-28T04:19:21+00:00,8.1922731399536,2,versionA_stim.csv,READVersionB.csv,"Read Version B","Dissertation, read only version B",BUG,WASP,Study1,B,32,29,Study,8,8,,Study/JOL,"Study Phase2",8001,,,-1,-1,,,,1
w10095909FS,x7sufcmmzw,Nick_Dissertation_EX1_EP,1,196,2021-10-28T04:19:29+00:00,8.2239639759064,2,versionA_stim.csv,READVersionB.csv,"Read Version B","Dissertation, read only version B",DISCUSSION,TALK,Study1,F,21,78,Study,8,8,,Study/JOL,"Study Phase2",8003,,,-1,-1,,,,1
w10095909FS,x7sufcmmzw,Nick_Dissertation_EX1_EP,1,197,2021-10-28T04:19:38+00:00,8.2081198692322,2,versionA_stim.csv,READVersionB.csv,"Read Version B","Dissertation, read only version B",PAST,FUTURE,Study1,S,61,86,Study,8,8,,Study/JOL,"Study Phase2",8004,,,-1,-1,,,,1
w10095909FS,x7sufcmmzw,Nick_Dissertation_EX1_EP,1,198,2021-10-28T04:19:46+00:00,8.2182741165161,2,versionA_stim.csv,READVersionB.csv,"Read Version B","Dissertation, read only version B",HIDE,SICK,Study1,U,84,81,Study,8,8,,Study/JOL,"Study Phase2",8003,,,-1,-1,,,,1
w10095909FS,x7sufcmmzw,Nick_Dissertation_EX1_EP,1,199,2021-10-28T04:19:54+00:00,8.2288899421692,2,versionA_stim.csv,READVersionB.csv,"Read Version B","Dissertation, read only version B",KEY,LATCH,Study1,B,36,70,Study,8,8,,Study/JOL,"Study Phase2",8002,,,-1,-1,,,,1
w10095909FS,x7sufcmmzw,Nick_Dissertation_EX1_EP,1,200,2021-10-28T04:20:02+00:00,8.1975591182709,2,versionA_stim.csv,READVersionB.csv,"Read Version B","Dissertation, read only version B",DELINQUENT,BAD,Study1,F,6,13,Study,8,8,,Study/JOL,"Study Phase2",8001,,,-1,-1,,,,1
w10095909FS,x7sufcmmzw,Nick_Dissertation_EX1_EP,1,201,2021-10-28T04:20:10+00:00,8.2102429866791,2,versionA_stim.csv,READVersionB.csv,"Read Version B","Dissertation, read only version B",WORK,CHORE,Study1,B,39,66,Study,8,8,,Study/JOL,"Study Phase2",8001,,,-1,-1,,,,1
w10095909FS,x7sufcmmzw,Nick_Dissertation_EX1_EP,1,202,2021-10-28T04:20:19+00:00,8.2018020153046,2,versionA_stim.csv,READVersionB.csv,"Read Version B","Dissertation, read only version B",PARK,HUNGRY,Study1,U,68,34,Study,8,8,,Study/JOL,"Study Phase2",8001,,,-1,-1,,,,1
w10095909FS,x7sufcmmzw,Nick_Dissertation_EX1_EP,1,203,2021-10-28T04:20:27+00:00,8.1944780349731,2,versionA_stim.csv,READVersionB.csv,"Read Version B","Dissertation, read only version B",HYGIENE,CLEAN,Study1,F,17,35,Study,8,8,,Study/JOL,"Study Phase2",8001,,,-1,-1,,,,1
w10095909FS,x7sufcmmzw,Nick_Dissertation_EX1_EP,1,204,2021-10-28T04:20:35+00:00,8.1978838443756,2,versionA_stim.csv,READVersionB.csv,"Read Version B","Dissertation, read only version B",VALLEY,ADD,Study1,U,82,28,Study,8,8,,Study/JOL,"Study Phase2",8001,,,-1,-1,,,,1
w10095909FS,x7sufcmmzw,Nick_Dissertation_EX1_EP,1,205,2021-10-28T04:20:43+00:00,8.2201189994812,2,versionA_stim.csv,READVersionB.csv,"Read Version B","Dissertation, read only version B",BITTER,COLD,Study1,F,12,26,Study,8,8,,Study/JOL,"Study Phase2",8002,,,-1,-1,,,,1
w10095909FS,x7sufcmmzw,Nick_Dissertation_EX1_EP,1,206,2021-10-28T04:20:51+00:00,8.2135829925537,2,versionA_stim.csv,READVersionB.csv,"Read Version B","Dissertation, read only version B",PUSHER,CLUTTER,Study1,U,66,18,Study,8,8,,Study/JOL,"Study Phase2",8000,,,-1,-1,,,,1
w10095909FS,x7sufcmmzw,Nick_Dissertation_EX1_EP,1,207,2021-10-28T04:21:00+00:00,8.3851981163025,2,versionA_stim.csv,READVersionB.csv,"Read Version B","Dissertation, read only version B",WINE,CHEESE,Study1,S,57,39,Study,8,8,,Study/JOL,"Study Phase2",8004,,,-1,-1,,,,1
w10095909FS,x7sufcmmzw,Nick_Dissertation_EX1_EP,1,208,2021-10-28T04:21:12+00:00,12.126873970032,2,versionA_stim.csv,READVersionB.csv,"Read Version B","Dissertation, read only version B",DRINK,SIP,Study1,B,27,50,Study,8,8,,Study/JOL,"Study Phase2",8001,,,-1,-1,,,,1
w10095909FS,x7sufcmmzw,Nick_Dissertation_EX1_EP,1,209,2021-10-28T04:21:20+00:00,8.2295289039612,2,versionA_stim.csv,READVersionB.csv,"Read Version B","Dissertation, read only version B",LOCATION,SITE,Study1,S,48,83,Study,8,8,,Study/JOL,"Study Phase2",8002,,,-1,-1,,,,1
w10095909FS,x7sufcmmzw,Nick_Dissertation_EX1_EP,1,210,2021-10-28T04:21:28+00:00,8.2061021327972,2,versionA_stim.csv,READVersionB.csv,"Read Version B","Dissertation, read only version B",DUE,ASSIGNMENT,Study1,S,46,47,Study,8,8,,Study/JOL,"Study Phase2",8001,,,-1,-1,,,,1
w10095909FS,x7sufcmmzw,Nick_Dissertation_EX1_EP,1,211,2021-10-28T04:21:37+00:00,8.2008678913116,2,versionA_stim.csv,READVersionB.csv,"Read Version B","Dissertation, read only version B",GRILL,BAR,Study1,S,52,20,Study,8,8,,Study/JOL,"Study Phase2",8005,,,-1,-1,,,,1
w10095909FS,x7sufcmmzw,Nick_Dissertation_EX1_EP,1,212,2021-10-28T04:21:45+00:00,8.2069759368896,2,versionA_stim.csv,READVersionB.csv,"Read Version B","Dissertation, read only version B",FIX,HAND,Study1,U,75,37,Study,8,8,,Study/JOL,"Study Phase2",8000,,,-1,-1,,,,1
w10095909FS,x7sufcmmzw,Nick_Dissertation_EX1_EP,1,213,2021-10-28T04:21:53+00:00,8.2160232067108,2,versionA_stim.csv,READVersionB.csv,"Read Version B","Dissertation, read only version B",REVOLUTION,WAR,Study1,F,20,57,Study,8,8,,Study/JOL,"Study Phase2",8001,,,-1,-1,,,,1
w10095909FS,x7sufcmmzw,Nick_Dissertation_EX1_EP,1,214,2021-10-28T04:22:01+00:00,8.1986589431763,2,versionA_stim.csv,READVersionB.csv,"Read Version B","Dissertation, read only version B",HONEY,BEE,Study1,S,63,65,Study,8,8,,Study/JOL,"Study Phase2",8001,,,-1,-1,,,,1
w10095909FS,x7sufcmmzw,Nick_Dissertation_EX1_EP,1,215,2021-10-28T04:22:09+00:00,8.2426948547363,2,versionA_stim.csv,READVersionB.csv,"Read Version B","Dissertation, read only version B",HERD,COW,Study1,F,22,59,Study,8,8,,Study/JOL,"Study Phase2",8005,,,-1,-1,,,,1
w10095909FS,x7sufcmmzw,Nick_Dissertation_EX1_EP,1,216,2021-10-28T04:22:18+00:00,8.2099280357361,2,versionA_stim.csv,READVersionB.csv,"Read Version B","Dissertation, read only version B",SMELL,STENCH,Study1,B,42,64,Study,8,8,,Study/JOL,"Study Phase2",8001,,,-1,-1,,,,1
w10095909FS,x7sufcmmzw,Nick_Dissertation_EX1_EP,1,217,2021-10-28T04:22:26+00:00,8.2276151180267,2,versionA_stim.csv,READVersionB.csv,"Read Version B","Dissertation, read only version B",DARK,CAVE,Study1,B,28,82,Study,8,8,,Study/JOL,"Study Phase2",8003,,,-1,-1,,,,1
w10095909FS,x7sufcmmzw,Nick_Dissertation_EX1_EP,1,218,2021-10-28T04:22:34+00:00,8.2180738449097,2,versionA_stim.csv,READVersionB.csv,"Read Version B","Dissertation, read only version B",FIRE,BLAZE,Study1,B,45,48,Study,8,8,,Study/JOL,"Study Phase2",8001,,,-1,-1,,,,1
w10095909FS,x7sufcmmzw,Nick_Dissertation_EX1_EP,1,219,2021-10-28T04:22:42+00:00,8.2013230323792,2,versionA_stim.csv,READVersionB.csv,"Read Version B","Dissertation, read only version B",ALLOW,TUCK,Study1,U,78,7,Study,8,8,,Study/JOL,"Study Phase2",8005,,,-1,-1,,,,1
w10095909FS,x7sufcmmzw,Nick_Dissertation_EX1_EP,1,220,2021-10-28T04:22:51+00:00,8.2268400192261,2,versionA_stim.csv,READVersionB.csv,"Read Version B","Dissertation, read only version B",BALL,RACKET,Study1,B,38,79,Study,8,8,,Study/JOL,"Study Phase2",8002,,,-1,-1,,,,1
w10095909FS,x7sufcmmzw,Nick_Dissertation_EX1_EP,1,221,2021-10-28T04:23:00+00:00,9.053640127182,2,versionA_stim.csv,READVersionB.csv,"Read Version B","Dissertation, read only version B",ART,LION,Study1,U,79,51,Study,8,8,,Study/JOL,"Study Phase2",8001,,,-1,-1,,,,1
w10095909FS,x7sufcmmzw,Nick_Dissertation_EX1_EP,1,222,2021-10-28T04:23:08+00:00,8.1788358688354,2,versionA_stim.csv,READVersionB.csv,"Read Version B","Dissertation, read only version B",DIETARY,SACKING,Study1,U,67,15,Study,8,8,,Study/JOL,"Study Phase2",8001,,,-1,-1,,,,1
w10095909FS,x7sufcmmzw,Nick_Dissertation_EX1_EP,1,223,2021-10-28T04:23:16+00:00,8.2294480800629,2,versionA_stim.csv,READVersionB.csv,"Read Version B","Dissertation, read only version B",EDITOR,NEWS,Study1,F,10,31,Study,8,8,,Study/JOL,"Study Phase2",8005,,,-1,-1,,,,1
w10095909FS,x7sufcmmzw,Nick_Dissertation_EX1_EP,1,224,2021-10-28T04:23:24+00:00,8.2080399990082,2,versionA_stim.csv,READVersionB.csv,"Read Version B","Dissertation, read only version B",PLANE,PILOT,Study1,B,44,68,Study,8,8,,Study/JOL,"Study Phase2",8002,,,-1,-1,,,,1
w10095909FS,x7sufcmmzw,Nick_Dissertation_EX1_EP,1,225,2021-10-28T04:23:32+00:00,8.2173218727112,2,versionA_stim.csv,READVersionB.csv,"Read Version B","Dissertation, read only version B",SUGAR,RIDDLE,Study1,U,81,69,Study,8,8,,Study/JOL,"Study Phase2",8004,,,-1,-1,,,,1
w10095909FS,x7sufcmmzw,Nick_Dissertation_EX1_EP,1,226,2021-10-28T04:23:41+00:00,8.2094931602478,2,versionA_stim.csv,READVersionB.csv,"Read Version B","Dissertation, read only version B",HEIGHT,GROWTH,Study1,B,30,58,Study,8,8,,Study/JOL,"Study Phase2",8003,,,-1,-1,,,,1
w10095909FS,x7sufcmmzw,Nick_Dissertation_EX1_EP,1,227,2021-10-28T04:23:49+00:00,8.1854920387268,2,versionA_stim.csv,READVersionB.csv,"Read Version B","Dissertation, read only version B",KIDNEY,LIVER,Study1,S,53,36,Study,8,8,,Study/JOL,"Study Phase2",8002,,,-1,-1,,,,1
w10095909FS,x7sufcmmzw,Nick_Dissertation_EX1_EP,1,228,2021-10-28T04:23:57+00:00,8.2074449062347,2,versionA_stim.csv,READVersionB.csv,"Read Version B","Dissertation, read only version B",LIFT,WOMAN,Study1,U,69,14,Study,8,8,,Study/JOL,"Study Phase2",8001,,,-1,-1,,,,1
w10095909FS,x7sufcmmzw,Nick_Dissertation_EX1_EP,1,229,2021-10-28T04:24:05+00:00,8.2284939289093,2,versionA_stim.csv,READVersionB.csv,"Read Version B","Dissertation, read only version B",PAW,DOG,Study1,F,15,54,Study,8,8,,Study/JOL,"Study Phase2",8002,,,-1,-1,,,,1
w10095909FS,x7sufcmmzw,Nick_Dissertation_EX1_EP,1,230,2021-10-28T04:24:13+00:00,8.2028601169586,2,versionA_stim.csv,READVersionB.csv,"Read Version B","Dissertation, read only version B",DEATH,BUSINESS,Study1,U,72,49,Study,8,8,,Study/JOL,"Study Phase2",8001,,,-1,-1,,,,1
w10095909FS,x7sufcmmzw,Nick_Dissertation_EX1_EP,1,231,2021-10-28T04:24:22+00:00,8.2080450057983,2,versionA_stim.csv,READVersionB.csv,"Read Version B","Dissertation, read only version B",SWAN,BIRD,Study1,F,14,38,Study,8,8,,Study/JOL,"Study Phase2",8001,,,-1,-1,,,,1
w10095909FS,x7sufcmmzw,Nick_Dissertation_EX1_EP,1,232,2021-10-28T04:24:30+00:00,8.2095398902893,2,versionA_stim.csv,READVersionB.csv,"Read Version B","Dissertation, read only version B",NUMBER,AMOUNT,Study1,S,47,56,Study,8,8,,Study/JOL,"Study Phase2",8001,,,-1,-1,,,,1
w10095909FS,x7sufcmmzw,Nick_Dissertation_EX1_EP,1,233,2021-10-28T04:24:43+00:00,12.678554058075,2,versionA_stim.csv,READVersionB.csv,"Read Version B","Dissertation, read only version B",BABY,CHILD,Study1,S,64,8,Study,8,8,,Study/JOL,"Study Phase2",8002,,,-1,-1,,,,1
w10095909FS,x7sufcmmzw,Nick_Dissertation_EX1_EP,1,234,2021-10-28T04:24:51+00:00,8.2881009578705,2,versionA_stim.csv,READVersionB.csv,"Read Version B","Dissertation, read only version B",MACHINE,POSITION,Study1,U,76,71,Study,8,8,,Study/JOL,"Study Phase2",8002,,,-1,-1,,,,1
w10095909FS,x7sufcmmzw,Nick_Dissertation_EX1_EP,1,235,2021-10-28T04:24:59+00:00,8.2105720043182,2,versionA_stim.csv,READVersionB.csv,"Read Version B","Dissertation, read only version B",DEBATE,SIGHT,Study1,U,73,62,Study,8,8,,Study/JOL,"Study Phase2",8001,,,-1,-1,,,,1
w10095909FS,x7sufcmmzw,Nick_Dissertation_EX1_EP,1,236,2021-10-28T04:25:07+00:00,8.189346075058,2,versionA_stim.csv,READVersionB.csv,"Read Version B","Dissertation, read only version B",CHISEL,HAMMER,Study1,F,9,21,Study,8,8,,Study/JOL,"Study Phase2",8003,,,-1,-1,,,,1
w10095909FS,x7sufcmmzw,Nick_Dissertation_EX1_EP,1,237,2021-10-28T04:25:15+00:00,8.2142729759216,2,versionA_stim.csv,READVersionB.csv,"Read Version B","Dissertation, read only version B",CREDIT,CARD,Study1,F,23,55,Study,8,8,,Study/JOL,"Study Phase2",8002,,,-1,-1,,,,1
w10095909FS,x7sufcmmzw,Nick_Dissertation_EX1_EP,1,238,2021-10-28T04:25:24+00:00,8.1946759223938,2,versionA_stim.csv,READVersionB.csv,"Read Version B","Dissertation, read only version B",ORCHID,FLOWER,Study1,F,24,43,Study,8,8,,Study/JOL,"Study Phase2",8001,,,-1,-1,,,,1
w10095909FS,x7sufcmmzw,Nick_Dissertation_EX1_EP,1,239,2021-10-28T04:25:32+00:00,8.211483001709,2,versionA_stim.csv,READVersionB.csv,"Read Version B","Dissertation, read only version B",WAY,OUT,Study1,F,16,19,Study,8,8,,Study/JOL,"Study Phase2",8003,,,-1,-1,,,,1
w10095909FS,x7sufcmmzw,Nick_Dissertation_EX1_EP,1,240,2021-10-28T04:25:40+00:00,8.212140083313,2,versionA_stim.csv,READVersionB.csv,"Read Version B","Dissertation, read only version B",POP,SODA,Study1,S,56,27,Study,8,8,,Study/JOL,"Study Phase2",8001,,,-1,-1,,,,1
w10095909FS,x7sufcmmzw,Nick_Dissertation_EX1_EP,1,241,2021-10-28T04:25:48+00:00,8.1940970420837,2,versionA_stim.csv,READVersionB.csv,"Read Version B","Dissertation, read only version B",SLEEP,DROWSY,Study1,B,41,32,Study,8,8,,Study/JOL,"Study Phase2",8002,,,-1,-1,,,,1
w10095909FS,x7sufcmmzw,Nick_Dissertation_EX1_EP,1,242,2021-10-28T04:25:56+00:00,8.1849930286407,2,versionA_stim.csv,READVersionB.csv,"Read Version B","Dissertation, read only version B",SOON,BELT,Study1,U,70,41,Study,8,8,,Study/JOL,"Study Phase2",8002,,,-1,-1,,,,1
w10095909FS,x7sufcmmzw,Nick_Dissertation_EX1_EP,1,243,2021-10-28T04:26:05+00:00,8.3626480102539,2,versionA_stim.csv,READVersionB.csv,"Read Version B","Dissertation, read only version B",DUMP,WASTE,Study1,S,49,12,Study,8,8,,Study/JOL,"Study Phase2",8004,,,-1,-1,,,,1
w10095909FS,x7sufcmmzw,Nick_Dissertation_EX1_EP,1,244,2021-10-28T04:26:13+00:00,8.2089037895203,2,versionA_stim.csv,READVersionB.csv,"Read Version B","Dissertation, read only version B",DIGESTION,STOMACH,Study1,F,7,77,Study,8,8,,Study/JOL,"Study Phase2",8001,,,-1,-1,,,,1
w10095909FS,x7sufcmmzw,Nick_Dissertation_EX1_EP,1,245,2021-10-28T04:26:21+00:00,8.210517168045,2,versionA_stim.csv,READVersionB.csv,"Read Version B","Dissertation, read only version B",DISCOVER,FLOOR,Study1,U,71,73,Study,8,8,,Study/JOL,"Study Phase2",8001,,,-1,-1,,,,1
w10095909FS,x7sufcmmzw,Nick_Dissertation_EX1_EP,1,246,2021-10-28T04:26:30+00:00,8.9801640510559,2,versionA_stim.csv,READVersionB.csv,"Read Version B","Dissertation, read only version B",BATHROOM,TOILET,Study1,S,58,24,Study,8,8,,Study/JOL,"Study Phase2",8003,,,-1,-1,,,,1
w10095909FS,x7sufcmmzw,Nick_Dissertation_EX1_EP,1,247,2021-10-28T04:26:39+00:00,8.4175329208374,2,versionA_stim.csv,READVersionB.csv,"Read Version B","Dissertation, read only version B",GEOLOGY,ROCK,Study1,F,19,22,Study,8,8,,Study/JOL,"Study Phase2",8002,,,-1,-1,,,,1
w10095909FS,x7sufcmmzw,Nick_Dissertation_EX1_EP,1,248,2021-10-28T04:26:48+00:00,9.4907639026642,2,versionA_stim.csv,READVersionB.csv,"Read Version B","Dissertation, read only version B",WAGE,MONEY,Study1,F,8,9,Study,8,8,,Study/JOL,"Study Phase2",8001,,,-1,-1,,,,1
w10095909FS,x7sufcmmzw,Nick_Dissertation_EX1_EP,1,249,2021-10-28T04:26:56+00:00,8.1966540813446,2,versionA_stim.csv,READVersionB.csv,"Read Version B","Dissertation, read only version B",TAKE,SEIZE,Study1,B,29,30,Study,8,8,,Study/JOL,"Study Phase2",8001,,,-1,-1,,,,1
w10095909FS,x7sufcmmzw,Nick_Dissertation_EX1_EP,1,250,2021-10-28T04:27:05+00:00,8.2026410102844,2,versionA_stim.csv,READVersionB.csv,"Read Version B","Dissertation, read only version B",LAW,ATTORNEY,Study1,B,34,42,Study,8,8,,Study/JOL,"Study Phase2",8001,,,-1,-1,,,,1
w10095909FS,x7sufcmmzw,Nick_Dissertation_EX1_EP,1,251,2021-10-28T04:27:13+00:00,8.1957819461823,2,versionA_stim.csv,READVersionB.csv,"Read Version B","Dissertation, read only version B",LETTUCE,SALAD,Study1,S,59,45,Study,8,8,,Study/JOL,"Study Phase2",8001,,,-1,-1,,,,1
w10095909FS,x7sufcmmzw,Nick_Dissertation_EX1_EP,1,252,2021-10-28T04:27:21+00:00,8.1809830665588,2,versionA_stim.csv,READVersionB.csv,"Read Version B","Dissertation, read only version B",MEANING,DEFINITION,Study1,S,62,67,Study,8,8,,Study/JOL,"Study Phase2",8003,,,-1,-1,,,,1
w10095909FS,x7sufcmmzw,Nick_Dissertation_EX1_EP,1,253,2021-10-28T04:27:31+00:00,10.146378993988,2,versionA_stim.csv,READVersionB.csv,"Read Version B","Dissertation, read only version B",HAPPY,CAR,Study1,U,77,85,Study,8,8,,Study/JOL,"Study Phase2",8005,,,-1,-1,,,,1
w10095909FS,x7sufcmmzw,Nick_Dissertation_EX1_EP,1,254,2021-10-28T04:27:39+00:00,8.2913820743561,2,versionA_stim.csv,READVersionB.csv,"Read Version B","Dissertation, read only version B",HUNGER,FAMINE,Study1,B,40,60,Study,8,8,,Study/JOL,"Study Phase2",8004,,,-1,-1,,,,1
w10095909FS,x7sufcmmzw,Nick_Dissertation_EX1_EP,1,255,2021-10-28T04:27:48+00:00,8.199385881424,2,versionA_stim.csv,READVersionB.csv,"Read Version B","Dissertation, read only version B",GREAT,FANTASTIC,Study1,B,35,44,Study,8,8,,Study/JOL,"Study Phase2",8001,,,-1,-1,,,,1
w10095909FS,x7sufcmmzw,Nick_Dissertation_EX1_EP,1,256,2021-10-28T04:27:56+00:00,8.2593460083008,2,versionA_stim.csv,READVersionB.csv,"Read Version B","Dissertation, read only version B",MATH,DIVISION,Study1,B,33,16,Study,8,8,,Study/JOL,"Study Phase2",8001,,,-1,-1,,,,1
w10095909FS,x7sufcmmzw,Nick_Dissertation_EX1_EP,1,257,2021-10-28T04:28:04+00:00,8.2010810375214,2,versionA_stim.csv,READVersionB.csv,"Read Version B","Dissertation, read only version B",KING,VASE,Study1,U,85,80,Study,8,8,,Study/JOL,"Study Phase2",8005,,,-1,-1,,,,1
w10095909FS,x7sufcmmzw,Nick_Dissertation_EX1_EP,1,258,2021-10-28T04:28:12+00:00,8.207151889801,2,versionA_stim.csv,READVersionB.csv,"Read Version B","Dissertation, read only version B",STRONG,ACCIDENT,Study1,U,80,63,Study,8,8,,Study/JOL,"Study Phase2",8003,,,-1,-1,,,,1
w10095909FS,x7sufcmmzw,Nick_Dissertation_EX1_EP,1,259,2021-10-28T04:28:20+00:00,8.2024340629578,2,versionA_stim.csv,READVersionB.csv,"Read Version B","Dissertation, read only version B",CASH,WOULD,Study1,U,83,53,Study,8,8,,Study/JOL,"Study Phase2",8002,,,-1,-1,,,,1
w10095909FS,x7sufcmmzw,Nick_Dissertation_EX1_EP,1,260,2021-10-28T04:28:29+00:00,8.1941649913788,2,versionA_stim.csv,READVersionB.csv,"Read Version B","Dissertation, read only version B",CLOTHES,ATTIRE,Study1,B,43,25,Study,8,8,,Study/JOL,"Study Phase2",8002,,,-1,-1,,,,1
w10095909FS,x7sufcmmzw,Nick_Dissertation_EX1_EP,1,261,2021-10-28T04:28:37+00:00,8.2233610153198,2,versionA_stim.csv,READVersionB.csv,"Read Version B","Dissertation, read only version B",TUNA,FISH,Study1,F,25,10,Study,8,8,,Study/JOL,"Study Phase2",8002,,,-1,-1,,,,1
w10095909FS,x7sufcmmzw,Nick_Dissertation_EX1_EP,1,262,2021-10-28T04:28:45+00:00,8.1983408927917,2,versionA_stim.csv,READVersionB.csv,"Read Version B","Dissertation, read only version B",TRIAL,JURY,Study1,S,50,17,Study,8,8,,Study/JOL,"Study Phase2",8005,,,-1,-1,,,,1
w10095909FS,x7sufcmmzw,Nick_Dissertation_EX1_EP,1,263,2021-10-28T04:28:53+00:00,8.2135391235352,2,versionA_stim.csv,READVersionB.csv,"Read Version B","Dissertation, read only version B",ARCHITECTURE,DESIGN,Study1,S,51,75,Study,8,8,,Study/JOL,"Study Phase2",8001,,,-1,-1,,,,1
w10095909FS,x7sufcmmzw,Nick_Dissertation_EX1_EP,1,264,2021-10-28T04:29:08+00:00,15.011208057404,2,versionA_stim.csv,READVersionB.csv,"Read Version B","Dissertation, read only version B",THING,STUFF,BUFFER2,Buffer,90,90,Study,8,8,,Study/JOL,BUFFER4,8007,,,-1,-1,,,,1
w10095909FS,x7sufcmmzw,Nick_Dissertation_EX1_EP,1,265,2021-10-28T04:29:16+00:00,8.1977949142456,2,versionA_stim.csv,READVersionB.csv,"Read Version B","Dissertation, read only version B",SHERRIF,POLICE,BUFFER2,Buffer,87,91,Study,8,8,,Study/JOL,BUFFER4,8003,,,-1,-1,,,,1
w10095909FS,x7sufcmmzw,Nick_Dissertation_EX1_EP,1,266,2021-10-28T04:29:25+00:00,8.2166140079498,2,versionA_stim.csv,READVersionB.csv,"Read Version B","Dissertation, read only version B",MOON,SPACE,BUFFER2,Buffer,89,87,Study,8,8,,Study/JOL,BUFFER4,8002,,,-1,-1,,,,1
w10095909FS,x7sufcmmzw,Nick_Dissertation_EX1_EP,1,267,2021-10-28T04:29:33+00:00,8.218169927597,2,versionA_stim.csv,READVersionB.csv,"Read Version B","Dissertation, read only version B",GEESE,GOOSE,BUFFER2,Buffer,86,89,Study,8,8,,Study/JOL,BUFFER4,8001,,,-1,-1,,,,1
w10095909FS,x7sufcmmzw,Nick_Dissertation_EX1_EP,1,268,2021-10-28T04:29:41+00:00,8.2153291702271,2,versionA_stim.csv,READVersionB.csv,"Read Version B","Dissertation, read only version B",MALT,CHOCOLATE,BUFFER2,Buffer,88,88,Study,8,8,,Study/JOL,BUFFER4,8001,,,-1,-1,,,,1
w10095909FS,x7sufcmmzw,Nick_Dissertation_EX1_EP,1,269,2021-10-28T04:29:57+00:00,16.198385953903,2,versionA_stim.csv,READVersionB.csv,"Read Version B","Dissertation, read only version B",,,,,,0,Instruct,User,-,"You have completed this section. Please press Enter.",Filler_Instruction,Instruct5,15997,,,-1,-1,,,,1
w10095909FS,x7sufcmmzw,Nick_Dissertation_EX1_EP,1,270,2021-10-28T04:31:58+00:00,120.32192802429,2,versionA_stim.csv,READVersionB.csv,"Read Version B","Dissertation, read only version B",,,,,,0,FreeRecall,120,120,"Please list the 50 US states in reverse alphabetical order (z - a). The task will automatically advance to the next screen after two minutes.",,Filler2,120002,"Wake up to reality. Nothing ever goes as planned in this accursed world. The longer you live, the more you realize that only pain, suffering, and futility exist in this reality. Listen to me... In this world, wherever there is light, there are always shadows.",0,14249,118412,0,0,,1
w10095909FS,x7sufcmmzw,Nick_Dissertation_EX1_EP,1,271,2021-10-28T04:32:17+00:00,18.919703960419,2,versionA_stim.csv,READVersionB.csv,"Read Version B","Dissertation, read only version B",,,,,,0,Instruct,-,10,"You will now be presented with the first word from each of the previously studied item pairs. Please type the missing word. If you do not know the word, you may guess or press Enter to skip forward to the next pair.",,Instruct6,13306,,,-1,-1,,,,1
w10095909FS,x7sufcmmzw,Nick_Dissertation_EX1_EP,1,272,2021-10-28T04:32:22+00:00,4.9562890529633,2,versionA_stim.csv,READVersionB.csv,"Read Version B","Dissertation, read only version B",LOCATION,SITE,Study1,S,48,83,Test,User,-,,Recall,Recall2,4653,site,100,4109,4443,1,1,,1
w10095909FS,x7sufcmmzw,Nick_Dissertation_EX1_EP,1,273,2021-10-28T04:32:33+00:00,11.149029016495,2,versionA_stim.csv,READVersionB.csv,"Read Version B","Dissertation, read only version B",CHISEL,HAMMER,Study1,F,9,21,Test,User,-,,Recall,Recall2,10969,statue,33.333333333333,10127,10798,0,0,,1
w10095909FS,x7sufcmmzw,Nick_Dissertation_EX1_EP,1,274,2021-10-28T04:32:40+00:00,7.7007219791412,2,versionA_stim.csv,READVersionB.csv,"Read Version B","Dissertation, read only version B",SMELL,STENCH,Study1,B,42,64,Test,User,-,,Recall,Recall2,7422,sour,20,6850,7168,0,0,,1
w10095909FS,x7sufcmmzw,Nick_Dissertation_EX1_EP,1,275,2021-10-28T04:32:47+00:00,6.1924040317535,2,versionA_stim.csv,READVersionB.csv,"Read Version B","Dissertation, read only version B",PAST,FUTURE,Study1,S,61,86,Test,User,-,,Recall,Recall2,6003,future,100,1071,3120,1,1,,1
w10095909FS,x7sufcmmzw,Nick_Dissertation_EX1_EP,1,276,2021-10-28T04:32:56+00:00,9.4955258369446,2,versionA_stim.csv,READVersionB.csv,"Read Version B","Dissertation, read only version B",DISCOVER,FLOOR,Study1,U,71,73,Test,User,-,,Recall,Recall2,9211,location,46.153846153846,5814,8931,0,0,,1
w10095909FS,x7sufcmmzw,Nick_Dissertation_EX1_EP,1,277,2021-10-28T04:32:58+00:00,2.4218051433563,2,versionA_stim.csv,READVersionB.csv,"Read Version B","Dissertation, read only version B",DIETARY,SACKING,Study1,U,67,15,Test,User,-,,Recall,Recall2,2232,fiber,16.666666666667,1145,1640,0,0,,1
w10095909FS,x7sufcmmzw,Nick_Dissertation_EX1_EP,1,278,2021-10-28T04:33:07+00:00,8.9166820049286,2,versionA_stim.csv,READVersionB.csv,"Read Version B","Dissertation, read only version B",WAY,OUT,Study1,F,16,19,Test,User,-,,Recall,Recall2,8735,out,100,1823,2173,1,1,,1
w10095909FS,x7sufcmmzw,Nick_Dissertation_EX1_EP,1,279,2021-10-28T04:33:14+00:00,6.2165398597717,2,versionA_stim.csv,READVersionB.csv,"Read Version B","Dissertation, read only version B",TAKE,SEIZE,Study1,B,29,30,Test,User,-,,Recall,Recall2,6018,all,0,5527,5793,0,0,,1
w10095909FS,x7sufcmmzw,Nick_Dissertation_EX1_EP,1,280,2021-10-28T04:33:18+00:00,4.7844030857086,2,versionA_stim.csv,READVersionB.csv,"Read Version B","Dissertation, read only version B",BLOW,WIND,Study1,S,55,40,Test,User,-,,Recall,Recall2,4565,wind,100,1526,4121,1,1,,1
w10095909FS,x7sufcmmzw,Nick_Dissertation_EX1_EP,1,281,2021-10-28T04:33:23+00:00,4.4434928894043,2,versionA_stim.csv,READVersionB.csv,"Read Version B","Dissertation, read only version B",GEOLOGY,ROCK,Study1,F,19,22,Test,User,-,,Recall,Recall2,4271,site,0,1980,2406,0,0,,1
w10095909FS,x7sufcmmzw,Nick_Dissertation_EX1_EP,1,282,2021-10-28T04:33:29+00:00,6.3797650337219,2,versionA_stim.csv,READVersionB.csv,"Read Version B","Dissertation, read only version B",HUNGER,FAMINE,Study1,B,40,60,Test,User,-,,Recall,Recall2,6194,food,20,1718,2153,0,0,,1
w10095909FS,x7sufcmmzw,Nick_Dissertation_EX1_EP,1,283,2021-10-28T04:33:33+00:00,4.0440530776978,2,versionA_stim.csv,READVersionB.csv,"Read Version B","Dissertation, read only version B",ALLOW,TUCK,Study1,U,78,7,Test,User,-,,Recall,Recall2,3776,cancel,20,2946,3514,0,0,,1
w10095909FS,x7sufcmmzw,Nick_Dissertation_EX1_EP,1,284,2021-10-28T04:33:39+00:00,5.4399380683899,2,versionA_stim.csv,READVersionB.csv,"Read Version B","Dissertation, read only version B",HAPPY,CAR,Study1,U,77,85,Test,User,-,,Recall,Recall2,5227,sad,33.333333333333,4373,4726,0,0,,1
w10095909FS,x7sufcmmzw,Nick_Dissertation_EX1_EP,1,285,2021-10-28T04:33:45+00:00,6.7954239845276,2,versionA_stim.csv,READVersionB.csv,"Read Version B","Dissertation, read only version B",SHOE,FOOT,Study1,S,60,84,Test,User,-,,Recall,Recall2,2906,foot,100,2114,2585,1,1,,1
w10095909FS,x7sufcmmzw,Nick_Dissertation_EX1_EP,1,286,2021-10-28T04:33:52+00:00,6.6404099464417,2,versionA_stim.csv,READVersionB.csv,"Read Version B","Dissertation, read only version B",FULL,ENOUGH,Study1,B,26,72,Test,User,-,,Recall,Recall2,6390,enough,100,4730,5995,1,1,,1
w10095909FS,x7sufcmmzw,Nick_Dissertation_EX1_EP,1,287,2021-10-28T04:33:59+00:00,6.4977159500122,2,versionA_stim.csv,READVersionB.csv,"Read Version B","Dissertation, read only version B",CLOTHES,ATTIRE,Study1,B,43,25,Test,User,-,,Recall,Recall2,6235,body,0,4635,5807,0,0,,1
w10095909FS,x7sufcmmzw,Nick_Dissertation_EX1_EP,1,288,2021-10-28T04:34:06+00:00,7.3321480751038,2,versionA_stim.csv,READVersionB.csv,"Read Version B","Dissertation, read only version B",MEANING,DEFINITION,Study1,S,62,67,Test,User,-,,Recall,Recall2,7124,lost,14.285714285714,5849,6981,0,0,,1
w10095909FS,x7sufcmmzw,Nick_Dissertation_EX1_EP,1,289,2021-10-28T04:34:13+00:00,6.9672749042511,2,versionA_stim.csv,READVersionB.csv,"Read Version B","Dissertation, read only version B",MATH,DIVISION,Study1,B,33,16,Test,User,-,,Recall,Recall2,6782,gay,0,6147,6403,0,0,,1
w10095909FS,x7sufcmmzw,Nick_Dissertation_EX1_EP,1,290,2021-10-28T04:34:17+00:00,4.3801889419556,2,versionA_stim.csv,READVersionB.csv,"Read Version B","Dissertation, read only version B",HIDE,SICK,Study1,U,84,81,Test,User,-,,Recall,Recall2,4195,seek,50,1838,2390,0,0,,1
w10095909FS,x7sufcmmzw,Nick_Dissertation_EX1_EP,1,291,2021-10-28T04:34:28+00:00,10.272966146469,2,versionA_stim.csv,READVersionB.csv,"Read Version B","Dissertation, read only version B",ART,LION,Study1,U,79,51,Test,User,-,,Recall,Recall2,10065,scam,0,7270,9793,0,0,,1
w10095909FS,x7sufcmmzw,Nick_Dissertation_EX1_EP,1,292,2021-10-28T04:34:33+00:00,5.6908829212189,2,versionA_stim.csv,READVersionB.csv,"Read Version B","Dissertation, read only version B",DUMP,WASTE,Study1,S,49,12,Test,User,-,,Recall,Recall2,5490,woman,40,4469,4967,0,0,,1
w10095909FS,x7sufcmmzw,Nick_Dissertation_EX1_EP,1,293,2021-10-28T04:34:40+00:00,6.4395470619202,2,versionA_stim.csv,READVersionB.csv,"Read Version B","Dissertation, read only version B",BITTER,COLD,Study1,F,12,26,Test,User,-,,Recall,Recall2,6267,taste,0,1434,2046,0,0,,1
w10095909FS,x7sufcmmzw,Nick_Dissertation_EX1_EP,1,294,2021-10-28T04:34:55+00:00,14.864304065704,2,versionA_stim.csv,READVersionB.csv,"Read Version B","Dissertation, read only version B",BABY,CHILD,Study1,S,64,8,Test,User,-,,Recall,Recall2,7987,child,100,2716,3215,1,1,,1
w10095909FS,x7sufcmmzw,Nick_Dissertation_EX1_EP,1,295,2021-10-28T04:35:10+00:00,15.147745847702,2,versionA_stim.csv,READVersionB.csv,"Read Version B","Dissertation, read only version B",HEIGHT,GROWTH,Study1,B,30,58,Test,User,-,,Recall,Recall2,11629,"9 10",0,8960,10761,0,0,,1
w10095909FS,x7sufcmmzw,Nick_Dissertation_EX1_EP,1,296,2021-10-28T04:35:20+00:00,10.400795936584,2,versionA_stim.csv,READVersionB.csv,"Read Version B","Dissertation, read only version B",DEBATE,SIGHT,Study1,U,73,62,Test,User,-,,Recall,Recall2,10191,argument,30.769230769231,5296,9957,0,0,,1
w10095909FS,x7sufcmmzw,Nick_Dissertation_EX1_EP,1,297,2021-10-28T04:35:24+00:00,3.7561922073364,2,versionA_stim.csv,READVersionB.csv,"Read Version B","Dissertation, read only version B",ARTERY,BRONZE,Study1,U,74,76,Test,User,-,,Recall,Recall2,3504,bronze,100,1424,3036,1,1,,1
w10095909FS,x7sufcmmzw,Nick_Dissertation_EX1_EP,1,298,2021-10-28T04:35:29+00:00,5.3272068500519,2,versionA_stim.csv,READVersionB.csv,"Read Version B","Dissertation, read only version B",BALL,RACKET,Study1,B,38,79,Test,User,-,,Recall,Recall2,5150,sack,60,2272,2864,0,0,,1
w10095909FS,x7sufcmmzw,Nick_Dissertation_EX1_EP,1,299,2021-10-28T04:35:34+00:00,5.1917490959167,2,versionA_stim.csv,READVersionB.csv,"Read Version B","Dissertation, read only version B",FIX,HAND,Study1,U,75,37,Test,User,-,,Recall,Recall2,4997,repair,20,1260,2214,0,0,,1
w10095909FS,x7sufcmmzw,Nick_Dissertation_EX1_EP,1,300,2021-10-28T04:35:42+00:00,8.0823638439178,2,versionA_stim.csv,READVersionB.csv,"Read Version B","Dissertation, read only version B",LIFT,WOMAN,Study1,U,69,14,Test,User,-,,Recall,Recall2,7101,,0,-1,-1,0,0,,1
w10095909FS,x7sufcmmzw,Nick_Dissertation_EX1_EP,1,301,2021-10-28T04:35:46+00:00,3.4973621368408,2,versionA_stim.csv,READVersionB.csv,"Read Version B","Dissertation, read only version B",REVOLUTION,WAR,Study1,F,20,57,Test,User,-,,Recall,Recall2,3296,,0,-1,-1,0,0,,1
w10095909FS,x7sufcmmzw,Nick_Dissertation_EX1_EP,1,302,2021-10-28T04:35:50+00:00,3.5834550857544,2,versionA_stim.csv,READVersionB.csv,"Read Version B","Dissertation, read only version B",POP,SODA,Study1,S,56,27,Test,User,-,,Recall,Recall2,3393,smoke,44.444444444444,1443,3181,0,0,,1
w10095909FS,x7sufcmmzw,Nick_Dissertation_EX1_EP,1,303,2021-10-28T04:35:56+00:00,6.2100048065186,2,versionA_stim.csv,READVersionB.csv,"Read Version B","Dissertation, read only version B",KING,VASE,Study1,U,85,80,Test,User,-,,Recall,Recall2,6000,von,28.571428571429,1630,2020,0,0,,1
w10095909FS,x7sufcmmzw,Nick_Dissertation_EX1_EP,1,304,2021-10-28T04:35:59+00:00,3.490522146225,2,versionA_stim.csv,READVersionB.csv,"Read Version B","Dissertation, read only version B",PARK,HUNGRY,Study1,U,68,34,Test,User,-,,Recall,Recall2,3301,car,22.222222222222,2587,2910,0,0,,1
w10095909FS,x7sufcmmzw,Nick_Dissertation_EX1_EP,1,305,2021-10-28T04:36:14+00:00,14.732508897781,2,versionA_stim.csv,READVersionB.csv,"Read Version B","Dissertation, read only version B",DRINK,SIP,Study1,B,27,50,Test,User,-,,Recall,Recall2,7120,drunk,0,5811,6811,0,0,,1
w10095909FS,x7sufcmmzw,Nick_Dissertation_EX1_EP,1,306,2021-10-28T04:36:24+00:00,9.5167529582977,2,versionA_stim.csv,READVersionB.csv,"Read Version B","Dissertation, read only version B",DISCUSSION,TALK,Study1,F,21,78,Test,User,-,,Recall,Recall2,9298,conclusion,14.285714285714,7478,9060,0,0,,1
w10095909FS,x7sufcmmzw,Nick_Dissertation_EX1_EP,1,307,2021-10-28T04:36:30+00:00,6.3544039726257,2,versionA_stim.csv,READVersionB.csv,"Read Version B","Dissertation, read only version B",SLEEP,DROWSY,Study1,B,41,32,Test,User,-,,Recall,Recall2,6096,bed,22.222222222222,2723,3133,0,0,,1
w10095909FS,x7sufcmmzw,Nick_Dissertation_EX1_EP,1,308,2021-10-28T04:36:34+00:00,3.7525591850281,2,versionA_stim.csv,READVersionB.csv,"Read Version B","Dissertation, read only version B",FIRE,BLAZE,Study1,B,45,48,Test,User,-,,Recall,Recall2,3563,fighter,16.666666666667,1687,2830,0,0,,1
w10095909FS,x7sufcmmzw,Nick_Dissertation_EX1_EP,1,309,2021-10-28T04:36:41+00:00,7.4169988632202,2,versionA_stim.csv,READVersionB.csv,"Read Version B","Dissertation, read only version B",BATHROOM,TOILET,Study1,S,58,24,Test,User,-,,Recall,Recall2,7237,"poop ",20,4892,5791,0,0,,1
w10095909FS,x7sufcmmzw,Nick_Dissertation_EX1_EP,1,310,2021-10-28T04:36:44+00:00,3.1297430992126,2,versionA_stim.csv,READVersionB.csv,"Read Version B","Dissertation, read only version B",HONEY,BEE,Study1,S,63,65,Test,User,-,,Recall,Recall2,2937,bee,100,2296,2643,1,1,,1
w10095909FS,x7sufcmmzw,Nick_Dissertation_EX1_EP,1,311,2021-10-28T04:36:49+00:00,4.9736790657043,2,versionA_stim.csv,READVersionB.csv,"Read Version B","Dissertation, read only version B",MACHINE,POSITION,Study1,U,76,71,Test,User,-,,Recall,Recall2,4798,gun,18.181818181818,1568,1870,0,0,,1
w10095909FS,x7sufcmmzw,Nick_Dissertation_EX1_EP,1,312,2021-10-28T04:36:51+00:00,1.951189994812,2,versionA_stim.csv,READVersionB.csv,"Read Version B","Dissertation, read only version B",HORNET,STING,Study1,F,11,11,Test,User,-,,Recall,Recall2,1774,sting,100,1122,1605,1,1,,1
w10095909FS,x7sufcmmzw,Nick_Dissertation_EX1_EP,1,313,2021-10-28T04:36:54+00:00,2.7606167793274,2,versionA_stim.csv,READVersionB.csv,"Read Version B","Dissertation, read only version B",HERD,COW,Study1,F,22,59,Test,User,-,,Recall,Recall2,2582,immunity,0,1264,2326,0,0,,1
w10095909FS,x7sufcmmzw,Nick_Dissertation_EX1_EP,1,314,2021-10-28T04:36:56+00:00,2.3621761798859,2,versionA_stim.csv,READVersionB.csv,"Read Version B","Dissertation, read only version B",ROOT,PLANT,Study1,F,13,23,Test,User,-,,Recall,Recall2,2194,cause,20,1475,2037,0,0,,1
w10095909FS,x7sufcmmzw,Nick_Dissertation_EX1_EP,1,315,2021-10-28T04:36:58+00:00,1.662535905838,2,versionA_stim.csv,READVersionB.csv,"Read Version B","Dissertation, read only version B",TUNA,FISH,Study1,F,25,10,Test,User,-,,Recall,Recall2,1480,fish,100,970,1266,1,1,,1
w10095909FS,x7sufcmmzw,Nick_Dissertation_EX1_EP,1,316,2021-10-28T04:37:02+00:00,3.8709709644318,2,versionA_stim.csv,READVersionB.csv,"Read Version B","Dissertation, read only version B",HYGIENE,CLEAN,Study1,F,17,35,Test,User,-,,Recall,Recall2,3541,oral,22.222222222222,2933,3312,0,0,,1
w10095909FS,x7sufcmmzw,Nick_Dissertation_EX1_EP,1,317,2021-10-28T04:37:04+00:00,2.2883160114288,2,versionA_stim.csv,READVersionB.csv,"Read Version B","Dissertation, read only version B",SENTENCE,WORD,Study1,B,31,52,Test,User,-,,Recall,Recall2,2108,structure,15.384615384615,1009,1990,0,0,,1
w10095909FS,x7sufcmmzw,Nick_Dissertation_EX1_EP,1,318,2021-10-28T04:37:31+00:00,26.691760063171,2,versionA_stim.csv,READVersionB.csv,"Read Version B","Dissertation, read only version B",SOON,BELT,Study1,U,70,41,Test,User,-,,Recall,Recall2,26505,"my child",16.666666666667,24664,26344,0,0,,1
w10095909FS,x7sufcmmzw,Nick_Dissertation_EX1_EP,1,319,2021-10-28T04:37:33+00:00,2.1528210639954,2,versionA_stim.csv,READVersionB.csv,"Read Version B","Dissertation, read only version B",SWAN,BIRD,Study1,F,14,38,Test,User,-,,Recall,Recall2,1889,goose,0,1299,1750,0,0,,1
w10095909FS,x7sufcmmzw,Nick_Dissertation_EX1_EP,1,320,2021-10-28T04:37:35+00:00,1.8007159233093,2,versionA_stim.csv,READVersionB.csv,"Read Version B","Dissertation, read only version B",DARK,CAVE,Study1,B,28,82,Test,User,-,,Recall,Recall2,1634,light,0,1073,1483,0,0,,1
w10095909FS,x7sufcmmzw,Nick_Dissertation_EX1_EP,1,321,2021-10-28T04:37:39+00:00,4.3829259872437,2,versionA_stim.csv,READVersionB.csv,"Read Version B","Dissertation, read only version B",DUE,ASSIGNMENT,Study1,S,46,47,Test,User,-,,Recall,Recall2,4194,assignment,100,1577,3493,1,1,,1
w10095909FS,x7sufcmmzw,Nick_Dissertation_EX1_EP,1,322,2021-10-28T04:37:41+00:00,1.8636140823364,2,versionA_stim.csv,READVersionB.csv,"Read Version B","Dissertation, read only version B",CASH,WOULD,Study1,U,83,53,Test,User,-,,Recall,Recall2,1681,money,20,1086,1486,0,0,,1
w10095909FS,x7sufcmmzw,Nick_Dissertation_EX1_EP,1,323,2021-10-28T04:37:42+00:00,1.5580978393555,2,versionA_stim.csv,READVersionB.csv,"Read Version B","Dissertation, read only version B",CREDIT,CARD,Study1,F,23,55,Test,User,-,,Recall,Recall2,1374,card,100,761,1220,1,1,,1
w10095909FS,x7sufcmmzw,Nick_Dissertation_EX1_EP,1,324,2021-10-28T04:37:49+00:00,6.0810081958771,2,versionA_stim.csv,READVersionB.csv,"Read Version B","Dissertation, read only version B",PUSHER,CLUTTER,Study1,U,66,18,Test,User,-,,Recall,Recall2,5901,pushee,30.769230769231,3077,5389,0,0,,1
w10095909FS,x7sufcmmzw,Nick_Dissertation_EX1_EP,1,325,2021-10-28T04:37:53+00:00,4.2485098838806,2,versionA_stim.csv,READVersionB.csv,"Read Version B","Dissertation, read only version B",BUG,WASP,Study1,B,32,29,Test,User,-,,Recall,Recall2,4067,bite,0,1272,1736,0,0,,1
w10095909FS,x7sufcmmzw,Nick_Dissertation_EX1_EP,1,326,2021-10-28T04:37:55+00:00,2.1288719177246,2,versionA_stim.csv,READVersionB.csv,"Read Version B","Dissertation, read only version B",BEGIN,END,Study1,S,54,61,Test,User,-,,Recall,Recall2,1945,end,100,1550,1765,1,1,,1
w10095909FS,x7sufcmmzw,Nick_Dissertation_EX1_EP,1,327,2021-10-28T04:38:04+00:00,9.0683610439301,2,versionA_stim.csv,READVersionB.csv,"Read Version B","Dissertation, read only version B",STRONG,ACCIDENT,Study1,U,80,63,Test,User,-,,Recall,Recall2,8900,man,36.363636363636,8516,8700,0,0,,1
w10095909FS,x7sufcmmzw,Nick_Dissertation_EX1_EP,1,328,2021-10-28T04:38:06+00:00,2.1093821525574,2,versionA_stim.csv,READVersionB.csv,"Read Version B","Dissertation, read only version B",WAGE,MONEY,Study1,F,8,9,Test,User,-,,Recall,Recall2,1912,cut,0,1541,1781,0,0,,1
w10095909FS,x7sufcmmzw,Nick_Dissertation_EX1_EP,1,329,2021-10-28T04:38:10+00:00,3.6825568675995,2,versionA_stim.csv,READVersionB.csv,"Read Version B","Dissertation, read only version B",WORK,CHORE,Study1,B,39,66,Test,User,-,,Recall,Recall2,3499,hard,44.444444444444,2362,2846,0,0,,1
w10095909FS,x7sufcmmzw,Nick_Dissertation_EX1_EP,1,330,2021-10-28T04:38:18+00:00,8.1273560523987,2,versionA_stim.csv,READVersionB.csv,"Read Version B","Dissertation, read only version B",KEY,LATCH,Study1,B,36,70,Test,User,-,,Recall,Recall2,7939,door,0,7375,7790,0,0,,1
w10095909FS,x7sufcmmzw,Nick_Dissertation_EX1_EP,1,331,2021-10-28T04:38:23+00:00,4.6196329593658,2,versionA_stim.csv,READVersionB.csv,"Read Version B","Dissertation, read only version B",KIDNEY,LIVER,Study1,S,53,36,Test,User,-,,Recall,Recall2,4425,failure,33.333333333333,1862,4197,0,0,,1
w10095909FS,x7sufcmmzw,Nick_Dissertation_EX1_EP,1,332,2021-10-28T04:38:27+00:00,4.455600976944,2,versionA_stim.csv,READVersionB.csv,"Read Version B","Dissertation, read only version B",EDITOR,NEWS,Study1,F,10,31,Test,User,-,,Recall,Recall2,4258,,0,-1,-1,0,0,,1
w10095909FS,x7sufcmmzw,Nick_Dissertation_EX1_EP,1,333,2021-10-28T04:38:31+00:00,4.1578550338745,2,versionA_stim.csv,READVersionB.csv,"Read Version B","Dissertation, read only version B",HOT,CHILI,Study1,B,37,33,Test,User,-,,Recall,Recall2,3989,chili,100,1734,2361,1,1,,1
w10095909FS,x7sufcmmzw,Nick_Dissertation_EX1_EP,1,334,2021-10-28T04:38:38+00:00,6.7650220394135,2,versionA_stim.csv,READVersionB.csv,"Read Version B","Dissertation, read only version B",LETTUCE,SALAD,Study1,S,59,45,Test,User,-,,Recall,Recall2,6588,"nasty bozo",13.333333333333,4048,6055,0,0,,1
w10095909FS,x7sufcmmzw,Nick_Dissertation_EX1_EP,1,335,2021-10-28T04:38:41+00:00,2.9400100708008,2,versionA_stim.csv,READVersionB.csv,"Read Version B","Dissertation, read only version B",TRIAL,JURY,Study1,S,50,17,Test,User,-,,Recall,Recall2,2337,error,22.222222222222,1100,1708,0,0,,1
w10095909FS,x7sufcmmzw,Nick_Dissertation_EX1_EP,1,336,2021-10-28T04:38:43+00:00,2.2362258434296,2,versionA_stim.csv,READVersionB.csv,"Read Version B","Dissertation, read only version B",GRILL,BAR,Study1,S,52,20,Test,User,-,,Recall,Recall2,2053,steak,25,1233,1822,0,0,,1
w10095909FS,x7sufcmmzw,Nick_Dissertation_EX1_EP,1,337,2021-10-28T04:38:46+00:00,3.1448979377747,2,versionA_stim.csv,READVersionB.csv,"Read Version B","Dissertation, read only version B",DEATH,BUSINESS,Study1,U,72,49,Test,User,-,,Recall,Recall2,2958,life,33.333333333333,1549,1990,0,0,,1
w10095909FS,x7sufcmmzw,Nick_Dissertation_EX1_EP,1,338,2021-10-28T04:38:51+00:00,4.3789000511169,2,versionA_stim.csv,READVersionB.csv,"Read Version B","Dissertation, read only version B",NUMBER,AMOUNT,Study1,S,47,56,Test,User,-,,Recall,Recall2,4189,cannon,33.333333333333,2378,3897,0,0,,1
w10095909FS,x7sufcmmzw,Nick_Dissertation_EX1_EP,1,339,2021-10-28T04:39:02+00:00,11.506900072098,2,versionA_stim.csv,READVersionB.csv,"Read Version B","Dissertation, read only version B",LAW,ATTORNEY,Study1,B,34,42,Test,User,-,,Recall,Recall2,11324,excuse,14.285714285714,9751,11045,0,0,,1
w10095909FS,x7sufcmmzw,Nick_Dissertation_EX1_EP,1,340,2021-10-28T04:39:08+00:00,6.0780758857727,2,versionA_stim.csv,READVersionB.csv,"Read Version B","Dissertation, read only version B",DIGESTION,STOMACH,Study1,F,7,77,Test,User,-,,Recall,Recall2,5803,stomach,100,4484,5374,1,1,,1
w10095909FS,x7sufcmmzw,Nick_Dissertation_EX1_EP,1,341,2021-10-28T04:39:12+00:00,3.5658600330353,2,versionA_stim.csv,READVersionB.csv,"Read Version B","Dissertation, read only version B",CIRCLE,ROUND,Study1,S,65,74,Test,User,-,,Recall,Recall2,3392,round,100,2392,3014,1,1,,1
w10095909FS,x7sufcmmzw,Nick_Dissertation_EX1_EP,1,342,2021-10-28T04:39:21+00:00,9.1276671886444,2,versionA_stim.csv,READVersionB.csv,"Read Version B","Dissertation, read only version B",GREAT,FANTASTIC,Study1,B,35,44,Test,User,-,,Recall,Recall2,8946,man,33.333333333333,8555,8758,0,0,,1
w10095909FS,x7sufcmmzw,Nick_Dissertation_EX1_EP,1,343,2021-10-28T04:39:26+00:00,5.3672888278961,2,versionA_stim.csv,READVersionB.csv,"Read Version B","Dissertation, read only version B",BRIDGE,WATER,Study1,F,18,46,Test,User,-,,Recall,Recall2,5107,road,22.222222222222,1318,4969,0,0,,1
w10095909FS,x7sufcmmzw,Nick_Dissertation_EX1_EP,1,344,2021-10-28T04:39:29+00:00,3.2242331504822,2,versionA_stim.csv,READVersionB.csv,"Read Version B","Dissertation, read only version B",PLANE,PILOT,Study1,B,44,68,Test,User,-,,Recall,Recall2,3018,fly,25,1970,2237,0,0,,1
w10095909FS,x7sufcmmzw,Nick_Dissertation_EX1_EP,1,345,2021-10-28T04:39:38+00:00,8.8586688041687,2,versionA_stim.csv,READVersionB.csv,"Read Version B","Dissertation, read only version B",ORCHID,FLOWER,Study1,F,24,43,Test,User,-,,Recall,Recall2,8673,garden,16.666666666667,7760,8491,0,0,,1
w10095909FS,x7sufcmmzw,Nick_Dissertation_EX1_EP,1,346,2021-10-28T04:39:42+00:00,3.2992491722107,2,versionA_stim.csv,READVersionB.csv,"Read Version B","Dissertation, read only version B",VALLEY,ADD,Study1,U,82,28,Test,User,-,,Recall,Recall2,3111,"of death",18.181818181818,1314,2591,0,0,,1
w10095909FS,x7sufcmmzw,Nick_Dissertation_EX1_EP,1,347,2021-10-28T04:39:45+00:00,2.9876518249512,2,versionA_stim.csv,READVersionB.csv,"Read Version B","Dissertation, read only version B",WINE,CHEESE,Study1,S,57,39,Test,User,-,,Recall,Recall2,2802,red,22.222222222222,1787,2101,0,0,,1
w10095909FS,x7sufcmmzw,Nick_Dissertation_EX1_EP,1,348,2021-10-28T04:39:47+00:00,2.4060611724854,2,versionA_stim.csv,READVersionB.csv,"Read Version B","Dissertation, read only version B",PAW,DOG,Study1,F,15,54,Test,User,-,,Recall,Recall2,2234,print,0,1354,1871,0,0,,1
w10095909FS,x7sufcmmzw,Nick_Dissertation_EX1_EP,1,349,2021-10-28T04:39:54+00:00,7.3748250007629,2,versionA_stim.csv,READVersionB.csv,"Read Version B","Dissertation, read only version B",ARCHITECTURE,DESIGN,Study1,S,51,75,Test,User,-,,Recall,Recall2,7171,geometry,14.285714285714,5125,7016,0,0,,1
w10095909FS,x7sufcmmzw,Nick_Dissertation_EX1_EP,1,350,2021-10-28T04:39:58+00:00,3.5678658485413,2,versionA_stim.csv,READVersionB.csv,"Read Version B","Dissertation, read only version B",SUGAR,RIDDLE,Study1,U,81,69,Test,User,-,,Recall,Recall2,3361,plantation,12.5,1790,3075,0,0,,1
w10095909FS,x7sufcmmzw,Nick_Dissertation_EX1_EP,1,351,2021-10-28T04:40:07+00:00,8.8772041797638,2,versionA_stim.csv,READVersionB.csv,"Read Version B","Dissertation, read only version B",DELINQUENT,BAD,Study1,F,6,13,Test,User,-,,Recall,Recall2,8686,"dudes named Tony",10.526315789474,5825,8303,0,0,,1
w10095909FS,x7sufcmmzw,Nick_Dissertation_EX1_EP,1,352,2021-10-28T04:40:08+00:00,1.302337884903,2,versionA_stim.csv,READVersionB.csv,"Read Version B","Dissertation, read only version B",,,,,,0,Instruct,User,-,"You have completed this section. Please press Enter.",,Instruct7,1103,,,-1,-1,,,,1
w10095909FS,x7sufcmmzw,Nick_Dissertation_EX1_EP,1,353,2021-10-28T04:40:10+00:00,2.0100800991058,2,versionA_stim.csv,READVersionB.csv,"Read Version B","Dissertation, read only version B",,,,,,0,Instruct,User,-,"The following screen will ask you a few questions abour your experience today. You must complete these questions to receive credit.",,Instruct8,1821,,,-1,-1,,,,1
