Username,ID,ExperimentName,Session,Trial,Date,TimeDif,"Condition Number","Stimuli File","Order File","Condition Description","Condition Notes",Stimuli*Cue,Stimuli*Answer,Stimuli*Shuffle,"Stimuli*Stimuli Notes",Stimuli*Value,Procedure*Item,"Procedure*Trial Type","Procedure*Max Time","Procedure*Min Time",Procedure*Text,"Procedure*Procedure Notes",Procedure*Shuffle,Response*RT,Response*Response,Response*Accuracy,Response*RTfirst,Response*RTlast,Response*strictAcc,Response*lenientAcc,Response*focus,Response*Focus
10005890KB,z7teer6f4s,Nick_Dissertation_EX1_EP,1,1,2021-11-29T18:48:37+00:00,6.8019080162048,4,versionC_stim.csv,READVersionD.csv,"Read Version D","Dissertation, read only version D",,,,,,0,Instruct,-,5,"In this section, you will be presented with a series of word pairs.",Initial_Instruct,Instruct1,6414,,,-1,-1,,,,1
10005890KB,z7teer6f4s,Nick_Dissertation_EX1_EP,1,2,2021-11-29T18:48:53+00:00,16.00221991539,4,versionC_stim.csv,READVersionD.csv,"Read Version D","Dissertation, read only version D",,,,,,0,Instruct,-,10,"Each word will be displayed on the computer screen for 8 seconds. The screen will automatically move to the next pair when time is up. Please study each pair. Your memory will be tested!",,Instruct15,15329,,,-1,-1,,,,1
10005890KB,z7teer6f4s,Nick_Dissertation_EX1_EP,1,3,2021-11-29T18:48:55+00:00,1.882138967514,4,versionC_stim.csv,READVersionD.csv,"Read Version D","Dissertation, read only version D",,,,,,0,Instruct,User,-,"You will now begin the study. Press Enter when you are ready to begin.",,Instruct16,1402,,,-1,-1,,,,1
10005890KB,z7teer6f4s,Nick_Dissertation_EX1_EP,1,4,2021-11-29T18:49:04+00:00,8.5217061042786,4,versionC_stim.csv,READVersionD.csv,"Read Version D","Dissertation, read only version D",POTATO,CARROT,BUFFER3,Buffer,91,92,Study,8,8,,Study/JOL,BUFFER,8004,,,-1,-1,,,,1
10005890KB,z7teer6f4s,Nick_Dissertation_EX1_EP,1,5,2021-11-29T18:49:12+00:00,8.5779950618744,4,versionC_stim.csv,READVersionD.csv,"Read Version D","Dissertation, read only version D",FISH,SHRIMP,BUFFER3,Buffer,93,93,Study,8,8,,Study/JOL,BUFFER,8002,,,-1,-1,,,,1
10005890KB,z7teer6f4s,Nick_Dissertation_EX1_EP,1,6,2021-11-29T18:49:21+00:00,8.4646890163422,4,versionC_stim.csv,READVersionD.csv,"Read Version D","Dissertation, read only version D",ADVENTURE,CAMP,BUFFER3,Buffer,95,95,Study,8,8,,Study/JOL,BUFFER,8001,,,-1,-1,,,,1
10005890KB,z7teer6f4s,Nick_Dissertation_EX1_EP,1,7,2021-11-29T18:49:29+00:00,8.4579939842224,4,versionC_stim.csv,READVersionD.csv,"Read Version D","Dissertation, read only version D",STRING,NOODLE,BUFFER3,Buffer,92,96,Study,8,8,,Study/JOL,BUFFER,8003,,,-1,-1,,,,1
10005890KB,z7teer6f4s,Nick_Dissertation_EX1_EP,1,8,2021-11-29T18:49:38+00:00,8.469340801239,4,versionC_stim.csv,READVersionD.csv,"Read Version D","Dissertation, read only version D",FROZEN,ICE,BUFFER3,Buffer,94,94,Study,8,8,,Study/JOL,BUFFER,8002,,,-1,-1,,,,1
10005890KB,z7teer6f4s,Nick_Dissertation_EX1_EP,1,9,2021-11-29T18:49:46+00:00,8.4691781997681,4,versionC_stim.csv,READVersionD.csv,"Read Version D","Dissertation, read only version D",COMMUNICATION,PHONE,Study2,S,149,123,Study,8,8,,Study/JOL,"Study Phase",8001,,,-1,-1,,,,1
10005890KB,z7teer6f4s,Nick_Dissertation_EX1_EP,1,10,2021-11-29T18:49:55+00:00,8.4291799068451,4,versionC_stim.csv,READVersionD.csv,"Read Version D","Dissertation, read only version D",LEAGUE,BASEBALL,Study2,F,131,132,Study,8,8,,Study/JOL,"Study Phase",8002,,,-1,-1,,,,1
10005890KB,z7teer6f4s,Nick_Dissertation_EX1_EP,1,11,2021-11-29T18:50:03+00:00,8.491847038269,4,versionC_stim.csv,READVersionD.csv,"Read Version D","Dissertation, read only version D",CLOTH,STRETCH,Study2,U,157,107,Study,8,8,,Study/JOL,"Study Phase",8002,,,-1,-1,,,,1
10005890KB,z7teer6f4s,Nick_Dissertation_EX1_EP,1,12,2021-11-29T18:50:12+00:00,8.4111368656158,4,versionC_stim.csv,READVersionD.csv,"Read Version D","Dissertation, read only version D",TEMPER,TANTRUM,Study2,S,154,149,Study,8,8,,Study/JOL,"Study Phase",8002,,,-1,-1,,,,1
10005890KB,z7teer6f4s,Nick_Dissertation_EX1_EP,1,13,2021-11-29T18:50:21+00:00,9.327385187149,4,versionC_stim.csv,READVersionD.csv,"Read Version D","Dissertation, read only version D",ABLE,CRACKLE,Study2,U,162,170,Study,8,8,,Study/JOL,"Study Phase",8008,,,-1,-1,,,,1
10005890KB,z7teer6f4s,Nick_Dissertation_EX1_EP,1,14,2021-11-29T18:50:29+00:00,8.4698770046234,4,versionC_stim.csv,READVersionD.csv,"Read Version D","Dissertation, read only version D",DOG,FURRY,Study2,B,102,160,Study,8,8,,Study/JOL,"Study Phase",8002,,,-1,-1,,,,1
10005890KB,z7teer6f4s,Nick_Dissertation_EX1_EP,1,15,2021-11-29T18:50:38+00:00,8.4093790054321,4,versionC_stim.csv,READVersionD.csv,"Read Version D","Dissertation, read only version D",END,ADJOURN,Study2,B,101,175,Study,8,8,,Study/JOL,"Study Phase",8002,,,-1,-1,,,,1
10005890KB,z7teer6f4s,Nick_Dissertation_EX1_EP,1,16,2021-11-29T18:50:46+00:00,8.4304327964783,4,versionC_stim.csv,READVersionD.csv,"Read Version D","Dissertation, read only version D",THIMBLE,THREAD,Study2,F,121,120,Study,8,8,,Study/JOL,"Study Phase",8001,,,-1,-1,,,,1
10005890KB,z7teer6f4s,Nick_Dissertation_EX1_EP,1,17,2021-11-29T18:50:55+00:00,8.4998610019684,4,versionC_stim.csv,READVersionD.csv,"Read Version D","Dissertation, read only version D",OBTAIN,MEAT,Study2,U,161,172,Study,8,8,,Study/JOL,"Study Phase",8002,,,-1,-1,,,,1
10005890KB,z7teer6f4s,Nick_Dissertation_EX1_EP,1,18,2021-11-29T18:51:03+00:00,8.4806840419769,4,versionC_stim.csv,READVersionD.csv,"Read Version D","Dissertation, read only version D",CUT,CHOP,Study2,B,107,126,Study,8,8,,Study/JOL,"Study Phase",8011,,,-1,-1,,,,1
10005890KB,z7teer6f4s,Nick_Dissertation_EX1_EP,1,19,2021-11-29T18:51:12+00:00,8.4995789527893,4,versionC_stim.csv,READVersionD.csv,"Read Version D","Dissertation, read only version D",FAVORITE,BEST,Study2,F,125,110,Study,8,8,,Study/JOL,"Study Phase",8001,,,-1,-1,,,,1
10005890KB,z7teer6f4s,Nick_Dissertation_EX1_EP,1,20,2021-11-29T18:51:20+00:00,8.4678840637207,4,versionC_stim.csv,READVersionD.csv,"Read Version D","Dissertation, read only version D",CHILDREN,MIRROR,Study2,U,174,153,Study,8,8,,Study/JOL,"Study Phase",8002,,,-1,-1,,,,1
10005890KB,z7teer6f4s,Nick_Dissertation_EX1_EP,1,21,2021-11-29T18:51:29+00:00,8.4215850830078,4,versionC_stim.csv,READVersionD.csv,"Read Version D","Dissertation, read only version D",SMELL,INCENSE,Study2,B,110,108,Study,8,8,,Study/JOL,"Study Phase",8002,,,-1,-1,,,,1
10005890KB,z7teer6f4s,Nick_Dissertation_EX1_EP,1,22,2021-11-29T18:51:37+00:00,8.4797010421753,4,versionC_stim.csv,READVersionD.csv,"Read Version D","Dissertation, read only version D",REEL,ROD,Study2,S,150,133,Study,8,8,,Study/JOL,"Study Phase",8001,,,-1,-1,,,,1
10005890KB,z7teer6f4s,Nick_Dissertation_EX1_EP,1,23,2021-11-29T18:51:46+00:00,8.4807848930359,4,versionC_stim.csv,READVersionD.csv,"Read Version D","Dissertation, read only version D",TRUTHFUL,HONEST,Study2,F,133,145,Study,8,8,,Study/JOL,"Study Phase",8005,,,-1,-1,,,,1
10005890KB,z7teer6f4s,Nick_Dissertation_EX1_EP,1,24,2021-11-29T18:51:54+00:00,8.4396259784698,4,versionC_stim.csv,READVersionD.csv,"Read Version D","Dissertation, read only version D",PENGUIN,BIRD,Study2,F,119,127,Study,8,8,,Study/JOL,"Study Phase",8002,,,-1,-1,,,,1
10005890KB,z7teer6f4s,Nick_Dissertation_EX1_EP,1,25,2021-11-29T18:52:03+00:00,8.520467042923,4,versionC_stim.csv,READVersionD.csv,"Read Version D","Dissertation, read only version D",LONELY,ALONE,Study2,S,145,166,Study,8,8,,Study/JOL,"Study Phase",8002,,,-1,-1,,,,1
10005890KB,z7teer6f4s,Nick_Dissertation_EX1_EP,1,26,2021-11-29T18:52:11+00:00,8.4931700229645,4,versionC_stim.csv,READVersionD.csv,"Read Version D","Dissertation, read only version D",SHAVE,RAZOR,Study2,S,136,117,Study,8,8,,Study/JOL,"Study Phase",8002,,,-1,-1,,,,1
10005890KB,z7teer6f4s,Nick_Dissertation_EX1_EP,1,27,2021-11-29T18:52:19+00:00,8.4565269947052,4,versionC_stim.csv,READVersionD.csv,"Read Version D","Dissertation, read only version D",VILLAIN,BAD,Study2,F,118,150,Study,8,8,,Study/JOL,"Study Phase",8010,,,-1,-1,,,,1
10005890KB,z7teer6f4s,Nick_Dissertation_EX1_EP,1,28,2021-11-29T18:52:28+00:00,8.9502460956573,4,versionC_stim.csv,READVersionD.csv,"Read Version D","Dissertation, read only version D",SIGN,LOAN,Study2,U,171,97,Study,8,8,,Study/JOL,"Study Phase",8001,,,-1,-1,,,,1
10005890KB,z7teer6f4s,Nick_Dissertation_EX1_EP,1,29,2021-11-29T18:52:37+00:00,8.4436078071594,4,versionC_stim.csv,READVersionD.csv,"Read Version D","Dissertation, read only version D",TAN,SUN,Study2,S,155,122,Study,8,8,,Study/JOL,"Study Phase",8002,,,-1,-1,,,,1
10005890KB,z7teer6f4s,Nick_Dissertation_EX1_EP,1,30,2021-11-29T18:52:45+00:00,8.4823870658875,4,versionC_stim.csv,READVersionD.csv,"Read Version D","Dissertation, read only version D",EAT,DINE,Study2,B,111,98,Study,8,8,,Study/JOL,"Study Phase",8001,,,-1,-1,,,,1
10005890KB,z7teer6f4s,Nick_Dissertation_EX1_EP,1,31,2021-11-29T18:52:54+00:00,8.4760639667511,4,versionC_stim.csv,READVersionD.csv,"Read Version D","Dissertation, read only version D",PLANT,CACTUS,Study2,B,98,152,Study,8,8,,Study/JOL,"Study Phase",8002,,,-1,-1,,,,1
10005890KB,z7teer6f4s,Nick_Dissertation_EX1_EP,1,32,2021-11-29T18:53:02+00:00,8.4419040679932,4,versionC_stim.csv,READVersionD.csv,"Read Version D","Dissertation, read only version D",GROUND,EARTH,Study2,S,144,151,Study,8,8,,Study/JOL,"Study Phase",8001,,,-1,-1,,,,1
10005890KB,z7teer6f4s,Nick_Dissertation_EX1_EP,1,33,2021-11-29T18:53:11+00:00,8.5158960819244,4,versionC_stim.csv,READVersionD.csv,"Read Version D","Dissertation, read only version D",SARDINE,FISH,Study2,F,130,147,Study,8,8,,Study/JOL,"Study Phase",8001,,,-1,-1,,,,0.971
10005890KB,z7teer6f4s,Nick_Dissertation_EX1_EP,1,34,2021-11-29T18:53:19+00:00,8.4593977928162,4,versionC_stim.csv,READVersionD.csv,"Read Version D","Dissertation, read only version D",RED,CHERRY,Study2,B,104,111,Study,8,8,,Study/JOL,"Study Phase",8002,,,-1,-1,,,,1
10005890KB,z7teer6f4s,Nick_Dissertation_EX1_EP,1,35,2021-11-29T18:53:28+00:00,8.4920971393585,4,versionC_stim.csv,READVersionD.csv,"Read Version D","Dissertation, read only version D",Morning,TEMPERATURE,Study2,U,173,109,Study,8,8,,Study/JOL,"Study Phase",8020,,,-1,-1,,,,1
10005890KB,z7teer6f4s,Nick_Dissertation_EX1_EP,1,36,2021-11-29T18:53:36+00:00,8.4489998817444,4,versionC_stim.csv,READVersionD.csv,"Read Version D","Dissertation, read only version D",STEAK,GIVE,Study2,U,158,129,Study,8,8,,Study/JOL,"Study Phase",8001,,,-1,-1,,,,1
10005890KB,z7teer6f4s,Nick_Dissertation_EX1_EP,1,37,2021-11-29T18:53:45+00:00,8.5216841697693,4,versionC_stim.csv,READVersionD.csv,"Read Version D","Dissertation, read only version D",CAR,DRIVER,Study2,B,106,101,Study,8,8,,Study/JOL,"Study Phase",8001,,,-1,-1,,,,1
10005890KB,z7teer6f4s,Nick_Dissertation_EX1_EP,1,38,2021-11-29T18:53:53+00:00,8.519562959671,4,versionC_stim.csv,READVersionD.csv,"Read Version D","Dissertation, read only version D",BREAKABLE,GLASS,Study2,F,127,140,Study,8,8,,Study/JOL,"Study Phase",8002,,,-1,-1,,,,1
10005890KB,z7teer6f4s,Nick_Dissertation_EX1_EP,1,39,2021-11-29T18:54:02+00:00,8.4409840106964,4,versionC_stim.csv,READVersionD.csv,"Read Version D","Dissertation, read only version D",BRACELET,WRIST,Study2,S,140,141,Study,8,8,,Study/JOL,"Study Phase",8002,,,-1,-1,,,,1
10005890KB,z7teer6f4s,Nick_Dissertation_EX1_EP,1,40,2021-11-29T18:54:10+00:00,8.5167088508606,4,versionC_stim.csv,READVersionD.csv,"Read Version D","Dissertation, read only version D",SEATBELT,SAFETY,Study2,S,147,159,Study,8,8,,Study/JOL,"Study Phase",8002,,,-1,-1,,,,1
10005890KB,z7teer6f4s,Nick_Dissertation_EX1_EP,1,41,2021-11-29T18:54:19+00:00,8.5441319942474,4,versionC_stim.csv,READVersionD.csv,"Read Version D","Dissertation, read only version D",FIGHT,FEUD,Study2,B,113,157,Study,8,8,,Study/JOL,"Study Phase",8002,,,-1,-1,,,,1
10005890KB,z7teer6f4s,Nick_Dissertation_EX1_EP,1,42,2021-11-29T18:54:27+00:00,8.5358400344849,4,versionC_stim.csv,READVersionD.csv,"Read Version D","Dissertation, read only version D",COFFIN,DEAD,Study2,F,128,115,Study,8,8,,Study/JOL,"Study Phase",8001,,,-1,-1,,,,1
10005890KB,z7teer6f4s,Nick_Dissertation_EX1_EP,1,43,2021-11-29T18:54:36+00:00,8.6405601501465,4,versionC_stim.csv,READVersionD.csv,"Read Version D","Dissertation, read only version D",TOIL,LEASE,Study2,U,170,137,Study,8,8,,Study/JOL,"Study Phase",8002,,,-1,-1,,,,1
10005890KB,z7teer6f4s,Nick_Dissertation_EX1_EP,1,44,2021-11-29T18:54:45+00:00,9.0671768188477,4,versionC_stim.csv,READVersionD.csv,"Read Version D","Dissertation, read only version D",SCAR,MAIN,Study2,U,175,136,Study,8,8,,Study/JOL,"Study Phase",8001,,,-1,-1,,,,1
10005890KB,z7teer6f4s,Nick_Dissertation_EX1_EP,1,45,2021-11-29T18:54:55+00:00,9.7227530479431,4,versionC_stim.csv,READVersionD.csv,"Read Version D","Dissertation, read only version D",SHAKE,Shell,Study2,U,163,99,Study,8,8,,Study/JOL,"Study Phase",8002,,,-1,-1,,,,1
10005890KB,z7teer6f4s,Nick_Dissertation_EX1_EP,1,46,2021-11-29T18:55:03+00:00,8.5217189788818,4,versionC_stim.csv,READVersionD.csv,"Read Version D","Dissertation, read only version D",DRINK,WATER,Study2,S,143,163,Study,8,8,,Study/JOL,"Study Phase",8001,,,-1,-1,,,,1
10005890KB,z7teer6f4s,Nick_Dissertation_EX1_EP,1,47,2021-11-29T18:55:12+00:00,8.8392751216888,4,versionC_stim.csv,READVersionD.csv,"Read Version D","Dissertation, read only version D",AWAY,GONE,Study2,S,142,104,Study,8,8,,Study/JOL,"Study Phase",8002,,,-1,-1,,,,1
10005890KB,z7teer6f4s,Nick_Dissertation_EX1_EP,1,48,2021-11-29T18:55:20+00:00,8.3567559719086,4,versionC_stim.csv,READVersionD.csv,"Read Version D","Dissertation, read only version D",TIE,SHOELACE,Study2,B,99,167,Study,8,8,,Study/JOL,"Study Phase",8002,,,-1,-1,,,,1
10005890KB,z7teer6f4s,Nick_Dissertation_EX1_EP,1,49,2021-11-29T18:55:29+00:00,8.3687319755554,4,versionC_stim.csv,READVersionD.csv,"Read Version D","Dissertation, read only version D",CARBON,ELEMENT,Study2,S,141,144,Study,8,8,,Study/JOL,"Study Phase",8002,,,-1,-1,,,,1
10005890KB,z7teer6f4s,Nick_Dissertation_EX1_EP,1,50,2021-11-29T18:55:38+00:00,9.3036530017853,4,versionC_stim.csv,READVersionD.csv,"Read Version D","Dissertation, read only version D",FICTION,LISTEN,Study2,U,164,118,Study,8,8,,Study/JOL,"Study Phase",8008,,,-1,-1,,,,1
10005890KB,z7teer6f4s,Nick_Dissertation_EX1_EP,1,51,2021-11-29T18:55:46+00:00,8.4000449180603,4,versionC_stim.csv,READVersionD.csv,"Read Version D","Dissertation, read only version D",CLEAR,MOAT,Study2,U,169,139,Study,8,8,,Study/JOL,"Study Phase",8002,,,-1,-1,,,,1
10005890KB,z7teer6f4s,Nick_Dissertation_EX1_EP,1,52,2021-11-29T18:55:55+00:00,8.7071089744568,4,versionC_stim.csv,READVersionD.csv,"Read Version D","Dissertation, read only version D",WET,DRY,Study2,S,146,125,Study,8,8,,Study/JOL,"Study Phase",8002,,,-1,-1,,,,1
10005890KB,z7teer6f4s,Nick_Dissertation_EX1_EP,1,53,2021-11-29T18:56:03+00:00,8.1470801830292,4,versionC_stim.csv,READVersionD.csv,"Read Version D","Dissertation, read only version D",ACTRESS,STAR,Study2,F,120,146,Study,8,8,,Study/JOL,"Study Phase",8001,,,-1,-1,,,,1
10005890KB,z7teer6f4s,Nick_Dissertation_EX1_EP,1,54,2021-11-29T18:56:11+00:00,8.1315219402313,4,versionC_stim.csv,READVersionD.csv,"Read Version D","Dissertation, read only version D",JAR,MASON,Study2,S,138,130,Study,8,8,,Study/JOL,"Study Phase",8002,,,-1,-1,,,,1
10005890KB,z7teer6f4s,Nick_Dissertation_EX1_EP,1,55,2021-11-29T18:56:20+00:00,8.1538469791412,4,versionC_stim.csv,READVersionD.csv,"Read Version D","Dissertation, read only version D",MYSTERY,DETECTIVE,Study2,B,100,112,Study,8,8,,Study/JOL,"Study Phase",8002,,,-1,-1,,,,1
10005890KB,z7teer6f4s,Nick_Dissertation_EX1_EP,1,56,2021-11-29T18:56:28+00:00,8.2747249603271,4,versionC_stim.csv,READVersionD.csv,"Read Version D","Dissertation, read only version D",DONKEY,MULE,Study2,B,108,162,Study,8,8,,Study/JOL,"Study Phase",8002,,,-1,-1,,,,1
10005890KB,z7teer6f4s,Nick_Dissertation_EX1_EP,1,57,2021-11-29T18:56:36+00:00,8.2817230224609,4,versionC_stim.csv,READVersionD.csv,"Read Version D","Dissertation, read only version D",REVENGE,EVEN,Study2,F,122,116,Study,8,8,,Study/JOL,"Study Phase",8004,,,-1,-1,,,,1
10005890KB,z7teer6f4s,Nick_Dissertation_EX1_EP,1,58,2021-11-29T18:56:44+00:00,8.1701049804688,4,versionC_stim.csv,READVersionD.csv,"Read Version D","Dissertation, read only version D",CHARM,VEHICLE,Study2,U,160,171,Study,8,8,,Study/JOL,"Study Phase",8001,,,-1,-1,,,,1
10005890KB,z7teer6f4s,Nick_Dissertation_EX1_EP,1,59,2021-11-29T18:56:53+00:00,8.1460571289062,4,versionC_stim.csv,READVersionD.csv,"Read Version D","Dissertation, read only version D",HATE,NAME,Study2,U,167,138,Study,8,8,,Study/JOL,"Study Phase",8003,,,-1,-1,,,,1
10005890KB,z7teer6f4s,Nick_Dissertation_EX1_EP,1,60,2021-11-29T18:57:01+00:00,8.1417729854584,4,versionC_stim.csv,READVersionD.csv,"Read Version D","Dissertation, read only version D",BANKER,MONEY,Study2,F,132,106,Study,8,8,,Study/JOL,"Study Phase",8002,,,-1,-1,,,,1
10005890KB,z7teer6f4s,Nick_Dissertation_EX1_EP,1,61,2021-11-29T18:57:09+00:00,8.1398079395294,4,versionC_stim.csv,READVersionD.csv,"Read Version D","Dissertation, read only version D",BALLOON,POP,Study2,F,123,114,Study,8,8,,Study/JOL,"Study Phase",8002,,,-1,-1,,,,1
10005890KB,z7teer6f4s,Nick_Dissertation_EX1_EP,1,62,2021-11-29T18:57:17+00:00,8.1423330307007,4,versionC_stim.csv,READVersionD.csv,"Read Version D","Dissertation, read only version D",WAX,CANDLE,Study2,S,139,161,Study,8,8,,Study/JOL,"Study Phase",8008,,,-1,-1,,,,1
10005890KB,z7teer6f4s,Nick_Dissertation_EX1_EP,1,63,2021-11-29T18:57:25+00:00,8.2229628562927,4,versionC_stim.csv,READVersionD.csv,"Read Version D","Dissertation, read only version D",PAPER,DOCUMENT,Study2,B,109,158,Study,8,8,,Study/JOL,"Study Phase",8002,,,-1,-1,,,,1
10005890KB,z7teer6f4s,Nick_Dissertation_EX1_EP,1,64,2021-11-29T18:57:34+00:00,9.3183920383453,4,versionC_stim.csv,READVersionD.csv,"Read Version D","Dissertation, read only version D",HEAD,SCALP,Study2,B,105,135,Study,8,8,,Study/JOL,"Study Phase",8002,,,-1,-1,,,,1
10005890KB,z7teer6f4s,Nick_Dissertation_EX1_EP,1,65,2021-11-29T18:57:43+00:00,8.1450281143188,4,versionC_stim.csv,READVersionD.csv,"Read Version D","Dissertation, read only version D",LONG,EXTENSION,Study2,B,96,124,Study,8,8,,Study/JOL,"Study Phase",8007,,,-1,-1,,,,1
10005890KB,z7teer6f4s,Nick_Dissertation_EX1_EP,1,66,2021-11-29T18:57:51+00:00,8.1427919864655,4,versionC_stim.csv,READVersionD.csv,"Read Version D","Dissertation, read only version D",JOKE,KEYS,Study2,U,165,169,Study,8,8,,Study/JOL,"Study Phase",8012,,,-1,-1,,,,1
10005890KB,z7teer6f4s,Nick_Dissertation_EX1_EP,1,67,2021-11-29T18:57:59+00:00,8.1415839195251,4,versionC_stim.csv,READVersionD.csv,"Read Version D","Dissertation, read only version D",GAME,CLUE,Study2,B,97,176,Study,8,8,,Study/JOL,"Study Phase",8002,,,-1,-1,,,,1
10005890KB,z7teer6f4s,Nick_Dissertation_EX1_EP,1,68,2021-11-29T18:58:07+00:00,8.1518621444702,4,versionC_stim.csv,READVersionD.csv,"Read Version D","Dissertation, read only version D",AIRCRAFT,PLANE,Study2,F,129,148,Study,8,8,,Study/JOL,"Study Phase",8003,,,-1,-1,,,,1
10005890KB,z7teer6f4s,Nick_Dissertation_EX1_EP,1,69,2021-11-29T18:58:15+00:00,8.1436278820038,4,versionC_stim.csv,READVersionD.csv,"Read Version D","Dissertation, read only version D",BRAWL,FIGHT,Study2,F,135,174,Study,8,8,,Study/JOL,"Study Phase",8002,,,-1,-1,,,,1
10005890KB,z7teer6f4s,Nick_Dissertation_EX1_EP,1,70,2021-11-29T18:58:23+00:00,8.1291670799255,4,versionC_stim.csv,READVersionD.csv,"Read Version D","Dissertation, read only version D",SCISSORS,SHEARS,Study2,B,112,128,Study,8,8,,Study/JOL,"Study Phase",8001,,,-1,-1,,,,1
10005890KB,z7teer6f4s,Nick_Dissertation_EX1_EP,1,71,2021-11-29T18:58:31+00:00,8.1347498893738,4,versionC_stim.csv,READVersionD.csv,"Read Version D","Dissertation, read only version D",FLIP,TURN,Study2,F,116,154,Study,8,8,,Study/JOL,"Study Phase",8010,,,-1,-1,,,,1
10005890KB,z7teer6f4s,Nick_Dissertation_EX1_EP,1,72,2021-11-29T18:58:40+00:00,8.1371309757233,4,versionC_stim.csv,READVersionD.csv,"Read Version D","Dissertation, read only version D",LOVE,AFFECTION,Study2,B,115,143,Study,8,8,,Study/JOL,"Study Phase",8001,,,-1,-1,,,,1
10005890KB,z7teer6f4s,Nick_Dissertation_EX1_EP,1,73,2021-11-29T18:58:48+00:00,8.145660161972,4,versionC_stim.csv,READVersionD.csv,"Read Version D","Dissertation, read only version D",LIE,TRUTH,Study2,S,148,173,Study,8,8,,Study/JOL,"Study Phase",8002,,,-1,-1,,,,1
10005890KB,z7teer6f4s,Nick_Dissertation_EX1_EP,1,74,2021-11-29T18:58:56+00:00,8.1376008987427,4,versionC_stim.csv,READVersionD.csv,"Read Version D","Dissertation, read only version D",NAP,SLEEP,Study2,F,134,164,Study,8,8,,Study/JOL,"Study Phase",8002,,,-1,-1,,,,1
10005890KB,z7teer6f4s,Nick_Dissertation_EX1_EP,1,75,2021-11-29T18:59:04+00:00,8.1373810768127,4,versionC_stim.csv,READVersionD.csv,"Read Version D","Dissertation, read only version D",OUNCE,BOTH,Study2,U,172,168,Study,8,8,,Study/JOL,"Study Phase",8003,,,-1,-1,,,,1
10005890KB,z7teer6f4s,Nick_Dissertation_EX1_EP,1,76,2021-11-29T18:59:12+00:00,8.1220388412476,4,versionC_stim.csv,READVersionD.csv,"Read Version D","Dissertation, read only version D",NOISE,LOUD,Study2,S,152,113,Study,8,8,,Study/JOL,"Study Phase",8001,,,-1,-1,,,,1
10005890KB,z7teer6f4s,Nick_Dissertation_EX1_EP,1,77,2021-11-29T18:59:20+00:00,8.1429431438446,4,versionC_stim.csv,READVersionD.csv,"Read Version D","Dissertation, read only version D",PANTHER,CAT,Study2,F,126,121,Study,8,8,,Study/JOL,"Study Phase",8008,,,-1,-1,,,,1
10005890KB,z7teer6f4s,Nick_Dissertation_EX1_EP,1,78,2021-11-29T18:59:28+00:00,8.1373429298401,4,versionC_stim.csv,READVersionD.csv,"Read Version D","Dissertation, read only version D",HAVE,OWN,Study2,S,153,119,Study,8,8,,Study/JOL,"Study Phase",8002,,,-1,-1,,,,1
10005890KB,z7teer6f4s,Nick_Dissertation_EX1_EP,1,79,2021-11-29T18:59:37+00:00,8.1381239891052,4,versionC_stim.csv,READVersionD.csv,"Read Version D","Dissertation, read only version D",WINDSHIELD,CAR,Study2,F,117,131,Study,8,8,,Study/JOL,"Study Phase",8003,,,-1,-1,,,,1
10005890KB,z7teer6f4s,Nick_Dissertation_EX1_EP,1,80,2021-11-29T18:59:45+00:00,8.1387550830841,4,versionC_stim.csv,READVersionD.csv,"Read Version D","Dissertation, read only version D",TRASH,LITTER,Study2,B,103,134,Study,8,8,,Study/JOL,"Study Phase",8002,,,-1,-1,,,,1
10005890KB,z7teer6f4s,Nick_Dissertation_EX1_EP,1,81,2021-11-29T18:59:53+00:00,8.1401228904724,4,versionC_stim.csv,READVersionD.csv,"Read Version D","Dissertation, read only version D",COLD,CHILL,Study2,B,114,156,Study,8,8,,Study/JOL,"Study Phase",8002,,,-1,-1,,,,1
10005890KB,z7teer6f4s,Nick_Dissertation_EX1_EP,1,82,2021-11-29T19:00:01+00:00,8.1351089477539,4,versionC_stim.csv,READVersionD.csv,"Read Version D","Dissertation, read only version D",EQUAL,RIGHTS,Study2,S,137,102,Study,8,8,,Study/JOL,"Study Phase",8001,,,-1,-1,,,,1
10005890KB,z7teer6f4s,Nick_Dissertation_EX1_EP,1,83,2021-11-29T19:00:09+00:00,8.1434299945831,4,versionC_stim.csv,READVersionD.csv,"Read Version D","Dissertation, read only version D",STRAWBERRY,FRUIT,Study2,F,124,103,Study,8,8,,Study/JOL,"Study Phase",8001,,,-1,-1,,,,1
10005890KB,z7teer6f4s,Nick_Dissertation_EX1_EP,1,84,2021-11-29T19:00:17+00:00,8.1408421993256,4,versionC_stim.csv,READVersionD.csv,"Read Version D","Dissertation, read only version D",TICK,FLEA,Study2,S,151,155,Study,8,8,,Study/JOL,"Study Phase",8001,,,-1,-1,,,,1
10005890KB,z7teer6f4s,Nick_Dissertation_EX1_EP,1,85,2021-11-29T19:00:25+00:00,8.1297249794006,4,versionC_stim.csv,READVersionD.csv,"Read Version D","Dissertation, read only version D",BANG,FUZZY,Study2,U,168,105,Study,8,8,,Study/JOL,"Study Phase",8001,,,-1,-1,,,,1
10005890KB,z7teer6f4s,Nick_Dissertation_EX1_EP,1,86,2021-11-29T19:00:34+00:00,8.3259279727936,4,versionC_stim.csv,READVersionD.csv,"Read Version D","Dissertation, read only version D",ELECTION,MAZE,Study2,U,159,165,Study,8,8,,Study/JOL,"Study Phase",8001,,,-1,-1,,,,1
10005890KB,z7teer6f4s,Nick_Dissertation_EX1_EP,1,87,2021-11-29T19:00:42+00:00,8.1481599807739,4,versionC_stim.csv,READVersionD.csv,"Read Version D","Dissertation, read only version D",MAROON,JUSTICE,Study2,U,156,100,Study,8,8,,Study/JOL,"Study Phase",8002,,,-1,-1,,,,1
10005890KB,z7teer6f4s,Nick_Dissertation_EX1_EP,1,88,2021-11-29T19:00:50+00:00,8.1355738639832,4,versionC_stim.csv,READVersionD.csv,"Read Version D","Dissertation, read only version D",CLOTHES,CAKE,Study2,U,166,142,Study,8,8,,Study/JOL,"Study Phase",8002,,,-1,-1,,,,1
10005890KB,z7teer6f4s,Nick_Dissertation_EX1_EP,1,89,2021-11-29T19:00:58+00:00,8.1399190425873,4,versionC_stim.csv,READVersionD.csv,"Read Version D","Dissertation, read only version D",YEAR,MONTH,BUFFER4,Buffer,177,181,Study,8,8,,Study/JOL,BUFFER2,8002,,,-1,-1,,,,1
10005890KB,z7teer6f4s,Nick_Dissertation_EX1_EP,1,90,2021-11-29T19:01:06+00:00,8.132954120636,4,versionC_stim.csv,READVersionD.csv,"Read Version D","Dissertation, read only version D",WEAKS,DAYS,BUFFER4,Buffer,176,177,Study,8,8,,Study/JOL,BUFFER2,8010,,,-1,-1,,,,1
10005890KB,z7teer6f4s,Nick_Dissertation_EX1_EP,1,91,2021-11-29T19:01:15+00:00,8.5274288654327,4,versionC_stim.csv,READVersionD.csv,"Read Version D","Dissertation, read only version D",SPOOKY,OCTOBER,BUFFER4,Buffer,180,178,Study,8,8,,Study/JOL,BUFFER2,8007,,,-1,-1,,,,1
10005890KB,z7teer6f4s,Nick_Dissertation_EX1_EP,1,92,2021-11-29T19:01:23+00:00,8.1479480266571,4,versionC_stim.csv,READVersionD.csv,"Read Version D","Dissertation, read only version D",MARCH,SPRING,BUFFER4,Buffer,179,180,Study,8,8,,Study/JOL,BUFFER2,8003,,,-1,-1,,,,1
10005890KB,z7teer6f4s,Nick_Dissertation_EX1_EP,1,93,2021-11-29T19:01:31+00:00,8.1363289356232,4,versionC_stim.csv,READVersionD.csv,"Read Version D","Dissertation, read only version D",SHED,TOOL,BUFFER4,Buffer,178,179,Study,8,8,,Study/JOL,BUFFER2,8003,,,-1,-1,,,,1
10005890KB,z7teer6f4s,Nick_Dissertation_EX1_EP,1,94,2021-11-29T19:01:37+00:00,6.0750050544739,4,versionC_stim.csv,READVersionD.csv,"Read Version D","Dissertation, read only version D",,,,,,0,Instruct,User,-,"You have completed this section. Please press Enter.",Filler_Instruction,Instruct2,5927,,,-1,-1,,,,1
10005890KB,z7teer6f4s,Nick_Dissertation_EX1_EP,1,95,2021-11-29T19:03:37+00:00,120.15384912491,4,versionC_stim.csv,READVersionD.csv,"Read Version D","Dissertation, read only version D",,,,,,0,FreeRecall,120,120,"Please list the 50 US states in alphabetical order. The task will automatically advance to the next screen after two minutes.",,Filler1,120007,"Alabama Alaska Arizona Arkansas California Colorado Connecticut Delaware Florida Georgia ",0,45288,117489,0,0,,0.73
10005890KB,z7teer6f4s,Nick_Dissertation_EX1_EP,1,96,2021-11-29T19:03:53+00:00,15.80378985405,4,versionC_stim.csv,READVersionD.csv,"Read Version D","Dissertation, read only version D",,,,,,0,Instruct,-,10,"You will now be presented with the first word from each of the previously studied item pairs. Please type the missing word. If you do not know the word, you may guess or press Enter to skip forward to the next pair.",,Instruct3,10639,,,-1,-1,,,,1
10005890KB,z7teer6f4s,Nick_Dissertation_EX1_EP,1,97,2021-11-29T19:04:01+00:00,8.0639760494232,4,versionC_stim.csv,READVersionD.csv,"Read Version D","Dissertation, read only version D",PANTHER,CAT,Study2,F,126,121,Test,User,-,,Recall,Recall1,7890,,0,-1,-1,0,0,,0.375
10005890KB,z7teer6f4s,Nick_Dissertation_EX1_EP,1,98,2021-11-29T19:04:04+00:00,2.7753391265869,4,versionC_stim.csv,READVersionD.csv,"Read Version D","Dissertation, read only version D",BREAKABLE,GLASS,Study2,F,127,140,Test,User,-,,Recall,Recall1,2675,,0,-1,-1,0,0,,1
10005890KB,z7teer6f4s,Nick_Dissertation_EX1_EP,1,99,2021-11-29T19:04:06+00:00,1.6410639286041,4,versionC_stim.csv,READVersionD.csv,"Read Version D","Dissertation, read only version D",FLIP,TURN,Study2,F,116,154,Test,User,-,,Recall,Recall1,1551,,0,-1,-1,0,0,,1
10005890KB,z7teer6f4s,Nick_Dissertation_EX1_EP,1,100,2021-11-29T19:04:07+00:00,1.7891540527344,4,versionC_stim.csv,READVersionD.csv,"Read Version D","Dissertation, read only version D",WET,DRY,Study2,S,146,125,Test,User,-,,Recall,Recall1,1701,,0,-1,-1,0,0,,1
10005890KB,z7teer6f4s,Nick_Dissertation_EX1_EP,1,101,2021-11-29T19:04:10+00:00,3.0177409648895,4,versionC_stim.csv,READVersionD.csv,"Read Version D","Dissertation, read only version D",NAP,SLEEP,Study2,F,134,164,Test,User,-,,Recall,Recall1,2934,,0,-1,-1,0,0,,1
10005890KB,z7teer6f4s,Nick_Dissertation_EX1_EP,1,102,2021-11-29T19:04:12+00:00,1.7071049213409,4,versionC_stim.csv,READVersionD.csv,"Read Version D","Dissertation, read only version D",SHAKE,Shell,Study2,U,163,99,Test,User,-,,Recall,Recall1,1602,,0,-1,-1,0,0,,1
10005890KB,z7teer6f4s,Nick_Dissertation_EX1_EP,1,103,2021-11-29T19:04:15+00:00,2.6712779998779,4,versionC_stim.csv,READVersionD.csv,"Read Version D","Dissertation, read only version D",VILLAIN,BAD,Study2,F,118,150,Test,User,-,,Recall,Recall1,2575,,0,-1,-1,0,0,,1
10005890KB,z7teer6f4s,Nick_Dissertation_EX1_EP,1,104,2021-11-29T19:04:16+00:00,1.3698711395264,4,versionC_stim.csv,READVersionD.csv,"Read Version D","Dissertation, read only version D",WAX,CANDLE,Study2,S,139,161,Test,User,-,,Recall,Recall1,1270,,0,-1,-1,0,0,,1
10005890KB,z7teer6f4s,Nick_Dissertation_EX1_EP,1,105,2021-11-29T19:04:17+00:00,1.2573719024658,4,versionC_stim.csv,READVersionD.csv,"Read Version D","Dissertation, read only version D",LONELY,ALONE,Study2,S,145,166,Test,User,-,,Recall,Recall1,1158,,0,-1,-1,0,0,,1
10005890KB,z7teer6f4s,Nick_Dissertation_EX1_EP,1,106,2021-11-29T19:04:19+00:00,1.1912250518799,4,versionC_stim.csv,READVersionD.csv,"Read Version D","Dissertation, read only version D",GROUND,EARTH,Study2,S,144,151,Test,User,-,,Recall,Recall1,1093,,0,-1,-1,0,0,,1
10005890KB,z7teer6f4s,Nick_Dissertation_EX1_EP,1,107,2021-11-29T19:04:21+00:00,2.3548488616943,4,versionC_stim.csv,READVersionD.csv,"Read Version D","Dissertation, read only version D",OUNCE,BOTH,Study2,U,172,168,Test,User,-,,Recall,Recall1,2251,,0,-1,-1,0,0,,1
10005890KB,z7teer6f4s,Nick_Dissertation_EX1_EP,1,108,2021-11-29T19:04:22+00:00,1.3738830089569,4,versionC_stim.csv,READVersionD.csv,"Read Version D","Dissertation, read only version D",LIE,TRUTH,Study2,S,148,173,Test,User,-,,Recall,Recall1,1280,,0,-1,-1,0,0,,1
10005890KB,z7teer6f4s,Nick_Dissertation_EX1_EP,1,109,2021-11-29T19:04:24+00:00,1.2136931419373,4,versionC_stim.csv,READVersionD.csv,"Read Version D","Dissertation, read only version D",COMMUNICATION,PHONE,Study2,S,149,123,Test,User,-,,Recall,Recall1,1117,,0,-1,-1,0,0,,1
10005890KB,z7teer6f4s,Nick_Dissertation_EX1_EP,1,110,2021-11-29T19:04:28+00:00,4.4634480476379,4,versionC_stim.csv,READVersionD.csv,"Read Version D","Dissertation, read only version D",ELECTION,MAZE,Study2,U,159,165,Test,User,-,,Recall,Recall1,4328,"Maze ",100,2709,3243,1,1,,1
10005890KB,z7teer6f4s,Nick_Dissertation_EX1_EP,1,111,2021-11-29T19:04:30+00:00,1.5810089111328,4,versionC_stim.csv,READVersionD.csv,"Read Version D","Dissertation, read only version D",SMELL,INCENSE,Study2,B,110,108,Test,User,-,,Recall,Recall1,1494,,0,-1,-1,0,0,,0
10005890KB,z7teer6f4s,Nick_Dissertation_EX1_EP,1,112,2021-11-29T19:04:31+00:00,1.3174228668213,4,versionC_stim.csv,READVersionD.csv,"Read Version D","Dissertation, read only version D",TEMPER,TANTRUM,Study2,S,154,149,Test,User,-,,Recall,Recall1,1233,,0,-1,-1,0,0,,1
10005890KB,z7teer6f4s,Nick_Dissertation_EX1_EP,1,113,2021-11-29T19:04:34+00:00,3.3659801483154,4,versionC_stim.csv,READVersionD.csv,"Read Version D","Dissertation, read only version D",GAME,CLUE,Study2,B,97,176,Test,User,-,,Recall,Recall1,2377,,0,-1,-1,0,0,,1
10005890KB,z7teer6f4s,Nick_Dissertation_EX1_EP,1,114,2021-11-29T19:04:36+00:00,1.4636280536652,4,versionC_stim.csv,READVersionD.csv,"Read Version D","Dissertation, read only version D",END,ADJOURN,Study2,B,101,175,Test,User,-,,Recall,Recall1,1369,,0,-1,-1,0,0,,1
10005890KB,z7teer6f4s,Nick_Dissertation_EX1_EP,1,115,2021-11-29T19:04:37+00:00,1.2756388187408,4,versionC_stim.csv,READVersionD.csv,"Read Version D","Dissertation, read only version D",HEAD,SCALP,Study2,B,105,135,Test,User,-,,Recall,Recall1,1177,,0,-1,-1,0,0,,1
10005890KB,z7teer6f4s,Nick_Dissertation_EX1_EP,1,116,2021-11-29T19:04:38+00:00,1.2911081314087,4,versionC_stim.csv,READVersionD.csv,"Read Version D","Dissertation, read only version D",TAN,SUN,Study2,S,155,122,Test,User,-,,Recall,Recall1,1071,,0,-1,-1,0,0,,1
10005890KB,z7teer6f4s,Nick_Dissertation_EX1_EP,1,117,2021-11-29T19:04:40+00:00,1.7451889514923,4,versionC_stim.csv,READVersionD.csv,"Read Version D","Dissertation, read only version D",OBTAIN,MEAT,Study2,U,161,172,Test,User,-,,Recall,Recall1,1625,,0,-1,-1,0,0,,1
10005890KB,z7teer6f4s,Nick_Dissertation_EX1_EP,1,118,2021-11-29T19:04:42+00:00,2.2132050991058,4,versionC_stim.csv,READVersionD.csv,"Read Version D","Dissertation, read only version D",BALLOON,POP,Study2,F,123,114,Test,User,-,,Recall,Recall1,2085,,0,-1,-1,0,0,,1
10005890KB,z7teer6f4s,Nick_Dissertation_EX1_EP,1,119,2021-11-29T19:04:44+00:00,1.7644150257111,4,versionC_stim.csv,READVersionD.csv,"Read Version D","Dissertation, read only version D",RED,CHERRY,Study2,B,104,111,Test,User,-,,Recall,Recall1,1482,,0,-1,-1,0,0,,1
10005890KB,z7teer6f4s,Nick_Dissertation_EX1_EP,1,120,2021-11-29T19:04:52+00:00,7.8961818218231,4,versionC_stim.csv,READVersionD.csv,"Read Version D","Dissertation, read only version D",SEATBELT,SAFETY,Study2,S,147,159,Test,User,-,,Recall,Recall1,7770,"Buckle ",16.666666666667,3051,6884,0,0,,1
10005890KB,z7teer6f4s,Nick_Dissertation_EX1_EP,1,121,2021-11-29T19:05:04+00:00,11.858741044998,4,versionC_stim.csv,READVersionD.csv,"Read Version D","Dissertation, read only version D",JOKE,KEYS,Study2,U,165,169,Test,User,-,,Recall,Recall1,11713,,0,-1,-1,0,0,,0
10005890KB,z7teer6f4s,Nick_Dissertation_EX1_EP,1,122,2021-11-29T19:05:08+00:00,4.6166059970856,4,versionC_stim.csv,READVersionD.csv,"Read Version D","Dissertation, read only version D",SCISSORS,SHEARS,Study2,B,112,128,Test,User,-,,Recall,Recall1,4470,"Sheath ",66.666666666667,2327,3447,0,0,,1
10005890KB,z7teer6f4s,Nick_Dissertation_EX1_EP,1,123,2021-11-29T19:05:10+00:00,1.6294910907745,4,versionC_stim.csv,READVersionD.csv,"Read Version D","Dissertation, read only version D",ABLE,CRACKLE,Study2,U,162,170,Test,User,-,,Recall,Recall1,1537,,0,-1,-1,0,0,,0
10005890KB,z7teer6f4s,Nick_Dissertation_EX1_EP,1,124,2021-11-29T19:05:11+00:00,1.4091858863831,4,versionC_stim.csv,READVersionD.csv,"Read Version D","Dissertation, read only version D",TRASH,LITTER,Study2,B,103,134,Test,User,-,,Recall,Recall1,1211,,0,-1,-1,0,0,,1
10005890KB,z7teer6f4s,Nick_Dissertation_EX1_EP,1,125,2021-11-29T19:05:13+00:00,1.4927771091461,4,versionC_stim.csv,READVersionD.csv,"Read Version D","Dissertation, read only version D",REEL,ROD,Study2,S,150,133,Test,User,-,,Recall,Recall1,1132,,0,-1,-1,0,0,,1
10005890KB,z7teer6f4s,Nick_Dissertation_EX1_EP,1,126,2021-11-29T19:05:15+00:00,1.5970618724823,4,versionC_stim.csv,READVersionD.csv,"Read Version D","Dissertation, read only version D",SHAVE,RAZOR,Study2,S,136,117,Test,User,-,,Recall,Recall1,1501,,0,-1,-1,0,0,,1
10005890KB,z7teer6f4s,Nick_Dissertation_EX1_EP,1,127,2021-11-29T19:05:16+00:00,1.2678699493408,4,versionC_stim.csv,READVersionD.csv,"Read Version D","Dissertation, read only version D",AWAY,GONE,Study2,S,142,104,Test,User,-,,Recall,Recall1,1173,,0,-1,-1,0,0,,1
10005890KB,z7teer6f4s,Nick_Dissertation_EX1_EP,1,128,2021-11-29T19:05:21+00:00,5.6943261623383,4,versionC_stim.csv,READVersionD.csv,"Read Version D","Dissertation, read only version D",THIMBLE,THREAD,Study2,F,121,120,Test,User,-,,Recall,Recall1,5555,Needle,33.333333333333,2857,4526,0,0,,1
10005890KB,z7teer6f4s,Nick_Dissertation_EX1_EP,1,129,2021-11-29T19:05:23+00:00,1.7181420326233,4,versionC_stim.csv,READVersionD.csv,"Read Version D","Dissertation, read only version D",CARBON,ELEMENT,Study2,S,141,144,Test,User,-,,Recall,Recall1,1632,,0,-1,-1,0,0,,0
10005890KB,z7teer6f4s,Nick_Dissertation_EX1_EP,1,130,2021-11-29T19:05:34+00:00,10.764523029327,4,versionC_stim.csv,READVersionD.csv,"Read Version D","Dissertation, read only version D",COFFIN,DEAD,Study2,F,128,115,Test,User,-,,Recall,Recall1,5612,Death,66.666666666667,4038,4522,0,0,,1
10005890KB,z7teer6f4s,Nick_Dissertation_EX1_EP,1,131,2021-11-29T19:06:40+00:00,65.945978879929,4,versionC_stim.csv,READVersionD.csv,"Read Version D","Dissertation, read only version D",LOVE,AFFECTION,Study2,B,115,143,Test,User,-,,Recall,Recall1,65806,,0,-1,-1,0,0,,0.052
10005890KB,z7teer6f4s,Nick_Dissertation_EX1_EP,1,132,2021-11-29T19:06:42+00:00,1.9460949897766,4,versionC_stim.csv,READVersionD.csv,"Read Version D","Dissertation, read only version D",STRAWBERRY,FRUIT,Study2,F,124,103,Test,User,-,,Recall,Recall1,1839,,0,-1,-1,0,0,,1
10005890KB,z7teer6f4s,Nick_Dissertation_EX1_EP,1,133,2021-11-29T19:06:44+00:00,2.1709170341492,4,versionC_stim.csv,READVersionD.csv,"Read Version D","Dissertation, read only version D",TRUTHFUL,HONEST,Study2,F,133,145,Test,User,-,,Recall,Recall1,2074,,0,-1,-1,0,0,,1
10005890KB,z7teer6f4s,Nick_Dissertation_EX1_EP,1,134,2021-11-29T19:06:48+00:00,3.6554930210114,4,versionC_stim.csv,READVersionD.csv,"Read Version D","Dissertation, read only version D",JAR,MASON,Study2,S,138,130,Test,User,-,,Recall,Recall1,3545,Open,44.444444444444,2229,2545,0,0,,1
10005890KB,z7teer6f4s,Nick_Dissertation_EX1_EP,1,135,2021-11-29T19:06:49+00:00,1.4777009487152,4,versionC_stim.csv,READVersionD.csv,"Read Version D","Dissertation, read only version D",BRAWL,FIGHT,Study2,F,135,174,Test,User,-,,Recall,Recall1,1397,,0,-1,-1,0,0,,0
10005890KB,z7teer6f4s,Nick_Dissertation_EX1_EP,1,136,2021-11-29T19:06:53+00:00,3.6474440097809,4,versionC_stim.csv,READVersionD.csv,"Read Version D","Dissertation, read only version D",DOG,FURRY,Study2,B,102,160,Test,User,-,,Recall,Recall1,3540,Pet,0,2357,2594,0,0,,1
10005890KB,z7teer6f4s,Nick_Dissertation_EX1_EP,1,137,2021-11-29T19:06:55+00:00,2.1007668972015,4,versionC_stim.csv,READVersionD.csv,"Read Version D","Dissertation, read only version D",PLANT,CACTUS,Study2,B,98,152,Test,User,-,,Recall,Recall1,2011,,0,-1,-1,0,0,,0
10005890KB,z7teer6f4s,Nick_Dissertation_EX1_EP,1,138,2021-11-29T19:07:01+00:00,5.6710150241852,4,versionC_stim.csv,READVersionD.csv,"Read Version D","Dissertation, read only version D",PAPER,DOCUMENT,Study2,B,109,158,Test,User,-,,Recall,Recall1,5508,"Write ",15.384615384615,3866,4567,0,0,,1
10005890KB,z7teer6f4s,Nick_Dissertation_EX1_EP,1,139,2021-11-29T19:07:40+00:00,39.182085990906,4,versionC_stim.csv,READVersionD.csv,"Read Version D","Dissertation, read only version D",HATE,NAME,Study2,U,167,138,Test,User,-,,Recall,Recall1,39002,"Emotion ",18.181818181818,37330,38146,0,0,,0.064
10005890KB,z7teer6f4s,Nick_Dissertation_EX1_EP,1,140,2021-11-29T19:07:42+00:00,1.8006370067596,4,versionC_stim.csv,READVersionD.csv,"Read Version D","Dissertation, read only version D",ACTRESS,STAR,Study2,F,120,146,Test,User,-,,Recall,Recall1,1688,,0,-1,-1,0,0,,0
10005890KB,z7teer6f4s,Nick_Dissertation_EX1_EP,1,141,2021-11-29T19:07:47+00:00,5.7291669845581,4,versionC_stim.csv,READVersionD.csv,"Read Version D","Dissertation, read only version D",LONG,EXTENSION,Study2,B,96,124,Test,User,-,,Recall,Recall1,5580,"Short ",28.571428571429,2170,4725,0,0,,1
10005890KB,z7teer6f4s,Nick_Dissertation_EX1_EP,1,142,2021-11-29T19:07:52+00:00,4.2485001087189,4,versionC_stim.csv,READVersionD.csv,"Read Version D","Dissertation, read only version D",FAVORITE,BEST,Study2,F,125,110,Test,User,-,,Recall,Recall1,4103,"Best ",100,2834,3243,1,1,,0.476
10005890KB,z7teer6f4s,Nick_Dissertation_EX1_EP,1,143,2021-11-29T19:07:56+00:00,3.97261095047,4,versionC_stim.csv,READVersionD.csv,"Read Version D","Dissertation, read only version D",Morning,TEMPERATURE,Study2,U,173,109,Test,User,-,,Recall,Recall1,3808,"Night ",12.5,1991,2674,0,0,,0.632
10005890KB,z7teer6f4s,Nick_Dissertation_EX1_EP,1,144,2021-11-29T19:07:59+00:00,3.9552071094513,4,versionC_stim.csv,READVersionD.csv,"Read Version D","Dissertation, read only version D",CAR,DRIVER,Study2,B,106,101,Test,User,-,,Recall,Recall1,3673,"Drive ",90.909090909091,2291,2804,0,1,,0.579
10005890KB,z7teer6f4s,Nick_Dissertation_EX1_EP,1,145,2021-11-29T19:08:06+00:00,6.488734960556,4,versionC_stim.csv,READVersionD.csv,"Read Version D","Dissertation, read only version D",TIE,SHOELACE,Study2,B,99,167,Test,User,-,,Recall,Recall1,6350,"Lace ",66.666666666667,3432,5364,0,0,,0.688
10005890KB,z7teer6f4s,Nick_Dissertation_EX1_EP,1,146,2021-11-29T19:08:12+00:00,5.6315810680389,4,versionC_stim.csv,READVersionD.csv,"Read Version D","Dissertation, read only version D",CUT,CHOP,Study2,B,107,126,Test,User,-,,Recall,Recall1,5501,"Tear ",0,4094,4590,0,0,,0.75
10005890KB,z7teer6f4s,Nick_Dissertation_EX1_EP,1,147,2021-11-29T19:08:16+00:00,4.6651158332825,4,versionC_stim.csv,READVersionD.csv,"Read Version D","Dissertation, read only version D",PENGUIN,BIRD,Study2,F,119,127,Test,User,-,,Recall,Recall1,4525,"Bird ",100,2915,3469,1,1,,0.478
10005890KB,z7teer6f4s,Nick_Dissertation_EX1_EP,1,148,2021-11-29T19:08:20+00:00,3.720635175705,4,versionC_stim.csv,READVersionD.csv,"Read Version D","Dissertation, read only version D",WINDSHIELD,CAR,Study2,F,117,131,Test,User,-,,Recall,Recall1,3594,"Car ",100,2322,2638,1,1,,0.556
10005890KB,z7teer6f4s,Nick_Dissertation_EX1_EP,1,149,2021-11-29T19:08:24+00:00,4.2464377880096,4,versionC_stim.csv,READVersionD.csv,"Read Version D","Dissertation, read only version D",DRINK,WATER,Study2,S,143,163,Test,User,-,,Recall,Recall1,4102,"Cup ",0,2713,3216,0,0,,0.667
10005890KB,z7teer6f4s,Nick_Dissertation_EX1_EP,1,150,2021-11-29T19:08:28+00:00,3.9326901435852,4,versionC_stim.csv,READVersionD.csv,"Read Version D","Dissertation, read only version D",HAVE,OWN,Study2,S,153,119,Test,User,-,,Recall,Recall1,3805,"Take ",0,2621,2948,0,0,,0.632
10005890KB,z7teer6f4s,Nick_Dissertation_EX1_EP,1,151,2021-11-29T19:08:57+00:00,29.298244953156,4,versionC_stim.csv,READVersionD.csv,"Read Version D","Dissertation, read only version D",MYSTERY,DETECTIVE,Study2,B,100,112,Test,User,-,,Recall,Recall1,29160,"Unknown ",0,27205,28172,0,0,,0.096
10005890KB,z7teer6f4s,Nick_Dissertation_EX1_EP,1,152,2021-11-29T19:09:07+00:00,9.396194934845,4,versionC_stim.csv,READVersionD.csv,"Read Version D","Dissertation, read only version D",SCAR,MAIN,Study2,U,175,136,Test,User,-,,Recall,Recall1,4238,"Cut ",0,3018,3331,0,0,,0.455
10005890KB,z7teer6f4s,Nick_Dissertation_EX1_EP,1,153,2021-11-29T19:09:12+00:00,5.2398920059204,4,versionC_stim.csv,READVersionD.csv,"Read Version D","Dissertation, read only version D",TOIL,LEASE,Study2,U,170,137,Test,User,-,,Recall,Recall1,4950,,0,-1,-1,0,0,,0.4
10005890KB,z7teer6f4s,Nick_Dissertation_EX1_EP,1,154,2021-11-29T19:09:17+00:00,4.4262900352478,4,versionC_stim.csv,READVersionD.csv,"Read Version D","Dissertation, read only version D",FIGHT,FEUD,Study2,B,113,157,Test,User,-,,Recall,Recall1,4306,,0,-1,-1,0,0,,0
10005890KB,z7teer6f4s,Nick_Dissertation_EX1_EP,1,155,2021-11-29T19:09:18+00:00,1.5556409358978,4,versionC_stim.csv,READVersionD.csv,"Read Version D","Dissertation, read only version D",CHARM,VEHICLE,Study2,U,160,171,Test,User,-,,Recall,Recall1,1452,,0,-1,-1,0,0,,1
10005890KB,z7teer6f4s,Nick_Dissertation_EX1_EP,1,156,2021-11-29T19:09:22+00:00,3.8369741439819,4,versionC_stim.csv,READVersionD.csv,"Read Version D","Dissertation, read only version D",TICK,FLEA,Study2,S,151,155,Test,User,-,,Recall,Recall1,3703,"Tok ",0,2428,2879,0,0,,1
10005890KB,z7teer6f4s,Nick_Dissertation_EX1_EP,1,157,2021-11-29T19:09:26+00:00,4.4116280078888,4,versionC_stim.csv,READVersionD.csv,"Read Version D","Dissertation, read only version D",AIRCRAFT,PLANE,Study2,F,129,148,Test,User,-,,Recall,Recall1,4275,"Fly ",25,2282,3451,0,0,,0.591
10005890KB,z7teer6f4s,Nick_Dissertation_EX1_EP,1,158,2021-11-29T19:09:31+00:00,4.6331269741058,4,versionC_stim.csv,READVersionD.csv,"Read Version D","Dissertation, read only version D",CHILDREN,MIRROR,Study2,U,174,153,Test,User,-,,Recall,Recall1,4477,"Small ",18.181818181818,3171,3736,0,0,,0.609
10005890KB,z7teer6f4s,Nick_Dissertation_EX1_EP,1,159,2021-11-29T19:09:40+00:00,9.3784189224243,4,versionC_stim.csv,READVersionD.csv,"Read Version D","Dissertation, read only version D",LEAGUE,BASEBALL,Study2,F,131,132,Test,User,-,,Recall,Recall1,4231,Baseball,100,2427,3228,1,1,,0.591
10005890KB,z7teer6f4s,Nick_Dissertation_EX1_EP,1,160,2021-11-29T19:09:44+00:00,4.127023935318,4,versionC_stim.csv,READVersionD.csv,"Read Version D","Dissertation, read only version D",BANKER,MONEY,Study2,F,132,106,Test,User,-,,Recall,Recall1,3894,"Teller ",18.181818181818,2416,3063,0,0,,0.55
10005890KB,z7teer6f4s,Nick_Dissertation_EX1_EP,1,161,2021-11-29T19:09:48+00:00,3.8851490020752,4,versionC_stim.csv,READVersionD.csv,"Read Version D","Dissertation, read only version D",CLOTHES,CAKE,Study2,U,166,142,Test,User,-,,Recall,Recall1,3769,"Wear ",25,2244,2942,0,0,,0.632
10005890KB,z7teer6f4s,Nick_Dissertation_EX1_EP,1,162,2021-11-29T19:09:54+00:00,5.842490196228,4,versionC_stim.csv,READVersionD.csv,"Read Version D","Dissertation, read only version D",STEAK,GIVE,Study2,U,158,129,Test,User,-,,Recall,Recall1,5699,"Give ",100,4210,4673,1,1,,0.759
10005890KB,z7teer6f4s,Nick_Dissertation_EX1_EP,1,163,2021-11-29T19:10:07+00:00,13.0956158638,4,versionC_stim.csv,READVersionD.csv,"Read Version D","Dissertation, read only version D",DONKEY,MULE,Study2,B,108,162,Test,User,-,,Recall,Recall1,12950,"Mike ",50,11620,12088,0,0,,0.892
10005890KB,z7teer6f4s,Nick_Dissertation_EX1_EP,1,164,2021-11-29T19:10:11+00:00,3.3562550544739,4,versionC_stim.csv,READVersionD.csv,"Read Version D","Dissertation, read only version D",SARDINE,FISH,Study2,F,130,147,Test,User,-,,Recall,Recall1,3218,"Fish ",100,1993,2410,1,1,,0.588
10005890KB,z7teer6f4s,Nick_Dissertation_EX1_EP,1,165,2021-11-29T19:10:16+00:00,4.929869890213,4,versionC_stim.csv,READVersionD.csv,"Read Version D","Dissertation, read only version D",BRACELET,WRIST,Study2,S,140,141,Test,User,-,,Recall,Recall1,4797,"Wrist ",100,3390,3990,1,1,,0.708
10005890KB,z7teer6f4s,Nick_Dissertation_EX1_EP,1,166,2021-11-29T19:10:20+00:00,4.0043201446533,4,versionC_stim.csv,READVersionD.csv,"Read Version D","Dissertation, read only version D",NOISE,LOUD,Study2,S,152,113,Test,User,-,,Recall,Recall1,3884,"Silence ",18.181818181818,2209,2974,0,0,,0.7
10005890KB,z7teer6f4s,Nick_Dissertation_EX1_EP,1,167,2021-11-29T19:10:27+00:00,7.8904218673706,4,versionC_stim.csv,READVersionD.csv,"Read Version D","Dissertation, read only version D",SIGN,LOAN,Study2,U,171,97,Test,User,-,,Recall,Recall1,7772,Language,50,3212,4924,0,0,,0.615
10005890KB,z7teer6f4s,Nick_Dissertation_EX1_EP,1,168,2021-11-29T19:10:37+00:00,9.7900149822235,4,versionC_stim.csv,READVersionD.csv,"Read Version D","Dissertation, read only version D",FICTION,LISTEN,Study2,U,164,118,Test,User,-,,Recall,Recall1,4639,"Fake ",20,3453,3764,0,0,,1
10005890KB,z7teer6f4s,Nick_Dissertation_EX1_EP,1,169,2021-11-29T19:10:45+00:00,7.5468561649323,4,versionC_stim.csv,READVersionD.csv,"Read Version D","Dissertation, read only version D",CLOTH,STRETCH,Study2,U,157,107,Test,User,-,,Recall,Recall1,7304,"Fabric ",30.769230769231,4810,5474,0,0,,0.514
10005890KB,z7teer6f4s,Nick_Dissertation_EX1_EP,1,170,2021-11-29T19:10:49+00:00,3.8684899806976,4,versionC_stim.csv,READVersionD.csv,"Read Version D","Dissertation, read only version D",BANG,FUZZY,Study2,U,168,105,Test,User,-,,Recall,Recall1,3741,"Shoot ",0,2335,2885,0,0,,1
10005890KB,z7teer6f4s,Nick_Dissertation_EX1_EP,1,171,2021-11-29T19:10:57+00:00,8.3638298511505,4,versionC_stim.csv,READVersionD.csv,"Read Version D","Dissertation, read only version D",MAROON,JUSTICE,Study2,U,156,100,Test,User,-,,Recall,Recall1,8249,"Rig ",20,4286,6401,0,0,,0.667
10005890KB,z7teer6f4s,Nick_Dissertation_EX1_EP,1,172,2021-11-29T19:11:23+00:00,26.250482082367,4,versionC_stim.csv,READVersionD.csv,"Read Version D","Dissertation, read only version D",REVENGE,EVEN,Study2,F,122,116,Test,User,-,,Recall,Recall1,26093,,0,-1,-1,0,0,,1
10005890KB,z7teer6f4s,Nick_Dissertation_EX1_EP,1,173,2021-11-29T19:11:27+00:00,3.3857691287994,4,versionC_stim.csv,READVersionD.csv,"Read Version D","Dissertation, read only version D",EAT,DINE,Study2,B,111,98,Test,User,-,,Recall,Recall1,3258,"Food ",25,2020,2385,0,0,,0.588
10005890KB,z7teer6f4s,Nick_Dissertation_EX1_EP,1,174,2021-11-29T19:11:32+00:00,5.0306079387665,4,versionC_stim.csv,READVersionD.csv,"Read Version D","Dissertation, read only version D",COLD,CHILL,Study2,B,114,156,Test,User,-,,Recall,Recall1,4874,"Hot ",25,2053,3969,0,0,,0.72
10005890KB,z7teer6f4s,Nick_Dissertation_EX1_EP,1,175,2021-11-29T19:11:35+00:00,3.57608294487,4,versionC_stim.csv,READVersionD.csv,"Read Version D","Dissertation, read only version D",EQUAL,RIGHTS,Study2,S,137,102,Test,User,-,,Recall,Recall1,3442,"Rights ",100,1899,2562,1,1,,0.667
10005890KB,z7teer6f4s,Nick_Dissertation_EX1_EP,1,176,2021-11-29T19:11:49+00:00,13.34568810463,4,versionC_stim.csv,READVersionD.csv,"Read Version D","Dissertation, read only version D",CLEAR,MOAT,Study2,U,169,139,Test,User,-,,Recall,Recall1,8189,"Foggy ",22.222222222222,6621,7282,0,0,,0.854
10005890KB,z7teer6f4s,Nick_Dissertation_EX1_EP,1,177,2021-11-29T19:12:00+00:00,11.766352891922,4,versionC_stim.csv,READVersionD.csv,"Read Version D","Dissertation, read only version D",,,,,,0,Instruct,-,10,"You will now be presented with a new set of word pairs. Please study each pair. Remember that your memory will be tested! When finished, press Enter to move to the next pair.",Initial_Instruct,Instruct4,11582,,,-1,-1,,,,0.759
10005890KB,z7teer6f4s,Nick_Dissertation_EX1_EP,1,178,2021-11-29T19:12:20+00:00,19.764698028564,4,versionC_stim.csv,READVersionD.csv,"Read Version D","Dissertation, read only version D",,,,,,0,Instruct,User,-,"Each word will be displayed on the computer screen for 8 seconds. The screen will automatically move to the next pair when time is up. Press Enter when you are ready to begin.",,Instruct11,19620,,,-1,-1,,,,1
10005890KB,z7teer6f4s,Nick_Dissertation_EX1_EP,1,179,2021-11-29T19:12:28+00:00,8.1531429290771,4,versionC_stim.csv,READVersionD.csv,"Read Version D","Dissertation, read only version D",HIDE,SCARE,BUFFER1,Buffer,4,2,Study,8,8,,Study/JOL,BUFFER3,8004,,,-1,-1,,,,1
10005890KB,z7teer6f4s,Nick_Dissertation_EX1_EP,1,180,2021-11-29T19:12:36+00:00,8.1510591506958,4,versionC_stim.csv,READVersionD.csv,"Read Version D","Dissertation, read only version D",GREEN,TREES,BUFFER1,Buffer,1,6,Study,8,8,,Study/JOL,BUFFER3,8002,,,-1,-1,,,,1
10005890KB,z7teer6f4s,Nick_Dissertation_EX1_EP,1,181,2021-11-29T19:12:45+00:00,8.1478099822998,4,versionC_stim.csv,READVersionD.csv,"Read Version D","Dissertation, read only version D",BUTTER,PEANUT,BUFFER1,Buffer,3,4,Study,8,8,,Study/JOL,BUFFER3,8002,,,-1,-1,,,,1
10005890KB,z7teer6f4s,Nick_Dissertation_EX1_EP,1,182,2021-11-29T19:12:53+00:00,8.1474719047546,4,versionC_stim.csv,READVersionD.csv,"Read Version D","Dissertation, read only version D",JAM,SPACE,BUFFER1,Buffer,5,5,Study,8,8,,Study/JOL,BUFFER3,8001,,,-1,-1,,,,1
10005890KB,z7teer6f4s,Nick_Dissertation_EX1_EP,1,183,2021-11-29T19:13:01+00:00,8.1495339870453,4,versionC_stim.csv,READVersionD.csv,"Read Version D","Dissertation, read only version D",CATCHER,BASEBALL,BUFFER1,Buffer,2,3,Study,8,8,,Study/JOL,BUFFER3,8001,,,-1,-1,,,,1
10005890KB,z7teer6f4s,Nick_Dissertation_EX1_EP,1,184,2021-11-29T19:13:09+00:00,8.1470971107483,4,versionC_stim.csv,READVersionD.csv,"Read Version D","Dissertation, read only version D",LIVER,KIDNEY,Study1,S,53,76,Study,8,8,,Study/JOL,"Study Phase2",8002,,,-1,-1,,,,1
10005890KB,z7teer6f4s,Nick_Dissertation_EX1_EP,1,185,2021-11-29T19:13:22+00:00,13.153566837311,4,versionC_stim.csv,READVersionD.csv,"Read Version D","Dissertation, read only version D",RACKET,BALL,Study1,F,38,60,Study,8,8,,Study/JOL,"Study Phase2",8002,,,-1,-1,,,,1
10005890KB,z7teer6f4s,Nick_Dissertation_EX1_EP,1,186,2021-11-29T19:13:30+00:00,8.2180321216583,4,versionC_stim.csv,READVersionD.csv,"Read Version D","Dissertation, read only version D",CLUTTER,PUSHER,Study1,U,66,61,Study,8,8,,Study/JOL,"Study Phase2",8011,,,-1,-1,,,,1
10005890KB,z7teer6f4s,Nick_Dissertation_EX1_EP,1,187,2021-11-29T19:13:39+00:00,8.1442718505859,4,versionC_stim.csv,READVersionD.csv,"Read Version D","Dissertation, read only version D",WOMAN,LIFT,Study1,U,69,73,Study,8,8,,Study/JOL,"Study Phase2",8002,,,-1,-1,,,,1
10005890KB,z7teer6f4s,Nick_Dissertation_EX1_EP,1,188,2021-11-29T19:13:47+00:00,8.1488990783691,4,versionC_stim.csv,READVersionD.csv,"Read Version D","Dissertation, read only version D",ENOUGH,FULL,Study1,F,26,59,Study,8,8,,Study/JOL,"Study Phase2",8002,,,-1,-1,,,,1
10005890KB,z7teer6f4s,Nick_Dissertation_EX1_EP,1,189,2021-11-29T19:14:00+00:00,13.150013923645,4,versionC_stim.csv,READVersionD.csv,"Read Version D","Dissertation, read only version D",CAR,HAPPY,Study1,U,77,24,Study,8,8,,Study/JOL,"Study Phase2",8002,,,-1,-1,,,,1
10005890KB,z7teer6f4s,Nick_Dissertation_EX1_EP,1,190,2021-11-29T19:14:08+00:00,8.2257552146912,4,versionC_stim.csv,READVersionD.csv,"Read Version D","Dissertation, read only version D",CHEESE,WINE,Study1,S,57,67,Study,8,8,,Study/JOL,"Study Phase2",8002,,,-1,-1,,,,1
10005890KB,z7teer6f4s,Nick_Dissertation_EX1_EP,1,191,2021-11-29T19:14:16+00:00,8.1430628299713,4,versionC_stim.csv,READVersionD.csv,"Read Version D","Dissertation, read only version D",ASSIGNMENT,DUE,Study1,S,46,26,Study,8,8,,Study/JOL,"Study Phase2",8002,,,-1,-1,,,,1
10005890KB,z7teer6f4s,Nick_Dissertation_EX1_EP,1,192,2021-11-29T19:14:24+00:00,8.1532070636749,4,versionC_stim.csv,READVersionD.csv,"Read Version D","Dissertation, read only version D",ATTORNEY,LAW,Study1,F,34,12,Study,8,8,,Study/JOL,"Study Phase2",8002,,,-1,-1,,,,1
10005890KB,z7teer6f4s,Nick_Dissertation_EX1_EP,1,193,2021-11-29T19:14:33+00:00,8.1423010826111,4,versionC_stim.csv,READVersionD.csv,"Read Version D","Dissertation, read only version D",BAR,GRILL,Study1,S,52,19,Study,8,8,,Study/JOL,"Study Phase2",8000,,,-1,-1,,,,1
10005890KB,z7teer6f4s,Nick_Dissertation_EX1_EP,1,194,2021-11-29T19:14:41+00:00,8.1422510147095,4,versionC_stim.csv,READVersionD.csv,"Read Version D","Dissertation, read only version D",BLAZE,FIRE,Study1,F,45,68,Study,8,8,,Study/JOL,"Study Phase2",8002,,,-1,-1,,,,1
10005890KB,z7teer6f4s,Nick_Dissertation_EX1_EP,1,195,2021-11-29T19:14:49+00:00,8.1466720104218,4,versionC_stim.csv,READVersionD.csv,"Read Version D","Dissertation, read only version D",STING,HORNET,Study1,B,11,53,Study,8,8,,Study/JOL,"Study Phase2",8002,,,-1,-1,,,,1
10005890KB,z7teer6f4s,Nick_Dissertation_EX1_EP,1,196,2021-11-29T19:14:57+00:00,8.1473639011383,4,versionC_stim.csv,READVersionD.csv,"Read Version D","Dissertation, read only version D",ROUND,CIRCLE,Study1,S,65,63,Study,8,8,,Study/JOL,"Study Phase2",8002,,,-1,-1,,,,1
10005890KB,z7teer6f4s,Nick_Dissertation_EX1_EP,1,197,2021-11-29T19:15:05+00:00,8.1548960208893,4,versionC_stim.csv,READVersionD.csv,"Read Version D","Dissertation, read only version D",JURY,TRIAL,Study1,S,50,32,Study,8,8,,Study/JOL,"Study Phase2",8001,,,-1,-1,,,,1
10005890KB,z7teer6f4s,Nick_Dissertation_EX1_EP,1,198,2021-11-29T19:15:13+00:00,8.149199962616,4,versionC_stim.csv,READVersionD.csv,"Read Version D","Dissertation, read only version D",STENCH,SMELL,Study1,F,42,29,Study,8,8,,Study/JOL,"Study Phase2",8004,,,-1,-1,,,,1
10005890KB,z7teer6f4s,Nick_Dissertation_EX1_EP,1,199,2021-11-29T19:15:21+00:00,8.1488831043243,4,versionC_stim.csv,READVersionD.csv,"Read Version D","Dissertation, read only version D",SICK,HIDE,Study1,U,84,78,Study,8,8,,Study/JOL,"Study Phase2",8001,,,-1,-1,,,,1
10005890KB,z7teer6f4s,Nick_Dissertation_EX1_EP,1,200,2021-11-29T19:15:30+00:00,8.1394639015198,4,versionC_stim.csv,READVersionD.csv,"Read Version D","Dissertation, read only version D",CARD,CREDIT,Study1,B,23,62,Study,8,8,,Study/JOL,"Study Phase2",8009,,,-1,-1,,,,1
10005890KB,z7teer6f4s,Nick_Dissertation_EX1_EP,1,201,2021-11-29T19:15:38+00:00,8.1416330337524,4,versionC_stim.csv,READVersionD.csv,"Read Version D","Dissertation, read only version D",POSITION,MACHINE,Study1,U,76,21,Study,8,8,,Study/JOL,"Study Phase2",8002,,,-1,-1,,,,1
10005890KB,z7teer6f4s,Nick_Dissertation_EX1_EP,1,202,2021-11-29T19:15:46+00:00,8.1504430770874,4,versionC_stim.csv,READVersionD.csv,"Read Version D","Dissertation, read only version D",BUSINESS,DEATH,Study1,U,72,79,Study,8,8,,Study/JOL,"Study Phase2",8001,,,-1,-1,,,,1
10005890KB,z7teer6f4s,Nick_Dissertation_EX1_EP,1,203,2021-11-29T19:15:54+00:00,8.1526198387146,4,versionC_stim.csv,READVersionD.csv,"Read Version D","Dissertation, read only version D",LATCH,KEY,Study1,F,36,85,Study,8,8,,Study/JOL,"Study Phase2",8001,,,-1,-1,,,,1
10005890KB,z7teer6f4s,Nick_Dissertation_EX1_EP,1,204,2021-11-29T19:16:02+00:00,8.1570839881897,4,versionC_stim.csv,READVersionD.csv,"Read Version D","Dissertation, read only version D",WORD,SENTENCE,Study1,F,31,44,Study,8,8,,Study/JOL,"Study Phase2",8001,,,-1,-1,,,,1
10005890KB,z7teer6f4s,Nick_Dissertation_EX1_EP,1,205,2021-11-29T19:16:10+00:00,8.1445879936218,4,versionC_stim.csv,READVersionD.csv,"Read Version D","Dissertation, read only version D",FAMINE,HUNGER,Study1,F,40,43,Study,8,8,,Study/JOL,"Study Phase2",8001,,,-1,-1,,,,1
10005890KB,z7teer6f4s,Nick_Dissertation_EX1_EP,1,206,2021-11-29T19:16:18+00:00,8.142322063446,4,versionC_stim.csv,READVersionD.csv,"Read Version D","Dissertation, read only version D",FUTURE,PAST,Study1,S,61,13,Study,8,8,,Study/JOL,"Study Phase2",8001,,,-1,-1,,,,1
10005890KB,z7teer6f4s,Nick_Dissertation_EX1_EP,1,207,2021-11-29T19:16:27+00:00,8.2190248966217,4,versionC_stim.csv,READVersionD.csv,"Read Version D","Dissertation, read only version D",ROCK,GEOLOGY,Study1,B,19,46,Study,8,8,,Study/JOL,"Study Phase2",8001,,,-1,-1,,,,1
10005890KB,z7teer6f4s,Nick_Dissertation_EX1_EP,1,208,2021-11-29T19:16:35+00:00,8.1521570682526,4,versionC_stim.csv,READVersionD.csv,"Read Version D","Dissertation, read only version D",DESIGN,ARCHITECTURE,Study1,S,51,86,Study,8,8,,Study/JOL,"Study Phase2",8002,,,-1,-1,,,,1
10005890KB,z7teer6f4s,Nick_Dissertation_EX1_EP,1,209,2021-11-29T19:16:43+00:00,8.1360609531403,4,versionC_stim.csv,READVersionD.csv,"Read Version D","Dissertation, read only version D",TOILET,BATHROOM,Study1,S,58,31,Study,8,8,,Study/JOL,"Study Phase2",8001,,,-1,-1,,,,1
10005890KB,z7teer6f4s,Nick_Dissertation_EX1_EP,1,210,2021-11-29T19:16:51+00:00,8.1418449878693,4,versionC_stim.csv,READVersionD.csv,"Read Version D","Dissertation, read only version D",PLANT,ROOT,Study1,B,13,74,Study,8,8,,Study/JOL,"Study Phase2",8001,,,-1,-1,,,,1
10005890KB,z7teer6f4s,Nick_Dissertation_EX1_EP,1,211,2021-11-29T19:16:59+00:00,8.1542580127716,4,versionC_stim.csv,READVersionD.csv,"Read Version D","Dissertation, read only version D",FLOOR,DISCOVER,Study1,U,71,70,Study,8,8,,Study/JOL,"Study Phase2",8008,,,-1,-1,,,,1
10005890KB,z7teer6f4s,Nick_Dissertation_EX1_EP,1,212,2021-11-29T19:17:08+00:00,8.3614180088043,4,versionC_stim.csv,READVersionD.csv,"Read Version D","Dissertation, read only version D",AMOUNT,NUMBER,Study1,S,47,39,Study,8,8,,Study/JOL,"Study Phase2",8004,,,-1,-1,,,,1
10005890KB,z7teer6f4s,Nick_Dissertation_EX1_EP,1,213,2021-11-29T19:17:16+00:00,8.2911190986633,4,versionC_stim.csv,READVersionD.csv,"Read Version D","Dissertation, read only version D",CHILD,BABY,Study1,S,64,11,Study,8,8,,Study/JOL,"Study Phase2",8001,,,-1,-1,,,,1
10005890KB,z7teer6f4s,Nick_Dissertation_EX1_EP,1,214,2021-11-29T19:17:24+00:00,8.1554539203644,4,versionC_stim.csv,READVersionD.csv,"Read Version D","Dissertation, read only version D",NEWS,EDITOR,Study1,B,10,50,Study,8,8,,Study/JOL,"Study Phase2",8002,,,-1,-1,,,,1
10005890KB,z7teer6f4s,Nick_Dissertation_EX1_EP,1,215,2021-11-29T19:17:32+00:00,8.1408181190491,4,versionC_stim.csv,READVersionD.csv,"Read Version D","Dissertation, read only version D",RIDDLE,SUGAR,Study1,U,81,54,Study,8,8,,Study/JOL,"Study Phase2",8001,,,-1,-1,,,,1
10005890KB,z7teer6f4s,Nick_Dissertation_EX1_EP,1,216,2021-11-29T19:17:40+00:00,8.1555969715118,4,versionC_stim.csv,READVersionD.csv,"Read Version D","Dissertation, read only version D",CLEAN,HYGIENE,Study1,B,17,75,Study,8,8,,Study/JOL,"Study Phase2",8001,,,-1,-1,,,,1
10005890KB,z7teer6f4s,Nick_Dissertation_EX1_EP,1,217,2021-11-29T19:17:48+00:00,8.1391658782959,4,versionC_stim.csv,READVersionD.csv,"Read Version D","Dissertation, read only version D",MONEY,WAGE,Study1,B,8,18,Study,8,8,,Study/JOL,"Study Phase2",8001,,,-1,-1,,,,1
10005890KB,z7teer6f4s,Nick_Dissertation_EX1_EP,1,218,2021-11-29T19:17:57+00:00,8.320540189743,4,versionC_stim.csv,READVersionD.csv,"Read Version D","Dissertation, read only version D",BAD,DELINQUENT,Study1,B,6,80,Study,8,8,,Study/JOL,"Study Phase2",8002,,,-1,-1,,,,1
10005890KB,z7teer6f4s,Nick_Dissertation_EX1_EP,1,219,2021-11-29T19:18:05+00:00,8.2156658172607,4,versionC_stim.csv,READVersionD.csv,"Read Version D","Dissertation, read only version D",BELT,SOON,Study1,U,70,16,Study,8,8,,Study/JOL,"Study Phase2",8001,,,-1,-1,,,,1
10005890KB,z7teer6f4s,Nick_Dissertation_EX1_EP,1,220,2021-11-29T19:18:13+00:00,8.1805720329285,4,versionC_stim.csv,READVersionD.csv,"Read Version D","Dissertation, read only version D",SIP,DRINK,Study1,F,27,83,Study,8,8,,Study/JOL,"Study Phase2",8002,,,-1,-1,,,,1
10005890KB,z7teer6f4s,Nick_Dissertation_EX1_EP,1,221,2021-11-29T19:18:22+00:00,8.4395639896393,4,versionC_stim.csv,READVersionD.csv,"Read Version D","Dissertation, read only version D",BIRD,SWAN,Study1,B,14,28,Study,8,8,,Study/JOL,"Study Phase2",8003,,,-1,-1,,,,1
10005890KB,z7teer6f4s,Nick_Dissertation_EX1_EP,1,222,2021-11-29T19:18:30+00:00,8.3458909988403,4,versionC_stim.csv,READVersionD.csv,"Read Version D","Dissertation, read only version D",FISH,TUNA,Study1,B,25,45,Study,8,8,,Study/JOL,"Study Phase2",8002,,,-1,-1,,,,1
10005890KB,z7teer6f4s,Nick_Dissertation_EX1_EP,1,223,2021-11-29T19:18:38+00:00,8.1696691513062,4,versionC_stim.csv,READVersionD.csv,"Read Version D","Dissertation, read only version D",OUT,WAY,Study1,B,16,57,Study,8,8,,Study/JOL,"Study Phase2",8009,,,-1,-1,,,,1
10005890KB,z7teer6f4s,Nick_Dissertation_EX1_EP,1,224,2021-11-29T19:18:46+00:00,8.1625578403473,4,versionC_stim.csv,READVersionD.csv,"Read Version D","Dissertation, read only version D",WATER,BRIDGE,Study1,B,18,82,Study,8,8,,Study/JOL,"Study Phase2",8010,,,-1,-1,,,,1
10005890KB,z7teer6f4s,Nick_Dissertation_EX1_EP,1,225,2021-11-29T19:18:54+00:00,8.140732049942,4,versionC_stim.csv,READVersionD.csv,"Read Version D","Dissertation, read only version D",CHILI,HOT,Study1,F,37,49,Study,8,8,,Study/JOL,"Study Phase2",8002,,,-1,-1,,,,1
10005890KB,z7teer6f4s,Nick_Dissertation_EX1_EP,1,226,2021-11-29T19:19:03+00:00,8.1501469612122,4,versionC_stim.csv,READVersionD.csv,"Read Version D","Dissertation, read only version D",COW,HERD,Study1,B,22,8,Study,8,8,,Study/JOL,"Study Phase2",8002,,,-1,-1,,,,1
10005890KB,z7teer6f4s,Nick_Dissertation_EX1_EP,1,227,2021-11-29T19:19:11+00:00,8.1455430984497,4,versionC_stim.csv,READVersionD.csv,"Read Version D","Dissertation, read only version D",TUCK,ALLOW,Study1,U,78,35,Study,8,8,,Study/JOL,"Study Phase2",8002,,,-1,-1,,,,1
10005890KB,z7teer6f4s,Nick_Dissertation_EX1_EP,1,228,2021-11-29T19:19:19+00:00,8.3355710506439,4,versionC_stim.csv,READVersionD.csv,"Read Version D","Dissertation, read only version D",TALK,DISCUSSION,Study1,B,21,65,Study,8,8,,Study/JOL,"Study Phase2",8002,,,-1,-1,,,,1
10005890KB,z7teer6f4s,Nick_Dissertation_EX1_EP,1,229,2021-11-29T19:19:27+00:00,8.1540019512177,4,versionC_stim.csv,READVersionD.csv,"Read Version D","Dissertation, read only version D",FANTASTIC,GREAT,Study1,F,35,69,Study,8,8,,Study/JOL,"Study Phase2",8010,,,-1,-1,,,,1
10005890KB,z7teer6f4s,Nick_Dissertation_EX1_EP,1,230,2021-11-29T19:19:36+00:00,8.3132419586182,4,versionC_stim.csv,READVersionD.csv,"Read Version D","Dissertation, read only version D",PILOT,PLANE,Study1,F,44,15,Study,8,8,,Study/JOL,"Study Phase2",8002,,,-1,-1,,,,1
10005890KB,z7teer6f4s,Nick_Dissertation_EX1_EP,1,231,2021-11-29T19:19:44+00:00,8.1460039615631,4,versionC_stim.csv,READVersionD.csv,"Read Version D","Dissertation, read only version D",SODA,POP,Study1,S,56,14,Study,8,8,,Study/JOL,"Study Phase2",8002,,,-1,-1,,,,1
10005890KB,z7teer6f4s,Nick_Dissertation_EX1_EP,1,232,2021-11-29T19:19:52+00:00,8.1607661247253,4,versionC_stim.csv,READVersionD.csv,"Read Version D","Dissertation, read only version D",CAVE,DARK,Study1,F,28,27,Study,8,8,,Study/JOL,"Study Phase2",8002,,,-1,-1,,,,1
10005890KB,z7teer6f4s,Nick_Dissertation_EX1_EP,1,233,2021-11-29T19:20:00+00:00,8.1587829589844,4,versionC_stim.csv,READVersionD.csv,"Read Version D","Dissertation, read only version D",WIND,BLOW,Study1,S,55,17,Study,8,8,,Study/JOL,"Study Phase2",8001,,,-1,-1,,,,1
10005890KB,z7teer6f4s,Nick_Dissertation_EX1_EP,1,234,2021-11-29T19:20:08+00:00,8.1469180583954,4,versionC_stim.csv,READVersionD.csv,"Read Version D","Dissertation, read only version D",WOULD,CASH,Study1,U,83,56,Study,8,8,,Study/JOL,"Study Phase2",8002,,,-1,-1,,,,1
10005890KB,z7teer6f4s,Nick_Dissertation_EX1_EP,1,235,2021-11-29T19:20:16+00:00,8.145584821701,4,versionC_stim.csv,READVersionD.csv,"Read Version D","Dissertation, read only version D",CHORE,WORK,Study1,F,39,84,Study,8,8,,Study/JOL,"Study Phase2",8002,,,-1,-1,,,,1
10005890KB,z7teer6f4s,Nick_Dissertation_EX1_EP,1,236,2021-11-29T19:20:24+00:00,8.1454150676727,4,versionC_stim.csv,READVersionD.csv,"Read Version D","Dissertation, read only version D",ATTIRE,CLOTHES,Study1,F,43,20,Study,8,8,,Study/JOL,"Study Phase2",8002,,,-1,-1,,,,1
10005890KB,z7teer6f4s,Nick_Dissertation_EX1_EP,1,237,2021-11-29T19:20:33+00:00,8.1471779346466,4,versionC_stim.csv,READVersionD.csv,"Read Version D","Dissertation, read only version D",ADD,VALLEY,Study1,U,82,48,Study,8,8,,Study/JOL,"Study Phase2",8002,,,-1,-1,,,,1
10005890KB,z7teer6f4s,Nick_Dissertation_EX1_EP,1,238,2021-11-29T19:20:55+00:00,21.914802074432,4,versionC_stim.csv,READVersionD.csv,"Read Version D","Dissertation, read only version D",SITE,LOCATION,Study1,S,48,47,Study,8,8,,Study/JOL,"Study Phase2",21781,,,-1,-1,,,,0.857
10005890KB,z7teer6f4s,Nick_Dissertation_EX1_EP,1,239,2021-11-29T19:21:03+00:00,8.1311399936676,4,versionC_stim.csv,READVersionD.csv,"Read Version D","Dissertation, read only version D",SEIZE,TAKE,Study1,F,29,36,Study,8,8,,Study/JOL,"Study Phase2",8002,,,-1,-1,,,,1
10005890KB,z7teer6f4s,Nick_Dissertation_EX1_EP,1,240,2021-11-29T19:21:11+00:00,8.1518909931183,4,versionC_stim.csv,READVersionD.csv,"Read Version D","Dissertation, read only version D",HAMMER,CHISEL,Study1,B,9,34,Study,8,8,,Study/JOL,"Study Phase2",8001,,,-1,-1,,,,1
10005890KB,z7teer6f4s,Nick_Dissertation_EX1_EP,1,241,2021-11-29T19:21:19+00:00,8.1586549282074,4,versionC_stim.csv,READVersionD.csv,"Read Version D","Dissertation, read only version D",WASP,BUG,Study1,F,32,77,Study,8,8,,Study/JOL,"Study Phase2",8002,,,-1,-1,,,,1
10005890KB,z7teer6f4s,Nick_Dissertation_EX1_EP,1,242,2021-11-29T19:21:28+00:00,8.6404020786285,4,versionC_stim.csv,READVersionD.csv,"Read Version D","Dissertation, read only version D",LION,ART,Study1,U,79,52,Study,8,8,,Study/JOL,"Study Phase2",8002,,,-1,-1,,,,1
10005890KB,z7teer6f4s,Nick_Dissertation_EX1_EP,1,243,2021-11-29T19:21:36+00:00,8.1473150253296,4,versionC_stim.csv,READVersionD.csv,"Read Version D","Dissertation, read only version D",DROWSY,SLEEP,Study1,F,41,9,Study,8,8,,Study/JOL,"Study Phase2",8002,,,-1,-1,,,,1
10005890KB,z7teer6f4s,Nick_Dissertation_EX1_EP,1,244,2021-11-29T19:21:44+00:00,8.3204739093781,4,versionC_stim.csv,READVersionD.csv,"Read Version D","Dissertation, read only version D",GROWTH,HEIGHT,Study1,F,30,33,Study,8,8,,Study/JOL,"Study Phase2",8001,,,-1,-1,,,,1
10005890KB,z7teer6f4s,Nick_Dissertation_EX1_EP,1,245,2021-11-29T19:21:52+00:00,8.1430640220642,4,versionC_stim.csv,READVersionD.csv,"Read Version D","Dissertation, read only version D",BRONZE,ARTERY,Study1,U,74,23,Study,8,8,,Study/JOL,"Study Phase2",8000,,,-1,-1,,,,1
10005890KB,z7teer6f4s,Nick_Dissertation_EX1_EP,1,246,2021-11-29T19:22:00+00:00,8.1361320018768,4,versionC_stim.csv,READVersionD.csv,"Read Version D","Dissertation, read only version D",COLD,BITTER,Study1,B,12,30,Study,8,8,,Study/JOL,"Study Phase2",8001,,,-1,-1,,,,1
10005890KB,z7teer6f4s,Nick_Dissertation_EX1_EP,1,247,2021-11-29T19:22:09+00:00,8.1429879665375,4,versionC_stim.csv,READVersionD.csv,"Read Version D","Dissertation, read only version D",HAND,FIX,Study1,U,75,66,Study,8,8,,Study/JOL,"Study Phase2",8002,,,-1,-1,,,,1
10005890KB,z7teer6f4s,Nick_Dissertation_EX1_EP,1,248,2021-11-29T19:22:17+00:00,8.1511662006378,4,versionC_stim.csv,READVersionD.csv,"Read Version D","Dissertation, read only version D",HUNGRY,PARK,Study1,U,68,37,Study,8,8,,Study/JOL,"Study Phase2",8002,,,-1,-1,,,,1
10005890KB,z7teer6f4s,Nick_Dissertation_EX1_EP,1,249,2021-11-29T19:22:25+00:00,8.1458637714386,4,versionC_stim.csv,READVersionD.csv,"Read Version D","Dissertation, read only version D",DIVISION,MATH,Study1,F,33,51,Study,8,8,,Study/JOL,"Study Phase2",8002,,,-1,-1,,,,1
10005890KB,z7teer6f4s,Nick_Dissertation_EX1_EP,1,250,2021-11-29T19:22:33+00:00,8.5517852306366,4,versionC_stim.csv,READVersionD.csv,"Read Version D","Dissertation, read only version D",FLOWER,ORCHID,Study1,B,24,10,Study,8,8,,Study/JOL,"Study Phase2",8001,,,-1,-1,,,,1
10005890KB,z7teer6f4s,Nick_Dissertation_EX1_EP,1,251,2021-11-29T19:22:42+00:00,8.2605009078979,4,versionC_stim.csv,READVersionD.csv,"Read Version D","Dissertation, read only version D",ACCIDENT,STRONG,Study1,U,80,38,Study,8,8,,Study/JOL,"Study Phase2",8003,,,-1,-1,,,,1
10005890KB,z7teer6f4s,Nick_Dissertation_EX1_EP,1,252,2021-11-29T19:22:51+00:00,9.2343940734863,4,versionC_stim.csv,READVersionD.csv,"Read Version D","Dissertation, read only version D",END,BEGIN,Study1,S,54,22,Study,8,8,,Study/JOL,"Study Phase2",8002,,,-1,-1,,,,1
10005890KB,z7teer6f4s,Nick_Dissertation_EX1_EP,1,253,2021-11-29T19:22:59+00:00,8.1610879898071,4,versionC_stim.csv,READVersionD.csv,"Read Version D","Dissertation, read only version D",DEFINITION,MEANING,Study1,S,62,64,Study,8,8,,Study/JOL,"Study Phase2",8004,,,-1,-1,,,,1
10005890KB,z7teer6f4s,Nick_Dissertation_EX1_EP,1,254,2021-11-29T19:23:07+00:00,8.3103699684143,4,versionC_stim.csv,READVersionD.csv,"Read Version D","Dissertation, read only version D",WAR,REVOLUTION,Study1,B,20,55,Study,8,8,,Study/JOL,"Study Phase2",8002,,,-1,-1,,,,1
10005890KB,z7teer6f4s,Nick_Dissertation_EX1_EP,1,255,2021-11-29T19:23:15+00:00,8.1729998588562,4,versionC_stim.csv,READVersionD.csv,"Read Version D","Dissertation, read only version D",VASE,KING,Study1,U,85,42,Study,8,8,,Study/JOL,"Study Phase2",8002,,,-1,-1,,,,1
10005890KB,z7teer6f4s,Nick_Dissertation_EX1_EP,1,256,2021-11-29T19:23:24+00:00,8.1615149974823,4,versionC_stim.csv,READVersionD.csv,"Read Version D","Dissertation, read only version D",FOOT,SHOE,Study1,S,60,72,Study,8,8,,Study/JOL,"Study Phase2",8002,,,-1,-1,,,,1
10005890KB,z7teer6f4s,Nick_Dissertation_EX1_EP,1,257,2021-11-29T19:23:32+00:00,8.1075501441956,4,versionC_stim.csv,READVersionD.csv,"Read Version D","Dissertation, read only version D",SACKING,DIETARY,Study1,U,67,25,Study,8,8,,Study/JOL,"Study Phase2",8001,,,-1,-1,,,,1
10005890KB,z7teer6f4s,Nick_Dissertation_EX1_EP,1,258,2021-11-29T19:23:40+00:00,8.1307418346405,4,versionC_stim.csv,READVersionD.csv,"Read Version D","Dissertation, read only version D",SIGHT,DEBATE,Study1,U,73,7,Study,8,8,,Study/JOL,"Study Phase2",8003,,,-1,-1,,,,1
10005890KB,z7teer6f4s,Nick_Dissertation_EX1_EP,1,259,2021-11-29T19:23:48+00:00,8.2570540904999,4,versionC_stim.csv,READVersionD.csv,"Read Version D","Dissertation, read only version D",SALAD,LETTUCE,Study1,S,59,58,Study,8,8,,Study/JOL,"Study Phase2",8012,,,-1,-1,,,,1
10005890KB,z7teer6f4s,Nick_Dissertation_EX1_EP,1,260,2021-11-29T19:23:56+00:00,8.1671481132507,4,versionC_stim.csv,READVersionD.csv,"Read Version D","Dissertation, read only version D",WASTE,DUMP,Study1,S,49,40,Study,8,8,,Study/JOL,"Study Phase2",8002,,,-1,-1,,,,1
10005890KB,z7teer6f4s,Nick_Dissertation_EX1_EP,1,261,2021-11-29T19:24:04+00:00,8.1493179798126,4,versionC_stim.csv,READVersionD.csv,"Read Version D","Dissertation, read only version D",BEE,HONEY,Study1,S,63,71,Study,8,8,,Study/JOL,"Study Phase2",8002,,,-1,-1,,,,1
10005890KB,z7teer6f4s,Nick_Dissertation_EX1_EP,1,262,2021-11-29T19:24:13+00:00,8.1539919376373,4,versionC_stim.csv,READVersionD.csv,"Read Version D","Dissertation, read only version D",DOG,PAW,Study1,B,15,41,Study,8,8,,Study/JOL,"Study Phase2",8003,,,-1,-1,,,,1
10005890KB,z7teer6f4s,Nick_Dissertation_EX1_EP,1,263,2021-11-29T19:24:21+00:00,8.1486449241638,4,versionC_stim.csv,READVersionD.csv,"Read Version D","Dissertation, read only version D",STOMACH,DIGESTION,Study1,B,7,81,Study,8,8,,Study/JOL,"Study Phase2",8001,,,-1,-1,,,,1
10005890KB,z7teer6f4s,Nick_Dissertation_EX1_EP,1,264,2021-11-29T19:24:29+00:00,8.1327950954437,4,versionC_stim.csv,READVersionD.csv,"Read Version D","Dissertation, read only version D",GOOSE,GEESE,BUFFER2,Buffer,86,87,Study,8,8,,Study/JOL,BUFFER4,8002,,,-1,-1,,,,1
10005890KB,z7teer6f4s,Nick_Dissertation_EX1_EP,1,265,2021-11-29T19:24:37+00:00,8.2334609031677,4,versionC_stim.csv,READVersionD.csv,"Read Version D","Dissertation, read only version D",POLICE,SHERRIF,BUFFER2,Buffer,87,88,Study,8,8,,Study/JOL,BUFFER4,8002,,,-1,-1,,,,1
10005890KB,z7teer6f4s,Nick_Dissertation_EX1_EP,1,266,2021-11-29T19:24:45+00:00,8.1608929634094,4,versionC_stim.csv,READVersionD.csv,"Read Version D","Dissertation, read only version D",STUFF,THING,BUFFER2,Buffer,90,90,Study,8,8,,Study/JOL,BUFFER4,8004,,,-1,-1,,,,1
10005890KB,z7teer6f4s,Nick_Dissertation_EX1_EP,1,267,2021-11-29T19:24:53+00:00,8.1541221141815,4,versionC_stim.csv,READVersionD.csv,"Read Version D","Dissertation, read only version D",CHOCOLATE,MALT,BUFFER2,Buffer,88,91,Study,8,8,,Study/JOL,BUFFER4,8002,,,-1,-1,,,,1
10005890KB,z7teer6f4s,Nick_Dissertation_EX1_EP,1,268,2021-11-29T19:25:02+00:00,8.1479370594025,4,versionC_stim.csv,READVersionD.csv,"Read Version D","Dissertation, read only version D",SPACE,MOON,BUFFER2,Buffer,89,89,Study,8,8,,Study/JOL,BUFFER4,8002,,,-1,-1,,,,1
10005890KB,z7teer6f4s,Nick_Dissertation_EX1_EP,1,269,2021-11-29T19:25:05+00:00,3.4247260093689,4,versionC_stim.csv,READVersionD.csv,"Read Version D","Dissertation, read only version D",,,,,,0,Instruct,User,-,"You have completed this section. Please press Enter.",Filler_Instruction,Instruct5,3211,,,-1,-1,,,,1
10005890KB,z7teer6f4s,Nick_Dissertation_EX1_EP,1,270,2021-11-29T19:27:05+00:00,120.1571149826,4,versionC_stim.csv,READVersionD.csv,"Read Version D","Dissertation, read only version D",,,,,,0,FreeRecall,120,120,"Please list the 50 US states in reverse alphabetical order (z - a). The task will automatically advance to the next screen after two minutes.",,Filler2,120004,"Wyoming Wisconsin West Virginia Washington Virginia Vermont ",0,23787,81128,0,0,,0.86
10005890KB,z7teer6f4s,Nick_Dissertation_EX1_EP,1,271,2021-11-29T19:27:17+00:00,11.425662994385,4,versionC_stim.csv,READVersionD.csv,"Read Version D","Dissertation, read only version D",,,,,,0,Instruct,-,10,"You will now be presented with the first word from each of the previously studied item pairs. Please type the missing word. If you do not know the word, you may guess or press Enter to skip forward to the next pair.",,Instruct6,11202,,,-1,-1,,,,0.929
10005890KB,z7teer6f4s,Nick_Dissertation_EX1_EP,1,272,2021-11-29T19:28:14+00:00,57.551908016205,4,versionC_stim.csv,READVersionD.csv,"Read Version D","Dissertation, read only version D",FOOT,SHOE,Study1,S,60,72,Test,User,-,,Recall,Recall2,57394,"Ankle ",22.222222222222,55770,56370,0,0,,1
10005890KB,z7teer6f4s,Nick_Dissertation_EX1_EP,1,273,2021-11-29T19:31:08+00:00,173.54440784454,4,versionC_stim.csv,READVersionD.csv,"Read Version D","Dissertation, read only version D",WOULD,CASH,Study1,U,83,56,Test,User,-,,Recall,Recall2,173392,"Should ",40,171018,171726,0,0,,0.173
10005890KB,z7teer6f4s,Nick_Dissertation_EX1_EP,1,274,2021-11-29T19:31:13+00:00,4.8398811817169,4,versionC_stim.csv,READVersionD.csv,"Read Version D","Dissertation, read only version D",DEFINITION,MEANING,Study1,S,62,64,Test,User,-,,Recall,Recall2,4690,"Meaning ",100,2661,3385,1,1,,0.583
10005890KB,z7teer6f4s,Nick_Dissertation_EX1_EP,1,275,2021-11-29T19:32:03+00:00,50.620196819305,4,versionC_stim.csv,READVersionD.csv,"Read Version D","Dissertation, read only version D",ADD,VALLEY,Study1,U,82,48,Test,User,-,,Recall,Recall2,50472,"Subtract ",14.285714285714,47950,49471,0,0,,0.375
10005890KB,z7teer6f4s,Nick_Dissertation_EX1_EP,1,276,2021-11-29T19:32:44+00:00,40.378986120224,4,versionC_stim.csv,READVersionD.csv,"Read Version D","Dissertation, read only version D",CLUTTER,PUSHER,Study1,U,66,61,Test,User,-,,Recall,Recall2,40211,"Pusher ",100,38341,39204,1,1,,0.06
10005890KB,z7teer6f4s,Nick_Dissertation_EX1_EP,1,277,2021-11-29T19:33:07+00:00,23.679731845856,4,versionC_stim.csv,READVersionD.csv,"Read Version D","Dissertation, read only version D",BELT,SOON,Study1,U,70,16,Test,User,-,,Recall,Recall2,23534,Soon,100,22229,22649,1,1,,0.085
10005890KB,z7teer6f4s,Nick_Dissertation_EX1_EP,1,278,2021-11-29T19:33:16+00:00,8.7317831516266,4,versionC_stim.csv,READVersionD.csv,"Read Version D","Dissertation, read only version D",SEIZE,TAKE,Study1,F,29,36,Test,User,-,,Recall,Recall2,8576,"Take ",100,7360,7657,1,1,,0.814
10005890KB,z7teer6f4s,Nick_Dissertation_EX1_EP,1,279,2021-11-29T19:33:49+00:00,33.299789905548,4,versionC_stim.csv,READVersionD.csv,"Read Version D","Dissertation, read only version D",WORD,SENTENCE,Study1,F,31,44,Test,User,-,,Recall,Recall2,33136,"Sentence ",100,31299,32257,1,1,,0.078
10005890KB,z7teer6f4s,Nick_Dissertation_EX1_EP,1,280,2021-11-29T19:33:58+00:00,9.1667649745941,4,versionC_stim.csv,READVersionD.csv,"Read Version D","Dissertation, read only version D",SALAD,LETTUCE,Study1,S,59,58,Test,User,-,,Recall,Recall2,8623,"Lettuce ",100,6569,7618,1,1,,0.318
10005890KB,z7teer6f4s,Nick_Dissertation_EX1_EP,1,281,2021-11-29T19:34:23+00:00,25.067556142807,4,versionC_stim.csv,READVersionD.csv,"Read Version D","Dissertation, read only version D",SODA,POP,Study1,S,56,14,Test,User,-,,Recall,Recall2,24878,Pop,100,23586,23870,1,1,,0.08
10005890KB,z7teer6f4s,Nick_Dissertation_EX1_EP,1,282,2021-11-29T19:34:49+00:00,25.181364059448,4,versionC_stim.csv,READVersionD.csv,"Read Version D","Dissertation, read only version D",NEWS,EDITOR,Study1,B,10,50,Test,User,-,,Recall,Recall2,25026,"Editor ",100,23284,24031,1,1,,0.952
10005890KB,z7teer6f4s,Nick_Dissertation_EX1_EP,1,283,2021-11-29T19:34:58+00:00,8.8607778549194,4,versionC_stim.csv,READVersionD.csv,"Read Version D","Dissertation, read only version D",AMOUNT,NUMBER,Study1,S,47,39,Test,User,-,,Recall,Recall2,8724,"Number ",100,7161,7870,1,1,,0.818
10005890KB,z7teer6f4s,Nick_Dissertation_EX1_EP,1,284,2021-11-29T19:35:14+00:00,16.68989109993,4,versionC_stim.csv,READVersionD.csv,"Read Version D","Dissertation, read only version D",FISH,TUNA,Study1,B,25,45,Test,User,-,,Recall,Recall2,16530,"Tuna ",100,15190,15585,1,1,,0.916
10005890KB,z7teer6f4s,Nick_Dissertation_EX1_EP,1,285,2021-11-29T19:35:21+00:00,7.241730928421,4,versionC_stim.csv,READVersionD.csv,"Read Version D","Dissertation, read only version D",DOG,PAW,Study1,B,15,41,Test,User,-,,Recall,Recall2,7082,"Paw ",100,5883,6184,1,1,,0.833
10005890KB,z7teer6f4s,Nick_Dissertation_EX1_EP,1,286,2021-11-29T19:35:34+00:00,12.231200933456,4,versionC_stim.csv,READVersionD.csv,"Read Version D","Dissertation, read only version D",WASTE,DUMP,Study1,S,49,40,Test,User,-,,Recall,Recall2,12082,"Dump ",100,10513,11062,1,1,,0.902
10005890KB,z7teer6f4s,Nick_Dissertation_EX1_EP,1,287,2021-11-29T19:37:14+00:00,100.58556318283,4,versionC_stim.csv,READVersionD.csv,"Read Version D","Dissertation, read only version D",CLEAN,HYGIENE,Study1,B,17,75,Test,User,-,,Recall,Recall2,100453,,0,-1,-1,0,0,,0.912
10005890KB,z7teer6f4s,Nick_Dissertation_EX1_EP,1,288,2021-11-29T19:37:37+00:00,22.524831771851,4,versionC_stim.csv,READVersionD.csv,"Read Version D","Dissertation, read only version D",HUNGRY,PARK,Study1,U,68,37,Test,User,-,,Recall,Recall2,22328,"Park ",100,20961,21494,1,1,,1
10005890KB,z7teer6f4s,Nick_Dissertation_EX1_EP,1,289,2021-11-29T19:37:41+00:00,3.7907130718231,4,versionC_stim.csv,READVersionD.csv,"Read Version D","Dissertation, read only version D",LION,ART,Study1,U,79,52,Test,User,-,,Recall,Recall2,3509,"Art ",100,1854,2619,1,1,,0.667
10005890KB,z7teer6f4s,Nick_Dissertation_EX1_EP,1,290,2021-11-29T19:40:11+00:00,150.09862709045,4,versionC_stim.csv,READVersionD.csv,"Read Version D","Dissertation, read only version D",PILOT,PLANE,Study1,F,44,15,Test,User,-,,Recall,Recall2,149932,"Plane ",100,148562,149057,1,1,,0.164
10005890KB,z7teer6f4s,Nick_Dissertation_EX1_EP,1,291,2021-11-29T19:40:36+00:00,25.532634973526,4,versionC_stim.csv,READVersionD.csv,"Read Version D","Dissertation, read only version D",SACKING,DIETARY,Study1,U,67,25,Test,User,-,,Recall,Recall2,25388,,0,-1,-1,0,0,,0.945
10005890KB,z7teer6f4s,Nick_Dissertation_EX1_EP,1,292,2021-11-29T19:40:41+00:00,5.2055099010468,4,versionC_stim.csv,READVersionD.csv,"Read Version D","Dissertation, read only version D",LIVER,KIDNEY,Study1,S,53,76,Test,User,-,,Recall,Recall2,5063,"Kidneys ",92.307692307692,2550,3265,0,1,,0.5
10005890KB,z7teer6f4s,Nick_Dissertation_EX1_EP,1,293,2021-11-29T19:40:51+00:00,9.5506300926208,4,versionC_stim.csv,READVersionD.csv,"Read Version D","Dissertation, read only version D",BIRD,SWAN,Study1,B,14,28,Test,User,-,,Recall,Recall2,9380,"Swan ",100,8007,8487,1,1,,1
10005890KB,z7teer6f4s,Nick_Dissertation_EX1_EP,1,294,2021-11-29T19:41:15+00:00,23.735320091248,4,versionC_stim.csv,READVersionD.csv,"Read Version D","Dissertation, read only version D",BLAZE,FIRE,Study1,F,45,68,Test,User,-,,Recall,Recall2,23573,"Fire ",100,22351,22727,1,1,,0.381
10005890KB,z7teer6f4s,Nick_Dissertation_EX1_EP,1,295,2021-11-29T19:41:18+00:00,3.6213839054108,4,versionC_stim.csv,READVersionD.csv,"Read Version D","Dissertation, read only version D",ROUND,CIRCLE,Study1,S,65,63,Test,User,-,,Recall,Recall2,3485,"Circle ",100,1850,2615,1,1,,0.667
10005890KB,z7teer6f4s,Nick_Dissertation_EX1_EP,1,296,2021-11-29T19:41:43+00:00,24.417005062103,4,versionC_stim.csv,READVersionD.csv,"Read Version D","Dissertation, read only version D",VASE,KING,Study1,U,85,42,Test,User,-,,Recall,Recall2,24199,,0,-1,-1,0,0,,0.521
10005890KB,z7teer6f4s,Nick_Dissertation_EX1_EP,1,297,2021-11-29T19:41:53+00:00,10.747684955597,4,versionC_stim.csv,READVersionD.csv,"Read Version D","Dissertation, read only version D",JURY,TRIAL,Study1,S,50,32,Test,User,-,,Recall,Recall2,10541,"Trial ",100,9174,9774,1,1,,0.887
10005890KB,z7teer6f4s,Nick_Dissertation_EX1_EP,1,298,2021-11-29T19:42:51+00:00,57.349808931351,4,versionC_stim.csv,READVersionD.csv,"Read Version D","Dissertation, read only version D",WIND,BLOW,Study1,S,55,17,Test,User,-,,Recall,Recall2,57164,"Blow ",100,55708,56191,1,1,,0.038
10005890KB,z7teer6f4s,Nick_Dissertation_EX1_EP,1,299,2021-11-29T19:43:03+00:00,12.107131958008,4,versionC_stim.csv,READVersionD.csv,"Read Version D","Dissertation, read only version D",FLOOR,DISCOVER,Study1,U,71,70,Test,User,-,,Recall,Recall2,11936,"Discover ",100,9493,10874,1,1,,0.267
10005890KB,z7teer6f4s,Nick_Dissertation_EX1_EP,1,300,2021-11-29T19:43:23+00:00,20.410677194595,4,versionC_stim.csv,READVersionD.csv,"Read Version D","Dissertation, read only version D",FANTASTIC,GREAT,Study1,F,35,69,Test,User,-,,Recall,Recall2,20246,"Great ",100,18520,19153,1,1,,0.118
10005890KB,z7teer6f4s,Nick_Dissertation_EX1_EP,1,301,2021-11-29T19:43:50+00:00,26.177798986435,4,versionC_stim.csv,READVersionD.csv,"Read Version D","Dissertation, read only version D",RIDDLE,SUGAR,Study1,U,81,54,Test,User,-,,Recall,Recall2,26036,,0,-1,-1,0,0,,0
10005890KB,z7teer6f4s,Nick_Dissertation_EX1_EP,1,302,2021-11-29T19:43:54+00:00,4.8299717903137,4,versionC_stim.csv,READVersionD.csv,"Read Version D","Dissertation, read only version D",SIP,DRINK,Study1,F,27,83,Test,User,-,,Recall,Recall2,4674,"Drink ",100,2680,3666,1,1,,1
10005890KB,z7teer6f4s,Nick_Dissertation_EX1_EP,1,303,2021-11-29T19:44:27+00:00,32.905563116074,4,versionC_stim.csv,READVersionD.csv,"Read Version D","Dissertation, read only version D",FLOWER,ORCHID,Study1,B,24,10,Test,User,-,,Recall,Recall2,32746,"Orchid ",100,31088,31783,1,1,,0.067
10005890KB,z7teer6f4s,Nick_Dissertation_EX1_EP,1,304,2021-11-29T19:45:08+00:00,40.802484989166,4,versionC_stim.csv,READVersionD.csv,"Read Version D","Dissertation, read only version D",DESIGN,ARCHITECTURE,Study1,S,51,86,Test,User,-,,Recall,Recall2,40604,,0,-1,-1,0,0,,0
10005890KB,z7teer6f4s,Nick_Dissertation_EX1_EP,1,305,2021-11-29T19:45:23+00:00,14.889595985413,4,versionC_stim.csv,READVersionD.csv,"Read Version D","Dissertation, read only version D",OUT,WAY,Study1,B,16,57,Test,User,-,,Recall,Recall2,14744,,0,-1,-1,0,0,,1
10005890KB,z7teer6f4s,Nick_Dissertation_EX1_EP,1,306,2021-11-29T19:45:36+00:00,13.360345125198,4,versionC_stim.csv,READVersionD.csv,"Read Version D","Dissertation, read only version D",CHILD,BABY,Study1,S,64,11,Test,User,-,,Recall,Recall2,13189,"Baby ",100,11719,12175,1,1,,1
10005890KB,z7teer6f4s,Nick_Dissertation_EX1_EP,1,307,2021-11-29T19:46:39+00:00,62.214446783066,4,versionC_stim.csv,READVersionD.csv,"Read Version D","Dissertation, read only version D",PLANT,ROOT,Study1,B,13,74,Test,User,-,,Recall,Recall2,62050,Root,100,59691,60088,1,1,,0.051
10005890KB,z7teer6f4s,Nick_Dissertation_EX1_EP,1,308,2021-11-29T19:46:51+00:00,12.938480138779,4,versionC_stim.csv,READVersionD.csv,"Read Version D","Dissertation, read only version D",DIVISION,MATH,Study1,F,33,51,Test,User,-,,Recall,Recall2,12802,"Math ",100,9741,10208,1,1,,0.141
10005890KB,z7teer6f4s,Nick_Dissertation_EX1_EP,1,309,2021-11-29T19:47:03+00:00,11.117970943451,4,versionC_stim.csv,READVersionD.csv,"Read Version D","Dissertation, read only version D",WASP,BUG,Study1,F,32,77,Test,User,-,,Recall,Recall2,10932,"Bug ",100,6805,10061,1,1,,1
10005890KB,z7teer6f4s,Nick_Dissertation_EX1_EP,1,310,2021-11-29T19:47:12+00:00,9.2853591442108,4,versionC_stim.csv,READVersionD.csv,"Read Version D","Dissertation, read only version D",CHEESE,WINE,Study1,S,57,67,Test,User,-,,Recall,Recall2,9119,"Wine ",100,7814,8149,1,1,,0.217
10005890KB,z7teer6f4s,Nick_Dissertation_EX1_EP,1,311,2021-11-29T19:47:37+00:00,24.963228940964,4,versionC_stim.csv,READVersionD.csv,"Read Version D","Dissertation, read only version D",DROWSY,SLEEP,Study1,F,41,9,Test,User,-,,Recall,Recall2,24810,Sleep,100,23415,23882,1,1,,0.088
10005890KB,z7teer6f4s,Nick_Dissertation_EX1_EP,1,312,2021-11-29T19:47:47+00:00,9.946585893631,4,versionC_stim.csv,READVersionD.csv,"Read Version D","Dissertation, read only version D",GROWTH,HEIGHT,Study1,F,30,33,Test,User,-,,Recall,Recall2,9797,"Height ",100,8256,8857,1,1,,0.245
10005890KB,z7teer6f4s,Nick_Dissertation_EX1_EP,1,313,2021-11-29T19:49:29+00:00,101.84554195404,4,versionC_stim.csv,READVersionD.csv,"Read Version D","Dissertation, read only version D",STOMACH,DIGESTION,Study1,B,7,81,Test,User,-,,Recall,Recall2,101679,"Digestion ",100,98906,100760,1,1,,0.035
10005890KB,z7teer6f4s,Nick_Dissertation_EX1_EP,1,314,2021-11-29T19:49:36+00:00,7.6203291416168,4,versionC_stim.csv,READVersionD.csv,"Read Version D","Dissertation, read only version D",END,BEGIN,Study1,S,54,22,Test,User,-,,Recall,Recall2,7449,Begin,100,5992,6443,1,1,,0.316
10005890KB,z7teer6f4s,Nick_Dissertation_EX1_EP,1,315,2021-11-29T19:49:50+00:00,14.105468034744,4,versionC_stim.csv,READVersionD.csv,"Read Version D","Dissertation, read only version D",TUCK,ALLOW,Study1,U,78,35,Test,User,-,,Recall,Recall2,13940,Allow,100,11353,11962,1,1,,0.243
10005890KB,z7teer6f4s,Nick_Dissertation_EX1_EP,1,316,2021-11-29T19:49:59+00:00,8.1482319831848,4,versionC_stim.csv,READVersionD.csv,"Read Version D","Dissertation, read only version D",ENOUGH,FULL,Study1,F,26,59,Test,User,-,,Recall,Recall2,7993,"Full ",100,6455,7022,1,1,,0.275
10005890KB,z7teer6f4s,Nick_Dissertation_EX1_EP,1,317,2021-11-29T19:50:25+00:00,26.197919845581,4,versionC_stim.csv,READVersionD.csv,"Read Version D","Dissertation, read only version D",COLD,BITTER,Study1,B,12,30,Test,User,-,,Recall,Recall2,26045,"Bitter ",100,22112,25020,1,1,,0.221
10005890KB,z7teer6f4s,Nick_Dissertation_EX1_EP,1,318,2021-11-29T19:50:35+00:00,10.472968101501,4,versionC_stim.csv,READVersionD.csv,"Read Version D","Dissertation, read only version D",ATTORNEY,LAW,Study1,F,34,12,Test,User,-,,Recall,Recall2,10305,"Law ",100,8603,8968,1,1,,0.231
10005890KB,z7teer6f4s,Nick_Dissertation_EX1_EP,1,319,2021-11-29T19:51:02+00:00,26.707817077637,4,versionC_stim.csv,READVersionD.csv,"Read Version D","Dissertation, read only version D",LATCH,KEY,Study1,F,36,85,Test,User,-,,Recall,Recall2,26545,"Lay ",33.333333333333,23994,25508,0,0,,0.12
10005890KB,z7teer6f4s,Nick_Dissertation_EX1_EP,1,320,2021-11-29T19:51:58+00:00,56.086959838867,4,versionC_stim.csv,READVersionD.csv,"Read Version D","Dissertation, read only version D",CHILI,HOT,Study1,F,37,49,Test,User,-,,Recall,Recall2,55945,Hot,100,53083,53735,1,1,,0.046
10005890KB,z7teer6f4s,Nick_Dissertation_EX1_EP,1,321,2021-11-29T19:52:14+00:00,16.281234025955,4,versionC_stim.csv,READVersionD.csv,"Read Version D","Dissertation, read only version D",ACCIDENT,STRONG,Study1,U,80,38,Test,User,-,,Recall,Recall2,16114,"Strong ",100,10946,15050,1,1,,1
10005890KB,z7teer6f4s,Nick_Dissertation_EX1_EP,1,322,2021-11-29T19:53:25+00:00,70.505805969238,4,versionC_stim.csv,READVersionD.csv,"Read Version D","Dissertation, read only version D",WAR,REVOLUTION,Study1,B,20,55,Test,User,-,,Recall,Recall2,70340,"Fight ",13.333333333333,68779,69310,0,0,,0.036
10005890KB,z7teer6f4s,Nick_Dissertation_EX1_EP,1,323,2021-11-29T19:53:29+00:00,4.0528340339661,4,versionC_stim.csv,READVersionD.csv,"Read Version D","Dissertation, read only version D",CARD,CREDIT,Study1,B,23,62,Test,User,-,,Recall,Recall2,3918,"Credit ",100,2147,2932,1,1,,0.6
10005890KB,z7teer6f4s,Nick_Dissertation_EX1_EP,1,324,2021-11-29T19:54:11+00:00,42.264632940292,4,versionC_stim.csv,READVersionD.csv,"Read Version D","Dissertation, read only version D",BAD,DELINQUENT,Study1,B,6,80,Test,User,-,,Recall,Recall2,42107,"Delinquent ",100,39687,40420,1,1,,0.076
10005890KB,z7teer6f4s,Nick_Dissertation_EX1_EP,1,325,2021-11-29T19:54:23+00:00,12.062711000443,4,versionC_stim.csv,READVersionD.csv,"Read Version D","Dissertation, read only version D",FUTURE,PAST,Study1,S,61,13,Test,User,-,,Recall,Recall2,11904,"Past ",100,10515,10983,1,1,,0.167
10005890KB,z7teer6f4s,Nick_Dissertation_EX1_EP,1,326,2021-11-29T19:55:01+00:00,37.975300073624,4,versionC_stim.csv,READVersionD.csv,"Read Version D","Dissertation, read only version D",ASSIGNMENT,DUE,Study1,S,46,26,Test,User,-,,Recall,Recall2,37812,"Due ",100,34926,36924,1,1,,0.095
10005890KB,z7teer6f4s,Nick_Dissertation_EX1_EP,1,327,2021-11-29T19:55:42+00:00,40.451349020004,4,versionC_stim.csv,READVersionD.csv,"Read Version D","Dissertation, read only version D",BEE,HONEY,Study1,S,63,71,Test,User,-,,Recall,Recall2,40224,"Sting ",20,38210,39306,0,0,,0.069
10005890KB,z7teer6f4s,Nick_Dissertation_EX1_EP,1,328,2021-11-29T19:55:48+00:00,6.5356900691986,4,versionC_stim.csv,READVersionD.csv,"Read Version D","Dissertation, read only version D",SIGHT,DEBATE,Study1,U,73,7,Test,User,-,,Recall,Recall2,6378,"Debate ",100,3707,5480,1,1,,0.781
10005890KB,z7teer6f4s,Nick_Dissertation_EX1_EP,1,329,2021-11-29T19:56:00+00:00,11.428755998611,4,versionC_stim.csv,READVersionD.csv,"Read Version D","Dissertation, read only version D",CAVE,DARK,Study1,F,28,27,Test,User,-,,Recall,Recall2,11298,,0,-1,-1,0,0,,0
10005890KB,z7teer6f4s,Nick_Dissertation_EX1_EP,1,330,2021-11-29T19:56:06+00:00,6.0973670482635,4,versionC_stim.csv,READVersionD.csv,"Read Version D","Dissertation, read only version D",CHORE,WORK,Study1,F,39,84,Test,User,-,,Recall,Recall2,5932,Work,100,4608,4857,1,1,,1
10005890KB,z7teer6f4s,Nick_Dissertation_EX1_EP,1,331,2021-11-29T19:56:27+00:00,20.907433986664,4,versionC_stim.csv,READVersionD.csv,"Read Version D","Dissertation, read only version D",SITE,LOCATION,Study1,S,48,47,Test,User,-,,Recall,Recall2,20790,,0,-1,-1,0,0,,0
10005890KB,z7teer6f4s,Nick_Dissertation_EX1_EP,1,332,2021-11-29T19:56:37+00:00,10.621845006943,4,versionC_stim.csv,READVersionD.csv,"Read Version D","Dissertation, read only version D",BRONZE,ARTERY,Study1,U,74,23,Test,User,-,,Recall,Recall2,10312,"Artery ",100,7990,9377,1,1,,1
10005890KB,z7teer6f4s,Nick_Dissertation_EX1_EP,1,333,2021-11-29T19:56:56+00:00,18.570341825485,4,versionC_stim.csv,READVersionD.csv,"Read Version D","Dissertation, read only version D",WATER,BRIDGE,Study1,B,18,82,Test,User,-,,Recall,Recall2,18413,Bridge,100,14108,16258,1,1,,0.272
10005890KB,z7teer6f4s,Nick_Dissertation_EX1_EP,1,334,2021-11-29T19:57:09+00:00,12.847799062729,4,versionC_stim.csv,READVersionD.csv,"Read Version D","Dissertation, read only version D",STING,HORNET,Study1,B,11,53,Test,User,-,,Recall,Recall2,12697,"Hornet ",100,11023,11656,1,1,,0.188
10005890KB,z7teer6f4s,Nick_Dissertation_EX1_EP,1,335,2021-11-29T19:57:34+00:00,25.349664926529,4,versionC_stim.csv,READVersionD.csv,"Read Version D","Dissertation, read only version D",BAR,GRILL,Study1,S,52,19,Test,User,-,,Recall,Recall2,25200,"Grill ",100,23515,24183,1,1,,0.095
10005890KB,z7teer6f4s,Nick_Dissertation_EX1_EP,1,336,2021-11-29T19:57:42+00:00,7.6346170902252,4,versionC_stim.csv,READVersionD.csv,"Read Version D","Dissertation, read only version D",MONEY,WAGE,Study1,B,8,18,Test,User,-,,Recall,Recall2,7481,"Wage ",100,6044,6485,1,1,,0.395
10005890KB,z7teer6f4s,Nick_Dissertation_EX1_EP,1,337,2021-11-29T19:57:51+00:00,9.8136858940125,4,versionC_stim.csv,READVersionD.csv,"Read Version D","Dissertation, read only version D",HAMMER,CHISEL,Study1,B,9,34,Test,User,-,,Recall,Recall2,9657,"Chisel ",100,7848,8665,1,1,,0.265
10005890KB,z7teer6f4s,Nick_Dissertation_EX1_EP,1,338,2021-11-29T19:58:06+00:00,14.571108102798,4,versionC_stim.csv,READVersionD.csv,"Read Version D","Dissertation, read only version D",TOILET,BATHROOM,Study1,S,58,31,Test,User,-,,Recall,Recall2,14421,Bathroom,100,12569,13456,1,1,,0.192
10005890KB,z7teer6f4s,Nick_Dissertation_EX1_EP,1,339,2021-11-29T19:58:54+00:00,48.436069011688,4,versionC_stim.csv,READVersionD.csv,"Read Version D","Dissertation, read only version D",CAR,HAPPY,Study1,U,77,24,Test,User,-,,Recall,Recall2,48274,"Happy ",100,46738,47333,1,1,,0.938
10005890KB,z7teer6f4s,Nick_Dissertation_EX1_EP,1,340,2021-11-29T19:59:50+00:00,55.79357790947,4,versionC_stim.csv,READVersionD.csv,"Read Version D","Dissertation, read only version D",RACKET,BALL,Study1,F,38,60,Test,User,-,,Recall,Recall2,55633,"Ball ",100,51709,54662,1,1,,0.088
10005890KB,z7teer6f4s,Nick_Dissertation_EX1_EP,1,341,2021-11-29T20:00:02+00:00,11.6431620121,4,versionC_stim.csv,READVersionD.csv,"Read Version D","Dissertation, read only version D",FAMINE,HUNGER,Study1,F,40,43,Test,User,-,,Recall,Recall2,11458,"Hunger ",100,9804,10482,1,1,,0.207
10005890KB,z7teer6f4s,Nick_Dissertation_EX1_EP,1,342,2021-11-29T20:00:31+00:00,29.384318113327,4,versionC_stim.csv,READVersionD.csv,"Read Version D","Dissertation, read only version D",ROCK,GEOLOGY,Study1,B,19,46,Test,User,-,,Recall,Recall2,29183,"Geology ",100,26812,28047,1,1,,0.11
10005890KB,z7teer6f4s,Nick_Dissertation_EX1_EP,1,343,2021-11-29T20:01:51+00:00,80.216681957245,4,versionC_stim.csv,READVersionD.csv,"Read Version D","Dissertation, read only version D",STENCH,SMELL,Study1,F,42,29,Test,User,-,,Recall,Recall2,80056,"Smell ",100,78548,79133,1,1,,0.043
10005890KB,z7teer6f4s,Nick_Dissertation_EX1_EP,1,344,2021-11-29T20:02:02+00:00,10.402276039124,4,versionC_stim.csv,READVersionD.csv,"Read Version D","Dissertation, read only version D",POSITION,MACHINE,Study1,U,76,21,Test,User,-,,Recall,Recall2,10262,"Machine ",100,6435,8100,1,1,,0.288
10005890KB,z7teer6f4s,Nick_Dissertation_EX1_EP,1,345,2021-11-29T20:02:14+00:00,12.350957870483,4,versionC_stim.csv,READVersionD.csv,"Read Version D","Dissertation, read only version D",TALK,DISCUSSION,Study1,B,21,65,Test,User,-,,Recall,Recall2,12175,"Discussion ",100,9185,10718,1,1,,1
10005890KB,z7teer6f4s,Nick_Dissertation_EX1_EP,1,346,2021-11-29T20:02:23+00:00,8.6680181026459,4,versionC_stim.csv,READVersionD.csv,"Read Version D","Dissertation, read only version D",COW,HERD,Study1,B,22,8,Test,User,-,,Recall,Recall2,8517,"Herd ",100,4375,7578,1,1,,0.558
10005890KB,z7teer6f4s,Nick_Dissertation_EX1_EP,1,347,2021-11-29T20:02:54+00:00,31.151596069336,4,versionC_stim.csv,READVersionD.csv,"Read Version D","Dissertation, read only version D",SICK,HIDE,Study1,U,84,78,Test,User,-,,Recall,Recall2,30986,"Hide ",100,29360,29958,1,1,,0.09
10005890KB,z7teer6f4s,Nick_Dissertation_EX1_EP,1,348,2021-11-29T20:03:05+00:00,11.262006998062,4,versionC_stim.csv,READVersionD.csv,"Read Version D","Dissertation, read only version D",HAND,FIX,Study1,U,75,66,Test,User,-,,Recall,Recall2,11103,"Fix ",100,9834,10130,1,1,,0.179
10005890KB,z7teer6f4s,Nick_Dissertation_EX1_EP,1,349,2021-11-29T20:03:19+00:00,13.844005823135,4,versionC_stim.csv,READVersionD.csv,"Read Version D","Dissertation, read only version D",ATTIRE,CLOTHES,Study1,F,43,20,Test,User,-,,Recall,Recall2,13722,"Clothes ",100,10142,11294,1,1,,0.188
10005890KB,z7teer6f4s,Nick_Dissertation_EX1_EP,1,350,2021-11-29T20:03:45+00:00,26.14106297493,4,versionC_stim.csv,READVersionD.csv,"Read Version D","Dissertation, read only version D",WOMAN,LIFT,Study1,U,69,73,Test,User,-,,Recall,Recall2,25983,"Lift ",100,24454,25018,1,1,,1
10005890KB,z7teer6f4s,Nick_Dissertation_EX1_EP,1,351,2021-11-29T20:03:55+00:00,9.554309129715,4,versionC_stim.csv,READVersionD.csv,"Read Version D","Dissertation, read only version D",BUSINESS,DEATH,Study1,U,72,79,Test,User,-,,Recall,Recall2,9389,"Death ",100,5426,8446,1,1,,0.851
10005890KB,z7teer6f4s,Nick_Dissertation_EX1_EP,1,352,2021-11-29T20:05:05+00:00,69.998632907867,4,versionC_stim.csv,READVersionD.csv,"Read Version D","Dissertation, read only version D",,,,,,0,Instruct,User,-,"You have completed this section. Please press Enter.",,Instruct7,69849,,,-1,-1,,,,0.86
10005890KB,z7teer6f4s,Nick_Dissertation_EX1_EP,1,353,2021-11-29T20:05:07+00:00,2.1024119853973,4,versionC_stim.csv,READVersionD.csv,"Read Version D","Dissertation, read only version D",,,,,,0,Instruct,User,-,"The following screen will ask you a few questions abour your experience today. You must complete these questions to receive credit.",,Instruct8,1984,,,-1,-1,,,,1
