Username,ID,ExperimentName,Session,Trial,Date,TimeDif,"Condition Number","Stimuli File","Order File","Condition Description","Condition Notes",Stimuli*Cue,Stimuli*Answer,Stimuli*Shuffle,"Stimuli*Stimuli Notes",Stimuli*Value,Procedure*Item,"Procedure*Trial Type","Procedure*Max Time","Procedure*Min Time",Procedure*Text,"Procedure*Procedure Notes",Procedure*Shuffle,Response*RT,Response*Response,Response*Accuracy,Response*RTfirst,Response*RTlast,Response*strictAcc,Response*lenientAcc,Response*focus,Response*Focus
w10112553_MHP,5qe8052hbg,Nick_Dissertation_EX1_EP,1,1,2021-11-18T17:02:31+00:00,6.3611500263214,4,versionC_stim.csv,READVersionD.csv,"Read Version D","Dissertation, read only version D",,,,,,0,Instruct,-,5,"In this section, you will be presented with a series of word pairs.",Initial_Instruct,Instruct1,6284,,,-1,-1,,,,1
w10112553_MHP,5qe8052hbg,Nick_Dissertation_EX1_EP,1,2,2021-11-18T17:02:49+00:00,18.280244827271,4,versionC_stim.csv,READVersionD.csv,"Read Version D","Dissertation, read only version D",,,,,,0,Instruct,-,10,"Each word will be displayed on the computer screen for 8 seconds. The screen will automatically move to the next pair when time is up. Please study each pair. Your memory will be tested!",,Instruct15,18159,,,-1,-1,,,,1
w10112553_MHP,5qe8052hbg,Nick_Dissertation_EX1_EP,1,3,2021-11-18T17:02:53+00:00,3.2708971500397,4,versionC_stim.csv,READVersionD.csv,"Read Version D","Dissertation, read only version D",,,,,,0,Instruct,User,-,"You will now begin the study. Press Enter when you are ready to begin.",,Instruct16,3185,,,-1,-1,,,,1
w10112553_MHP,5qe8052hbg,Nick_Dissertation_EX1_EP,1,4,2021-11-18T17:03:01+00:00,8.111692905426,4,versionC_stim.csv,READVersionD.csv,"Read Version D","Dissertation, read only version D",FROZEN,ICE,BUFFER3,Buffer,94,94,Study,8,8,,Study/JOL,BUFFER,8003,,,-1,-1,,,,1
w10112553_MHP,5qe8052hbg,Nick_Dissertation_EX1_EP,1,5,2021-11-18T17:03:09+00:00,8.1303091049194,4,versionC_stim.csv,READVersionD.csv,"Read Version D","Dissertation, read only version D",ADVENTURE,CAMP,BUFFER3,Buffer,95,96,Study,8,8,,Study/JOL,BUFFER,8002,,,-1,-1,,,,1
w10112553_MHP,5qe8052hbg,Nick_Dissertation_EX1_EP,1,6,2021-11-18T17:03:17+00:00,8.1158168315887,4,versionC_stim.csv,READVersionD.csv,"Read Version D","Dissertation, read only version D",STRING,NOODLE,BUFFER3,Buffer,92,93,Study,8,8,,Study/JOL,BUFFER,8002,,,-1,-1,,,,1
w10112553_MHP,5qe8052hbg,Nick_Dissertation_EX1_EP,1,7,2021-11-18T17:03:25+00:00,8.1106162071228,4,versionC_stim.csv,READVersionD.csv,"Read Version D","Dissertation, read only version D",FISH,SHRIMP,BUFFER3,Buffer,93,92,Study,8,8,,Study/JOL,BUFFER,8002,,,-1,-1,,,,1
w10112553_MHP,5qe8052hbg,Nick_Dissertation_EX1_EP,1,8,2021-11-18T17:03:33+00:00,8.1082668304443,4,versionC_stim.csv,READVersionD.csv,"Read Version D","Dissertation, read only version D",POTATO,CARROT,BUFFER3,Buffer,91,95,Study,8,8,,Study/JOL,BUFFER,8002,,,-1,-1,,,,1
w10112553_MHP,5qe8052hbg,Nick_Dissertation_EX1_EP,1,9,2021-11-18T17:03:41+00:00,8.105947971344,4,versionC_stim.csv,READVersionD.csv,"Read Version D","Dissertation, read only version D",SMELL,INCENSE,Study2,B,110,162,Study,8,8,,Study/JOL,"Study Phase",8002,,,-1,-1,,,,1
w10112553_MHP,5qe8052hbg,Nick_Dissertation_EX1_EP,1,10,2021-11-18T17:03:49+00:00,8.1117420196533,4,versionC_stim.csv,READVersionD.csv,"Read Version D","Dissertation, read only version D",HATE,NAME,Study2,U,167,127,Study,8,8,,Study/JOL,"Study Phase",8002,,,-1,-1,,,,1
w10112553_MHP,5qe8052hbg,Nick_Dissertation_EX1_EP,1,11,2021-11-18T17:03:58+00:00,8.1135590076447,4,versionC_stim.csv,READVersionD.csv,"Read Version D","Dissertation, read only version D",JAR,MASON,Study2,S,138,126,Study,8,8,,Study/JOL,"Study Phase",8002,,,-1,-1,,,,1
w10112553_MHP,5qe8052hbg,Nick_Dissertation_EX1_EP,1,12,2021-11-18T17:04:06+00:00,8.1067581176758,4,versionC_stim.csv,READVersionD.csv,"Read Version D","Dissertation, read only version D",SHAKE,Shell,Study2,U,163,167,Study,8,8,,Study/JOL,"Study Phase",8002,,,-1,-1,,,,1
w10112553_MHP,5qe8052hbg,Nick_Dissertation_EX1_EP,1,13,2021-11-18T17:04:14+00:00,8.1109879016876,4,versionC_stim.csv,READVersionD.csv,"Read Version D","Dissertation, read only version D",STEAK,GIVE,Study2,U,158,114,Study,8,8,,Study/JOL,"Study Phase",8001,,,-1,-1,,,,1
w10112553_MHP,5qe8052hbg,Nick_Dissertation_EX1_EP,1,14,2021-11-18T17:04:22+00:00,8.1172289848328,4,versionC_stim.csv,READVersionD.csv,"Read Version D","Dissertation, read only version D",MYSTERY,DETECTIVE,Study2,B,100,132,Study,8,8,,Study/JOL,"Study Phase",8002,,,-1,-1,,,,1
w10112553_MHP,5qe8052hbg,Nick_Dissertation_EX1_EP,1,15,2021-11-18T17:04:30+00:00,8.1175320148468,4,versionC_stim.csv,READVersionD.csv,"Read Version D","Dissertation, read only version D",BANKER,MONEY,Study2,F,132,161,Study,8,8,,Study/JOL,"Study Phase",8002,,,-1,-1,,,,1
w10112553_MHP,5qe8052hbg,Nick_Dissertation_EX1_EP,1,16,2021-11-18T17:04:38+00:00,8.1154999732971,4,versionC_stim.csv,READVersionD.csv,"Read Version D","Dissertation, read only version D",FAVORITE,BEST,Study2,F,125,123,Study,8,8,,Study/JOL,"Study Phase",8002,,,-1,-1,,,,1
w10112553_MHP,5qe8052hbg,Nick_Dissertation_EX1_EP,1,17,2021-11-18T17:04:46+00:00,8.1134350299835,4,versionC_stim.csv,READVersionD.csv,"Read Version D","Dissertation, read only version D",TRASH,LITTER,Study2,B,103,144,Study,8,8,,Study/JOL,"Study Phase",8002,,,-1,-1,,,,1
w10112553_MHP,5qe8052hbg,Nick_Dissertation_EX1_EP,1,18,2021-11-18T17:04:54+00:00,8.1127531528473,4,versionC_stim.csv,READVersionD.csv,"Read Version D","Dissertation, read only version D",BANG,FUZZY,Study2,U,168,138,Study,8,8,,Study/JOL,"Study Phase",8002,,,-1,-1,,,,1
w10112553_MHP,5qe8052hbg,Nick_Dissertation_EX1_EP,1,19,2021-11-18T17:05:02+00:00,8.1148719787598,4,versionC_stim.csv,READVersionD.csv,"Read Version D","Dissertation, read only version D",LIE,TRUTH,Study2,S,148,108,Study,8,8,,Study/JOL,"Study Phase",8002,,,-1,-1,,,,1
w10112553_MHP,5qe8052hbg,Nick_Dissertation_EX1_EP,1,20,2021-11-18T17:05:11+00:00,8.1175289154053,4,versionC_stim.csv,READVersionD.csv,"Read Version D","Dissertation, read only version D",GAME,CLUE,Study2,B,97,166,Study,8,8,,Study/JOL,"Study Phase",8002,,,-1,-1,,,,1
w10112553_MHP,5qe8052hbg,Nick_Dissertation_EX1_EP,1,21,2021-11-18T17:05:19+00:00,8.1161289215088,4,versionC_stim.csv,READVersionD.csv,"Read Version D","Dissertation, read only version D",OBTAIN,MEAT,Study2,U,161,131,Study,8,8,,Study/JOL,"Study Phase",8002,,,-1,-1,,,,1
w10112553_MHP,5qe8052hbg,Nick_Dissertation_EX1_EP,1,22,2021-11-18T17:05:27+00:00,8.1245980262756,4,versionC_stim.csv,READVersionD.csv,"Read Version D","Dissertation, read only version D",BRAWL,FIGHT,Study2,F,135,134,Study,8,8,,Study/JOL,"Study Phase",8004,,,-1,-1,,,,1
w10112553_MHP,5qe8052hbg,Nick_Dissertation_EX1_EP,1,23,2021-11-18T17:05:35+00:00,8.1257741451263,4,versionC_stim.csv,READVersionD.csv,"Read Version D","Dissertation, read only version D",BALLOON,POP,Study2,F,123,135,Study,8,8,,Study/JOL,"Study Phase",8002,,,-1,-1,,,,1
w10112553_MHP,5qe8052hbg,Nick_Dissertation_EX1_EP,1,24,2021-11-18T17:05:43+00:00,8.1159558296204,4,versionC_stim.csv,READVersionD.csv,"Read Version D","Dissertation, read only version D",FICTION,LISTEN,Study2,U,164,101,Study,8,8,,Study/JOL,"Study Phase",8002,,,-1,-1,,,,1
w10112553_MHP,5qe8052hbg,Nick_Dissertation_EX1_EP,1,25,2021-11-18T17:05:51+00:00,8.1141879558563,4,versionC_stim.csv,READVersionD.csv,"Read Version D","Dissertation, read only version D",DRINK,WATER,Study2,S,143,169,Study,8,8,,Study/JOL,"Study Phase",8002,,,-1,-1,,,,1
w10112553_MHP,5qe8052hbg,Nick_Dissertation_EX1_EP,1,26,2021-11-18T17:05:59+00:00,8.1184730529785,4,versionC_stim.csv,READVersionD.csv,"Read Version D","Dissertation, read only version D",Morning,TEMPERATURE,Study2,U,173,143,Study,8,8,,Study/JOL,"Study Phase",8001,,,-1,-1,,,,1
w10112553_MHP,5qe8052hbg,Nick_Dissertation_EX1_EP,1,27,2021-11-18T17:06:07+00:00,8.1156830787659,4,versionC_stim.csv,READVersionD.csv,"Read Version D","Dissertation, read only version D",WINDSHIELD,CAR,Study2,F,117,149,Study,8,8,,Study/JOL,"Study Phase",8002,,,-1,-1,,,,1
w10112553_MHP,5qe8052hbg,Nick_Dissertation_EX1_EP,1,28,2021-11-18T17:06:15+00:00,8.1155219078064,4,versionC_stim.csv,READVersionD.csv,"Read Version D","Dissertation, read only version D",PANTHER,CAT,Study2,F,126,117,Study,8,8,,Study/JOL,"Study Phase",8002,,,-1,-1,,,,1
w10112553_MHP,5qe8052hbg,Nick_Dissertation_EX1_EP,1,29,2021-11-18T17:06:24+00:00,8.1140470504761,4,versionC_stim.csv,READVersionD.csv,"Read Version D","Dissertation, read only version D",TOIL,LEASE,Study2,U,170,116,Study,8,8,,Study/JOL,"Study Phase",8002,,,-1,-1,,,,1
w10112553_MHP,5qe8052hbg,Nick_Dissertation_EX1_EP,1,30,2021-11-18T17:06:32+00:00,8.1156249046326,4,versionC_stim.csv,READVersionD.csv,"Read Version D","Dissertation, read only version D",CARBON,ELEMENT,Study2,S,141,119,Study,8,8,,Study/JOL,"Study Phase",8000,,,-1,-1,,,,1
w10112553_MHP,5qe8052hbg,Nick_Dissertation_EX1_EP,1,31,2021-11-18T17:06:40+00:00,8.1161630153656,4,versionC_stim.csv,READVersionD.csv,"Read Version D","Dissertation, read only version D",SHAVE,RAZOR,Study2,S,136,139,Study,8,8,,Study/JOL,"Study Phase",8002,,,-1,-1,,,,1
w10112553_MHP,5qe8052hbg,Nick_Dissertation_EX1_EP,1,32,2021-11-18T17:06:48+00:00,8.1191740036011,4,versionC_stim.csv,READVersionD.csv,"Read Version D","Dissertation, read only version D",SARDINE,FISH,Study2,F,130,147,Study,8,8,,Study/JOL,"Study Phase",8001,,,-1,-1,,,,1
w10112553_MHP,5qe8052hbg,Nick_Dissertation_EX1_EP,1,33,2021-11-18T17:06:56+00:00,8.1091601848602,4,versionC_stim.csv,READVersionD.csv,"Read Version D","Dissertation, read only version D",PENGUIN,BIRD,Study2,F,119,104,Study,8,8,,Study/JOL,"Study Phase",8002,,,-1,-1,,,,1
w10112553_MHP,5qe8052hbg,Nick_Dissertation_EX1_EP,1,34,2021-11-18T17:07:04+00:00,8.1307837963104,4,versionC_stim.csv,READVersionD.csv,"Read Version D","Dissertation, read only version D",CLOTH,STRETCH,Study2,U,157,100,Study,8,8,,Study/JOL,"Study Phase",8002,,,-1,-1,,,,1
w10112553_MHP,5qe8052hbg,Nick_Dissertation_EX1_EP,1,35,2021-11-18T17:07:12+00:00,8.1179311275482,4,versionC_stim.csv,READVersionD.csv,"Read Version D","Dissertation, read only version D",SCAR,MAIN,Study2,U,175,168,Study,8,8,,Study/JOL,"Study Phase",8003,,,-1,-1,,,,1
w10112553_MHP,5qe8052hbg,Nick_Dissertation_EX1_EP,1,36,2021-11-18T17:07:20+00:00,8.1177830696106,4,versionC_stim.csv,READVersionD.csv,"Read Version D","Dissertation, read only version D",COLD,CHILL,Study2,B,114,128,Study,8,8,,Study/JOL,"Study Phase",8001,,,-1,-1,,,,1
w10112553_MHP,5qe8052hbg,Nick_Dissertation_EX1_EP,1,37,2021-11-18T17:07:29+00:00,8.1131448745728,4,versionC_stim.csv,READVersionD.csv,"Read Version D","Dissertation, read only version D",SCISSORS,SHEARS,Study2,B,112,145,Study,8,8,,Study/JOL,"Study Phase",8003,,,-1,-1,,,,1
w10112553_MHP,5qe8052hbg,Nick_Dissertation_EX1_EP,1,38,2021-11-18T17:07:37+00:00,8.1209399700165,4,versionC_stim.csv,READVersionD.csv,"Read Version D","Dissertation, read only version D",ABLE,CRACKLE,Study2,U,162,133,Study,8,8,,Study/JOL,"Study Phase",8001,,,-1,-1,,,,1
w10112553_MHP,5qe8052hbg,Nick_Dissertation_EX1_EP,1,39,2021-11-18T17:07:45+00:00,8.1183669567108,4,versionC_stim.csv,READVersionD.csv,"Read Version D","Dissertation, read only version D",STRAWBERRY,FRUIT,Study2,F,124,164,Study,8,8,,Study/JOL,"Study Phase",8002,,,-1,-1,,,,1
w10112553_MHP,5qe8052hbg,Nick_Dissertation_EX1_EP,1,40,2021-11-18T17:07:53+00:00,8.1186370849609,4,versionC_stim.csv,READVersionD.csv,"Read Version D","Dissertation, read only version D",TEMPER,TANTRUM,Study2,S,154,163,Study,8,8,,Study/JOL,"Study Phase",8002,,,-1,-1,,,,1
w10112553_MHP,5qe8052hbg,Nick_Dissertation_EX1_EP,1,41,2021-11-18T17:08:01+00:00,8.1069829463959,4,versionC_stim.csv,READVersionD.csv,"Read Version D","Dissertation, read only version D",JOKE,KEYS,Study2,U,165,174,Study,8,8,,Study/JOL,"Study Phase",8002,,,-1,-1,,,,1
w10112553_MHP,5qe8052hbg,Nick_Dissertation_EX1_EP,1,42,2021-11-18T17:08:09+00:00,8.1118919849396,4,versionC_stim.csv,READVersionD.csv,"Read Version D","Dissertation, read only version D",CLEAR,MOAT,Study2,U,169,171,Study,8,8,,Study/JOL,"Study Phase",8001,,,-1,-1,,,,1
w10112553_MHP,5qe8052hbg,Nick_Dissertation_EX1_EP,1,43,2021-11-18T17:08:17+00:00,8.1251220703125,4,versionC_stim.csv,READVersionD.csv,"Read Version D","Dissertation, read only version D",COMMUNICATION,PHONE,Study2,S,149,102,Study,8,8,,Study/JOL,"Study Phase",8002,,,-1,-1,,,,1
w10112553_MHP,5qe8052hbg,Nick_Dissertation_EX1_EP,1,44,2021-11-18T17:08:25+00:00,8.120197057724,4,versionC_stim.csv,READVersionD.csv,"Read Version D","Dissertation, read only version D",LONELY,ALONE,Study2,S,145,99,Study,8,8,,Study/JOL,"Study Phase",8002,,,-1,-1,,,,1
w10112553_MHP,5qe8052hbg,Nick_Dissertation_EX1_EP,1,45,2021-11-18T17:08:33+00:00,8.1130180358887,4,versionC_stim.csv,READVersionD.csv,"Read Version D","Dissertation, read only version D",OUNCE,BOTH,Study2,U,172,120,Study,8,8,,Study/JOL,"Study Phase",8002,,,-1,-1,,,,1
w10112553_MHP,5qe8052hbg,Nick_Dissertation_EX1_EP,1,46,2021-11-18T17:08:42+00:00,8.1198968887329,4,versionC_stim.csv,READVersionD.csv,"Read Version D","Dissertation, read only version D",PLANT,CACTUS,Study2,B,98,173,Study,8,8,,Study/JOL,"Study Phase",8003,,,-1,-1,,,,1
w10112553_MHP,5qe8052hbg,Nick_Dissertation_EX1_EP,1,47,2021-11-18T17:08:50+00:00,8.1113519668579,4,versionC_stim.csv,READVersionD.csv,"Read Version D","Dissertation, read only version D",AIRCRAFT,PLANE,Study2,F,129,142,Study,8,8,,Study/JOL,"Study Phase",8002,,,-1,-1,,,,1
w10112553_MHP,5qe8052hbg,Nick_Dissertation_EX1_EP,1,48,2021-11-18T17:08:58+00:00,8.1119871139526,4,versionC_stim.csv,READVersionD.csv,"Read Version D","Dissertation, read only version D",THIMBLE,THREAD,Study2,F,121,157,Study,8,8,,Study/JOL,"Study Phase",8002,,,-1,-1,,,,1
w10112553_MHP,5qe8052hbg,Nick_Dissertation_EX1_EP,1,49,2021-11-18T17:09:06+00:00,8.1487469673157,4,versionC_stim.csv,READVersionD.csv,"Read Version D","Dissertation, read only version D",VILLAIN,BAD,Study2,F,118,113,Study,8,8,,Study/JOL,"Study Phase",8002,,,-1,-1,,,,1
w10112553_MHP,5qe8052hbg,Nick_Dissertation_EX1_EP,1,50,2021-11-18T17:09:14+00:00,8.1292569637299,4,versionC_stim.csv,READVersionD.csv,"Read Version D","Dissertation, read only version D",EQUAL,RIGHTS,Study2,S,137,98,Study,8,8,,Study/JOL,"Study Phase",8002,,,-1,-1,,,,1
w10112553_MHP,5qe8052hbg,Nick_Dissertation_EX1_EP,1,51,2021-11-18T17:09:22+00:00,8.1095600128174,4,versionC_stim.csv,READVersionD.csv,"Read Version D","Dissertation, read only version D",NAP,SLEEP,Study2,F,134,141,Study,8,8,,Study/JOL,"Study Phase",8002,,,-1,-1,,,,1
w10112553_MHP,5qe8052hbg,Nick_Dissertation_EX1_EP,1,52,2021-11-18T17:09:30+00:00,8.116455078125,4,versionC_stim.csv,READVersionD.csv,"Read Version D","Dissertation, read only version D",TRUTHFUL,HONEST,Study2,F,133,115,Study,8,8,,Study/JOL,"Study Phase",8002,,,-1,-1,,,,1
w10112553_MHP,5qe8052hbg,Nick_Dissertation_EX1_EP,1,53,2021-11-18T17:09:38+00:00,8.1197700500488,4,versionC_stim.csv,READVersionD.csv,"Read Version D","Dissertation, read only version D",WAX,CANDLE,Study2,S,139,165,Study,8,8,,Study/JOL,"Study Phase",8002,,,-1,-1,,,,1
w10112553_MHP,5qe8052hbg,Nick_Dissertation_EX1_EP,1,54,2021-11-18T17:09:47+00:00,8.1184229850769,4,versionC_stim.csv,READVersionD.csv,"Read Version D","Dissertation, read only version D",CHARM,VEHICLE,Study2,U,160,172,Study,8,8,,Study/JOL,"Study Phase",8002,,,-1,-1,,,,1
w10112553_MHP,5qe8052hbg,Nick_Dissertation_EX1_EP,1,55,2021-11-18T17:09:55+00:00,8.1115889549255,4,versionC_stim.csv,READVersionD.csv,"Read Version D","Dissertation, read only version D",BRACELET,WRIST,Study2,S,140,158,Study,8,8,,Study/JOL,"Study Phase",8002,,,-1,-1,,,,1
w10112553_MHP,5qe8052hbg,Nick_Dissertation_EX1_EP,1,56,2021-11-18T17:10:03+00:00,8.1279969215393,4,versionC_stim.csv,READVersionD.csv,"Read Version D","Dissertation, read only version D",DOG,FURRY,Study2,B,102,159,Study,8,8,,Study/JOL,"Study Phase",8002,,,-1,-1,,,,1
w10112553_MHP,5qe8052hbg,Nick_Dissertation_EX1_EP,1,57,2021-11-18T17:10:11+00:00,8.1417419910431,4,versionC_stim.csv,READVersionD.csv,"Read Version D","Dissertation, read only version D",BREAKABLE,GLASS,Study2,F,127,107,Study,8,8,,Study/JOL,"Study Phase",8002,,,-1,-1,,,,1
w10112553_MHP,5qe8052hbg,Nick_Dissertation_EX1_EP,1,58,2021-11-18T17:10:19+00:00,8.1160800457001,4,versionC_stim.csv,READVersionD.csv,"Read Version D","Dissertation, read only version D",HEAD,SCALP,Study2,B,105,137,Study,8,8,,Study/JOL,"Study Phase",8004,,,-1,-1,,,,1
w10112553_MHP,5qe8052hbg,Nick_Dissertation_EX1_EP,1,59,2021-11-18T17:10:27+00:00,8.1146039962769,4,versionC_stim.csv,READVersionD.csv,"Read Version D","Dissertation, read only version D",TICK,FLEA,Study2,S,151,154,Study,8,8,,Study/JOL,"Study Phase",8001,,,-1,-1,,,,1
w10112553_MHP,5qe8052hbg,Nick_Dissertation_EX1_EP,1,60,2021-11-18T17:10:35+00:00,8.1163470745087,4,versionC_stim.csv,READVersionD.csv,"Read Version D","Dissertation, read only version D",CAR,DRIVER,Study2,B,106,112,Study,8,8,,Study/JOL,"Study Phase",8002,,,-1,-1,,,,1
w10112553_MHP,5qe8052hbg,Nick_Dissertation_EX1_EP,1,61,2021-11-18T17:10:43+00:00,8.1076428890228,4,versionC_stim.csv,READVersionD.csv,"Read Version D","Dissertation, read only version D",GROUND,EARTH,Study2,S,144,121,Study,8,8,,Study/JOL,"Study Phase",8001,,,-1,-1,,,,1
w10112553_MHP,5qe8052hbg,Nick_Dissertation_EX1_EP,1,62,2021-11-18T17:10:52+00:00,8.126631975174,4,versionC_stim.csv,READVersionD.csv,"Read Version D","Dissertation, read only version D",REEL,ROD,Study2,S,150,146,Study,8,8,,Study/JOL,"Study Phase",8002,,,-1,-1,,,,1
w10112553_MHP,5qe8052hbg,Nick_Dissertation_EX1_EP,1,63,2021-11-18T17:11:00+00:00,8.1169171333313,4,versionC_stim.csv,READVersionD.csv,"Read Version D","Dissertation, read only version D",CHILDREN,MIRROR,Study2,U,174,103,Study,8,8,,Study/JOL,"Study Phase",8002,,,-1,-1,,,,1
w10112553_MHP,5qe8052hbg,Nick_Dissertation_EX1_EP,1,64,2021-11-18T17:11:08+00:00,8.1197328567505,4,versionC_stim.csv,READVersionD.csv,"Read Version D","Dissertation, read only version D",ACTRESS,STAR,Study2,F,120,150,Study,8,8,,Study/JOL,"Study Phase",8003,,,-1,-1,,,,1
w10112553_MHP,5qe8052hbg,Nick_Dissertation_EX1_EP,1,65,2021-11-18T17:11:16+00:00,8.1191999912262,4,versionC_stim.csv,READVersionD.csv,"Read Version D","Dissertation, read only version D",RED,CHERRY,Study2,B,104,125,Study,8,8,,Study/JOL,"Study Phase",8002,,,-1,-1,,,,1
w10112553_MHP,5qe8052hbg,Nick_Dissertation_EX1_EP,1,66,2021-11-18T17:11:24+00:00,8.1175191402435,4,versionC_stim.csv,READVersionD.csv,"Read Version D","Dissertation, read only version D",PAPER,DOCUMENT,Study2,B,109,106,Study,8,8,,Study/JOL,"Study Phase",8002,,,-1,-1,,,,1
w10112553_MHP,5qe8052hbg,Nick_Dissertation_EX1_EP,1,67,2021-11-18T17:11:32+00:00,8.1191618442535,4,versionC_stim.csv,READVersionD.csv,"Read Version D","Dissertation, read only version D",DONKEY,MULE,Study2,B,108,130,Study,8,8,,Study/JOL,"Study Phase",8002,,,-1,-1,,,,1
w10112553_MHP,5qe8052hbg,Nick_Dissertation_EX1_EP,1,68,2021-11-18T17:11:40+00:00,8.1116471290588,4,versionC_stim.csv,READVersionD.csv,"Read Version D","Dissertation, read only version D",NOISE,LOUD,Study2,S,152,151,Study,8,8,,Study/JOL,"Study Phase",8002,,,-1,-1,,,,1
w10112553_MHP,5qe8052hbg,Nick_Dissertation_EX1_EP,1,69,2021-11-18T17:11:48+00:00,8.1072819232941,4,versionC_stim.csv,READVersionD.csv,"Read Version D","Dissertation, read only version D",LEAGUE,BASEBALL,Study2,F,131,97,Study,8,8,,Study/JOL,"Study Phase",8002,,,-1,-1,,,,1
w10112553_MHP,5qe8052hbg,Nick_Dissertation_EX1_EP,1,70,2021-11-18T17:11:56+00:00,8.1220850944519,4,versionC_stim.csv,READVersionD.csv,"Read Version D","Dissertation, read only version D",REVENGE,EVEN,Study2,F,122,152,Study,8,8,,Study/JOL,"Study Phase",8002,,,-1,-1,,,,1
w10112553_MHP,5qe8052hbg,Nick_Dissertation_EX1_EP,1,71,2021-11-18T17:12:05+00:00,8.1135380268097,4,versionC_stim.csv,READVersionD.csv,"Read Version D","Dissertation, read only version D",MAROON,JUSTICE,Study2,U,156,175,Study,8,8,,Study/JOL,"Study Phase",8003,,,-1,-1,,,,1
w10112553_MHP,5qe8052hbg,Nick_Dissertation_EX1_EP,1,72,2021-11-18T17:12:13+00:00,8.1197438240051,4,versionC_stim.csv,READVersionD.csv,"Read Version D","Dissertation, read only version D",CUT,CHOP,Study2,B,107,129,Study,8,8,,Study/JOL,"Study Phase",8002,,,-1,-1,,,,1
w10112553_MHP,5qe8052hbg,Nick_Dissertation_EX1_EP,1,73,2021-11-18T17:12:21+00:00,8.1192882061005,4,versionC_stim.csv,READVersionD.csv,"Read Version D","Dissertation, read only version D",TIE,SHOELACE,Study2,B,99,118,Study,8,8,,Study/JOL,"Study Phase",8002,,,-1,-1,,,,1
w10112553_MHP,5qe8052hbg,Nick_Dissertation_EX1_EP,1,74,2021-11-18T17:12:29+00:00,8.1226618289948,4,versionC_stim.csv,READVersionD.csv,"Read Version D","Dissertation, read only version D",END,ADJOURN,Study2,B,101,111,Study,8,8,,Study/JOL,"Study Phase",8003,,,-1,-1,,,,1
w10112553_MHP,5qe8052hbg,Nick_Dissertation_EX1_EP,1,75,2021-11-18T17:12:37+00:00,8.1225180625916,4,versionC_stim.csv,READVersionD.csv,"Read Version D","Dissertation, read only version D",SEATBELT,SAFETY,Study2,S,147,148,Study,8,8,,Study/JOL,"Study Phase",8001,,,-1,-1,,,,1
w10112553_MHP,5qe8052hbg,Nick_Dissertation_EX1_EP,1,76,2021-11-18T17:12:45+00:00,8.1265199184418,4,versionC_stim.csv,READVersionD.csv,"Read Version D","Dissertation, read only version D",CLOTHES,CAKE,Study2,U,166,110,Study,8,8,,Study/JOL,"Study Phase",8002,,,-1,-1,,,,1
w10112553_MHP,5qe8052hbg,Nick_Dissertation_EX1_EP,1,77,2021-11-18T17:12:53+00:00,8.1206471920013,4,versionC_stim.csv,READVersionD.csv,"Read Version D","Dissertation, read only version D",FIGHT,FEUD,Study2,B,113,156,Study,8,8,,Study/JOL,"Study Phase",8002,,,-1,-1,,,,1
w10112553_MHP,5qe8052hbg,Nick_Dissertation_EX1_EP,1,78,2021-11-18T17:13:01+00:00,8.1119928359985,4,versionC_stim.csv,READVersionD.csv,"Read Version D","Dissertation, read only version D",TAN,SUN,Study2,S,155,122,Study,8,8,,Study/JOL,"Study Phase",8002,,,-1,-1,,,,1
w10112553_MHP,5qe8052hbg,Nick_Dissertation_EX1_EP,1,79,2021-11-18T17:13:10+00:00,9.0733189582825,4,versionC_stim.csv,READVersionD.csv,"Read Version D","Dissertation, read only version D",SIGN,LOAN,Study2,U,171,124,Study,8,8,,Study/JOL,"Study Phase",8001,,,-1,-1,,,,1
w10112553_MHP,5qe8052hbg,Nick_Dissertation_EX1_EP,1,80,2021-11-18T17:13:19+00:00,8.1197969913483,4,versionC_stim.csv,READVersionD.csv,"Read Version D","Dissertation, read only version D",FLIP,TURN,Study2,F,116,105,Study,8,8,,Study/JOL,"Study Phase",8003,,,-1,-1,,,,1
w10112553_MHP,5qe8052hbg,Nick_Dissertation_EX1_EP,1,81,2021-11-18T17:13:27+00:00,8.1131110191345,4,versionC_stim.csv,READVersionD.csv,"Read Version D","Dissertation, read only version D",LONG,EXTENSION,Study2,B,96,109,Study,8,8,,Study/JOL,"Study Phase",8003,,,-1,-1,,,,1
w10112553_MHP,5qe8052hbg,Nick_Dissertation_EX1_EP,1,82,2021-11-18T17:13:35+00:00,8.1284420490265,4,versionC_stim.csv,READVersionD.csv,"Read Version D","Dissertation, read only version D",COFFIN,DEAD,Study2,F,128,170,Study,8,8,,Study/JOL,"Study Phase",8002,,,-1,-1,,,,1
w10112553_MHP,5qe8052hbg,Nick_Dissertation_EX1_EP,1,83,2021-11-18T17:13:43+00:00,8.124675989151,4,versionC_stim.csv,READVersionD.csv,"Read Version D","Dissertation, read only version D",ELECTION,MAZE,Study2,U,159,136,Study,8,8,,Study/JOL,"Study Phase",8002,,,-1,-1,,,,1
w10112553_MHP,5qe8052hbg,Nick_Dissertation_EX1_EP,1,84,2021-11-18T17:13:51+00:00,8.1180779933929,4,versionC_stim.csv,READVersionD.csv,"Read Version D","Dissertation, read only version D",HAVE,OWN,Study2,S,153,155,Study,8,8,,Study/JOL,"Study Phase",8003,,,-1,-1,,,,1
w10112553_MHP,5qe8052hbg,Nick_Dissertation_EX1_EP,1,85,2021-11-18T17:13:59+00:00,8.1124150753021,4,versionC_stim.csv,READVersionD.csv,"Read Version D","Dissertation, read only version D",AWAY,GONE,Study2,S,142,160,Study,8,8,,Study/JOL,"Study Phase",8002,,,-1,-1,,,,1
w10112553_MHP,5qe8052hbg,Nick_Dissertation_EX1_EP,1,86,2021-11-18T17:14:07+00:00,8.1178719997406,4,versionC_stim.csv,READVersionD.csv,"Read Version D","Dissertation, read only version D",LOVE,AFFECTION,Study2,B,115,153,Study,8,8,,Study/JOL,"Study Phase",8002,,,-1,-1,,,,1
w10112553_MHP,5qe8052hbg,Nick_Dissertation_EX1_EP,1,87,2021-11-18T17:14:15+00:00,8.1205840110779,4,versionC_stim.csv,READVersionD.csv,"Read Version D","Dissertation, read only version D",EAT,DINE,Study2,B,111,176,Study,8,8,,Study/JOL,"Study Phase",8002,,,-1,-1,,,,1
w10112553_MHP,5qe8052hbg,Nick_Dissertation_EX1_EP,1,88,2021-11-18T17:14:24+00:00,8.1180188655853,4,versionC_stim.csv,READVersionD.csv,"Read Version D","Dissertation, read only version D",WET,DRY,Study2,S,146,140,Study,8,8,,Study/JOL,"Study Phase",8002,,,-1,-1,,,,1
w10112553_MHP,5qe8052hbg,Nick_Dissertation_EX1_EP,1,89,2021-11-18T17:14:32+00:00,8.1188549995422,4,versionC_stim.csv,READVersionD.csv,"Read Version D","Dissertation, read only version D",SPOOKY,OCTOBER,BUFFER4,Buffer,180,181,Study,8,8,,Study/JOL,BUFFER2,8002,,,-1,-1,,,,1
w10112553_MHP,5qe8052hbg,Nick_Dissertation_EX1_EP,1,90,2021-11-18T17:14:40+00:00,8.1162941455841,4,versionC_stim.csv,READVersionD.csv,"Read Version D","Dissertation, read only version D",SHED,TOOL,BUFFER4,Buffer,178,177,Study,8,8,,Study/JOL,BUFFER2,8002,,,-1,-1,,,,1
w10112553_MHP,5qe8052hbg,Nick_Dissertation_EX1_EP,1,91,2021-11-18T17:14:48+00:00,8.1097660064697,4,versionC_stim.csv,READVersionD.csv,"Read Version D","Dissertation, read only version D",MARCH,SPRING,BUFFER4,Buffer,179,179,Study,8,8,,Study/JOL,BUFFER2,8001,,,-1,-1,,,,1
w10112553_MHP,5qe8052hbg,Nick_Dissertation_EX1_EP,1,92,2021-11-18T17:14:56+00:00,8.1092438697815,4,versionC_stim.csv,READVersionD.csv,"Read Version D","Dissertation, read only version D",WEAKS,DAYS,BUFFER4,Buffer,176,178,Study,8,8,,Study/JOL,BUFFER2,8002,,,-1,-1,,,,1
w10112553_MHP,5qe8052hbg,Nick_Dissertation_EX1_EP,1,93,2021-11-18T17:15:04+00:00,8.1171851158142,4,versionC_stim.csv,READVersionD.csv,"Read Version D","Dissertation, read only version D",YEAR,MONTH,BUFFER4,Buffer,177,180,Study,8,8,,Study/JOL,BUFFER2,8002,,,-1,-1,,,,1
w10112553_MHP,5qe8052hbg,Nick_Dissertation_EX1_EP,1,94,2021-11-18T17:15:09+00:00,4.3956968784332,4,versionC_stim.csv,READVersionD.csv,"Read Version D","Dissertation, read only version D",,,,,,0,Instruct,User,-,"You have completed this section. Please press Enter.",Filler_Instruction,Instruct2,4285,,,-1,-1,,,,1
w10112553_MHP,5qe8052hbg,Nick_Dissertation_EX1_EP,1,95,2021-11-18T17:17:09+00:00,120.12881207466,4,versionC_stim.csv,READVersionD.csv,"Read Version D","Dissertation, read only version D",,,,,,0,FreeRecall,120,120,"Please list the 50 US states in alphabetical order. The task will automatically advance to the next screen after two minutes.",,Filler1,120002,"alabama Alaska arizona Arkansas california colorado Connecticut Delaware florida Georgia hawaii Idaho Iowa kansas kentucky Louisiana maine maryland mississippi",0,6137,117848,0,0,,1
w10112553_MHP,5qe8052hbg,Nick_Dissertation_EX1_EP,1,96,2021-11-18T17:17:23+00:00,14.799129009247,4,versionC_stim.csv,READVersionD.csv,"Read Version D","Dissertation, read only version D",,,,,,0,Instruct,-,10,"You will now be presented with the first word from each of the previously studied item pairs. Please type the missing word. If you do not know the word, you may guess or press Enter to skip forward to the next pair.",,Instruct3,14688,,,-1,-1,,,,1
w10112553_MHP,5qe8052hbg,Nick_Dissertation_EX1_EP,1,97,2021-11-18T17:17:29+00:00,5.5770959854126,4,versionC_stim.csv,READVersionD.csv,"Read Version D","Dissertation, read only version D",TIE,SHOELACE,Study2,B,99,118,Test,User,-,,Recall,Recall1,5465,shoe,66.666666666667,2361,3604,0,0,,1
w10112553_MHP,5qe8052hbg,Nick_Dissertation_EX1_EP,1,98,2021-11-18T17:17:38+00:00,9.2512559890747,4,versionC_stim.csv,READVersionD.csv,"Read Version D","Dissertation, read only version D",Morning,TEMPERATURE,Study2,U,173,143,Test,User,-,,Recall,Recall1,9131,TEMPERATURE,100,2049,8048,1,1,,1
w10112553_MHP,5qe8052hbg,Nick_Dissertation_EX1_EP,1,99,2021-11-18T17:17:44+00:00,5.4446470737457,4,versionC_stim.csv,READVersionD.csv,"Read Version D","Dissertation, read only version D",END,ADJOURN,Study2,B,101,111,Test,User,-,,Recall,Recall1,5328,Adjourn,100,2899,4436,1,1,,1
w10112553_MHP,5qe8052hbg,Nick_Dissertation_EX1_EP,1,100,2021-11-18T17:17:50+00:00,6.5931310653687,4,versionC_stim.csv,READVersionD.csv,"Read Version D","Dissertation, read only version D",FIGHT,FEUD,Study2,B,113,156,Test,User,-,,Recall,Recall1,6473,BRAWL,0,1664,5767,0,0,,1
w10112553_MHP,5qe8052hbg,Nick_Dissertation_EX1_EP,1,101,2021-11-18T17:18:03+00:00,12.432482004166,4,versionC_stim.csv,READVersionD.csv,"Read Version D","Dissertation, read only version D",STEAK,GIVE,Study2,U,158,114,Test,User,-,,Recall,Recall1,12307,END,28.571428571429,8238,11578,0,0,,1
w10112553_MHP,5qe8052hbg,Nick_Dissertation_EX1_EP,1,102,2021-11-18T17:18:10+00:00,7.3568398952484,4,versionC_stim.csv,READVersionD.csv,"Read Version D","Dissertation, read only version D",RED,CHERRY,Study2,B,104,125,Test,User,-,,Recall,Recall1,7233,,0,-1,-1,0,0,,1
w10112553_MHP,5qe8052hbg,Nick_Dissertation_EX1_EP,1,103,2021-11-18T17:18:16+00:00,5.5634479522705,4,versionC_stim.csv,READVersionD.csv,"Read Version D","Dissertation, read only version D",CLOTHES,CAKE,Study2,U,166,110,Test,User,-,,Recall,Recall1,5439,CAKE,100,3785,4793,1,1,,1
w10112553_MHP,5qe8052hbg,Nick_Dissertation_EX1_EP,1,104,2021-11-18T17:18:20+00:00,4.0930099487305,4,versionC_stim.csv,READVersionD.csv,"Read Version D","Dissertation, read only version D",GAME,CLUE,Study2,B,97,166,Test,User,-,,Recall,Recall1,3978,CLUE,100,2565,3305,1,1,,1
w10112553_MHP,5qe8052hbg,Nick_Dissertation_EX1_EP,1,105,2021-11-18T17:18:26+00:00,5.9694550037384,4,versionC_stim.csv,READVersionD.csv,"Read Version D","Dissertation, read only version D",GROUND,EARTH,Study2,S,144,121,Test,User,-,,Recall,Recall1,5852,EARTH,100,1664,4979,1,1,,1
w10112553_MHP,5qe8052hbg,Nick_Dissertation_EX1_EP,1,106,2021-11-18T17:18:31+00:00,5.4307081699371,4,versionC_stim.csv,READVersionD.csv,"Read Version D","Dissertation, read only version D",LEAGUE,BASEBALL,Study2,F,131,97,Test,User,-,,Recall,Recall1,5312,BASEBALL,100,2010,4634,1,1,,1
w10112553_MHP,5qe8052hbg,Nick_Dissertation_EX1_EP,1,107,2021-11-18T17:18:34+00:00,3.1978130340576,4,versionC_stim.csv,READVersionD.csv,"Read Version D","Dissertation, read only version D",SEATBELT,SAFETY,Study2,S,147,148,Test,User,-,,Recall,Recall1,3122,,0,-1,-1,0,0,,1
w10112553_MHP,5qe8052hbg,Nick_Dissertation_EX1_EP,1,108,2021-11-18T17:18:39+00:00,4.4559128284454,4,versionC_stim.csv,READVersionD.csv,"Read Version D","Dissertation, read only version D",HATE,NAME,Study2,U,167,127,Test,User,-,,Recall,Recall1,4353,NAME,100,1829,2659,1,1,,1
w10112553_MHP,5qe8052hbg,Nick_Dissertation_EX1_EP,1,109,2021-11-18T17:18:47+00:00,8.6334371566772,4,versionC_stim.csv,READVersionD.csv,"Read Version D","Dissertation, read only version D",LIE,TRUTH,Study2,S,148,108,Test,User,-,,Recall,Recall1,8522,,0,-1,-1,0,0,,1
w10112553_MHP,5qe8052hbg,Nick_Dissertation_EX1_EP,1,110,2021-11-18T17:18:53+00:00,5.3876459598541,4,versionC_stim.csv,READVersionD.csv,"Read Version D","Dissertation, read only version D",PANTHER,CAT,Study2,F,126,117,Test,User,-,,Recall,Recall1,5273,CAT,100,2875,4579,1,1,,1
w10112553_MHP,5qe8052hbg,Nick_Dissertation_EX1_EP,1,111,2021-11-18T17:18:59+00:00,5.9690518379211,4,versionC_stim.csv,READVersionD.csv,"Read Version D","Dissertation, read only version D",CARBON,ELEMENT,Study2,S,141,119,Test,User,-,,Recall,Recall1,5851,ELEMENT,100,2102,5149,1,1,,1
w10112553_MHP,5qe8052hbg,Nick_Dissertation_EX1_EP,1,112,2021-11-18T17:19:07+00:00,7.7930910587311,4,versionC_stim.csv,READVersionD.csv,"Read Version D","Dissertation, read only version D",HEAD,SCALP,Study2,B,105,137,Test,User,-,,Recall,Recall1,7676,BODY,0,5104,6859,0,0,,1
w10112553_MHP,5qe8052hbg,Nick_Dissertation_EX1_EP,1,113,2021-11-18T17:19:12+00:00,5.4405169487,4,versionC_stim.csv,READVersionD.csv,"Read Version D","Dissertation, read only version D",WAX,CANDLE,Study2,S,139,165,Test,User,-,,Recall,Recall1,5322,CANDLE,100,1844,4607,1,1,,1
w10112553_MHP,5qe8052hbg,Nick_Dissertation_EX1_EP,1,114,2021-11-18T17:19:17+00:00,4.6964690685272,4,versionC_stim.csv,READVersionD.csv,"Read Version D","Dissertation, read only version D",CUT,CHOP,Study2,B,107,129,Test,User,-,,Recall,Recall1,4590,,0,-1,-1,0,0,,1
w10112553_MHP,5qe8052hbg,Nick_Dissertation_EX1_EP,1,115,2021-11-18T17:19:21+00:00,4.0006990432739,4,versionC_stim.csv,READVersionD.csv,"Read Version D","Dissertation, read only version D",DRINK,WATER,Study2,S,143,169,Test,User,-,,Recall,Recall1,3914,water,100,2264,3078,1,1,,1
w10112553_MHP,5qe8052hbg,Nick_Dissertation_EX1_EP,1,116,2021-11-18T17:19:24+00:00,3.5646719932556,4,versionC_stim.csv,READVersionD.csv,"Read Version D","Dissertation, read only version D",SCISSORS,SHEARS,Study2,B,112,145,Test,User,-,,Recall,Recall1,3483,shears,100,1551,2795,1,1,,1
w10112553_MHP,5qe8052hbg,Nick_Dissertation_EX1_EP,1,117,2021-11-18T17:19:26+00:00,1.8027091026306,4,versionC_stim.csv,READVersionD.csv,"Read Version D","Dissertation, read only version D",LONG,EXTENSION,Study2,B,96,109,Test,User,-,,Recall,Recall1,1726,,0,-1,-1,0,0,,1
w10112553_MHP,5qe8052hbg,Nick_Dissertation_EX1_EP,1,118,2021-11-18T17:19:28+00:00,1.6500918865204,4,versionC_stim.csv,READVersionD.csv,"Read Version D","Dissertation, read only version D",AWAY,GONE,Study2,S,142,160,Test,User,-,,Recall,Recall1,1580,,0,-1,-1,0,0,,1
w10112553_MHP,5qe8052hbg,Nick_Dissertation_EX1_EP,1,119,2021-11-18T17:19:34+00:00,6.0891370773315,4,versionC_stim.csv,READVersionD.csv,"Read Version D","Dissertation, read only version D",OUNCE,BOTH,Study2,U,172,120,Test,User,-,,Recall,Recall1,5982,,0,-1,-1,0,0,,1
w10112553_MHP,5qe8052hbg,Nick_Dissertation_EX1_EP,1,120,2021-11-18T17:19:41+00:00,6.9289269447327,4,versionC_stim.csv,READVersionD.csv,"Read Version D","Dissertation, read only version D",TRUTHFUL,HONEST,Study2,F,133,115,Test,User,-,,Recall,Recall1,6803,honest,100,4194,6141,1,1,,1
w10112553_MHP,5qe8052hbg,Nick_Dissertation_EX1_EP,1,121,2021-11-18T17:19:44+00:00,3.1434299945831,4,versionC_stim.csv,READVersionD.csv,"Read Version D","Dissertation, read only version D",FLIP,TURN,Study2,F,116,105,Test,User,-,,Recall,Recall1,3062,,0,-1,-1,0,0,,1
w10112553_MHP,5qe8052hbg,Nick_Dissertation_EX1_EP,1,122,2021-11-18T17:19:51+00:00,7.4135549068451,4,versionC_stim.csv,READVersionD.csv,"Read Version D","Dissertation, read only version D",ELECTION,MAZE,Study2,U,159,136,Test,User,-,,Recall,Recall1,7176,,0,-1,-1,0,0,,1
w10112553_MHP,5qe8052hbg,Nick_Dissertation_EX1_EP,1,123,2021-11-18T17:19:53+00:00,1.7240490913391,4,versionC_stim.csv,READVersionD.csv,"Read Version D","Dissertation, read only version D",COMMUNICATION,PHONE,Study2,S,149,102,Test,User,-,,Recall,Recall1,1643,,0,-1,-1,0,0,,1
w10112553_MHP,5qe8052hbg,Nick_Dissertation_EX1_EP,1,124,2021-11-18T17:19:54+00:00,1.2655248641968,4,versionC_stim.csv,READVersionD.csv,"Read Version D","Dissertation, read only version D",STRAWBERRY,FRUIT,Study2,F,124,164,Test,User,-,,Recall,Recall1,1187,,0,-1,-1,0,0,,1
w10112553_MHP,5qe8052hbg,Nick_Dissertation_EX1_EP,1,125,2021-11-18T17:19:59+00:00,4.6475231647491,4,versionC_stim.csv,READVersionD.csv,"Read Version D","Dissertation, read only version D",BRACELET,WRIST,Study2,S,140,158,Test,User,-,,Recall,Recall1,4550,wrist,100,1536,3766,1,1,,1
w10112553_MHP,5qe8052hbg,Nick_Dissertation_EX1_EP,1,126,2021-11-18T17:20:01+00:00,1.8307700157166,4,versionC_stim.csv,READVersionD.csv,"Read Version D","Dissertation, read only version D",TICK,FLEA,Study2,S,151,154,Test,User,-,,Recall,Recall1,1744,,0,-1,-1,0,0,,1
w10112553_MHP,5qe8052hbg,Nick_Dissertation_EX1_EP,1,127,2021-11-18T17:20:04+00:00,2.8004469871521,4,versionC_stim.csv,READVersionD.csv,"Read Version D","Dissertation, read only version D",COFFIN,DEAD,Study2,F,128,170,Test,User,-,,Recall,Recall1,2713,death,66.666666666667,1269,2113,0,0,,1
w10112553_MHP,5qe8052hbg,Nick_Dissertation_EX1_EP,1,128,2021-11-18T17:20:05+00:00,1.6010520458221,4,versionC_stim.csv,READVersionD.csv,"Read Version D","Dissertation, read only version D",THIMBLE,THREAD,Study2,F,121,157,Test,User,-,,Recall,Recall1,1526,,0,-1,-1,0,0,,1
w10112553_MHP,5qe8052hbg,Nick_Dissertation_EX1_EP,1,129,2021-11-18T17:20:08+00:00,2.6555709838867,4,versionC_stim.csv,READVersionD.csv,"Read Version D","Dissertation, read only version D",AIRCRAFT,PLANE,Study2,F,129,142,Test,User,-,,Recall,Recall1,2566,plane,100,1276,1983,1,1,,1
w10112553_MHP,5qe8052hbg,Nick_Dissertation_EX1_EP,1,130,2021-11-18T17:20:11+00:00,3.0168888568878,4,versionC_stim.csv,READVersionD.csv,"Read Version D","Dissertation, read only version D",CLEAR,MOAT,Study2,U,169,171,Test,User,-,,Recall,Recall1,2936,,0,-1,-1,0,0,,1
w10112553_MHP,5qe8052hbg,Nick_Dissertation_EX1_EP,1,131,2021-11-18T17:20:22+00:00,11.585400104523,4,versionC_stim.csv,READVersionD.csv,"Read Version D","Dissertation, read only version D",BANG,FUZZY,Study2,U,168,138,Test,User,-,,Recall,Recall1,11484,,0,-1,-1,0,0,,1
w10112553_MHP,5qe8052hbg,Nick_Dissertation_EX1_EP,1,132,2021-11-18T17:20:29+00:00,6.5066928863525,4,versionC_stim.csv,READVersionD.csv,"Read Version D","Dissertation, read only version D",EAT,DINE,Study2,B,111,176,Test,User,-,,Recall,Recall1,6377,fish,25,4280,5026,0,0,,1
w10112553_MHP,5qe8052hbg,Nick_Dissertation_EX1_EP,1,133,2021-11-18T17:20:32+00:00,2.5558860301971,4,versionC_stim.csv,READVersionD.csv,"Read Version D","Dissertation, read only version D",JAR,MASON,Study2,S,138,126,Test,User,-,,Recall,Recall1,2464,mason,100,1194,1881,1,1,,1
w10112553_MHP,5qe8052hbg,Nick_Dissertation_EX1_EP,1,134,2021-11-18T17:20:37+00:00,5.2520279884338,4,versionC_stim.csv,READVersionD.csv,"Read Version D","Dissertation, read only version D",NOISE,LOUD,Study2,S,152,151,Test,User,-,,Recall,Recall1,5146,loud,100,3980,4539,1,1,,1
w10112553_MHP,5qe8052hbg,Nick_Dissertation_EX1_EP,1,135,2021-11-18T17:20:45+00:00,7.8494379520416,4,versionC_stim.csv,READVersionD.csv,"Read Version D","Dissertation, read only version D",SCAR,MAIN,Study2,U,175,168,Test,User,-,,Recall,Recall1,7739,main,100,2673,4596,1,1,,1
w10112553_MHP,5qe8052hbg,Nick_Dissertation_EX1_EP,1,136,2021-11-18T17:20:47+00:00,2.6904220581055,4,versionC_stim.csv,READVersionD.csv,"Read Version D","Dissertation, read only version D",LOVE,AFFECTION,Study2,B,115,153,Test,User,-,,Recall,Recall1,2617,,0,-1,-1,0,0,,1
w10112553_MHP,5qe8052hbg,Nick_Dissertation_EX1_EP,1,137,2021-11-18T17:20:50+00:00,2.933629989624,4,versionC_stim.csv,READVersionD.csv,"Read Version D","Dissertation, read only version D",DOG,FURRY,Study2,B,102,159,Test,User,-,,Recall,Recall1,2851,furry,100,1640,2242,1,1,,1
w10112553_MHP,5qe8052hbg,Nick_Dissertation_EX1_EP,1,138,2021-11-18T17:20:57+00:00,6.7020621299744,4,versionC_stim.csv,READVersionD.csv,"Read Version D","Dissertation, read only version D",ACTRESS,STAR,Study2,F,120,150,Test,User,-,,Recall,Recall1,6593,,0,-1,-1,0,0,,1
w10112553_MHP,5qe8052hbg,Nick_Dissertation_EX1_EP,1,139,2021-11-18T17:21:01+00:00,3.7896358966827,4,versionC_stim.csv,READVersionD.csv,"Read Version D","Dissertation, read only version D",TEMPER,TANTRUM,Study2,S,154,163,Test,User,-,,Recall,Recall1,3695,tantrum,100,1595,3131,1,1,,1
w10112553_MHP,5qe8052hbg,Nick_Dissertation_EX1_EP,1,140,2021-11-18T17:21:05+00:00,3.7541251182556,4,versionC_stim.csv,READVersionD.csv,"Read Version D","Dissertation, read only version D",ABLE,CRACKLE,Study2,U,162,133,Test,User,-,,Recall,Recall1,3672,crack,83.333333333333,2047,2901,0,1,,1
w10112553_MHP,5qe8052hbg,Nick_Dissertation_EX1_EP,1,141,2021-11-18T17:21:06+00:00,1.8857309818268,4,versionC_stim.csv,READVersionD.csv,"Read Version D","Dissertation, read only version D",BANKER,MONEY,Study2,F,132,161,Test,User,-,,Recall,Recall1,1816,,0,-1,-1,0,0,,1
w10112553_MHP,5qe8052hbg,Nick_Dissertation_EX1_EP,1,142,2021-11-18T17:21:08+00:00,1.6913809776306,4,versionC_stim.csv,READVersionD.csv,"Read Version D","Dissertation, read only version D",TAN,SUN,Study2,S,155,122,Test,User,-,,Recall,Recall1,1614,,0,-1,-1,0,0,,1
w10112553_MHP,5qe8052hbg,Nick_Dissertation_EX1_EP,1,143,2021-11-18T17:21:10+00:00,2.2135150432587,4,versionC_stim.csv,READVersionD.csv,"Read Version D","Dissertation, read only version D",PENGUIN,BIRD,Study2,F,119,104,Test,User,-,,Recall,Recall1,2134,,0,-1,-1,0,0,,1
w10112553_MHP,5qe8052hbg,Nick_Dissertation_EX1_EP,1,144,2021-11-18T17:21:11+00:00,1.19056391716,4,versionC_stim.csv,READVersionD.csv,"Read Version D","Dissertation, read only version D",CHILDREN,MIRROR,Study2,U,174,103,Test,User,-,,Recall,Recall1,1121,,0,-1,-1,0,0,,1
w10112553_MHP,5qe8052hbg,Nick_Dissertation_EX1_EP,1,145,2021-11-18T17:21:13+00:00,1.4903340339661,4,versionC_stim.csv,READVersionD.csv,"Read Version D","Dissertation, read only version D",REEL,ROD,Study2,S,150,146,Test,User,-,,Recall,Recall1,1415,,0,-1,-1,0,0,,1
w10112553_MHP,5qe8052hbg,Nick_Dissertation_EX1_EP,1,146,2021-11-18T17:21:21+00:00,8.2734520435333,4,versionC_stim.csv,READVersionD.csv,"Read Version D","Dissertation, read only version D",SIGN,LOAN,Study2,U,171,124,Test,User,-,,Recall,Recall1,8158,lease,44.444444444444,3476,7429,0,0,,1
w10112553_MHP,5qe8052hbg,Nick_Dissertation_EX1_EP,1,147,2021-11-18T17:21:25+00:00,4.1854848861694,4,versionC_stim.csv,READVersionD.csv,"Read Version D","Dissertation, read only version D",VILLAIN,BAD,Study2,F,118,113,Test,User,-,,Recall,Recall1,4067,bad,100,2220,2598,1,1,,1
w10112553_MHP,5qe8052hbg,Nick_Dissertation_EX1_EP,1,148,2021-11-18T17:21:31+00:00,5.3432559967041,4,versionC_stim.csv,READVersionD.csv,"Read Version D","Dissertation, read only version D",EQUAL,RIGHTS,Study2,S,137,98,Test,User,-,,Recall,Recall1,5230,rights,100,3384,4674,1,1,,1
w10112553_MHP,5qe8052hbg,Nick_Dissertation_EX1_EP,1,149,2021-11-18T17:21:37+00:00,6.4954280853271,4,versionC_stim.csv,READVersionD.csv,"Read Version D","Dissertation, read only version D",BRAWL,FIGHT,Study2,F,135,134,Test,User,-,,Recall,Recall1,6381,fight,100,2388,3056,1,1,,1
w10112553_MHP,5qe8052hbg,Nick_Dissertation_EX1_EP,1,150,2021-11-18T17:21:39+00:00,2.1775510311127,4,versionC_stim.csv,READVersionD.csv,"Read Version D","Dissertation, read only version D",PAPER,DOCUMENT,Study2,B,109,106,Test,User,-,,Recall,Recall1,2099,,0,-1,-1,0,0,,1
w10112553_MHP,5qe8052hbg,Nick_Dissertation_EX1_EP,1,151,2021-11-18T17:21:42+00:00,2.533029794693,4,versionC_stim.csv,READVersionD.csv,"Read Version D","Dissertation, read only version D",SARDINE,FISH,Study2,F,130,147,Test,User,-,,Recall,Recall1,2423,fish,100,1352,1797,1,1,,1
w10112553_MHP,5qe8052hbg,Nick_Dissertation_EX1_EP,1,152,2021-11-18T17:21:45+00:00,3.4531571865082,4,versionC_stim.csv,READVersionD.csv,"Read Version D","Dissertation, read only version D",FICTION,LISTEN,Study2,U,164,101,Test,User,-,,Recall,Recall1,3274,listen,100,1556,2441,1,1,,1
w10112553_MHP,5qe8052hbg,Nick_Dissertation_EX1_EP,1,153,2021-11-18T17:21:48+00:00,2.7949368953705,4,versionC_stim.csv,READVersionD.csv,"Read Version D","Dissertation, read only version D",DONKEY,MULE,Study2,B,108,130,Test,User,-,,Recall,Recall1,2709,mule,100,1505,2124,1,1,,1
w10112553_MHP,5qe8052hbg,Nick_Dissertation_EX1_EP,1,154,2021-11-18T17:21:52+00:00,3.6196739673615,4,versionC_stim.csv,READVersionD.csv,"Read Version D","Dissertation, read only version D",REVENGE,EVEN,Study2,F,122,152,Test,User,-,,Recall,Recall1,3526,even,100,2117,2660,1,1,,1
w10112553_MHP,5qe8052hbg,Nick_Dissertation_EX1_EP,1,155,2021-11-18T17:21:53+00:00,1.2375900745392,4,versionC_stim.csv,READVersionD.csv,"Read Version D","Dissertation, read only version D",TRASH,LITTER,Study2,B,103,144,Test,User,-,,Recall,Recall1,1163,,0,-1,-1,0,0,,1
w10112553_MHP,5qe8052hbg,Nick_Dissertation_EX1_EP,1,156,2021-11-18T17:21:56+00:00,3.0044250488281,4,versionC_stim.csv,READVersionD.csv,"Read Version D","Dissertation, read only version D",CAR,DRIVER,Study2,B,106,112,Test,User,-,,Recall,Recall1,2927,driver,100,1222,2197,1,1,,1
w10112553_MHP,5qe8052hbg,Nick_Dissertation_EX1_EP,1,157,2021-11-18T17:22:02+00:00,5.5720129013062,4,versionC_stim.csv,READVersionD.csv,"Read Version D","Dissertation, read only version D",JOKE,KEYS,Study2,U,165,174,Test,User,-,,Recall,Recall1,5454,keys,100,3904,4981,1,1,,1
w10112553_MHP,5qe8052hbg,Nick_Dissertation_EX1_EP,1,158,2021-11-18T17:22:04+00:00,2.1931660175323,4,versionC_stim.csv,READVersionD.csv,"Read Version D","Dissertation, read only version D",HAVE,OWN,Study2,S,153,155,Test,User,-,,Recall,Recall1,2109,,0,-1,-1,0,0,,1
w10112553_MHP,5qe8052hbg,Nick_Dissertation_EX1_EP,1,159,2021-11-18T17:22:12+00:00,8.0347309112549,4,versionC_stim.csv,READVersionD.csv,"Read Version D","Dissertation, read only version D",TOIL,LEASE,Study2,U,170,116,Test,User,-,,Recall,Recall1,7930,,0,-1,-1,0,0,,1
w10112553_MHP,5qe8052hbg,Nick_Dissertation_EX1_EP,1,160,2021-11-18T17:22:14+00:00,2.0902512073517,4,versionC_stim.csv,READVersionD.csv,"Read Version D","Dissertation, read only version D",CLOTH,STRETCH,Study2,U,157,100,Test,User,-,,Recall,Recall1,2007,,0,-1,-1,0,0,,1
w10112553_MHP,5qe8052hbg,Nick_Dissertation_EX1_EP,1,161,2021-11-18T17:22:16+00:00,2.34095287323,4,versionC_stim.csv,READVersionD.csv,"Read Version D","Dissertation, read only version D",WET,DRY,Study2,S,146,140,Test,User,-,,Recall,Recall1,2263,,0,-1,-1,0,0,,1
w10112553_MHP,5qe8052hbg,Nick_Dissertation_EX1_EP,1,162,2021-11-18T17:22:20+00:00,3.2521741390228,4,versionC_stim.csv,READVersionD.csv,"Read Version D","Dissertation, read only version D",SMELL,INCENSE,Study2,B,110,162,Test,User,-,,Recall,Recall1,3177,,0,-1,-1,0,0,,1
w10112553_MHP,5qe8052hbg,Nick_Dissertation_EX1_EP,1,163,2021-11-18T17:22:21+00:00,1.0941138267517,4,versionC_stim.csv,READVersionD.csv,"Read Version D","Dissertation, read only version D",NAP,SLEEP,Study2,F,134,141,Test,User,-,,Recall,Recall1,1017,,0,-1,-1,0,0,,1
w10112553_MHP,5qe8052hbg,Nick_Dissertation_EX1_EP,1,164,2021-11-18T17:22:23+00:00,2.8164930343628,4,versionC_stim.csv,READVersionD.csv,"Read Version D","Dissertation, read only version D",LONELY,ALONE,Study2,S,145,99,Test,User,-,,Recall,Recall1,2738,,0,-1,-1,0,0,,1
w10112553_MHP,5qe8052hbg,Nick_Dissertation_EX1_EP,1,165,2021-11-18T17:22:29+00:00,5.7224340438843,4,versionC_stim.csv,READVersionD.csv,"Read Version D","Dissertation, read only version D",MYSTERY,DETECTIVE,Study2,B,100,132,Test,User,-,,Recall,Recall1,5606,"detective ",100,1948,4896,1,1,,1
w10112553_MHP,5qe8052hbg,Nick_Dissertation_EX1_EP,1,166,2021-11-18T17:22:31+00:00,2.10102891922,4,versionC_stim.csv,READVersionD.csv,"Read Version D","Dissertation, read only version D",BALLOON,POP,Study2,F,123,135,Test,User,-,,Recall,Recall1,2027,,0,-1,-1,0,0,,1
w10112553_MHP,5qe8052hbg,Nick_Dissertation_EX1_EP,1,167,2021-11-18T17:22:33+00:00,2.0642840862274,4,versionC_stim.csv,READVersionD.csv,"Read Version D","Dissertation, read only version D",SHAKE,Shell,Study2,U,163,167,Test,User,-,,Recall,Recall1,1986,,0,-1,-1,0,0,,1
w10112553_MHP,5qe8052hbg,Nick_Dissertation_EX1_EP,1,168,2021-11-18T17:22:36+00:00,2.3306429386139,4,versionC_stim.csv,READVersionD.csv,"Read Version D","Dissertation, read only version D",PLANT,CACTUS,Study2,B,98,173,Test,User,-,,Recall,Recall1,2248,,0,-1,-1,0,0,,1
w10112553_MHP,5qe8052hbg,Nick_Dissertation_EX1_EP,1,169,2021-11-18T17:22:37+00:00,1.3770649433136,4,versionC_stim.csv,READVersionD.csv,"Read Version D","Dissertation, read only version D",WINDSHIELD,CAR,Study2,F,117,149,Test,User,-,,Recall,Recall1,1301,,0,-1,-1,0,0,,1
w10112553_MHP,5qe8052hbg,Nick_Dissertation_EX1_EP,1,170,2021-11-18T17:22:41+00:00,3.7930560112,4,versionC_stim.csv,READVersionD.csv,"Read Version D","Dissertation, read only version D",BREAKABLE,GLASS,Study2,F,127,107,Test,User,-,,Recall,Recall1,3700,glass,100,2172,3053,1,1,,1
w10112553_MHP,5qe8052hbg,Nick_Dissertation_EX1_EP,1,171,2021-11-18T17:22:48+00:00,7.5232980251312,4,versionC_stim.csv,READVersionD.csv,"Read Version D","Dissertation, read only version D",MAROON,JUSTICE,Study2,U,156,175,Test,User,-,,Recall,Recall1,7414,justice,100,5083,6638,1,1,,1
w10112553_MHP,5qe8052hbg,Nick_Dissertation_EX1_EP,1,172,2021-11-18T17:22:51+00:00,2.3684620857239,4,versionC_stim.csv,READVersionD.csv,"Read Version D","Dissertation, read only version D",OBTAIN,MEAT,Study2,U,161,131,Test,User,-,,Recall,Recall1,2285,,0,-1,-1,0,0,,1
w10112553_MHP,5qe8052hbg,Nick_Dissertation_EX1_EP,1,173,2021-11-18T17:22:56+00:00,5.6585450172424,4,versionC_stim.csv,READVersionD.csv,"Read Version D","Dissertation, read only version D",CHARM,VEHICLE,Study2,U,160,172,Test,User,-,,Recall,Recall1,5546,"vehicle ",100,2098,4648,1,1,,1
w10112553_MHP,5qe8052hbg,Nick_Dissertation_EX1_EP,1,174,2021-11-18T17:23:06+00:00,9.3602778911591,4,versionC_stim.csv,READVersionD.csv,"Read Version D","Dissertation, read only version D",COLD,CHILL,Study2,B,114,128,Test,User,-,,Recall,Recall1,9248,,0,-1,-1,0,0,,1
w10112553_MHP,5qe8052hbg,Nick_Dissertation_EX1_EP,1,175,2021-11-18T17:23:07+00:00,1.0027251243591,4,versionC_stim.csv,READVersionD.csv,"Read Version D","Dissertation, read only version D",FAVORITE,BEST,Study2,F,125,123,Test,User,-,,Recall,Recall1,919,,0,-1,-1,0,0,,1
w10112553_MHP,5qe8052hbg,Nick_Dissertation_EX1_EP,1,176,2021-11-18T17:23:11+00:00,4.6215829849243,4,versionC_stim.csv,READVersionD.csv,"Read Version D","Dissertation, read only version D",SHAVE,RAZOR,Study2,S,136,139,Test,User,-,,Recall,Recall1,4513,,0,-1,-1,0,0,,1
w10112553_MHP,5qe8052hbg,Nick_Dissertation_EX1_EP,1,177,2021-11-18T17:23:23+00:00,11.692581892014,4,versionC_stim.csv,READVersionD.csv,"Read Version D","Dissertation, read only version D",,,,,,0,Instruct,-,10,"You will now be presented with a new set of word pairs. Please study each pair. Remember that your memory will be tested! When finished, press Enter to move to the next pair.",Initial_Instruct,Instruct4,11582,,,-1,-1,,,,1
w10112553_MHP,5qe8052hbg,Nick_Dissertation_EX1_EP,1,178,2021-11-18T17:23:28+00:00,5.3383600711823,4,versionC_stim.csv,READVersionD.csv,"Read Version D","Dissertation, read only version D",,,,,,0,Instruct,User,-,"Each word will be displayed on the computer screen for 8 seconds. The screen will automatically move to the next pair when time is up. Press Enter when you are ready to begin.",,Instruct11,5229,,,-1,-1,,,,1
w10112553_MHP,5qe8052hbg,Nick_Dissertation_EX1_EP,1,179,2021-11-18T17:23:37+00:00,8.1130740642548,4,versionC_stim.csv,READVersionD.csv,"Read Version D","Dissertation, read only version D",GREEN,TREES,BUFFER1,Buffer,1,3,Study,8,8,,Study/JOL,BUFFER3,8003,,,-1,-1,,,,1
w10112553_MHP,5qe8052hbg,Nick_Dissertation_EX1_EP,1,180,2021-11-18T17:23:45+00:00,8.1208879947662,4,versionC_stim.csv,READVersionD.csv,"Read Version D","Dissertation, read only version D",CATCHER,BASEBALL,BUFFER1,Buffer,2,4,Study,8,8,,Study/JOL,BUFFER3,8008,,,-1,-1,,,,1
w10112553_MHP,5qe8052hbg,Nick_Dissertation_EX1_EP,1,181,2021-11-18T17:23:53+00:00,8.1196479797363,4,versionC_stim.csv,READVersionD.csv,"Read Version D","Dissertation, read only version D",JAM,SPACE,BUFFER1,Buffer,5,6,Study,8,8,,Study/JOL,BUFFER3,8002,,,-1,-1,,,,1
w10112553_MHP,5qe8052hbg,Nick_Dissertation_EX1_EP,1,182,2021-11-18T17:24:01+00:00,8.1185209751129,4,versionC_stim.csv,READVersionD.csv,"Read Version D","Dissertation, read only version D",HIDE,SCARE,BUFFER1,Buffer,4,5,Study,8,8,,Study/JOL,BUFFER3,8002,,,-1,-1,,,,1
w10112553_MHP,5qe8052hbg,Nick_Dissertation_EX1_EP,1,183,2021-11-18T17:24:09+00:00,8.1248199939728,4,versionC_stim.csv,READVersionD.csv,"Read Version D","Dissertation, read only version D",BUTTER,PEANUT,BUFFER1,Buffer,3,2,Study,8,8,,Study/JOL,BUFFER3,8002,,,-1,-1,,,,1
w10112553_MHP,5qe8052hbg,Nick_Dissertation_EX1_EP,1,184,2021-11-18T17:24:17+00:00,8.1219229698181,4,versionC_stim.csv,READVersionD.csv,"Read Version D","Dissertation, read only version D",FISH,TUNA,Study1,B,25,67,Study,8,8,,Study/JOL,"Study Phase2",8002,,,-1,-1,,,,1
w10112553_MHP,5qe8052hbg,Nick_Dissertation_EX1_EP,1,185,2021-11-18T17:24:25+00:00,8.1194140911102,4,versionC_stim.csv,READVersionD.csv,"Read Version D","Dissertation, read only version D",LION,ART,Study1,U,79,62,Study,8,8,,Study/JOL,"Study Phase2",8002,,,-1,-1,,,,1
w10112553_MHP,5qe8052hbg,Nick_Dissertation_EX1_EP,1,186,2021-11-18T17:24:33+00:00,8.1263949871063,4,versionC_stim.csv,READVersionD.csv,"Read Version D","Dissertation, read only version D",ASSIGNMENT,DUE,Study1,S,46,82,Study,8,8,,Study/JOL,"Study Phase2",8002,,,-1,-1,,,,1
w10112553_MHP,5qe8052hbg,Nick_Dissertation_EX1_EP,1,187,2021-11-18T17:24:42+00:00,8.1125378608704,4,versionC_stim.csv,READVersionD.csv,"Read Version D","Dissertation, read only version D",WASTE,DUMP,Study1,S,49,46,Study,8,8,,Study/JOL,"Study Phase2",8002,,,-1,-1,,,,1
w10112553_MHP,5qe8052hbg,Nick_Dissertation_EX1_EP,1,188,2021-11-18T17:24:50+00:00,8.8848149776459,4,versionC_stim.csv,READVersionD.csv,"Read Version D","Dissertation, read only version D",BEE,HONEY,Study1,S,63,49,Study,8,8,,Study/JOL,"Study Phase2",8001,,,-1,-1,,,,1
w10112553_MHP,5qe8052hbg,Nick_Dissertation_EX1_EP,1,189,2021-11-18T17:24:59+00:00,8.1162860393524,4,versionC_stim.csv,READVersionD.csv,"Read Version D","Dissertation, read only version D",FLOOR,DISCOVER,Study1,U,71,32,Study,8,8,,Study/JOL,"Study Phase2",8003,,,-1,-1,,,,1
w10112553_MHP,5qe8052hbg,Nick_Dissertation_EX1_EP,1,190,2021-11-18T17:25:07+00:00,8.1126899719238,4,versionC_stim.csv,READVersionD.csv,"Read Version D","Dissertation, read only version D",OUT,WAY,Study1,B,16,55,Study,8,8,,Study/JOL,"Study Phase2",8002,,,-1,-1,,,,1
w10112553_MHP,5qe8052hbg,Nick_Dissertation_EX1_EP,1,191,2021-11-18T17:25:15+00:00,8.1187250614166,4,versionC_stim.csv,READVersionD.csv,"Read Version D","Dissertation, read only version D",FANTASTIC,GREAT,Study1,F,35,9,Study,8,8,,Study/JOL,"Study Phase2",8002,,,-1,-1,,,,1
w10112553_MHP,5qe8052hbg,Nick_Dissertation_EX1_EP,1,192,2021-11-18T17:25:23+00:00,8.1186289787292,4,versionC_stim.csv,READVersionD.csv,"Read Version D","Dissertation, read only version D",DEFINITION,MEANING,Study1,S,62,20,Study,8,8,,Study/JOL,"Study Phase2",8002,,,-1,-1,,,,1
w10112553_MHP,5qe8052hbg,Nick_Dissertation_EX1_EP,1,193,2021-11-18T17:25:31+00:00,8.1192190647125,4,versionC_stim.csv,READVersionD.csv,"Read Version D","Dissertation, read only version D",COW,HERD,Study1,B,22,15,Study,8,8,,Study/JOL,"Study Phase2",8002,,,-1,-1,,,,1
w10112553_MHP,5qe8052hbg,Nick_Dissertation_EX1_EP,1,194,2021-11-18T17:25:39+00:00,8.1253049373627,4,versionC_stim.csv,READVersionD.csv,"Read Version D","Dissertation, read only version D",STOMACH,DIGESTION,Study1,B,7,81,Study,8,8,,Study/JOL,"Study Phase2",8002,,,-1,-1,,,,1
w10112553_MHP,5qe8052hbg,Nick_Dissertation_EX1_EP,1,195,2021-11-18T17:25:47+00:00,8.1223959922791,4,versionC_stim.csv,READVersionD.csv,"Read Version D","Dissertation, read only version D",CHORE,WORK,Study1,F,39,85,Study,8,8,,Study/JOL,"Study Phase2",8001,,,-1,-1,,,,1
w10112553_MHP,5qe8052hbg,Nick_Dissertation_EX1_EP,1,196,2021-11-18T17:25:55+00:00,8.1156721115112,4,versionC_stim.csv,READVersionD.csv,"Read Version D","Dissertation, read only version D",CARD,CREDIT,Study1,B,23,70,Study,8,8,,Study/JOL,"Study Phase2",8002,,,-1,-1,,,,1
w10112553_MHP,5qe8052hbg,Nick_Dissertation_EX1_EP,1,197,2021-11-18T17:26:03+00:00,8.121013879776,4,versionC_stim.csv,READVersionD.csv,"Read Version D","Dissertation, read only version D",BAR,GRILL,Study1,S,52,12,Study,8,8,,Study/JOL,"Study Phase2",8002,,,-1,-1,,,,1
w10112553_MHP,5qe8052hbg,Nick_Dissertation_EX1_EP,1,198,2021-11-18T17:26:12+00:00,8.1268150806427,4,versionC_stim.csv,READVersionD.csv,"Read Version D","Dissertation, read only version D",SALAD,LETTUCE,Study1,S,59,71,Study,8,8,,Study/JOL,"Study Phase2",8003,,,-1,-1,,,,1
w10112553_MHP,5qe8052hbg,Nick_Dissertation_EX1_EP,1,199,2021-11-18T17:26:20+00:00,8.1177649497986,4,versionC_stim.csv,READVersionD.csv,"Read Version D","Dissertation, read only version D",BRONZE,ARTERY,Study1,U,74,21,Study,8,8,,Study/JOL,"Study Phase2",8002,,,-1,-1,,,,1
w10112553_MHP,5qe8052hbg,Nick_Dissertation_EX1_EP,1,200,2021-11-18T17:26:28+00:00,8.1211020946503,4,versionC_stim.csv,READVersionD.csv,"Read Version D","Dissertation, read only version D",LATCH,KEY,Study1,F,36,33,Study,8,8,,Study/JOL,"Study Phase2",8002,,,-1,-1,,,,1
w10112553_MHP,5qe8052hbg,Nick_Dissertation_EX1_EP,1,201,2021-11-18T17:26:36+00:00,8.057060956955,4,versionC_stim.csv,READVersionD.csv,"Read Version D","Dissertation, read only version D",WATER,BRIDGE,Study1,B,18,29,Study,8,8,,Study/JOL,"Study Phase2",8002,,,-1,-1,,,,1
w10112553_MHP,5qe8052hbg,Nick_Dissertation_EX1_EP,1,202,2021-11-18T17:26:44+00:00,8.1238920688629,4,versionC_stim.csv,READVersionD.csv,"Read Version D","Dissertation, read only version D",FLOWER,ORCHID,Study1,B,24,35,Study,8,8,,Study/JOL,"Study Phase2",8002,,,-1,-1,,,,1
w10112553_MHP,5qe8052hbg,Nick_Dissertation_EX1_EP,1,203,2021-11-18T17:26:52+00:00,8.1184020042419,4,versionC_stim.csv,READVersionD.csv,"Read Version D","Dissertation, read only version D",RIDDLE,SUGAR,Study1,U,81,64,Study,8,8,,Study/JOL,"Study Phase2",8002,,,-1,-1,,,,1
w10112553_MHP,5qe8052hbg,Nick_Dissertation_EX1_EP,1,204,2021-11-18T17:27:00+00:00,8.1096088886261,4,versionC_stim.csv,READVersionD.csv,"Read Version D","Dissertation, read only version D",ADD,VALLEY,Study1,U,82,83,Study,8,8,,Study/JOL,"Study Phase2",8001,,,-1,-1,,,,1
w10112553_MHP,5qe8052hbg,Nick_Dissertation_EX1_EP,1,205,2021-11-18T17:27:08+00:00,8.1200189590454,4,versionC_stim.csv,READVersionD.csv,"Read Version D","Dissertation, read only version D",SIP,DRINK,Study1,F,27,47,Study,8,8,,Study/JOL,"Study Phase2",8002,,,-1,-1,,,,1
w10112553_MHP,5qe8052hbg,Nick_Dissertation_EX1_EP,1,206,2021-11-18T17:27:16+00:00,8.1136629581451,4,versionC_stim.csv,READVersionD.csv,"Read Version D","Dissertation, read only version D",VASE,KING,Study1,U,85,34,Study,8,8,,Study/JOL,"Study Phase2",8002,,,-1,-1,,,,1
w10112553_MHP,5qe8052hbg,Nick_Dissertation_EX1_EP,1,207,2021-11-18T17:27:25+00:00,8.1204421520233,4,versionC_stim.csv,READVersionD.csv,"Read Version D","Dissertation, read only version D",STING,HORNET,Study1,B,11,84,Study,8,8,,Study/JOL,"Study Phase2",8002,,,-1,-1,,,,1
w10112553_MHP,5qe8052hbg,Nick_Dissertation_EX1_EP,1,208,2021-11-18T17:27:33+00:00,8.1158890724182,4,versionC_stim.csv,READVersionD.csv,"Read Version D","Dissertation, read only version D",CLEAN,HYGIENE,Study1,B,17,30,Study,8,8,,Study/JOL,"Study Phase2",8002,,,-1,-1,,,,1
w10112553_MHP,5qe8052hbg,Nick_Dissertation_EX1_EP,1,209,2021-11-18T17:27:41+00:00,8.1942429542542,4,versionC_stim.csv,READVersionD.csv,"Read Version D","Dissertation, read only version D",BLAZE,FIRE,Study1,F,45,22,Study,8,8,,Study/JOL,"Study Phase2",8002,,,-1,-1,,,,1
w10112553_MHP,5qe8052hbg,Nick_Dissertation_EX1_EP,1,210,2021-11-18T17:27:50+00:00,9.4103589057922,4,versionC_stim.csv,READVersionD.csv,"Read Version D","Dissertation, read only version D",POSITION,MACHINE,Study1,U,76,45,Study,8,8,,Study/JOL,"Study Phase2",8002,,,-1,-1,,,,1
w10112553_MHP,5qe8052hbg,Nick_Dissertation_EX1_EP,1,211,2021-11-18T17:27:58+00:00,8.1257600784302,4,versionC_stim.csv,READVersionD.csv,"Read Version D","Dissertation, read only version D",DROWSY,SLEEP,Study1,F,41,37,Study,8,8,,Study/JOL,"Study Phase2",8003,,,-1,-1,,,,1
w10112553_MHP,5qe8052hbg,Nick_Dissertation_EX1_EP,1,212,2021-11-18T17:28:07+00:00,8.1225979328156,4,versionC_stim.csv,READVersionD.csv,"Read Version D","Dissertation, read only version D",BAD,DELINQUENT,Study1,B,6,79,Study,8,8,,Study/JOL,"Study Phase2",8001,,,-1,-1,,,,1
w10112553_MHP,5qe8052hbg,Nick_Dissertation_EX1_EP,1,213,2021-11-18T17:28:15+00:00,8.1204750537872,4,versionC_stim.csv,READVersionD.csv,"Read Version D","Dissertation, read only version D",CHILI,HOT,Study1,F,37,23,Study,8,8,,Study/JOL,"Study Phase2",8003,,,-1,-1,,,,1
w10112553_MHP,5qe8052hbg,Nick_Dissertation_EX1_EP,1,214,2021-11-18T17:28:23+00:00,8.1212649345398,4,versionC_stim.csv,READVersionD.csv,"Read Version D","Dissertation, read only version D",FUTURE,PAST,Study1,S,61,38,Study,8,8,,Study/JOL,"Study Phase2",8002,,,-1,-1,,,,1
w10112553_MHP,5qe8052hbg,Nick_Dissertation_EX1_EP,1,215,2021-11-18T17:28:31+00:00,8.1266710758209,4,versionC_stim.csv,READVersionD.csv,"Read Version D","Dissertation, read only version D",CHEESE,WINE,Study1,S,57,48,Study,8,8,,Study/JOL,"Study Phase2",8002,,,-1,-1,,,,1
w10112553_MHP,5qe8052hbg,Nick_Dissertation_EX1_EP,1,216,2021-11-18T17:28:39+00:00,8.1326448917389,4,versionC_stim.csv,READVersionD.csv,"Read Version D","Dissertation, read only version D",TUCK,ALLOW,Study1,U,78,86,Study,8,8,,Study/JOL,"Study Phase2",8002,,,-1,-1,,,,1
w10112553_MHP,5qe8052hbg,Nick_Dissertation_EX1_EP,1,217,2021-11-18T17:28:47+00:00,8.1194429397583,4,versionC_stim.csv,READVersionD.csv,"Read Version D","Dissertation, read only version D",LIVER,KIDNEY,Study1,S,53,42,Study,8,8,,Study/JOL,"Study Phase2",8002,,,-1,-1,,,,1
w10112553_MHP,5qe8052hbg,Nick_Dissertation_EX1_EP,1,218,2021-11-18T17:28:55+00:00,8.1205990314484,4,versionC_stim.csv,READVersionD.csv,"Read Version D","Dissertation, read only version D",AMOUNT,NUMBER,Study1,S,47,78,Study,8,8,,Study/JOL,"Study Phase2",8002,,,-1,-1,,,,1
w10112553_MHP,5qe8052hbg,Nick_Dissertation_EX1_EP,1,219,2021-11-18T17:29:03+00:00,8.1263799667358,4,versionC_stim.csv,READVersionD.csv,"Read Version D","Dissertation, read only version D",WASP,BUG,Study1,F,32,68,Study,8,8,,Study/JOL,"Study Phase2",8002,,,-1,-1,,,,1
w10112553_MHP,5qe8052hbg,Nick_Dissertation_EX1_EP,1,220,2021-11-18T17:29:12+00:00,8.1346552371979,4,versionC_stim.csv,READVersionD.csv,"Read Version D","Dissertation, read only version D",SITE,LOCATION,Study1,S,48,17,Study,8,8,,Study/JOL,"Study Phase2",8002,,,-1,-1,,,,1
w10112553_MHP,5qe8052hbg,Nick_Dissertation_EX1_EP,1,221,2021-11-18T17:29:20+00:00,8.1092269420624,4,versionC_stim.csv,READVersionD.csv,"Read Version D","Dissertation, read only version D",TALK,DISCUSSION,Study1,B,21,10,Study,8,8,,Study/JOL,"Study Phase2",8002,,,-1,-1,,,,1
w10112553_MHP,5qe8052hbg,Nick_Dissertation_EX1_EP,1,222,2021-11-18T17:29:28+00:00,8.1196119785309,4,versionC_stim.csv,READVersionD.csv,"Read Version D","Dissertation, read only version D",ROUND,CIRCLE,Study1,S,65,36,Study,8,8,,Study/JOL,"Study Phase2",8001,,,-1,-1,,,,1
w10112553_MHP,5qe8052hbg,Nick_Dissertation_EX1_EP,1,223,2021-11-18T17:29:36+00:00,8.1175799369812,4,versionC_stim.csv,READVersionD.csv,"Read Version D","Dissertation, read only version D",SIGHT,DEBATE,Study1,U,73,14,Study,8,8,,Study/JOL,"Study Phase2",8002,,,-1,-1,,,,1
w10112553_MHP,5qe8052hbg,Nick_Dissertation_EX1_EP,1,224,2021-11-18T17:29:44+00:00,8.120208978653,4,versionC_stim.csv,READVersionD.csv,"Read Version D","Dissertation, read only version D",MONEY,WAGE,Study1,B,8,76,Study,8,8,,Study/JOL,"Study Phase2",8001,,,-1,-1,,,,1
w10112553_MHP,5qe8052hbg,Nick_Dissertation_EX1_EP,1,225,2021-11-18T17:29:52+00:00,8.1166319847107,4,versionC_stim.csv,READVersionD.csv,"Read Version D","Dissertation, read only version D",JURY,TRIAL,Study1,S,50,7,Study,8,8,,Study/JOL,"Study Phase2",8001,,,-1,-1,,,,1
w10112553_MHP,5qe8052hbg,Nick_Dissertation_EX1_EP,1,226,2021-11-18T17:30:00+00:00,8.1179721355438,4,versionC_stim.csv,READVersionD.csv,"Read Version D","Dissertation, read only version D",DESIGN,ARCHITECTURE,Study1,S,51,57,Study,8,8,,Study/JOL,"Study Phase2",8001,,,-1,-1,,,,1
w10112553_MHP,5qe8052hbg,Nick_Dissertation_EX1_EP,1,227,2021-11-18T17:30:08+00:00,8.1250188350677,4,versionC_stim.csv,READVersionD.csv,"Read Version D","Dissertation, read only version D",COLD,BITTER,Study1,B,12,72,Study,8,8,,Study/JOL,"Study Phase2",8002,,,-1,-1,,,,1
w10112553_MHP,5qe8052hbg,Nick_Dissertation_EX1_EP,1,228,2021-11-18T17:30:17+00:00,8.1184601783752,4,versionC_stim.csv,READVersionD.csv,"Read Version D","Dissertation, read only version D",SICK,HIDE,Study1,U,84,69,Study,8,8,,Study/JOL,"Study Phase2",8002,,,-1,-1,,,,1
w10112553_MHP,5qe8052hbg,Nick_Dissertation_EX1_EP,1,229,2021-11-18T17:30:25+00:00,8.1223888397217,4,versionC_stim.csv,READVersionD.csv,"Read Version D","Dissertation, read only version D",END,BEGIN,Study1,S,54,60,Study,8,8,,Study/JOL,"Study Phase2",8002,,,-1,-1,,,,1
w10112553_MHP,5qe8052hbg,Nick_Dissertation_EX1_EP,1,230,2021-11-18T17:30:33+00:00,8.1209371089935,4,versionC_stim.csv,READVersionD.csv,"Read Version D","Dissertation, read only version D",ATTORNEY,LAW,Study1,F,34,51,Study,8,8,,Study/JOL,"Study Phase2",8003,,,-1,-1,,,,1
w10112553_MHP,5qe8052hbg,Nick_Dissertation_EX1_EP,1,231,2021-11-18T17:30:41+00:00,8.117213010788,4,versionC_stim.csv,READVersionD.csv,"Read Version D","Dissertation, read only version D",SACKING,DIETARY,Study1,U,67,73,Study,8,8,,Study/JOL,"Study Phase2",8002,,,-1,-1,,,,1
w10112553_MHP,5qe8052hbg,Nick_Dissertation_EX1_EP,1,232,2021-11-18T17:30:49+00:00,8.1205229759216,4,versionC_stim.csv,READVersionD.csv,"Read Version D","Dissertation, read only version D",ROCK,GEOLOGY,Study1,B,19,26,Study,8,8,,Study/JOL,"Study Phase2",8002,,,-1,-1,,,,1
w10112553_MHP,5qe8052hbg,Nick_Dissertation_EX1_EP,1,233,2021-11-18T17:30:57+00:00,8.1283309459686,4,versionC_stim.csv,READVersionD.csv,"Read Version D","Dissertation, read only version D",STENCH,SMELL,Study1,F,42,16,Study,8,8,,Study/JOL,"Study Phase2",8001,,,-1,-1,,,,1
w10112553_MHP,5qe8052hbg,Nick_Dissertation_EX1_EP,1,234,2021-11-18T17:31:05+00:00,8.1235549449921,4,versionC_stim.csv,READVersionD.csv,"Read Version D","Dissertation, read only version D",WOMAN,LIFT,Study1,U,69,66,Study,8,8,,Study/JOL,"Study Phase2",8002,,,-1,-1,,,,1
w10112553_MHP,5qe8052hbg,Nick_Dissertation_EX1_EP,1,235,2021-11-18T17:31:13+00:00,8.1180560588837,4,versionC_stim.csv,READVersionD.csv,"Read Version D","Dissertation, read only version D",GROWTH,HEIGHT,Study1,F,30,44,Study,8,8,,Study/JOL,"Study Phase2",8002,,,-1,-1,,,,1
w10112553_MHP,5qe8052hbg,Nick_Dissertation_EX1_EP,1,236,2021-11-18T17:31:21+00:00,8.1246781349182,4,versionC_stim.csv,READVersionD.csv,"Read Version D","Dissertation, read only version D",BUSINESS,DEATH,Study1,U,72,13,Study,8,8,,Study/JOL,"Study Phase2",8005,,,-1,-1,,,,1
w10112553_MHP,5qe8052hbg,Nick_Dissertation_EX1_EP,1,237,2021-11-18T17:31:30+00:00,8.1212549209595,4,versionC_stim.csv,READVersionD.csv,"Read Version D","Dissertation, read only version D",HUNGRY,PARK,Study1,U,68,39,Study,8,8,,Study/JOL,"Study Phase2",8001,,,-1,-1,,,,1
w10112553_MHP,5qe8052hbg,Nick_Dissertation_EX1_EP,1,238,2021-11-18T17:31:38+00:00,8.119353055954,4,versionC_stim.csv,READVersionD.csv,"Read Version D","Dissertation, read only version D",WIND,BLOW,Study1,S,55,19,Study,8,8,,Study/JOL,"Study Phase2",8002,,,-1,-1,,,,1
w10112553_MHP,5qe8052hbg,Nick_Dissertation_EX1_EP,1,239,2021-11-18T17:31:46+00:00,8.1178548336029,4,versionC_stim.csv,READVersionD.csv,"Read Version D","Dissertation, read only version D",TOILET,BATHROOM,Study1,S,58,56,Study,8,8,,Study/JOL,"Study Phase2",8002,,,-1,-1,,,,1
w10112553_MHP,5qe8052hbg,Nick_Dissertation_EX1_EP,1,240,2021-11-18T17:31:54+00:00,8.1076831817627,4,versionC_stim.csv,READVersionD.csv,"Read Version D","Dissertation, read only version D",BELT,SOON,Study1,U,70,43,Study,8,8,,Study/JOL,"Study Phase2",8001,,,-1,-1,,,,1
w10112553_MHP,5qe8052hbg,Nick_Dissertation_EX1_EP,1,241,2021-11-18T17:32:02+00:00,8.1277189254761,4,versionC_stim.csv,READVersionD.csv,"Read Version D","Dissertation, read only version D",PLANT,ROOT,Study1,B,13,27,Study,8,8,,Study/JOL,"Study Phase2",8002,,,-1,-1,,,,1
w10112553_MHP,5qe8052hbg,Nick_Dissertation_EX1_EP,1,242,2021-11-18T17:32:10+00:00,8.1354129314423,4,versionC_stim.csv,READVersionD.csv,"Read Version D","Dissertation, read only version D",RACKET,BALL,Study1,F,38,18,Study,8,8,,Study/JOL,"Study Phase2",8001,,,-1,-1,,,,1
w10112553_MHP,5qe8052hbg,Nick_Dissertation_EX1_EP,1,243,2021-11-18T17:32:18+00:00,8.1199049949646,4,versionC_stim.csv,READVersionD.csv,"Read Version D","Dissertation, read only version D",CLUTTER,PUSHER,Study1,U,66,59,Study,8,8,,Study/JOL,"Study Phase2",8001,,,-1,-1,,,,1
w10112553_MHP,5qe8052hbg,Nick_Dissertation_EX1_EP,1,244,2021-11-18T17:32:26+00:00,8.1214470863342,4,versionC_stim.csv,READVersionD.csv,"Read Version D","Dissertation, read only version D",NEWS,EDITOR,Study1,B,10,65,Study,8,8,,Study/JOL,"Study Phase2",8003,,,-1,-1,,,,1
w10112553_MHP,5qe8052hbg,Nick_Dissertation_EX1_EP,1,245,2021-11-18T17:32:35+00:00,8.1214499473572,4,versionC_stim.csv,READVersionD.csv,"Read Version D","Dissertation, read only version D",ENOUGH,FULL,Study1,F,26,63,Study,8,8,,Study/JOL,"Study Phase2",8002,,,-1,-1,,,,1
w10112553_MHP,5qe8052hbg,Nick_Dissertation_EX1_EP,1,246,2021-11-18T17:32:43+00:00,8.1194169521332,4,versionC_stim.csv,READVersionD.csv,"Read Version D","Dissertation, read only version D",FAMINE,HUNGER,Study1,F,40,31,Study,8,8,,Study/JOL,"Study Phase2",8002,,,-1,-1,,,,1
w10112553_MHP,5qe8052hbg,Nick_Dissertation_EX1_EP,1,247,2021-11-18T17:32:51+00:00,8.1175570487976,4,versionC_stim.csv,READVersionD.csv,"Read Version D","Dissertation, read only version D",WOULD,CASH,Study1,U,83,40,Study,8,8,,Study/JOL,"Study Phase2",8003,,,-1,-1,,,,1
w10112553_MHP,5qe8052hbg,Nick_Dissertation_EX1_EP,1,248,2021-11-18T17:32:59+00:00,8.1163649559021,4,versionC_stim.csv,READVersionD.csv,"Read Version D","Dissertation, read only version D",HAND,FIX,Study1,U,75,41,Study,8,8,,Study/JOL,"Study Phase2",8002,,,-1,-1,,,,1
w10112553_MHP,5qe8052hbg,Nick_Dissertation_EX1_EP,1,249,2021-11-18T17:33:07+00:00,8.1158630847931,4,versionC_stim.csv,READVersionD.csv,"Read Version D","Dissertation, read only version D",CHILD,BABY,Study1,S,64,77,Study,8,8,,Study/JOL,"Study Phase2",8002,,,-1,-1,,,,1
w10112553_MHP,5qe8052hbg,Nick_Dissertation_EX1_EP,1,250,2021-11-18T17:33:15+00:00,8.1164128780365,4,versionC_stim.csv,READVersionD.csv,"Read Version D","Dissertation, read only version D",PILOT,PLANE,Study1,F,44,53,Study,8,8,,Study/JOL,"Study Phase2",8001,,,-1,-1,,,,1
w10112553_MHP,5qe8052hbg,Nick_Dissertation_EX1_EP,1,251,2021-11-18T17:33:23+00:00,8.1221301555634,4,versionC_stim.csv,READVersionD.csv,"Read Version D","Dissertation, read only version D",CAR,HAPPY,Study1,U,77,58,Study,8,8,,Study/JOL,"Study Phase2",8002,,,-1,-1,,,,1
w10112553_MHP,5qe8052hbg,Nick_Dissertation_EX1_EP,1,252,2021-11-18T17:33:31+00:00,8.1205070018768,4,versionC_stim.csv,READVersionD.csv,"Read Version D","Dissertation, read only version D",CAVE,DARK,Study1,F,28,28,Study,8,8,,Study/JOL,"Study Phase2",8002,,,-1,-1,,,,1
w10112553_MHP,5qe8052hbg,Nick_Dissertation_EX1_EP,1,253,2021-11-18T17:33:40+00:00,8.1205809116364,4,versionC_stim.csv,READVersionD.csv,"Read Version D","Dissertation, read only version D",SODA,POP,Study1,S,56,61,Study,8,8,,Study/JOL,"Study Phase2",8002,,,-1,-1,,,,1
w10112553_MHP,5qe8052hbg,Nick_Dissertation_EX1_EP,1,254,2021-11-18T17:33:48+00:00,8.1165790557861,4,versionC_stim.csv,READVersionD.csv,"Read Version D","Dissertation, read only version D",WAR,REVOLUTION,Study1,B,20,52,Study,8,8,,Study/JOL,"Study Phase2",8001,,,-1,-1,,,,1
w10112553_MHP,5qe8052hbg,Nick_Dissertation_EX1_EP,1,255,2021-11-18T17:33:56+00:00,8.1226489543915,4,versionC_stim.csv,READVersionD.csv,"Read Version D","Dissertation, read only version D",BIRD,SWAN,Study1,B,14,50,Study,8,8,,Study/JOL,"Study Phase2",8002,,,-1,-1,,,,1
w10112553_MHP,5qe8052hbg,Nick_Dissertation_EX1_EP,1,256,2021-11-18T17:34:04+00:00,8.1211409568787,4,versionC_stim.csv,READVersionD.csv,"Read Version D","Dissertation, read only version D",FOOT,SHOE,Study1,S,60,24,Study,8,8,,Study/JOL,"Study Phase2",8002,,,-1,-1,,,,1
w10112553_MHP,5qe8052hbg,Nick_Dissertation_EX1_EP,1,257,2021-11-18T17:34:12+00:00,8.1293261051178,4,versionC_stim.csv,READVersionD.csv,"Read Version D","Dissertation, read only version D",ACCIDENT,STRONG,Study1,U,80,8,Study,8,8,,Study/JOL,"Study Phase2",8002,,,-1,-1,,,,1
w10112553_MHP,5qe8052hbg,Nick_Dissertation_EX1_EP,1,258,2021-11-18T17:34:20+00:00,8.1253988742828,4,versionC_stim.csv,READVersionD.csv,"Read Version D","Dissertation, read only version D",DIVISION,MATH,Study1,F,33,75,Study,8,8,,Study/JOL,"Study Phase2",8002,,,-1,-1,,,,1
w10112553_MHP,5qe8052hbg,Nick_Dissertation_EX1_EP,1,259,2021-11-18T17:34:28+00:00,8.1231050491333,4,versionC_stim.csv,READVersionD.csv,"Read Version D","Dissertation, read only version D",WORD,SENTENCE,Study1,F,31,54,Study,8,8,,Study/JOL,"Study Phase2",8001,,,-1,-1,,,,1
w10112553_MHP,5qe8052hbg,Nick_Dissertation_EX1_EP,1,260,2021-11-18T17:34:36+00:00,8.1114161014557,4,versionC_stim.csv,READVersionD.csv,"Read Version D","Dissertation, read only version D",HAMMER,CHISEL,Study1,B,9,74,Study,8,8,,Study/JOL,"Study Phase2",8002,,,-1,-1,,,,1
w10112553_MHP,5qe8052hbg,Nick_Dissertation_EX1_EP,1,261,2021-11-18T17:34:45+00:00,8.1242828369141,4,versionC_stim.csv,READVersionD.csv,"Read Version D","Dissertation, read only version D",ATTIRE,CLOTHES,Study1,F,43,80,Study,8,8,,Study/JOL,"Study Phase2",8002,,,-1,-1,,,,1
w10112553_MHP,5qe8052hbg,Nick_Dissertation_EX1_EP,1,262,2021-11-18T17:34:53+00:00,8.1191201210022,4,versionC_stim.csv,READVersionD.csv,"Read Version D","Dissertation, read only version D",SEIZE,TAKE,Study1,F,29,11,Study,8,8,,Study/JOL,"Study Phase2",8002,,,-1,-1,,,,1
w10112553_MHP,5qe8052hbg,Nick_Dissertation_EX1_EP,1,263,2021-11-18T17:35:01+00:00,8.1202020645142,4,versionC_stim.csv,READVersionD.csv,"Read Version D","Dissertation, read only version D",DOG,PAW,Study1,B,15,25,Study,8,8,,Study/JOL,"Study Phase2",8002,,,-1,-1,,,,1
w10112553_MHP,5qe8052hbg,Nick_Dissertation_EX1_EP,1,264,2021-11-18T17:35:09+00:00,8.1852829456329,4,versionC_stim.csv,READVersionD.csv,"Read Version D","Dissertation, read only version D",POLICE,SHERRIF,BUFFER2,Buffer,87,91,Study,8,8,,Study/JOL,BUFFER4,8001,,,-1,-1,,,,1
w10112553_MHP,5qe8052hbg,Nick_Dissertation_EX1_EP,1,265,2021-11-18T17:35:17+00:00,8.1371219158173,4,versionC_stim.csv,READVersionD.csv,"Read Version D","Dissertation, read only version D",STUFF,THING,BUFFER2,Buffer,90,87,Study,8,8,,Study/JOL,BUFFER4,8002,,,-1,-1,,,,1
w10112553_MHP,5qe8052hbg,Nick_Dissertation_EX1_EP,1,266,2021-11-18T17:35:25+00:00,8.1215081214905,4,versionC_stim.csv,READVersionD.csv,"Read Version D","Dissertation, read only version D",SPACE,MOON,BUFFER2,Buffer,89,90,Study,8,8,,Study/JOL,BUFFER4,8001,,,-1,-1,,,,1
w10112553_MHP,5qe8052hbg,Nick_Dissertation_EX1_EP,1,267,2021-11-18T17:35:33+00:00,8.120090007782,4,versionC_stim.csv,READVersionD.csv,"Read Version D","Dissertation, read only version D",CHOCOLATE,MALT,BUFFER2,Buffer,88,88,Study,8,8,,Study/JOL,BUFFER4,8002,,,-1,-1,,,,1
w10112553_MHP,5qe8052hbg,Nick_Dissertation_EX1_EP,1,268,2021-11-18T17:35:41+00:00,8.1209177970886,4,versionC_stim.csv,READVersionD.csv,"Read Version D","Dissertation, read only version D",GOOSE,GEESE,BUFFER2,Buffer,86,89,Study,8,8,,Study/JOL,BUFFER4,8002,,,-1,-1,,,,1
w10112553_MHP,5qe8052hbg,Nick_Dissertation_EX1_EP,1,269,2021-11-18T17:35:58+00:00,16.110821008682,4,versionC_stim.csv,READVersionD.csv,"Read Version D","Dissertation, read only version D",,,,,,0,Instruct,User,-,"You have completed this section. Please press Enter.",Filler_Instruction,Instruct5,15994,,,-1,-1,,,,1
w10112553_MHP,5qe8052hbg,Nick_Dissertation_EX1_EP,1,270,2021-11-18T17:37:58+00:00,120.12008309364,4,versionC_stim.csv,READVersionD.csv,"Read Version D","Dissertation, read only version D",,,,,,0,FreeRecall,120,120,"Please list the 50 US states in reverse alphabetical order (z - a). The task will automatically advance to the next screen after two minutes.",,Filler2,120002,"Alabama arizona Arkansas california Delaware florida Georgia Illinois kansas kentucky main Massachusetts Mississippi North Carolina Nebraska North Dakota pennsy",0,3853,119839,0,0,,1
w10112553_MHP,5qe8052hbg,Nick_Dissertation_EX1_EP,1,271,2021-11-18T17:38:10+00:00,12.019026041031,4,versionC_stim.csv,READVersionD.csv,"Read Version D","Dissertation, read only version D",,,,,,0,Instruct,-,10,"You will now be presented with the first word from each of the previously studied item pairs. Please type the missing word. If you do not know the word, you may guess or press Enter to skip forward to the next pair.",,Instruct6,11894,,,176,176,,,,1
w10112553_MHP,5qe8052hbg,Nick_Dissertation_EX1_EP,1,272,2021-11-18T17:38:38+00:00,28.367192983627,4,versionC_stim.csv,READVersionD.csv,"Read Version D","Dissertation, read only version D",POSITION,MACHINE,Study1,U,76,45,Test,User,-,,Recall,Recall2,28249,,0,-1,-1,0,0,,1
w10112553_MHP,5qe8052hbg,Nick_Dissertation_EX1_EP,1,273,2021-11-18T17:39:37+00:00,58.872140884399,4,versionC_stim.csv,READVersionD.csv,"Read Version D","Dissertation, read only version D",TOILET,BATHROOM,Study1,S,58,56,Test,User,-,,Recall,Recall2,58730,bathroom,100,56285,58031,1,1,,1
w10112553_MHP,5qe8052hbg,Nick_Dissertation_EX1_EP,1,274,2021-11-18T17:39:44+00:00,7.392774105072,4,versionC_stim.csv,READVersionD.csv,"Read Version D","Dissertation, read only version D",STOMACH,DIGESTION,Study1,B,7,81,Test,User,-,,Recall,Recall2,7266,digestion,100,2739,6707,1,1,,1
w10112553_MHP,5qe8052hbg,Nick_Dissertation_EX1_EP,1,275,2021-11-18T17:40:26+00:00,41.895524024963,4,versionC_stim.csv,READVersionD.csv,"Read Version D","Dissertation, read only version D",SALAD,LETTUCE,Study1,S,59,71,Test,User,-,,Recall,Recall2,41765,lettuce,100,38927,40873,1,1,,1
w10112553_MHP,5qe8052hbg,Nick_Dissertation_EX1_EP,1,276,2021-11-18T17:40:58+00:00,31.924926996231,4,versionC_stim.csv,READVersionD.csv,"Read Version D","Dissertation, read only version D",CLEAN,HYGIENE,Study1,B,17,30,Test,User,-,,Recall,Recall2,31795,"hygiene ",100,23384,26072,1,1,,1
w10112553_MHP,5qe8052hbg,Nick_Dissertation_EX1_EP,1,277,2021-11-18T17:41:49+00:00,50.963772058487,4,versionC_stim.csv,READVersionD.csv,"Read Version D","Dissertation, read only version D",SIP,DRINK,Study1,F,27,47,Test,User,-,,Recall,Recall2,50843,drink,100,41909,44946,1,1,,1
w10112553_MHP,5qe8052hbg,Nick_Dissertation_EX1_EP,1,278,2021-11-18T17:42:27+00:00,38.103379964828,4,versionC_stim.csv,READVersionD.csv,"Read Version D","Dissertation, read only version D",END,BEGIN,Study1,S,54,60,Test,User,-,,Recall,Recall2,37966,begin,100,35242,36953,1,1,,1
w10112553_MHP,5qe8052hbg,Nick_Dissertation_EX1_EP,1,279,2021-11-18T17:43:08+00:00,40.726973056793,4,versionC_stim.csv,READVersionD.csv,"Read Version D","Dissertation, read only version D",COW,HERD,Study1,B,22,15,Test,User,-,,Recall,Recall2,40599,herd,100,38844,39732,1,1,,1
w10112553_MHP,5qe8052hbg,Nick_Dissertation_EX1_EP,1,280,2021-11-18T17:43:55+00:00,47.444786787033,4,versionC_stim.csv,READVersionD.csv,"Read Version D","Dissertation, read only version D",TALK,DISCUSSION,Study1,B,21,10,Test,User,-,,Recall,Recall2,47312,,0,42747,43895,0,0,,1
w10112553_MHP,5qe8052hbg,Nick_Dissertation_EX1_EP,1,281,2021-11-18T17:45:08+00:00,72.877153158188,4,versionC_stim.csv,READVersionD.csv,"Read Version D","Dissertation, read only version D",DIVISION,MATH,Study1,F,33,75,Test,User,-,,Recall,Recall2,72758,,0,-1,-1,0,0,,1
w10112553_MHP,5qe8052hbg,Nick_Dissertation_EX1_EP,1,282,2021-11-18T17:45:38+00:00,29.378674030304,4,versionC_stim.csv,READVersionD.csv,"Read Version D","Dissertation, read only version D",BAR,GRILL,Study1,S,52,12,Test,User,-,,Recall,Recall2,29242,grill,100,26874,28587,1,1,,1
w10112553_MHP,5qe8052hbg,Nick_Dissertation_EX1_EP,1,283,2021-11-18T17:46:25+00:00,47.616730928421,4,versionC_stim.csv,READVersionD.csv,"Read Version D","Dissertation, read only version D",LION,ART,Study1,U,79,62,Test,User,-,,Recall,Recall2,47426,art,100,45891,46553,1,1,,1
w10112553_MHP,5qe8052hbg,Nick_Dissertation_EX1_EP,1,284,2021-11-18T17:46:56+00:00,30.823677062988,4,versionC_stim.csv,READVersionD.csv,"Read Version D","Dissertation, read only version D",BRONZE,ARTERY,Study1,U,74,21,Test,User,-,,Recall,Recall2,30696,,0,-1,-1,0,0,,1
w10112553_MHP,5qe8052hbg,Nick_Dissertation_EX1_EP,1,285,2021-11-18T17:47:18+00:00,21.986897945404,4,versionC_stim.csv,READVersionD.csv,"Read Version D","Dissertation, read only version D",WASP,BUG,Study1,F,32,68,Test,User,-,,Recall,Recall2,21847,bug,100,20394,20994,1,1,,1
w10112553_MHP,5qe8052hbg,Nick_Dissertation_EX1_EP,1,286,2021-11-18T17:47:58+00:00,40.01442694664,4,versionC_stim.csv,READVersionD.csv,"Read Version D","Dissertation, read only version D",BELT,SOON,Study1,U,70,43,Test,User,-,,Recall,Recall2,39889,,0,-1,-1,0,0,,1
w10112553_MHP,5qe8052hbg,Nick_Dissertation_EX1_EP,1,287,2021-11-18T17:48:14+00:00,15.754217147827,4,versionC_stim.csv,READVersionD.csv,"Read Version D","Dissertation, read only version D",WORD,SENTENCE,Study1,F,31,54,Test,User,-,,Recall,Recall2,15609,sentence,100,12391,14842,1,1,,1
w10112553_MHP,5qe8052hbg,Nick_Dissertation_EX1_EP,1,288,2021-11-18T17:48:50+00:00,35.879592895508,4,versionC_stim.csv,READVersionD.csv,"Read Version D","Dissertation, read only version D",SICK,HIDE,Study1,U,84,69,Test,User,-,,Recall,Recall2,35753,,0,-1,-1,0,0,,1
w10112553_MHP,5qe8052hbg,Nick_Dissertation_EX1_EP,1,289,2021-11-18T17:49:25+00:00,34.947328090668,4,versionC_stim.csv,READVersionD.csv,"Read Version D","Dissertation, read only version D",ASSIGNMENT,DUE,Study1,S,46,82,Test,User,-,,Recall,Recall2,34822,,0,-1,-1,0,0,,1
w10112553_MHP,5qe8052hbg,Nick_Dissertation_EX1_EP,1,290,2021-11-18T17:50:06+00:00,41.680288791656,4,versionC_stim.csv,READVersionD.csv,"Read Version D","Dissertation, read only version D",WASTE,DUMP,Study1,S,49,46,Test,User,-,,Recall,Recall2,41543,dump,100,39925,41049,1,1,,1
w10112553_MHP,5qe8052hbg,Nick_Dissertation_EX1_EP,1,291,2021-11-18T17:50:50+00:00,43.568320035934,4,versionC_stim.csv,READVersionD.csv,"Read Version D","Dissertation, read only version D",GROWTH,HEIGHT,Study1,F,30,44,Test,User,-,,Recall,Recall2,43441,,0,-1,-1,0,0,,1
w10112553_MHP,5qe8052hbg,Nick_Dissertation_EX1_EP,1,292,2021-11-18T17:50:54+00:00,3.8324949741364,4,versionC_stim.csv,READVersionD.csv,"Read Version D","Dissertation, read only version D",DOG,PAW,Study1,B,15,25,Test,User,-,,Recall,Recall2,3731,paw,100,1774,2865,1,1,,1
w10112553_MHP,5qe8052hbg,Nick_Dissertation_EX1_EP,1,293,2021-11-18T17:51:10+00:00,16.494349002838,4,versionC_stim.csv,READVersionD.csv,"Read Version D","Dissertation, read only version D",FAMINE,HUNGER,Study1,F,40,31,Test,User,-,,Recall,Recall2,16368,hunger,100,14210,15642,1,1,,1
w10112553_MHP,5qe8052hbg,Nick_Dissertation_EX1_EP,1,294,2021-11-18T17:51:19+00:00,8.5964710712433,4,versionC_stim.csv,READVersionD.csv,"Read Version D","Dissertation, read only version D",WATER,BRIDGE,Study1,B,18,29,Test,User,-,,Recall,Recall2,8467,bridge,100,4338,7018,1,1,,1
w10112553_MHP,5qe8052hbg,Nick_Dissertation_EX1_EP,1,295,2021-11-18T17:51:34+00:00,14.674912929535,4,versionC_stim.csv,READVersionD.csv,"Read Version D","Dissertation, read only version D",MONEY,WAGE,Study1,B,8,76,Test,User,-,,Recall,Recall2,14539,wage,100,8857,11712,1,1,,1
w10112553_MHP,5qe8052hbg,Nick_Dissertation_EX1_EP,1,296,2021-11-18T17:52:17+00:00,43.647967100143,4,versionC_stim.csv,READVersionD.csv,"Read Version D","Dissertation, read only version D",ENOUGH,FULL,Study1,F,26,63,Test,User,-,,Recall,Recall2,43521,,0,-1,-1,0,0,,1
w10112553_MHP,5qe8052hbg,Nick_Dissertation_EX1_EP,1,297,2021-11-18T17:53:14+00:00,57.021768093109,4,versionC_stim.csv,READVersionD.csv,"Read Version D","Dissertation, read only version D",STENCH,SMELL,Study1,F,42,16,Test,User,-,,Recall,Recall2,56895,,0,-1,-1,0,0,,1
w10112553_MHP,5qe8052hbg,Nick_Dissertation_EX1_EP,1,298,2021-11-18T17:53:23+00:00,8.8102660179138,4,versionC_stim.csv,READVersionD.csv,"Read Version D","Dissertation, read only version D",FOOT,SHOE,Study1,S,60,24,Test,User,-,,Recall,Recall2,8683,shoe,100,6439,7974,1,1,,1
w10112553_MHP,5qe8052hbg,Nick_Dissertation_EX1_EP,1,299,2021-11-18T17:54:03+00:00,39.976237773895,4,versionC_stim.csv,READVersionD.csv,"Read Version D","Dissertation, read only version D",RIDDLE,SUGAR,Study1,U,81,64,Test,User,-,,Recall,Recall2,39868,,0,-1,-1,0,0,,1
w10112553_MHP,5qe8052hbg,Nick_Dissertation_EX1_EP,1,300,2021-11-18T17:54:35+00:00,31.775767087936,4,versionC_stim.csv,READVersionD.csv,"Read Version D","Dissertation, read only version D",PILOT,PLANE,Study1,F,44,53,Test,User,-,,Recall,Recall2,31646,plane,100,28516,31064,1,1,,1
w10112553_MHP,5qe8052hbg,Nick_Dissertation_EX1_EP,1,301,2021-11-18T17:54:36+00:00,1.7049651145935,4,versionC_stim.csv,READVersionD.csv,"Read Version D","Dissertation, read only version D",FANTASTIC,GREAT,Study1,F,35,9,Test,User,-,,Recall,Recall2,1614,,0,-1,-1,0,0,,1
w10112553_MHP,5qe8052hbg,Nick_Dissertation_EX1_EP,1,302,2021-11-18T17:54:48+00:00,11.60390996933,4,versionC_stim.csv,READVersionD.csv,"Read Version D","Dissertation, read only version D",ADD,VALLEY,Study1,U,82,83,Test,User,-,,Recall,Recall2,11483,valley,100,8535,10842,1,1,,1
w10112553_MHP,5qe8052hbg,Nick_Dissertation_EX1_EP,1,303,2021-11-18T17:55:07+00:00,19.230552911758,4,versionC_stim.csv,READVersionD.csv,"Read Version D","Dissertation, read only version D",WOMAN,LIFT,Study1,U,69,66,Test,User,-,,Recall,Recall2,19094,lift,100,17553,18362,1,1,,1
w10112553_MHP,5qe8052hbg,Nick_Dissertation_EX1_EP,1,304,2021-11-18T17:55:21+00:00,14.146309137344,4,versionC_stim.csv,READVersionD.csv,"Read Version D","Dissertation, read only version D",WAR,REVOLUTION,Study1,B,20,52,Test,User,-,,Recall,Recall2,14011,revolution,100,10751,13339,1,1,,1
w10112553_MHP,5qe8052hbg,Nick_Dissertation_EX1_EP,1,305,2021-11-18T17:55:27+00:00,5.1231799125671,4,versionC_stim.csv,READVersionD.csv,"Read Version D","Dissertation, read only version D",JURY,TRIAL,Study1,S,50,7,Test,User,-,,Recall,Recall2,4991,trial,100,2414,4592,1,1,,1
w10112553_MHP,5qe8052hbg,Nick_Dissertation_EX1_EP,1,306,2021-11-18T17:55:55+00:00,28.041433095932,4,versionC_stim.csv,READVersionD.csv,"Read Version D","Dissertation, read only version D",VASE,KING,Study1,U,85,34,Test,User,-,,Recall,Recall2,27916,king,100,25286,26951,1,1,,1
w10112553_MHP,5qe8052hbg,Nick_Dissertation_EX1_EP,1,307,2021-11-18T17:56:04+00:00,8.961856842041,4,versionC_stim.csv,READVersionD.csv,"Read Version D","Dissertation, read only version D",BLAZE,FIRE,Study1,F,45,22,Test,User,-,,Recall,Recall2,8831,fire,100,5610,7927,1,1,,1
w10112553_MHP,5qe8052hbg,Nick_Dissertation_EX1_EP,1,308,2021-11-18T17:56:32+00:00,28.045825004578,4,versionC_stim.csv,READVersionD.csv,"Read Version D","Dissertation, read only version D",COLD,BITTER,Study1,B,12,72,Test,User,-,,Recall,Recall2,27916,bitter,100,25809,27124,1,1,,1
w10112553_MHP,5qe8052hbg,Nick_Dissertation_EX1_EP,1,309,2021-11-18T17:57:12+00:00,40.490517139435,4,versionC_stim.csv,READVersionD.csv,"Read Version D","Dissertation, read only version D",CHILI,HOT,Study1,F,37,23,Test,User,-,,Recall,Recall2,40367,,0,-1,-1,0,0,,1
w10112553_MHP,5qe8052hbg,Nick_Dissertation_EX1_EP,1,310,2021-11-18T17:57:39+00:00,26.887905836105,4,versionC_stim.csv,READVersionD.csv,"Read Version D","Dissertation, read only version D",AMOUNT,NUMBER,Study1,S,47,78,Test,User,-,,Recall,Recall2,26766,,0,-1,-1,0,0,,1
w10112553_MHP,5qe8052hbg,Nick_Dissertation_EX1_EP,1,311,2021-11-18T17:57:57+00:00,17.989073038101,4,versionC_stim.csv,READVersionD.csv,"Read Version D","Dissertation, read only version D",SITE,LOCATION,Study1,S,48,17,Test,User,-,,Recall,Recall2,17850,location,100,14447,16913,1,1,,1
w10112553_MHP,5qe8052hbg,Nick_Dissertation_EX1_EP,1,312,2021-11-18T17:58:03+00:00,6.4112229347229,4,versionC_stim.csv,READVersionD.csv,"Read Version D","Dissertation, read only version D",ROUND,CIRCLE,Study1,S,65,36,Test,User,-,,Recall,Recall2,6281,circle,100,2616,5424,1,1,,1
w10112553_MHP,5qe8052hbg,Nick_Dissertation_EX1_EP,1,313,2021-11-18T17:58:21+00:00,17.854526042938,4,versionC_stim.csv,READVersionD.csv,"Read Version D","Dissertation, read only version D",CHORE,WORK,Study1,F,39,85,Test,User,-,,Recall,Recall2,17727,work,100,14933,16882,1,1,,1
w10112553_MHP,5qe8052hbg,Nick_Dissertation_EX1_EP,1,314,2021-11-18T17:58:52+00:00,30.473829984665,4,versionC_stim.csv,READVersionD.csv,"Read Version D","Dissertation, read only version D",SEIZE,TAKE,Study1,F,29,11,Test,User,-,,Recall,Recall2,30351,,0,-1,-1,0,0,,1
w10112553_MHP,5qe8052hbg,Nick_Dissertation_EX1_EP,1,315,2021-11-18T17:59:09+00:00,17.092906951904,4,versionC_stim.csv,READVersionD.csv,"Read Version D","Dissertation, read only version D",LATCH,KEY,Study1,F,36,33,Test,User,-,,Recall,Recall2,16937,key,100,15067,16127,1,1,,1
w10112553_MHP,5qe8052hbg,Nick_Dissertation_EX1_EP,1,316,2021-11-18T17:59:59+00:00,50.581950187683,4,versionC_stim.csv,READVersionD.csv,"Read Version D","Dissertation, read only version D",PLANT,ROOT,Study1,B,13,27,Test,User,-,,Recall,Recall2,50458,,0,-1,-1,0,0,,1
w10112553_MHP,5qe8052hbg,Nick_Dissertation_EX1_EP,1,317,2021-11-18T18:00:20+00:00,20.352777957916,4,versionC_stim.csv,READVersionD.csv,"Read Version D","Dissertation, read only version D",WIND,BLOW,Study1,S,55,19,Test,User,-,,Recall,Recall2,20225,,0,-1,-1,0,0,,1
w10112553_MHP,5qe8052hbg,Nick_Dissertation_EX1_EP,1,318,2021-11-18T18:01:00+00:00,40.301771879196,4,versionC_stim.csv,READVersionD.csv,"Read Version D","Dissertation, read only version D",FLOOR,DISCOVER,Study1,U,71,32,Test,User,-,,Recall,Recall2,40159,discover,100,36526,39542,1,1,,1
w10112553_MHP,5qe8052hbg,Nick_Dissertation_EX1_EP,1,319,2021-11-18T18:01:19+00:00,19.451956033707,4,versionC_stim.csv,READVersionD.csv,"Read Version D","Dissertation, read only version D",CHEESE,WINE,Study1,S,57,48,Test,User,-,,Recall,Recall2,19320,wine,100,16860,18356,1,1,,1
w10112553_MHP,5qe8052hbg,Nick_Dissertation_EX1_EP,1,320,2021-11-18T18:01:55+00:00,35.157695055008,4,versionC_stim.csv,READVersionD.csv,"Read Version D","Dissertation, read only version D",OUT,WAY,Study1,B,16,55,Test,User,-,,Recall,Recall2,35024,way,100,33256,34268,1,1,,1
w10112553_MHP,5qe8052hbg,Nick_Dissertation_EX1_EP,1,321,2021-11-18T18:02:07+00:00,12.731318950653,4,versionC_stim.csv,READVersionD.csv,"Read Version D","Dissertation, read only version D",BAD,DELINQUENT,Study1,B,6,79,Test,User,-,,Recall,Recall2,12596,"delinquent ",100,2538,10659,1,1,,1
w10112553_MHP,5qe8052hbg,Nick_Dissertation_EX1_EP,1,322,2021-11-18T18:02:41+00:00,33.821511983871,4,versionC_stim.csv,READVersionD.csv,"Read Version D","Dissertation, read only version D",ROCK,GEOLOGY,Study1,B,19,26,Test,User,-,,Recall,Recall2,33703,,0,-1,-1,0,0,,1
w10112553_MHP,5qe8052hbg,Nick_Dissertation_EX1_EP,1,323,2021-11-18T18:03:19+00:00,38.032850027084,4,versionC_stim.csv,READVersionD.csv,"Read Version D","Dissertation, read only version D",LIVER,KIDNEY,Study1,S,53,42,Test,User,-,,Recall,Recall2,37896,,0,-1,-1,0,0,,1
w10112553_MHP,5qe8052hbg,Nick_Dissertation_EX1_EP,1,324,2021-11-18T18:03:21+00:00,1.4990310668945,4,versionC_stim.csv,READVersionD.csv,"Read Version D","Dissertation, read only version D",SACKING,DIETARY,Study1,U,67,73,Test,User,-,,Recall,Recall2,1403,,0,-1,-1,0,0,,1
w10112553_MHP,5qe8052hbg,Nick_Dissertation_EX1_EP,1,325,2021-11-18T18:03:40+00:00,19.567445993423,4,versionC_stim.csv,READVersionD.csv,"Read Version D","Dissertation, read only version D",WOULD,CASH,Study1,U,83,40,Test,User,-,,Recall,Recall2,19445,,0,-1,-1,0,0,,1
w10112553_MHP,5qe8052hbg,Nick_Dissertation_EX1_EP,1,326,2021-11-18T18:03:45+00:00,4.3325409889221,4,versionC_stim.csv,READVersionD.csv,"Read Version D","Dissertation, read only version D",STING,HORNET,Study1,B,11,84,Test,User,-,,Recall,Recall2,4205,hornet,100,1665,3470,1,1,,1
w10112553_MHP,5qe8052hbg,Nick_Dissertation_EX1_EP,1,327,2021-11-18T18:04:09+00:00,24.851650953293,4,versionC_stim.csv,READVersionD.csv,"Read Version D","Dissertation, read only version D",RACKET,BALL,Study1,F,38,18,Test,User,-,,Recall,Recall2,24733,,0,-1,-1,0,0,,1
w10112553_MHP,5qe8052hbg,Nick_Dissertation_EX1_EP,1,328,2021-11-18T18:04:51+00:00,41.985404014587,4,versionC_stim.csv,READVersionD.csv,"Read Version D","Dissertation, read only version D",DROWSY,SLEEP,Study1,F,41,37,Test,User,-,,Recall,Recall2,41859,sleep,100,39787,41511,1,1,,1
w10112553_MHP,5qe8052hbg,Nick_Dissertation_EX1_EP,1,329,2021-11-18T18:05:16+00:00,24.236850976944,4,versionC_stim.csv,READVersionD.csv,"Read Version D","Dissertation, read only version D",NEWS,EDITOR,Study1,B,10,65,Test,User,-,,Recall,Recall2,24112,,0,-1,-1,0,0,,1
w10112553_MHP,5qe8052hbg,Nick_Dissertation_EX1_EP,1,330,2021-11-18T18:05:25+00:00,9.3834700584412,4,versionC_stim.csv,READVersionD.csv,"Read Version D","Dissertation, read only version D",HAND,FIX,Study1,U,75,41,Test,User,-,,Recall,Recall2,9238,fix,100,6998,8422,1,1,,1
w10112553_MHP,5qe8052hbg,Nick_Dissertation_EX1_EP,1,331,2021-11-18T18:05:51+00:00,25.81814789772,4,versionC_stim.csv,READVersionD.csv,"Read Version D","Dissertation, read only version D",DEFINITION,MEANING,Study1,S,62,20,Test,User,-,,Recall,Recall2,25692,,0,-1,-1,0,0,,1
w10112553_MHP,5qe8052hbg,Nick_Dissertation_EX1_EP,1,332,2021-11-18T18:06:09+00:00,18.135060071945,4,versionC_stim.csv,READVersionD.csv,"Read Version D","Dissertation, read only version D",TUCK,ALLOW,Study1,U,78,86,Test,User,-,,Recall,Recall2,17998,allow,100,15411,17363,1,1,,1
w10112553_MHP,5qe8052hbg,Nick_Dissertation_EX1_EP,1,333,2021-11-18T18:06:19+00:00,9.915344953537,4,versionC_stim.csv,READVersionD.csv,"Read Version D","Dissertation, read only version D",FLOWER,ORCHID,Study1,B,24,35,Test,User,-,,Recall,Recall2,9785,orchid,100,5972,8657,1,1,,1
w10112553_MHP,5qe8052hbg,Nick_Dissertation_EX1_EP,1,334,2021-11-18T18:06:37+00:00,18.484087944031,4,versionC_stim.csv,READVersionD.csv,"Read Version D","Dissertation, read only version D",BUSINESS,DEATH,Study1,U,72,13,Test,User,-,,Recall,Recall2,18363,death,100,16704,17832,1,1,,1
w10112553_MHP,5qe8052hbg,Nick_Dissertation_EX1_EP,1,335,2021-11-18T18:06:46+00:00,8.689001083374,4,versionC_stim.csv,READVersionD.csv,"Read Version D","Dissertation, read only version D",CHILD,BABY,Study1,S,64,77,Test,User,-,,Recall,Recall2,8564,baby,100,6448,7799,1,1,,1
w10112553_MHP,5qe8052hbg,Nick_Dissertation_EX1_EP,1,336,2021-11-18T18:06:54+00:00,7.5529699325562,4,versionC_stim.csv,READVersionD.csv,"Read Version D","Dissertation, read only version D",CAVE,DARK,Study1,F,28,28,Test,User,-,,Recall,Recall2,7265,dark,100,5368,6833,1,1,,1
w10112553_MHP,5qe8052hbg,Nick_Dissertation_EX1_EP,1,337,2021-11-18T18:06:58+00:00,3.8971161842346,4,versionC_stim.csv,READVersionD.csv,"Read Version D","Dissertation, read only version D",SODA,POP,Study1,S,56,61,Test,User,-,,Recall,Recall2,3535,pop,100,2392,2808,1,1,,1
w10112553_MHP,5qe8052hbg,Nick_Dissertation_EX1_EP,1,338,2021-11-18T18:07:02+00:00,4.4290180206299,4,versionC_stim.csv,READVersionD.csv,"Read Version D","Dissertation, read only version D",CAR,HAPPY,Study1,U,77,58,Test,User,-,,Recall,Recall2,4321,happy,100,2003,3602,1,1,,1
w10112553_MHP,5qe8052hbg,Nick_Dissertation_EX1_EP,1,339,2021-11-18T18:07:40+00:00,37.982838869095,4,versionC_stim.csv,READVersionD.csv,"Read Version D","Dissertation, read only version D",BEE,HONEY,Study1,S,63,49,Test,User,-,,Recall,Recall2,37864,,0,-1,-1,0,0,,1
w10112553_MHP,5qe8052hbg,Nick_Dissertation_EX1_EP,1,340,2021-11-18T18:07:43+00:00,3.2769680023193,4,versionC_stim.csv,READVersionD.csv,"Read Version D","Dissertation, read only version D",FUTURE,PAST,Study1,S,61,38,Test,User,-,,Recall,Recall2,3179,past,100,1423,2554,1,1,,1
w10112553_MHP,5qe8052hbg,Nick_Dissertation_EX1_EP,1,341,2021-11-18T18:07:52+00:00,8.5265860557556,4,versionC_stim.csv,READVersionD.csv,"Read Version D","Dissertation, read only version D",BIRD,SWAN,Study1,B,14,50,Test,User,-,,Recall,Recall2,8406,swan,100,6947,7999,1,1,,1
w10112553_MHP,5qe8052hbg,Nick_Dissertation_EX1_EP,1,342,2021-11-18T18:08:19+00:00,26.820775032043,4,versionC_stim.csv,READVersionD.csv,"Read Version D","Dissertation, read only version D",ATTIRE,CLOTHES,Study1,F,43,80,Test,User,-,,Recall,Recall2,26695,clothes,100,23682,25700,1,1,,1
w10112553_MHP,5qe8052hbg,Nick_Dissertation_EX1_EP,1,343,2021-11-18T18:08:35+00:00,16.362772941589,4,versionC_stim.csv,READVersionD.csv,"Read Version D","Dissertation, read only version D",DESIGN,ARCHITECTURE,Study1,S,51,57,Test,User,-,,Recall,Recall2,16236,,0,-1,-1,0,0,,1
w10112553_MHP,5qe8052hbg,Nick_Dissertation_EX1_EP,1,344,2021-11-18T18:08:45+00:00,10.515839099884,4,versionC_stim.csv,READVersionD.csv,"Read Version D","Dissertation, read only version D",SIGHT,DEBATE,Study1,U,73,14,Test,User,-,,Recall,Recall2,10383,debate,100,6942,9348,1,1,,1
w10112553_MHP,5qe8052hbg,Nick_Dissertation_EX1_EP,1,345,2021-11-18T18:09:03+00:00,17.748196840286,4,versionC_stim.csv,READVersionD.csv,"Read Version D","Dissertation, read only version D",ATTORNEY,LAW,Study1,F,34,51,Test,User,-,,Recall,Recall2,17608,law,100,16057,16948,1,1,,1
w10112553_MHP,5qe8052hbg,Nick_Dissertation_EX1_EP,1,346,2021-11-18T18:09:14+00:00,10.287009000778,4,versionC_stim.csv,READVersionD.csv,"Read Version D","Dissertation, read only version D",HUNGRY,PARK,Study1,U,68,39,Test,User,-,,Recall,Recall2,10142,park,100,8021,9733,1,1,,1
w10112553_MHP,5qe8052hbg,Nick_Dissertation_EX1_EP,1,347,2021-11-18T18:09:16+00:00,2.3454670906067,4,versionC_stim.csv,READVersionD.csv,"Read Version D","Dissertation, read only version D",CLUTTER,PUSHER,Study1,U,66,59,Test,User,-,,Recall,Recall2,2252,,0,-1,-1,0,0,,1
w10112553_MHP,5qe8052hbg,Nick_Dissertation_EX1_EP,1,348,2021-11-18T18:09:26+00:00,10.309511899948,4,versionC_stim.csv,READVersionD.csv,"Read Version D","Dissertation, read only version D",HAMMER,CHISEL,Study1,B,9,74,Test,User,-,,Recall,Recall2,10192,chisel,100,7296,9803,1,1,,1
w10112553_MHP,5qe8052hbg,Nick_Dissertation_EX1_EP,1,349,2021-11-18T18:09:50+00:00,23.58407497406,4,versionC_stim.csv,READVersionD.csv,"Read Version D","Dissertation, read only version D",FISH,TUNA,Study1,B,25,67,Test,User,-,,Recall,Recall2,23455,tuna,100,21451,22775,1,1,,1
w10112553_MHP,5qe8052hbg,Nick_Dissertation_EX1_EP,1,350,2021-11-18T18:10:04+00:00,14.381002187729,4,versionC_stim.csv,READVersionD.csv,"Read Version D","Dissertation, read only version D",ACCIDENT,STRONG,Study1,U,80,8,Test,User,-,,Recall,Recall2,14228,strong,100,11686,13443,1,1,,1
w10112553_MHP,5qe8052hbg,Nick_Dissertation_EX1_EP,1,351,2021-11-18T18:10:10+00:00,5.7789030075073,4,versionC_stim.csv,READVersionD.csv,"Read Version D","Dissertation, read only version D",CARD,CREDIT,Study1,B,23,70,Test,User,-,,Recall,Recall2,5640,credit,100,2312,5019,1,1,,1
w10112553_MHP,5qe8052hbg,Nick_Dissertation_EX1_EP,1,352,2021-11-18T18:10:11+00:00,0.91305685043335,4,versionC_stim.csv,READVersionD.csv,"Read Version D","Dissertation, read only version D",,,,,,0,Instruct,User,-,"You have completed this section. Please press Enter.",,Instruct7,826,,,-1,-1,,,,1
w10112553_MHP,5qe8052hbg,Nick_Dissertation_EX1_EP,1,353,2021-11-18T18:10:13+00:00,2.3580451011658,4,versionC_stim.csv,READVersionD.csv,"Read Version D","Dissertation, read only version D",,,,,,0,Instruct,User,-,"The following screen will ask you a few questions abour your experience today. You must complete these questions to receive credit.",,Instruct8,2268,,,-1,-1,,,,1
