Username,ID,ExperimentName,Session,Trial,Date,TimeDif,"Condition Number","Stimuli File","Order File","Condition Description","Condition Notes",Stimuli*Cue,Stimuli*Answer,Stimuli*Shuffle,"Stimuli*Stimuli Notes",Stimuli*Value,Procedure*Item,"Procedure*Trial Type","Procedure*Max Time","Procedure*Min Time",Procedure*Text,"Procedure*Procedure Notes",Procedure*Shuffle,Response*RT,Response*Response,Response*Accuracy,Response*RTfirst,Response*RTlast,Response*strictAcc,Response*lenientAcc,Response*focus,Response*Focus
w10118462_nmm,794nk34xsk,Nick_Dissertation_EX1_EP,1,1,2021-10-11T09:20:46-07:00,9.3685019016266,3,versionC_stim.csv,READVersionC.csv,"Read Version C","Dissertation, read only version C",,,,,,0,Instruct,-,5,"In this section, you will be presented with a series of word pairs.",Initial_Instruct,Instruct1,9211,,,-1,-1,,,,1
w10118462_nmm,794nk34xsk,Nick_Dissertation_EX1_EP,1,2,2021-10-11T09:21:03-07:00,16.774543046951,3,versionC_stim.csv,READVersionC.csv,"Read Version C","Dissertation, read only version C",,,,,,0,Instruct,-,10,"Each word will be displayed on the computer screen for 8 seconds. The screen will automatically move to the next pair when time is up. Please study each pair. Your memory will be tested!",,Instruct15,16288,,,-1,-1,,,,1
w10118462_nmm,794nk34xsk,Nick_Dissertation_EX1_EP,1,3,2021-10-11T09:21:18-07:00,15.220716953278,3,versionC_stim.csv,READVersionC.csv,"Read Version C","Dissertation, read only version C",,,,,,0,Instruct,User,-,"You will now begin the study. Press Enter when you are ready to begin.",,Instruct16,15007,,,-1,-1,,,,1
w10118462_nmm,794nk34xsk,Nick_Dissertation_EX1_EP,1,4,2021-10-11T09:21:27-07:00,8.2082390785217,3,versionC_stim.csv,READVersionC.csv,"Read Version C","Dissertation, read only version C",JAM,SPACE,BUFFER1,Buffer,5,2,Study,8,8,,Study/JOL,BUFFER,8003,,,-1,-1,,,,1
w10118462_nmm,794nk34xsk,Nick_Dissertation_EX1_EP,1,5,2021-10-11T09:21:35-07:00,8.2201080322266,3,versionC_stim.csv,READVersionC.csv,"Read Version C","Dissertation, read only version C",GREEN,TREES,BUFFER1,Buffer,1,5,Study,8,8,,Study/JOL,BUFFER,8003,,,-1,-1,,,,1
w10118462_nmm,794nk34xsk,Nick_Dissertation_EX1_EP,1,6,2021-10-11T09:21:43-07:00,8.201730966568,3,versionC_stim.csv,READVersionC.csv,"Read Version C","Dissertation, read only version C",CATCHER,BASEBALL,BUFFER1,Buffer,2,6,Study,8,8,,Study/JOL,BUFFER,8000,,,-1,-1,,,,1
w10118462_nmm,794nk34xsk,Nick_Dissertation_EX1_EP,1,7,2021-10-11T09:21:51-07:00,8.1965579986572,3,versionC_stim.csv,READVersionC.csv,"Read Version C","Dissertation, read only version C",HIDE,SCARE,BUFFER1,Buffer,4,3,Study,8,8,,Study/JOL,BUFFER,8000,,,-1,-1,,,,1
w10118462_nmm,794nk34xsk,Nick_Dissertation_EX1_EP,1,8,2021-10-11T09:21:59-07:00,8.1975131034851,3,versionC_stim.csv,READVersionC.csv,"Read Version C","Dissertation, read only version C",BUTTER,PEANUT,BUFFER1,Buffer,3,4,Study,8,8,,Study/JOL,BUFFER,8001,,,-1,-1,,,,1
w10118462_nmm,794nk34xsk,Nick_Dissertation_EX1_EP,1,9,2021-10-11T09:22:08-07:00,8.2079899311066,3,versionC_stim.csv,READVersionC.csv,"Read Version C","Dissertation, read only version C",WATER,BRIDGE,Study1,B,18,78,Study,8,8,,Study/JOL,"Study Phase",8001,,,-1,-1,,,,1
w10118462_nmm,794nk34xsk,Nick_Dissertation_EX1_EP,1,10,2021-10-11T09:22:16-07:00,8.2088558673859,3,versionC_stim.csv,READVersionC.csv,"Read Version C","Dissertation, read only version C",POSITION,MACHINE,Study1,U,76,70,Study,8,8,,Study/JOL,"Study Phase",8001,,,-1,-1,,,,1
w10118462_nmm,794nk34xsk,Nick_Dissertation_EX1_EP,1,11,2021-10-11T09:22:24-07:00,8.2033860683441,3,versionC_stim.csv,READVersionC.csv,"Read Version C","Dissertation, read only version C",SEIZE,TAKE,Study1,F,29,82,Study,8,8,,Study/JOL,"Study Phase",8001,,,-1,-1,,,,1
w10118462_nmm,794nk34xsk,Nick_Dissertation_EX1_EP,1,12,2021-10-11T09:22:32-07:00,8.2076029777527,3,versionC_stim.csv,READVersionC.csv,"Read Version C","Dissertation, read only version C",ATTIRE,CLOTHES,Study1,F,43,56,Study,8,8,,Study/JOL,"Study Phase",8000,,,-1,-1,,,,1
w10118462_nmm,794nk34xsk,Nick_Dissertation_EX1_EP,1,13,2021-10-11T09:22:40-07:00,8.2108449935913,3,versionC_stim.csv,READVersionC.csv,"Read Version C","Dissertation, read only version C",BEE,HONEY,Study1,S,63,28,Study,8,8,,Study/JOL,"Study Phase",8001,,,-1,-1,,,,1
w10118462_nmm,794nk34xsk,Nick_Dissertation_EX1_EP,1,14,2021-10-11T09:22:49-07:00,8.2026360034943,3,versionC_stim.csv,READVersionC.csv,"Read Version C","Dissertation, read only version C",WASTE,DUMP,Study1,S,49,46,Study,8,8,,Study/JOL,"Study Phase",8000,,,-1,-1,,,,1
w10118462_nmm,794nk34xsk,Nick_Dissertation_EX1_EP,1,15,2021-10-11T09:22:57-07:00,8.1983530521393,3,versionC_stim.csv,READVersionC.csv,"Read Version C","Dissertation, read only version C",END,BEGIN,Study1,S,54,8,Study,8,8,,Study/JOL,"Study Phase",8001,,,-1,-1,,,,1
w10118462_nmm,794nk34xsk,Nick_Dissertation_EX1_EP,1,16,2021-10-11T09:23:05-07:00,8.2039749622345,3,versionC_stim.csv,READVersionC.csv,"Read Version C","Dissertation, read only version C",CHORE,WORK,Study1,F,39,85,Study,8,8,,Study/JOL,"Study Phase",8001,,,-1,-1,,,,1
w10118462_nmm,794nk34xsk,Nick_Dissertation_EX1_EP,1,17,2021-10-11T09:23:13-07:00,8.2001321315765,3,versionC_stim.csv,READVersionC.csv,"Read Version C","Dissertation, read only version C",FANTASTIC,GREAT,Study1,F,35,76,Study,8,8,,Study/JOL,"Study Phase",8002,,,-1,-1,,,,1
w10118462_nmm,794nk34xsk,Nick_Dissertation_EX1_EP,1,18,2021-10-11T09:23:21-07:00,8.2008419036865,3,versionC_stim.csv,READVersionC.csv,"Read Version C","Dissertation, read only version C",TALK,DISCUSSION,Study1,B,21,72,Study,8,8,,Study/JOL,"Study Phase",8002,,,-1,-1,,,,1
w10118462_nmm,794nk34xsk,Nick_Dissertation_EX1_EP,1,19,2021-10-11T09:23:30-07:00,8.2032089233398,3,versionC_stim.csv,READVersionC.csv,"Read Version C","Dissertation, read only version C",CHILI,HOT,Study1,F,37,63,Study,8,8,,Study/JOL,"Study Phase",8003,,,-1,-1,,,,1
w10118462_nmm,794nk34xsk,Nick_Dissertation_EX1_EP,1,20,2021-10-11T09:23:38-07:00,8.2176220417023,3,versionC_stim.csv,READVersionC.csv,"Read Version C","Dissertation, read only version C",OUT,WAY,Study1,B,16,9,Study,8,8,,Study/JOL,"Study Phase",8002,,,-1,-1,,,,1
w10118462_nmm,794nk34xsk,Nick_Dissertation_EX1_EP,1,21,2021-10-11T09:23:46-07:00,8.2108790874481,3,versionC_stim.csv,READVersionC.csv,"Read Version C","Dissertation, read only version C",DIVISION,MATH,Study1,F,33,62,Study,8,8,,Study/JOL,"Study Phase",8001,,,-1,-1,,,,1
w10118462_nmm,794nk34xsk,Nick_Dissertation_EX1_EP,1,22,2021-10-11T09:23:54-07:00,8.2010459899902,3,versionC_stim.csv,READVersionC.csv,"Read Version C","Dissertation, read only version C",CAR,HAPPY,Study1,U,77,33,Study,8,8,,Study/JOL,"Study Phase",8001,,,-1,-1,,,,1
w10118462_nmm,794nk34xsk,Nick_Dissertation_EX1_EP,1,23,2021-10-11T09:24:02-07:00,8.2113740444183,3,versionC_stim.csv,READVersionC.csv,"Read Version C","Dissertation, read only version C",WIND,BLOW,Study1,S,55,38,Study,8,8,,Study/JOL,"Study Phase",8003,,,-1,-1,,,,1
w10118462_nmm,794nk34xsk,Nick_Dissertation_EX1_EP,1,24,2021-10-11T09:24:11-07:00,8.2097208499908,3,versionC_stim.csv,READVersionC.csv,"Read Version C","Dissertation, read only version C",PLANT,ROOT,Study1,B,13,75,Study,8,8,,Study/JOL,"Study Phase",8000,,,-1,-1,,,,1
w10118462_nmm,794nk34xsk,Nick_Dissertation_EX1_EP,1,25,2021-10-11T09:24:19-07:00,8.2102019786835,3,versionC_stim.csv,READVersionC.csv,"Read Version C","Dissertation, read only version C",RIDDLE,SUGAR,Study1,U,81,55,Study,8,8,,Study/JOL,"Study Phase",8000,,,-1,-1,,,,1
w10118462_nmm,794nk34xsk,Nick_Dissertation_EX1_EP,1,26,2021-10-11T09:24:27-07:00,8.206768989563,3,versionC_stim.csv,READVersionC.csv,"Read Version C","Dissertation, read only version C",CAVE,DARK,Study1,F,28,71,Study,8,8,,Study/JOL,"Study Phase",8000,,,-1,-1,,,,1
w10118462_nmm,794nk34xsk,Nick_Dissertation_EX1_EP,1,27,2021-10-11T09:24:35-07:00,8.2131571769714,3,versionC_stim.csv,READVersionC.csv,"Read Version C","Dissertation, read only version C",SODA,POP,Study1,S,56,23,Study,8,8,,Study/JOL,"Study Phase",8001,,,-1,-1,,,,1
w10118462_nmm,794nk34xsk,Nick_Dissertation_EX1_EP,1,28,2021-10-11T09:24:43-07:00,8.2067718505859,3,versionC_stim.csv,READVersionC.csv,"Read Version C","Dissertation, read only version C",CLUTTER,PUSHER,Study1,U,66,86,Study,8,8,,Study/JOL,"Study Phase",8002,,,-1,-1,,,,1
w10118462_nmm,794nk34xsk,Nick_Dissertation_EX1_EP,1,29,2021-10-11T09:24:52-07:00,8.205598115921,3,versionC_stim.csv,READVersionC.csv,"Read Version C","Dissertation, read only version C",LATCH,KEY,Study1,F,36,52,Study,8,8,,Study/JOL,"Study Phase",8001,,,-1,-1,,,,1
w10118462_nmm,794nk34xsk,Nick_Dissertation_EX1_EP,1,30,2021-10-11T09:25:00-07:00,8.2018029689789,3,versionC_stim.csv,READVersionC.csv,"Read Version C","Dissertation, read only version C",GROWTH,HEIGHT,Study1,F,30,43,Study,8,8,,Study/JOL,"Study Phase",8001,,,-1,-1,,,,1
w10118462_nmm,794nk34xsk,Nick_Dissertation_EX1_EP,1,31,2021-10-11T09:25:08-07:00,8.1991899013519,3,versionC_stim.csv,READVersionC.csv,"Read Version C","Dissertation, read only version C",ADD,VALLEY,Study1,U,82,79,Study,8,8,,Study/JOL,"Study Phase",8001,,,-1,-1,,,,1
w10118462_nmm,794nk34xsk,Nick_Dissertation_EX1_EP,1,32,2021-10-11T09:25:16-07:00,8.2125051021576,3,versionC_stim.csv,READVersionC.csv,"Read Version C","Dissertation, read only version C",WASP,BUG,Study1,F,32,20,Study,8,8,,Study/JOL,"Study Phase",8001,,,-1,-1,,,,1
w10118462_nmm,794nk34xsk,Nick_Dissertation_EX1_EP,1,33,2021-10-11T09:25:24-07:00,8.2094810009003,3,versionC_stim.csv,READVersionC.csv,"Read Version C","Dissertation, read only version C",HAMMER,CHISEL,Study1,B,9,65,Study,8,8,,Study/JOL,"Study Phase",8001,,,-1,-1,,,,1
w10118462_nmm,794nk34xsk,Nick_Dissertation_EX1_EP,1,34,2021-10-11T09:25:33-07:00,8.2064518928528,3,versionC_stim.csv,READVersionC.csv,"Read Version C","Dissertation, read only version C",SITE,LOCATION,Study1,S,48,54,Study,8,8,,Study/JOL,"Study Phase",8000,,,-1,-1,,,,1
w10118462_nmm,794nk34xsk,Nick_Dissertation_EX1_EP,1,35,2021-10-11T09:25:41-07:00,8.2202370166779,3,versionC_stim.csv,READVersionC.csv,"Read Version C","Dissertation, read only version C",SICK,HIDE,Study1,U,84,27,Study,8,8,,Study/JOL,"Study Phase",8001,,,-1,-1,,,,1
w10118462_nmm,794nk34xsk,Nick_Dissertation_EX1_EP,1,36,2021-10-11T09:25:49-07:00,8.19793009758,3,versionC_stim.csv,READVersionC.csv,"Read Version C","Dissertation, read only version C",DOG,PAW,Study1,B,15,57,Study,8,8,,Study/JOL,"Study Phase",8001,,,-1,-1,,,,1
w10118462_nmm,794nk34xsk,Nick_Dissertation_EX1_EP,1,37,2021-10-11T09:25:57-07:00,8.1984210014343,3,versionC_stim.csv,READVersionC.csv,"Read Version C","Dissertation, read only version C",ACCIDENT,STRONG,Study1,U,80,73,Study,8,8,,Study/JOL,"Study Phase",8001,,,-1,-1,,,,1
w10118462_nmm,794nk34xsk,Nick_Dissertation_EX1_EP,1,38,2021-10-11T09:26:06-07:00,8.2076420783997,3,versionC_stim.csv,READVersionC.csv,"Read Version C","Dissertation, read only version C",COLD,BITTER,Study1,B,12,37,Study,8,8,,Study/JOL,"Study Phase",8001,,,-1,-1,,,,1
w10118462_nmm,794nk34xsk,Nick_Dissertation_EX1_EP,1,39,2021-10-11T09:26:14-07:00,8.2078688144684,3,versionC_stim.csv,READVersionC.csv,"Read Version C","Dissertation, read only version C",HAND,FIX,Study1,U,75,69,Study,8,8,,Study/JOL,"Study Phase",8000,,,-1,-1,,,,1
w10118462_nmm,794nk34xsk,Nick_Dissertation_EX1_EP,1,40,2021-10-11T09:26:22-07:00,8.2021381855011,3,versionC_stim.csv,READVersionC.csv,"Read Version C","Dissertation, read only version C",STOMACH,DIGESTION,Study1,B,7,60,Study,8,8,,Study/JOL,"Study Phase",8001,,,-1,-1,,,,1
w10118462_nmm,794nk34xsk,Nick_Dissertation_EX1_EP,1,41,2021-10-11T09:26:30-07:00,8.2100329399109,3,versionC_stim.csv,READVersionC.csv,"Read Version C","Dissertation, read only version C",TUCK,ALLOW,Study1,U,78,80,Study,8,8,,Study/JOL,"Study Phase",8002,,,-1,-1,,,,1
w10118462_nmm,794nk34xsk,Nick_Dissertation_EX1_EP,1,42,2021-10-11T09:26:38-07:00,8.2069098949432,3,versionC_stim.csv,READVersionC.csv,"Read Version C","Dissertation, read only version C",RACKET,BALL,Study1,F,38,26,Study,8,8,,Study/JOL,"Study Phase",8001,,,-1,-1,,,,1
w10118462_nmm,794nk34xsk,Nick_Dissertation_EX1_EP,1,43,2021-10-11T09:26:47-07:00,8.2814581394196,3,versionC_stim.csv,READVersionC.csv,"Read Version C","Dissertation, read only version C",BAD,DELINQUENT,Study1,B,6,48,Study,8,8,,Study/JOL,"Study Phase",8001,,,-1,-1,,,,1
w10118462_nmm,794nk34xsk,Nick_Dissertation_EX1_EP,1,44,2021-10-11T09:26:55-07:00,8.4077548980713,3,versionC_stim.csv,READVersionC.csv,"Read Version C","Dissertation, read only version C",FISH,TUNA,Study1,B,25,53,Study,8,8,,Study/JOL,"Study Phase",8001,,,-1,-1,,,,1
w10118462_nmm,794nk34xsk,Nick_Dissertation_EX1_EP,1,45,2021-10-11T09:27:03-07:00,8.2045500278473,3,versionC_stim.csv,READVersionC.csv,"Read Version C","Dissertation, read only version C",ENOUGH,FULL,Study1,F,26,44,Study,8,8,,Study/JOL,"Study Phase",8002,,,-1,-1,,,,1
w10118462_nmm,794nk34xsk,Nick_Dissertation_EX1_EP,1,46,2021-10-11T09:27:11-07:00,8.2096219062805,3,versionC_stim.csv,READVersionC.csv,"Read Version C","Dissertation, read only version C",WORD,SENTENCE,Study1,F,31,17,Study,8,8,,Study/JOL,"Study Phase",8001,,,-1,-1,,,,1
w10118462_nmm,794nk34xsk,Nick_Dissertation_EX1_EP,1,47,2021-10-11T09:27:20-07:00,8.2110550403595,3,versionC_stim.csv,READVersionC.csv,"Read Version C","Dissertation, read only version C",FUTURE,PAST,Study1,S,61,51,Study,8,8,,Study/JOL,"Study Phase",8001,,,-1,-1,,,,1
w10118462_nmm,794nk34xsk,Nick_Dissertation_EX1_EP,1,48,2021-10-11T09:27:28-07:00,8.2037250995636,3,versionC_stim.csv,READVersionC.csv,"Read Version C","Dissertation, read only version C",JURY,TRIAL,Study1,S,50,58,Study,8,8,,Study/JOL,"Study Phase",8002,,,-1,-1,,,,1
w10118462_nmm,794nk34xsk,Nick_Dissertation_EX1_EP,1,49,2021-10-11T09:27:36-07:00,8.2217879295349,3,versionC_stim.csv,READVersionC.csv,"Read Version C","Dissertation, read only version C",DESIGN,ARCHITECTURE,Study1,S,51,47,Study,8,8,,Study/JOL,"Study Phase",8001,,,-1,-1,,,,1
w10118462_nmm,794nk34xsk,Nick_Dissertation_EX1_EP,1,50,2021-10-11T09:27:44-07:00,8.2132229804993,3,versionC_stim.csv,READVersionC.csv,"Read Version C","Dissertation, read only version C",BAR,GRILL,Study1,S,52,39,Study,8,8,,Study/JOL,"Study Phase",8002,,,-1,-1,,,,1
w10118462_nmm,794nk34xsk,Nick_Dissertation_EX1_EP,1,51,2021-10-11T09:27:52-07:00,8.2040610313416,3,versionC_stim.csv,READVersionC.csv,"Read Version C","Dissertation, read only version C",BRONZE,ARTERY,Study1,U,74,22,Study,8,8,,Study/JOL,"Study Phase",8002,,,-1,-1,,,,1
w10118462_nmm,794nk34xsk,Nick_Dissertation_EX1_EP,1,52,2021-10-11T09:28:01-07:00,8.2104210853577,3,versionC_stim.csv,READVersionC.csv,"Read Version C","Dissertation, read only version C",STING,HORNET,Study1,B,11,81,Study,8,8,,Study/JOL,"Study Phase",8002,,,-1,-1,,,,1
w10118462_nmm,794nk34xsk,Nick_Dissertation_EX1_EP,1,53,2021-10-11T09:28:09-07:00,8.2111778259277,3,versionC_stim.csv,READVersionC.csv,"Read Version C","Dissertation, read only version C",TOILET,BATHROOM,Study1,S,58,15,Study,8,8,,Study/JOL,"Study Phase",8002,,,-1,-1,,,,1
w10118462_nmm,794nk34xsk,Nick_Dissertation_EX1_EP,1,54,2021-10-11T09:28:17-07:00,8.2091200351715,3,versionC_stim.csv,READVersionC.csv,"Read Version C","Dissertation, read only version C",CHILD,BABY,Study1,S,64,41,Study,8,8,,Study/JOL,"Study Phase",8000,,,-1,-1,,,,1
w10118462_nmm,794nk34xsk,Nick_Dissertation_EX1_EP,1,55,2021-10-11T09:28:25-07:00,8.2110831737518,3,versionC_stim.csv,READVersionC.csv,"Read Version C","Dissertation, read only version C",BLAZE,FIRE,Study1,F,45,42,Study,8,8,,Study/JOL,"Study Phase",8001,,,-1,-1,,,,1
w10118462_nmm,794nk34xsk,Nick_Dissertation_EX1_EP,1,56,2021-10-11T09:28:34-07:00,8.2053167819977,3,versionC_stim.csv,READVersionC.csv,"Read Version C","Dissertation, read only version C",FOOT,SHOE,Study1,S,60,21,Study,8,8,,Study/JOL,"Study Phase",8000,,,-1,-1,,,,1
w10118462_nmm,794nk34xsk,Nick_Dissertation_EX1_EP,1,57,2021-10-11T09:28:42-07:00,8.2075581550598,3,versionC_stim.csv,READVersionC.csv,"Read Version C","Dissertation, read only version C",WOULD,CASH,Study1,U,83,83,Study,8,8,,Study/JOL,"Study Phase",8001,,,-1,-1,,,,1
w10118462_nmm,794nk34xsk,Nick_Dissertation_EX1_EP,1,58,2021-10-11T09:28:50-07:00,8.2093648910522,3,versionC_stim.csv,READVersionC.csv,"Read Version C","Dissertation, read only version C",MONEY,WAGE,Study1,B,8,31,Study,8,8,,Study/JOL,"Study Phase",8001,,,-1,-1,,,,1
w10118462_nmm,794nk34xsk,Nick_Dissertation_EX1_EP,1,59,2021-10-11T09:28:58-07:00,8.2053179740906,3,versionC_stim.csv,READVersionC.csv,"Read Version C","Dissertation, read only version C",CHEESE,WINE,Study1,S,57,49,Study,8,8,,Study/JOL,"Study Phase",8002,,,-1,-1,,,,1
w10118462_nmm,794nk34xsk,Nick_Dissertation_EX1_EP,1,60,2021-10-11T09:29:06-07:00,8.203104019165,3,versionC_stim.csv,READVersionC.csv,"Read Version C","Dissertation, read only version C",LION,ART,Study1,U,79,84,Study,8,8,,Study/JOL,"Study Phase",8002,,,-1,-1,,,,1
w10118462_nmm,794nk34xsk,Nick_Dissertation_EX1_EP,1,61,2021-10-11T09:29:15-07:00,8.2074489593506,3,versionC_stim.csv,READVersionC.csv,"Read Version C","Dissertation, read only version C",SIP,DRINK,Study1,F,27,50,Study,8,8,,Study/JOL,"Study Phase",8000,,,-1,-1,,,,1
w10118462_nmm,794nk34xsk,Nick_Dissertation_EX1_EP,1,62,2021-10-11T09:29:23-07:00,8.2092571258545,3,versionC_stim.csv,READVersionC.csv,"Read Version C","Dissertation, read only version C",ROUND,CIRCLE,Study1,S,65,29,Study,8,8,,Study/JOL,"Study Phase",8002,,,-1,-1,,,,1
w10118462_nmm,794nk34xsk,Nick_Dissertation_EX1_EP,1,63,2021-10-11T09:29:31-07:00,8.2111549377441,3,versionC_stim.csv,READVersionC.csv,"Read Version C","Dissertation, read only version C",SIGHT,DEBATE,Study1,U,73,35,Study,8,8,,Study/JOL,"Study Phase",8003,,,-1,-1,,,,1
w10118462_nmm,794nk34xsk,Nick_Dissertation_EX1_EP,1,64,2021-10-11T09:29:39-07:00,8.2071480751038,3,versionC_stim.csv,READVersionC.csv,"Read Version C","Dissertation, read only version C",NEWS,EDITOR,Study1,B,10,7,Study,8,8,,Study/JOL,"Study Phase",8001,,,-1,-1,,,,1
w10118462_nmm,794nk34xsk,Nick_Dissertation_EX1_EP,1,65,2021-10-11T09:29:47-07:00,8.2121360301971,3,versionC_stim.csv,READVersionC.csv,"Read Version C","Dissertation, read only version C",LIVER,KIDNEY,Study1,S,53,40,Study,8,8,,Study/JOL,"Study Phase",8001,,,-1,-1,,,,1
w10118462_nmm,794nk34xsk,Nick_Dissertation_EX1_EP,1,66,2021-10-11T09:29:56-07:00,8.2096889019012,3,versionC_stim.csv,READVersionC.csv,"Read Version C","Dissertation, read only version C",BIRD,SWAN,Study1,B,14,77,Study,8,8,,Study/JOL,"Study Phase",8001,,,-1,-1,,,,1
w10118462_nmm,794nk34xsk,Nick_Dissertation_EX1_EP,1,67,2021-10-11T09:30:04-07:00,8.211058139801,3,versionC_stim.csv,READVersionC.csv,"Read Version C","Dissertation, read only version C",COW,HERD,Study1,B,22,19,Study,8,8,,Study/JOL,"Study Phase",8001,,,-1,-1,,,,1
w10118462_nmm,794nk34xsk,Nick_Dissertation_EX1_EP,1,68,2021-10-11T09:30:12-07:00,8.2095878124237,3,versionC_stim.csv,READVersionC.csv,"Read Version C","Dissertation, read only version C",WAR,REVOLUTION,Study1,B,20,13,Study,8,8,,Study/JOL,"Study Phase",8000,,,-1,-1,,,,1
w10118462_nmm,794nk34xsk,Nick_Dissertation_EX1_EP,1,69,2021-10-11T09:30:20-07:00,8.2044560909271,3,versionC_stim.csv,READVersionC.csv,"Read Version C","Dissertation, read only version C",BUSINESS,DEATH,Study1,U,72,59,Study,8,8,,Study/JOL,"Study Phase",8000,,,-1,-1,,,,1
w10118462_nmm,794nk34xsk,Nick_Dissertation_EX1_EP,1,70,2021-10-11T09:30:28-07:00,8.2064371109009,3,versionC_stim.csv,READVersionC.csv,"Read Version C","Dissertation, read only version C",AMOUNT,NUMBER,Study1,S,47,68,Study,8,8,,Study/JOL,"Study Phase",8000,,,-1,-1,,,,1
w10118462_nmm,794nk34xsk,Nick_Dissertation_EX1_EP,1,71,2021-10-11T09:30:37-07:00,8.2092177867889,3,versionC_stim.csv,READVersionC.csv,"Read Version C","Dissertation, read only version C",DEFINITION,MEANING,Study1,S,62,10,Study,8,8,,Study/JOL,"Study Phase",8001,,,-1,-1,,,,1
w10118462_nmm,794nk34xsk,Nick_Dissertation_EX1_EP,1,72,2021-10-11T09:30:45-07:00,8.2151601314545,3,versionC_stim.csv,READVersionC.csv,"Read Version C","Dissertation, read only version C",CARD,CREDIT,Study1,B,23,24,Study,8,8,,Study/JOL,"Study Phase",8002,,,-1,-1,,,,1
w10118462_nmm,794nk34xsk,Nick_Dissertation_EX1_EP,1,73,2021-10-11T09:30:53-07:00,8.2103130817413,3,versionC_stim.csv,READVersionC.csv,"Read Version C","Dissertation, read only version C",SALAD,LETTUCE,Study1,S,59,12,Study,8,8,,Study/JOL,"Study Phase",8001,,,-1,-1,,,,1
w10118462_nmm,794nk34xsk,Nick_Dissertation_EX1_EP,1,74,2021-10-11T09:31:01-07:00,8.2104640007019,3,versionC_stim.csv,READVersionC.csv,"Read Version C","Dissertation, read only version C",FLOWER,ORCHID,Study1,B,24,18,Study,8,8,,Study/JOL,"Study Phase",8003,,,-1,-1,,,,1
w10118462_nmm,794nk34xsk,Nick_Dissertation_EX1_EP,1,75,2021-10-11T09:31:10-07:00,8.2066588401794,3,versionC_stim.csv,READVersionC.csv,"Read Version C","Dissertation, read only version C",STENCH,SMELL,Study1,F,42,32,Study,8,8,,Study/JOL,"Study Phase",8001,,,-1,-1,,,,1
w10118462_nmm,794nk34xsk,Nick_Dissertation_EX1_EP,1,76,2021-10-11T09:31:18-07:00,8.210529088974,3,versionC_stim.csv,READVersionC.csv,"Read Version C","Dissertation, read only version C",ROCK,GEOLOGY,Study1,B,19,30,Study,8,8,,Study/JOL,"Study Phase",8001,,,-1,-1,,,,1
w10118462_nmm,794nk34xsk,Nick_Dissertation_EX1_EP,1,77,2021-10-11T09:31:26-07:00,8.2077369689941,3,versionC_stim.csv,READVersionC.csv,"Read Version C","Dissertation, read only version C",CLEAN,HYGIENE,Study1,B,17,16,Study,8,8,,Study/JOL,"Study Phase",8001,,,-1,-1,,,,1
w10118462_nmm,794nk34xsk,Nick_Dissertation_EX1_EP,1,78,2021-10-11T09:31:34-07:00,8.208911895752,3,versionC_stim.csv,READVersionC.csv,"Read Version C","Dissertation, read only version C",WOMAN,LIFT,Study1,U,69,14,Study,8,8,,Study/JOL,"Study Phase",8000,,,-1,-1,,,,1
w10118462_nmm,794nk34xsk,Nick_Dissertation_EX1_EP,1,79,2021-10-11T09:31:42-07:00,8.2032160758972,3,versionC_stim.csv,READVersionC.csv,"Read Version C","Dissertation, read only version C",FLOOR,DISCOVER,Study1,U,71,45,Study,8,8,,Study/JOL,"Study Phase",8003,,,-1,-1,,,,1
w10118462_nmm,794nk34xsk,Nick_Dissertation_EX1_EP,1,80,2021-10-11T09:31:51-07:00,8.2088429927826,3,versionC_stim.csv,READVersionC.csv,"Read Version C","Dissertation, read only version C",DROWSY,SLEEP,Study1,F,41,74,Study,8,8,,Study/JOL,"Study Phase",8001,,,-1,-1,,,,1
w10118462_nmm,794nk34xsk,Nick_Dissertation_EX1_EP,1,81,2021-10-11T09:31:59-07:00,8.2160251140594,3,versionC_stim.csv,READVersionC.csv,"Read Version C","Dissertation, read only version C",SACKING,DIETARY,Study1,U,67,25,Study,8,8,,Study/JOL,"Study Phase",8000,,,-1,-1,,,,1
w10118462_nmm,794nk34xsk,Nick_Dissertation_EX1_EP,1,82,2021-10-11T09:32:07-07:00,8.2108559608459,3,versionC_stim.csv,READVersionC.csv,"Read Version C","Dissertation, read only version C",ATTORNEY,LAW,Study1,F,34,11,Study,8,8,,Study/JOL,"Study Phase",8002,,,-1,-1,,,,1
w10118462_nmm,794nk34xsk,Nick_Dissertation_EX1_EP,1,83,2021-10-11T09:32:15-07:00,8.2284829616547,3,versionC_stim.csv,READVersionC.csv,"Read Version C","Dissertation, read only version C",BELT,SOON,Study1,U,70,36,Study,8,8,,Study/JOL,"Study Phase",8001,,,-1,-1,,,,1
w10118462_nmm,794nk34xsk,Nick_Dissertation_EX1_EP,1,84,2021-10-11T09:32:23-07:00,8.2140839099884,3,versionC_stim.csv,READVersionC.csv,"Read Version C","Dissertation, read only version C",HUNGRY,PARK,Study1,U,68,61,Study,8,8,,Study/JOL,"Study Phase",8002,,,-1,-1,,,,1
w10118462_nmm,794nk34xsk,Nick_Dissertation_EX1_EP,1,85,2021-10-11T09:32:32-07:00,8.2260971069336,3,versionC_stim.csv,READVersionC.csv,"Read Version C","Dissertation, read only version C",FAMINE,HUNGER,Study1,F,40,34,Study,8,8,,Study/JOL,"Study Phase",8000,,,-1,-1,,,,1
w10118462_nmm,794nk34xsk,Nick_Dissertation_EX1_EP,1,86,2021-10-11T09:32:40-07:00,8.1932458877563,3,versionC_stim.csv,READVersionC.csv,"Read Version C","Dissertation, read only version C",PILOT,PLANE,Study1,F,44,66,Study,8,8,,Study/JOL,"Study Phase",8001,,,-1,-1,,,,1
w10118462_nmm,794nk34xsk,Nick_Dissertation_EX1_EP,1,87,2021-10-11T09:32:48-07:00,8.2136859893799,3,versionC_stim.csv,READVersionC.csv,"Read Version C","Dissertation, read only version C",VASE,KING,Study1,U,85,67,Study,8,8,,Study/JOL,"Study Phase",8000,,,-1,-1,,,,1
w10118462_nmm,794nk34xsk,Nick_Dissertation_EX1_EP,1,88,2021-10-11T09:32:56-07:00,8.2125651836395,3,versionC_stim.csv,READVersionC.csv,"Read Version C","Dissertation, read only version C",ASSIGNMENT,DUE,Study1,S,46,64,Study,8,8,,Study/JOL,"Study Phase",8000,,,-1,-1,,,,1
w10118462_nmm,794nk34xsk,Nick_Dissertation_EX1_EP,1,89,2021-10-11T09:33:04-07:00,8.2130010128021,3,versionC_stim.csv,READVersionC.csv,"Read Version C","Dissertation, read only version C",POLICE,SHERRIF,BUFFER2,Buffer,87,91,Study,8,8,,Study/JOL,BUFFER2,8000,,,-1,-1,,,,1
w10118462_nmm,794nk34xsk,Nick_Dissertation_EX1_EP,1,90,2021-10-11T09:33:13-07:00,8.2398958206177,3,versionC_stim.csv,READVersionC.csv,"Read Version C","Dissertation, read only version C",SPACE,MOON,BUFFER2,Buffer,89,89,Study,8,8,,Study/JOL,BUFFER2,8000,,,-1,-1,,,,1
w10118462_nmm,794nk34xsk,Nick_Dissertation_EX1_EP,1,91,2021-10-11T09:33:21-07:00,8.2877771854401,3,versionC_stim.csv,READVersionC.csv,"Read Version C","Dissertation, read only version C",CHOCOLATE,MALT,BUFFER2,Buffer,88,90,Study,8,8,,Study/JOL,BUFFER2,8000,,,-1,-1,,,,1
w10118462_nmm,794nk34xsk,Nick_Dissertation_EX1_EP,1,92,2021-10-11T09:33:29-07:00,8.2144429683685,3,versionC_stim.csv,READVersionC.csv,"Read Version C","Dissertation, read only version C",STUFF,THING,BUFFER2,Buffer,90,88,Study,8,8,,Study/JOL,BUFFER2,8001,,,-1,-1,,,,1
w10118462_nmm,794nk34xsk,Nick_Dissertation_EX1_EP,1,93,2021-10-11T09:33:37-07:00,8.2126848697662,3,versionC_stim.csv,READVersionC.csv,"Read Version C","Dissertation, read only version C",GOOSE,GEESE,BUFFER2,Buffer,86,87,Study,8,8,,Study/JOL,BUFFER2,8000,,,-1,-1,,,,1
w10118462_nmm,794nk34xsk,Nick_Dissertation_EX1_EP,1,94,2021-10-11T09:33:43-07:00,5.9043409824371,3,versionC_stim.csv,READVersionC.csv,"Read Version C","Dissertation, read only version C",,,,,,0,Instruct,User,-,"You have completed this section. Please press Enter.",Filler_Instruction,Instruct2,5690,,,-1,-1,,,,1
w10118462_nmm,794nk34xsk,Nick_Dissertation_EX1_EP,1,95,2021-10-11T09:35:44-07:00,120.27216601372,3,versionC_stim.csv,READVersionC.csv,"Read Version C","Dissertation, read only version C",,,,,,0,FreeRecall,120,120,"Please list the 50 US states in alphabetical order. The task will automatically advance to the next screen after two minutes.",,Filler1,120002,"alabama alaska arizona arkansas california Connecticut delaware florida georgia hawaii idaho illinois indiana iowa texas kentucky louisiana maine maryland Massachusetts michigan minneosta mississippi missouri montana nebraska nevada new hampshire new jersey new mexico new york north carolina north dakota ",0,4079,115614,0,0,,1
w10118462_nmm,794nk34xsk,Nick_Dissertation_EX1_EP,1,96,2021-10-11T09:36:55-07:00,71.508416175842,3,versionC_stim.csv,READVersionC.csv,"Read Version C","Dissertation, read only version C",,,,,,0,Instruct,-,10,"You will now be presented with the first word from each of the previously studied item pairs. Please type the missing word. If you do not know the word, you may guess or press Enter to skip forward to the next pair.",,Instruct3,71246,,,-1,-1,,,,1
w10118462_nmm,794nk34xsk,Nick_Dissertation_EX1_EP,1,97,2021-10-11T09:37:38-07:00,42.814082860947,3,versionC_stim.csv,READVersionC.csv,"Read Version C","Dissertation, read only version C",NEWS,EDITOR,Study1,B,10,7,Test,User,-,,Recall,Recall1,42549,editor,100,41042,42380,1,1,,1
w10118462_nmm,794nk34xsk,Nick_Dissertation_EX1_EP,1,98,2021-10-11T09:37:42-07:00,3.7819471359253,3,versionC_stim.csv,READVersionC.csv,"Read Version C","Dissertation, read only version C",SEIZE,TAKE,Study1,F,29,82,Test,User,-,,Recall,Recall1,3578,position,16.666666666667,2162,3089,0,0,,1
w10118462_nmm,794nk34xsk,Nick_Dissertation_EX1_EP,1,99,2021-10-11T09:38:54-07:00,72.4326608181,3,versionC_stim.csv,READVersionC.csv,"Read Version C","Dissertation, read only version C",BIRD,SWAN,Study1,B,14,77,Test,User,-,,Recall,Recall1,72172,swan,100,70887,71380,1,1,,1
w10118462_nmm,794nk34xsk,Nick_Dissertation_EX1_EP,1,100,2021-10-11T09:39:01-07:00,7.0508689880371,3,versionC_stim.csv,READVersionC.csv,"Read Version C","Dissertation, read only version C",FUTURE,PAST,Study1,S,61,51,Test,User,-,,Recall,Recall1,6845,past,100,3452,6710,1,1,,1
w10118462_nmm,794nk34xsk,Nick_Dissertation_EX1_EP,1,101,2021-10-11T09:39:04-07:00,2.892688035965,3,versionC_stim.csv,READVersionC.csv,"Read Version C","Dissertation, read only version C",JURY,TRIAL,Study1,S,50,58,Test,User,-,,Recall,Recall1,2687,trial,100,1233,2467,1,1,,1
w10118462_nmm,794nk34xsk,Nick_Dissertation_EX1_EP,1,102,2021-10-11T09:39:07-07:00,2.7752940654755,3,versionC_stim.csv,READVersionC.csv,"Read Version C","Dissertation, read only version C",BLAZE,FIRE,Study1,F,45,42,Test,User,-,,Recall,Recall1,2567,fire,100,2040,2435,1,1,,1
w10118462_nmm,794nk34xsk,Nick_Dissertation_EX1_EP,1,103,2021-10-11T09:39:10-07:00,2.6919028759003,3,versionC_stim.csv,READVersionC.csv,"Read Version C","Dissertation, read only version C",OUT,WAY,Study1,B,16,9,Test,User,-,,Recall,Recall1,2483,in,0,2092,2259,0,0,,1
w10118462_nmm,794nk34xsk,Nick_Dissertation_EX1_EP,1,104,2021-10-11T09:39:14-07:00,4.8606832027435,3,versionC_stim.csv,READVersionC.csv,"Read Version C","Dissertation, read only version C",SICK,HIDE,Study1,U,84,27,Test,User,-,,Recall,Recall1,4658,,0,-1,-1,0,0,,1
w10118462_nmm,794nk34xsk,Nick_Dissertation_EX1_EP,1,105,2021-10-11T09:39:17-07:00,2.2982540130615,3,versionC_stim.csv,READVersionC.csv,"Read Version C","Dissertation, read only version C",STING,HORNET,Study1,B,11,81,Test,User,-,,Recall,Recall1,2094,bee,22.222222222222,1599,1883,0,0,,1
w10118462_nmm,794nk34xsk,Nick_Dissertation_EX1_EP,1,106,2021-10-11T09:39:20-07:00,3.6700329780579,3,versionC_stim.csv,READVersionC.csv,"Read Version C","Dissertation, read only version C",ATTORNEY,LAW,Study1,F,34,11,Test,User,-,,Recall,Recall1,3463,judge,0,2685,3245,0,0,,1
w10118462_nmm,794nk34xsk,Nick_Dissertation_EX1_EP,1,107,2021-10-11T09:39:28-07:00,7.628429889679,3,versionC_stim.csv,READVersionC.csv,"Read Version C","Dissertation, read only version C",HUNGRY,PARK,Study1,U,68,61,Test,User,-,,Recall,Recall1,7424,thirsty,18.181818181818,5154,7085,0,0,,1
w10118462_nmm,794nk34xsk,Nick_Dissertation_EX1_EP,1,108,2021-10-11T09:39:34-07:00,6.0270600318909,3,versionC_stim.csv,READVersionC.csv,"Read Version C","Dissertation, read only version C",FLOWER,ORCHID,Study1,B,24,18,Test,User,-,,Recall,Recall1,5816,rose,20,4988,5671,0,0,,1
w10118462_nmm,794nk34xsk,Nick_Dissertation_EX1_EP,1,109,2021-10-11T09:39:44-07:00,10.435205936432,3,versionC_stim.csv,READVersionC.csv,"Read Version C","Dissertation, read only version C",HAMMER,CHISEL,Study1,B,9,65,Test,User,-,,Recall,Recall1,10230,tool,20,8977,9966,0,0,,1
w10118462_nmm,794nk34xsk,Nick_Dissertation_EX1_EP,1,110,2021-10-11T09:39:48-07:00,3.4309520721436,3,versionC_stim.csv,READVersionC.csv,"Read Version C","Dissertation, read only version C",BUSINESS,DEATH,Study1,U,72,59,Test,User,-,,Recall,Recall1,3221,,0,-1,-1,0,0,,1
w10118462_nmm,794nk34xsk,Nick_Dissertation_EX1_EP,1,111,2021-10-11T09:39:51-07:00,2.7485880851746,3,versionC_stim.csv,READVersionC.csv,"Read Version C","Dissertation, read only version C",WASP,BUG,Study1,F,32,20,Test,User,-,,Recall,Recall1,2542,sting,25,1764,2364,0,0,,1
w10118462_nmm,794nk34xsk,Nick_Dissertation_EX1_EP,1,112,2021-10-11T09:39:52-07:00,1.795040845871,3,versionC_stim.csv,READVersionC.csv,"Read Version C","Dissertation, read only version C",DEFINITION,MEANING,Study1,S,62,10,Test,User,-,,Recall,Recall1,1589,,0,-1,-1,0,0,,1
w10118462_nmm,794nk34xsk,Nick_Dissertation_EX1_EP,1,113,2021-10-11T09:39:55-07:00,2.4205040931702,3,versionC_stim.csv,READVersionC.csv,"Read Version C","Dissertation, read only version C",CAR,HAPPY,Study1,U,77,33,Test,User,-,,Recall,Recall1,2212,happy,100,1446,2041,1,1,,1
w10118462_nmm,794nk34xsk,Nick_Dissertation_EX1_EP,1,114,2021-10-11T09:39:58-07:00,3.5571279525757,3,versionC_stim.csv,READVersionC.csv,"Read Version C","Dissertation, read only version C",PILOT,PLANE,Study1,F,44,66,Test,User,-,,Recall,Recall1,3352,plane,100,2592,3199,1,1,,1
w10118462_nmm,794nk34xsk,Nick_Dissertation_EX1_EP,1,115,2021-10-11T09:40:06-07:00,7.9134850502014,3,versionC_stim.csv,READVersionC.csv,"Read Version C","Dissertation, read only version C",ROUND,CIRCLE,Study1,S,65,29,Test,User,-,,Recall,Recall1,7708,square,33.333333333333,4026,7584,0,0,,1
w10118462_nmm,794nk34xsk,Nick_Dissertation_EX1_EP,1,116,2021-10-11T09:40:12-07:00,5.2179980278015,3,versionC_stim.csv,READVersionC.csv,"Read Version C","Dissertation, read only version C",PLANT,ROOT,Study1,B,13,75,Test,User,-,,Recall,Recall1,5009,,0,3848,3848,0,0,,1
w10118462_nmm,794nk34xsk,Nick_Dissertation_EX1_EP,1,117,2021-10-11T09:40:13-07:00,1.3125069141388,3,versionC_stim.csv,READVersionC.csv,"Read Version C","Dissertation, read only version C",WOMAN,LIFT,Study1,U,69,14,Test,User,-,,Recall,Recall1,1103,,0,-1,-1,0,0,,1
w10118462_nmm,794nk34xsk,Nick_Dissertation_EX1_EP,1,118,2021-10-11T09:40:14-07:00,1.139396905899,3,versionC_stim.csv,READVersionC.csv,"Read Version C","Dissertation, read only version C",VASE,KING,Study1,U,85,67,Test,User,-,,Recall,Recall1,931,,0,-1,-1,0,0,,1
w10118462_nmm,794nk34xsk,Nick_Dissertation_EX1_EP,1,119,2021-10-11T09:40:16-07:00,2.3285460472107,3,versionC_stim.csv,READVersionC.csv,"Read Version C","Dissertation, read only version C",STENCH,SMELL,Study1,F,42,32,Test,User,-,,Recall,Recall1,2120,smell,100,1431,1909,1,1,,1
w10118462_nmm,794nk34xsk,Nick_Dissertation_EX1_EP,1,120,2021-10-11T09:40:21-07:00,4.6533639431,3,versionC_stim.csv,READVersionC.csv,"Read Version C","Dissertation, read only version C",SIP,DRINK,Study1,F,27,50,Test,User,-,,Recall,Recall1,4442,gulp,0,1965,4134,0,0,,1
w10118462_nmm,794nk34xsk,Nick_Dissertation_EX1_EP,1,121,2021-10-11T09:40:25-07:00,3.8699011802673,3,versionC_stim.csv,READVersionC.csv,"Read Version C","Dissertation, read only version C",COW,HERD,Study1,B,22,19,Test,User,-,,Recall,Recall1,3661,animal,0,2410,3417,0,0,,1
w10118462_nmm,794nk34xsk,Nick_Dissertation_EX1_EP,1,122,2021-10-11T09:40:26-07:00,1.2537448406219,3,versionC_stim.csv,READVersionC.csv,"Read Version C","Dissertation, read only version C",SIGHT,DEBATE,Study1,U,73,35,Test,User,-,,Recall,Recall1,1039,,0,-1,-1,0,0,,1
w10118462_nmm,794nk34xsk,Nick_Dissertation_EX1_EP,1,123,2021-10-11T09:40:33-07:00,7.3791220188141,3,versionC_stim.csv,READVersionC.csv,"Read Version C","Dissertation, read only version C",FISH,TUNA,Study1,B,25,53,Test,User,-,,Recall,Recall1,7176,swim,0,4670,6951,0,0,,1
w10118462_nmm,794nk34xsk,Nick_Dissertation_EX1_EP,1,124,2021-10-11T09:40:40-07:00,6.2833421230316,3,versionC_stim.csv,READVersionC.csv,"Read Version C","Dissertation, read only version C",COLD,BITTER,Study1,B,12,37,Test,User,-,,Recall,Recall1,6080,freeze,16.666666666667,4176,5869,0,0,,1
w10118462_nmm,794nk34xsk,Nick_Dissertation_EX1_EP,1,125,2021-10-11T09:40:43-07:00,3.3674108982086,3,versionC_stim.csv,READVersionC.csv,"Read Version C","Dissertation, read only version C",DOG,PAW,Study1,B,15,57,Test,User,-,,Recall,Recall1,3157,bark,28.571428571429,2537,2921,0,0,,1
w10118462_nmm,794nk34xsk,Nick_Dissertation_EX1_EP,1,126,2021-10-11T09:41:11-07:00,27.780869007111,3,versionC_stim.csv,READVersionC.csv,"Read Version C","Dissertation, read only version C",CHILI,HOT,Study1,F,37,63,Test,User,-,,Recall,Recall1,27506,,0,14708,15055,0,0,,1
w10118462_nmm,794nk34xsk,Nick_Dissertation_EX1_EP,1,127,2021-10-11T09:41:12-07:00,1.4846119880676,3,versionC_stim.csv,READVersionC.csv,"Read Version C","Dissertation, read only version C",CHEESE,WINE,Study1,S,57,49,Test,User,-,,Recall,Recall1,1275,,0,-1,-1,0,0,,1
w10118462_nmm,794nk34xsk,Nick_Dissertation_EX1_EP,1,128,2021-10-11T09:41:15-07:00,2.8930611610413,3,versionC_stim.csv,READVersionC.csv,"Read Version C","Dissertation, read only version C",WORD,SENTENCE,Study1,F,31,17,Test,User,-,,Recall,Recall1,2664,pair,0,2182,2486,0,0,,1
w10118462_nmm,794nk34xsk,Nick_Dissertation_EX1_EP,1,129,2021-10-11T09:41:18-07:00,3.1664729118347,3,versionC_stim.csv,READVersionC.csv,"Read Version C","Dissertation, read only version C",RACKET,BALL,Study1,F,38,26,Test,User,-,,Recall,Recall1,2964,ball,100,2120,2683,1,1,,1
w10118462_nmm,794nk34xsk,Nick_Dissertation_EX1_EP,1,130,2021-10-11T09:41:20-07:00,1.4355840682983,3,versionC_stim.csv,READVersionC.csv,"Read Version C","Dissertation, read only version C",TOILET,BATHROOM,Study1,S,58,15,Test,User,-,,Recall,Recall1,1224,,0,-1,-1,0,0,,1
w10118462_nmm,794nk34xsk,Nick_Dissertation_EX1_EP,1,131,2021-10-11T09:41:21-07:00,1.5281219482422,3,versionC_stim.csv,READVersionC.csv,"Read Version C","Dissertation, read only version C",LION,ART,Study1,U,79,84,Test,User,-,,Recall,Recall1,1324,,0,-1,-1,0,0,,1
w10118462_nmm,794nk34xsk,Nick_Dissertation_EX1_EP,1,132,2021-10-11T09:41:49-07:00,27.118561983109,3,versionC_stim.csv,READVersionC.csv,"Read Version C","Dissertation, read only version C",ACCIDENT,STRONG,Study1,U,80,73,Test,User,-,,Recall,Recall1,26915,strong,100,25823,26703,1,1,,1
w10118462_nmm,794nk34xsk,Nick_Dissertation_EX1_EP,1,133,2021-10-11T09:41:51-07:00,2.3092720508575,3,versionC_stim.csv,READVersionC.csv,"Read Version C","Dissertation, read only version C",BELT,SOON,Study1,U,70,36,Test,User,-,,Recall,Recall1,1936,,0,-1,-1,0,0,,1
w10118462_nmm,794nk34xsk,Nick_Dissertation_EX1_EP,1,134,2021-10-11T09:41:52-07:00,1.2192258834839,3,versionC_stim.csv,READVersionC.csv,"Read Version C","Dissertation, read only version C",ENOUGH,FULL,Study1,F,26,44,Test,User,-,,Recall,Recall1,1022,,0,-1,-1,0,0,,1
w10118462_nmm,794nk34xsk,Nick_Dissertation_EX1_EP,1,135,2021-10-11T09:41:54-07:00,2.2744450569153,3,versionC_stim.csv,READVersionC.csv,"Read Version C","Dissertation, read only version C",FOOT,SHOE,Study1,S,60,21,Test,User,-,,Recall,Recall1,2082,long,25,1484,1926,0,0,,1
w10118462_nmm,794nk34xsk,Nick_Dissertation_EX1_EP,1,136,2021-10-11T09:41:58-07:00,3.5926570892334,3,versionC_stim.csv,READVersionC.csv,"Read Version C","Dissertation, read only version C",FAMINE,HUNGER,Study1,F,40,34,Test,User,-,,Recall,Recall1,3397,hungry,83.333333333333,1929,3085,0,1,,1
w10118462_nmm,794nk34xsk,Nick_Dissertation_EX1_EP,1,137,2021-10-11T09:42:00-07:00,1.6596539020538,3,versionC_stim.csv,READVersionC.csv,"Read Version C","Dissertation, read only version C",FLOOR,DISCOVER,Study1,U,71,45,Test,User,-,,Recall,Recall1,1431,,0,-1,-1,0,0,,1
w10118462_nmm,794nk34xsk,Nick_Dissertation_EX1_EP,1,138,2021-10-11T09:43:03-07:00,63.60778093338,3,versionC_stim.csv,READVersionC.csv,"Read Version C","Dissertation, read only version C",SITE,LOCATION,Study1,S,48,54,Test,User,-,,Recall,Recall1,63362,,0,-1,-1,0,0,,1
w10118462_nmm,794nk34xsk,Nick_Dissertation_EX1_EP,1,139,2021-10-11T09:43:06-07:00,2.7917549610138,3,versionC_stim.csv,READVersionC.csv,"Read Version C","Dissertation, read only version C",DESIGN,ARCHITECTURE,Study1,S,51,47,Test,User,-,,Recall,Recall1,2588,,0,-1,-1,0,0,,1
w10118462_nmm,794nk34xsk,Nick_Dissertation_EX1_EP,1,140,2021-10-11T09:43:10-07:00,3.8259072303772,3,versionC_stim.csv,READVersionC.csv,"Read Version C","Dissertation, read only version C",POSITION,MACHINE,Study1,U,76,70,Test,User,-,,Recall,Recall1,3608,,0,-1,-1,0,0,,1
w10118462_nmm,794nk34xsk,Nick_Dissertation_EX1_EP,1,141,2021-10-11T09:43:11-07:00,0.91136598587036,3,versionC_stim.csv,READVersionC.csv,"Read Version C","Dissertation, read only version C",RIDDLE,SUGAR,Study1,U,81,55,Test,User,-,,Recall,Recall1,711,,0,-1,-1,0,0,,1
w10118462_nmm,794nk34xsk,Nick_Dissertation_EX1_EP,1,142,2021-10-11T09:43:13-07:00,2.6140158176422,3,versionC_stim.csv,READVersionC.csv,"Read Version C","Dissertation, read only version C",BAD,DELINQUENT,Study1,B,6,48,Test,User,-,,Recall,Recall1,2415,,0,-1,-1,0,0,,1
w10118462_nmm,794nk34xsk,Nick_Dissertation_EX1_EP,1,143,2021-10-11T09:43:18-07:00,4.3612310886383,3,versionC_stim.csv,READVersionC.csv,"Read Version C","Dissertation, read only version C",STOMACH,DIGESTION,Study1,B,7,60,Test,User,-,,Recall,Recall1,4159,line,30.769230769231,1920,4003,0,0,,1
w10118462_nmm,794nk34xsk,Nick_Dissertation_EX1_EP,1,144,2021-10-11T09:43:20-07:00,2.4521238803864,3,versionC_stim.csv,READVersionC.csv,"Read Version C","Dissertation, read only version C",WAR,REVOLUTION,Study1,B,20,13,Test,User,-,,Recall,Recall1,2251,peace,13.333333333333,1368,2113,0,0,,1
w10118462_nmm,794nk34xsk,Nick_Dissertation_EX1_EP,1,145,2021-10-11T09:43:21-07:00,1.2606642246246,3,versionC_stim.csv,READVersionC.csv,"Read Version C","Dissertation, read only version C",FANTASTIC,GREAT,Study1,F,35,76,Test,User,-,,Recall,Recall1,1050,,0,-1,-1,0,0,,1
w10118462_nmm,794nk34xsk,Nick_Dissertation_EX1_EP,1,146,2021-10-11T09:43:24-07:00,2.4169898033142,3,versionC_stim.csv,READVersionC.csv,"Read Version C","Dissertation, read only version C",ASSIGNMENT,DUE,Study1,S,46,64,Test,User,-,,Recall,Recall1,2220,due,100,1835,2050,1,1,,1
w10118462_nmm,794nk34xsk,Nick_Dissertation_EX1_EP,1,147,2021-10-11T09:43:25-07:00,1.3660290241241,3,versionC_stim.csv,READVersionC.csv,"Read Version C","Dissertation, read only version C",CHILD,BABY,Study1,S,64,41,Test,User,-,,Recall,Recall1,1169,,0,-1,-1,0,0,,1
w10118462_nmm,794nk34xsk,Nick_Dissertation_EX1_EP,1,148,2021-10-11T09:43:26-07:00,0.91514897346497,3,versionC_stim.csv,READVersionC.csv,"Read Version C","Dissertation, read only version C",CLEAN,HYGIENE,Study1,B,17,16,Test,User,-,,Recall,Recall1,718,,0,-1,-1,0,0,,1
w10118462_nmm,794nk34xsk,Nick_Dissertation_EX1_EP,1,149,2021-10-11T09:43:28-07:00,1.5243241786957,3,versionC_stim.csv,READVersionC.csv,"Read Version C","Dissertation, read only version C",LIVER,KIDNEY,Study1,S,53,40,Test,User,-,,Recall,Recall1,1242,,0,-1,-1,0,0,,1
w10118462_nmm,794nk34xsk,Nick_Dissertation_EX1_EP,1,150,2021-10-11T09:43:37-07:00,9.054388999939,3,versionC_stim.csv,READVersionC.csv,"Read Version C","Dissertation, read only version C",WIND,BLOW,Study1,S,55,38,Test,User,-,,Recall,Recall1,8853,weather,18.181818181818,7805,8744,0,0,,1
w10118462_nmm,794nk34xsk,Nick_Dissertation_EX1_EP,1,151,2021-10-11T09:43:38-07:00,1.3538908958435,3,versionC_stim.csv,READVersionC.csv,"Read Version C","Dissertation, read only version C",WATER,BRIDGE,Study1,B,18,78,Test,User,-,,Recall,Recall1,1151,,0,-1,-1,0,0,,1
w10118462_nmm,794nk34xsk,Nick_Dissertation_EX1_EP,1,152,2021-10-11T09:43:40-07:00,1.793438911438,3,versionC_stim.csv,READVersionC.csv,"Read Version C","Dissertation, read only version C",SODA,POP,Study1,S,56,23,Test,User,-,,Recall,Recall1,1593,pop,100,1009,1376,1,1,,1
w10118462_nmm,794nk34xsk,Nick_Dissertation_EX1_EP,1,153,2021-10-11T09:43:42-07:00,2.6259341239929,3,versionC_stim.csv,READVersionC.csv,"Read Version C","Dissertation, read only version C",AMOUNT,NUMBER,Study1,S,47,68,Test,User,-,,Recall,Recall1,2429,,0,-1,-1,0,0,,1
w10118462_nmm,794nk34xsk,Nick_Dissertation_EX1_EP,1,154,2021-10-11T09:43:44-07:00,1.2915298938751,3,versionC_stim.csv,READVersionC.csv,"Read Version C","Dissertation, read only version C",ROCK,GEOLOGY,Study1,B,19,30,Test,User,-,,Recall,Recall1,1085,,0,-1,-1,0,0,,1
w10118462_nmm,794nk34xsk,Nick_Dissertation_EX1_EP,1,155,2021-10-11T09:43:48-07:00,4.481593132019,3,versionC_stim.csv,READVersionC.csv,"Read Version C","Dissertation, read only version C",GROWTH,HEIGHT,Study1,F,30,43,Test,User,-,,Recall,Recall1,4283,,0,-1,-1,0,0,,1
w10118462_nmm,794nk34xsk,Nick_Dissertation_EX1_EP,1,156,2021-10-11T09:43:50-07:00,1.5533399581909,3,versionC_stim.csv,READVersionC.csv,"Read Version C","Dissertation, read only version C",SACKING,DIETARY,Study1,U,67,25,Test,User,-,,Recall,Recall1,1348,,0,-1,-1,0,0,,1
w10118462_nmm,794nk34xsk,Nick_Dissertation_EX1_EP,1,157,2021-10-11T09:43:51-07:00,1.3007819652557,3,versionC_stim.csv,READVersionC.csv,"Read Version C","Dissertation, read only version C",BRONZE,ARTERY,Study1,U,74,22,Test,User,-,,Recall,Recall1,1113,,0,-1,-1,0,0,,1
w10118462_nmm,794nk34xsk,Nick_Dissertation_EX1_EP,1,158,2021-10-11T09:43:52-07:00,1.3623471260071,3,versionC_stim.csv,READVersionC.csv,"Read Version C","Dissertation, read only version C",WASTE,DUMP,Study1,S,49,46,Test,User,-,,Recall,Recall1,1170,,0,-1,-1,0,0,,1
w10118462_nmm,794nk34xsk,Nick_Dissertation_EX1_EP,1,159,2021-10-11T09:43:55-07:00,2.405483007431,3,versionC_stim.csv,READVersionC.csv,"Read Version C","Dissertation, read only version C",CAVE,DARK,Study1,F,28,71,Test,User,-,,Recall,Recall1,2205,man,28.571428571429,1709,1894,0,0,,1
w10118462_nmm,794nk34xsk,Nick_Dissertation_EX1_EP,1,160,2021-10-11T09:43:58-07:00,3.2445819377899,3,versionC_stim.csv,READVersionC.csv,"Read Version C","Dissertation, read only version C",BEE,HONEY,Study1,S,63,28,Test,User,-,,Recall,Recall1,3046,sting,20,2137,2896,0,0,,1
w10118462_nmm,794nk34xsk,Nick_Dissertation_EX1_EP,1,161,2021-10-11T09:44:00-07:00,2.0085580348969,3,versionC_stim.csv,READVersionC.csv,"Read Version C","Dissertation, read only version C",CHORE,WORK,Study1,F,39,85,Test,User,-,,Recall,Recall1,1802,,0,-1,-1,0,0,,1
w10118462_nmm,794nk34xsk,Nick_Dissertation_EX1_EP,1,162,2021-10-11T09:44:02-07:00,1.9045639038086,3,versionC_stim.csv,READVersionC.csv,"Read Version C","Dissertation, read only version C",MONEY,WAGE,Study1,B,8,31,Test,User,-,,Recall,Recall1,1705,,0,-1,-1,0,0,,1
w10118462_nmm,794nk34xsk,Nick_Dissertation_EX1_EP,1,163,2021-10-11T09:44:07-07:00,4.6368319988251,3,versionC_stim.csv,READVersionC.csv,"Read Version C","Dissertation, read only version C",CARD,CREDIT,Study1,B,23,24,Test,User,-,,Recall,Recall1,4442,decline,30.769230769231,1125,4314,0,0,,1
w10118462_nmm,794nk34xsk,Nick_Dissertation_EX1_EP,1,164,2021-10-11T09:44:09-07:00,2.3391969203949,3,versionC_stim.csv,READVersionC.csv,"Read Version C","Dissertation, read only version C",END,BEGIN,Study1,S,54,8,Test,User,-,,Recall,Recall1,2142,begin,100,1407,1909,1,1,,1
w10118462_nmm,794nk34xsk,Nick_Dissertation_EX1_EP,1,165,2021-10-11T09:44:13-07:00,4.1096050739288,3,versionC_stim.csv,READVersionC.csv,"Read Version C","Dissertation, read only version C",CLUTTER,PUSHER,Study1,U,66,86,Test,User,-,,Recall,Recall1,3910,mess,20,2204,3709,0,0,,1
w10118462_nmm,794nk34xsk,Nick_Dissertation_EX1_EP,1,166,2021-10-11T09:44:18-07:00,4.3799269199371,3,versionC_stim.csv,READVersionC.csv,"Read Version C","Dissertation, read only version C",BAR,GRILL,Study1,S,52,39,Test,User,-,,Recall,Recall1,4180,,0,-1,-1,0,0,,1
w10118462_nmm,794nk34xsk,Nick_Dissertation_EX1_EP,1,167,2021-10-11T09:44:23-07:00,5.9715371131897,3,versionC_stim.csv,READVersionC.csv,"Read Version C","Dissertation, read only version C",DIVISION,MATH,Study1,F,33,62,Test,User,-,,Recall,Recall1,5769,,0,-1,-1,0,0,,1
w10118462_nmm,794nk34xsk,Nick_Dissertation_EX1_EP,1,168,2021-10-11T09:44:26-07:00,2.8574469089508,3,versionC_stim.csv,READVersionC.csv,"Read Version C","Dissertation, read only version C",HAND,FIX,Study1,U,75,69,Test,User,-,,Recall,Recall1,2651,foot,28.571428571429,2170,2531,0,0,,1
w10118462_nmm,794nk34xsk,Nick_Dissertation_EX1_EP,1,169,2021-10-11T09:44:30-07:00,4.0723631381989,3,versionC_stim.csv,READVersionC.csv,"Read Version C","Dissertation, read only version C",TUCK,ALLOW,Study1,U,78,80,Test,User,-,,Recall,Recall1,3872,,0,1495,2027,0,0,,1
w10118462_nmm,794nk34xsk,Nick_Dissertation_EX1_EP,1,170,2021-10-11T09:44:32-07:00,2.0924880504608,3,versionC_stim.csv,READVersionC.csv,"Read Version C","Dissertation, read only version C",WOULD,CASH,Study1,U,83,83,Test,User,-,,Recall,Recall1,1886,could,22.222222222222,1061,1768,0,0,,1
w10118462_nmm,794nk34xsk,Nick_Dissertation_EX1_EP,1,171,2021-10-11T09:44:35-07:00,2.2043859958649,3,versionC_stim.csv,READVersionC.csv,"Read Version C","Dissertation, read only version C",DROWSY,SLEEP,Study1,F,41,74,Test,User,-,,Recall,Recall1,1962,sleep,100,1104,1751,1,1,,1
w10118462_nmm,794nk34xsk,Nick_Dissertation_EX1_EP,1,172,2021-10-11T09:44:40-07:00,4.9876527786255,3,versionC_stim.csv,READVersionC.csv,"Read Version C","Dissertation, read only version C",ADD,VALLEY,Study1,U,82,79,Test,User,-,,Recall,Recall1,4788,,0,-1,-1,0,0,,1
w10118462_nmm,794nk34xsk,Nick_Dissertation_EX1_EP,1,173,2021-10-11T09:44:41-07:00,1.0912270545959,3,versionC_stim.csv,READVersionC.csv,"Read Version C","Dissertation, read only version C",TALK,DISCUSSION,Study1,B,21,72,Test,User,-,,Recall,Recall1,888,,0,-1,-1,0,0,,1
w10118462_nmm,794nk34xsk,Nick_Dissertation_EX1_EP,1,174,2021-10-11T09:44:44-07:00,3.6027390956879,3,versionC_stim.csv,READVersionC.csv,"Read Version C","Dissertation, read only version C",SALAD,LETTUCE,Study1,S,59,12,Test,User,-,,Recall,Recall1,3407,dressing,13.333333333333,2049,3265,0,0,,1
w10118462_nmm,794nk34xsk,Nick_Dissertation_EX1_EP,1,175,2021-10-11T09:44:46-07:00,1.5261380672455,3,versionC_stim.csv,READVersionC.csv,"Read Version C","Dissertation, read only version C",LATCH,KEY,Study1,F,36,52,Test,User,-,,Recall,Recall1,1320,,0,-1,-1,0,0,,1
w10118462_nmm,794nk34xsk,Nick_Dissertation_EX1_EP,1,176,2021-10-11T09:44:51-07:00,4.6803669929504,3,versionC_stim.csv,READVersionC.csv,"Read Version C","Dissertation, read only version C",ATTIRE,CLOTHES,Study1,F,43,56,Test,User,-,,Recall,Recall1,4476,clean,50,2939,4211,0,0,,1
w10118462_nmm,794nk34xsk,Nick_Dissertation_EX1_EP,1,177,2021-10-11T09:45:03-07:00,12.653128862381,3,versionC_stim.csv,READVersionC.csv,"Read Version C","Dissertation, read only version C",,,,,,0,Instruct,-,10,"You will now be presented with a new set of word pairs. Please study each pair. Remember that your memory will be tested! When finished, press Enter to move to the next pair.",Initial_Instruct,Instruct4,12457,,,-1,-1,,,,1
w10118462_nmm,794nk34xsk,Nick_Dissertation_EX1_EP,1,178,2021-10-11T09:46:05-07:00,61.599339008331,3,versionC_stim.csv,READVersionC.csv,"Read Version C","Dissertation, read only version C",,,,,,0,Instruct,User,-,"Each word will be displayed on the computer screen for 8 seconds. The screen will automatically move to the next pair when time is up. Press Enter when you are ready to begin.",,Instruct11,61358,,,-1,-1,,,,1
w10118462_nmm,794nk34xsk,Nick_Dissertation_EX1_EP,1,179,2021-10-11T09:46:13-07:00,8.2104740142822,3,versionC_stim.csv,READVersionC.csv,"Read Version C","Dissertation, read only version C",STRING,NOODLE,BUFFER3,Buffer,92,96,Study,8,8,,Study/JOL,BUFFER3,8001,,,-1,-1,,,,1
w10118462_nmm,794nk34xsk,Nick_Dissertation_EX1_EP,1,180,2021-10-11T09:46:21-07:00,8.2078430652618,3,versionC_stim.csv,READVersionC.csv,"Read Version C","Dissertation, read only version C",FROZEN,ICE,BUFFER3,Buffer,94,92,Study,8,8,,Study/JOL,BUFFER3,8002,,,-1,-1,,,,1
w10118462_nmm,794nk34xsk,Nick_Dissertation_EX1_EP,1,181,2021-10-11T09:46:29-07:00,8.2105188369751,3,versionC_stim.csv,READVersionC.csv,"Read Version C","Dissertation, read only version C",FISH,SHRIMP,BUFFER3,Buffer,93,93,Study,8,8,,Study/JOL,BUFFER3,8003,,,-1,-1,,,,1
w10118462_nmm,794nk34xsk,Nick_Dissertation_EX1_EP,1,182,2021-10-11T09:46:38-07:00,8.207818031311,3,versionC_stim.csv,READVersionC.csv,"Read Version C","Dissertation, read only version C",POTATO,CARROT,BUFFER3,Buffer,91,94,Study,8,8,,Study/JOL,BUFFER3,8001,,,-1,-1,,,,1
w10118462_nmm,794nk34xsk,Nick_Dissertation_EX1_EP,1,183,2021-10-11T09:46:46-07:00,8.2014620304108,3,versionC_stim.csv,READVersionC.csv,"Read Version C","Dissertation, read only version C",ADVENTURE,CAMP,BUFFER3,Buffer,95,95,Study,8,8,,Study/JOL,BUFFER3,8002,,,-1,-1,,,,1
w10118462_nmm,794nk34xsk,Nick_Dissertation_EX1_EP,1,184,2021-10-11T09:46:54-07:00,8.2028150558472,3,versionC_stim.csv,READVersionC.csv,"Read Version C","Dissertation, read only version C",MAROON,JUSTICE,Study2,U,156,123,Study,8,8,,Study/JOL,"Study Phase2",8001,,,-1,-1,,,,1
w10118462_nmm,794nk34xsk,Nick_Dissertation_EX1_EP,1,185,2021-10-11T09:47:02-07:00,8.2126939296722,3,versionC_stim.csv,READVersionC.csv,"Read Version C","Dissertation, read only version C",CLOTHES,CAKE,Study2,U,166,111,Study,8,8,,Study/JOL,"Study Phase2",8001,,,-1,-1,,,,1
w10118462_nmm,794nk34xsk,Nick_Dissertation_EX1_EP,1,186,2021-10-11T09:47:11-07:00,8.20858502388,3,versionC_stim.csv,READVersionC.csv,"Read Version C","Dissertation, read only version C",COFFIN,DEAD,Study2,F,128,147,Study,8,8,,Study/JOL,"Study Phase2",8002,,,-1,-1,,,,1
w10118462_nmm,794nk34xsk,Nick_Dissertation_EX1_EP,1,187,2021-10-11T09:47:19-07:00,8.2053999900818,3,versionC_stim.csv,READVersionC.csv,"Read Version C","Dissertation, read only version C",REVENGE,EVEN,Study2,F,122,150,Study,8,8,,Study/JOL,"Study Phase2",8002,,,-1,-1,,,,1
w10118462_nmm,794nk34xsk,Nick_Dissertation_EX1_EP,1,188,2021-10-11T09:47:27-07:00,8.2050609588623,3,versionC_stim.csv,READVersionC.csv,"Read Version C","Dissertation, read only version C",ABLE,CRACKLE,Study2,U,162,121,Study,8,8,,Study/JOL,"Study Phase2",8003,,,-1,-1,,,,1
w10118462_nmm,794nk34xsk,Nick_Dissertation_EX1_EP,1,189,2021-10-11T09:47:35-07:00,8.2074031829834,3,versionC_stim.csv,READVersionC.csv,"Read Version C","Dissertation, read only version C",RED,CHERRY,Study2,B,104,167,Study,8,8,,Study/JOL,"Study Phase2",8005,,,-1,-1,,,,1
w10118462_nmm,794nk34xsk,Nick_Dissertation_EX1_EP,1,190,2021-10-11T09:47:43-07:00,8.2069449424744,3,versionC_stim.csv,READVersionC.csv,"Read Version C","Dissertation, read only version C",CAR,DRIVER,Study2,B,106,110,Study,8,8,,Study/JOL,"Study Phase2",8003,,,-1,-1,,,,1
w10118462_nmm,794nk34xsk,Nick_Dissertation_EX1_EP,1,191,2021-10-11T09:47:52-07:00,8.2061610221863,3,versionC_stim.csv,READVersionC.csv,"Read Version C","Dissertation, read only version C",CHILDREN,MIRROR,Study2,U,174,126,Study,8,8,,Study/JOL,"Study Phase2",8003,,,-1,-1,,,,1
w10118462_nmm,794nk34xsk,Nick_Dissertation_EX1_EP,1,192,2021-10-11T09:48:00-07:00,8.208703994751,3,versionC_stim.csv,READVersionC.csv,"Read Version C","Dissertation, read only version C",HEAD,SCALP,Study2,B,105,104,Study,8,8,,Study/JOL,"Study Phase2",8002,,,-1,-1,,,,1
w10118462_nmm,794nk34xsk,Nick_Dissertation_EX1_EP,1,193,2021-10-11T09:48:08-07:00,8.2093398571014,3,versionC_stim.csv,READVersionC.csv,"Read Version C","Dissertation, read only version C",OBTAIN,MEAT,Study2,U,161,106,Study,8,8,,Study/JOL,"Study Phase2",8006,,,-1,-1,,,,1
w10118462_nmm,794nk34xsk,Nick_Dissertation_EX1_EP,1,194,2021-10-11T09:48:16-07:00,8.2091391086578,3,versionC_stim.csv,READVersionC.csv,"Read Version C","Dissertation, read only version C",HATE,NAME,Study2,U,167,119,Study,8,8,,Study/JOL,"Study Phase2",8003,,,-1,-1,,,,1
w10118462_nmm,794nk34xsk,Nick_Dissertation_EX1_EP,1,195,2021-10-11T09:48:24-07:00,8.2072958946228,3,versionC_stim.csv,READVersionC.csv,"Read Version C","Dissertation, read only version C",DONKEY,MULE,Study2,B,108,142,Study,8,8,,Study/JOL,"Study Phase2",8002,,,-1,-1,,,,1
w10118462_nmm,794nk34xsk,Nick_Dissertation_EX1_EP,1,196,2021-10-11T09:48:33-07:00,8.2131590843201,3,versionC_stim.csv,READVersionC.csv,"Read Version C","Dissertation, read only version C",FIGHT,FEUD,Study2,B,113,148,Study,8,8,,Study/JOL,"Study Phase2",8002,,,-1,-1,,,,1
w10118462_nmm,794nk34xsk,Nick_Dissertation_EX1_EP,1,197,2021-10-11T09:48:41-07:00,8.2073059082031,3,versionC_stim.csv,READVersionC.csv,"Read Version C","Dissertation, read only version C",BALLOON,POP,Study2,F,123,144,Study,8,8,,Study/JOL,"Study Phase2",8002,,,-1,-1,,,,1
w10118462_nmm,794nk34xsk,Nick_Dissertation_EX1_EP,1,198,2021-10-11T09:48:49-07:00,8.210098028183,3,versionC_stim.csv,READVersionC.csv,"Read Version C","Dissertation, read only version C",FAVORITE,BEST,Study2,F,125,131,Study,8,8,,Study/JOL,"Study Phase2",8003,,,-1,-1,,,,1
w10118462_nmm,794nk34xsk,Nick_Dissertation_EX1_EP,1,199,2021-10-11T09:48:57-07:00,8.2043039798737,3,versionC_stim.csv,READVersionC.csv,"Read Version C","Dissertation, read only version C",CLOTH,STRETCH,Study2,U,157,128,Study,8,8,,Study/JOL,"Study Phase2",8003,,,-1,-1,,,,1
w10118462_nmm,794nk34xsk,Nick_Dissertation_EX1_EP,1,200,2021-10-11T09:49:05-07:00,8.2037880420685,3,versionC_stim.csv,READVersionC.csv,"Read Version C","Dissertation, read only version C",LOVE,AFFECTION,Study2,B,115,101,Study,8,8,,Study/JOL,"Study Phase2",8002,,,-1,-1,,,,1
w10118462_nmm,794nk34xsk,Nick_Dissertation_EX1_EP,1,201,2021-10-11T09:49:14-07:00,8.2076139450073,3,versionC_stim.csv,READVersionC.csv,"Read Version C","Dissertation, read only version C",END,ADJOURN,Study2,B,101,118,Study,8,8,,Study/JOL,"Study Phase2",8001,,,-1,-1,,,,1
w10118462_nmm,794nk34xsk,Nick_Dissertation_EX1_EP,1,202,2021-10-11T09:49:22-07:00,8.2074010372162,3,versionC_stim.csv,READVersionC.csv,"Read Version C","Dissertation, read only version C",GAME,CLUE,Study2,B,97,141,Study,8,8,,Study/JOL,"Study Phase2",8005,,,-1,-1,,,,1
w10118462_nmm,794nk34xsk,Nick_Dissertation_EX1_EP,1,203,2021-10-11T09:49:30-07:00,8.2181279659271,3,versionC_stim.csv,READVersionC.csv,"Read Version C","Dissertation, read only version C",DRINK,WATER,Study2,S,143,125,Study,8,8,,Study/JOL,"Study Phase2",8003,,,-1,-1,,,,1
w10118462_nmm,794nk34xsk,Nick_Dissertation_EX1_EP,1,204,2021-10-11T09:49:38-07:00,8.2041330337524,3,versionC_stim.csv,READVersionC.csv,"Read Version C","Dissertation, read only version C",CUT,CHOP,Study2,B,107,134,Study,8,8,,Study/JOL,"Study Phase2",8002,,,-1,-1,,,,1
w10118462_nmm,794nk34xsk,Nick_Dissertation_EX1_EP,1,205,2021-10-11T09:49:46-07:00,8.2017161846161,3,versionC_stim.csv,READVersionC.csv,"Read Version C","Dissertation, read only version C",STRAWBERRY,FRUIT,Study2,F,124,99,Study,8,8,,Study/JOL,"Study Phase2",8005,,,-1,-1,,,,1
w10118462_nmm,794nk34xsk,Nick_Dissertation_EX1_EP,1,206,2021-10-11T09:49:55-07:00,8.2094278335571,3,versionC_stim.csv,READVersionC.csv,"Read Version C","Dissertation, read only version C",WAX,CANDLE,Study2,S,139,173,Study,8,8,,Study/JOL,"Study Phase2",8001,,,-1,-1,,,,1
w10118462_nmm,794nk34xsk,Nick_Dissertation_EX1_EP,1,207,2021-10-11T09:50:03-07:00,8.2091059684753,3,versionC_stim.csv,READVersionC.csv,"Read Version C","Dissertation, read only version C",BRAWL,FIGHT,Study2,F,135,176,Study,8,8,,Study/JOL,"Study Phase2",8002,,,-1,-1,,,,1
w10118462_nmm,794nk34xsk,Nick_Dissertation_EX1_EP,1,208,2021-10-11T09:50:11-07:00,8.2083921432495,3,versionC_stim.csv,READVersionC.csv,"Read Version C","Dissertation, read only version C",ACTRESS,STAR,Study2,F,120,171,Study,8,8,,Study/JOL,"Study Phase2",8002,,,-1,-1,,,,1
w10118462_nmm,794nk34xsk,Nick_Dissertation_EX1_EP,1,209,2021-10-11T09:50:19-07:00,8.2076809406281,3,versionC_stim.csv,READVersionC.csv,"Read Version C","Dissertation, read only version C",TEMPER,TANTRUM,Study2,S,154,117,Study,8,8,,Study/JOL,"Study Phase2",8001,,,-1,-1,,,,1
w10118462_nmm,794nk34xsk,Nick_Dissertation_EX1_EP,1,210,2021-10-11T09:50:27-07:00,8.2047231197357,3,versionC_stim.csv,READVersionC.csv,"Read Version C","Dissertation, read only version C",PLANT,CACTUS,Study2,B,98,108,Study,8,8,,Study/JOL,"Study Phase2",8002,,,-1,-1,,,,1
w10118462_nmm,794nk34xsk,Nick_Dissertation_EX1_EP,1,211,2021-10-11T09:50:36-07:00,8.2127029895782,3,versionC_stim.csv,READVersionC.csv,"Read Version C","Dissertation, read only version C",JOKE,KEYS,Study2,U,165,154,Study,8,8,,Study/JOL,"Study Phase2",8002,,,-1,-1,,,,1
w10118462_nmm,794nk34xsk,Nick_Dissertation_EX1_EP,1,212,2021-10-11T09:50:44-07:00,8.2145249843597,3,versionC_stim.csv,READVersionC.csv,"Read Version C","Dissertation, read only version C",FLIP,TURN,Study2,F,116,115,Study,8,8,,Study/JOL,"Study Phase2",8002,,,-1,-1,,,,1
w10118462_nmm,794nk34xsk,Nick_Dissertation_EX1_EP,1,213,2021-10-11T09:50:52-07:00,8.2143819332123,3,versionC_stim.csv,READVersionC.csv,"Read Version C","Dissertation, read only version C",TRASH,LITTER,Study2,B,103,151,Study,8,8,,Study/JOL,"Study Phase2",8002,,,-1,-1,,,,1
w10118462_nmm,794nk34xsk,Nick_Dissertation_EX1_EP,1,214,2021-10-11T09:51:00-07:00,8.2119579315186,3,versionC_stim.csv,READVersionC.csv,"Read Version C","Dissertation, read only version C",SMELL,INCENSE,Study2,B,110,98,Study,8,8,,Study/JOL,"Study Phase2",8002,,,-1,-1,,,,1
w10118462_nmm,794nk34xsk,Nick_Dissertation_EX1_EP,1,215,2021-10-11T09:51:09-07:00,8.2167799472809,3,versionC_stim.csv,READVersionC.csv,"Read Version C","Dissertation, read only version C",CHARM,VEHICLE,Study2,U,160,159,Study,8,8,,Study/JOL,"Study Phase2",8005,,,-1,-1,,,,0.944
w10118462_nmm,794nk34xsk,Nick_Dissertation_EX1_EP,1,216,2021-10-11T09:51:17-07:00,8.202278137207,3,versionC_stim.csv,READVersionC.csv,"Read Version C","Dissertation, read only version C",JAR,MASON,Study2,S,138,113,Study,8,8,,Study/JOL,"Study Phase2",8002,,,-1,-1,,,,1
w10118462_nmm,794nk34xsk,Nick_Dissertation_EX1_EP,1,217,2021-10-11T09:51:25-07:00,8.2118289470673,3,versionC_stim.csv,READVersionC.csv,"Read Version C","Dissertation, read only version C",BANKER,MONEY,Study2,F,132,105,Study,8,8,,Study/JOL,"Study Phase2",8003,,,-1,-1,,,,1
w10118462_nmm,794nk34xsk,Nick_Dissertation_EX1_EP,1,218,2021-10-11T09:51:33-07:00,8.2193379402161,3,versionC_stim.csv,READVersionC.csv,"Read Version C","Dissertation, read only version C",EAT,DINE,Study2,B,111,132,Study,8,8,,Study/JOL,"Study Phase2",8006,,,-1,-1,,,,1
w10118462_nmm,794nk34xsk,Nick_Dissertation_EX1_EP,1,219,2021-10-11T09:51:41-07:00,8.2064549922943,3,versionC_stim.csv,READVersionC.csv,"Read Version C","Dissertation, read only version C",NOISE,LOUD,Study2,S,152,109,Study,8,8,,Study/JOL,"Study Phase2",8002,,,-1,-1,,,,1
w10118462_nmm,794nk34xsk,Nick_Dissertation_EX1_EP,1,220,2021-10-11T09:51:50-07:00,8.2020161151886,3,versionC_stim.csv,READVersionC.csv,"Read Version C","Dissertation, read only version C",SHAKE,Shell,Study2,U,163,170,Study,8,8,,Study/JOL,"Study Phase2",8002,,,-1,-1,,,,1
w10118462_nmm,794nk34xsk,Nick_Dissertation_EX1_EP,1,221,2021-10-11T09:51:58-07:00,8.3891019821167,3,versionC_stim.csv,READVersionC.csv,"Read Version C","Dissertation, read only version C",WINDSHIELD,CAR,Study2,F,117,163,Study,8,8,,Study/JOL,"Study Phase2",8003,,,-1,-1,,,,1
w10118462_nmm,794nk34xsk,Nick_Dissertation_EX1_EP,1,222,2021-10-11T09:52:06-07:00,8.2074580192566,3,versionC_stim.csv,READVersionC.csv,"Read Version C","Dissertation, read only version C",THIMBLE,THREAD,Study2,F,121,120,Study,8,8,,Study/JOL,"Study Phase2",8001,,,-1,-1,,,,1
w10118462_nmm,794nk34xsk,Nick_Dissertation_EX1_EP,1,223,2021-10-11T09:52:14-07:00,8.2084059715271,3,versionC_stim.csv,READVersionC.csv,"Read Version C","Dissertation, read only version C",BRACELET,WRIST,Study2,S,140,114,Study,8,8,,Study/JOL,"Study Phase2",8002,,,-1,-1,,,,1
w10118462_nmm,794nk34xsk,Nick_Dissertation_EX1_EP,1,224,2021-10-11T09:52:23-07:00,8.2038059234619,3,versionC_stim.csv,READVersionC.csv,"Read Version C","Dissertation, read only version C",OUNCE,BOTH,Study2,U,172,122,Study,8,8,,Study/JOL,"Study Phase2",8002,,,-1,-1,,,,1
w10118462_nmm,794nk34xsk,Nick_Dissertation_EX1_EP,1,225,2021-10-11T09:52:31-07:00,8.203232049942,3,versionC_stim.csv,READVersionC.csv,"Read Version C","Dissertation, read only version C",SIGN,LOAN,Study2,U,171,135,Study,8,8,,Study/JOL,"Study Phase2",8002,,,-1,-1,,,,1
w10118462_nmm,794nk34xsk,Nick_Dissertation_EX1_EP,1,226,2021-10-11T09:52:39-07:00,8.2061059474945,3,versionC_stim.csv,READVersionC.csv,"Read Version C","Dissertation, read only version C",TOIL,LEASE,Study2,U,170,100,Study,8,8,,Study/JOL,"Study Phase2",8001,,,-1,-1,,,,1
w10118462_nmm,794nk34xsk,Nick_Dissertation_EX1_EP,1,227,2021-10-11T09:52:47-07:00,8.208701133728,3,versionC_stim.csv,READVersionC.csv,"Read Version C","Dissertation, read only version C",HAVE,OWN,Study2,S,153,156,Study,8,8,,Study/JOL,"Study Phase2",8002,,,-1,-1,,,,1
w10118462_nmm,794nk34xsk,Nick_Dissertation_EX1_EP,1,228,2021-10-11T09:52:56-07:00,8.6124608516693,3,versionC_stim.csv,READVersionC.csv,"Read Version C","Dissertation, read only version C",BREAKABLE,GLASS,Study2,F,127,168,Study,8,8,,Study/JOL,"Study Phase2",8001,,,-1,-1,,,,1
w10118462_nmm,794nk34xsk,Nick_Dissertation_EX1_EP,1,229,2021-10-11T09:53:04-07:00,8.2097949981689,3,versionC_stim.csv,READVersionC.csv,"Read Version C","Dissertation, read only version C",MYSTERY,DETECTIVE,Study2,B,100,140,Study,8,8,,Study/JOL,"Study Phase2",8005,,,-1,-1,,,,1
w10118462_nmm,794nk34xsk,Nick_Dissertation_EX1_EP,1,230,2021-10-11T09:53:12-07:00,8.2096681594849,3,versionC_stim.csv,READVersionC.csv,"Read Version C","Dissertation, read only version C",REEL,ROD,Study2,S,150,157,Study,8,8,,Study/JOL,"Study Phase2",8005,,,-1,-1,,,,1
w10118462_nmm,794nk34xsk,Nick_Dissertation_EX1_EP,1,231,2021-10-11T09:53:20-07:00,8.2088189125061,3,versionC_stim.csv,READVersionC.csv,"Read Version C","Dissertation, read only version C",SCISSORS,SHEARS,Study2,B,112,97,Study,8,8,,Study/JOL,"Study Phase2",8002,,,-1,-1,,,,1
w10118462_nmm,794nk34xsk,Nick_Dissertation_EX1_EP,1,232,2021-10-11T09:53:29-07:00,8.2082040309906,3,versionC_stim.csv,READVersionC.csv,"Read Version C","Dissertation, read only version C",STEAK,GIVE,Study2,U,158,172,Study,8,8,,Study/JOL,"Study Phase2",8002,,,-1,-1,,,,1
w10118462_nmm,794nk34xsk,Nick_Dissertation_EX1_EP,1,233,2021-10-11T09:53:37-07:00,8.2035489082336,3,versionC_stim.csv,READVersionC.csv,"Read Version C","Dissertation, read only version C",SCAR,MAIN,Study2,U,175,107,Study,8,8,,Study/JOL,"Study Phase2",8001,,,-1,-1,,,,1
w10118462_nmm,794nk34xsk,Nick_Dissertation_EX1_EP,1,234,2021-10-11T09:53:45-07:00,8.2053179740906,3,versionC_stim.csv,READVersionC.csv,"Read Version C","Dissertation, read only version C",SHAVE,RAZOR,Study2,S,136,124,Study,8,8,,Study/JOL,"Study Phase2",8002,,,-1,-1,,,,1
w10118462_nmm,794nk34xsk,Nick_Dissertation_EX1_EP,1,235,2021-10-11T09:53:53-07:00,8.2162702083588,3,versionC_stim.csv,READVersionC.csv,"Read Version C","Dissertation, read only version C",TAN,SUN,Study2,S,155,138,Study,8,8,,Study/JOL,"Study Phase2",8001,,,-1,-1,,,,1
w10118462_nmm,794nk34xsk,Nick_Dissertation_EX1_EP,1,236,2021-10-11T09:54:02-07:00,8.2088849544525,3,versionC_stim.csv,READVersionC.csv,"Read Version C","Dissertation, read only version C",LEAGUE,BASEBALL,Study2,F,131,130,Study,8,8,,Study/JOL,"Study Phase2",8005,,,-1,-1,,,,1
w10118462_nmm,794nk34xsk,Nick_Dissertation_EX1_EP,1,237,2021-10-11T09:54:10-07:00,8.2138228416443,3,versionC_stim.csv,READVersionC.csv,"Read Version C","Dissertation, read only version C",LIE,TRUTH,Study2,S,148,155,Study,8,8,,Study/JOL,"Study Phase2",8002,,,-1,-1,,,,1
w10118462_nmm,794nk34xsk,Nick_Dissertation_EX1_EP,1,238,2021-10-11T09:54:18-07:00,8.2029931545258,3,versionC_stim.csv,READVersionC.csv,"Read Version C","Dissertation, read only version C",PAPER,DOCUMENT,Study2,B,109,161,Study,8,8,,Study/JOL,"Study Phase2",8002,,,-1,-1,,,,1
w10118462_nmm,794nk34xsk,Nick_Dissertation_EX1_EP,1,239,2021-10-11T09:54:26-07:00,8.2046759128571,3,versionC_stim.csv,READVersionC.csv,"Read Version C","Dissertation, read only version C",TRUTHFUL,HONEST,Study2,F,133,169,Study,8,8,,Study/JOL,"Study Phase2",8001,,,-1,-1,,,,1
w10118462_nmm,794nk34xsk,Nick_Dissertation_EX1_EP,1,240,2021-10-11T09:54:34-07:00,8.2074460983276,3,versionC_stim.csv,READVersionC.csv,"Read Version C","Dissertation, read only version C",PENGUIN,BIRD,Study2,F,119,165,Study,8,8,,Study/JOL,"Study Phase2",8002,,,-1,-1,,,,1
w10118462_nmm,794nk34xsk,Nick_Dissertation_EX1_EP,1,241,2021-10-11T09:54:43-07:00,8.2139029502869,3,versionC_stim.csv,READVersionC.csv,"Read Version C","Dissertation, read only version C",TIE,SHOELACE,Study2,B,99,158,Study,8,8,,Study/JOL,"Study Phase2",8003,,,-1,-1,,,,1
w10118462_nmm,794nk34xsk,Nick_Dissertation_EX1_EP,1,242,2021-10-11T09:54:51-07:00,8.2025380134583,3,versionC_stim.csv,READVersionC.csv,"Read Version C","Dissertation, read only version C",LONELY,ALONE,Study2,S,145,133,Study,8,8,,Study/JOL,"Study Phase2",8003,,,-1,-1,,,,1
w10118462_nmm,794nk34xsk,Nick_Dissertation_EX1_EP,1,243,2021-10-11T09:54:59-07:00,8.2127480506897,3,versionC_stim.csv,READVersionC.csv,"Read Version C","Dissertation, read only version C",BANG,FUZZY,Study2,U,168,153,Study,8,8,,Study/JOL,"Study Phase2",8002,,,-1,-1,,,,1
w10118462_nmm,794nk34xsk,Nick_Dissertation_EX1_EP,1,244,2021-10-11T09:55:07-07:00,8.2147397994995,3,versionC_stim.csv,READVersionC.csv,"Read Version C","Dissertation, read only version C",SARDINE,FISH,Study2,F,130,127,Study,8,8,,Study/JOL,"Study Phase2",8002,,,-1,-1,,,,1
w10118462_nmm,794nk34xsk,Nick_Dissertation_EX1_EP,1,245,2021-10-11T09:55:15-07:00,8.2117350101471,3,versionC_stim.csv,READVersionC.csv,"Read Version C","Dissertation, read only version C",GROUND,EARTH,Study2,S,144,102,Study,8,8,,Study/JOL,"Study Phase2",8001,,,-1,-1,,,,1
w10118462_nmm,794nk34xsk,Nick_Dissertation_EX1_EP,1,246,2021-10-11T09:55:24-07:00,8.2271761894226,3,versionC_stim.csv,READVersionC.csv,"Read Version C","Dissertation, read only version C",EQUAL,RIGHTS,Study2,S,137,116,Study,8,8,,Study/JOL,"Study Phase2",8003,,,-1,-1,,,,1
w10118462_nmm,794nk34xsk,Nick_Dissertation_EX1_EP,1,247,2021-10-11T09:55:32-07:00,8.2118268013,3,versionC_stim.csv,READVersionC.csv,"Read Version C","Dissertation, read only version C",CARBON,ELEMENT,Study2,S,141,149,Study,8,8,,Study/JOL,"Study Phase2",8001,,,-1,-1,,,,1
w10118462_nmm,794nk34xsk,Nick_Dissertation_EX1_EP,1,248,2021-10-11T09:55:40-07:00,8.211590051651,3,versionC_stim.csv,READVersionC.csv,"Read Version C","Dissertation, read only version C",LONG,EXTENSION,Study2,B,96,103,Study,8,8,,Study/JOL,"Study Phase2",8002,,,-1,-1,,,,1
w10118462_nmm,794nk34xsk,Nick_Dissertation_EX1_EP,1,249,2021-10-11T09:55:48-07:00,8.2088739871979,3,versionC_stim.csv,READVersionC.csv,"Read Version C","Dissertation, read only version C",WET,DRY,Study2,S,146,175,Study,8,8,,Study/JOL,"Study Phase2",8002,,,-1,-1,,,,1
w10118462_nmm,794nk34xsk,Nick_Dissertation_EX1_EP,1,250,2021-10-11T09:55:56-07:00,8.207288980484,3,versionC_stim.csv,READVersionC.csv,"Read Version C","Dissertation, read only version C",TICK,FLEA,Study2,S,151,137,Study,8,8,,Study/JOL,"Study Phase2",8002,,,-1,-1,,,,1
w10118462_nmm,794nk34xsk,Nick_Dissertation_EX1_EP,1,251,2021-10-11T09:56:05-07:00,8.2147481441498,3,versionC_stim.csv,READVersionC.csv,"Read Version C","Dissertation, read only version C",Morning,TEMPERATURE,Study2,U,173,152,Study,8,8,,Study/JOL,"Study Phase2",8001,,,-1,-1,,,,1
w10118462_nmm,794nk34xsk,Nick_Dissertation_EX1_EP,1,252,2021-10-11T09:56:13-07:00,8.2128939628601,3,versionC_stim.csv,READVersionC.csv,"Read Version C","Dissertation, read only version C",AWAY,GONE,Study2,S,142,166,Study,8,8,,Study/JOL,"Study Phase2",8003,,,-1,-1,,,,0.972
w10118462_nmm,794nk34xsk,Nick_Dissertation_EX1_EP,1,253,2021-10-11T09:56:21-07:00,8.1992139816284,3,versionC_stim.csv,READVersionC.csv,"Read Version C","Dissertation, read only version C",ELECTION,MAZE,Study2,U,159,174,Study,8,8,,Study/JOL,"Study Phase2",8002,,,-1,-1,,,,1
w10118462_nmm,794nk34xsk,Nick_Dissertation_EX1_EP,1,254,2021-10-11T09:56:29-07:00,8.2090930938721,3,versionC_stim.csv,READVersionC.csv,"Read Version C","Dissertation, read only version C",CLEAR,MOAT,Study2,U,169,145,Study,8,8,,Study/JOL,"Study Phase2",8002,,,-1,-1,,,,1
w10118462_nmm,794nk34xsk,Nick_Dissertation_EX1_EP,1,255,2021-10-11T09:56:38-07:00,8.2066810131073,3,versionC_stim.csv,READVersionC.csv,"Read Version C","Dissertation, read only version C",VILLAIN,BAD,Study2,F,118,164,Study,8,8,,Study/JOL,"Study Phase2",8001,,,-1,-1,,,,1
w10118462_nmm,794nk34xsk,Nick_Dissertation_EX1_EP,1,256,2021-10-11T09:56:46-07:00,8.2084259986877,3,versionC_stim.csv,READVersionC.csv,"Read Version C","Dissertation, read only version C",FICTION,LISTEN,Study2,U,164,162,Study,8,8,,Study/JOL,"Study Phase2",8002,,,-1,-1,,,,1
w10118462_nmm,794nk34xsk,Nick_Dissertation_EX1_EP,1,257,2021-10-11T09:56:54-07:00,8.2191829681396,3,versionC_stim.csv,READVersionC.csv,"Read Version C","Dissertation, read only version C",NAP,SLEEP,Study2,F,134,146,Study,8,8,,Study/JOL,"Study Phase2",8002,,,-1,-1,,,,1
w10118462_nmm,794nk34xsk,Nick_Dissertation_EX1_EP,1,258,2021-10-11T09:57:02-07:00,8.2105379104614,3,versionC_stim.csv,READVersionC.csv,"Read Version C","Dissertation, read only version C",DOG,FURRY,Study2,B,102,139,Study,8,8,,Study/JOL,"Study Phase2",8002,,,-1,-1,,,,1
w10118462_nmm,794nk34xsk,Nick_Dissertation_EX1_EP,1,259,2021-10-11T09:57:10-07:00,8.2082779407501,3,versionC_stim.csv,READVersionC.csv,"Read Version C","Dissertation, read only version C",COLD,CHILL,Study2,B,114,112,Study,8,8,,Study/JOL,"Study Phase2",8001,,,-1,-1,,,,1
w10118462_nmm,794nk34xsk,Nick_Dissertation_EX1_EP,1,260,2021-10-11T09:57:19-07:00,8.2124400138855,3,versionC_stim.csv,READVersionC.csv,"Read Version C","Dissertation, read only version C",SEATBELT,SAFETY,Study2,S,147,129,Study,8,8,,Study/JOL,"Study Phase2",8005,,,-1,-1,,,,1
w10118462_nmm,794nk34xsk,Nick_Dissertation_EX1_EP,1,261,2021-10-11T09:57:27-07:00,8.2147631645203,3,versionC_stim.csv,READVersionC.csv,"Read Version C","Dissertation, read only version C",PANTHER,CAT,Study2,F,126,143,Study,8,8,,Study/JOL,"Study Phase2",8002,,,-1,-1,,,,1
w10118462_nmm,794nk34xsk,Nick_Dissertation_EX1_EP,1,262,2021-10-11T09:57:35-07:00,8.208203792572,3,versionC_stim.csv,READVersionC.csv,"Read Version C","Dissertation, read only version C",AIRCRAFT,PLANE,Study2,F,129,136,Study,8,8,,Study/JOL,"Study Phase2",8002,,,-1,-1,,,,1
w10118462_nmm,794nk34xsk,Nick_Dissertation_EX1_EP,1,263,2021-10-11T09:57:43-07:00,8.2079191207886,3,versionC_stim.csv,READVersionC.csv,"Read Version C","Dissertation, read only version C",COMMUNICATION,PHONE,Study2,S,149,160,Study,8,8,,Study/JOL,"Study Phase2",8002,,,-1,-1,,,,1
w10118462_nmm,794nk34xsk,Nick_Dissertation_EX1_EP,1,264,2021-10-11T09:57:51-07:00,8.2107229232788,3,versionC_stim.csv,READVersionC.csv,"Read Version C","Dissertation, read only version C",SPOOKY,OCTOBER,BUFFER4,Buffer,180,179,Study,8,8,,Study/JOL,BUFFER4,8002,,,-1,-1,,,,1
w10118462_nmm,794nk34xsk,Nick_Dissertation_EX1_EP,1,265,2021-10-11T09:58:00-07:00,8.2035889625549,3,versionC_stim.csv,READVersionC.csv,"Read Version C","Dissertation, read only version C",YEAR,MONTH,BUFFER4,Buffer,177,181,Study,8,8,,Study/JOL,BUFFER4,8003,,,-1,-1,,,,1
w10118462_nmm,794nk34xsk,Nick_Dissertation_EX1_EP,1,266,2021-10-11T09:58:08-07:00,8.2106461524963,3,versionC_stim.csv,READVersionC.csv,"Read Version C","Dissertation, read only version C",WEAKS,DAYS,BUFFER4,Buffer,176,180,Study,8,8,,Study/JOL,BUFFER4,8002,,,-1,-1,,,,1
w10118462_nmm,794nk34xsk,Nick_Dissertation_EX1_EP,1,267,2021-10-11T09:58:16-07:00,8.2087168693542,3,versionC_stim.csv,READVersionC.csv,"Read Version C","Dissertation, read only version C",MARCH,SPRING,BUFFER4,Buffer,179,177,Study,8,8,,Study/JOL,BUFFER4,8003,,,-1,-1,,,,1
w10118462_nmm,794nk34xsk,Nick_Dissertation_EX1_EP,1,268,2021-10-11T09:58:24-07:00,8.203243970871,3,versionC_stim.csv,READVersionC.csv,"Read Version C","Dissertation, read only version C",SHED,TOOL,BUFFER4,Buffer,178,178,Study,8,8,,Study/JOL,BUFFER4,8001,,,-1,-1,,,,1
w10118462_nmm,794nk34xsk,Nick_Dissertation_EX1_EP,1,269,2021-10-11T09:58:27-07:00,2.2779002189636,3,versionC_stim.csv,READVersionC.csv,"Read Version C","Dissertation, read only version C",,,,,,0,Instruct,User,-,"You have completed this section. Please press Enter.",Filler_Instruction,Instruct5,2081,,,-1,-1,,,,1
w10118462_nmm,794nk34xsk,Nick_Dissertation_EX1_EP,1,270,2021-10-11T10:00:27-07:00,120.34652280807,3,versionC_stim.csv,READVersionC.csv,"Read Version C","Dissertation, read only version C",,,,,,0,FreeRecall,120,120,"Please list the 50 US states in reverse alphabetical order (z - a). The task will automatically advance to the next screen after two minutes.",,Filler2,120002,"Wyoming Wisconsin West Virginia Washington Virginia Vermont Utah Texas Tennesse ",0,7278,115558,0,0,,1
w10118462_nmm,794nk34xsk,Nick_Dissertation_EX1_EP,1,271,2021-10-11T10:00:40-07:00,13.242477178574,3,versionC_stim.csv,READVersionC.csv,"Read Version C","Dissertation, read only version C",,,,,,0,Instruct,-,10,"You will now be presented with the first word from each of the previously studied item pairs. Please type the missing word. If you do not know the word, you may guess or press Enter to skip forward to the next pair.",,Instruct6,13032,,,-1,-1,,,,1
w10118462_nmm,794nk34xsk,Nick_Dissertation_EX1_EP,1,272,2021-10-11T10:00:44-07:00,4.1333158016205,3,versionC_stim.csv,READVersionC.csv,"Read Version C","Dissertation, read only version C",ELECTION,MAZE,Study2,U,159,174,Test,User,-,,Recall,Recall2,3924,vote,25,3191,3712,0,0,,1
w10118462_nmm,794nk34xsk,Nick_Dissertation_EX1_EP,1,273,2021-10-11T10:00:48-07:00,3.8070421218872,3,versionC_stim.csv,READVersionC.csv,"Read Version C","Dissertation, read only version C",PAPER,DOCUMENT,Study2,B,109,161,Test,User,-,,Recall,Recall2,3600,clip,16.666666666667,2122,3337,0,0,,1
w10118462_nmm,794nk34xsk,Nick_Dissertation_EX1_EP,1,274,2021-10-11T10:00:57-07:00,9.3706760406494,3,versionC_stim.csv,READVersionC.csv,"Read Version C","Dissertation, read only version C",EAT,DINE,Study2,B,111,132,Test,User,-,,Recall,Recall2,9164,hungry,20,1970,8991,0,0,,1
w10118462_nmm,794nk34xsk,Nick_Dissertation_EX1_EP,1,275,2021-10-11T10:00:59-07:00,1.5667798519135,3,versionC_stim.csv,READVersionC.csv,"Read Version C","Dissertation, read only version C",BANG,FUZZY,Study2,U,168,153,Test,User,-,,Recall,Recall2,1356,,0,-1,-1,0,0,,1
w10118462_nmm,794nk34xsk,Nick_Dissertation_EX1_EP,1,276,2021-10-11T10:01:02-07:00,2.8010380268097,3,versionC_stim.csv,READVersionC.csv,"Read Version C","Dissertation, read only version C",TEMPER,TANTRUM,Study2,S,154,117,Test,User,-,,Recall,Recall2,2598,mad,20,2018,2497,0,0,,1
w10118462_nmm,794nk34xsk,Nick_Dissertation_EX1_EP,1,277,2021-10-11T10:01:04-07:00,2.083153963089,3,versionC_stim.csv,READVersionC.csv,"Read Version C","Dissertation, read only version C",SHAVE,RAZOR,Study2,S,136,124,Test,User,-,,Recall,Recall2,1877,,0,-1,-1,0,0,,1
w10118462_nmm,794nk34xsk,Nick_Dissertation_EX1_EP,1,278,2021-10-11T10:01:10-07:00,6.5942561626434,3,versionC_stim.csv,READVersionC.csv,"Read Version C","Dissertation, read only version C",GROUND,EARTH,Study2,S,144,102,Test,User,-,,Recall,Recall2,6342,floor,20,3059,6153,0,0,,1
w10118462_nmm,794nk34xsk,Nick_Dissertation_EX1_EP,1,279,2021-10-11T10:01:12-07:00,1.2781429290771,3,versionC_stim.csv,READVersionC.csv,"Read Version C","Dissertation, read only version C",COMMUNICATION,PHONE,Study2,S,149,160,Test,User,-,,Recall,Recall2,1069,,0,-1,-1,0,0,,1
w10118462_nmm,794nk34xsk,Nick_Dissertation_EX1_EP,1,280,2021-10-11T10:01:18-07:00,6.0318949222565,3,versionC_stim.csv,READVersionC.csv,"Read Version C","Dissertation, read only version C",CLOTHES,CAKE,Study2,U,166,111,Test,User,-,,Recall,Recall2,5827,attire,40,2605,5654,0,0,,1
w10118462_nmm,794nk34xsk,Nick_Dissertation_EX1_EP,1,281,2021-10-11T10:01:22-07:00,4.3532030582428,3,versionC_stim.csv,READVersionC.csv,"Read Version C","Dissertation, read only version C",FICTION,LISTEN,Study2,U,164,162,Test,User,-,,Recall,Recall2,4138,listen,100,2410,3809,1,1,,1
w10118462_nmm,794nk34xsk,Nick_Dissertation_EX1_EP,1,282,2021-10-11T10:01:24-07:00,1.7081849575043,3,versionC_stim.csv,READVersionC.csv,"Read Version C","Dissertation, read only version C",WAX,CANDLE,Study2,S,139,173,Test,User,-,,Recall,Recall2,1460,,0,-1,-1,0,0,,1
w10118462_nmm,794nk34xsk,Nick_Dissertation_EX1_EP,1,283,2021-10-11T10:01:25-07:00,1.1896131038666,3,versionC_stim.csv,READVersionC.csv,"Read Version C","Dissertation, read only version C",TOIL,LEASE,Study2,U,170,100,Test,User,-,,Recall,Recall2,977,,0,-1,-1,0,0,,1
w10118462_nmm,794nk34xsk,Nick_Dissertation_EX1_EP,1,284,2021-10-11T10:01:29-07:00,4.291200876236,3,versionC_stim.csv,READVersionC.csv,"Read Version C","Dissertation, read only version C",OUNCE,BOTH,Study2,U,172,122,Test,User,-,,Recall,Recall2,4085,best,50,3078,3831,0,0,,1
w10118462_nmm,794nk34xsk,Nick_Dissertation_EX1_EP,1,285,2021-10-11T10:01:31-07:00,1.3598291873932,3,versionC_stim.csv,READVersionC.csv,"Read Version C","Dissertation, read only version C",BRACELET,WRIST,Study2,S,140,114,Test,User,-,,Recall,Recall2,1150,,0,-1,-1,0,0,,1
w10118462_nmm,794nk34xsk,Nick_Dissertation_EX1_EP,1,286,2021-10-11T10:01:32-07:00,0.9457859992981,3,versionC_stim.csv,READVersionC.csv,"Read Version C","Dissertation, read only version C",FIGHT,FEUD,Study2,B,113,148,Test,User,-,,Recall,Recall2,742,,0,-1,-1,0,0,,1
w10118462_nmm,794nk34xsk,Nick_Dissertation_EX1_EP,1,287,2021-10-11T10:01:39-07:00,6.9470808506012,3,versionC_stim.csv,READVersionC.csv,"Read Version C","Dissertation, read only version C",AWAY,GONE,Study2,S,142,166,Test,User,-,,Recall,Recall2,6746,gone,100,5642,6534,1,1,,1
w10118462_nmm,794nk34xsk,Nick_Dissertation_EX1_EP,1,288,2021-10-11T10:01:42-07:00,2.9701840877533,3,versionC_stim.csv,READVersionC.csv,"Read Version C","Dissertation, read only version C",Morning,TEMPERATURE,Study2,U,173,152,Test,User,-,,Recall,Recall2,2756,night,12.5,1508,2598,0,0,,1
w10118462_nmm,794nk34xsk,Nick_Dissertation_EX1_EP,1,289,2021-10-11T10:01:43-07:00,1.7474970817566,3,versionC_stim.csv,READVersionC.csv,"Read Version C","Dissertation, read only version C",WINDSHIELD,CAR,Study2,F,117,163,Test,User,-,,Recall,Recall2,1538,,0,-1,-1,0,0,,1
w10118462_nmm,794nk34xsk,Nick_Dissertation_EX1_EP,1,290,2021-10-11T10:01:44-07:00,1.0059039592743,3,versionC_stim.csv,READVersionC.csv,"Read Version C","Dissertation, read only version C",AIRCRAFT,PLANE,Study2,F,129,136,Test,User,-,,Recall,Recall2,808,,0,-1,-1,0,0,,1
w10118462_nmm,794nk34xsk,Nick_Dissertation_EX1_EP,1,291,2021-10-11T10:01:46-07:00,2.1520159244537,3,versionC_stim.csv,READVersionC.csv,"Read Version C","Dissertation, read only version C",OBTAIN,MEAT,Study2,U,161,106,Test,User,-,,Recall,Recall2,1912,get,57.142857142857,1268,1774,0,0,,1
w10118462_nmm,794nk34xsk,Nick_Dissertation_EX1_EP,1,292,2021-10-11T10:01:49-07:00,2.2202439308167,3,versionC_stim.csv,READVersionC.csv,"Read Version C","Dissertation, read only version C",COFFIN,DEAD,Study2,F,128,147,Test,User,-,,Recall,Recall2,1972,dead,100,1096,1797,1,1,,1
w10118462_nmm,794nk34xsk,Nick_Dissertation_EX1_EP,1,293,2021-10-11T10:01:55-07:00,6.0959100723267,3,versionC_stim.csv,READVersionC.csv,"Read Version C","Dissertation, read only version C",JOKE,KEYS,Study2,U,165,154,Test,User,-,,Recall,Recall2,5900,laugh,0,2589,5678,0,0,,1
w10118462_nmm,794nk34xsk,Nick_Dissertation_EX1_EP,1,294,2021-10-11T10:02:17-07:00,22.362951993942,3,versionC_stim.csv,READVersionC.csv,"Read Version C","Dissertation, read only version C",TRASH,LITTER,Study2,B,103,151,Test,User,-,,Recall,Recall2,22158,,0,-1,-1,0,0,,1
w10118462_nmm,794nk34xsk,Nick_Dissertation_EX1_EP,1,295,2021-10-11T10:02:20-07:00,2.4588038921356,3,versionC_stim.csv,READVersionC.csv,"Read Version C","Dissertation, read only version C",FAVORITE,BEST,Study2,F,125,131,Test,User,-,,Recall,Recall2,2254,best,100,1331,2071,1,1,,1
w10118462_nmm,794nk34xsk,Nick_Dissertation_EX1_EP,1,296,2021-10-11T10:02:22-07:00,2.5699632167816,3,versionC_stim.csv,READVersionC.csv,"Read Version C","Dissertation, read only version C",NAP,SLEEP,Study2,F,134,146,Test,User,-,,Recall,Recall2,2364,sleep,100,1336,2123,1,1,,1
w10118462_nmm,794nk34xsk,Nick_Dissertation_EX1_EP,1,297,2021-10-11T10:02:27-07:00,4.7077708244324,3,versionC_stim.csv,READVersionC.csv,"Read Version C","Dissertation, read only version C",DONKEY,MULE,Study2,B,108,142,Test,User,-,,Recall,Recall2,4498,horse,22.222222222222,2825,4344,0,0,,1
w10118462_nmm,794nk34xsk,Nick_Dissertation_EX1_EP,1,298,2021-10-11T10:02:29-07:00,2.592588186264,3,versionC_stim.csv,READVersionC.csv,"Read Version C","Dissertation, read only version C",CUT,CHOP,Study2,B,107,134,Test,User,-,,Recall,Recall2,2389,,0,-1,-1,0,0,,1
w10118462_nmm,794nk34xsk,Nick_Dissertation_EX1_EP,1,299,2021-10-11T10:02:32-07:00,2.267945766449,3,versionC_stim.csv,READVersionC.csv,"Read Version C","Dissertation, read only version C",REEL,ROD,Study2,S,150,157,Test,User,-,,Recall,Recall2,2066,,0,-1,-1,0,0,,1
w10118462_nmm,794nk34xsk,Nick_Dissertation_EX1_EP,1,300,2021-10-11T10:02:35-07:00,3.7335331439972,3,versionC_stim.csv,READVersionC.csv,"Read Version C","Dissertation, read only version C",LONELY,ALONE,Study2,S,145,133,Test,User,-,,Recall,Recall2,3526,alone,100,1324,2937,1,1,,1
w10118462_nmm,794nk34xsk,Nick_Dissertation_EX1_EP,1,301,2021-10-11T10:02:40-07:00,4.5680749416351,3,versionC_stim.csv,READVersionC.csv,"Read Version C","Dissertation, read only version C",LEAGUE,BASEBALL,Study2,F,131,130,Test,User,-,,Recall,Recall2,4359,,0,-1,-1,0,0,,1
w10118462_nmm,794nk34xsk,Nick_Dissertation_EX1_EP,1,302,2021-10-11T10:02:41-07:00,1.032702922821,3,versionC_stim.csv,READVersionC.csv,"Read Version C","Dissertation, read only version C",BRAWL,FIGHT,Study2,F,135,176,Test,User,-,,Recall,Recall2,825,,0,-1,-1,0,0,,1
w10118462_nmm,794nk34xsk,Nick_Dissertation_EX1_EP,1,303,2021-10-11T10:02:43-07:00,1.8727450370789,3,versionC_stim.csv,READVersionC.csv,"Read Version C","Dissertation, read only version C",GAME,CLUE,Study2,B,97,141,Test,User,-,,Recall,Recall2,1665,,0,-1,-1,0,0,,1
w10118462_nmm,794nk34xsk,Nick_Dissertation_EX1_EP,1,304,2021-10-11T10:02:47-07:00,3.8513309955597,3,versionC_stim.csv,READVersionC.csv,"Read Version C","Dissertation, read only version C",NOISE,LOUD,Study2,S,152,109,Test,User,-,,Recall,Recall2,3649,quiet,22.222222222222,1572,3543,0,0,,1
w10118462_nmm,794nk34xsk,Nick_Dissertation_EX1_EP,1,305,2021-10-11T10:02:52-07:00,5.0731539726257,3,versionC_stim.csv,READVersionC.csv,"Read Version C","Dissertation, read only version C",ABLE,CRACKLE,Study2,U,162,121,Test,User,-,,Recall,Recall2,4868,unable,46.153846153846,2340,4732,0,0,,1
w10118462_nmm,794nk34xsk,Nick_Dissertation_EX1_EP,1,306,2021-10-11T10:02:54-07:00,2.2295432090759,3,versionC_stim.csv,READVersionC.csv,"Read Version C","Dissertation, read only version C",LONG,EXTENSION,Study2,B,96,103,Test,User,-,,Recall,Recall2,2030,short,28.571428571429,1225,1896,0,0,,1
w10118462_nmm,794nk34xsk,Nick_Dissertation_EX1_EP,1,307,2021-10-11T10:02:57-07:00,2.637405872345,3,versionC_stim.csv,READVersionC.csv,"Read Version C","Dissertation, read only version C",BANKER,MONEY,Study2,F,132,105,Test,User,-,,Recall,Recall2,2430,money,100,1329,2301,1,1,,1
w10118462_nmm,794nk34xsk,Nick_Dissertation_EX1_EP,1,308,2021-10-11T10:03:01-07:00,4.2651379108429,3,versionC_stim.csv,READVersionC.csv,"Read Version C","Dissertation, read only version C",BREAKABLE,GLASS,Study2,F,127,168,Test,User,-,,Recall,Recall2,4065,strong,18.181818181818,2502,3895,0,0,,1
w10118462_nmm,794nk34xsk,Nick_Dissertation_EX1_EP,1,309,2021-10-11T10:03:03-07:00,1.8846499919891,3,versionC_stim.csv,READVersionC.csv,"Read Version C","Dissertation, read only version C",PLANT,CACTUS,Study2,B,98,108,Test,User,-,,Recall,Recall2,1674,,0,-1,-1,0,0,,1
w10118462_nmm,794nk34xsk,Nick_Dissertation_EX1_EP,1,310,2021-10-11T10:03:11-07:00,8.182489156723,3,versionC_stim.csv,READVersionC.csv,"Read Version C","Dissertation, read only version C",BALLOON,POP,Study2,F,123,144,Test,User,-,,Recall,Recall2,7966,,0,-1,-1,0,0,,1
w10118462_nmm,794nk34xsk,Nick_Dissertation_EX1_EP,1,311,2021-10-11T10:03:20-07:00,8.7049510478973,3,versionC_stim.csv,READVersionC.csv,"Read Version C","Dissertation, read only version C",STRAWBERRY,FRUIT,Study2,F,124,99,Test,User,-,,Recall,Recall2,8498,fruit,100,6710,7951,1,1,,1
w10118462_nmm,794nk34xsk,Nick_Dissertation_EX1_EP,1,312,2021-10-11T10:03:21-07:00,1.4871249198914,3,versionC_stim.csv,READVersionC.csv,"Read Version C","Dissertation, read only version C",CAR,DRIVER,Study2,B,106,110,Test,User,-,,Recall,Recall2,1276,,0,-1,-1,0,0,,1
w10118462_nmm,794nk34xsk,Nick_Dissertation_EX1_EP,1,313,2021-10-11T10:03:27-07:00,5.8631770610809,3,versionC_stim.csv,READVersionC.csv,"Read Version C","Dissertation, read only version C",TICK,FLEA,Study2,S,151,137,Test,User,-,,Recall,Recall2,5660,,0,-1,-1,0,0,,1
w10118462_nmm,794nk34xsk,Nick_Dissertation_EX1_EP,1,314,2021-10-11T10:03:29-07:00,1.8049409389496,3,versionC_stim.csv,READVersionC.csv,"Read Version C","Dissertation, read only version C",PENGUIN,BIRD,Study2,F,119,165,Test,User,-,,Recall,Recall2,1603,,0,-1,-1,0,0,,1
w10118462_nmm,794nk34xsk,Nick_Dissertation_EX1_EP,1,315,2021-10-11T10:03:30-07:00,1.2918589115143,3,versionC_stim.csv,READVersionC.csv,"Read Version C","Dissertation, read only version C",SEATBELT,SAFETY,Study2,S,147,129,Test,User,-,,Recall,Recall2,1086,,0,-1,-1,0,0,,1
w10118462_nmm,794nk34xsk,Nick_Dissertation_EX1_EP,1,316,2021-10-11T10:03:36-07:00,6.1397140026093,3,versionC_stim.csv,READVersionC.csv,"Read Version C","Dissertation, read only version C",ACTRESS,STAR,Study2,F,120,171,Test,User,-,,Recall,Recall2,5933,actor,44.444444444444,2157,5735,0,0,,1
w10118462_nmm,794nk34xsk,Nick_Dissertation_EX1_EP,1,317,2021-10-11T10:03:38-07:00,1.748987197876,3,versionC_stim.csv,READVersionC.csv,"Read Version C","Dissertation, read only version C",CLEAR,MOAT,Study2,U,169,145,Test,User,-,,Recall,Recall2,1542,,0,-1,-1,0,0,,1
w10118462_nmm,794nk34xsk,Nick_Dissertation_EX1_EP,1,318,2021-10-11T10:03:40-07:00,1.4543128013611,3,versionC_stim.csv,READVersionC.csv,"Read Version C","Dissertation, read only version C",SARDINE,FISH,Study2,F,130,127,Test,User,-,,Recall,Recall2,1255,,0,-1,-1,0,0,,1
w10118462_nmm,794nk34xsk,Nick_Dissertation_EX1_EP,1,319,2021-10-11T10:03:41-07:00,1.7233681678772,3,versionC_stim.csv,READVersionC.csv,"Read Version C","Dissertation, read only version C",SHAKE,Shell,Study2,U,163,170,Test,User,-,,Recall,Recall2,1542,,0,-1,-1,0,0,,1
w10118462_nmm,794nk34xsk,Nick_Dissertation_EX1_EP,1,320,2021-10-11T10:03:42-07:00,1.0822899341583,3,versionC_stim.csv,READVersionC.csv,"Read Version C","Dissertation, read only version C",HATE,NAME,Study2,U,167,119,Test,User,-,,Recall,Recall2,875,,0,-1,-1,0,0,,1
w10118462_nmm,794nk34xsk,Nick_Dissertation_EX1_EP,1,321,2021-10-11T10:03:46-07:00,3.6649498939514,3,versionC_stim.csv,READVersionC.csv,"Read Version C","Dissertation, read only version C",TRUTHFUL,HONEST,Study2,F,133,169,Test,User,-,,Recall,Recall2,3460,lie,22.222222222222,2215,2701,0,0,,1
w10118462_nmm,794nk34xsk,Nick_Dissertation_EX1_EP,1,322,2021-10-11T10:03:52-07:00,6.0049571990967,3,versionC_stim.csv,READVersionC.csv,"Read Version C","Dissertation, read only version C",CHARM,VEHICLE,Study2,U,160,159,Test,User,-,,Recall,Recall2,5800,,0,-1,-1,0,0,,1
w10118462_nmm,794nk34xsk,Nick_Dissertation_EX1_EP,1,323,2021-10-11T10:03:53-07:00,1.3420569896698,3,versionC_stim.csv,READVersionC.csv,"Read Version C","Dissertation, read only version C",DRINK,WATER,Study2,S,143,125,Test,User,-,,Recall,Recall2,1128,,0,-1,-1,0,0,,1
w10118462_nmm,794nk34xsk,Nick_Dissertation_EX1_EP,1,324,2021-10-11T10:03:55-07:00,1.1771059036255,3,versionC_stim.csv,READVersionC.csv,"Read Version C","Dissertation, read only version C",SCAR,MAIN,Study2,U,175,107,Test,User,-,,Recall,Recall2,968,,0,-1,-1,0,0,,1
w10118462_nmm,794nk34xsk,Nick_Dissertation_EX1_EP,1,325,2021-10-11T10:03:56-07:00,1.1658480167389,3,versionC_stim.csv,READVersionC.csv,"Read Version C","Dissertation, read only version C",CHILDREN,MIRROR,Study2,U,174,126,Test,User,-,,Recall,Recall2,957,,0,-1,-1,0,0,,1
w10118462_nmm,794nk34xsk,Nick_Dissertation_EX1_EP,1,326,2021-10-11T10:04:01-07:00,5.5974109172821,3,versionC_stim.csv,READVersionC.csv,"Read Version C","Dissertation, read only version C",SMELL,INCENSE,Study2,B,110,98,Test,User,-,,Recall,Recall2,5378,stench,30.769230769231,1952,4842,0,0,,1
w10118462_nmm,794nk34xsk,Nick_Dissertation_EX1_EP,1,327,2021-10-11T10:04:16-07:00,14.248008966446,3,versionC_stim.csv,READVersionC.csv,"Read Version C","Dissertation, read only version C",MYSTERY,DETECTIVE,Study2,B,100,140,Test,User,-,,Recall,Recall2,14029,,0,-1,-1,0,0,,1
w10118462_nmm,794nk34xsk,Nick_Dissertation_EX1_EP,1,328,2021-10-11T10:04:20-07:00,4.3372349739075,3,versionC_stim.csv,READVersionC.csv,"Read Version C","Dissertation, read only version C",FLIP,TURN,Study2,F,116,115,Test,User,-,,Recall,Recall2,4128,,0,-1,-1,0,0,,1
w10118462_nmm,794nk34xsk,Nick_Dissertation_EX1_EP,1,329,2021-10-11T10:04:30-07:00,10.399630069733,3,versionC_stim.csv,READVersionC.csv,"Read Version C","Dissertation, read only version C",LOVE,AFFECTION,Study2,B,115,101,Test,User,-,,Recall,Recall2,10188,hate,30.769230769231,8797,10074,0,0,,1
w10118462_nmm,794nk34xsk,Nick_Dissertation_EX1_EP,1,330,2021-10-11T10:04:31-07:00,1.2047231197357,3,versionC_stim.csv,READVersionC.csv,"Read Version C","Dissertation, read only version C",CARBON,ELEMENT,Study2,S,141,149,Test,User,-,,Recall,Recall2,994,,0,-1,-1,0,0,,1
w10118462_nmm,794nk34xsk,Nick_Dissertation_EX1_EP,1,331,2021-10-11T10:04:33-07:00,1.3104958534241,3,versionC_stim.csv,READVersionC.csv,"Read Version C","Dissertation, read only version C",HEAD,SCALP,Study2,B,105,104,Test,User,-,,Recall,Recall2,1103,,0,-1,-1,0,0,,1
w10118462_nmm,794nk34xsk,Nick_Dissertation_EX1_EP,1,332,2021-10-11T10:04:34-07:00,1.2981820106506,3,versionC_stim.csv,READVersionC.csv,"Read Version C","Dissertation, read only version C",THIMBLE,THREAD,Study2,F,121,120,Test,User,-,,Recall,Recall2,1101,,0,-1,-1,0,0,,1
w10118462_nmm,794nk34xsk,Nick_Dissertation_EX1_EP,1,333,2021-10-11T10:04:35-07:00,1.0798401832581,3,versionC_stim.csv,READVersionC.csv,"Read Version C","Dissertation, read only version C",RED,CHERRY,Study2,B,104,167,Test,User,-,,Recall,Recall2,861,,0,-1,-1,0,0,,1
w10118462_nmm,794nk34xsk,Nick_Dissertation_EX1_EP,1,334,2021-10-11T10:04:37-07:00,1.6998059749603,3,versionC_stim.csv,READVersionC.csv,"Read Version C","Dissertation, read only version C",CLOTH,STRETCH,Study2,U,157,128,Test,User,-,,Recall,Recall2,1502,,0,-1,-1,0,0,,1
w10118462_nmm,794nk34xsk,Nick_Dissertation_EX1_EP,1,335,2021-10-11T10:04:38-07:00,1.3302128314972,3,versionC_stim.csv,READVersionC.csv,"Read Version C","Dissertation, read only version C",TIE,SHOELACE,Study2,B,99,158,Test,User,-,,Recall,Recall2,1123,,0,-1,-1,0,0,,1
w10118462_nmm,794nk34xsk,Nick_Dissertation_EX1_EP,1,336,2021-10-11T10:04:44-07:00,5.3212041854858,3,versionC_stim.csv,READVersionC.csv,"Read Version C","Dissertation, read only version C",HAVE,OWN,Study2,S,153,156,Test,User,-,,Recall,Recall2,5113,obtain,44.444444444444,2878,4903,0,0,,1
w10118462_nmm,794nk34xsk,Nick_Dissertation_EX1_EP,1,337,2021-10-11T10:04:46-07:00,1.9941248893738,3,versionC_stim.csv,READVersionC.csv,"Read Version C","Dissertation, read only version C",PANTHER,CAT,Study2,F,126,143,Test,User,-,,Recall,Recall2,1782,,0,-1,-1,0,0,,1
w10118462_nmm,794nk34xsk,Nick_Dissertation_EX1_EP,1,338,2021-10-11T10:04:47-07:00,1.6211841106415,3,versionC_stim.csv,READVersionC.csv,"Read Version C","Dissertation, read only version C",STEAK,GIVE,Study2,U,158,172,Test,User,-,,Recall,Recall2,1408,,0,-1,-1,0,0,,1
w10118462_nmm,794nk34xsk,Nick_Dissertation_EX1_EP,1,339,2021-10-11T10:05:02-07:00,15.214952945709,3,versionC_stim.csv,READVersionC.csv,"Read Version C","Dissertation, read only version C",WET,DRY,Study2,S,146,175,Test,User,-,,Recall,Recall2,15008,dry,100,14361,14767,1,1,,1
w10118462_nmm,794nk34xsk,Nick_Dissertation_EX1_EP,1,340,2021-10-11T10:05:05-07:00,2.5448758602142,3,versionC_stim.csv,READVersionC.csv,"Read Version C","Dissertation, read only version C",VILLAIN,BAD,Study2,F,118,164,Test,User,-,,Recall,Recall2,2334,bad,100,1851,2206,1,1,,1
w10118462_nmm,794nk34xsk,Nick_Dissertation_EX1_EP,1,341,2021-10-11T10:05:08-07:00,3.2141599655151,3,versionC_stim.csv,READVersionC.csv,"Read Version C","Dissertation, read only version C",REVENGE,EVEN,Study2,F,122,150,Test,User,-,,Recall,Recall2,3003,even,100,2314,2718,1,1,,1
w10118462_nmm,794nk34xsk,Nick_Dissertation_EX1_EP,1,342,2021-10-11T10:05:09-07:00,1.3598470687866,3,versionC_stim.csv,READVersionC.csv,"Read Version C","Dissertation, read only version C",MAROON,JUSTICE,Study2,U,156,123,Test,User,-,,Recall,Recall2,1152,,0,-1,-1,0,0,,1
w10118462_nmm,794nk34xsk,Nick_Dissertation_EX1_EP,1,343,2021-10-11T10:05:13-07:00,3.0398640632629,3,versionC_stim.csv,READVersionC.csv,"Read Version C","Dissertation, read only version C",DOG,FURRY,Study2,B,102,139,Test,User,-,,Recall,Recall2,2830,bark,22.222222222222,2003,2544,0,0,,1
w10118462_nmm,794nk34xsk,Nick_Dissertation_EX1_EP,1,344,2021-10-11T10:05:18-07:00,5.6740229129791,3,versionC_stim.csv,READVersionC.csv,"Read Version C","Dissertation, read only version C",END,ADJOURN,Study2,B,101,118,Test,User,-,,Recall,Recall2,5461,begin,16.666666666667,4048,5258,0,0,,1
w10118462_nmm,794nk34xsk,Nick_Dissertation_EX1_EP,1,345,2021-10-11T10:05:21-07:00,2.9979619979858,3,versionC_stim.csv,READVersionC.csv,"Read Version C","Dissertation, read only version C",JAR,MASON,Study2,S,138,113,Test,User,-,,Recall,Recall2,2791,mason,100,1860,2515,1,1,,1
w10118462_nmm,794nk34xsk,Nick_Dissertation_EX1_EP,1,346,2021-10-11T10:05:22-07:00,1.2336130142212,3,versionC_stim.csv,READVersionC.csv,"Read Version C","Dissertation, read only version C",EQUAL,RIGHTS,Study2,S,137,116,Test,User,-,,Recall,Recall2,1028,,0,-1,-1,0,0,,1
w10118462_nmm,794nk34xsk,Nick_Dissertation_EX1_EP,1,347,2021-10-11T10:05:26-07:00,4.0469751358032,3,versionC_stim.csv,READVersionC.csv,"Read Version C","Dissertation, read only version C",SCISSORS,SHEARS,Study2,B,112,97,Test,User,-,,Recall,Recall2,3833,cut,0,1288,3637,0,0,,1
w10118462_nmm,794nk34xsk,Nick_Dissertation_EX1_EP,1,348,2021-10-11T10:05:28-07:00,1.0789389610291,3,versionC_stim.csv,READVersionC.csv,"Read Version C","Dissertation, read only version C",TAN,SUN,Study2,S,155,138,Test,User,-,,Recall,Recall2,871,,0,-1,-1,0,0,,1
w10118462_nmm,794nk34xsk,Nick_Dissertation_EX1_EP,1,349,2021-10-11T10:05:31-07:00,3.429239988327,3,versionC_stim.csv,READVersionC.csv,"Read Version C","Dissertation, read only version C",LIE,TRUTH,Study2,S,148,155,Test,User,-,,Recall,Recall2,3212,truth,100,2167,3060,1,1,,1
w10118462_nmm,794nk34xsk,Nick_Dissertation_EX1_EP,1,350,2021-10-11T10:05:34-07:00,2.9434590339661,3,versionC_stim.csv,READVersionC.csv,"Read Version C","Dissertation, read only version C",COLD,CHILL,Study2,B,114,112,Test,User,-,,Recall,Recall2,2713,warm,0,1873,2494,0,0,,1
w10118462_nmm,794nk34xsk,Nick_Dissertation_EX1_EP,1,351,2021-10-11T10:05:37-07:00,2.9070558547974,3,versionC_stim.csv,READVersionC.csv,"Read Version C","Dissertation, read only version C",SIGN,LOAN,Study2,U,171,135,Test,User,-,,Recall,Recall2,2697,,0,-1,-1,0,0,,1
w10118462_nmm,794nk34xsk,Nick_Dissertation_EX1_EP,1,352,2021-10-11T10:05:38-07:00,1.4704730510712,3,versionC_stim.csv,READVersionC.csv,"Read Version C","Dissertation, read only version C",,,,,,0,Instruct,User,-,"You have completed this section. Please press Enter.",,Instruct7,1264,,,-1,-1,,,,1
w10118462_nmm,794nk34xsk,Nick_Dissertation_EX1_EP,1,353,2021-10-11T10:05:40-07:00,2.1572859287262,3,versionC_stim.csv,READVersionC.csv,"Read Version C","Dissertation, read only version C",,,,,,0,Instruct,User,-,"The following screen will ask you a few questions abour your experience today. You must complete these questions to receive credit.",,Instruct8,1956,,,-1,-1,,,,1
