Username,ID,ExperimentName,Session,Trial,Date,TimeDif,"Condition Number","Stimuli File","Order File","Condition Description","Condition Notes",Stimuli*Cue,Stimuli*Answer,Stimuli*Shuffle,"Stimuli*Stimuli Notes",Stimuli*Value,Procedure*Item,"Procedure*Trial Type","Procedure*Max Time","Procedure*Min Time",Procedure*Text,"Procedure*Procedure Notes",Procedure*Shuffle,Response*RT,Response*Response,Response*Accuracy,Response*RTfirst,Response*RTlast,Response*strictAcc,Response*lenientAcc,Response*focus,Response*Focus
10069903KF,cgrlr1udk7,Nick_Dissertation_EX1_EP,1,1,2021-11-17T18:56:00+00:00,6.7860300540924,4,versionC_stim.csv,READVersionD.csv,"Read Version D","Dissertation, read only version D",,,,,,0,Instruct,-,5,"In this section, you will be presented with a series of word pairs.",Initial_Instruct,Instruct1,5993,,,-1,-1,,,,1
10069903KF,cgrlr1udk7,Nick_Dissertation_EX1_EP,1,2,2021-11-17T18:56:15+00:00,15.369560956955,4,versionC_stim.csv,READVersionD.csv,"Read Version D","Dissertation, read only version D",,,,,,0,Instruct,-,10,"Each word will be displayed on the computer screen for 8 seconds. The screen will automatically move to the next pair when time is up. Please study each pair. Your memory will be tested!",,Instruct15,13710,,,-1,-1,,,,1
10069903KF,cgrlr1udk7,Nick_Dissertation_EX1_EP,1,3,2021-11-17T18:56:20+00:00,4.1666450500488,4,versionC_stim.csv,READVersionD.csv,"Read Version D","Dissertation, read only version D",,,,,,0,Instruct,User,-,"You will now begin the study. Press Enter when you are ready to begin.",,Instruct16,2540,,,-1,-1,,,,1
10069903KF,cgrlr1udk7,Nick_Dissertation_EX1_EP,1,4,2021-11-17T18:56:29+00:00,9.6754660606384,4,versionC_stim.csv,READVersionD.csv,"Read Version D","Dissertation, read only version D",STRING,NOODLE,BUFFER3,Buffer,92,96,Study,8,8,,Study/JOL,BUFFER,8005,,,-1,-1,,,,1
10069903KF,cgrlr1udk7,Nick_Dissertation_EX1_EP,1,5,2021-11-17T18:56:39+00:00,9.7092089653015,4,versionC_stim.csv,READVersionD.csv,"Read Version D","Dissertation, read only version D",POTATO,CARROT,BUFFER3,Buffer,91,94,Study,8,8,,Study/JOL,BUFFER,8000,,,-1,-1,,,,1
10069903KF,cgrlr1udk7,Nick_Dissertation_EX1_EP,1,6,2021-11-17T18:56:49+00:00,9.6329228878021,4,versionC_stim.csv,READVersionD.csv,"Read Version D","Dissertation, read only version D",FROZEN,ICE,BUFFER3,Buffer,94,95,Study,8,8,,Study/JOL,BUFFER,8001,,,-1,-1,,,,1
10069903KF,cgrlr1udk7,Nick_Dissertation_EX1_EP,1,7,2021-11-17T18:56:58+00:00,9.6354701519012,4,versionC_stim.csv,READVersionD.csv,"Read Version D","Dissertation, read only version D",FISH,SHRIMP,BUFFER3,Buffer,93,92,Study,8,8,,Study/JOL,BUFFER,8001,,,-1,-1,,,,1
10069903KF,cgrlr1udk7,Nick_Dissertation_EX1_EP,1,8,2021-11-17T18:57:09+00:00,10.346577882767,4,versionC_stim.csv,READVersionD.csv,"Read Version D","Dissertation, read only version D",ADVENTURE,CAMP,BUFFER3,Buffer,95,93,Study,8,8,,Study/JOL,BUFFER,8001,,,-1,-1,,,,1
10069903KF,cgrlr1udk7,Nick_Dissertation_EX1_EP,1,9,2021-11-17T18:57:18+00:00,9.5828120708466,4,versionC_stim.csv,READVersionD.csv,"Read Version D","Dissertation, read only version D",BRAWL,FIGHT,Study2,F,135,176,Study,8,8,,Study/JOL,"Study Phase",8002,,,-1,-1,,,,1
10069903KF,cgrlr1udk7,Nick_Dissertation_EX1_EP,1,10,2021-11-17T18:57:28+00:00,9.7228448390961,4,versionC_stim.csv,READVersionD.csv,"Read Version D","Dissertation, read only version D",EAT,DINE,Study2,B,111,124,Study,8,8,,Study/JOL,"Study Phase",8002,,,-1,-1,,,,1
10069903KF,cgrlr1udk7,Nick_Dissertation_EX1_EP,1,11,2021-11-17T18:57:37+00:00,9.4911801815033,4,versionC_stim.csv,READVersionD.csv,"Read Version D","Dissertation, read only version D",LOVE,AFFECTION,Study2,B,115,143,Study,8,8,,Study/JOL,"Study Phase",8000,,,-1,-1,,,,1
10069903KF,cgrlr1udk7,Nick_Dissertation_EX1_EP,1,12,2021-11-17T18:57:47+00:00,9.6302978992462,4,versionC_stim.csv,READVersionD.csv,"Read Version D","Dissertation, read only version D",PLANT,CACTUS,Study2,B,98,172,Study,8,8,,Study/JOL,"Study Phase",8005,,,-1,-1,,,,1
10069903KF,cgrlr1udk7,Nick_Dissertation_EX1_EP,1,13,2021-11-17T18:57:56+00:00,9.5537269115448,4,versionC_stim.csv,READVersionD.csv,"Read Version D","Dissertation, read only version D",FLIP,TURN,Study2,F,116,126,Study,8,8,,Study/JOL,"Study Phase",8001,,,-1,-1,,,,1
10069903KF,cgrlr1udk7,Nick_Dissertation_EX1_EP,1,14,2021-11-17T18:58:06+00:00,9.4829611778259,4,versionC_stim.csv,READVersionD.csv,"Read Version D","Dissertation, read only version D",TRUTHFUL,HONEST,Study2,F,133,134,Study,8,8,,Study/JOL,"Study Phase",8001,,,-1,-1,,,,1
10069903KF,cgrlr1udk7,Nick_Dissertation_EX1_EP,1,15,2021-11-17T18:58:16+00:00,9.6285529136658,4,versionC_stim.csv,READVersionD.csv,"Read Version D","Dissertation, read only version D",STEAK,GIVE,Study2,U,158,122,Study,8,8,,Study/JOL,"Study Phase",8002,,,-1,-1,,,,1
10069903KF,cgrlr1udk7,Nick_Dissertation_EX1_EP,1,16,2021-11-17T18:58:25+00:00,9.7210350036621,4,versionC_stim.csv,READVersionD.csv,"Read Version D","Dissertation, read only version D",Morning,TEMPERATURE,Study2,U,173,141,Study,8,8,,Study/JOL,"Study Phase",8003,,,-1,-1,,,,1
10069903KF,cgrlr1udk7,Nick_Dissertation_EX1_EP,1,17,2021-11-17T18:58:35+00:00,9.5393590927124,4,versionC_stim.csv,READVersionD.csv,"Read Version D","Dissertation, read only version D",BREAKABLE,GLASS,Study2,F,127,109,Study,8,8,,Study/JOL,"Study Phase",8002,,,-1,-1,,,,1
10069903KF,cgrlr1udk7,Nick_Dissertation_EX1_EP,1,18,2021-11-17T18:58:45+00:00,9.810714006424,4,versionC_stim.csv,READVersionD.csv,"Read Version D","Dissertation, read only version D",REEL,ROD,Study2,S,150,150,Study,8,8,,Study/JOL,"Study Phase",8002,,,-1,-1,,,,1
10069903KF,cgrlr1udk7,Nick_Dissertation_EX1_EP,1,19,2021-11-17T18:58:54+00:00,9.5415108203888,4,versionC_stim.csv,READVersionD.csv,"Read Version D","Dissertation, read only version D",JOKE,KEYS,Study2,U,165,115,Study,8,8,,Study/JOL,"Study Phase",8001,,,-1,-1,,,,1
10069903KF,cgrlr1udk7,Nick_Dissertation_EX1_EP,1,20,2021-11-17T18:59:04+00:00,9.7193620204926,4,versionC_stim.csv,READVersionD.csv,"Read Version D","Dissertation, read only version D",ACTRESS,STAR,Study2,F,120,119,Study,8,8,,Study/JOL,"Study Phase",8002,,,-1,-1,,,,1
10069903KF,cgrlr1udk7,Nick_Dissertation_EX1_EP,1,21,2021-11-17T18:59:14+00:00,9.5748550891876,4,versionC_stim.csv,READVersionD.csv,"Read Version D","Dissertation, read only version D",HAVE,OWN,Study2,S,153,166,Study,8,8,,Study/JOL,"Study Phase",8002,,,-1,-1,,,,1
10069903KF,cgrlr1udk7,Nick_Dissertation_EX1_EP,1,22,2021-11-17T18:59:23+00:00,9.6412620544434,4,versionC_stim.csv,READVersionD.csv,"Read Version D","Dissertation, read only version D",SHAVE,RAZOR,Study2,S,136,151,Study,8,8,,Study/JOL,"Study Phase",8002,,,-1,-1,,,,1
10069903KF,cgrlr1udk7,Nick_Dissertation_EX1_EP,1,23,2021-11-17T18:59:33+00:00,9.6344368457794,4,versionC_stim.csv,READVersionD.csv,"Read Version D","Dissertation, read only version D",GROUND,EARTH,Study2,S,144,104,Study,8,8,,Study/JOL,"Study Phase",8002,,,-1,-1,,,,1
10069903KF,cgrlr1udk7,Nick_Dissertation_EX1_EP,1,24,2021-11-17T18:59:43+00:00,9.8052179813385,4,versionC_stim.csv,READVersionD.csv,"Read Version D","Dissertation, read only version D",WAX,CANDLE,Study2,S,139,167,Study,8,8,,Study/JOL,"Study Phase",8003,,,-1,-1,,,,1
10069903KF,cgrlr1udk7,Nick_Dissertation_EX1_EP,1,25,2021-11-17T18:59:52+00:00,9.5414102077484,4,versionC_stim.csv,READVersionD.csv,"Read Version D","Dissertation, read only version D",BRACELET,WRIST,Study2,S,140,132,Study,8,8,,Study/JOL,"Study Phase",8002,,,-1,-1,,,,1
10069903KF,cgrlr1udk7,Nick_Dissertation_EX1_EP,1,26,2021-11-17T19:00:02+00:00,9.6846919059753,4,versionC_stim.csv,READVersionD.csv,"Read Version D","Dissertation, read only version D",FIGHT,FEUD,Study2,B,113,116,Study,8,8,,Study/JOL,"Study Phase",8001,,,-1,-1,,,,1
10069903KF,cgrlr1udk7,Nick_Dissertation_EX1_EP,1,27,2021-11-17T19:00:12+00:00,9.7174639701843,4,versionC_stim.csv,READVersionD.csv,"Read Version D","Dissertation, read only version D",COFFIN,DEAD,Study2,F,128,145,Study,8,8,,Study/JOL,"Study Phase",8002,,,-1,-1,,,,1
10069903KF,cgrlr1udk7,Nick_Dissertation_EX1_EP,1,28,2021-11-17T19:00:21+00:00,9.5808191299438,4,versionC_stim.csv,READVersionD.csv,"Read Version D","Dissertation, read only version D",LEAGUE,BASEBALL,Study2,F,131,112,Study,8,8,,Study/JOL,"Study Phase",8001,,,-1,-1,,,,1
10069903KF,cgrlr1udk7,Nick_Dissertation_EX1_EP,1,29,2021-11-17T19:00:31+00:00,9.6706459522247,4,versionC_stim.csv,READVersionD.csv,"Read Version D","Dissertation, read only version D",THIMBLE,THREAD,Study2,F,121,173,Study,8,8,,Study/JOL,"Study Phase",8001,,,-1,-1,,,,1
10069903KF,cgrlr1udk7,Nick_Dissertation_EX1_EP,1,30,2021-11-17T19:00:40+00:00,9.6031918525696,4,versionC_stim.csv,READVersionD.csv,"Read Version D","Dissertation, read only version D",TIE,SHOELACE,Study2,B,99,139,Study,8,8,,Study/JOL,"Study Phase",8001,,,-1,-1,,,,1
10069903KF,cgrlr1udk7,Nick_Dissertation_EX1_EP,1,31,2021-11-17T19:00:50+00:00,9.6099669933319,4,versionC_stim.csv,READVersionD.csv,"Read Version D","Dissertation, read only version D",WINDSHIELD,CAR,Study2,F,117,142,Study,8,8,,Study/JOL,"Study Phase",8001,,,-1,-1,,,,1
10069903KF,cgrlr1udk7,Nick_Dissertation_EX1_EP,1,32,2021-11-17T19:01:00+00:00,9.5455541610718,4,versionC_stim.csv,READVersionD.csv,"Read Version D","Dissertation, read only version D",COMMUNICATION,PHONE,Study2,S,149,156,Study,8,8,,Study/JOL,"Study Phase",8001,,,-1,-1,,,,1
10069903KF,cgrlr1udk7,Nick_Dissertation_EX1_EP,1,33,2021-11-17T19:01:09+00:00,9.5413708686829,4,versionC_stim.csv,READVersionD.csv,"Read Version D","Dissertation, read only version D",COLD,CHILL,Study2,B,114,103,Study,8,8,,Study/JOL,"Study Phase",8001,,,-1,-1,,,,1
10069903KF,cgrlr1udk7,Nick_Dissertation_EX1_EP,1,34,2021-11-17T19:01:19+00:00,9.7153661251068,4,versionC_stim.csv,READVersionD.csv,"Read Version D","Dissertation, read only version D",SMELL,INCENSE,Study2,B,110,154,Study,8,8,,Study/JOL,"Study Phase",8001,,,-1,-1,,,,1
10069903KF,cgrlr1udk7,Nick_Dissertation_EX1_EP,1,35,2021-11-17T19:01:28+00:00,9.692862033844,4,versionC_stim.csv,READVersionD.csv,"Read Version D","Dissertation, read only version D",BALLOON,POP,Study2,F,123,133,Study,8,8,,Study/JOL,"Study Phase",8001,,,-1,-1,,,,1
10069903KF,cgrlr1udk7,Nick_Dissertation_EX1_EP,1,36,2021-11-17T19:01:38+00:00,9.5215389728546,4,versionC_stim.csv,READVersionD.csv,"Read Version D","Dissertation, read only version D",TOIL,LEASE,Study2,U,170,110,Study,8,8,,Study/JOL,"Study Phase",8002,,,-1,-1,,,,1
10069903KF,cgrlr1udk7,Nick_Dissertation_EX1_EP,1,37,2021-11-17T19:01:48+00:00,9.5430469512939,4,versionC_stim.csv,READVersionD.csv,"Read Version D","Dissertation, read only version D",OUNCE,BOTH,Study2,U,172,174,Study,8,8,,Study/JOL,"Study Phase",8001,,,-1,-1,,,,1
10069903KF,cgrlr1udk7,Nick_Dissertation_EX1_EP,1,38,2021-11-17T19:01:57+00:00,9.7170550823212,4,versionC_stim.csv,READVersionD.csv,"Read Version D","Dissertation, read only version D",TEMPER,TANTRUM,Study2,S,154,152,Study,8,8,,Study/JOL,"Study Phase",8001,,,-1,-1,,,,1
10069903KF,cgrlr1udk7,Nick_Dissertation_EX1_EP,1,39,2021-11-17T19:02:07+00:00,9.7210109233856,4,versionC_stim.csv,READVersionD.csv,"Read Version D","Dissertation, read only version D",REVENGE,EVEN,Study2,F,122,108,Study,8,8,,Study/JOL,"Study Phase",8002,,,-1,-1,,,,1
10069903KF,cgrlr1udk7,Nick_Dissertation_EX1_EP,1,40,2021-11-17T19:02:17+00:00,9.5395998954773,4,versionC_stim.csv,READVersionD.csv,"Read Version D","Dissertation, read only version D",DONKEY,MULE,Study2,B,108,149,Study,8,8,,Study/JOL,"Study Phase",8002,,,-1,-1,,,,1
10069903KF,cgrlr1udk7,Nick_Dissertation_EX1_EP,1,41,2021-11-17T19:02:26+00:00,9.6441149711609,4,versionC_stim.csv,READVersionD.csv,"Read Version D","Dissertation, read only version D",ABLE,CRACKLE,Study2,U,162,106,Study,8,8,,Study/JOL,"Study Phase",8002,,,-1,-1,,,,1
10069903KF,cgrlr1udk7,Nick_Dissertation_EX1_EP,1,42,2021-11-17T19:02:36+00:00,9.6602590084076,4,versionC_stim.csv,READVersionD.csv,"Read Version D","Dissertation, read only version D",AWAY,GONE,Study2,S,142,121,Study,8,8,,Study/JOL,"Study Phase",8002,,,-1,-1,,,,1
10069903KF,cgrlr1udk7,Nick_Dissertation_EX1_EP,1,43,2021-11-17T19:02:45+00:00,9.535206079483,4,versionC_stim.csv,READVersionD.csv,"Read Version D","Dissertation, read only version D",NOISE,LOUD,Study2,S,152,120,Study,8,8,,Study/JOL,"Study Phase",8000,,,-1,-1,,,,1
10069903KF,cgrlr1udk7,Nick_Dissertation_EX1_EP,1,44,2021-11-17T19:02:55+00:00,9.4983880519867,4,versionC_stim.csv,READVersionD.csv,"Read Version D","Dissertation, read only version D",SARDINE,FISH,Study2,F,130,153,Study,8,8,,Study/JOL,"Study Phase",8001,,,-1,-1,,,,1
10069903KF,cgrlr1udk7,Nick_Dissertation_EX1_EP,1,45,2021-11-17T19:03:05+00:00,9.6361708641052,4,versionC_stim.csv,READVersionD.csv,"Read Version D","Dissertation, read only version D",LONELY,ALONE,Study2,S,145,138,Study,8,8,,Study/JOL,"Study Phase",8001,,,-1,-1,,,,1
10069903KF,cgrlr1udk7,Nick_Dissertation_EX1_EP,1,46,2021-11-17T19:03:14+00:00,9.62544298172,4,versionC_stim.csv,READVersionD.csv,"Read Version D","Dissertation, read only version D",DOG,FURRY,Study2,B,102,114,Study,8,8,,Study/JOL,"Study Phase",8001,,,-1,-1,,,,1
10069903KF,cgrlr1udk7,Nick_Dissertation_EX1_EP,1,47,2021-11-17T19:03:24+00:00,9.7182550430298,4,versionC_stim.csv,READVersionD.csv,"Read Version D","Dissertation, read only version D",EQUAL,RIGHTS,Study2,S,137,147,Study,8,8,,Study/JOL,"Study Phase",8003,,,-1,-1,,,,1
10069903KF,cgrlr1udk7,Nick_Dissertation_EX1_EP,1,48,2021-11-17T19:03:33+00:00,9.5378730297089,4,versionC_stim.csv,READVersionD.csv,"Read Version D","Dissertation, read only version D",BANKER,MONEY,Study2,F,132,137,Study,8,8,,Study/JOL,"Study Phase",8003,,,-1,-1,,,,1
10069903KF,cgrlr1udk7,Nick_Dissertation_EX1_EP,1,49,2021-11-17T19:03:44+00:00,10.172559022903,4,versionC_stim.csv,READVersionD.csv,"Read Version D","Dissertation, read only version D",CHILDREN,MIRROR,Study2,U,174,131,Study,8,8,,Study/JOL,"Study Phase",8001,,,-1,-1,,,,1
10069903KF,cgrlr1udk7,Nick_Dissertation_EX1_EP,1,50,2021-11-17T19:03:53+00:00,9.6338629722595,4,versionC_stim.csv,READVersionD.csv,"Read Version D","Dissertation, read only version D",TAN,SUN,Study2,S,155,102,Study,8,8,,Study/JOL,"Study Phase",8001,,,-1,-1,,,,1
10069903KF,cgrlr1udk7,Nick_Dissertation_EX1_EP,1,51,2021-11-17T19:04:03+00:00,9.6142530441284,4,versionC_stim.csv,READVersionD.csv,"Read Version D","Dissertation, read only version D",CLOTH,STRETCH,Study2,U,157,170,Study,8,8,,Study/JOL,"Study Phase",8002,,,-1,-1,,,,1
10069903KF,cgrlr1udk7,Nick_Dissertation_EX1_EP,1,52,2021-11-17T19:04:13+00:00,9.6923820972443,4,versionC_stim.csv,READVersionD.csv,"Read Version D","Dissertation, read only version D",CLEAR,MOAT,Study2,U,169,161,Study,8,8,,Study/JOL,"Study Phase",8001,,,-1,-1,,,,1
10069903KF,cgrlr1udk7,Nick_Dissertation_EX1_EP,1,53,2021-11-17T19:04:22+00:00,9.6728370189667,4,versionC_stim.csv,READVersionD.csv,"Read Version D","Dissertation, read only version D",HEAD,SCALP,Study2,B,105,101,Study,8,8,,Study/JOL,"Study Phase",8002,,,-1,-1,,,,1
10069903KF,cgrlr1udk7,Nick_Dissertation_EX1_EP,1,54,2021-11-17T19:04:32+00:00,9.723207950592,4,versionC_stim.csv,READVersionD.csv,"Read Version D","Dissertation, read only version D",OBTAIN,MEAT,Study2,U,161,113,Study,8,8,,Study/JOL,"Study Phase",8003,,,-1,-1,,,,1
10069903KF,cgrlr1udk7,Nick_Dissertation_EX1_EP,1,55,2021-11-17T19:04:42+00:00,9.7128510475159,4,versionC_stim.csv,READVersionD.csv,"Read Version D","Dissertation, read only version D",GAME,CLUE,Study2,B,97,98,Study,8,8,,Study/JOL,"Study Phase",8002,,,-1,-1,,,,1
10069903KF,cgrlr1udk7,Nick_Dissertation_EX1_EP,1,56,2021-11-17T19:04:51+00:00,9.5397379398346,4,versionC_stim.csv,READVersionD.csv,"Read Version D","Dissertation, read only version D",MYSTERY,DETECTIVE,Study2,B,100,162,Study,8,8,,Study/JOL,"Study Phase",8001,,,-1,-1,,,,1
10069903KF,cgrlr1udk7,Nick_Dissertation_EX1_EP,1,57,2021-11-17T19:05:01+00:00,9.5425899028778,4,versionC_stim.csv,READVersionD.csv,"Read Version D","Dissertation, read only version D",RED,CHERRY,Study2,B,104,165,Study,8,8,,Study/JOL,"Study Phase",8003,,,-1,-1,,,,1
10069903KF,cgrlr1udk7,Nick_Dissertation_EX1_EP,1,58,2021-11-17T19:05:10+00:00,9.5840830802917,4,versionC_stim.csv,READVersionD.csv,"Read Version D","Dissertation, read only version D",TICK,FLEA,Study2,S,151,125,Study,8,8,,Study/JOL,"Study Phase",8003,,,-1,-1,,,,1
10069903KF,cgrlr1udk7,Nick_Dissertation_EX1_EP,1,59,2021-11-17T19:05:20+00:00,9.72052693367,4,versionC_stim.csv,READVersionD.csv,"Read Version D","Dissertation, read only version D",PAPER,DOCUMENT,Study2,B,109,136,Study,8,8,,Study/JOL,"Study Phase",8002,,,-1,-1,,,,1
10069903KF,cgrlr1udk7,Nick_Dissertation_EX1_EP,1,60,2021-11-17T19:05:30+00:00,9.5867531299591,4,versionC_stim.csv,READVersionD.csv,"Read Version D","Dissertation, read only version D",STRAWBERRY,FRUIT,Study2,F,124,163,Study,8,8,,Study/JOL,"Study Phase",8002,,,-1,-1,,,,1
10069903KF,cgrlr1udk7,Nick_Dissertation_EX1_EP,1,61,2021-11-17T19:05:39+00:00,9.6287178993225,4,versionC_stim.csv,READVersionD.csv,"Read Version D","Dissertation, read only version D",SHAKE,Shell,Study2,U,163,123,Study,8,8,,Study/JOL,"Study Phase",8001,,,-1,-1,,,,1
10069903KF,cgrlr1udk7,Nick_Dissertation_EX1_EP,1,62,2021-11-17T19:05:49+00:00,9.5378019809723,4,versionC_stim.csv,READVersionD.csv,"Read Version D","Dissertation, read only version D",BANG,FUZZY,Study2,U,168,99,Study,8,8,,Study/JOL,"Study Phase",8003,,,-1,-1,,,,1
10069903KF,cgrlr1udk7,Nick_Dissertation_EX1_EP,1,63,2021-11-17T19:05:58+00:00,9.6970150470734,4,versionC_stim.csv,READVersionD.csv,"Read Version D","Dissertation, read only version D",ELECTION,MAZE,Study2,U,159,128,Study,8,8,,Study/JOL,"Study Phase",8001,,,-1,-1,,,,1
10069903KF,cgrlr1udk7,Nick_Dissertation_EX1_EP,1,64,2021-11-17T19:06:08+00:00,9.6071970462799,4,versionC_stim.csv,READVersionD.csv,"Read Version D","Dissertation, read only version D",END,ADJOURN,Study2,B,101,159,Study,8,8,,Study/JOL,"Study Phase",8001,,,-1,-1,,,,1
10069903KF,cgrlr1udk7,Nick_Dissertation_EX1_EP,1,65,2021-11-17T19:06:18+00:00,9.7632420063019,4,versionC_stim.csv,READVersionD.csv,"Read Version D","Dissertation, read only version D",PENGUIN,BIRD,Study2,F,119,117,Study,8,8,,Study/JOL,"Study Phase",8001,,,-1,-1,,,,1
10069903KF,cgrlr1udk7,Nick_Dissertation_EX1_EP,1,66,2021-11-17T19:06:27+00:00,9.6365728378296,4,versionC_stim.csv,READVersionD.csv,"Read Version D","Dissertation, read only version D",AIRCRAFT,PLANE,Study2,F,129,107,Study,8,8,,Study/JOL,"Study Phase",8003,,,-1,-1,,,,1
10069903KF,cgrlr1udk7,Nick_Dissertation_EX1_EP,1,67,2021-11-17T19:06:37+00:00,9.5383269786835,4,versionC_stim.csv,READVersionD.csv,"Read Version D","Dissertation, read only version D",LONG,EXTENSION,Study2,B,96,130,Study,8,8,,Study/JOL,"Study Phase",8001,,,-1,-1,,,,1
10069903KF,cgrlr1udk7,Nick_Dissertation_EX1_EP,1,68,2021-11-17T19:06:47+00:00,9.8684132099152,4,versionC_stim.csv,READVersionD.csv,"Read Version D","Dissertation, read only version D",HATE,NAME,Study2,U,167,169,Study,8,8,,Study/JOL,"Study Phase",8001,,,-1,-1,,,,1
10069903KF,cgrlr1udk7,Nick_Dissertation_EX1_EP,1,69,2021-11-17T19:06:56+00:00,9.6163330078125,4,versionC_stim.csv,READVersionD.csv,"Read Version D","Dissertation, read only version D",NAP,SLEEP,Study2,F,134,129,Study,8,8,,Study/JOL,"Study Phase",8001,,,-1,-1,,,,1
10069903KF,cgrlr1udk7,Nick_Dissertation_EX1_EP,1,70,2021-11-17T19:07:06+00:00,9.6256349086761,4,versionC_stim.csv,READVersionD.csv,"Read Version D","Dissertation, read only version D",PANTHER,CAT,Study2,F,126,127,Study,8,8,,Study/JOL,"Study Phase",8001,,,-1,-1,,,,1
10069903KF,cgrlr1udk7,Nick_Dissertation_EX1_EP,1,71,2021-11-17T19:07:16+00:00,9.6328239440918,4,versionC_stim.csv,READVersionD.csv,"Read Version D","Dissertation, read only version D",JAR,MASON,Study2,S,138,111,Study,8,8,,Study/JOL,"Study Phase",8003,,,-1,-1,,,,1
10069903KF,cgrlr1udk7,Nick_Dissertation_EX1_EP,1,72,2021-11-17T19:07:25+00:00,9.694589138031,4,versionC_stim.csv,READVersionD.csv,"Read Version D","Dissertation, read only version D",SCISSORS,SHEARS,Study2,B,112,171,Study,8,8,,Study/JOL,"Study Phase",8002,,,-1,-1,,,,1
10069903KF,cgrlr1udk7,Nick_Dissertation_EX1_EP,1,73,2021-11-17T19:07:35+00:00,9.6492159366608,4,versionC_stim.csv,READVersionD.csv,"Read Version D","Dissertation, read only version D",MAROON,JUSTICE,Study2,U,156,164,Study,8,8,,Study/JOL,"Study Phase",8001,,,-1,-1,,,,1
10069903KF,cgrlr1udk7,Nick_Dissertation_EX1_EP,1,74,2021-11-17T19:07:45+00:00,9.7165079116821,4,versionC_stim.csv,READVersionD.csv,"Read Version D","Dissertation, read only version D",TRASH,LITTER,Study2,B,103,140,Study,8,8,,Study/JOL,"Study Phase",8001,,,-1,-1,,,,1
10069903KF,cgrlr1udk7,Nick_Dissertation_EX1_EP,1,75,2021-11-17T19:07:54+00:00,9.6836731433868,4,versionC_stim.csv,READVersionD.csv,"Read Version D","Dissertation, read only version D",CLOTHES,CAKE,Study2,U,166,144,Study,8,8,,Study/JOL,"Study Phase",8001,,,-1,-1,,,,1
10069903KF,cgrlr1udk7,Nick_Dissertation_EX1_EP,1,76,2021-11-17T19:08:04+00:00,9.5438628196716,4,versionC_stim.csv,READVersionD.csv,"Read Version D","Dissertation, read only version D",FAVORITE,BEST,Study2,F,125,175,Study,8,8,,Study/JOL,"Study Phase",8001,,,-1,-1,,,,1
10069903KF,cgrlr1udk7,Nick_Dissertation_EX1_EP,1,77,2021-11-17T19:08:18+00:00,13.687699079514,4,versionC_stim.csv,READVersionD.csv,"Read Version D","Dissertation, read only version D",WET,DRY,Study2,S,146,158,Study,8,8,,Study/JOL,"Study Phase",8006,,,-1,-1,,,,1
10069903KF,cgrlr1udk7,Nick_Dissertation_EX1_EP,1,78,2021-11-17T19:08:27+00:00,9.6648681163788,4,versionC_stim.csv,READVersionD.csv,"Read Version D","Dissertation, read only version D",SEATBELT,SAFETY,Study2,S,147,105,Study,8,8,,Study/JOL,"Study Phase",8002,,,-1,-1,,,,1
10069903KF,cgrlr1udk7,Nick_Dissertation_EX1_EP,1,79,2021-11-17T19:08:37+00:00,9.6298999786377,4,versionC_stim.csv,READVersionD.csv,"Read Version D","Dissertation, read only version D",LIE,TRUTH,Study2,S,148,100,Study,8,8,,Study/JOL,"Study Phase",8001,,,-1,-1,,,,1
10069903KF,cgrlr1udk7,Nick_Dissertation_EX1_EP,1,80,2021-11-17T19:08:47+00:00,9.5858399868011,4,versionC_stim.csv,READVersionD.csv,"Read Version D","Dissertation, read only version D",CAR,DRIVER,Study2,B,106,135,Study,8,8,,Study/JOL,"Study Phase",8001,,,-1,-1,,,,1
10069903KF,cgrlr1udk7,Nick_Dissertation_EX1_EP,1,81,2021-11-17T19:08:57+00:00,10.852152824402,4,versionC_stim.csv,READVersionD.csv,"Read Version D","Dissertation, read only version D",VILLAIN,BAD,Study2,F,118,118,Study,8,8,,Study/JOL,"Study Phase",8001,,,-1,-1,,,,1
10069903KF,cgrlr1udk7,Nick_Dissertation_EX1_EP,1,82,2021-11-17T19:09:07+00:00,9.6216812133789,4,versionC_stim.csv,READVersionD.csv,"Read Version D","Dissertation, read only version D",SIGN,LOAN,Study2,U,171,160,Study,8,8,,Study/JOL,"Study Phase",8002,,,-1,-1,,,,1
10069903KF,cgrlr1udk7,Nick_Dissertation_EX1_EP,1,83,2021-11-17T19:09:17+00:00,9.5858237743378,4,versionC_stim.csv,READVersionD.csv,"Read Version D","Dissertation, read only version D",DRINK,WATER,Study2,S,143,97,Study,8,8,,Study/JOL,"Study Phase",8002,,,-1,-1,,,,1
10069903KF,cgrlr1udk7,Nick_Dissertation_EX1_EP,1,84,2021-11-17T19:09:26+00:00,9.6362600326538,4,versionC_stim.csv,READVersionD.csv,"Read Version D","Dissertation, read only version D",CUT,CHOP,Study2,B,107,146,Study,8,8,,Study/JOL,"Study Phase",8000,,,-1,-1,,,,1
10069903KF,cgrlr1udk7,Nick_Dissertation_EX1_EP,1,85,2021-11-17T19:09:36+00:00,9.6350350379944,4,versionC_stim.csv,READVersionD.csv,"Read Version D","Dissertation, read only version D",CHARM,VEHICLE,Study2,U,160,155,Study,8,8,,Study/JOL,"Study Phase",8002,,,-1,-1,,,,1
10069903KF,cgrlr1udk7,Nick_Dissertation_EX1_EP,1,86,2021-11-17T19:09:46+00:00,9.7232761383057,4,versionC_stim.csv,READVersionD.csv,"Read Version D","Dissertation, read only version D",FICTION,LISTEN,Study2,U,164,168,Study,8,8,,Study/JOL,"Study Phase",8001,,,-1,-1,,,,1
10069903KF,cgrlr1udk7,Nick_Dissertation_EX1_EP,1,87,2021-11-17T19:09:55+00:00,9.520626783371,4,versionC_stim.csv,READVersionD.csv,"Read Version D","Dissertation, read only version D",CARBON,ELEMENT,Study2,S,141,148,Study,8,8,,Study/JOL,"Study Phase",8005,,,-1,-1,,,,1
10069903KF,cgrlr1udk7,Nick_Dissertation_EX1_EP,1,88,2021-11-17T19:10:05+00:00,9.5900881290436,4,versionC_stim.csv,READVersionD.csv,"Read Version D","Dissertation, read only version D",SCAR,MAIN,Study2,U,175,157,Study,8,8,,Study/JOL,"Study Phase",8002,,,-1,-1,,,,1
10069903KF,cgrlr1udk7,Nick_Dissertation_EX1_EP,1,89,2021-11-17T19:10:14+00:00,9.7197360992432,4,versionC_stim.csv,READVersionD.csv,"Read Version D","Dissertation, read only version D",SHED,TOOL,BUFFER4,Buffer,178,180,Study,8,8,,Study/JOL,BUFFER2,8002,,,-1,-1,,,,1
10069903KF,cgrlr1udk7,Nick_Dissertation_EX1_EP,1,90,2021-11-17T19:10:24+00:00,9.5359168052673,4,versionC_stim.csv,READVersionD.csv,"Read Version D","Dissertation, read only version D",SPOOKY,OCTOBER,BUFFER4,Buffer,180,178,Study,8,8,,Study/JOL,BUFFER2,8003,,,-1,-1,,,,1
10069903KF,cgrlr1udk7,Nick_Dissertation_EX1_EP,1,91,2021-11-17T19:10:34+00:00,9.6300911903381,4,versionC_stim.csv,READVersionD.csv,"Read Version D","Dissertation, read only version D",WEAKS,DAYS,BUFFER4,Buffer,176,179,Study,8,8,,Study/JOL,BUFFER2,8001,,,-1,-1,,,,1
10069903KF,cgrlr1udk7,Nick_Dissertation_EX1_EP,1,92,2021-11-17T19:10:43+00:00,9.5893428325653,4,versionC_stim.csv,READVersionD.csv,"Read Version D","Dissertation, read only version D",MARCH,SPRING,BUFFER4,Buffer,179,181,Study,8,8,,Study/JOL,BUFFER2,8001,,,-1,-1,,,,1
10069903KF,cgrlr1udk7,Nick_Dissertation_EX1_EP,1,93,2021-11-17T19:10:53+00:00,9.6275410652161,4,versionC_stim.csv,READVersionD.csv,"Read Version D","Dissertation, read only version D",YEAR,MONTH,BUFFER4,Buffer,177,177,Study,8,8,,Study/JOL,BUFFER2,8001,,,-1,-1,,,,1
10069903KF,cgrlr1udk7,Nick_Dissertation_EX1_EP,1,94,2021-11-17T19:10:57+00:00,4.1576941013336,4,versionC_stim.csv,READVersionD.csv,"Read Version D","Dissertation, read only version D",,,,,,0,Instruct,User,-,"You have completed this section. Please press Enter.",Filler_Instruction,Instruct2,2623,,,-1,-1,,,,1
10069903KF,cgrlr1udk7,Nick_Dissertation_EX1_EP,1,95,2021-11-17T19:12:59+00:00,122.35162782669,4,versionC_stim.csv,READVersionD.csv,"Read Version D","Dissertation, read only version D",,,,,,0,FreeRecall,120,120,"Please list the 50 US states in alphabetical order. The task will automatically advance to the next screen after two minutes.",,Filler1,120001,"Alabama arizona arkansas california connecticut deleware georgia indiana iowa kansas kentucky louisiana maine maryland massechusets michi",0,7789,119747,0,0,,1
10069903KF,cgrlr1udk7,Nick_Dissertation_EX1_EP,1,96,2021-11-17T19:13:12+00:00,12.641546010971,4,versionC_stim.csv,READVersionD.csv,"Read Version D","Dissertation, read only version D",,,,,,0,Instruct,-,10,"You will now be presented with the first word from each of the previously studied item pairs. Please type the missing word. If you do not know the word, you may guess or press Enter to skip forward to the next pair.",,Instruct3,11095,,,-1,-1,,,,1
10069903KF,cgrlr1udk7,Nick_Dissertation_EX1_EP,1,97,2021-11-17T19:13:21+00:00,8.987722158432,4,versionC_stim.csv,READVersionD.csv,"Read Version D","Dissertation, read only version D",FICTION,LISTEN,Study2,U,164,168,Test,User,-,,Recall,Recall1,7457,listen,100,5211,6206,1,1,,1
10069903KF,cgrlr1udk7,Nick_Dissertation_EX1_EP,1,98,2021-11-17T19:13:28+00:00,6.811616897583,4,versionC_stim.csv,READVersionD.csv,"Read Version D","Dissertation, read only version D",CHILDREN,MIRROR,Study2,U,174,131,Test,User,-,,Recall,Recall1,4972,,0,-1,-1,0,0,,1
10069903KF,cgrlr1udk7,Nick_Dissertation_EX1_EP,1,99,2021-11-17T19:13:35+00:00,7.2302548885345,4,versionC_stim.csv,READVersionD.csv,"Read Version D","Dissertation, read only version D",AIRCRAFT,PLANE,Study2,F,129,107,Test,User,-,,Recall,Recall1,4289,plane,100,2636,3203,1,1,,1
10069903KF,cgrlr1udk7,Nick_Dissertation_EX1_EP,1,100,2021-11-17T19:13:45+00:00,10.318798065186,4,versionC_stim.csv,READVersionD.csv,"Read Version D","Dissertation, read only version D",Morning,TEMPERATURE,Study2,U,173,141,Test,User,-,,Recall,Recall1,7725,temperature,100,2420,6825,1,1,,1
10069903KF,cgrlr1udk7,Nick_Dissertation_EX1_EP,1,101,2021-11-17T19:13:50+00:00,4.5966899394989,4,versionC_stim.csv,READVersionD.csv,"Read Version D","Dissertation, read only version D",FLIP,TURN,Study2,F,116,126,Test,User,-,,Recall,Recall1,3161,turn,100,1839,2234,1,1,,1
10069903KF,cgrlr1udk7,Nick_Dissertation_EX1_EP,1,102,2021-11-17T19:13:57+00:00,6.7205820083618,4,versionC_stim.csv,READVersionD.csv,"Read Version D","Dissertation, read only version D",CARBON,ELEMENT,Study2,S,141,148,Test,User,-,,Recall,Recall1,3413,element,100,1795,2733,1,1,,1
10069903KF,cgrlr1udk7,Nick_Dissertation_EX1_EP,1,103,2021-11-17T19:14:14+00:00,16.834946155548,4,versionC_stim.csv,READVersionD.csv,"Read Version D","Dissertation, read only version D",GAME,CLUE,Study2,B,97,98,Test,User,-,,Recall,Recall1,15342,,0,-1,-1,0,0,,1
10069903KF,cgrlr1udk7,Nick_Dissertation_EX1_EP,1,104,2021-11-17T19:14:19+00:00,5.735790014267,4,versionC_stim.csv,READVersionD.csv,"Read Version D","Dissertation, read only version D",SIGN,LOAN,Study2,U,171,160,Test,User,-,,Recall,Recall1,4075,signal,20,2324,3140,0,0,,1
10069903KF,cgrlr1udk7,Nick_Dissertation_EX1_EP,1,105,2021-11-17T19:14:24+00:00,4.4069108963013,4,versionC_stim.csv,READVersionD.csv,"Read Version D","Dissertation, read only version D",PENGUIN,BIRD,Study2,F,119,117,Test,User,-,,Recall,Recall1,2680,bird,100,1630,2128,1,1,,1
10069903KF,cgrlr1udk7,Nick_Dissertation_EX1_EP,1,106,2021-11-17T19:14:29+00:00,5.4328501224518,4,versionC_stim.csv,READVersionD.csv,"Read Version D","Dissertation, read only version D",ABLE,CRACKLE,Study2,U,162,106,Test,User,-,,Recall,Recall1,3717,,0,-1,-1,0,0,,1
10069903KF,cgrlr1udk7,Nick_Dissertation_EX1_EP,1,107,2021-11-17T19:14:34+00:00,5.4072139263153,4,versionC_stim.csv,READVersionD.csv,"Read Version D","Dissertation, read only version D",JOKE,KEYS,Study2,U,165,115,Test,User,-,,Recall,Recall1,3905,,0,-1,-1,0,0,,1
10069903KF,cgrlr1udk7,Nick_Dissertation_EX1_EP,1,108,2021-11-17T19:14:45+00:00,10.207993984222,4,versionC_stim.csv,READVersionD.csv,"Read Version D","Dissertation, read only version D",TIE,SHOELACE,Study2,B,99,139,Test,User,-,,Recall,Recall1,8539,,0,-1,-1,0,0,,1
10069903KF,cgrlr1udk7,Nick_Dissertation_EX1_EP,1,109,2021-11-17T19:14:54+00:00,9.2246189117432,4,versionC_stim.csv,READVersionD.csv,"Read Version D","Dissertation, read only version D",COLD,CHILL,Study2,B,114,103,Test,User,-,,Recall,Recall1,7610,chill,100,5813,6638,1,1,,1
10069903KF,cgrlr1udk7,Nick_Dissertation_EX1_EP,1,110,2021-11-17T19:14:59+00:00,4.9470970630646,4,versionC_stim.csv,READVersionD.csv,"Read Version D","Dissertation, read only version D",ELECTION,MAZE,Study2,U,159,128,Test,User,-,,Recall,Recall1,3307,,0,-1,-1,0,0,,1
10069903KF,cgrlr1udk7,Nick_Dissertation_EX1_EP,1,111,2021-11-17T19:15:04+00:00,4.9629709720612,4,versionC_stim.csv,READVersionD.csv,"Read Version D","Dissertation, read only version D",VILLAIN,BAD,Study2,F,118,118,Test,User,-,,Recall,Recall1,3244,bad,100,2112,2451,1,1,,1
10069903KF,cgrlr1udk7,Nick_Dissertation_EX1_EP,1,112,2021-11-17T19:15:12+00:00,8.2273690700531,4,versionC_stim.csv,READVersionD.csv,"Read Version D","Dissertation, read only version D",COMMUNICATION,PHONE,Study2,S,149,156,Test,User,-,,Recall,Recall1,6617,phone,100,5623,6332,1,1,,1
10069903KF,cgrlr1udk7,Nick_Dissertation_EX1_EP,1,113,2021-11-17T19:15:22+00:00,9.8501470088959,4,versionC_stim.csv,READVersionD.csv,"Read Version D","Dissertation, read only version D",REVENGE,EVEN,Study2,F,122,108,Test,User,-,,Recall,Recall1,8242,even,100,6709,7234,1,1,,1
10069903KF,cgrlr1udk7,Nick_Dissertation_EX1_EP,1,114,2021-11-17T19:15:29+00:00,7.4708058834076,4,versionC_stim.csv,READVersionD.csv,"Read Version D","Dissertation, read only version D",LONG,EXTENSION,Study2,B,96,130,Test,User,-,,Recall,Recall1,5770,extension,100,3134,4775,1,1,,1
10069903KF,cgrlr1udk7,Nick_Dissertation_EX1_EP,1,115,2021-11-17T19:15:38+00:00,8.9320759773254,4,versionC_stim.csv,READVersionD.csv,"Read Version D","Dissertation, read only version D",SHAVE,RAZOR,Study2,S,136,151,Test,User,-,,Recall,Recall1,7360,razor,100,3936,7159,1,1,,1
10069903KF,cgrlr1udk7,Nick_Dissertation_EX1_EP,1,116,2021-11-17T19:15:53+00:00,14.603301048279,4,versionC_stim.csv,READVersionD.csv,"Read Version D","Dissertation, read only version D",BALLOON,POP,Study2,F,123,133,Test,User,-,,Recall,Recall1,13003,pop,100,12312,12615,1,1,,1
10069903KF,cgrlr1udk7,Nick_Dissertation_EX1_EP,1,117,2021-11-17T19:16:19+00:00,25.656599998474,4,versionC_stim.csv,READVersionD.csv,"Read Version D","Dissertation, read only version D",TRASH,LITTER,Study2,B,103,140,Test,User,-,,Recall,Recall1,24062,litter,100,22957,23862,1,1,,1
10069903KF,cgrlr1udk7,Nick_Dissertation_EX1_EP,1,118,2021-11-17T19:17:09+00:00,50.862123012543,4,versionC_stim.csv,READVersionD.csv,"Read Version D","Dissertation, read only version D",NAP,SLEEP,Study2,F,134,129,Test,User,-,,Recall,Recall1,49347,sleep,100,47735,49067,1,1,,1
10069903KF,cgrlr1udk7,Nick_Dissertation_EX1_EP,1,119,2021-11-17T19:17:59+00:00,49.891895055771,4,versionC_stim.csv,READVersionD.csv,"Read Version D","Dissertation, read only version D",MAROON,JUSTICE,Study2,U,156,164,Test,User,-,,Recall,Recall1,48256,length,15.384615384615,45680,46912,0,0,,1
10069903KF,cgrlr1udk7,Nick_Dissertation_EX1_EP,1,120,2021-11-17T19:18:08+00:00,8.9480490684509,4,versionC_stim.csv,READVersionD.csv,"Read Version D","Dissertation, read only version D",WET,DRY,Study2,S,146,158,Test,User,-,,Recall,Recall1,6539,dry,100,4163,4514,1,1,,1
10069903KF,cgrlr1udk7,Nick_Dissertation_EX1_EP,1,121,2021-11-17T19:18:15+00:00,6.6619548797607,4,versionC_stim.csv,READVersionD.csv,"Read Version D","Dissertation, read only version D",HATE,NAME,Study2,U,167,169,Test,User,-,,Recall,Recall1,5027,name,100,4010,4345,1,1,,1
10069903KF,cgrlr1udk7,Nick_Dissertation_EX1_EP,1,122,2021-11-17T19:18:21+00:00,5.6697609424591,4,versionC_stim.csv,READVersionD.csv,"Read Version D","Dissertation, read only version D",RED,CHERRY,Study2,B,104,165,Test,User,-,,Recall,Recall1,4034,,0,-1,-1,0,0,,1
10069903KF,cgrlr1udk7,Nick_Dissertation_EX1_EP,1,123,2021-11-17T19:18:29+00:00,8.6858811378479,4,versionC_stim.csv,READVersionD.csv,"Read Version D","Dissertation, read only version D",EAT,DINE,Study2,B,111,124,Test,User,-,,Recall,Recall1,6988,starve,20,4851,6291,0,0,,1
10069903KF,cgrlr1udk7,Nick_Dissertation_EX1_EP,1,124,2021-11-17T19:18:51+00:00,21.64354801178,4,versionC_stim.csv,READVersionD.csv,"Read Version D","Dissertation, read only version D",CLOTHES,CAKE,Study2,U,166,144,Test,User,-,,Recall,Recall1,19939,,0,5125,5125,0,0,,1
10069903KF,cgrlr1udk7,Nick_Dissertation_EX1_EP,1,125,2021-11-17T19:18:56+00:00,4.8192648887634,4,versionC_stim.csv,READVersionD.csv,"Read Version D","Dissertation, read only version D",CLEAR,MOAT,Study2,U,169,161,Test,User,-,,Recall,Recall1,3139,,0,-1,-1,0,0,,1
10069903KF,cgrlr1udk7,Nick_Dissertation_EX1_EP,1,126,2021-11-17T19:19:01+00:00,5.6670210361481,4,versionC_stim.csv,READVersionD.csv,"Read Version D","Dissertation, read only version D",WAX,CANDLE,Study2,S,139,167,Test,User,-,,Recall,Recall1,4046,candle,100,2608,3245,1,1,,1
10069903KF,cgrlr1udk7,Nick_Dissertation_EX1_EP,1,127,2021-11-17T19:19:08+00:00,6.631422996521,4,versionC_stim.csv,READVersionD.csv,"Read Version D","Dissertation, read only version D",GROUND,EARTH,Study2,S,144,104,Test,User,-,,Recall,Recall1,4884,sky,0,3745,4048,0,0,,1
10069903KF,cgrlr1udk7,Nick_Dissertation_EX1_EP,1,128,2021-11-17T19:19:17+00:00,8.7628109455109,4,versionC_stim.csv,READVersionD.csv,"Read Version D","Dissertation, read only version D",LIE,TRUTH,Study2,S,148,100,Test,User,-,,Recall,Recall1,6381,truthful,76.923076923077,3758,5096,0,1,,1
10069903KF,cgrlr1udk7,Nick_Dissertation_EX1_EP,1,129,2021-11-17T19:19:22+00:00,4.7708230018616,4,versionC_stim.csv,READVersionD.csv,"Read Version D","Dissertation, read only version D",STRAWBERRY,FRUIT,Study2,F,124,163,Test,User,-,,Recall,Recall1,3227,fruit,100,1862,2477,1,1,,1
10069903KF,cgrlr1udk7,Nick_Dissertation_EX1_EP,1,130,2021-11-17T19:19:37+00:00,15.742534160614,4,versionC_stim.csv,READVersionD.csv,"Read Version D","Dissertation, read only version D",OBTAIN,MEAT,Study2,U,161,113,Test,User,-,,Recall,Recall1,13727,meat,100,6969,12812,1,1,,1
10069903KF,cgrlr1udk7,Nick_Dissertation_EX1_EP,1,131,2021-11-17T19:19:49+00:00,11.924276828766,4,versionC_stim.csv,READVersionD.csv,"Read Version D","Dissertation, read only version D",AWAY,GONE,Study2,S,142,121,Test,User,-,,Recall,Recall1,10178,gone,100,4601,9314,1,1,,1
10069903KF,cgrlr1udk7,Nick_Dissertation_EX1_EP,1,132,2021-11-17T19:19:55+00:00,5.3166329860687,4,versionC_stim.csv,READVersionD.csv,"Read Version D","Dissertation, read only version D",SEATBELT,SAFETY,Study2,S,147,105,Test,User,-,,Recall,Recall1,3654,safety,100,1681,2624,1,1,,1
10069903KF,cgrlr1udk7,Nick_Dissertation_EX1_EP,1,133,2021-11-17T19:20:00+00:00,5.6733100414276,4,versionC_stim.csv,READVersionD.csv,"Read Version D","Dissertation, read only version D",DOG,FURRY,Study2,B,102,114,Test,User,-,,Recall,Recall1,4012,furry,100,2475,3015,1,1,,1
10069903KF,cgrlr1udk7,Nick_Dissertation_EX1_EP,1,134,2021-11-17T19:20:05+00:00,4.7647800445557,4,versionC_stim.csv,READVersionD.csv,"Read Version D","Dissertation, read only version D",SARDINE,FISH,Study2,F,130,153,Test,User,-,,Recall,Recall1,2958,fish,100,1510,1947,1,1,,1
10069903KF,cgrlr1udk7,Nick_Dissertation_EX1_EP,1,135,2021-11-17T19:20:10+00:00,5.451623916626,4,versionC_stim.csv,READVersionD.csv,"Read Version D","Dissertation, read only version D",CAR,DRIVER,Study2,B,106,135,Test,User,-,,Recall,Recall1,3878,driver,100,2371,3102,1,1,,1
10069903KF,cgrlr1udk7,Nick_Dissertation_EX1_EP,1,136,2021-11-17T19:20:15+00:00,4.7735271453857,4,versionC_stim.csv,READVersionD.csv,"Read Version D","Dissertation, read only version D",DRINK,WATER,Study2,S,143,97,Test,User,-,,Recall,Recall1,3112,water,100,1460,2088,1,1,,1
10069903KF,cgrlr1udk7,Nick_Dissertation_EX1_EP,1,137,2021-11-17T19:20:28+00:00,13.085211992264,4,versionC_stim.csv,READVersionD.csv,"Read Version D","Dissertation, read only version D",EQUAL,RIGHTS,Study2,S,137,147,Test,User,-,,Recall,Recall1,11327,,0,-1,-1,0,0,,1
10069903KF,cgrlr1udk7,Nick_Dissertation_EX1_EP,1,138,2021-11-17T19:20:35+00:00,6.7952139377594,4,versionC_stim.csv,READVersionD.csv,"Read Version D","Dissertation, read only version D",CUT,CHOP,Study2,B,107,146,Test,User,-,,Recall,Recall1,5019,,0,-1,-1,0,0,,1
10069903KF,cgrlr1udk7,Nick_Dissertation_EX1_EP,1,139,2021-11-17T19:20:40+00:00,4.7548561096191,4,versionC_stim.csv,READVersionD.csv,"Read Version D","Dissertation, read only version D",BANG,FUZZY,Study2,U,168,99,Test,User,-,,Recall,Recall1,3218,,0,-1,-1,0,0,,1
10069903KF,cgrlr1udk7,Nick_Dissertation_EX1_EP,1,140,2021-11-17T19:20:45+00:00,5.3230748176575,4,versionC_stim.csv,READVersionD.csv,"Read Version D","Dissertation, read only version D",END,ADJOURN,Study2,B,101,159,Test,User,-,,Recall,Recall1,3739,,0,-1,-1,0,0,,1
10069903KF,cgrlr1udk7,Nick_Dissertation_EX1_EP,1,141,2021-11-17T19:20:50+00:00,4.5496261119843,4,versionC_stim.csv,READVersionD.csv,"Read Version D","Dissertation, read only version D",JAR,MASON,Study2,S,138,111,Test,User,-,,Recall,Recall1,2959,mason,100,1507,2089,1,1,,1
10069903KF,cgrlr1udk7,Nick_Dissertation_EX1_EP,1,142,2021-11-17T19:20:58+00:00,7.7638549804688,4,versionC_stim.csv,READVersionD.csv,"Read Version D","Dissertation, read only version D",THIMBLE,THREAD,Study2,F,121,173,Test,User,-,,Recall,Recall1,6113,thread,100,4355,5327,1,1,,1
10069903KF,cgrlr1udk7,Nick_Dissertation_EX1_EP,1,143,2021-11-17T19:21:06+00:00,8.4771540164948,4,versionC_stim.csv,READVersionD.csv,"Read Version D","Dissertation, read only version D",HAVE,OWN,Study2,S,153,166,Test,User,-,,Recall,Recall1,5175,own,100,1749,4371,1,1,,1
10069903KF,cgrlr1udk7,Nick_Dissertation_EX1_EP,1,144,2021-11-17T19:21:09+00:00,3.3465070724487,4,versionC_stim.csv,READVersionD.csv,"Read Version D","Dissertation, read only version D",WINDSHIELD,CAR,Study2,F,117,142,Test,User,-,,Recall,Recall1,1684,,0,-1,-1,0,0,,1
10069903KF,cgrlr1udk7,Nick_Dissertation_EX1_EP,1,145,2021-11-17T19:21:16+00:00,6.9577219486237,4,versionC_stim.csv,READVersionD.csv,"Read Version D","Dissertation, read only version D",SHAKE,Shell,Study2,U,163,123,Test,User,-,,Recall,Recall1,5347,,0,3230,3230,0,0,,1
10069903KF,cgrlr1udk7,Nick_Dissertation_EX1_EP,1,146,2021-11-17T19:21:21+00:00,4.4143049716949,4,versionC_stim.csv,READVersionD.csv,"Read Version D","Dissertation, read only version D",TAN,SUN,Study2,S,155,102,Test,User,-,,Recall,Recall1,2820,sun,100,1481,1960,1,1,,1
10069903KF,cgrlr1udk7,Nick_Dissertation_EX1_EP,1,147,2021-11-17T19:21:31+00:00,10.041141986847,4,versionC_stim.csv,READVersionD.csv,"Read Version D","Dissertation, read only version D",FIGHT,FEUD,Study2,B,113,116,Test,User,-,,Recall,Recall1,8354,,0,-1,-1,0,0,,1
10069903KF,cgrlr1udk7,Nick_Dissertation_EX1_EP,1,148,2021-11-17T19:21:34+00:00,3.5461039543152,4,versionC_stim.csv,READVersionD.csv,"Read Version D","Dissertation, read only version D",TOIL,LEASE,Study2,U,170,110,Test,User,-,,Recall,Recall1,1680,,0,-1,-1,0,0,,1
10069903KF,cgrlr1udk7,Nick_Dissertation_EX1_EP,1,149,2021-11-17T19:21:40+00:00,5.220762014389,4,versionC_stim.csv,READVersionD.csv,"Read Version D","Dissertation, read only version D",LONELY,ALONE,Study2,S,145,138,Test,User,-,,Recall,Recall1,3349,alone,100,1984,2623,1,1,,1
10069903KF,cgrlr1udk7,Nick_Dissertation_EX1_EP,1,150,2021-11-17T19:22:16+00:00,36.631031036377,4,versionC_stim.csv,READVersionD.csv,"Read Version D","Dissertation, read only version D",LOVE,AFFECTION,Study2,B,115,143,Test,User,-,,Recall,Recall1,35131,affectionate,85.714285714286,32304,34193,0,1,,1
10069903KF,cgrlr1udk7,Nick_Dissertation_EX1_EP,1,151,2021-11-17T19:22:19+00:00,2.916659116745,4,versionC_stim.csv,READVersionD.csv,"Read Version D","Dissertation, read only version D",BRAWL,FIGHT,Study2,F,135,176,Test,User,-,,Recall,Recall1,1428,,0,-1,-1,0,0,,1
10069903KF,cgrlr1udk7,Nick_Dissertation_EX1_EP,1,152,2021-11-17T19:22:22+00:00,2.8447878360748,4,versionC_stim.csv,READVersionD.csv,"Read Version D","Dissertation, read only version D",DONKEY,MULE,Study2,B,108,149,Test,User,-,,Recall,Recall1,1283,,0,-1,-1,0,0,,1
10069903KF,cgrlr1udk7,Nick_Dissertation_EX1_EP,1,153,2021-11-17T19:22:28+00:00,6.5705349445343,4,versionC_stim.csv,READVersionD.csv,"Read Version D","Dissertation, read only version D",NOISE,LOUD,Study2,S,152,120,Test,User,-,,Recall,Recall1,4403,loud,100,3042,3578,1,1,,1
10069903KF,cgrlr1udk7,Nick_Dissertation_EX1_EP,1,154,2021-11-17T19:22:34+00:00,5.3438460826874,4,versionC_stim.csv,READVersionD.csv,"Read Version D","Dissertation, read only version D",PANTHER,CAT,Study2,F,126,127,Test,User,-,,Recall,Recall1,3737,cat,100,1673,2616,1,1,,1
10069903KF,cgrlr1udk7,Nick_Dissertation_EX1_EP,1,155,2021-11-17T19:22:42+00:00,7.7415239810944,4,versionC_stim.csv,READVersionD.csv,"Read Version D","Dissertation, read only version D",TRUTHFUL,HONEST,Study2,F,133,134,Test,User,-,,Recall,Recall1,6207,false,18.181818181818,4821,5586,0,0,,1
10069903KF,cgrlr1udk7,Nick_Dissertation_EX1_EP,1,156,2021-11-17T19:22:47+00:00,5.4044880867004,4,versionC_stim.csv,READVersionD.csv,"Read Version D","Dissertation, read only version D",LEAGUE,BASEBALL,Study2,F,131,112,Test,User,-,,Recall,Recall1,3786,baseball,100,1723,2833,1,1,,1
10069903KF,cgrlr1udk7,Nick_Dissertation_EX1_EP,1,157,2021-11-17T19:22:53+00:00,5.6231498718262,4,versionC_stim.csv,READVersionD.csv,"Read Version D","Dissertation, read only version D",PAPER,DOCUMENT,Study2,B,109,136,Test,User,-,,Recall,Recall1,3921,document,100,2116,3148,1,1,,1
10069903KF,cgrlr1udk7,Nick_Dissertation_EX1_EP,1,158,2021-11-17T19:22:56+00:00,3.0624480247498,4,versionC_stim.csv,READVersionD.csv,"Read Version D","Dissertation, read only version D",BRACELET,WRIST,Study2,S,140,132,Test,User,-,,Recall,Recall1,1442,,0,-1,-1,0,0,,1
10069903KF,cgrlr1udk7,Nick_Dissertation_EX1_EP,1,159,2021-11-17T19:23:01+00:00,4.9403109550476,4,versionC_stim.csv,READVersionD.csv,"Read Version D","Dissertation, read only version D",REEL,ROD,Study2,S,150,150,Test,User,-,,Recall,Recall1,3383,rod,100,2009,2369,1,1,,1
10069903KF,cgrlr1udk7,Nick_Dissertation_EX1_EP,1,160,2021-11-17T19:23:07+00:00,6.4491481781006,4,versionC_stim.csv,READVersionD.csv,"Read Version D","Dissertation, read only version D",OUNCE,BOTH,Study2,U,172,174,Test,User,-,,Recall,Recall1,4102,,0,-1,-1,0,0,,1
10069903KF,cgrlr1udk7,Nick_Dissertation_EX1_EP,1,161,2021-11-17T19:23:13+00:00,5.9785969257355,4,versionC_stim.csv,READVersionD.csv,"Read Version D","Dissertation, read only version D",STEAK,GIVE,Study2,U,158,122,Test,User,-,,Recall,Recall1,4107,,0,-1,-1,0,0,,1
10069903KF,cgrlr1udk7,Nick_Dissertation_EX1_EP,1,162,2021-11-17T19:23:16+00:00,2.5151870250702,4,versionC_stim.csv,READVersionD.csv,"Read Version D","Dissertation, read only version D",CHARM,VEHICLE,Study2,U,160,155,Test,User,-,,Recall,Recall1,1044,,0,-1,-1,0,0,,1
10069903KF,cgrlr1udk7,Nick_Dissertation_EX1_EP,1,163,2021-11-17T19:23:21+00:00,5.5060260295868,4,versionC_stim.csv,READVersionD.csv,"Read Version D","Dissertation, read only version D",SCISSORS,SHEARS,Study2,B,112,171,Test,User,-,,Recall,Recall1,3856,shears,100,1708,3204,1,1,,1
10069903KF,cgrlr1udk7,Nick_Dissertation_EX1_EP,1,164,2021-11-17T19:23:26+00:00,5.0787689685822,4,versionC_stim.csv,READVersionD.csv,"Read Version D","Dissertation, read only version D",COFFIN,DEAD,Study2,F,128,145,Test,User,-,,Recall,Recall1,3386,casket,20,1776,2645,0,0,,1
10069903KF,cgrlr1udk7,Nick_Dissertation_EX1_EP,1,165,2021-11-17T19:23:33+00:00,6.8804349899292,4,versionC_stim.csv,READVersionD.csv,"Read Version D","Dissertation, read only version D",HEAD,SCALP,Study2,B,105,101,Test,User,-,,Recall,Recall1,5226,scalp,100,1324,4224,1,1,,1
10069903KF,cgrlr1udk7,Nick_Dissertation_EX1_EP,1,166,2021-11-17T19:23:40+00:00,7.0370569229126,4,versionC_stim.csv,READVersionD.csv,"Read Version D","Dissertation, read only version D",CLOTH,STRETCH,Study2,U,157,170,Test,User,-,,Recall,Recall1,5565,fiber,16.666666666667,4245,4828,0,0,,1
10069903KF,cgrlr1udk7,Nick_Dissertation_EX1_EP,1,167,2021-11-17T19:23:48+00:00,7.7270359992981,4,versionC_stim.csv,READVersionD.csv,"Read Version D","Dissertation, read only version D",PLANT,CACTUS,Study2,B,98,172,Test,User,-,,Recall,Recall1,6068,flower,0,4154,5366,0,0,,1
10069903KF,cgrlr1udk7,Nick_Dissertation_EX1_EP,1,168,2021-11-17T19:23:51+00:00,3.0572781562805,4,versionC_stim.csv,READVersionD.csv,"Read Version D","Dissertation, read only version D",FAVORITE,BEST,Study2,F,125,175,Test,User,-,,Recall,Recall1,1536,,0,-1,-1,0,0,,1
10069903KF,cgrlr1udk7,Nick_Dissertation_EX1_EP,1,169,2021-11-17T19:23:59+00:00,8.283882856369,4,versionC_stim.csv,READVersionD.csv,"Read Version D","Dissertation, read only version D",BANKER,MONEY,Study2,F,132,137,Test,User,-,,Recall,Recall1,5678,money,100,3718,4398,1,1,,1
10069903KF,cgrlr1udk7,Nick_Dissertation_EX1_EP,1,170,2021-11-17T19:24:05+00:00,5.5918049812317,4,versionC_stim.csv,READVersionD.csv,"Read Version D","Dissertation, read only version D",SMELL,INCENSE,Study2,B,110,154,Test,User,-,,Recall,Recall1,3789,,0,-1,-1,0,0,,1
10069903KF,cgrlr1udk7,Nick_Dissertation_EX1_EP,1,171,2021-11-17T19:24:28+00:00,23.159487009048,4,versionC_stim.csv,READVersionD.csv,"Read Version D","Dissertation, read only version D",MYSTERY,DETECTIVE,Study2,B,100,162,Test,User,-,,Recall,Recall1,21492,investigator,28.571428571429,18496,20647,0,0,,1
10069903KF,cgrlr1udk7,Nick_Dissertation_EX1_EP,1,172,2021-11-17T19:24:42+00:00,13.946578979492,4,versionC_stim.csv,READVersionD.csv,"Read Version D","Dissertation, read only version D",TICK,FLEA,Study2,S,151,125,Test,User,-,,Recall,Recall1,12404,flea,100,10482,11577,1,1,,1
10069903KF,cgrlr1udk7,Nick_Dissertation_EX1_EP,1,173,2021-11-17T19:25:15+00:00,32.846894025803,4,versionC_stim.csv,READVersionD.csv,"Read Version D","Dissertation, read only version D",TEMPER,TANTRUM,Study2,S,154,152,Test,User,-,,Recall,Recall1,31147,tantrum,100,29214,30284,1,1,,1
10069903KF,cgrlr1udk7,Nick_Dissertation_EX1_EP,1,174,2021-11-17T19:25:21+00:00,6.6723430156708,4,versionC_stim.csv,READVersionD.csv,"Read Version D","Dissertation, read only version D",SCAR,MAIN,Study2,U,175,157,Test,User,-,,Recall,Recall1,4316,main,100,3060,3473,1,1,,1
10069903KF,cgrlr1udk7,Nick_Dissertation_EX1_EP,1,175,2021-11-17T19:25:42+00:00,20.342244148254,4,versionC_stim.csv,READVersionD.csv,"Read Version D","Dissertation, read only version D",BREAKABLE,GLASS,Study2,F,127,109,Test,User,-,,Recall,Recall1,17975,,0,-1,-1,0,0,,1
10069903KF,cgrlr1udk7,Nick_Dissertation_EX1_EP,1,176,2021-11-17T19:25:46+00:00,4.638454914093,4,versionC_stim.csv,READVersionD.csv,"Read Version D","Dissertation, read only version D",ACTRESS,STAR,Study2,F,120,119,Test,User,-,,Recall,Recall1,3136,,0,-1,-1,0,0,,1
10069903KF,cgrlr1udk7,Nick_Dissertation_EX1_EP,1,177,2021-11-17T19:26:17+00:00,30.452219963074,4,versionC_stim.csv,READVersionD.csv,"Read Version D","Dissertation, read only version D",,,,,,0,Instruct,-,10,"You will now be presented with a new set of word pairs. Please study each pair. Remember that your memory will be tested! When finished, press Enter to move to the next pair.",Initial_Instruct,Instruct4,28804,,,-1,-1,,,,1
10069903KF,cgrlr1udk7,Nick_Dissertation_EX1_EP,1,178,2021-11-17T19:26:20+00:00,3.2130370140076,4,versionC_stim.csv,READVersionD.csv,"Read Version D","Dissertation, read only version D",,,,,,0,Instruct,User,-,"Each word will be displayed on the computer screen for 8 seconds. The screen will automatically move to the next pair when time is up. Press Enter when you are ready to begin.",,Instruct11,1545,,,-1,-1,,,,1
10069903KF,cgrlr1udk7,Nick_Dissertation_EX1_EP,1,179,2021-11-17T19:26:30+00:00,9.5698621273041,4,versionC_stim.csv,READVersionD.csv,"Read Version D","Dissertation, read only version D",GREEN,TREES,BUFFER1,Buffer,1,6,Study,8,8,,Study/JOL,BUFFER3,8001,,,-1,-1,,,,1
10069903KF,cgrlr1udk7,Nick_Dissertation_EX1_EP,1,180,2021-11-17T19:26:39+00:00,9.499401807785,4,versionC_stim.csv,READVersionD.csv,"Read Version D","Dissertation, read only version D",BUTTER,PEANUT,BUFFER1,Buffer,3,5,Study,8,8,,Study/JOL,BUFFER3,8001,,,-1,-1,,,,1
10069903KF,cgrlr1udk7,Nick_Dissertation_EX1_EP,1,181,2021-11-17T19:26:49+00:00,9.6223530769348,4,versionC_stim.csv,READVersionD.csv,"Read Version D","Dissertation, read only version D",JAM,SPACE,BUFFER1,Buffer,5,3,Study,8,8,,Study/JOL,BUFFER3,8001,,,-1,-1,,,,1
10069903KF,cgrlr1udk7,Nick_Dissertation_EX1_EP,1,182,2021-11-17T19:26:58+00:00,9.811558008194,4,versionC_stim.csv,READVersionD.csv,"Read Version D","Dissertation, read only version D",HIDE,SCARE,BUFFER1,Buffer,4,2,Study,8,8,,Study/JOL,BUFFER3,8001,,,-1,-1,,,,1
10069903KF,cgrlr1udk7,Nick_Dissertation_EX1_EP,1,183,2021-11-17T19:27:08+00:00,9.6360490322113,4,versionC_stim.csv,READVersionD.csv,"Read Version D","Dissertation, read only version D",CATCHER,BASEBALL,BUFFER1,Buffer,2,4,Study,8,8,,Study/JOL,BUFFER3,8001,,,-1,-1,,,,1
10069903KF,cgrlr1udk7,Nick_Dissertation_EX1_EP,1,184,2021-11-17T19:27:18+00:00,9.5767619609833,4,versionC_stim.csv,READVersionD.csv,"Read Version D","Dissertation, read only version D",ATTIRE,CLOTHES,Study1,F,43,48,Study,8,8,,Study/JOL,"Study Phase2",8001,,,-1,-1,,,,1
10069903KF,cgrlr1udk7,Nick_Dissertation_EX1_EP,1,185,2021-11-17T19:27:28+00:00,9.9787740707397,4,versionC_stim.csv,READVersionD.csv,"Read Version D","Dissertation, read only version D",CHILD,BABY,Study1,S,64,22,Study,8,8,,Study/JOL,"Study Phase2",8001,,,-1,-1,,,,1
10069903KF,cgrlr1udk7,Nick_Dissertation_EX1_EP,1,186,2021-11-17T19:27:37+00:00,9.7321219444275,4,versionC_stim.csv,READVersionD.csv,"Read Version D","Dissertation, read only version D",LIVER,KIDNEY,Study1,S,53,8,Study,8,8,,Study/JOL,"Study Phase2",8001,,,-1,-1,,,,1
10069903KF,cgrlr1udk7,Nick_Dissertation_EX1_EP,1,187,2021-11-17T19:27:47+00:00,9.6652579307556,4,versionC_stim.csv,READVersionD.csv,"Read Version D","Dissertation, read only version D",WORD,SENTENCE,Study1,F,31,75,Study,8,8,,Study/JOL,"Study Phase2",8002,,,-1,-1,,,,1
10069903KF,cgrlr1udk7,Nick_Dissertation_EX1_EP,1,188,2021-11-17T19:27:57+00:00,9.4620230197906,4,versionC_stim.csv,READVersionD.csv,"Read Version D","Dissertation, read only version D",SICK,HIDE,Study1,U,84,58,Study,8,8,,Study/JOL,"Study Phase2",8002,,,-1,-1,,,,1
10069903KF,cgrlr1udk7,Nick_Dissertation_EX1_EP,1,189,2021-11-17T19:28:06+00:00,9.6729469299316,4,versionC_stim.csv,READVersionD.csv,"Read Version D","Dissertation, read only version D",FAMINE,HUNGER,Study1,F,40,86,Study,8,8,,Study/JOL,"Study Phase2",8002,,,-1,-1,,,,1
10069903KF,cgrlr1udk7,Nick_Dissertation_EX1_EP,1,190,2021-11-17T19:28:16+00:00,9.8980510234833,4,versionC_stim.csv,READVersionD.csv,"Read Version D","Dissertation, read only version D",CARD,CREDIT,Study1,B,23,7,Study,8,8,,Study/JOL,"Study Phase2",8002,,,-1,-1,,,,1
10069903KF,cgrlr1udk7,Nick_Dissertation_EX1_EP,1,191,2021-11-17T19:28:26+00:00,9.7696511745453,4,versionC_stim.csv,READVersionD.csv,"Read Version D","Dissertation, read only version D",PILOT,PLANE,Study1,F,44,26,Study,8,8,,Study/JOL,"Study Phase2",8001,,,-1,-1,,,,1
10069903KF,cgrlr1udk7,Nick_Dissertation_EX1_EP,1,192,2021-11-17T19:28:36+00:00,10.26789188385,4,versionC_stim.csv,READVersionD.csv,"Read Version D","Dissertation, read only version D",LATCH,KEY,Study1,F,36,27,Study,8,8,,Study/JOL,"Study Phase2",8002,,,-1,-1,,,,1
10069903KF,cgrlr1udk7,Nick_Dissertation_EX1_EP,1,193,2021-11-17T19:28:46+00:00,9.5308029651642,4,versionC_stim.csv,READVersionD.csv,"Read Version D","Dissertation, read only version D",CHILI,HOT,Study1,F,37,43,Study,8,8,,Study/JOL,"Study Phase2",8000,,,-1,-1,,,,1
10069903KF,cgrlr1udk7,Nick_Dissertation_EX1_EP,1,194,2021-11-17T19:28:55+00:00,9.5915579795837,4,versionC_stim.csv,READVersionD.csv,"Read Version D","Dissertation, read only version D",HAND,FIX,Study1,U,75,29,Study,8,8,,Study/JOL,"Study Phase2",8000,,,-1,-1,,,,1
10069903KF,cgrlr1udk7,Nick_Dissertation_EX1_EP,1,195,2021-11-17T19:29:05+00:00,9.4594750404358,4,versionC_stim.csv,READVersionD.csv,"Read Version D","Dissertation, read only version D",BAD,DELINQUENT,Study1,B,6,51,Study,8,8,,Study/JOL,"Study Phase2",8001,,,-1,-1,,,,1
10069903KF,cgrlr1udk7,Nick_Dissertation_EX1_EP,1,196,2021-11-17T19:29:14+00:00,9.4924809932709,4,versionC_stim.csv,READVersionD.csv,"Read Version D","Dissertation, read only version D",SIP,DRINK,Study1,F,27,66,Study,8,8,,Study/JOL,"Study Phase2",8002,,,-1,-1,,,,1
10069903KF,cgrlr1udk7,Nick_Dissertation_EX1_EP,1,197,2021-11-17T19:29:24+00:00,9.5676219463348,4,versionC_stim.csv,READVersionD.csv,"Read Version D","Dissertation, read only version D",NEWS,EDITOR,Study1,B,10,25,Study,8,8,,Study/JOL,"Study Phase2",8000,,,-1,-1,,,,1
10069903KF,cgrlr1udk7,Nick_Dissertation_EX1_EP,1,198,2021-11-17T19:29:33+00:00,9.6328949928284,4,versionC_stim.csv,READVersionD.csv,"Read Version D","Dissertation, read only version D",SIGHT,DEBATE,Study1,U,73,57,Study,8,8,,Study/JOL,"Study Phase2",8002,,,-1,-1,,,,1
10069903KF,cgrlr1udk7,Nick_Dissertation_EX1_EP,1,199,2021-11-17T19:29:43+00:00,9.5759150981903,4,versionC_stim.csv,READVersionD.csv,"Read Version D","Dissertation, read only version D",CLUTTER,PUSHER,Study1,U,66,80,Study,8,8,,Study/JOL,"Study Phase2",8002,,,-1,-1,,,,1
10069903KF,cgrlr1udk7,Nick_Dissertation_EX1_EP,1,200,2021-11-17T19:29:53+00:00,9.7654829025269,4,versionC_stim.csv,READVersionD.csv,"Read Version D","Dissertation, read only version D",FOOT,SHOE,Study1,S,60,9,Study,8,8,,Study/JOL,"Study Phase2",8002,,,-1,-1,,,,1
10069903KF,cgrlr1udk7,Nick_Dissertation_EX1_EP,1,201,2021-11-17T19:30:02+00:00,9.5068039894104,4,versionC_stim.csv,READVersionD.csv,"Read Version D","Dissertation, read only version D",DIVISION,MATH,Study1,F,33,74,Study,8,8,,Study/JOL,"Study Phase2",8002,,,-1,-1,,,,1
10069903KF,cgrlr1udk7,Nick_Dissertation_EX1_EP,1,202,2021-11-17T19:30:12+00:00,9.6918830871582,4,versionC_stim.csv,READVersionD.csv,"Read Version D","Dissertation, read only version D",FUTURE,PAST,Study1,S,61,61,Study,8,8,,Study/JOL,"Study Phase2",8002,,,-1,-1,,,,1
10069903KF,cgrlr1udk7,Nick_Dissertation_EX1_EP,1,203,2021-11-17T19:30:22+00:00,9.8088219165802,4,versionC_stim.csv,READVersionD.csv,"Read Version D","Dissertation, read only version D",WOULD,CASH,Study1,U,83,59,Study,8,8,,Study/JOL,"Study Phase2",8002,,,-1,-1,,,,1
10069903KF,cgrlr1udk7,Nick_Dissertation_EX1_EP,1,204,2021-11-17T19:30:31+00:00,9.4767410755157,4,versionC_stim.csv,READVersionD.csv,"Read Version D","Dissertation, read only version D",WASTE,DUMP,Study1,S,49,76,Study,8,8,,Study/JOL,"Study Phase2",8001,,,-1,-1,,,,1
10069903KF,cgrlr1udk7,Nick_Dissertation_EX1_EP,1,205,2021-11-17T19:30:41+00:00,9.4141731262207,4,versionC_stim.csv,READVersionD.csv,"Read Version D","Dissertation, read only version D",TOILET,BATHROOM,Study1,S,58,54,Study,8,8,,Study/JOL,"Study Phase2",8002,,,-1,-1,,,,1
10069903KF,cgrlr1udk7,Nick_Dissertation_EX1_EP,1,206,2021-11-17T19:30:50+00:00,9.399505853653,4,versionC_stim.csv,READVersionD.csv,"Read Version D","Dissertation, read only version D",TUCK,ALLOW,Study1,U,78,81,Study,8,8,,Study/JOL,"Study Phase2",8001,,,-1,-1,,,,1
10069903KF,cgrlr1udk7,Nick_Dissertation_EX1_EP,1,207,2021-11-17T19:31:00+00:00,9.627366065979,4,versionC_stim.csv,READVersionD.csv,"Read Version D","Dissertation, read only version D",BEE,HONEY,Study1,S,63,13,Study,8,8,,Study/JOL,"Study Phase2",8001,,,-1,-1,,,,1
10069903KF,cgrlr1udk7,Nick_Dissertation_EX1_EP,1,208,2021-11-17T19:31:09+00:00,9.5627129077911,4,versionC_stim.csv,READVersionD.csv,"Read Version D","Dissertation, read only version D",DROWSY,SLEEP,Study1,F,41,33,Study,8,8,,Study/JOL,"Study Phase2",8001,,,-1,-1,,,,0.943
10069903KF,cgrlr1udk7,Nick_Dissertation_EX1_EP,1,209,2021-11-17T19:31:19+00:00,9.471508026123,4,versionC_stim.csv,READVersionD.csv,"Read Version D","Dissertation, read only version D",BAR,GRILL,Study1,S,52,12,Study,8,8,,Study/JOL,"Study Phase2",8001,,,-1,-1,,,,1
10069903KF,cgrlr1udk7,Nick_Dissertation_EX1_EP,1,210,2021-11-17T19:31:29+00:00,9.7967920303345,4,versionC_stim.csv,READVersionD.csv,"Read Version D","Dissertation, read only version D",SALAD,LETTUCE,Study1,S,59,50,Study,8,8,,Study/JOL,"Study Phase2",8002,,,-1,-1,,,,1
10069903KF,cgrlr1udk7,Nick_Dissertation_EX1_EP,1,211,2021-11-17T19:31:38+00:00,9.587033033371,4,versionC_stim.csv,READVersionD.csv,"Read Version D","Dissertation, read only version D",ROUND,CIRCLE,Study1,S,65,24,Study,8,8,,Study/JOL,"Study Phase2",8001,,,-1,-1,,,,1
10069903KF,cgrlr1udk7,Nick_Dissertation_EX1_EP,1,212,2021-11-17T19:31:49+00:00,11.082798957825,4,versionC_stim.csv,READVersionD.csv,"Read Version D","Dissertation, read only version D",WASP,BUG,Study1,F,32,83,Study,8,8,,Study/JOL,"Study Phase2",8001,,,-1,-1,,,,1
10069903KF,cgrlr1udk7,Nick_Dissertation_EX1_EP,1,213,2021-11-17T19:31:59+00:00,9.4011671543121,4,versionC_stim.csv,READVersionD.csv,"Read Version D","Dissertation, read only version D",CHEESE,WINE,Study1,S,57,78,Study,8,8,,Study/JOL,"Study Phase2",8001,,,-1,-1,,,,1
10069903KF,cgrlr1udk7,Nick_Dissertation_EX1_EP,1,214,2021-11-17T19:32:08+00:00,9.5577728748322,4,versionC_stim.csv,READVersionD.csv,"Read Version D","Dissertation, read only version D",SEIZE,TAKE,Study1,F,29,10,Study,8,8,,Study/JOL,"Study Phase2",8001,,,-1,-1,,,,1
10069903KF,cgrlr1udk7,Nick_Dissertation_EX1_EP,1,215,2021-11-17T19:32:18+00:00,9.4790658950806,4,versionC_stim.csv,READVersionD.csv,"Read Version D","Dissertation, read only version D",PLANT,ROOT,Study1,B,13,85,Study,8,8,,Study/JOL,"Study Phase2",8005,,,-1,-1,,,,1
10069903KF,cgrlr1udk7,Nick_Dissertation_EX1_EP,1,216,2021-11-17T19:32:27+00:00,9.6779470443726,4,versionC_stim.csv,READVersionD.csv,"Read Version D","Dissertation, read only version D",DEFINITION,MEANING,Study1,S,62,21,Study,8,8,,Study/JOL,"Study Phase2",8001,,,-1,-1,,,,1
10069903KF,cgrlr1udk7,Nick_Dissertation_EX1_EP,1,217,2021-11-17T19:32:37+00:00,9.5098330974579,4,versionC_stim.csv,READVersionD.csv,"Read Version D","Dissertation, read only version D",SITE,LOCATION,Study1,S,48,15,Study,8,8,,Study/JOL,"Study Phase2",8000,,,-1,-1,,,,1
10069903KF,cgrlr1udk7,Nick_Dissertation_EX1_EP,1,218,2021-11-17T19:32:46+00:00,9.6433548927307,4,versionC_stim.csv,READVersionD.csv,"Read Version D","Dissertation, read only version D",SODA,POP,Study1,S,56,23,Study,8,8,,Study/JOL,"Study Phase2",8001,,,-1,-1,,,,1
10069903KF,cgrlr1udk7,Nick_Dissertation_EX1_EP,1,219,2021-11-17T19:32:56+00:00,9.7740461826324,4,versionC_stim.csv,READVersionD.csv,"Read Version D","Dissertation, read only version D",CHORE,WORK,Study1,F,39,20,Study,8,8,,Study/JOL,"Study Phase2",8002,,,-1,-1,,,,1
10069903KF,cgrlr1udk7,Nick_Dissertation_EX1_EP,1,220,2021-11-17T19:33:06+00:00,9.5906958580017,4,versionC_stim.csv,READVersionD.csv,"Read Version D","Dissertation, read only version D",BUSINESS,DEATH,Study1,U,72,17,Study,8,8,,Study/JOL,"Study Phase2",8002,,,-1,-1,,,,1
10069903KF,cgrlr1udk7,Nick_Dissertation_EX1_EP,1,221,2021-11-17T19:33:15+00:00,9.6237370967865,4,versionC_stim.csv,READVersionD.csv,"Read Version D","Dissertation, read only version D",BIRD,SWAN,Study1,B,14,18,Study,8,8,,Study/JOL,"Study Phase2",8000,,,-1,-1,,,,1
10069903KF,cgrlr1udk7,Nick_Dissertation_EX1_EP,1,222,2021-11-17T19:33:25+00:00,9.9027428627014,4,versionC_stim.csv,READVersionD.csv,"Read Version D","Dissertation, read only version D",CAR,HAPPY,Study1,U,77,56,Study,8,8,,Study/JOL,"Study Phase2",8001,,,-1,-1,,,,1
10069903KF,cgrlr1udk7,Nick_Dissertation_EX1_EP,1,223,2021-11-17T19:33:35+00:00,9.6810879707336,4,versionC_stim.csv,READVersionD.csv,"Read Version D","Dissertation, read only version D",FISH,TUNA,Study1,B,25,79,Study,8,8,,Study/JOL,"Study Phase2",8002,,,-1,-1,,,,1
10069903KF,cgrlr1udk7,Nick_Dissertation_EX1_EP,1,224,2021-11-17T19:33:45+00:00,9.4926722049713,4,versionC_stim.csv,READVersionD.csv,"Read Version D","Dissertation, read only version D",POSITION,MACHINE,Study1,U,76,31,Study,8,8,,Study/JOL,"Study Phase2",8001,,,-1,-1,,,,1
10069903KF,cgrlr1udk7,Nick_Dissertation_EX1_EP,1,225,2021-11-17T19:33:54+00:00,9.5054578781128,4,versionC_stim.csv,READVersionD.csv,"Read Version D","Dissertation, read only version D",CAVE,DARK,Study1,F,28,42,Study,8,8,,Study/JOL,"Study Phase2",8002,,,-1,-1,,,,1
10069903KF,cgrlr1udk7,Nick_Dissertation_EX1_EP,1,226,2021-11-17T19:34:04+00:00,9.5796740055084,4,versionC_stim.csv,READVersionD.csv,"Read Version D","Dissertation, read only version D",WATER,BRIDGE,Study1,B,18,32,Study,8,8,,Study/JOL,"Study Phase2",8001,,,-1,-1,,,,1
10069903KF,cgrlr1udk7,Nick_Dissertation_EX1_EP,1,227,2021-11-17T19:34:13+00:00,9.6237580776215,4,versionC_stim.csv,READVersionD.csv,"Read Version D","Dissertation, read only version D",COW,HERD,Study1,B,22,68,Study,8,8,,Study/JOL,"Study Phase2",8002,,,-1,-1,,,,1
10069903KF,cgrlr1udk7,Nick_Dissertation_EX1_EP,1,228,2021-11-17T19:34:25+00:00,12.172513961792,4,versionC_stim.csv,READVersionD.csv,"Read Version D","Dissertation, read only version D",FLOWER,ORCHID,Study1,B,24,11,Study,8,8,,Study/JOL,"Study Phase2",8000,,,-1,-1,,,,1
10069903KF,cgrlr1udk7,Nick_Dissertation_EX1_EP,1,229,2021-11-17T19:34:35+00:00,9.7031970024109,4,versionC_stim.csv,READVersionD.csv,"Read Version D","Dissertation, read only version D",WIND,BLOW,Study1,S,55,82,Study,8,8,,Study/JOL,"Study Phase2",8001,,,-1,-1,,,,1
10069903KF,cgrlr1udk7,Nick_Dissertation_EX1_EP,1,230,2021-11-17T19:34:45+00:00,10.163019895554,4,versionC_stim.csv,READVersionD.csv,"Read Version D","Dissertation, read only version D",WOMAN,LIFT,Study1,U,69,77,Study,8,8,,Study/JOL,"Study Phase2",8546,,,-1,-1,,,,0.682
10069903KF,cgrlr1udk7,Nick_Dissertation_EX1_EP,1,231,2021-11-17T19:34:55+00:00,9.8994700908661,4,versionC_stim.csv,READVersionD.csv,"Read Version D","Dissertation, read only version D",DOG,PAW,Study1,B,15,46,Study,8,8,,Study/JOL,"Study Phase2",8398,,,-1,-1,,,,0.308
10069903KF,cgrlr1udk7,Nick_Dissertation_EX1_EP,1,232,2021-11-17T19:35:05+00:00,9.9903190135956,4,versionC_stim.csv,READVersionD.csv,"Read Version D","Dissertation, read only version D",RACKET,BALL,Study1,F,38,55,Study,8,8,,Study/JOL,"Study Phase2",8368,,,-1,-1,,,,0.556
10069903KF,cgrlr1udk7,Nick_Dissertation_EX1_EP,1,233,2021-11-17T19:35:15+00:00,9.6297218799591,4,versionC_stim.csv,READVersionD.csv,"Read Version D","Dissertation, read only version D",END,BEGIN,Study1,S,54,71,Study,8,8,,Study/JOL,"Study Phase2",8001,,,-1,-1,,,,0.833
10069903KF,cgrlr1udk7,Nick_Dissertation_EX1_EP,1,234,2021-11-17T19:35:25+00:00,9.7716071605682,4,versionC_stim.csv,READVersionD.csv,"Read Version D","Dissertation, read only version D",STOMACH,DIGESTION,Study1,B,7,16,Study,8,8,,Study/JOL,"Study Phase2",8003,,,-1,-1,,,,1
10069903KF,cgrlr1udk7,Nick_Dissertation_EX1_EP,1,235,2021-11-17T19:35:34+00:00,9.7216708660126,4,versionC_stim.csv,READVersionD.csv,"Read Version D","Dissertation, read only version D",ADD,VALLEY,Study1,U,82,36,Study,8,8,,Study/JOL,"Study Phase2",8001,,,-1,-1,,,,1
10069903KF,cgrlr1udk7,Nick_Dissertation_EX1_EP,1,236,2021-11-17T19:35:44+00:00,9.5981819629669,4,versionC_stim.csv,READVersionD.csv,"Read Version D","Dissertation, read only version D",ACCIDENT,STRONG,Study1,U,80,49,Study,8,8,,Study/JOL,"Study Phase2",8002,,,-1,-1,,,,1
10069903KF,cgrlr1udk7,Nick_Dissertation_EX1_EP,1,237,2021-11-17T19:35:54+00:00,9.7444281578064,4,versionC_stim.csv,READVersionD.csv,"Read Version D","Dissertation, read only version D",SACKING,DIETARY,Study1,U,67,44,Study,8,8,,Study/JOL,"Study Phase2",8001,,,-1,-1,,,,1
10069903KF,cgrlr1udk7,Nick_Dissertation_EX1_EP,1,238,2021-11-17T19:36:03+00:00,9.6727328300476,4,versionC_stim.csv,READVersionD.csv,"Read Version D","Dissertation, read only version D",STENCH,SMELL,Study1,F,42,37,Study,8,8,,Study/JOL,"Study Phase2",8001,,,-1,-1,,,,1
10069903KF,cgrlr1udk7,Nick_Dissertation_EX1_EP,1,239,2021-11-17T19:36:13+00:00,9.5899641513824,4,versionC_stim.csv,READVersionD.csv,"Read Version D","Dissertation, read only version D",JURY,TRIAL,Study1,S,50,53,Study,8,8,,Study/JOL,"Study Phase2",8001,,,-1,-1,,,,1
10069903KF,cgrlr1udk7,Nick_Dissertation_EX1_EP,1,240,2021-11-17T19:36:23+00:00,9.6722140312195,4,versionC_stim.csv,READVersionD.csv,"Read Version D","Dissertation, read only version D",RIDDLE,SUGAR,Study1,U,81,52,Study,8,8,,Study/JOL,"Study Phase2",8002,,,-1,-1,,,,1
10069903KF,cgrlr1udk7,Nick_Dissertation_EX1_EP,1,241,2021-11-17T19:36:32+00:00,9.6305890083313,4,versionC_stim.csv,READVersionD.csv,"Read Version D","Dissertation, read only version D",STING,HORNET,Study1,B,11,62,Study,8,8,,Study/JOL,"Study Phase2",8002,,,-1,-1,,,,1
10069903KF,cgrlr1udk7,Nick_Dissertation_EX1_EP,1,242,2021-11-17T19:36:42+00:00,9.6301748752594,4,versionC_stim.csv,READVersionD.csv,"Read Version D","Dissertation, read only version D",ENOUGH,FULL,Study1,F,26,35,Study,8,8,,Study/JOL,"Study Phase2",8001,,,-1,-1,,,,1
10069903KF,cgrlr1udk7,Nick_Dissertation_EX1_EP,1,243,2021-11-17T19:36:52+00:00,9.7167611122131,4,versionC_stim.csv,READVersionD.csv,"Read Version D","Dissertation, read only version D",MONEY,WAGE,Study1,B,8,47,Study,8,8,,Study/JOL,"Study Phase2",8002,,,-1,-1,,,,1
10069903KF,cgrlr1udk7,Nick_Dissertation_EX1_EP,1,244,2021-11-17T19:37:01+00:00,9.4944369792938,4,versionC_stim.csv,READVersionD.csv,"Read Version D","Dissertation, read only version D",CLEAN,HYGIENE,Study1,B,17,39,Study,8,8,,Study/JOL,"Study Phase2",8001,,,-1,-1,,,,1
10069903KF,cgrlr1udk7,Nick_Dissertation_EX1_EP,1,245,2021-11-17T19:37:11+00:00,9.6336069107056,4,versionC_stim.csv,READVersionD.csv,"Read Version D","Dissertation, read only version D",OUT,WAY,Study1,B,16,45,Study,8,8,,Study/JOL,"Study Phase2",8001,,,-1,-1,,,,1
10069903KF,cgrlr1udk7,Nick_Dissertation_EX1_EP,1,246,2021-11-17T19:37:21+00:00,10.13671708107,4,versionC_stim.csv,READVersionD.csv,"Read Version D","Dissertation, read only version D",BRONZE,ARTERY,Study1,U,74,41,Study,8,8,,Study/JOL,"Study Phase2",8001,,,-1,-1,,,,1
10069903KF,cgrlr1udk7,Nick_Dissertation_EX1_EP,1,247,2021-11-17T19:37:30+00:00,9.6703610420227,4,versionC_stim.csv,READVersionD.csv,"Read Version D","Dissertation, read only version D",DESIGN,ARCHITECTURE,Study1,S,51,70,Study,8,8,,Study/JOL,"Study Phase2",8001,,,-1,-1,,,,1
10069903KF,cgrlr1udk7,Nick_Dissertation_EX1_EP,1,248,2021-11-17T19:37:40+00:00,9.4165618419647,4,versionC_stim.csv,READVersionD.csv,"Read Version D","Dissertation, read only version D",LION,ART,Study1,U,79,63,Study,8,8,,Study/JOL,"Study Phase2",8001,,,-1,-1,,,,1
10069903KF,cgrlr1udk7,Nick_Dissertation_EX1_EP,1,249,2021-11-17T19:37:49+00:00,9.450098991394,4,versionC_stim.csv,READVersionD.csv,"Read Version D","Dissertation, read only version D",ROCK,GEOLOGY,Study1,B,19,64,Study,8,8,,Study/JOL,"Study Phase2",8002,,,-1,-1,,,,1
10069903KF,cgrlr1udk7,Nick_Dissertation_EX1_EP,1,250,2021-11-17T19:37:59+00:00,9.8741841316223,4,versionC_stim.csv,READVersionD.csv,"Read Version D","Dissertation, read only version D",WAR,REVOLUTION,Study1,B,20,60,Study,8,8,,Study/JOL,"Study Phase2",8001,,,-1,-1,,,,1
10069903KF,cgrlr1udk7,Nick_Dissertation_EX1_EP,1,251,2021-11-17T19:38:09+00:00,9.5475480556488,4,versionC_stim.csv,READVersionD.csv,"Read Version D","Dissertation, read only version D",TALK,DISCUSSION,Study1,B,21,30,Study,8,8,,Study/JOL,"Study Phase2",8000,,,-1,-1,,,,1
10069903KF,cgrlr1udk7,Nick_Dissertation_EX1_EP,1,252,2021-11-17T19:38:18+00:00,9.5170879364014,4,versionC_stim.csv,READVersionD.csv,"Read Version D","Dissertation, read only version D",HUNGRY,PARK,Study1,U,68,73,Study,8,8,,Study/JOL,"Study Phase2",8001,,,-1,-1,,,,1
10069903KF,cgrlr1udk7,Nick_Dissertation_EX1_EP,1,253,2021-11-17T19:38:28+00:00,9.6063430309296,4,versionC_stim.csv,READVersionD.csv,"Read Version D","Dissertation, read only version D",COLD,BITTER,Study1,B,12,72,Study,8,8,,Study/JOL,"Study Phase2",8001,,,-1,-1,,,,1
10069903KF,cgrlr1udk7,Nick_Dissertation_EX1_EP,1,254,2021-11-17T19:38:37+00:00,9.559623003006,4,versionC_stim.csv,READVersionD.csv,"Read Version D","Dissertation, read only version D",HAMMER,CHISEL,Study1,B,9,65,Study,8,8,,Study/JOL,"Study Phase2",8001,,,-1,-1,,,,1
10069903KF,cgrlr1udk7,Nick_Dissertation_EX1_EP,1,255,2021-11-17T19:38:47+00:00,9.9256098270416,4,versionC_stim.csv,READVersionD.csv,"Read Version D","Dissertation, read only version D",BELT,SOON,Study1,U,70,38,Study,8,8,,Study/JOL,"Study Phase2",8003,,,-1,-1,,,,1
10069903KF,cgrlr1udk7,Nick_Dissertation_EX1_EP,1,256,2021-11-17T19:38:57+00:00,9.7114460468292,4,versionC_stim.csv,READVersionD.csv,"Read Version D","Dissertation, read only version D",BLAZE,FIRE,Study1,F,45,14,Study,8,8,,Study/JOL,"Study Phase2",8001,,,-1,-1,,,,1
10069903KF,cgrlr1udk7,Nick_Dissertation_EX1_EP,1,257,2021-11-17T19:39:06+00:00,9.4245581626892,4,versionC_stim.csv,READVersionD.csv,"Read Version D","Dissertation, read only version D",FLOOR,DISCOVER,Study1,U,71,84,Study,8,8,,Study/JOL,"Study Phase2",8002,,,-1,-1,,,,1
10069903KF,cgrlr1udk7,Nick_Dissertation_EX1_EP,1,258,2021-11-17T19:39:16+00:00,9.7096309661865,4,versionC_stim.csv,READVersionD.csv,"Read Version D","Dissertation, read only version D",VASE,KING,Study1,U,85,28,Study,8,8,,Study/JOL,"Study Phase2",8001,,,-1,-1,,,,1
10069903KF,cgrlr1udk7,Nick_Dissertation_EX1_EP,1,259,2021-11-17T19:39:26+00:00,9.5628018379211,4,versionC_stim.csv,READVersionD.csv,"Read Version D","Dissertation, read only version D",ASSIGNMENT,DUE,Study1,S,46,34,Study,8,8,,Study/JOL,"Study Phase2",8001,,,-1,-1,,,,1
10069903KF,cgrlr1udk7,Nick_Dissertation_EX1_EP,1,260,2021-11-17T19:39:35+00:00,9.6518270969391,4,versionC_stim.csv,READVersionD.csv,"Read Version D","Dissertation, read only version D",ATTORNEY,LAW,Study1,F,34,40,Study,8,8,,Study/JOL,"Study Phase2",8003,,,-1,-1,,,,1
10069903KF,cgrlr1udk7,Nick_Dissertation_EX1_EP,1,261,2021-11-17T19:39:45+00:00,9.5402300357819,4,versionC_stim.csv,READVersionD.csv,"Read Version D","Dissertation, read only version D",FANTASTIC,GREAT,Study1,F,35,19,Study,8,8,,Study/JOL,"Study Phase2",8001,,,-1,-1,,,,1
10069903KF,cgrlr1udk7,Nick_Dissertation_EX1_EP,1,262,2021-11-17T19:39:55+00:00,9.8106210231781,4,versionC_stim.csv,READVersionD.csv,"Read Version D","Dissertation, read only version D",AMOUNT,NUMBER,Study1,S,47,67,Study,8,8,,Study/JOL,"Study Phase2",8003,,,-1,-1,,,,1
10069903KF,cgrlr1udk7,Nick_Dissertation_EX1_EP,1,263,2021-11-17T19:40:05+00:00,9.7699630260468,4,versionC_stim.csv,READVersionD.csv,"Read Version D","Dissertation, read only version D",GROWTH,HEIGHT,Study1,F,30,69,Study,8,8,,Study/JOL,"Study Phase2",8002,,,-1,-1,,,,1
10069903KF,cgrlr1udk7,Nick_Dissertation_EX1_EP,1,264,2021-11-17T19:40:14+00:00,9.6739540100098,4,versionC_stim.csv,READVersionD.csv,"Read Version D","Dissertation, read only version D",POLICE,SHERRIF,BUFFER2,Buffer,87,91,Study,8,8,,Study/JOL,BUFFER4,8001,,,-1,-1,,,,1
10069903KF,cgrlr1udk7,Nick_Dissertation_EX1_EP,1,265,2021-11-17T19:40:24+00:00,9.6692709922791,4,versionC_stim.csv,READVersionD.csv,"Read Version D","Dissertation, read only version D",GOOSE,GEESE,BUFFER2,Buffer,86,89,Study,8,8,,Study/JOL,BUFFER4,8002,,,-1,-1,,,,1
10069903KF,cgrlr1udk7,Nick_Dissertation_EX1_EP,1,266,2021-11-17T19:40:34+00:00,9.785808801651,4,versionC_stim.csv,READVersionD.csv,"Read Version D","Dissertation, read only version D",SPACE,MOON,BUFFER2,Buffer,89,87,Study,8,8,,Study/JOL,BUFFER4,8002,,,-1,-1,,,,1
10069903KF,cgrlr1udk7,Nick_Dissertation_EX1_EP,1,267,2021-11-17T19:40:43+00:00,9.5200281143188,4,versionC_stim.csv,READVersionD.csv,"Read Version D","Dissertation, read only version D",CHOCOLATE,MALT,BUFFER2,Buffer,88,88,Study,8,8,,Study/JOL,BUFFER4,8001,,,-1,-1,,,,1
10069903KF,cgrlr1udk7,Nick_Dissertation_EX1_EP,1,268,2021-11-17T19:40:53+00:00,9.6754190921783,4,versionC_stim.csv,READVersionD.csv,"Read Version D","Dissertation, read only version D",STUFF,THING,BUFFER2,Buffer,90,90,Study,8,8,,Study/JOL,BUFFER4,8002,,,-1,-1,,,,1
10069903KF,cgrlr1udk7,Nick_Dissertation_EX1_EP,1,269,2021-11-17T19:40:57+00:00,4.412003993988,4,versionC_stim.csv,READVersionD.csv,"Read Version D","Dissertation, read only version D",,,,,,0,Instruct,User,-,"You have completed this section. Please press Enter.",Filler_Instruction,Instruct5,2573,,,-1,-1,,,,1
10069903KF,cgrlr1udk7,Nick_Dissertation_EX1_EP,1,270,2021-11-17T19:43:02+00:00,124.40943789482,4,versionC_stim.csv,READVersionD.csv,"Read Version D","Dissertation, read only version D",,,,,,0,FreeRecall,120,120,"Please list the 50 US states in reverse alphabetical order (z - a). The task will automatically advance to the next screen after two minutes.",,Filler2,120004,"wyoming washington texas pennsylvania oregan ohio mississippi minnesota michigan massachusets maryland maine louisiana d",0,23513,119374,0,0,,1
10069903KF,cgrlr1udk7,Nick_Dissertation_EX1_EP,1,271,2021-11-17T19:43:57+00:00,55.284848928452,4,versionC_stim.csv,READVersionD.csv,"Read Version D","Dissertation, read only version D",,,,,,0,Instruct,-,10,"You will now be presented with the first word from each of the previously studied item pairs. Please type the missing word. If you do not know the word, you may guess or press Enter to skip forward to the next pair.",,Instruct6,53613,,,-1,-1,,,,1
10069903KF,cgrlr1udk7,Nick_Dissertation_EX1_EP,1,272,2021-11-17T19:44:13+00:00,16.32227396965,4,versionC_stim.csv,READVersionD.csv,"Read Version D","Dissertation, read only version D",FUTURE,PAST,Study1,S,61,61,Test,User,-,,Recall,Recall2,13915,past,100,11417,13760,1,1,,1
10069903KF,cgrlr1udk7,Nick_Dissertation_EX1_EP,1,273,2021-11-17T19:44:24+00:00,10.348892211914,4,versionC_stim.csv,READVersionD.csv,"Read Version D","Dissertation, read only version D",STOMACH,DIGESTION,Study1,B,7,16,Test,User,-,,Recall,Recall2,8669,digestion,100,6858,8178,1,1,,1
10069903KF,cgrlr1udk7,Nick_Dissertation_EX1_EP,1,274,2021-11-17T19:44:29+00:00,5.500795841217,4,versionC_stim.csv,READVersionD.csv,"Read Version D","Dissertation, read only version D",GROWTH,HEIGHT,Study1,F,30,69,Test,User,-,,Recall,Recall2,3889,height,100,2204,3650,1,1,,1
10069903KF,cgrlr1udk7,Nick_Dissertation_EX1_EP,1,275,2021-11-17T19:44:37+00:00,7.7777700424194,4,versionC_stim.csv,READVersionD.csv,"Read Version D","Dissertation, read only version D",LIVER,KIDNEY,Study1,S,53,8,Test,User,-,,Recall,Recall2,6258,kidney,100,5141,5921,1,1,,1
10069903KF,cgrlr1udk7,Nick_Dissertation_EX1_EP,1,276,2021-11-17T19:45:02+00:00,25.210283994675,4,versionC_stim.csv,READVersionD.csv,"Read Version D","Dissertation, read only version D",LATCH,KEY,Study1,F,36,27,Test,User,-,,Recall,Recall2,23503,key,100,22962,23331,1,1,,1
10069903KF,cgrlr1udk7,Nick_Dissertation_EX1_EP,1,277,2021-11-17T19:45:26+00:00,23.921474933624,4,versionC_stim.csv,READVersionD.csv,"Read Version D","Dissertation, read only version D",CLEAN,HYGIENE,Study1,B,17,39,Test,User,-,,Recall,Recall2,22141,dirty,16.666666666667,21260,21988,0,0,,1
10069903KF,cgrlr1udk7,Nick_Dissertation_EX1_EP,1,278,2021-11-17T19:45:41+00:00,14.632937192917,4,versionC_stim.csv,READVersionD.csv,"Read Version D","Dissertation, read only version D",COW,HERD,Study1,B,22,68,Test,User,-,,Recall,Recall2,12598,,0,-1,-1,0,0,,1
10069903KF,cgrlr1udk7,Nick_Dissertation_EX1_EP,1,279,2021-11-17T19:46:04+00:00,23.532946825027,4,versionC_stim.csv,READVersionD.csv,"Read Version D","Dissertation, read only version D",CHORE,WORK,Study1,F,39,20,Test,User,-,,Recall,Recall2,21970,,0,-1,-1,0,0,,1
10069903KF,cgrlr1udk7,Nick_Dissertation_EX1_EP,1,280,2021-11-17T19:46:11+00:00,6.7980861663818,4,versionC_stim.csv,READVersionD.csv,"Read Version D","Dissertation, read only version D",DROWSY,SLEEP,Study1,F,41,33,Test,User,-,,Recall,Recall2,5157,sleep,100,3308,3843,1,1,,1
10069903KF,cgrlr1udk7,Nick_Dissertation_EX1_EP,1,281,2021-11-17T19:46:22+00:00,11.112198829651,4,versionC_stim.csv,READVersionD.csv,"Read Version D","Dissertation, read only version D",WOULD,CASH,Study1,U,83,59,Test,User,-,,Recall,Recall2,9399,cash,100,7618,8051,1,1,,1
10069903KF,cgrlr1udk7,Nick_Dissertation_EX1_EP,1,282,2021-11-17T19:46:37+00:00,14.405152082443,4,versionC_stim.csv,READVersionD.csv,"Read Version D","Dissertation, read only version D",SITE,LOCATION,Study1,S,48,15,Test,User,-,,Recall,Recall2,12757,debate,28.571428571429,11345,12295,0,0,,1
10069903KF,cgrlr1udk7,Nick_Dissertation_EX1_EP,1,283,2021-11-17T19:46:48+00:00,11.561055898666,4,versionC_stim.csv,READVersionD.csv,"Read Version D","Dissertation, read only version D",ACCIDENT,STRONG,Study1,U,80,49,Test,User,-,,Recall,Recall2,9812,,0,-1,-1,0,0,,1
10069903KF,cgrlr1udk7,Nick_Dissertation_EX1_EP,1,284,2021-11-17T19:46:53+00:00,4.9701631069183,4,versionC_stim.csv,READVersionD.csv,"Read Version D","Dissertation, read only version D",HAND,FIX,Study1,U,75,29,Test,User,-,,Recall,Recall2,3253,fix,100,2010,2323,1,1,,1
10069903KF,cgrlr1udk7,Nick_Dissertation_EX1_EP,1,285,2021-11-17T19:47:12+00:00,19.284301996231,4,versionC_stim.csv,READVersionD.csv,"Read Version D","Dissertation, read only version D",COLD,BITTER,Study1,B,12,72,Test,User,-,,Recall,Recall2,17600,,0,-1,-1,0,0,,1
10069903KF,cgrlr1udk7,Nick_Dissertation_EX1_EP,1,286,2021-11-17T19:47:31+00:00,18.494076967239,4,versionC_stim.csv,READVersionD.csv,"Read Version D","Dissertation, read only version D",SEIZE,TAKE,Study1,F,29,10,Test,User,-,,Recall,Recall2,16859,,0,-1,-1,0,0,,1
10069903KF,cgrlr1udk7,Nick_Dissertation_EX1_EP,1,287,2021-11-17T19:47:44+00:00,13.143419981003,4,versionC_stim.csv,READVersionD.csv,"Read Version D","Dissertation, read only version D",CHILI,HOT,Study1,F,37,43,Test,User,-,,Recall,Recall2,11577,hot,100,11125,11403,1,1,,1
10069903KF,cgrlr1udk7,Nick_Dissertation_EX1_EP,1,288,2021-11-17T19:47:53+00:00,8.8603210449219,4,versionC_stim.csv,READVersionD.csv,"Read Version D","Dissertation, read only version D",DIVISION,MATH,Study1,F,33,74,Test,User,-,,Recall,Recall2,7311,math,100,6505,6983,1,1,,1
10069903KF,cgrlr1udk7,Nick_Dissertation_EX1_EP,1,289,2021-11-17T19:48:07+00:00,14.493005037308,4,versionC_stim.csv,READVersionD.csv,"Read Version D","Dissertation, read only version D",FISH,TUNA,Study1,B,25,79,Test,User,-,,Recall,Recall2,12829,tuna,100,7103,12659,1,1,,1
10069903KF,cgrlr1udk7,Nick_Dissertation_EX1_EP,1,290,2021-11-17T19:48:13+00:00,5.640016078949,4,versionC_stim.csv,READVersionD.csv,"Read Version D","Dissertation, read only version D",AMOUNT,NUMBER,Study1,S,47,67,Test,User,-,,Recall,Recall2,3971,number,100,2859,3788,1,1,,1
10069903KF,cgrlr1udk7,Nick_Dissertation_EX1_EP,1,291,2021-11-17T19:48:38+00:00,25.4528028965,4,versionC_stim.csv,READVersionD.csv,"Read Version D","Dissertation, read only version D",DESIGN,ARCHITECTURE,Study1,S,51,70,Test,User,-,,Recall,Recall2,23753,"Architecture ",100,18034,21469,1,1,,1
10069903KF,cgrlr1udk7,Nick_Dissertation_EX1_EP,1,292,2021-11-17T19:48:50+00:00,11.359355926514,4,versionC_stim.csv,READVersionD.csv,"Read Version D","Dissertation, read only version D",JURY,TRIAL,Study1,S,50,53,Test,User,-,,Recall,Recall2,9775,duty,22.222222222222,8970,9375,0,0,,1
10069903KF,cgrlr1udk7,Nick_Dissertation_EX1_EP,1,293,2021-11-17T19:49:05+00:00,15.46092915535,4,versionC_stim.csv,READVersionD.csv,"Read Version D","Dissertation, read only version D",BIRD,SWAN,Study1,B,14,18,Test,User,-,,Recall,Recall2,13836,,0,-1,-1,0,0,,1
10069903KF,cgrlr1udk7,Nick_Dissertation_EX1_EP,1,294,2021-11-17T19:49:10+00:00,5.1745409965515,4,versionC_stim.csv,READVersionD.csv,"Read Version D","Dissertation, read only version D",BAR,GRILL,Study1,S,52,12,Test,User,-,,Recall,Recall2,2814,grill,100,1434,2379,1,1,,1
10069903KF,cgrlr1udk7,Nick_Dissertation_EX1_EP,1,295,2021-11-17T19:49:37+00:00,26.697816848755,4,versionC_stim.csv,READVersionD.csv,"Read Version D","Dissertation, read only version D",ENOUGH,FULL,Study1,F,26,35,Test,User,-,,Recall,Recall2,24921,,0,-1,-1,0,0,,1
10069903KF,cgrlr1udk7,Nick_Dissertation_EX1_EP,1,296,2021-11-17T19:50:01+00:00,23.92733001709,4,versionC_stim.csv,READVersionD.csv,"Read Version D","Dissertation, read only version D",FANTASTIC,GREAT,Study1,F,35,19,Test,User,-,,Recall,Recall2,22098,amazing,16.666666666667,18841,21630,0,0,,1
10069903KF,cgrlr1udk7,Nick_Dissertation_EX1_EP,1,297,2021-11-17T19:50:29+00:00,27.903954982758,4,versionC_stim.csv,READVersionD.csv,"Read Version D","Dissertation, read only version D",MONEY,WAGE,Study1,B,8,47,Test,User,-,,Recall,Recall2,26201,bANK,25,22533,25591,0,0,,1
10069903KF,cgrlr1udk7,Nick_Dissertation_EX1_EP,1,298,2021-11-17T19:50:36+00:00,7.2390570640564,4,versionC_stim.csv,READVersionD.csv,"Read Version D","Dissertation, read only version D",FLOWER,ORCHID,Study1,B,24,11,Test,User,-,,Recall,Recall2,5681,orchid,100,3083,5152,1,1,,1
10069903KF,cgrlr1udk7,Nick_Dissertation_EX1_EP,1,299,2021-11-17T19:50:45+00:00,9.2273290157318,4,versionC_stim.csv,READVersionD.csv,"Read Version D","Dissertation, read only version D",ASSIGNMENT,DUE,Study1,S,46,34,Test,User,-,,Recall,Recall2,7685,due,100,5420,6475,1,1,,1
10069903KF,cgrlr1udk7,Nick_Dissertation_EX1_EP,1,300,2021-11-17T19:50:55+00:00,9.3167910575867,4,versionC_stim.csv,READVersionD.csv,"Read Version D","Dissertation, read only version D",BELT,SOON,Study1,U,70,38,Test,User,-,,Recall,Recall2,7704,later,0,3850,6372,0,0,,1
10069903KF,cgrlr1udk7,Nick_Dissertation_EX1_EP,1,301,2021-11-17T19:51:05+00:00,9.9377498626709,4,versionC_stim.csv,READVersionD.csv,"Read Version D","Dissertation, read only version D",SIGHT,DEBATE,Study1,U,73,57,Test,User,-,,Recall,Recall2,8417,debate,100,5568,7148,1,1,,1
10069903KF,cgrlr1udk7,Nick_Dissertation_EX1_EP,1,302,2021-11-17T19:51:21+00:00,16.384760141373,4,versionC_stim.csv,READVersionD.csv,"Read Version D","Dissertation, read only version D",VASE,KING,Study1,U,85,28,Test,User,-,,Recall,Recall2,14426,king,100,10898,14023,1,1,,1
10069903KF,cgrlr1udk7,Nick_Dissertation_EX1_EP,1,303,2021-11-17T19:51:45+00:00,23.660794973373,4,versionC_stim.csv,READVersionD.csv,"Read Version D","Dissertation, read only version D",ROUND,CIRCLE,Study1,S,65,24,Test,User,-,,Recall,Recall2,21975,"Circle ",100,8112,18124,1,1,,1
10069903KF,cgrlr1udk7,Nick_Dissertation_EX1_EP,1,304,2021-11-17T19:51:55+00:00,10.691539049149,4,versionC_stim.csv,READVersionD.csv,"Read Version D","Dissertation, read only version D",OUT,WAY,Study1,B,16,45,Test,User,-,,Recall,Recall2,7787,in,0,6224,6415,0,0,,1
10069903KF,cgrlr1udk7,Nick_Dissertation_EX1_EP,1,305,2021-11-17T19:52:10+00:00,14.929917812347,4,versionC_stim.csv,READVersionD.csv,"Read Version D","Dissertation, read only version D",POSITION,MACHINE,Study1,U,76,31,Test,User,-,,Recall,Recall2,13398,place,50,12519,13202,0,0,,1
10069903KF,cgrlr1udk7,Nick_Dissertation_EX1_EP,1,306,2021-11-17T19:52:21+00:00,10.612815141678,4,versionC_stim.csv,READVersionD.csv,"Read Version D","Dissertation, read only version D",WIND,BLOW,Study1,S,55,82,Test,User,-,,Recall,Recall2,9046,blown,88.888888888889,5353,7754,0,1,,1
10069903KF,cgrlr1udk7,Nick_Dissertation_EX1_EP,1,307,2021-11-17T19:52:27+00:00,6.5309419631958,4,versionC_stim.csv,READVersionD.csv,"Read Version D","Dissertation, read only version D",FAMINE,HUNGER,Study1,F,40,86,Test,User,-,,Recall,Recall2,4185,hunger,100,2182,3507,1,1,,1
10069903KF,cgrlr1udk7,Nick_Dissertation_EX1_EP,1,308,2021-11-17T19:52:54+00:00,26.318634986877,4,versionC_stim.csv,READVersionD.csv,"Read Version D","Dissertation, read only version D",END,BEGIN,Study1,S,54,71,Test,User,-,,Recall,Recall2,23911,,0,-1,-1,0,0,,1
10069903KF,cgrlr1udk7,Nick_Dissertation_EX1_EP,1,309,2021-11-17T19:53:07+00:00,13.590152978897,4,versionC_stim.csv,READVersionD.csv,"Read Version D","Dissertation, read only version D",HUNGRY,PARK,Study1,U,68,73,Test,User,-,,Recall,Recall2,11898,park,100,8375,10641,1,1,,1
10069903KF,cgrlr1udk7,Nick_Dissertation_EX1_EP,1,310,2021-11-17T19:53:12+00:00,4.7439110279083,4,versionC_stim.csv,READVersionD.csv,"Read Version D","Dissertation, read only version D",WASP,BUG,Study1,F,32,83,Test,User,-,,Recall,Recall2,3221,bug,100,2483,2893,1,1,,1
10069903KF,cgrlr1udk7,Nick_Dissertation_EX1_EP,1,311,2021-11-17T19:53:26+00:00,13.834878921509,4,versionC_stim.csv,READVersionD.csv,"Read Version D","Dissertation, read only version D",BAD,DELINQUENT,Study1,B,6,51,Test,User,-,,Recall,Recall2,12276,"Delinquent ",100,8278,9574,1,1,,1
10069903KF,cgrlr1udk7,Nick_Dissertation_EX1_EP,1,312,2021-11-17T19:53:42+00:00,16.350087165833,4,versionC_stim.csv,READVersionD.csv,"Read Version D","Dissertation, read only version D",WASTE,DUMP,Study1,S,49,76,Test,User,-,,Recall,Recall2,14620,dump,100,12356,13321,1,1,,1
10069903KF,cgrlr1udk7,Nick_Dissertation_EX1_EP,1,313,2021-11-17T19:54:00+00:00,18.007604837418,4,versionC_stim.csv,READVersionD.csv,"Read Version D","Dissertation, read only version D",HAMMER,CHISEL,Study1,B,9,65,Test,User,-,,Recall,Recall2,16227,nail,40,15356,15902,0,0,,1
10069903KF,cgrlr1udk7,Nick_Dissertation_EX1_EP,1,314,2021-11-17T19:54:05+00:00,5.0391809940338,4,versionC_stim.csv,READVersionD.csv,"Read Version D","Dissertation, read only version D",CHEESE,WINE,Study1,S,57,78,Test,User,-,,Recall,Recall2,3140,wine,100,2405,2814,1,1,,1
10069903KF,cgrlr1udk7,Nick_Dissertation_EX1_EP,1,315,2021-11-17T19:54:17+00:00,11.672991991043,4,versionC_stim.csv,READVersionD.csv,"Read Version D","Dissertation, read only version D",DEFINITION,MEANING,Study1,S,62,21,Test,User,-,,Recall,Recall2,10047,meaning,100,8353,9798,1,1,,1
10069903KF,cgrlr1udk7,Nick_Dissertation_EX1_EP,1,316,2021-11-17T19:54:30+00:00,12.65836596489,4,versionC_stim.csv,READVersionD.csv,"Read Version D","Dissertation, read only version D",STENCH,SMELL,Study1,F,42,37,Test,User,-,,Recall,Recall2,10450,odor,0,2261,2642,0,0,,1
10069903KF,cgrlr1udk7,Nick_Dissertation_EX1_EP,1,317,2021-11-17T19:54:45+00:00,15.443544149399,4,versionC_stim.csv,READVersionD.csv,"Read Version D","Dissertation, read only version D",BUSINESS,DEATH,Study1,U,72,17,Test,User,-,,Recall,Recall2,13749,,0,-1,-1,0,0,,1
10069903KF,cgrlr1udk7,Nick_Dissertation_EX1_EP,1,318,2021-11-17T19:54:52+00:00,6.9695219993591,4,versionC_stim.csv,READVersionD.csv,"Read Version D","Dissertation, read only version D",LION,ART,Study1,U,79,63,Test,User,-,,Recall,Recall2,5238,art,100,3929,4494,1,1,,1
10069903KF,cgrlr1udk7,Nick_Dissertation_EX1_EP,1,319,2021-11-17T19:55:02+00:00,10.056441068649,4,versionC_stim.csv,READVersionD.csv,"Read Version D","Dissertation, read only version D",NEWS,EDITOR,Study1,B,10,25,Test,User,-,,Recall,Recall2,8307,editor,100,4911,7640,1,1,,1
10069903KF,cgrlr1udk7,Nick_Dissertation_EX1_EP,1,320,2021-11-17T19:55:10+00:00,8.2108829021454,4,versionC_stim.csv,READVersionD.csv,"Read Version D","Dissertation, read only version D",ROCK,GEOLOGY,Study1,B,19,64,Test,User,-,,Recall,Recall2,6382,"Geology ",100,2970,3914,1,1,,1
10069903KF,cgrlr1udk7,Nick_Dissertation_EX1_EP,1,321,2021-11-17T19:55:16+00:00,5.7666149139404,4,versionC_stim.csv,READVersionD.csv,"Read Version D","Dissertation, read only version D",CHILD,BABY,Study1,S,64,22,Test,User,-,,Recall,Recall2,4048,baby,100,2531,3142,1,1,,1
10069903KF,cgrlr1udk7,Nick_Dissertation_EX1_EP,1,322,2021-11-17T19:55:24+00:00,7.5545480251312,4,versionC_stim.csv,READVersionD.csv,"Read Version D","Dissertation, read only version D",TUCK,ALLOW,Study1,U,78,81,Test,User,-,,Recall,Recall2,6008,,0,-1,-1,0,0,,1
10069903KF,cgrlr1udk7,Nick_Dissertation_EX1_EP,1,323,2021-11-17T19:55:36+00:00,12.214195013046,4,versionC_stim.csv,READVersionD.csv,"Read Version D","Dissertation, read only version D",WAR,REVOLUTION,Study1,B,20,60,Test,User,-,,Recall,Recall2,10635,"Revolution ",100,7011,8963,1,1,,1
10069903KF,cgrlr1udk7,Nick_Dissertation_EX1_EP,1,324,2021-11-17T19:55:44+00:00,8.082072019577,4,versionC_stim.csv,READVersionD.csv,"Read Version D","Dissertation, read only version D",CAR,HAPPY,Study1,U,77,56,Test,User,-,,Recall,Recall2,6420,happy,100,4045,5422,1,1,,1
10069903KF,cgrlr1udk7,Nick_Dissertation_EX1_EP,1,325,2021-11-17T19:55:54+00:00,9.7180449962616,4,versionC_stim.csv,READVersionD.csv,"Read Version D","Dissertation, read only version D",TOILET,BATHROOM,Study1,S,58,54,Test,User,-,,Recall,Recall2,8158,bathroom,100,5065,7226,1,1,,1
10069903KF,cgrlr1udk7,Nick_Dissertation_EX1_EP,1,326,2021-11-17T19:56:00+00:00,6.6615250110626,4,versionC_stim.csv,READVersionD.csv,"Read Version D","Dissertation, read only version D",SACKING,DIETARY,Study1,U,67,44,Test,User,-,,Recall,Recall2,5143,,0,-1,-1,0,0,,1
10069903KF,cgrlr1udk7,Nick_Dissertation_EX1_EP,1,327,2021-11-17T19:56:04+00:00,3.6990280151367,4,versionC_stim.csv,READVersionD.csv,"Read Version D","Dissertation, read only version D",CLUTTER,PUSHER,Study1,U,66,80,Test,User,-,,Recall,Recall2,2133,,0,-1,-1,0,0,,1
10069903KF,cgrlr1udk7,Nick_Dissertation_EX1_EP,1,328,2021-11-17T19:56:28+00:00,24.02148103714,4,versionC_stim.csv,READVersionD.csv,"Read Version D","Dissertation, read only version D",WATER,BRIDGE,Study1,B,18,32,Test,User,-,,Recall,Recall2,22359,drink,36.363636363636,20687,21431,0,0,,1
10069903KF,cgrlr1udk7,Nick_Dissertation_EX1_EP,1,329,2021-11-17T19:56:35+00:00,6.5425388813019,4,versionC_stim.csv,READVersionD.csv,"Read Version D","Dissertation, read only version D",FLOOR,DISCOVER,Study1,U,71,84,Test,User,-,,Recall,Recall2,4972,discover,100,1686,4728,1,1,,1
10069903KF,cgrlr1udk7,Nick_Dissertation_EX1_EP,1,330,2021-11-17T19:56:47+00:00,11.864454984665,4,versionC_stim.csv,READVersionD.csv,"Read Version D","Dissertation, read only version D",PLANT,ROOT,Study1,B,13,85,Test,User,-,,Recall,Recall2,9519,,0,-1,-1,0,0,,1
10069903KF,cgrlr1udk7,Nick_Dissertation_EX1_EP,1,331,2021-11-17T19:56:55+00:00,8.8608260154724,4,versionC_stim.csv,READVersionD.csv,"Read Version D","Dissertation, read only version D",ADD,VALLEY,Study1,U,82,36,Test,User,-,,Recall,Recall2,7285,take,40,5887,6543,0,0,,1
10069903KF,cgrlr1udk7,Nick_Dissertation_EX1_EP,1,332,2021-11-17T19:57:01+00:00,5.4047620296478,4,versionC_stim.csv,READVersionD.csv,"Read Version D","Dissertation, read only version D",RIDDLE,SUGAR,Study1,U,81,52,Test,User,-,,Recall,Recall2,3776,rhyme,20,1991,2862,0,0,,1
10069903KF,cgrlr1udk7,Nick_Dissertation_EX1_EP,1,333,2021-11-17T19:57:05+00:00,4.3629779815674,4,versionC_stim.csv,READVersionD.csv,"Read Version D","Dissertation, read only version D",CAVE,DARK,Study1,F,28,42,Test,User,-,,Recall,Recall2,2607,dark,100,1585,2206,1,1,,1
10069903KF,cgrlr1udk7,Nick_Dissertation_EX1_EP,1,334,2021-11-17T19:57:12+00:00,6.9294521808624,4,versionC_stim.csv,READVersionD.csv,"Read Version D","Dissertation, read only version D",BEE,HONEY,Study1,S,63,13,Test,User,-,,Recall,Recall2,5259,honey,100,2226,3829,1,1,,1
10069903KF,cgrlr1udk7,Nick_Dissertation_EX1_EP,1,335,2021-11-17T19:57:27+00:00,14.698407888412,4,versionC_stim.csv,READVersionD.csv,"Read Version D","Dissertation, read only version D",CARD,CREDIT,Study1,B,23,7,Test,User,-,,Recall,Recall2,9766,credit,100,4746,9241,1,1,,1
10069903KF,cgrlr1udk7,Nick_Dissertation_EX1_EP,1,336,2021-11-17T19:57:32+00:00,4.9998989105225,4,versionC_stim.csv,READVersionD.csv,"Read Version D","Dissertation, read only version D",SODA,POP,Study1,S,56,23,Test,User,-,,Recall,Recall2,3049,pop,100,1866,2228,1,1,,1
10069903KF,cgrlr1udk7,Nick_Dissertation_EX1_EP,1,337,2021-11-17T19:57:52+00:00,20.41163611412,4,versionC_stim.csv,READVersionD.csv,"Read Version D","Dissertation, read only version D",WORD,SENTENCE,Study1,F,31,75,Test,User,-,,Recall,Recall2,18722,puzzle,14.285714285714,17274,18497,0,0,,1
10069903KF,cgrlr1udk7,Nick_Dissertation_EX1_EP,1,338,2021-11-17T19:58:15+00:00,22.595027923584,4,versionC_stim.csv,READVersionD.csv,"Read Version D","Dissertation, read only version D",SICK,HIDE,Study1,U,84,58,Test,User,-,,Recall,Recall2,20993,hide,100,18477,19902,1,1,,1
10069903KF,cgrlr1udk7,Nick_Dissertation_EX1_EP,1,339,2021-11-17T19:58:23+00:00,7.7593519687653,4,versionC_stim.csv,READVersionD.csv,"Read Version D","Dissertation, read only version D",TALK,DISCUSSION,Study1,B,21,30,Test,User,-,,Recall,Recall2,6247,discuss,82.352941176471,3867,5415,0,1,,1
10069903KF,cgrlr1udk7,Nick_Dissertation_EX1_EP,1,340,2021-11-17T19:58:28+00:00,5.0421459674835,4,versionC_stim.csv,READVersionD.csv,"Read Version D","Dissertation, read only version D",WOMAN,LIFT,Study1,U,69,77,Test,User,-,,Recall,Recall2,3436,man,0,2220,2456,0,0,,1
10069903KF,cgrlr1udk7,Nick_Dissertation_EX1_EP,1,341,2021-11-17T19:58:35+00:00,7.5125730037689,4,versionC_stim.csv,READVersionD.csv,"Read Version D","Dissertation, read only version D",SALAD,LETTUCE,Study1,S,59,50,Test,User,-,,Recall,Recall2,5970,lettuce,100,4420,5752,1,1,,1
10069903KF,cgrlr1udk7,Nick_Dissertation_EX1_EP,1,342,2021-11-17T19:58:40+00:00,5.1879501342773,4,versionC_stim.csv,READVersionD.csv,"Read Version D","Dissertation, read only version D",ATTORNEY,LAW,Study1,F,34,40,Test,User,-,,Recall,Recall2,3501,law,100,2271,2775,1,1,,1
10069903KF,cgrlr1udk7,Nick_Dissertation_EX1_EP,1,343,2021-11-17T19:58:49+00:00,9.1692218780518,4,versionC_stim.csv,READVersionD.csv,"Read Version D","Dissertation, read only version D",BLAZE,FIRE,Study1,F,45,14,Test,User,-,,Recall,Recall2,7559,fire,100,6271,6688,1,1,,1
10069903KF,cgrlr1udk7,Nick_Dissertation_EX1_EP,1,344,2021-11-17T19:59:04+00:00,15.050507068634,4,versionC_stim.csv,READVersionD.csv,"Read Version D","Dissertation, read only version D",BRONZE,ARTERY,Study1,U,74,41,Test,User,-,,Recall,Recall2,13102,gold,0,12338,12865,0,0,,1
10069903KF,cgrlr1udk7,Nick_Dissertation_EX1_EP,1,345,2021-11-17T19:59:11+00:00,6.5168449878693,4,versionC_stim.csv,READVersionD.csv,"Read Version D","Dissertation, read only version D",RACKET,BALL,Study1,F,38,55,Test,User,-,,Recall,Recall2,4654,tennis,0,2233,3335,0,0,,1
10069903KF,cgrlr1udk7,Nick_Dissertation_EX1_EP,1,346,2021-11-17T19:59:16+00:00,5.3145771026611,4,versionC_stim.csv,READVersionD.csv,"Read Version D","Dissertation, read only version D",DOG,PAW,Study1,B,15,46,Test,User,-,,Recall,Recall2,3720,paw,100,1977,2898,1,1,,1
10069903KF,cgrlr1udk7,Nick_Dissertation_EX1_EP,1,347,2021-11-17T19:59:21+00:00,5.142434835434,4,versionC_stim.csv,READVersionD.csv,"Read Version D","Dissertation, read only version D",SIP,DRINK,Study1,F,27,66,Test,User,-,,Recall,Recall2,3616,drink,100,2106,3268,1,1,,1
10069903KF,cgrlr1udk7,Nick_Dissertation_EX1_EP,1,348,2021-11-17T19:59:31+00:00,9.3297021389008,4,versionC_stim.csv,READVersionD.csv,"Read Version D","Dissertation, read only version D",STING,HORNET,Study1,B,11,62,Test,User,-,,Recall,Recall2,7026,hornet,100,5988,6819,1,1,,1
10069903KF,cgrlr1udk7,Nick_Dissertation_EX1_EP,1,349,2021-11-17T19:59:38+00:00,6.9792840480804,4,versionC_stim.csv,READVersionD.csv,"Read Version D","Dissertation, read only version D",FOOT,SHOE,Study1,S,60,9,Test,User,-,,Recall,Recall2,5293,shoe,100,1898,4588,1,1,,1
10069903KF,cgrlr1udk7,Nick_Dissertation_EX1_EP,1,350,2021-11-17T19:59:52+00:00,14.035409927368,4,versionC_stim.csv,READVersionD.csv,"Read Version D","Dissertation, read only version D",ATTIRE,CLOTHES,Study1,F,43,48,Test,User,-,,Recall,Recall2,12525,clothes,100,11407,12403,1,1,,1
10069903KF,cgrlr1udk7,Nick_Dissertation_EX1_EP,1,351,2021-11-17T19:59:57+00:00,5.4631080627441,4,versionC_stim.csv,READVersionD.csv,"Read Version D","Dissertation, read only version D",PILOT,PLANE,Study1,F,44,26,Test,User,-,,Recall,Recall2,3946,plane,100,3059,3748,1,1,,1
10069903KF,cgrlr1udk7,Nick_Dissertation_EX1_EP,1,352,2021-11-17T20:00:01+00:00,4.0943999290466,4,versionC_stim.csv,READVersionD.csv,"Read Version D","Dissertation, read only version D",,,,,,0,Instruct,User,-,"You have completed this section. Please press Enter.",,Instruct7,2480,,,-1,-1,,,,1
