Username,ID,ExperimentName,Session,Trial,Date,TimeDif,"Condition Number","Stimuli File","Order File","Condition Description","Condition Notes",Stimuli*Cue,Stimuli*Answer,Stimuli*Shuffle,"Stimuli*Stimuli Notes",Stimuli*Value,Procedure*Item,"Procedure*Trial Type","Procedure*Max Time","Procedure*Min Time",Procedure*Text,"Procedure*Procedure Notes",Procedure*Shuffle,Response*RT,Response*Response,Response*Accuracy,Response*RTfirst,Response*RTlast,Response*strictAcc,Response*lenientAcc,Response*focus,Response*Focus
w10054787_jpc,jrrdtzio1d,Nick_Dissertation_EX1_EP,1,1,2021-11-06T22:11:28+00:00,17.376636981964,4,versionC_stim.csv,READVersionD.csv,"Read Version D","Dissertation, read only version D",,,,,,0,Instruct,-,5,"In this section, you will be presented with a series of word pairs.",Initial_Instruct,Instruct1,14612,,,-1,-1,,,,1
w10054787_jpc,jrrdtzio1d,Nick_Dissertation_EX1_EP,1,2,2021-11-06T22:11:51+00:00,23.680170059204,4,versionC_stim.csv,READVersionD.csv,"Read Version D","Dissertation, read only version D",,,,,,0,Instruct,-,10,"Each word will be displayed on the computer screen for 8 seconds. The screen will automatically move to the next pair when time is up. Please study each pair. Your memory will be tested!",,Instruct15,23320,,,-1,-1,,,,0.953
w10054787_jpc,jrrdtzio1d,Nick_Dissertation_EX1_EP,1,3,2021-11-06T22:11:58+00:00,6.5022208690643,4,versionC_stim.csv,READVersionD.csv,"Read Version D","Dissertation, read only version D",,,,,,0,Instruct,User,-,"You will now begin the study. Press Enter when you are ready to begin.",,Instruct16,5748,,,-1,-1,,,,1
w10054787_jpc,jrrdtzio1d,Nick_Dissertation_EX1_EP,1,4,2021-11-06T22:12:07+00:00,8.5241689682007,4,versionC_stim.csv,READVersionD.csv,"Read Version D","Dissertation, read only version D",FISH,SHRIMP,BUFFER3,Buffer,93,95,Study,8,8,,Study/JOL,BUFFER,8001,,,-1,-1,,,,1
w10054787_jpc,jrrdtzio1d,Nick_Dissertation_EX1_EP,1,5,2021-11-06T22:12:15+00:00,8.3567202091217,4,versionC_stim.csv,READVersionD.csv,"Read Version D","Dissertation, read only version D",POTATO,CARROT,BUFFER3,Buffer,91,92,Study,8,8,,Study/JOL,BUFFER,8003,,,-1,-1,,,,1
w10054787_jpc,jrrdtzio1d,Nick_Dissertation_EX1_EP,1,6,2021-11-06T22:12:57+00:00,42.59345293045,4,versionC_stim.csv,READVersionD.csv,"Read Version D","Dissertation, read only version D",ADVENTURE,CAMP,BUFFER3,Buffer,95,94,Study,8,8,,Study/JOL,BUFFER,8003,,,-1,-1,,,,1
w10054787_jpc,jrrdtzio1d,Nick_Dissertation_EX1_EP,1,7,2021-11-06T22:13:06+00:00,8.5622589588165,4,versionC_stim.csv,READVersionD.csv,"Read Version D","Dissertation, read only version D",FROZEN,ICE,BUFFER3,Buffer,94,96,Study,8,8,,Study/JOL,BUFFER,8003,,,-1,-1,,,,1
w10054787_jpc,jrrdtzio1d,Nick_Dissertation_EX1_EP,1,8,2021-11-06T22:13:15+00:00,8.7155160903931,4,versionC_stim.csv,READVersionD.csv,"Read Version D","Dissertation, read only version D",STRING,NOODLE,BUFFER3,Buffer,92,93,Study,8,8,,Study/JOL,BUFFER,8001,,,-1,-1,,,,1
w10054787_jpc,jrrdtzio1d,Nick_Dissertation_EX1_EP,1,9,2021-11-06T22:13:23+00:00,8.601212978363,4,versionC_stim.csv,READVersionD.csv,"Read Version D","Dissertation, read only version D",DONKEY,MULE,Study2,B,108,126,Study,8,8,,Study/JOL,"Study Phase",8001,,,-1,-1,,,,1
w10054787_jpc,jrrdtzio1d,Nick_Dissertation_EX1_EP,1,10,2021-11-06T22:13:32+00:00,8.5097179412842,4,versionC_stim.csv,READVersionD.csv,"Read Version D","Dissertation, read only version D",OUNCE,BOTH,Study2,U,172,133,Study,8,8,,Study/JOL,"Study Phase",8001,,,-1,-1,,,,1
w10054787_jpc,jrrdtzio1d,Nick_Dissertation_EX1_EP,1,11,2021-11-06T22:13:42+00:00,9.9109160900116,4,versionC_stim.csv,READVersionD.csv,"Read Version D","Dissertation, read only version D",WINDSHIELD,CAR,Study2,F,117,109,Study,8,8,,Study/JOL,"Study Phase",8003,,,-1,-1,,,,1
w10054787_jpc,jrrdtzio1d,Nick_Dissertation_EX1_EP,1,12,2021-11-06T22:13:50+00:00,8.6255788803101,4,versionC_stim.csv,READVersionD.csv,"Read Version D","Dissertation, read only version D",SHAKE,Shell,Study2,U,163,122,Study,8,8,,Study/JOL,"Study Phase",8003,,,-1,-1,,,,1
w10054787_jpc,jrrdtzio1d,Nick_Dissertation_EX1_EP,1,13,2021-11-06T22:14:03+00:00,12.777921915054,4,versionC_stim.csv,READVersionD.csv,"Read Version D","Dissertation, read only version D",STRAWBERRY,FRUIT,Study2,F,124,103,Study,8,8,,Study/JOL,"Study Phase",8000,,,-1,-1,,,,1
w10054787_jpc,jrrdtzio1d,Nick_Dissertation_EX1_EP,1,14,2021-11-06T22:14:12+00:00,8.4483799934387,4,versionC_stim.csv,READVersionD.csv,"Read Version D","Dissertation, read only version D",TOIL,LEASE,Study2,U,170,100,Study,8,8,,Study/JOL,"Study Phase",8002,,,-1,-1,,,,1
w10054787_jpc,jrrdtzio1d,Nick_Dissertation_EX1_EP,1,15,2021-11-06T22:14:20+00:00,8.6003091335297,4,versionC_stim.csv,READVersionD.csv,"Read Version D","Dissertation, read only version D",TAN,SUN,Study2,S,155,136,Study,8,8,,Study/JOL,"Study Phase",8002,,,-1,-1,,,,1
w10054787_jpc,jrrdtzio1d,Nick_Dissertation_EX1_EP,1,16,2021-11-06T22:14:29+00:00,8.4777610301971,4,versionC_stim.csv,READVersionD.csv,"Read Version D","Dissertation, read only version D",CUT,CHOP,Study2,B,107,174,Study,8,8,,Study/JOL,"Study Phase",8003,,,-1,-1,,,,1
w10054787_jpc,jrrdtzio1d,Nick_Dissertation_EX1_EP,1,17,2021-11-06T22:14:37+00:00,8.6132440567017,4,versionC_stim.csv,READVersionD.csv,"Read Version D","Dissertation, read only version D",FLIP,TURN,Study2,F,116,121,Study,8,8,,Study/JOL,"Study Phase",8009,,,-1,-1,,,,1
w10054787_jpc,jrrdtzio1d,Nick_Dissertation_EX1_EP,1,18,2021-11-06T22:14:46+00:00,8.6218569278717,4,versionC_stim.csv,READVersionD.csv,"Read Version D","Dissertation, read only version D",PENGUIN,BIRD,Study2,F,119,128,Study,8,8,,Study/JOL,"Study Phase",8002,,,-1,-1,,,,1
w10054787_jpc,jrrdtzio1d,Nick_Dissertation_EX1_EP,1,19,2021-11-06T22:14:55+00:00,8.6349940299988,4,versionC_stim.csv,READVersionD.csv,"Read Version D","Dissertation, read only version D",HATE,NAME,Study2,U,167,125,Study,8,8,,Study/JOL,"Study Phase",8002,,,-1,-1,,,,1
w10054787_jpc,jrrdtzio1d,Nick_Dissertation_EX1_EP,1,20,2021-11-06T22:15:03+00:00,8.4181218147278,4,versionC_stim.csv,READVersionD.csv,"Read Version D","Dissertation, read only version D",TICK,FLEA,Study2,S,151,137,Study,8,8,,Study/JOL,"Study Phase",8002,,,-1,-1,,,,1
w10054787_jpc,jrrdtzio1d,Nick_Dissertation_EX1_EP,1,21,2021-11-06T22:15:12+00:00,8.6224210262299,4,versionC_stim.csv,READVersionD.csv,"Read Version D","Dissertation, read only version D",EQUAL,RIGHTS,Study2,S,137,149,Study,8,8,,Study/JOL,"Study Phase",8001,,,-1,-1,,,,1
w10054787_jpc,jrrdtzio1d,Nick_Dissertation_EX1_EP,1,22,2021-11-06T22:15:20+00:00,8.6448271274567,4,versionC_stim.csv,READVersionD.csv,"Read Version D","Dissertation, read only version D",STEAK,GIVE,Study2,U,158,173,Study,8,8,,Study/JOL,"Study Phase",8002,,,-1,-1,,,,1
w10054787_jpc,jrrdtzio1d,Nick_Dissertation_EX1_EP,1,23,2021-11-06T22:15:29+00:00,8.5841069221497,4,versionC_stim.csv,READVersionD.csv,"Read Version D","Dissertation, read only version D",JAR,MASON,Study2,S,138,152,Study,8,8,,Study/JOL,"Study Phase",8001,,,-1,-1,,,,1
w10054787_jpc,jrrdtzio1d,Nick_Dissertation_EX1_EP,1,24,2021-11-06T22:15:37+00:00,8.6097600460052,4,versionC_stim.csv,READVersionD.csv,"Read Version D","Dissertation, read only version D",LONELY,ALONE,Study2,S,145,168,Study,8,8,,Study/JOL,"Study Phase",8002,,,-1,-1,,,,1
w10054787_jpc,jrrdtzio1d,Nick_Dissertation_EX1_EP,1,25,2021-11-06T22:15:46+00:00,8.6144199371338,4,versionC_stim.csv,READVersionD.csv,"Read Version D","Dissertation, read only version D",FAVORITE,BEST,Study2,F,125,101,Study,8,8,,Study/JOL,"Study Phase",8001,,,-1,-1,,,,1
w10054787_jpc,jrrdtzio1d,Nick_Dissertation_EX1_EP,1,26,2021-11-06T22:15:55+00:00,8.608274936676,4,versionC_stim.csv,READVersionD.csv,"Read Version D","Dissertation, read only version D",REEL,ROD,Study2,S,150,132,Study,8,8,,Study/JOL,"Study Phase",8002,,,-1,-1,,,,1
w10054787_jpc,jrrdtzio1d,Nick_Dissertation_EX1_EP,1,27,2021-11-06T22:16:03+00:00,8.4352090358734,4,versionC_stim.csv,READVersionD.csv,"Read Version D","Dissertation, read only version D",WET,DRY,Study2,S,146,108,Study,8,8,,Study/JOL,"Study Phase",8003,,,-1,-1,,,,1
w10054787_jpc,jrrdtzio1d,Nick_Dissertation_EX1_EP,1,28,2021-11-06T22:16:12+00:00,8.6180341243744,4,versionC_stim.csv,READVersionD.csv,"Read Version D","Dissertation, read only version D",SEATBELT,SAFETY,Study2,S,147,143,Study,8,8,,Study/JOL,"Study Phase",8002,,,-1,-1,,,,1
w10054787_jpc,jrrdtzio1d,Nick_Dissertation_EX1_EP,1,29,2021-11-06T22:16:21+00:00,9.0613298416138,4,versionC_stim.csv,READVersionD.csv,"Read Version D","Dissertation, read only version D",COFFIN,DEAD,Study2,F,128,153,Study,8,8,,Study/JOL,"Study Phase",8000,,,-1,-1,,,,1
w10054787_jpc,jrrdtzio1d,Nick_Dissertation_EX1_EP,1,30,2021-11-06T22:16:29+00:00,8.7116031646729,4,versionC_stim.csv,READVersionD.csv,"Read Version D","Dissertation, read only version D",SIGN,LOAN,Study2,U,171,157,Study,8,8,,Study/JOL,"Study Phase",8002,,,-1,-1,,,,1
w10054787_jpc,jrrdtzio1d,Nick_Dissertation_EX1_EP,1,31,2021-11-06T22:16:38+00:00,8.5647668838501,4,versionC_stim.csv,READVersionD.csv,"Read Version D","Dissertation, read only version D",RED,CHERRY,Study2,B,104,129,Study,8,8,,Study/JOL,"Study Phase",8002,,,-1,-1,,,,1
w10054787_jpc,jrrdtzio1d,Nick_Dissertation_EX1_EP,1,32,2021-11-06T22:16:47+00:00,8.5866551399231,4,versionC_stim.csv,READVersionD.csv,"Read Version D","Dissertation, read only version D",END,ADJOURN,Study2,B,101,106,Study,8,8,,Study/JOL,"Study Phase",8000,,,-1,-1,,,,1
w10054787_jpc,jrrdtzio1d,Nick_Dissertation_EX1_EP,1,33,2021-11-06T22:16:55+00:00,8.655809879303,4,versionC_stim.csv,READVersionD.csv,"Read Version D","Dissertation, read only version D",ACTRESS,STAR,Study2,F,120,114,Study,8,8,,Study/JOL,"Study Phase",8000,,,-1,-1,,,,1
w10054787_jpc,jrrdtzio1d,Nick_Dissertation_EX1_EP,1,34,2021-11-06T22:17:04+00:00,8.5682229995728,4,versionC_stim.csv,READVersionD.csv,"Read Version D","Dissertation, read only version D",BANG,FUZZY,Study2,U,168,130,Study,8,8,,Study/JOL,"Study Phase",8003,,,-1,-1,,,,1
w10054787_jpc,jrrdtzio1d,Nick_Dissertation_EX1_EP,1,35,2021-11-06T22:17:12+00:00,8.6189751625061,4,versionC_stim.csv,READVersionD.csv,"Read Version D","Dissertation, read only version D",BRAWL,FIGHT,Study2,F,135,161,Study,8,8,,Study/JOL,"Study Phase",8002,,,-1,-1,,,,1
w10054787_jpc,jrrdtzio1d,Nick_Dissertation_EX1_EP,1,36,2021-11-06T22:17:21+00:00,8.6150569915771,4,versionC_stim.csv,READVersionD.csv,"Read Version D","Dissertation, read only version D",OBTAIN,MEAT,Study2,U,161,140,Study,8,8,,Study/JOL,"Study Phase",8011,,,-1,-1,,,,1
w10054787_jpc,jrrdtzio1d,Nick_Dissertation_EX1_EP,1,37,2021-11-06T22:17:30+00:00,8.6318109035492,4,versionC_stim.csv,READVersionD.csv,"Read Version D","Dissertation, read only version D",MYSTERY,DETECTIVE,Study2,B,100,110,Study,8,8,,Study/JOL,"Study Phase",8002,,,-1,-1,,,,1
w10054787_jpc,jrrdtzio1d,Nick_Dissertation_EX1_EP,1,38,2021-11-06T22:17:38+00:00,8.5842759609222,4,versionC_stim.csv,READVersionD.csv,"Read Version D","Dissertation, read only version D",FIGHT,FEUD,Study2,B,113,164,Study,8,8,,Study/JOL,"Study Phase",8010,,,-1,-1,,,,1
w10054787_jpc,jrrdtzio1d,Nick_Dissertation_EX1_EP,1,39,2021-11-06T22:17:47+00:00,8.5979540348053,4,versionC_stim.csv,READVersionD.csv,"Read Version D","Dissertation, read only version D",BANKER,MONEY,Study2,F,132,172,Study,8,8,,Study/JOL,"Study Phase",8002,,,-1,-1,,,,1
w10054787_jpc,jrrdtzio1d,Nick_Dissertation_EX1_EP,1,40,2021-11-06T22:17:56+00:00,8.6219940185547,4,versionC_stim.csv,READVersionD.csv,"Read Version D","Dissertation, read only version D",GAME,CLUE,Study2,B,97,165,Study,8,8,,Study/JOL,"Study Phase",8001,,,-1,-1,,,,1
w10054787_jpc,jrrdtzio1d,Nick_Dissertation_EX1_EP,1,41,2021-11-06T22:18:04+00:00,8.4256360530853,4,versionC_stim.csv,READVersionD.csv,"Read Version D","Dissertation, read only version D",AWAY,GONE,Study2,S,142,175,Study,8,8,,Study/JOL,"Study Phase",8002,,,-1,-1,,,,1
w10054787_jpc,jrrdtzio1d,Nick_Dissertation_EX1_EP,1,42,2021-11-06T22:18:13+00:00,8.5655908584595,4,versionC_stim.csv,READVersionD.csv,"Read Version D","Dissertation, read only version D",DOG,FURRY,Study2,B,102,138,Study,8,8,,Study/JOL,"Study Phase",8002,,,-1,-1,,,,1
w10054787_jpc,jrrdtzio1d,Nick_Dissertation_EX1_EP,1,43,2021-11-06T22:18:21+00:00,8.588268995285,4,versionC_stim.csv,READVersionD.csv,"Read Version D","Dissertation, read only version D",NAP,SLEEP,Study2,F,134,150,Study,8,8,,Study/JOL,"Study Phase",8003,,,-1,-1,,,,1
w10054787_jpc,jrrdtzio1d,Nick_Dissertation_EX1_EP,1,44,2021-11-06T22:18:30+00:00,8.6120071411133,4,versionC_stim.csv,READVersionD.csv,"Read Version D","Dissertation, read only version D",EAT,DINE,Study2,B,111,135,Study,8,8,,Study/JOL,"Study Phase",8002,,,-1,-1,,,,1
w10054787_jpc,jrrdtzio1d,Nick_Dissertation_EX1_EP,1,45,2021-11-06T22:18:38+00:00,8.5959978103638,4,versionC_stim.csv,READVersionD.csv,"Read Version D","Dissertation, read only version D",LOVE,AFFECTION,Study2,B,115,127,Study,8,8,,Study/JOL,"Study Phase",8002,,,-1,-1,,,,1
w10054787_jpc,jrrdtzio1d,Nick_Dissertation_EX1_EP,1,46,2021-11-06T22:18:47+00:00,8.609452009201,4,versionC_stim.csv,READVersionD.csv,"Read Version D","Dissertation, read only version D",AIRCRAFT,PLANE,Study2,F,129,162,Study,8,8,,Study/JOL,"Study Phase",8002,,,-1,-1,,,,1
w10054787_jpc,jrrdtzio1d,Nick_Dissertation_EX1_EP,1,47,2021-11-06T22:18:55+00:00,8.4284720420837,4,versionC_stim.csv,READVersionD.csv,"Read Version D","Dissertation, read only version D",LONG,EXTENSION,Study2,B,96,120,Study,8,8,,Study/JOL,"Study Phase",8002,,,-1,-1,,,,1
w10054787_jpc,jrrdtzio1d,Nick_Dissertation_EX1_EP,1,48,2021-11-06T22:19:04+00:00,8.4251470565796,4,versionC_stim.csv,READVersionD.csv,"Read Version D","Dissertation, read only version D",FICTION,LISTEN,Study2,U,164,116,Study,8,8,,Study/JOL,"Study Phase",8001,,,-1,-1,,,,1
w10054787_jpc,jrrdtzio1d,Nick_Dissertation_EX1_EP,1,49,2021-11-06T22:19:12+00:00,8.6178789138794,4,versionC_stim.csv,READVersionD.csv,"Read Version D","Dissertation, read only version D",PLANT,CACTUS,Study2,B,98,154,Study,8,8,,Study/JOL,"Study Phase",8002,,,-1,-1,,,,1
w10054787_jpc,jrrdtzio1d,Nick_Dissertation_EX1_EP,1,50,2021-11-06T22:19:22+00:00,9.4975030422211,4,versionC_stim.csv,READVersionD.csv,"Read Version D","Dissertation, read only version D",ABLE,CRACKLE,Study2,U,162,97,Study,8,8,,Study/JOL,"Study Phase",8001,,,-1,-1,,,,1
w10054787_jpc,jrrdtzio1d,Nick_Dissertation_EX1_EP,1,51,2021-11-06T22:19:31+00:00,8.6439580917358,4,versionC_stim.csv,READVersionD.csv,"Read Version D","Dissertation, read only version D",PANTHER,CAT,Study2,F,126,141,Study,8,8,,Study/JOL,"Study Phase",8003,,,-1,-1,,,,1
w10054787_jpc,jrrdtzio1d,Nick_Dissertation_EX1_EP,1,52,2021-11-06T22:19:39+00:00,8.4292478561401,4,versionC_stim.csv,READVersionD.csv,"Read Version D","Dissertation, read only version D",CHILDREN,MIRROR,Study2,U,174,146,Study,8,8,,Study/JOL,"Study Phase",8001,,,-1,-1,,,,1
w10054787_jpc,jrrdtzio1d,Nick_Dissertation_EX1_EP,1,53,2021-11-06T22:19:47+00:00,8.4928231239319,4,versionC_stim.csv,READVersionD.csv,"Read Version D","Dissertation, read only version D",TIE,SHOELACE,Study2,B,99,148,Study,8,8,,Study/JOL,"Study Phase",8001,,,-1,-1,,,,1
w10054787_jpc,jrrdtzio1d,Nick_Dissertation_EX1_EP,1,54,2021-11-06T22:19:56+00:00,8.5804800987244,4,versionC_stim.csv,READVersionD.csv,"Read Version D","Dissertation, read only version D",HEAD,SCALP,Study2,B,105,117,Study,8,8,,Study/JOL,"Study Phase",8001,,,-1,-1,,,,1
w10054787_jpc,jrrdtzio1d,Nick_Dissertation_EX1_EP,1,55,2021-11-06T22:20:04+00:00,8.4492499828339,4,versionC_stim.csv,READVersionD.csv,"Read Version D","Dissertation, read only version D",TRUTHFUL,HONEST,Study2,F,133,134,Study,8,8,,Study/JOL,"Study Phase",8002,,,-1,-1,,,,1
w10054787_jpc,jrrdtzio1d,Nick_Dissertation_EX1_EP,1,56,2021-11-06T22:20:13+00:00,8.5939660072327,4,versionC_stim.csv,READVersionD.csv,"Read Version D","Dissertation, read only version D",CLOTH,STRETCH,Study2,U,157,156,Study,8,8,,Study/JOL,"Study Phase",8002,,,-1,-1,,,,1
w10054787_jpc,jrrdtzio1d,Nick_Dissertation_EX1_EP,1,57,2021-11-06T22:20:22+00:00,8.6721849441528,4,versionC_stim.csv,READVersionD.csv,"Read Version D","Dissertation, read only version D",COLD,CHILL,Study2,B,114,104,Study,8,8,,Study/JOL,"Study Phase",8002,,,-1,-1,,,,1
w10054787_jpc,jrrdtzio1d,Nick_Dissertation_EX1_EP,1,58,2021-11-06T22:20:31+00:00,8.9379549026489,4,versionC_stim.csv,READVersionD.csv,"Read Version D","Dissertation, read only version D",JOKE,KEYS,Study2,U,165,118,Study,8,8,,Study/JOL,"Study Phase",8001,,,-1,-1,,,,1
w10054787_jpc,jrrdtzio1d,Nick_Dissertation_EX1_EP,1,59,2021-11-06T22:20:39+00:00,8.6326529979706,4,versionC_stim.csv,READVersionD.csv,"Read Version D","Dissertation, read only version D",CARBON,ELEMENT,Study2,S,141,176,Study,8,8,,Study/JOL,"Study Phase",8002,,,-1,-1,,,,1
w10054787_jpc,jrrdtzio1d,Nick_Dissertation_EX1_EP,1,60,2021-11-06T22:20:48+00:00,8.636027097702,4,versionC_stim.csv,READVersionD.csv,"Read Version D","Dissertation, read only version D",VILLAIN,BAD,Study2,F,118,112,Study,8,8,,Study/JOL,"Study Phase",8002,,,-1,-1,,,,1
w10054787_jpc,jrrdtzio1d,Nick_Dissertation_EX1_EP,1,61,2021-11-06T22:20:57+00:00,8.6189739704132,4,versionC_stim.csv,READVersionD.csv,"Read Version D","Dissertation, read only version D",GROUND,EARTH,Study2,S,144,147,Study,8,8,,Study/JOL,"Study Phase",8002,,,-1,-1,,,,1
w10054787_jpc,jrrdtzio1d,Nick_Dissertation_EX1_EP,1,62,2021-11-06T22:21:05+00:00,8.6100370883942,4,versionC_stim.csv,READVersionD.csv,"Read Version D","Dissertation, read only version D",TEMPER,TANTRUM,Study2,S,154,102,Study,8,8,,Study/JOL,"Study Phase",8002,,,-1,-1,,,,1
w10054787_jpc,jrrdtzio1d,Nick_Dissertation_EX1_EP,1,63,2021-11-06T22:21:14+00:00,8.3935739994049,4,versionC_stim.csv,READVersionD.csv,"Read Version D","Dissertation, read only version D",MAROON,JUSTICE,Study2,U,156,113,Study,8,8,,Study/JOL,"Study Phase",8002,,,-1,-1,,,,1
w10054787_jpc,jrrdtzio1d,Nick_Dissertation_EX1_EP,1,64,2021-11-06T22:21:22+00:00,8.5530347824097,4,versionC_stim.csv,READVersionD.csv,"Read Version D","Dissertation, read only version D",WAX,CANDLE,Study2,S,139,145,Study,8,8,,Study/JOL,"Study Phase",8001,,,-1,-1,,,,1
w10054787_jpc,jrrdtzio1d,Nick_Dissertation_EX1_EP,1,65,2021-11-06T22:21:31+00:00,8.6303150653839,4,versionC_stim.csv,READVersionD.csv,"Read Version D","Dissertation, read only version D",LEAGUE,BASEBALL,Study2,F,131,124,Study,8,8,,Study/JOL,"Study Phase",8001,,,-1,-1,,,,1
w10054787_jpc,jrrdtzio1d,Nick_Dissertation_EX1_EP,1,66,2021-11-06T22:21:39+00:00,8.4662690162659,4,versionC_stim.csv,READVersionD.csv,"Read Version D","Dissertation, read only version D",CHARM,VEHICLE,Study2,U,160,166,Study,8,8,,Study/JOL,"Study Phase",8002,,,-1,-1,,,,1
w10054787_jpc,jrrdtzio1d,Nick_Dissertation_EX1_EP,1,67,2021-11-06T22:21:48+00:00,8.626424074173,4,versionC_stim.csv,READVersionD.csv,"Read Version D","Dissertation, read only version D",PAPER,DOCUMENT,Study2,B,109,144,Study,8,8,,Study/JOL,"Study Phase",8003,,,-1,-1,,,,1
w10054787_jpc,jrrdtzio1d,Nick_Dissertation_EX1_EP,1,68,2021-11-06T22:21:56+00:00,8.6368479728699,4,versionC_stim.csv,READVersionD.csv,"Read Version D","Dissertation, read only version D",SCISSORS,SHEARS,Study2,B,112,169,Study,8,8,,Study/JOL,"Study Phase",8000,,,-1,-1,,,,1
w10054787_jpc,jrrdtzio1d,Nick_Dissertation_EX1_EP,1,69,2021-11-06T22:22:05+00:00,8.6188368797302,4,versionC_stim.csv,READVersionD.csv,"Read Version D","Dissertation, read only version D",DRINK,WATER,Study2,S,143,142,Study,8,8,,Study/JOL,"Study Phase",8000,,,-1,-1,,,,1
w10054787_jpc,jrrdtzio1d,Nick_Dissertation_EX1_EP,1,70,2021-11-06T22:22:14+00:00,8.6535429954529,4,versionC_stim.csv,READVersionD.csv,"Read Version D","Dissertation, read only version D",THIMBLE,THREAD,Study2,F,121,99,Study,8,8,,Study/JOL,"Study Phase",8001,,,-1,-1,,,,1
w10054787_jpc,jrrdtzio1d,Nick_Dissertation_EX1_EP,1,71,2021-11-06T22:22:22+00:00,8.6181831359863,4,versionC_stim.csv,READVersionD.csv,"Read Version D","Dissertation, read only version D",HAVE,OWN,Study2,S,153,123,Study,8,8,,Study/JOL,"Study Phase",8003,,,-1,-1,,,,1
w10054787_jpc,jrrdtzio1d,Nick_Dissertation_EX1_EP,1,72,2021-11-06T22:22:31+00:00,8.5899159908295,4,versionC_stim.csv,READVersionD.csv,"Read Version D","Dissertation, read only version D",NOISE,LOUD,Study2,S,152,167,Study,8,8,,Study/JOL,"Study Phase",8002,,,-1,-1,,,,1
w10054787_jpc,jrrdtzio1d,Nick_Dissertation_EX1_EP,1,73,2021-11-06T22:22:40+00:00,8.6089918613434,4,versionC_stim.csv,READVersionD.csv,"Read Version D","Dissertation, read only version D",BRACELET,WRIST,Study2,S,140,160,Study,8,8,,Study/JOL,"Study Phase",8001,,,-1,-1,,,,1
w10054787_jpc,jrrdtzio1d,Nick_Dissertation_EX1_EP,1,74,2021-11-06T22:22:48+00:00,8.5941932201385,4,versionC_stim.csv,READVersionD.csv,"Read Version D","Dissertation, read only version D",BALLOON,POP,Study2,F,123,159,Study,8,8,,Study/JOL,"Study Phase",8000,,,-1,-1,,,,1
w10054787_jpc,jrrdtzio1d,Nick_Dissertation_EX1_EP,1,75,2021-11-06T22:22:57+00:00,8.5674149990082,4,versionC_stim.csv,READVersionD.csv,"Read Version D","Dissertation, read only version D",LIE,TRUTH,Study2,S,148,155,Study,8,8,,Study/JOL,"Study Phase",8002,,,-1,-1,,,,1
w10054787_jpc,jrrdtzio1d,Nick_Dissertation_EX1_EP,1,76,2021-11-06T22:23:05+00:00,8.5925848484039,4,versionC_stim.csv,READVersionD.csv,"Read Version D","Dissertation, read only version D",COMMUNICATION,PHONE,Study2,S,149,107,Study,8,8,,Study/JOL,"Study Phase",8001,,,-1,-1,,,,1
w10054787_jpc,jrrdtzio1d,Nick_Dissertation_EX1_EP,1,77,2021-11-06T22:23:14+00:00,8.5852961540222,4,versionC_stim.csv,READVersionD.csv,"Read Version D","Dissertation, read only version D",SMELL,INCENSE,Study2,B,110,139,Study,8,8,,Study/JOL,"Study Phase",8001,,,-1,-1,,,,1
w10054787_jpc,jrrdtzio1d,Nick_Dissertation_EX1_EP,1,78,2021-11-06T22:23:23+00:00,8.5749018192291,4,versionC_stim.csv,READVersionD.csv,"Read Version D","Dissertation, read only version D",REVENGE,EVEN,Study2,F,122,131,Study,8,8,,Study/JOL,"Study Phase",8002,,,-1,-1,,,,1
w10054787_jpc,jrrdtzio1d,Nick_Dissertation_EX1_EP,1,79,2021-11-06T22:23:31+00:00,8.5566680431366,4,versionC_stim.csv,READVersionD.csv,"Read Version D","Dissertation, read only version D",Morning,TEMPERATURE,Study2,U,173,119,Study,8,8,,Study/JOL,"Study Phase",8000,,,-1,-1,,,,1
w10054787_jpc,jrrdtzio1d,Nick_Dissertation_EX1_EP,1,80,2021-11-06T22:23:40+00:00,8.565190076828,4,versionC_stim.csv,READVersionD.csv,"Read Version D","Dissertation, read only version D",ELECTION,MAZE,Study2,U,159,158,Study,8,8,,Study/JOL,"Study Phase",8000,,,-1,-1,,,,1
w10054787_jpc,jrrdtzio1d,Nick_Dissertation_EX1_EP,1,81,2021-11-06T22:23:48+00:00,8.5972669124603,4,versionC_stim.csv,READVersionD.csv,"Read Version D","Dissertation, read only version D",SHAVE,RAZOR,Study2,S,136,170,Study,8,8,,Study/JOL,"Study Phase",8003,,,-1,-1,,,,1
w10054787_jpc,jrrdtzio1d,Nick_Dissertation_EX1_EP,1,82,2021-11-06T22:23:57+00:00,8.5761771202087,4,versionC_stim.csv,READVersionD.csv,"Read Version D","Dissertation, read only version D",TRASH,LITTER,Study2,B,103,151,Study,8,8,,Study/JOL,"Study Phase",8008,,,-1,-1,,,,1
w10054787_jpc,jrrdtzio1d,Nick_Dissertation_EX1_EP,1,83,2021-11-06T22:24:05+00:00,8.5581979751587,4,versionC_stim.csv,READVersionD.csv,"Read Version D","Dissertation, read only version D",CLEAR,MOAT,Study2,U,169,111,Study,8,8,,Study/JOL,"Study Phase",8002,,,-1,-1,,,,1
w10054787_jpc,jrrdtzio1d,Nick_Dissertation_EX1_EP,1,84,2021-11-06T22:24:14+00:00,8.6127648353577,4,versionC_stim.csv,READVersionD.csv,"Read Version D","Dissertation, read only version D",SARDINE,FISH,Study2,F,130,105,Study,8,8,,Study/JOL,"Study Phase",8001,,,-1,-1,,,,1
w10054787_jpc,jrrdtzio1d,Nick_Dissertation_EX1_EP,1,85,2021-11-06T22:24:23+00:00,8.5765891075134,4,versionC_stim.csv,READVersionD.csv,"Read Version D","Dissertation, read only version D",BREAKABLE,GLASS,Study2,F,127,171,Study,8,8,,Study/JOL,"Study Phase",8002,,,-1,-1,,,,1
w10054787_jpc,jrrdtzio1d,Nick_Dissertation_EX1_EP,1,86,2021-11-06T22:24:31+00:00,8.6487729549408,4,versionC_stim.csv,READVersionD.csv,"Read Version D","Dissertation, read only version D",CAR,DRIVER,Study2,B,106,115,Study,8,8,,Study/JOL,"Study Phase",8001,,,-1,-1,,,,1
w10054787_jpc,jrrdtzio1d,Nick_Dissertation_EX1_EP,1,87,2021-11-06T22:24:40+00:00,8.5785131454468,4,versionC_stim.csv,READVersionD.csv,"Read Version D","Dissertation, read only version D",SCAR,MAIN,Study2,U,175,163,Study,8,8,,Study/JOL,"Study Phase",8002,,,-1,-1,,,,1
w10054787_jpc,jrrdtzio1d,Nick_Dissertation_EX1_EP,1,88,2021-11-06T22:24:48+00:00,8.443363904953,4,versionC_stim.csv,READVersionD.csv,"Read Version D","Dissertation, read only version D",CLOTHES,CAKE,Study2,U,166,98,Study,8,8,,Study/JOL,"Study Phase",8002,,,-1,-1,,,,1
w10054787_jpc,jrrdtzio1d,Nick_Dissertation_EX1_EP,1,89,2021-11-06T22:24:57+00:00,8.400141954422,4,versionC_stim.csv,READVersionD.csv,"Read Version D","Dissertation, read only version D",MARCH,SPRING,BUFFER4,Buffer,179,177,Study,8,8,,Study/JOL,BUFFER2,8000,,,-1,-1,,,,1
w10054787_jpc,jrrdtzio1d,Nick_Dissertation_EX1_EP,1,90,2021-11-06T22:25:05+00:00,8.4132540225983,4,versionC_stim.csv,READVersionD.csv,"Read Version D","Dissertation, read only version D",YEAR,MONTH,BUFFER4,Buffer,177,180,Study,8,8,,Study/JOL,BUFFER2,8005,,,-1,-1,,,,1
w10054787_jpc,jrrdtzio1d,Nick_Dissertation_EX1_EP,1,91,2021-11-06T22:25:14+00:00,8.6454970836639,4,versionC_stim.csv,READVersionD.csv,"Read Version D","Dissertation, read only version D",SHED,TOOL,BUFFER4,Buffer,178,181,Study,8,8,,Study/JOL,BUFFER2,8001,,,-1,-1,,,,1
w10054787_jpc,jrrdtzio1d,Nick_Dissertation_EX1_EP,1,92,2021-11-06T22:25:22+00:00,8.4221680164337,4,versionC_stim.csv,READVersionD.csv,"Read Version D","Dissertation, read only version D",SPOOKY,OCTOBER,BUFFER4,Buffer,180,179,Study,8,8,,Study/JOL,BUFFER2,8001,,,-1,-1,,,,1
w10054787_jpc,jrrdtzio1d,Nick_Dissertation_EX1_EP,1,93,2021-11-06T22:25:31+00:00,8.6190748214722,4,versionC_stim.csv,READVersionD.csv,"Read Version D","Dissertation, read only version D",WEAKS,DAYS,BUFFER4,Buffer,176,178,Study,8,8,,Study/JOL,BUFFER2,8003,,,-1,-1,,,,1
w10054787_jpc,jrrdtzio1d,Nick_Dissertation_EX1_EP,1,94,2021-11-06T22:25:34+00:00,3.4576270580292,4,versionC_stim.csv,READVersionD.csv,"Read Version D","Dissertation, read only version D",,,,,,0,Instruct,User,-,"You have completed this section. Please press Enter.",Filler_Instruction,Instruct2,3013,,,-1,-1,,,,1
w10054787_jpc,jrrdtzio1d,Nick_Dissertation_EX1_EP,1,95,2021-11-06T22:27:35+00:00,120.49055194855,4,versionC_stim.csv,READVersionD.csv,"Read Version D","Dissertation, read only version D",,,,,,0,FreeRecall,120,120,"Please list the 50 US states in alphabetical order. The task will automatically advance to the next screen after two minutes.",,Filler1,120003,"Alabama Alaska arizona arkansas california colorado connecticut delaware florida georgia hawaii idaho illinois indiana iowa kansas ",0,10052,118201,0,0,,1
w10054787_jpc,jrrdtzio1d,Nick_Dissertation_EX1_EP,1,96,2021-11-06T22:27:48+00:00,13.042621135712,4,versionC_stim.csv,READVersionD.csv,"Read Version D","Dissertation, read only version D",,,,,,0,Instruct,-,10,"You will now be presented with the first word from each of the previously studied item pairs. Please type the missing word. If you do not know the word, you may guess or press Enter to skip forward to the next pair.",,Instruct3,12432,,,-1,-1,,,,1
w10054787_jpc,jrrdtzio1d,Nick_Dissertation_EX1_EP,1,97,2021-11-06T22:27:55+00:00,7.3460650444031,4,versionC_stim.csv,READVersionD.csv,"Read Version D","Dissertation, read only version D",MYSTERY,DETECTIVE,Study2,B,100,110,Test,User,-,,Recall,Recall1,6919,Solve,28.571428571429,4316,4833,0,0,,1
w10054787_jpc,jrrdtzio1d,Nick_Dissertation_EX1_EP,1,98,2021-11-06T22:27:59+00:00,4.1243898868561,4,versionC_stim.csv,READVersionD.csv,"Read Version D","Dissertation, read only version D",LONELY,ALONE,Study2,S,145,168,Test,User,-,,Recall,Recall1,3706,Alone,100,1938,2386,1,1,,1
w10054787_jpc,jrrdtzio1d,Nick_Dissertation_EX1_EP,1,99,2021-11-06T22:28:03+00:00,4.3024790287018,4,versionC_stim.csv,READVersionD.csv,"Read Version D","Dissertation, read only version D",SCISSORS,SHEARS,Study2,B,112,169,Test,User,-,,Recall,Recall1,3864,Cut,0,2758,3126,0,0,,1
w10054787_jpc,jrrdtzio1d,Nick_Dissertation_EX1_EP,1,100,2021-11-06T22:28:07+00:00,3.5374050140381,4,versionC_stim.csv,READVersionD.csv,"Read Version D","Dissertation, read only version D",AIRCRAFT,PLANE,Study2,F,129,162,Test,User,-,,Recall,Recall1,3162,Plane,100,1847,2310,1,1,,1
w10054787_jpc,jrrdtzio1d,Nick_Dissertation_EX1_EP,1,101,2021-11-06T22:28:15+00:00,8.1318099498749,4,versionC_stim.csv,READVersionD.csv,"Read Version D","Dissertation, read only version D",CHILDREN,MIRROR,Study2,U,174,146,Test,User,-,,Recall,Recall1,7533,Kids,20,4251,4663,0,0,,1
w10054787_jpc,jrrdtzio1d,Nick_Dissertation_EX1_EP,1,102,2021-11-06T22:28:21+00:00,6.0630550384521,4,versionC_stim.csv,READVersionD.csv,"Read Version D","Dissertation, read only version D",CLEAR,MOAT,Study2,U,169,111,Test,User,-,,Recall,Recall1,5619,"Fuzzy ",0,3446,4028,0,0,,1
w10054787_jpc,jrrdtzio1d,Nick_Dissertation_EX1_EP,1,103,2021-11-06T22:28:27+00:00,5.8813409805298,4,versionC_stim.csv,READVersionD.csv,"Read Version D","Dissertation, read only version D",TRASH,LITTER,Study2,B,103,151,Test,User,-,,Recall,Recall1,5454,,0,-1,-1,0,0,,1
w10054787_jpc,jrrdtzio1d,Nick_Dissertation_EX1_EP,1,104,2021-11-06T22:28:32+00:00,4.6442420482635,4,versionC_stim.csv,READVersionD.csv,"Read Version D","Dissertation, read only version D",BANG,FUZZY,Study2,U,168,130,Test,User,-,,Recall,Recall1,4190,Noise,0,2716,3316,0,0,,1
w10054787_jpc,jrrdtzio1d,Nick_Dissertation_EX1_EP,1,105,2021-11-06T22:28:36+00:00,4.4536709785461,4,versionC_stim.csv,READVersionD.csv,"Read Version D","Dissertation, read only version D",HEAD,SCALP,Study2,B,105,117,Test,User,-,,Recall,Recall1,4046,Toes,22.222222222222,1993,3243,0,0,,1
w10054787_jpc,jrrdtzio1d,Nick_Dissertation_EX1_EP,1,106,2021-11-06T22:28:41+00:00,4.6905279159546,4,versionC_stim.csv,READVersionD.csv,"Read Version D","Dissertation, read only version D",PLANT,CACTUS,Study2,B,98,154,Test,User,-,,Recall,Recall1,4248,Seed,20,3044,3461,0,0,,1
w10054787_jpc,jrrdtzio1d,Nick_Dissertation_EX1_EP,1,107,2021-11-06T22:28:44+00:00,3.6164419651031,4,versionC_stim.csv,READVersionD.csv,"Read Version D","Dissertation, read only version D",WINDSHIELD,CAR,Study2,F,117,109,Test,User,-,,Recall,Recall1,3142,Car,100,2041,2387,1,1,,1
w10054787_jpc,jrrdtzio1d,Nick_Dissertation_EX1_EP,1,108,2021-11-06T22:28:50+00:00,5.8972840309143,4,versionC_stim.csv,READVersionD.csv,"Read Version D","Dissertation, read only version D",SCAR,MAIN,Study2,U,175,163,Test,User,-,,Recall,Recall1,5459,"Permanent ",46.153846153846,2873,3881,0,0,,1
w10054787_jpc,jrrdtzio1d,Nick_Dissertation_EX1_EP,1,109,2021-11-06T22:28:56+00:00,6.0842640399933,4,versionC_stim.csv,READVersionD.csv,"Read Version D","Dissertation, read only version D",CHARM,VEHICLE,Study2,U,160,166,Test,User,-,,Recall,Recall1,5506,"Bracelet ",40,3487,4670,0,0,,1
w10054787_jpc,jrrdtzio1d,Nick_Dissertation_EX1_EP,1,110,2021-11-06T22:29:00+00:00,3.2039489746094,4,versionC_stim.csv,READVersionD.csv,"Read Version D","Dissertation, read only version D",COLD,CHILL,Study2,B,114,104,Test,User,-,,Recall,Recall1,2801,Ice,25,1747,2013,0,0,,1
w10054787_jpc,jrrdtzio1d,Nick_Dissertation_EX1_EP,1,111,2021-11-06T22:29:04+00:00,3.8459541797638,4,versionC_stim.csv,READVersionD.csv,"Read Version D","Dissertation, read only version D",FLIP,TURN,Study2,F,116,121,Test,User,-,,Recall,Recall1,3424,Turn,100,2076,2399,1,1,,1
w10054787_jpc,jrrdtzio1d,Nick_Dissertation_EX1_EP,1,112,2021-11-06T22:29:09+00:00,5.6363129615784,4,versionC_stim.csv,READVersionD.csv,"Read Version D","Dissertation, read only version D",LONG,EXTENSION,Study2,B,96,120,Test,User,-,,Recall,Recall1,5091,"Short ",28.571428571429,1841,4358,0,0,,1
w10054787_jpc,jrrdtzio1d,Nick_Dissertation_EX1_EP,1,113,2021-11-06T22:29:15+00:00,5.4814968109131,4,versionC_stim.csv,READVersionD.csv,"Read Version D","Dissertation, read only version D",TOIL,LEASE,Study2,U,170,100,Test,User,-,,Recall,Recall1,4734,String,18.181818181818,3310,3980,0,0,,1
w10054787_jpc,jrrdtzio1d,Nick_Dissertation_EX1_EP,1,114,2021-11-06T22:29:19+00:00,4.1643180847168,4,versionC_stim.csv,READVersionD.csv,"Read Version D","Dissertation, read only version D",LEAGUE,BASEBALL,Study2,F,131,124,Test,User,-,,Recall,Recall1,3748,"Baseball ",100,1846,2990,1,1,,1
w10054787_jpc,jrrdtzio1d,Nick_Dissertation_EX1_EP,1,115,2021-11-06T22:29:23+00:00,4.0350320339203,4,versionC_stim.csv,READVersionD.csv,"Read Version D","Dissertation, read only version D",STRAWBERRY,FRUIT,Study2,F,124,103,Test,User,-,,Recall,Recall1,3634,Fruit,100,2099,2782,1,1,,1
w10054787_jpc,jrrdtzio1d,Nick_Dissertation_EX1_EP,1,116,2021-11-06T22:29:28+00:00,5.1306838989258,4,versionC_stim.csv,READVersionD.csv,"Read Version D","Dissertation, read only version D",CARBON,ELEMENT,Study2,S,141,176,Test,User,-,,Recall,Recall1,4710,Element,100,1989,2323,1,1,,1
w10054787_jpc,jrrdtzio1d,Nick_Dissertation_EX1_EP,1,117,2021-11-06T22:29:33+00:00,4.5510861873627,4,versionC_stim.csv,READVersionD.csv,"Read Version D","Dissertation, read only version D",TRUTHFUL,HONEST,Study2,F,133,134,Test,User,-,,Recall,Recall1,4098,Lie,22.222222222222,1838,2085,0,0,,1
w10054787_jpc,jrrdtzio1d,Nick_Dissertation_EX1_EP,1,118,2021-11-06T22:29:36+00:00,3.9004108905792,4,versionC_stim.csv,READVersionD.csv,"Read Version D","Dissertation, read only version D",OUNCE,BOTH,Study2,U,172,133,Test,User,-,,Recall,Recall1,3464,Gram,0,1993,2391,0,0,,1
w10054787_jpc,jrrdtzio1d,Nick_Dissertation_EX1_EP,1,119,2021-11-06T22:29:41+00:00,4.6996250152588,4,versionC_stim.csv,READVersionD.csv,"Read Version D","Dissertation, read only version D",BALLOON,POP,Study2,F,123,159,Test,User,-,,Recall,Recall1,4292,"Helium ",0,2004,3488,0,0,,1
w10054787_jpc,jrrdtzio1d,Nick_Dissertation_EX1_EP,1,120,2021-11-06T22:29:47+00:00,5.469211101532,4,versionC_stim.csv,READVersionD.csv,"Read Version D","Dissertation, read only version D",DRINK,WATER,Study2,S,143,142,Test,User,-,,Recall,Recall1,5029,Water,100,3640,4306,1,1,,1
w10054787_jpc,jrrdtzio1d,Nick_Dissertation_EX1_EP,1,121,2021-11-06T22:29:50+00:00,3.8874499797821,4,versionC_stim.csv,READVersionD.csv,"Read Version D","Dissertation, read only version D",SARDINE,FISH,Study2,F,130,105,Test,User,-,,Recall,Recall1,3438,Fish,100,2101,2500,1,1,,1
w10054787_jpc,jrrdtzio1d,Nick_Dissertation_EX1_EP,1,122,2021-11-06T22:30:00+00:00,9.0457198619843,4,versionC_stim.csv,READVersionD.csv,"Read Version D","Dissertation, read only version D",EQUAL,RIGHTS,Study2,S,137,149,Test,User,-,,Recall,Recall1,8618,Rights,100,7132,7831,1,1,,1
w10054787_jpc,jrrdtzio1d,Nick_Dissertation_EX1_EP,1,123,2021-11-06T22:30:05+00:00,5.1169669628143,4,versionC_stim.csv,READVersionD.csv,"Read Version D","Dissertation, read only version D",RED,CHERRY,Study2,B,104,129,Test,User,-,,Recall,Recall1,4692,White,36.363636363636,3302,3886,0,0,,1
w10054787_jpc,jrrdtzio1d,Nick_Dissertation_EX1_EP,1,124,2021-11-06T22:30:09+00:00,4.7534341812134,4,versionC_stim.csv,READVersionD.csv,"Read Version D","Dissertation, read only version D",MAROON,JUSTICE,Study2,U,156,113,Test,User,-,,Recall,Recall1,4310,,0,-1,-1,0,0,,1
w10054787_jpc,jrrdtzio1d,Nick_Dissertation_EX1_EP,1,125,2021-11-06T22:30:14+00:00,4.5325999259949,4,versionC_stim.csv,READVersionD.csv,"Read Version D","Dissertation, read only version D",OBTAIN,MEAT,Study2,U,161,140,Test,User,-,,Recall,Recall1,3067,Get,57.142857142857,2029,2295,0,0,,1
w10054787_jpc,jrrdtzio1d,Nick_Dissertation_EX1_EP,1,126,2021-11-06T22:30:20+00:00,6.1206629276276,4,versionC_stim.csv,READVersionD.csv,"Read Version D","Dissertation, read only version D",THIMBLE,THREAD,Study2,F,121,99,Test,User,-,,Recall,Recall1,5611,Needle,33.333333333333,2575,4825,0,0,,1
w10054787_jpc,jrrdtzio1d,Nick_Dissertation_EX1_EP,1,127,2021-11-06T22:30:24+00:00,3.4491260051727,4,versionC_stim.csv,READVersionD.csv,"Read Version D","Dissertation, read only version D",NOISE,LOUD,Study2,S,152,167,Test,User,-,,Recall,Recall1,2973,Loud,100,1748,2248,1,1,,1
w10054787_jpc,jrrdtzio1d,Nick_Dissertation_EX1_EP,1,128,2021-11-06T22:30:27+00:00,3.8605220317841,4,versionC_stim.csv,READVersionD.csv,"Read Version D","Dissertation, read only version D",ABLE,CRACKLE,Study2,U,162,97,Test,User,-,,Recall,Recall1,3452,"willing ",14.285714285714,1958,2816,0,0,,1
w10054787_jpc,jrrdtzio1d,Nick_Dissertation_EX1_EP,1,129,2021-11-06T22:30:31+00:00,3.9849500656128,4,versionC_stim.csv,READVersionD.csv,"Read Version D","Dissertation, read only version D",HAVE,OWN,Study2,S,153,123,Test,User,-,,Recall,Recall1,3544,got,33.333333333333,2647,2794,0,0,,1
w10054787_jpc,jrrdtzio1d,Nick_Dissertation_EX1_EP,1,130,2021-11-06T22:30:35+00:00,3.6786179542542,4,versionC_stim.csv,READVersionD.csv,"Read Version D","Dissertation, read only version D",LOVE,AFFECTION,Study2,B,115,127,Test,User,-,,Recall,Recall1,3263,Hate,30.769230769231,2142,2490,0,0,,1
w10054787_jpc,jrrdtzio1d,Nick_Dissertation_EX1_EP,1,131,2021-11-06T22:30:39+00:00,4.3316791057587,4,versionC_stim.csv,READVersionD.csv,"Read Version D","Dissertation, read only version D",BRACELET,WRIST,Study2,S,140,160,Test,User,-,,Recall,Recall1,3908,Charm,20,2600,3084,0,0,,1
w10054787_jpc,jrrdtzio1d,Nick_Dissertation_EX1_EP,1,132,2021-11-06T22:30:44+00:00,5.1375877857208,4,versionC_stim.csv,READVersionD.csv,"Read Version D","Dissertation, read only version D",BREAKABLE,GLASS,Study2,F,127,171,Test,User,-,,Recall,Recall1,4687,Fragile,16.666666666667,2956,3933,0,0,,1
w10054787_jpc,jrrdtzio1d,Nick_Dissertation_EX1_EP,1,133,2021-11-06T22:30:49+00:00,4.7494330406189,4,versionC_stim.csv,READVersionD.csv,"Read Version D","Dissertation, read only version D",STEAK,GIVE,Study2,U,158,173,Test,User,-,,Recall,Recall1,4296,Meat,25,3077,3511,0,0,,1
w10054787_jpc,jrrdtzio1d,Nick_Dissertation_EX1_EP,1,134,2021-11-06T22:31:00+00:00,11.173871994019,4,versionC_stim.csv,READVersionD.csv,"Read Version D","Dissertation, read only version D",TIE,SHOELACE,Study2,B,99,148,Test,User,-,,Recall,Recall1,10648,Suit,16.666666666667,4545,9879,0,0,,1
w10054787_jpc,jrrdtzio1d,Nick_Dissertation_EX1_EP,1,135,2021-11-06T22:31:04+00:00,3.8962481021881,4,versionC_stim.csv,READVersionD.csv,"Read Version D","Dissertation, read only version D",BRAWL,FIGHT,Study2,F,135,161,Test,User,-,,Recall,Recall1,3449,Fight,100,1927,2576,1,1,,1
w10054787_jpc,jrrdtzio1d,Nick_Dissertation_EX1_EP,1,136,2021-11-06T22:31:10+00:00,5.7089109420776,4,versionC_stim.csv,READVersionD.csv,"Read Version D","Dissertation, read only version D",WAX,CANDLE,Study2,S,139,145,Test,User,-,,Recall,Recall1,5296,Remove,16.666666666667,2643,3610,0,0,,1
w10054787_jpc,jrrdtzio1d,Nick_Dissertation_EX1_EP,1,137,2021-11-06T22:31:16+00:00,5.9120800495148,4,versionC_stim.csv,READVersionD.csv,"Read Version D","Dissertation, read only version D",WET,DRY,Study2,S,146,108,Test,User,-,,Recall,Recall1,5524,"Dry ",100,2483,4899,1,1,,1
w10054787_jpc,jrrdtzio1d,Nick_Dissertation_EX1_EP,1,138,2021-11-06T22:31:20+00:00,4.1387579441071,4,versionC_stim.csv,READVersionD.csv,"Read Version D","Dissertation, read only version D",ELECTION,MAZE,Study2,U,159,158,Test,User,-,,Recall,Recall1,3734,President,15.384615384615,2061,2989,0,0,,1
w10054787_jpc,jrrdtzio1d,Nick_Dissertation_EX1_EP,1,139,2021-11-06T22:31:24+00:00,3.5646469593048,4,versionC_stim.csv,READVersionD.csv,"Read Version D","Dissertation, read only version D",PANTHER,CAT,Study2,F,126,141,Test,User,-,,Recall,Recall1,3150,Cat,100,2017,2377,1,1,,1
w10054787_jpc,jrrdtzio1d,Nick_Dissertation_EX1_EP,1,140,2021-11-06T22:31:28+00:00,4.5212540626526,4,versionC_stim.csv,READVersionD.csv,"Read Version D","Dissertation, read only version D",FIGHT,FEUD,Study2,B,113,164,Test,User,-,,Recall,Recall1,4106,"Brawl ",0,2520,3460,0,0,,1
w10054787_jpc,jrrdtzio1d,Nick_Dissertation_EX1_EP,1,141,2021-11-06T22:31:32+00:00,3.8393549919128,4,versionC_stim.csv,READVersionD.csv,"Read Version D","Dissertation, read only version D",VILLAIN,BAD,Study2,F,118,112,Test,User,-,,Recall,Recall1,3426,Evil,0,2017,2699,0,0,,1
w10054787_jpc,jrrdtzio1d,Nick_Dissertation_EX1_EP,1,142,2021-11-06T22:31:37+00:00,4.8821110725403,4,versionC_stim.csv,READVersionD.csv,"Read Version D","Dissertation, read only version D",AWAY,GONE,Study2,S,142,175,Test,User,-,,Recall,Recall1,4511,Far,0,3295,3645,0,0,,1
w10054787_jpc,jrrdtzio1d,Nick_Dissertation_EX1_EP,1,143,2021-11-06T22:31:41+00:00,4.1572940349579,4,versionC_stim.csv,READVersionD.csv,"Read Version D","Dissertation, read only version D",SHAKE,Shell,Study2,U,163,122,Test,User,-,,Recall,Recall1,3744,Milk,22.222222222222,2494,2972,0,0,,1
w10054787_jpc,jrrdtzio1d,Nick_Dissertation_EX1_EP,1,144,2021-11-06T22:31:45+00:00,4.017725944519,4,versionC_stim.csv,READVersionD.csv,"Read Version D","Dissertation, read only version D",Morning,TEMPERATURE,Study2,U,173,119,Test,User,-,,Recall,Recall1,3581,Night,12.5,2108,2742,0,0,,1
w10054787_jpc,jrrdtzio1d,Nick_Dissertation_EX1_EP,1,145,2021-11-06T22:31:49+00:00,3.7375838756561,4,versionC_stim.csv,READVersionD.csv,"Read Version D","Dissertation, read only version D",COFFIN,DEAD,Study2,F,128,153,Test,User,-,,Recall,Recall1,3318,Dead,100,1979,2463,1,1,,1
w10054787_jpc,jrrdtzio1d,Nick_Dissertation_EX1_EP,1,146,2021-11-06T22:31:53+00:00,4.1003370285034,4,versionC_stim.csv,READVersionD.csv,"Read Version D","Dissertation, read only version D",GROUND,EARTH,Study2,S,144,147,Test,User,-,,Recall,Recall1,3588,Floor,20,2050,2815,0,0,,1
w10054787_jpc,jrrdtzio1d,Nick_Dissertation_EX1_EP,1,147,2021-11-06T22:32:03+00:00,10.58763718605,4,versionC_stim.csv,READVersionD.csv,"Read Version D","Dissertation, read only version D",GAME,CLUE,Study2,B,97,165,Test,User,-,,Recall,Recall1,9998,Cards,22.222222222222,7340,7991,0,0,,1
w10054787_jpc,jrrdtzio1d,Nick_Dissertation_EX1_EP,1,148,2021-11-06T22:32:18+00:00,14.364686965942,4,versionC_stim.csv,READVersionD.csv,"Read Version D","Dissertation, read only version D",FAVORITE,BEST,Study2,F,125,101,Test,User,-,,Recall,Recall1,13752,"Love ",25,11686,12442,0,0,,1
w10054787_jpc,jrrdtzio1d,Nick_Dissertation_EX1_EP,1,149,2021-11-06T22:32:24+00:00,5.7239289283752,4,versionC_stim.csv,READVersionD.csv,"Read Version D","Dissertation, read only version D",TICK,FLEA,Study2,S,151,137,Test,User,-,,Recall,Recall1,5306,Flea,100,2253,2921,1,1,,1
w10054787_jpc,jrrdtzio1d,Nick_Dissertation_EX1_EP,1,150,2021-11-06T22:32:31+00:00,6.9277260303497,4,versionC_stim.csv,READVersionD.csv,"Read Version D","Dissertation, read only version D",BANKER,MONEY,Study2,F,132,172,Test,User,-,,Recall,Recall1,6490,Money,100,2302,5551,1,1,,1
w10054787_jpc,jrrdtzio1d,Nick_Dissertation_EX1_EP,1,151,2021-11-06T22:32:35+00:00,4.1586589813232,4,versionC_stim.csv,READVersionD.csv,"Read Version D","Dissertation, read only version D",SEATBELT,SAFETY,Study2,S,147,143,Test,User,-,,Recall,Recall1,3726,Car,22.222222222222,2488,2854,0,0,,1
w10054787_jpc,jrrdtzio1d,Nick_Dissertation_EX1_EP,1,152,2021-11-06T22:32:51+00:00,16.006807088852,4,versionC_stim.csv,READVersionD.csv,"Read Version D","Dissertation, read only version D",COMMUNICATION,PHONE,Study2,S,149,107,Test,User,-,,Recall,Recall1,15414,Talk,0,13876,14511,0,0,,1
w10054787_jpc,jrrdtzio1d,Nick_Dissertation_EX1_EP,1,153,2021-11-06T22:32:55+00:00,4.4462888240814,4,versionC_stim.csv,READVersionD.csv,"Read Version D","Dissertation, read only version D",LIE,TRUTH,Study2,S,148,155,Test,User,-,,Recall,Recall1,3893,"Truth ",100,2086,2987,1,1,,1
w10054787_jpc,jrrdtzio1d,Nick_Dissertation_EX1_EP,1,154,2021-11-06T22:33:02+00:00,6.4814729690552,4,versionC_stim.csv,READVersionD.csv,"Read Version D","Dissertation, read only version D",END,ADJOURN,Study2,B,101,106,Test,User,-,,Recall,Recall1,6061,Start,33.333333333333,4325,5058,0,0,,1
w10054787_jpc,jrrdtzio1d,Nick_Dissertation_EX1_EP,1,155,2021-11-06T22:33:07+00:00,5.5849959850311,4,versionC_stim.csv,READVersionD.csv,"Read Version D","Dissertation, read only version D",HATE,NAME,Study2,U,167,125,Test,User,-,,Recall,Recall1,5160,Love,25,2039,4124,0,0,,1
w10054787_jpc,jrrdtzio1d,Nick_Dissertation_EX1_EP,1,156,2021-11-06T22:33:11+00:00,3.924595117569,4,versionC_stim.csv,READVersionD.csv,"Read Version D","Dissertation, read only version D",NAP,SLEEP,Study2,F,134,150,Test,User,-,,Recall,Recall1,3476,Sleep,100,1796,2635,1,1,,1
w10054787_jpc,jrrdtzio1d,Nick_Dissertation_EX1_EP,1,157,2021-11-06T22:33:15+00:00,4.0485360622406,4,versionC_stim.csv,READVersionD.csv,"Read Version D","Dissertation, read only version D",DOG,FURRY,Study2,B,102,138,Test,User,-,,Recall,Recall1,3599,Cat,0,2226,2775,0,0,,1
w10054787_jpc,jrrdtzio1d,Nick_Dissertation_EX1_EP,1,158,2021-11-06T22:33:23+00:00,7.8901169300079,4,versionC_stim.csv,READVersionD.csv,"Read Version D","Dissertation, read only version D",ACTRESS,STAR,Study2,F,120,114,Test,User,-,,Recall,Recall1,7468,"Actor ",44.444444444444,2266,4832,0,0,,1
w10054787_jpc,jrrdtzio1d,Nick_Dissertation_EX1_EP,1,159,2021-11-06T22:33:26+00:00,3.3903870582581,4,versionC_stim.csv,READVersionD.csv,"Read Version D","Dissertation, read only version D",TAN,SUN,Study2,S,155,136,Test,User,-,,Recall,Recall1,2976,Sun,100,1964,2256,1,1,,1
w10054787_jpc,jrrdtzio1d,Nick_Dissertation_EX1_EP,1,160,2021-11-06T22:33:34+00:00,8.0069358348846,4,versionC_stim.csv,READVersionD.csv,"Read Version D","Dissertation, read only version D",REVENGE,EVEN,Study2,F,122,131,Test,User,-,,Recall,Recall1,7453,"Evil ",50,5994,6661,0,0,,1
w10054787_jpc,jrrdtzio1d,Nick_Dissertation_EX1_EP,1,161,2021-11-06T22:33:41+00:00,6.873603105545,4,versionC_stim.csv,READVersionD.csv,"Read Version D","Dissertation, read only version D",JAR,MASON,Study2,S,138,152,Test,User,-,,Recall,Recall1,6467,Mason,100,4031,5647,1,1,,1
w10054787_jpc,jrrdtzio1d,Nick_Dissertation_EX1_EP,1,162,2021-11-06T22:33:49+00:00,7.4263439178467,4,versionC_stim.csv,READVersionD.csv,"Read Version D","Dissertation, read only version D",SMELL,INCENSE,Study2,B,110,139,Test,User,-,,Recall,Recall1,6824,Nose,54.545454545455,5669,6069,0,0,,1
w10054787_jpc,jrrdtzio1d,Nick_Dissertation_EX1_EP,1,163,2021-11-06T22:33:55+00:00,6.6070241928101,4,versionC_stim.csv,READVersionD.csv,"Read Version D","Dissertation, read only version D",DONKEY,MULE,Study2,B,108,126,Test,User,-,,Recall,Recall1,6207,"Animal ",40,3310,4513,0,0,,1
w10054787_jpc,jrrdtzio1d,Nick_Dissertation_EX1_EP,1,164,2021-11-06T22:34:00+00:00,5.0752329826355,4,versionC_stim.csv,READVersionD.csv,"Read Version D","Dissertation, read only version D",CLOTH,STRETCH,Study2,U,157,156,Test,User,-,,Recall,Recall1,4610,Clothes,28.571428571429,3190,3874,0,0,,1
w10054787_jpc,jrrdtzio1d,Nick_Dissertation_EX1_EP,1,165,2021-11-06T22:34:08+00:00,7.9801368713379,4,versionC_stim.csv,READVersionD.csv,"Read Version D","Dissertation, read only version D",SIGN,LOAN,Study2,U,171,157,Test,User,-,,Recall,Recall1,7393,"Language ",50,5320,6688,0,0,,1
w10054787_jpc,jrrdtzio1d,Nick_Dissertation_EX1_EP,1,166,2021-11-06T22:34:12+00:00,3.597846031189,4,versionC_stim.csv,READVersionD.csv,"Read Version D","Dissertation, read only version D",TEMPER,TANTRUM,Study2,S,154,102,Test,User,-,,Recall,Recall1,3151,Anger,50,1835,2392,0,0,,1
w10054787_jpc,jrrdtzio1d,Nick_Dissertation_EX1_EP,1,167,2021-11-06T22:34:16+00:00,4.2505030632019,4,versionC_stim.csv,READVersionD.csv,"Read Version D","Dissertation, read only version D",CAR,DRIVER,Study2,B,106,115,Test,User,-,,Recall,Recall1,3804,"Seatbelt ",14.285714285714,1884,3133,0,0,,1
w10054787_jpc,jrrdtzio1d,Nick_Dissertation_EX1_EP,1,168,2021-11-06T22:34:20+00:00,4.2267639636993,4,versionC_stim.csv,READVersionD.csv,"Read Version D","Dissertation, read only version D",PENGUIN,BIRD,Study2,F,119,128,Test,User,-,,Recall,Recall1,3802,Ice,28.571428571429,2617,3001,0,0,,1
w10054787_jpc,jrrdtzio1d,Nick_Dissertation_EX1_EP,1,169,2021-11-06T22:34:25+00:00,4.2055959701538,4,versionC_stim.csv,READVersionD.csv,"Read Version D","Dissertation, read only version D",PAPER,DOCUMENT,Study2,B,109,144,Test,User,-,,Recall,Recall1,3766,Pencil,28.571428571429,2108,2862,0,0,,1
w10054787_jpc,jrrdtzio1d,Nick_Dissertation_EX1_EP,1,170,2021-11-06T22:34:34+00:00,9.7598040103912,4,versionC_stim.csv,READVersionD.csv,"Read Version D","Dissertation, read only version D",FICTION,LISTEN,Study2,U,164,116,Test,User,-,,Recall,Recall1,9346,Story,36.363636363636,7823,8623,0,0,,1
w10054787_jpc,jrrdtzio1d,Nick_Dissertation_EX1_EP,1,171,2021-11-06T22:34:39+00:00,4.1677629947662,4,versionC_stim.csv,READVersionD.csv,"Read Version D","Dissertation, read only version D",SHAVE,RAZOR,Study2,S,136,170,Test,User,-,,Recall,Recall1,3727,Razor,100,2215,2883,1,1,,1
w10054787_jpc,jrrdtzio1d,Nick_Dissertation_EX1_EP,1,172,2021-11-06T22:34:44+00:00,5.8681058883667,4,versionC_stim.csv,READVersionD.csv,"Read Version D","Dissertation, read only version D",EAT,DINE,Study2,B,111,135,Test,User,-,,Recall,Recall1,5301,Food,25,2062,4529,0,0,,1
w10054787_jpc,jrrdtzio1d,Nick_Dissertation_EX1_EP,1,173,2021-11-06T22:34:49+00:00,4.7628190517426,4,versionC_stim.csv,READVersionD.csv,"Read Version D","Dissertation, read only version D",CLOTHES,CAKE,Study2,U,166,98,Test,User,-,,Recall,Recall1,4328,Cloth,22.222222222222,3003,3487,0,0,,1
w10054787_jpc,jrrdtzio1d,Nick_Dissertation_EX1_EP,1,174,2021-11-06T22:34:53+00:00,3.6560750007629,4,versionC_stim.csv,READVersionD.csv,"Read Version D","Dissertation, read only version D",REEL,ROD,Study2,S,150,132,Test,User,-,,Recall,Recall1,3243,Fish,0,2039,2323,0,0,,1
w10054787_jpc,jrrdtzio1d,Nick_Dissertation_EX1_EP,1,175,2021-11-06T22:34:56+00:00,3.5521049499512,4,versionC_stim.csv,READVersionD.csv,"Read Version D","Dissertation, read only version D",JOKE,KEYS,Study2,U,165,118,Test,User,-,,Recall,Recall1,3145,"Funny ",22.222222222222,1943,2510,0,0,,1
w10054787_jpc,jrrdtzio1d,Nick_Dissertation_EX1_EP,1,176,2021-11-06T22:35:04+00:00,7.1088590621948,4,versionC_stim.csv,READVersionD.csv,"Read Version D","Dissertation, read only version D",CUT,CHOP,Study2,B,107,174,Test,User,-,,Recall,Recall1,6716,scissor,36.363636363636,4628,5495,0,0,,1
w10054787_jpc,jrrdtzio1d,Nick_Dissertation_EX1_EP,1,177,2021-11-06T22:35:49+00:00,45.455651044846,4,versionC_stim.csv,READVersionD.csv,"Read Version D","Dissertation, read only version D",,,,,,0,Instruct,-,10,"You will now be presented with a new set of word pairs. Please study each pair. Remember that your memory will be tested! When finished, press Enter to move to the next pair.",Initial_Instruct,Instruct4,45021,,,-1,-1,,,,0.961
w10054787_jpc,jrrdtzio1d,Nick_Dissertation_EX1_EP,1,178,2021-11-06T22:35:55+00:00,5.9487819671631,4,versionC_stim.csv,READVersionD.csv,"Read Version D","Dissertation, read only version D",,,,,,0,Instruct,User,-,"Each word will be displayed on the computer screen for 8 seconds. The screen will automatically move to the next pair when time is up. Press Enter when you are ready to begin.",,Instruct11,5504,,,-1,-1,,,,1
w10054787_jpc,jrrdtzio1d,Nick_Dissertation_EX1_EP,1,179,2021-11-06T22:36:04+00:00,8.6247689723969,4,versionC_stim.csv,READVersionD.csv,"Read Version D","Dissertation, read only version D",CATCHER,BASEBALL,BUFFER1,Buffer,2,6,Study,8,8,,Study/JOL,BUFFER3,8002,,,-1,-1,,,,1
w10054787_jpc,jrrdtzio1d,Nick_Dissertation_EX1_EP,1,180,2021-11-06T22:36:12+00:00,8.4401919841766,4,versionC_stim.csv,READVersionD.csv,"Read Version D","Dissertation, read only version D",BUTTER,PEANUT,BUFFER1,Buffer,3,3,Study,8,8,,Study/JOL,BUFFER3,8002,,,-1,-1,,,,1
w10054787_jpc,jrrdtzio1d,Nick_Dissertation_EX1_EP,1,181,2021-11-06T22:36:20+00:00,8.4336521625519,4,versionC_stim.csv,READVersionD.csv,"Read Version D","Dissertation, read only version D",HIDE,SCARE,BUFFER1,Buffer,4,2,Study,8,8,,Study/JOL,BUFFER3,8001,,,-1,-1,,,,1
w10054787_jpc,jrrdtzio1d,Nick_Dissertation_EX1_EP,1,182,2021-11-06T22:36:29+00:00,8.626809835434,4,versionC_stim.csv,READVersionD.csv,"Read Version D","Dissertation, read only version D",GREEN,TREES,BUFFER1,Buffer,1,5,Study,8,8,,Study/JOL,BUFFER3,8003,,,-1,-1,,,,1
w10054787_jpc,jrrdtzio1d,Nick_Dissertation_EX1_EP,1,183,2021-11-06T22:36:38+00:00,8.5611081123352,4,versionC_stim.csv,READVersionD.csv,"Read Version D","Dissertation, read only version D",JAM,SPACE,BUFFER1,Buffer,5,4,Study,8,8,,Study/JOL,BUFFER3,8001,,,-1,-1,,,,1
w10054787_jpc,jrrdtzio1d,Nick_Dissertation_EX1_EP,1,184,2021-11-06T22:36:46+00:00,8.4274549484253,4,versionC_stim.csv,READVersionD.csv,"Read Version D","Dissertation, read only version D",STOMACH,DIGESTION,Study1,B,7,35,Study,8,8,,Study/JOL,"Study Phase2",8001,,,-1,-1,,,,1
w10054787_jpc,jrrdtzio1d,Nick_Dissertation_EX1_EP,1,185,2021-11-06T22:36:55+00:00,8.4857831001282,4,versionC_stim.csv,READVersionD.csv,"Read Version D","Dissertation, read only version D",LIVER,KIDNEY,Study1,S,53,55,Study,8,8,,Study/JOL,"Study Phase2",8001,,,-1,-1,,,,1
w10054787_jpc,jrrdtzio1d,Nick_Dissertation_EX1_EP,1,186,2021-11-06T22:37:03+00:00,8.6079859733582,4,versionC_stim.csv,READVersionD.csv,"Read Version D","Dissertation, read only version D",ROCK,GEOLOGY,Study1,B,19,52,Study,8,8,,Study/JOL,"Study Phase2",8000,,,-1,-1,,,,1
w10054787_jpc,jrrdtzio1d,Nick_Dissertation_EX1_EP,1,187,2021-11-06T22:37:12+00:00,8.5113658905029,4,versionC_stim.csv,READVersionD.csv,"Read Version D","Dissertation, read only version D",SIGHT,DEBATE,Study1,U,73,19,Study,8,8,,Study/JOL,"Study Phase2",8001,,,-1,-1,,,,1
w10054787_jpc,jrrdtzio1d,Nick_Dissertation_EX1_EP,1,188,2021-11-06T22:37:20+00:00,8.4599370956421,4,versionC_stim.csv,READVersionD.csv,"Read Version D","Dissertation, read only version D",BRONZE,ARTERY,Study1,U,74,42,Study,8,8,,Study/JOL,"Study Phase2",8002,,,-1,-1,,,,1
w10054787_jpc,jrrdtzio1d,Nick_Dissertation_EX1_EP,1,189,2021-11-06T22:37:29+00:00,8.6046528816223,4,versionC_stim.csv,READVersionD.csv,"Read Version D","Dissertation, read only version D",JURY,TRIAL,Study1,S,50,60,Study,8,8,,Study/JOL,"Study Phase2",8002,,,-1,-1,,,,1
w10054787_jpc,jrrdtzio1d,Nick_Dissertation_EX1_EP,1,190,2021-11-06T22:37:37+00:00,8.6032810211182,4,versionC_stim.csv,READVersionD.csv,"Read Version D","Dissertation, read only version D",SALAD,LETTUCE,Study1,S,59,57,Study,8,8,,Study/JOL,"Study Phase2",8002,,,-1,-1,,,,1
w10054787_jpc,jrrdtzio1d,Nick_Dissertation_EX1_EP,1,191,2021-11-06T22:37:46+00:00,8.5791211128235,4,versionC_stim.csv,READVersionD.csv,"Read Version D","Dissertation, read only version D",PLANT,ROOT,Study1,B,13,13,Study,8,8,,Study/JOL,"Study Phase2",8009,,,-1,-1,,,,1
w10054787_jpc,jrrdtzio1d,Nick_Dissertation_EX1_EP,1,192,2021-11-06T22:37:55+00:00,8.6079759597778,4,versionC_stim.csv,READVersionD.csv,"Read Version D","Dissertation, read only version D",SODA,POP,Study1,S,56,18,Study,8,8,,Study/JOL,"Study Phase2",8001,,,-1,-1,,,,1
w10054787_jpc,jrrdtzio1d,Nick_Dissertation_EX1_EP,1,193,2021-11-06T22:38:03+00:00,8.5710380077362,4,versionC_stim.csv,READVersionD.csv,"Read Version D","Dissertation, read only version D",FISH,TUNA,Study1,B,25,51,Study,8,8,,Study/JOL,"Study Phase2",8001,,,-1,-1,,,,1
w10054787_jpc,jrrdtzio1d,Nick_Dissertation_EX1_EP,1,194,2021-11-06T22:38:12+00:00,8.5926060676575,4,versionC_stim.csv,READVersionD.csv,"Read Version D","Dissertation, read only version D",STENCH,SMELL,Study1,F,42,37,Study,8,8,,Study/JOL,"Study Phase2",8001,,,-1,-1,,,,1
w10054787_jpc,jrrdtzio1d,Nick_Dissertation_EX1_EP,1,195,2021-11-06T22:39:10+00:00,58.282605886459,4,versionC_stim.csv,READVersionD.csv,"Read Version D","Dissertation, read only version D",SIP,DRINK,Study1,F,27,61,Study,8,8,,Study/JOL,"Study Phase2",8002,,,-1,-1,,,,1
w10054787_jpc,jrrdtzio1d,Nick_Dissertation_EX1_EP,1,196,2021-11-06T22:39:18+00:00,8.4138369560242,4,versionC_stim.csv,READVersionD.csv,"Read Version D","Dissertation, read only version D",BIRD,SWAN,Study1,B,14,12,Study,8,8,,Study/JOL,"Study Phase2",8003,,,-1,-1,,,,1
w10054787_jpc,jrrdtzio1d,Nick_Dissertation_EX1_EP,1,197,2021-11-06T22:39:27+00:00,8.4016120433807,4,versionC_stim.csv,READVersionD.csv,"Read Version D","Dissertation, read only version D",BELT,SOON,Study1,U,70,54,Study,8,8,,Study/JOL,"Study Phase2",8002,,,-1,-1,,,,1
w10054787_jpc,jrrdtzio1d,Nick_Dissertation_EX1_EP,1,198,2021-11-06T22:39:35+00:00,8.3840770721436,4,versionC_stim.csv,READVersionD.csv,"Read Version D","Dissertation, read only version D",CAR,HAPPY,Study1,U,77,33,Study,8,8,,Study/JOL,"Study Phase2",8002,,,-1,-1,,,,1
w10054787_jpc,jrrdtzio1d,Nick_Dissertation_EX1_EP,1,199,2021-11-06T22:39:44+00:00,8.3836250305176,4,versionC_stim.csv,READVersionD.csv,"Read Version D","Dissertation, read only version D",DOG,PAW,Study1,B,15,58,Study,8,8,,Study/JOL,"Study Phase2",8002,,,-1,-1,,,,1
w10054787_jpc,jrrdtzio1d,Nick_Dissertation_EX1_EP,1,200,2021-11-06T22:39:52+00:00,8.4050078392029,4,versionC_stim.csv,READVersionD.csv,"Read Version D","Dissertation, read only version D",ATTIRE,CLOTHES,Study1,F,43,63,Study,8,8,,Study/JOL,"Study Phase2",8001,,,-1,-1,,,,1
w10054787_jpc,jrrdtzio1d,Nick_Dissertation_EX1_EP,1,201,2021-11-06T22:40:00+00:00,8.4069499969482,4,versionC_stim.csv,READVersionD.csv,"Read Version D","Dissertation, read only version D",TUCK,ALLOW,Study1,U,78,86,Study,8,8,,Study/JOL,"Study Phase2",8001,,,-1,-1,,,,1
w10054787_jpc,jrrdtzio1d,Nick_Dissertation_EX1_EP,1,202,2021-11-06T22:40:09+00:00,8.714919090271,4,versionC_stim.csv,READVersionD.csv,"Read Version D","Dissertation, read only version D",WOULD,CASH,Study1,U,83,30,Study,8,8,,Study/JOL,"Study Phase2",8236,,,-1,-1,,,,0.906
w10054787_jpc,jrrdtzio1d,Nick_Dissertation_EX1_EP,1,203,2021-11-06T22:40:33+00:00,24.294305086136,4,versionC_stim.csv,READVersionD.csv,"Read Version D","Dissertation, read only version D",DROWSY,SLEEP,Study1,F,41,32,Study,8,8,,Study/JOL,"Study Phase2",23515,,,-1,-1,,,,0
w10054787_jpc,jrrdtzio1d,Nick_Dissertation_EX1_EP,1,204,2021-11-06T22:41:00+00:00,26.415450811386,4,versionC_stim.csv,READVersionD.csv,"Read Version D","Dissertation, read only version D",ATTORNEY,LAW,Study1,F,34,22,Study,8,8,,Study/JOL,"Study Phase2",25306,,,-1,-1,,,,0
w10054787_jpc,jrrdtzio1d,Nick_Dissertation_EX1_EP,1,205,2021-11-06T22:41:09+00:00,8.760665178299,4,versionC_stim.csv,READVersionD.csv,"Read Version D","Dissertation, read only version D",CHEESE,WINE,Study1,S,57,26,Study,8,8,,Study/JOL,"Study Phase2",8002,,,-1,-1,,,,1
w10054787_jpc,jrrdtzio1d,Nick_Dissertation_EX1_EP,1,206,2021-11-06T22:41:17+00:00,8.5788860321045,4,versionC_stim.csv,READVersionD.csv,"Read Version D","Dissertation, read only version D",MONEY,WAGE,Study1,B,8,20,Study,8,8,,Study/JOL,"Study Phase2",8003,,,-1,-1,,,,1
w10054787_jpc,jrrdtzio1d,Nick_Dissertation_EX1_EP,1,207,2021-11-06T22:41:26+00:00,8.594465970993,4,versionC_stim.csv,READVersionD.csv,"Read Version D","Dissertation, read only version D",ACCIDENT,STRONG,Study1,U,80,10,Study,8,8,,Study/JOL,"Study Phase2",8002,,,-1,-1,,,,1
w10054787_jpc,jrrdtzio1d,Nick_Dissertation_EX1_EP,1,208,2021-11-06T22:41:34+00:00,8.5877718925476,4,versionC_stim.csv,READVersionD.csv,"Read Version D","Dissertation, read only version D",WAR,REVOLUTION,Study1,B,20,73,Study,8,8,,Study/JOL,"Study Phase2",8002,,,-1,-1,,,,1
w10054787_jpc,jrrdtzio1d,Nick_Dissertation_EX1_EP,1,209,2021-11-06T22:41:43+00:00,8.5869600772858,4,versionC_stim.csv,READVersionD.csv,"Read Version D","Dissertation, read only version D",PILOT,PLANE,Study1,F,44,7,Study,8,8,,Study/JOL,"Study Phase2",8001,,,-1,-1,,,,1
w10054787_jpc,jrrdtzio1d,Nick_Dissertation_EX1_EP,1,210,2021-11-06T22:41:52+00:00,8.5898630619049,4,versionC_stim.csv,READVersionD.csv,"Read Version D","Dissertation, read only version D",CHORE,WORK,Study1,F,39,56,Study,8,8,,Study/JOL,"Study Phase2",8002,,,-1,-1,,,,1
w10054787_jpc,jrrdtzio1d,Nick_Dissertation_EX1_EP,1,211,2021-11-06T22:42:00+00:00,8.4538428783417,4,versionC_stim.csv,READVersionD.csv,"Read Version D","Dissertation, read only version D",WIND,BLOW,Study1,S,55,16,Study,8,8,,Study/JOL,"Study Phase2",8002,,,-1,-1,,,,1
w10054787_jpc,jrrdtzio1d,Nick_Dissertation_EX1_EP,1,212,2021-11-06T22:42:08+00:00,8.4285209178925,4,versionC_stim.csv,READVersionD.csv,"Read Version D","Dissertation, read only version D",ROUND,CIRCLE,Study1,S,65,27,Study,8,8,,Study/JOL,"Study Phase2",8001,,,-1,-1,,,,1
w10054787_jpc,jrrdtzio1d,Nick_Dissertation_EX1_EP,1,213,2021-11-06T22:42:17+00:00,8.5970029830933,4,versionC_stim.csv,READVersionD.csv,"Read Version D","Dissertation, read only version D",BUSINESS,DEATH,Study1,U,72,49,Study,8,8,,Study/JOL,"Study Phase2",8001,,,-1,-1,,,,1
w10054787_jpc,jrrdtzio1d,Nick_Dissertation_EX1_EP,1,214,2021-11-06T22:42:26+00:00,8.6011991500854,4,versionC_stim.csv,READVersionD.csv,"Read Version D","Dissertation, read only version D",TOILET,BATHROOM,Study1,S,58,25,Study,8,8,,Study/JOL,"Study Phase2",8002,,,-1,-1,,,,1
w10054787_jpc,jrrdtzio1d,Nick_Dissertation_EX1_EP,1,215,2021-11-06T22:42:34+00:00,8.398020029068,4,versionC_stim.csv,READVersionD.csv,"Read Version D","Dissertation, read only version D",CHILD,BABY,Study1,S,64,14,Study,8,8,,Study/JOL,"Study Phase2",8002,,,-1,-1,,,,1
w10054787_jpc,jrrdtzio1d,Nick_Dissertation_EX1_EP,1,216,2021-11-06T22:42:43+00:00,8.5905418395996,4,versionC_stim.csv,READVersionD.csv,"Read Version D","Dissertation, read only version D",OUT,WAY,Study1,B,16,68,Study,8,8,,Study/JOL,"Study Phase2",8003,,,-1,-1,,,,1
w10054787_jpc,jrrdtzio1d,Nick_Dissertation_EX1_EP,1,217,2021-11-06T22:42:51+00:00,8.609050989151,4,versionC_stim.csv,READVersionD.csv,"Read Version D","Dissertation, read only version D",BAD,DELINQUENT,Study1,B,6,53,Study,8,8,,Study/JOL,"Study Phase2",8002,,,-1,-1,,,,1
w10054787_jpc,jrrdtzio1d,Nick_Dissertation_EX1_EP,1,218,2021-11-06T22:43:00+00:00,8.5903420448303,4,versionC_stim.csv,READVersionD.csv,"Read Version D","Dissertation, read only version D",WASTE,DUMP,Study1,S,49,28,Study,8,8,,Study/JOL,"Study Phase2",8001,,,-1,-1,,,,1
w10054787_jpc,jrrdtzio1d,Nick_Dissertation_EX1_EP,1,219,2021-11-06T22:43:08+00:00,8.4487800598145,4,versionC_stim.csv,READVersionD.csv,"Read Version D","Dissertation, read only version D",LATCH,KEY,Study1,F,36,65,Study,8,8,,Study/JOL,"Study Phase2",8000,,,-1,-1,,,,1
w10054787_jpc,jrrdtzio1d,Nick_Dissertation_EX1_EP,1,220,2021-11-06T22:43:17+00:00,8.5815739631653,4,versionC_stim.csv,READVersionD.csv,"Read Version D","Dissertation, read only version D",FAMINE,HUNGER,Study1,F,40,74,Study,8,8,,Study/JOL,"Study Phase2",8002,,,-1,-1,,,,1
w10054787_jpc,jrrdtzio1d,Nick_Dissertation_EX1_EP,1,221,2021-11-06T22:43:25+00:00,8.6109449863434,4,versionC_stim.csv,READVersionD.csv,"Read Version D","Dissertation, read only version D",SITE,LOCATION,Study1,S,48,72,Study,8,8,,Study/JOL,"Study Phase2",8002,,,-1,-1,,,,1
w10054787_jpc,jrrdtzio1d,Nick_Dissertation_EX1_EP,1,222,2021-11-06T22:43:34+00:00,8.6434049606323,4,versionC_stim.csv,READVersionD.csv,"Read Version D","Dissertation, read only version D",LION,ART,Study1,U,79,82,Study,8,8,,Study/JOL,"Study Phase2",8216,,,-1,-1,,,,0.943
w10054787_jpc,jrrdtzio1d,Nick_Dissertation_EX1_EP,1,223,2021-11-06T22:43:57+00:00,22.45939707756,4,versionC_stim.csv,READVersionD.csv,"Read Version D","Dissertation, read only version D",RACKET,BALL,Study1,F,38,70,Study,8,8,,Study/JOL,"Study Phase2",21865,,,-1,-1,,,,0
w10054787_jpc,jrrdtzio1d,Nick_Dissertation_EX1_EP,1,224,2021-11-06T22:44:05+00:00,8.907210111618,4,versionC_stim.csv,READVersionD.csv,"Read Version D","Dissertation, read only version D",SEIZE,TAKE,Study1,F,29,64,Study,8,8,,Study/JOL,"Study Phase2",8002,,,-1,-1,,,,1
w10054787_jpc,jrrdtzio1d,Nick_Dissertation_EX1_EP,1,225,2021-11-06T22:44:14+00:00,8.60098695755,4,versionC_stim.csv,READVersionD.csv,"Read Version D","Dissertation, read only version D",END,BEGIN,Study1,S,54,45,Study,8,8,,Study/JOL,"Study Phase2",8003,,,-1,-1,,,,1
w10054787_jpc,jrrdtzio1d,Nick_Dissertation_EX1_EP,1,226,2021-11-06T22:44:23+00:00,8.5846819877625,4,versionC_stim.csv,READVersionD.csv,"Read Version D","Dissertation, read only version D",DEFINITION,MEANING,Study1,S,62,29,Study,8,8,,Study/JOL,"Study Phase2",8000,,,-1,-1,,,,1
w10054787_jpc,jrrdtzio1d,Nick_Dissertation_EX1_EP,1,227,2021-11-06T22:44:31+00:00,8.6370649337769,4,versionC_stim.csv,READVersionD.csv,"Read Version D","Dissertation, read only version D",CARD,CREDIT,Study1,B,23,59,Study,8,8,,Study/JOL,"Study Phase2",8001,,,-1,-1,,,,1
w10054787_jpc,jrrdtzio1d,Nick_Dissertation_EX1_EP,1,228,2021-11-06T22:44:40+00:00,8.5888450145721,4,versionC_stim.csv,READVersionD.csv,"Read Version D","Dissertation, read only version D",CHILI,HOT,Study1,F,37,41,Study,8,8,,Study/JOL,"Study Phase2",8001,,,-1,-1,,,,1
w10054787_jpc,jrrdtzio1d,Nick_Dissertation_EX1_EP,1,229,2021-11-06T22:44:48+00:00,8.6091389656067,4,versionC_stim.csv,READVersionD.csv,"Read Version D","Dissertation, read only version D",ASSIGNMENT,DUE,Study1,S,46,8,Study,8,8,,Study/JOL,"Study Phase2",8001,,,-1,-1,,,,1
w10054787_jpc,jrrdtzio1d,Nick_Dissertation_EX1_EP,1,230,2021-11-06T22:44:57+00:00,8.4366250038147,4,versionC_stim.csv,READVersionD.csv,"Read Version D","Dissertation, read only version D",DIVISION,MATH,Study1,F,33,83,Study,8,8,,Study/JOL,"Study Phase2",8000,,,-1,-1,,,,1
w10054787_jpc,jrrdtzio1d,Nick_Dissertation_EX1_EP,1,231,2021-11-06T22:45:06+00:00,8.6866819858551,4,versionC_stim.csv,READVersionD.csv,"Read Version D","Dissertation, read only version D",COLD,BITTER,Study1,B,12,84,Study,8,8,,Study/JOL,"Study Phase2",8002,,,-1,-1,,,,1
w10054787_jpc,jrrdtzio1d,Nick_Dissertation_EX1_EP,1,232,2021-11-06T22:45:14+00:00,8.4398491382599,4,versionC_stim.csv,READVersionD.csv,"Read Version D","Dissertation, read only version D",HUNGRY,PARK,Study1,U,68,69,Study,8,8,,Study/JOL,"Study Phase2",8002,,,-1,-1,,,,1
w10054787_jpc,jrrdtzio1d,Nick_Dissertation_EX1_EP,1,233,2021-11-06T22:45:22+00:00,8.4492728710175,4,versionC_stim.csv,READVersionD.csv,"Read Version D","Dissertation, read only version D",ENOUGH,FULL,Study1,F,26,71,Study,8,8,,Study/JOL,"Study Phase2",8003,,,-1,-1,,,,1
w10054787_jpc,jrrdtzio1d,Nick_Dissertation_EX1_EP,1,234,2021-11-06T22:45:31+00:00,8.5809810161591,4,versionC_stim.csv,READVersionD.csv,"Read Version D","Dissertation, read only version D",VASE,KING,Study1,U,85,62,Study,8,8,,Study/JOL,"Study Phase2",8002,,,-1,-1,,,,1
w10054787_jpc,jrrdtzio1d,Nick_Dissertation_EX1_EP,1,235,2021-11-06T22:45:40+00:00,8.7118511199951,4,versionC_stim.csv,READVersionD.csv,"Read Version D","Dissertation, read only version D",WASP,BUG,Study1,F,32,46,Study,8,8,,Study/JOL,"Study Phase2",8003,,,-1,-1,,,,1
w10054787_jpc,jrrdtzio1d,Nick_Dissertation_EX1_EP,1,236,2021-11-06T22:45:48+00:00,8.4220168590546,4,versionC_stim.csv,READVersionD.csv,"Read Version D","Dissertation, read only version D",BEE,HONEY,Study1,S,63,24,Study,8,8,,Study/JOL,"Study Phase2",8002,,,-1,-1,,,,1
w10054787_jpc,jrrdtzio1d,Nick_Dissertation_EX1_EP,1,237,2021-11-06T22:45:57+00:00,8.6203360557556,4,versionC_stim.csv,READVersionD.csv,"Read Version D","Dissertation, read only version D",FUTURE,PAST,Study1,S,61,75,Study,8,8,,Study/JOL,"Study Phase2",8003,,,-1,-1,,,,1
w10054787_jpc,jrrdtzio1d,Nick_Dissertation_EX1_EP,1,238,2021-11-06T22:46:05+00:00,8.6363999843597,4,versionC_stim.csv,READVersionD.csv,"Read Version D","Dissertation, read only version D",CLEAN,HYGIENE,Study1,B,17,43,Study,8,8,,Study/JOL,"Study Phase2",8002,,,-1,-1,,,,1
w10054787_jpc,jrrdtzio1d,Nick_Dissertation_EX1_EP,1,239,2021-11-06T22:46:14+00:00,8.4151968955994,4,versionC_stim.csv,READVersionD.csv,"Read Version D","Dissertation, read only version D",FLOWER,ORCHID,Study1,B,24,81,Study,8,8,,Study/JOL,"Study Phase2",8001,,,-1,-1,,,,1
w10054787_jpc,jrrdtzio1d,Nick_Dissertation_EX1_EP,1,240,2021-11-06T22:46:22+00:00,8.5892701148987,4,versionC_stim.csv,READVersionD.csv,"Read Version D","Dissertation, read only version D",CAVE,DARK,Study1,F,28,80,Study,8,8,,Study/JOL,"Study Phase2",8001,,,-1,-1,,,,1
w10054787_jpc,jrrdtzio1d,Nick_Dissertation_EX1_EP,1,241,2021-11-06T22:46:31+00:00,8.5881900787354,4,versionC_stim.csv,READVersionD.csv,"Read Version D","Dissertation, read only version D",WOMAN,LIFT,Study1,U,69,44,Study,8,8,,Study/JOL,"Study Phase2",8001,,,-1,-1,,,,1
w10054787_jpc,jrrdtzio1d,Nick_Dissertation_EX1_EP,1,242,2021-11-06T22:46:40+00:00,8.6639399528503,4,versionC_stim.csv,READVersionD.csv,"Read Version D","Dissertation, read only version D",FOOT,SHOE,Study1,S,60,17,Study,8,8,,Study/JOL,"Study Phase2",8002,,,-1,-1,,,,1
w10054787_jpc,jrrdtzio1d,Nick_Dissertation_EX1_EP,1,243,2021-11-06T22:46:48+00:00,8.4774558544159,4,versionC_stim.csv,READVersionD.csv,"Read Version D","Dissertation, read only version D",TALK,DISCUSSION,Study1,B,21,67,Study,8,8,,Study/JOL,"Study Phase2",8002,,,-1,-1,,,,1
w10054787_jpc,jrrdtzio1d,Nick_Dissertation_EX1_EP,1,244,2021-11-06T22:46:57+00:00,8.6115350723267,4,versionC_stim.csv,READVersionD.csv,"Read Version D","Dissertation, read only version D",CLUTTER,PUSHER,Study1,U,66,9,Study,8,8,,Study/JOL,"Study Phase2",8001,,,-1,-1,,,,1
w10054787_jpc,jrrdtzio1d,Nick_Dissertation_EX1_EP,1,245,2021-11-06T22:47:05+00:00,8.6284770965576,4,versionC_stim.csv,READVersionD.csv,"Read Version D","Dissertation, read only version D",SACKING,DIETARY,Study1,U,67,15,Study,8,8,,Study/JOL,"Study Phase2",8001,,,-1,-1,,,,1
w10054787_jpc,jrrdtzio1d,Nick_Dissertation_EX1_EP,1,246,2021-11-06T22:47:14+00:00,8.6213269233704,4,versionC_stim.csv,READVersionD.csv,"Read Version D","Dissertation, read only version D",WORD,SENTENCE,Study1,F,31,78,Study,8,8,,Study/JOL,"Study Phase2",8000,,,-1,-1,,,,1
w10054787_jpc,jrrdtzio1d,Nick_Dissertation_EX1_EP,1,247,2021-11-06T22:47:23+00:00,8.6444489955902,4,versionC_stim.csv,READVersionD.csv,"Read Version D","Dissertation, read only version D",SICK,HIDE,Study1,U,84,47,Study,8,8,,Study/JOL,"Study Phase2",8001,,,-1,-1,,,,1
w10054787_jpc,jrrdtzio1d,Nick_Dissertation_EX1_EP,1,248,2021-11-06T22:47:31+00:00,8.6174321174622,4,versionC_stim.csv,READVersionD.csv,"Read Version D","Dissertation, read only version D",GROWTH,HEIGHT,Study1,F,30,38,Study,8,8,,Study/JOL,"Study Phase2",8002,,,-1,-1,,,,1
w10054787_jpc,jrrdtzio1d,Nick_Dissertation_EX1_EP,1,249,2021-11-06T22:47:40+00:00,8.4412279129028,4,versionC_stim.csv,READVersionD.csv,"Read Version D","Dissertation, read only version D",FLOOR,DISCOVER,Study1,U,71,40,Study,8,8,,Study/JOL,"Study Phase2",8002,,,-1,-1,,,,1
w10054787_jpc,jrrdtzio1d,Nick_Dissertation_EX1_EP,1,250,2021-11-06T22:47:48+00:00,8.4374580383301,4,versionC_stim.csv,READVersionD.csv,"Read Version D","Dissertation, read only version D",DESIGN,ARCHITECTURE,Study1,S,51,79,Study,8,8,,Study/JOL,"Study Phase2",8007,,,-1,-1,,,,1
w10054787_jpc,jrrdtzio1d,Nick_Dissertation_EX1_EP,1,251,2021-11-06T22:47:57+00:00,8.4004089832306,4,versionC_stim.csv,READVersionD.csv,"Read Version D","Dissertation, read only version D",ADD,VALLEY,Study1,U,82,85,Study,8,8,,Study/JOL,"Study Phase2",8003,,,-1,-1,,,,1
w10054787_jpc,jrrdtzio1d,Nick_Dissertation_EX1_EP,1,252,2021-11-06T22:48:05+00:00,8.4805209636688,4,versionC_stim.csv,READVersionD.csv,"Read Version D","Dissertation, read only version D",STING,HORNET,Study1,B,11,11,Study,8,8,,Study/JOL,"Study Phase2",8003,,,-1,-1,,,,1
w10054787_jpc,jrrdtzio1d,Nick_Dissertation_EX1_EP,1,253,2021-11-06T22:48:13+00:00,8.4317100048065,4,versionC_stim.csv,READVersionD.csv,"Read Version D","Dissertation, read only version D",WATER,BRIDGE,Study1,B,18,21,Study,8,8,,Study/JOL,"Study Phase2",8001,,,-1,-1,,,,1
w10054787_jpc,jrrdtzio1d,Nick_Dissertation_EX1_EP,1,254,2021-11-06T22:48:22+00:00,8.493588924408,4,versionC_stim.csv,READVersionD.csv,"Read Version D","Dissertation, read only version D",BLAZE,FIRE,Study1,F,45,39,Study,8,8,,Study/JOL,"Study Phase2",8002,,,-1,-1,,,,1
w10054787_jpc,jrrdtzio1d,Nick_Dissertation_EX1_EP,1,255,2021-11-06T22:48:30+00:00,8.4537811279297,4,versionC_stim.csv,READVersionD.csv,"Read Version D","Dissertation, read only version D",RIDDLE,SUGAR,Study1,U,81,50,Study,8,8,,Study/JOL,"Study Phase2",8002,,,-1,-1,,,,1
w10054787_jpc,jrrdtzio1d,Nick_Dissertation_EX1_EP,1,256,2021-11-06T22:48:39+00:00,8.4373869895935,4,versionC_stim.csv,READVersionD.csv,"Read Version D","Dissertation, read only version D",POSITION,MACHINE,Study1,U,76,48,Study,8,8,,Study/JOL,"Study Phase2",8001,,,-1,-1,,,,1
w10054787_jpc,jrrdtzio1d,Nick_Dissertation_EX1_EP,1,257,2021-11-06T22:48:48+00:00,8.6675729751587,4,versionC_stim.csv,READVersionD.csv,"Read Version D","Dissertation, read only version D",BAR,GRILL,Study1,S,52,76,Study,8,8,,Study/JOL,"Study Phase2",8003,,,-1,-1,,,,1
w10054787_jpc,jrrdtzio1d,Nick_Dissertation_EX1_EP,1,258,2021-11-06T22:48:57+00:00,9.7792179584503,4,versionC_stim.csv,READVersionD.csv,"Read Version D","Dissertation, read only version D",AMOUNT,NUMBER,Study1,S,47,23,Study,8,8,,Study/JOL,"Study Phase2",8001,,,-1,-1,,,,1
w10054787_jpc,jrrdtzio1d,Nick_Dissertation_EX1_EP,1,259,2021-11-06T22:49:06+00:00,8.6021709442139,4,versionC_stim.csv,READVersionD.csv,"Read Version D","Dissertation, read only version D",HAMMER,CHISEL,Study1,B,9,77,Study,8,8,,Study/JOL,"Study Phase2",8003,,,-1,-1,,,,1
w10054787_jpc,jrrdtzio1d,Nick_Dissertation_EX1_EP,1,260,2021-11-06T22:49:14+00:00,8.4326481819153,4,versionC_stim.csv,READVersionD.csv,"Read Version D","Dissertation, read only version D",NEWS,EDITOR,Study1,B,10,36,Study,8,8,,Study/JOL,"Study Phase2",8000,,,-1,-1,,,,1
w10054787_jpc,jrrdtzio1d,Nick_Dissertation_EX1_EP,1,261,2021-11-06T22:49:23+00:00,8.6103739738464,4,versionC_stim.csv,READVersionD.csv,"Read Version D","Dissertation, read only version D",FANTASTIC,GREAT,Study1,F,35,66,Study,8,8,,Study/JOL,"Study Phase2",8003,,,-1,-1,,,,1
w10054787_jpc,jrrdtzio1d,Nick_Dissertation_EX1_EP,1,262,2021-11-06T22:49:31+00:00,8.3958599567413,4,versionC_stim.csv,READVersionD.csv,"Read Version D","Dissertation, read only version D",HAND,FIX,Study1,U,75,31,Study,8,8,,Study/JOL,"Study Phase2",8003,,,-1,-1,,,,1
w10054787_jpc,jrrdtzio1d,Nick_Dissertation_EX1_EP,1,263,2021-11-06T22:49:40+00:00,8.5739369392395,4,versionC_stim.csv,READVersionD.csv,"Read Version D","Dissertation, read only version D",COW,HERD,Study1,B,22,34,Study,8,8,,Study/JOL,"Study Phase2",8001,,,-1,-1,,,,1
w10054787_jpc,jrrdtzio1d,Nick_Dissertation_EX1_EP,1,264,2021-11-06T22:49:49+00:00,8.6053891181946,4,versionC_stim.csv,READVersionD.csv,"Read Version D","Dissertation, read only version D",STUFF,THING,BUFFER2,Buffer,90,88,Study,8,8,,Study/JOL,BUFFER4,8001,,,-1,-1,,,,1
w10054787_jpc,jrrdtzio1d,Nick_Dissertation_EX1_EP,1,265,2021-11-06T22:49:57+00:00,8.6340718269348,4,versionC_stim.csv,READVersionD.csv,"Read Version D","Dissertation, read only version D",GOOSE,GEESE,BUFFER2,Buffer,86,91,Study,8,8,,Study/JOL,BUFFER4,8001,,,-1,-1,,,,1
w10054787_jpc,jrrdtzio1d,Nick_Dissertation_EX1_EP,1,266,2021-11-06T22:50:06+00:00,8.4363679885864,4,versionC_stim.csv,READVersionD.csv,"Read Version D","Dissertation, read only version D",CHOCOLATE,MALT,BUFFER2,Buffer,88,89,Study,8,8,,Study/JOL,BUFFER4,8000,,,-1,-1,,,,1
w10054787_jpc,jrrdtzio1d,Nick_Dissertation_EX1_EP,1,267,2021-11-06T22:50:14+00:00,8.4818379878998,4,versionC_stim.csv,READVersionD.csv,"Read Version D","Dissertation, read only version D",POLICE,SHERRIF,BUFFER2,Buffer,87,90,Study,8,8,,Study/JOL,BUFFER4,8003,,,-1,-1,,,,1
w10054787_jpc,jrrdtzio1d,Nick_Dissertation_EX1_EP,1,268,2021-11-06T22:50:23+00:00,8.6049900054932,4,versionC_stim.csv,READVersionD.csv,"Read Version D","Dissertation, read only version D",SPACE,MOON,BUFFER2,Buffer,89,87,Study,8,8,,Study/JOL,BUFFER4,8003,,,-1,-1,,,,1
w10054787_jpc,jrrdtzio1d,Nick_Dissertation_EX1_EP,1,269,2021-11-06T22:50:27+00:00,4.2537791728973,4,versionC_stim.csv,READVersionD.csv,"Read Version D","Dissertation, read only version D",,,,,,0,Instruct,User,-,"You have completed this section. Please press Enter.",Filler_Instruction,Instruct5,3783,,,-1,-1,,,,1
w10054787_jpc,jrrdtzio1d,Nick_Dissertation_EX1_EP,1,270,2021-11-06T22:52:28+00:00,120.62075281143,4,versionC_stim.csv,READVersionD.csv,"Read Version D","Dissertation, read only version D",,,,,,0,FreeRecall,120,120,"Please list the 50 US states in reverse alphabetical order (z - a). The task will automatically advance to the next screen after two minutes.",,Filler2,120001,"wyoming wisconsin west virginia washington virginia vermont utah texas tennessee south dakota south carolina pennsylvania oregon oklahoma ohio north carolina new york new mexico new jersey nevada nebraska montana missouri ",0,22416,118876,0,0,,1
w10054787_jpc,jrrdtzio1d,Nick_Dissertation_EX1_EP,1,271,2021-11-06T22:52:49+00:00,21.516657114029,4,versionC_stim.csv,READVersionD.csv,"Read Version D","Dissertation, read only version D",,,,,,0,Instruct,-,10,"You will now be presented with the first word from each of the previously studied item pairs. Please type the missing word. If you do not know the word, you may guess or press Enter to skip forward to the next pair.",,Instruct6,20914,,,-1,-1,,,,1
w10054787_jpc,jrrdtzio1d,Nick_Dissertation_EX1_EP,1,272,2021-11-06T22:52:55+00:00,5.5444300174713,4,versionC_stim.csv,READVersionD.csv,"Read Version D","Dissertation, read only version D",FUTURE,PAST,Study1,S,61,75,Test,User,-,,Recall,Recall2,5101,"Present ",54.545454545455,3503,4381,0,0,,1
w10054787_jpc,jrrdtzio1d,Nick_Dissertation_EX1_EP,1,273,2021-11-06T22:53:02+00:00,7.1327500343323,4,versionC_stim.csv,READVersionD.csv,"Read Version D","Dissertation, read only version D",BELT,SOON,Study1,U,70,54,Test,User,-,,Recall,Recall2,6507,Pants,22.222222222222,2734,3267,0,0,,1
w10054787_jpc,jrrdtzio1d,Nick_Dissertation_EX1_EP,1,274,2021-11-06T22:53:08+00:00,5.7949540615082,4,versionC_stim.csv,READVersionD.csv,"Read Version D","Dissertation, read only version D",VASE,KING,Study1,U,85,62,Test,User,-,,Recall,Recall2,5335,"flowers ",0,1909,4660,0,0,,1
w10054787_jpc,jrrdtzio1d,Nick_Dissertation_EX1_EP,1,275,2021-11-06T22:53:11+00:00,3.9131968021393,4,versionC_stim.csv,READVersionD.csv,"Read Version D","Dissertation, read only version D",BAD,DELINQUENT,Study1,B,6,53,Test,User,-,,Recall,Recall2,3474,Good,14.285714285714,2318,2751,0,0,,1
w10054787_jpc,jrrdtzio1d,Nick_Dissertation_EX1_EP,1,276,2021-11-06T22:53:19+00:00,7.0757751464844,4,versionC_stim.csv,READVersionD.csv,"Read Version D","Dissertation, read only version D",SACKING,DIETARY,Study1,U,67,15,Test,User,-,,Recall,Recall2,6456,"Vegetable ",37.5,4209,4867,0,0,,1
w10054787_jpc,jrrdtzio1d,Nick_Dissertation_EX1_EP,1,277,2021-11-06T22:53:34+00:00,15.69672703743,4,versionC_stim.csv,READVersionD.csv,"Read Version D","Dissertation, read only version D",ROCK,GEOLOGY,Study1,B,19,52,Test,User,-,,Recall,Recall2,15146,"Ecology ",85.714285714286,3677,12235,0,1,,1
w10054787_jpc,jrrdtzio1d,Nick_Dissertation_EX1_EP,1,278,2021-11-06T22:53:43+00:00,8.6465039253235,4,versionC_stim.csv,READVersionD.csv,"Read Version D","Dissertation, read only version D",PLANT,ROOT,Study1,B,13,13,Test,User,-,,Recall,Recall2,8001,Roots,88.888888888889,6698,7253,0,1,,1
w10054787_jpc,jrrdtzio1d,Nick_Dissertation_EX1_EP,1,279,2021-11-06T22:53:57+00:00,14.068001031876,4,versionC_stim.csv,READVersionD.csv,"Read Version D","Dissertation, read only version D",CHEESE,WINE,Study1,S,57,26,Test,User,-,,Recall,Recall2,13386,"Crackers ",16.666666666667,11428,12727,0,0,,1
w10054787_jpc,jrrdtzio1d,Nick_Dissertation_EX1_EP,1,280,2021-11-06T22:54:03+00:00,6.422070980072,4,versionC_stim.csv,READVersionD.csv,"Read Version D","Dissertation, read only version D",OUT,WAY,Study1,B,16,68,Test,User,-,,Recall,Recall2,5981,Sidr,0,4839,5173,0,0,,1
w10054787_jpc,jrrdtzio1d,Nick_Dissertation_EX1_EP,1,281,2021-11-06T22:54:09+00:00,5.1656820774078,4,versionC_stim.csv,READVersionD.csv,"Read Version D","Dissertation, read only version D",WATER,BRIDGE,Study1,B,18,21,Test,User,-,,Recall,Recall2,4731,Drink,36.363636363636,3475,4074,0,0,,1
w10054787_jpc,jrrdtzio1d,Nick_Dissertation_EX1_EP,1,282,2021-11-06T22:54:12+00:00,3.5264389514923,4,versionC_stim.csv,READVersionD.csv,"Read Version D","Dissertation, read only version D",END,BEGIN,Study1,S,54,45,Test,User,-,,Recall,Recall2,3100,Begin,100,1908,2457,1,1,,1
w10054787_jpc,jrrdtzio1d,Nick_Dissertation_EX1_EP,1,283,2021-11-06T22:54:15+00:00,3.3158328533173,4,versionC_stim.csv,READVersionD.csv,"Read Version D","Dissertation, read only version D",DIVISION,MATH,Study1,F,33,83,Test,User,-,,Recall,Recall2,2913,Math,100,1860,2297,1,1,,1
w10054787_jpc,jrrdtzio1d,Nick_Dissertation_EX1_EP,1,284,2021-11-06T22:54:19+00:00,3.4426071643829,4,versionC_stim.csv,READVersionD.csv,"Read Version D","Dissertation, read only version D",FANTASTIC,GREAT,Study1,F,35,66,Test,User,-,,Recall,Recall2,3034,Great,100,1629,2263,1,1,,1
w10054787_jpc,jrrdtzio1d,Nick_Dissertation_EX1_EP,1,285,2021-11-06T22:54:25+00:00,6.4072999954224,4,versionC_stim.csv,READVersionD.csv,"Read Version D","Dissertation, read only version D",JURY,TRIAL,Study1,S,50,60,Test,User,-,,Recall,Recall2,5777,Judge,0,4374,4990,0,0,,1
w10054787_jpc,jrrdtzio1d,Nick_Dissertation_EX1_EP,1,286,2021-11-06T22:54:31+00:00,5.2974510192871,4,versionC_stim.csv,READVersionD.csv,"Read Version D","Dissertation, read only version D",STING,HORNET,Study1,B,11,11,Test,User,-,,Recall,Recall2,4866,Bee,22.222222222222,2010,2260,0,0,,1
w10054787_jpc,jrrdtzio1d,Nick_Dissertation_EX1_EP,1,287,2021-11-06T22:54:34+00:00,3.7059309482574,4,versionC_stim.csv,READVersionD.csv,"Read Version D","Dissertation, read only version D",AMOUNT,NUMBER,Study1,S,47,23,Test,User,-,,Recall,Recall2,3240,Money,36.363636363636,1734,2269,0,0,,1
w10054787_jpc,jrrdtzio1d,Nick_Dissertation_EX1_EP,1,288,2021-11-06T22:54:40+00:00,5.9498510360718,4,versionC_stim.csv,READVersionD.csv,"Read Version D","Dissertation, read only version D",CAR,HAPPY,Study1,U,77,33,Test,User,-,,Recall,Recall2,5461,Wheels,18.181818181818,4083,4717,0,0,,1
w10054787_jpc,jrrdtzio1d,Nick_Dissertation_EX1_EP,1,289,2021-11-06T22:54:46+00:00,5.7497038841248,4,versionC_stim.csv,READVersionD.csv,"Read Version D","Dissertation, read only version D",DEFINITION,MEANING,Study1,S,62,29,Test,User,-,,Recall,Recall2,5322,English,42.857142857143,3834,4617,0,0,,1
w10054787_jpc,jrrdtzio1d,Nick_Dissertation_EX1_EP,1,290,2021-11-06T22:54:51+00:00,5.2032630443573,4,versionC_stim.csv,READVersionD.csv,"Read Version D","Dissertation, read only version D",SODA,POP,Study1,S,56,18,Test,User,-,,Recall,Recall2,4759,Drink,0,2988,3705,0,0,,1
w10054787_jpc,jrrdtzio1d,Nick_Dissertation_EX1_EP,1,291,2021-11-06T22:54:56+00:00,4.8734230995178,4,versionC_stim.csv,READVersionD.csv,"Read Version D","Dissertation, read only version D",HUNGRY,PARK,Study1,U,68,69,Test,User,-,,Recall,Recall2,4442,Eat,28.571428571429,3353,3738,0,0,,1
w10054787_jpc,jrrdtzio1d,Nick_Dissertation_EX1_EP,1,292,2021-11-06T22:54:59+00:00,3.0951898097992,4,versionC_stim.csv,READVersionD.csv,"Read Version D","Dissertation, read only version D",CLUTTER,PUSHER,Study1,U,66,9,Test,User,-,,Recall,Recall2,2666,Mess,20,1596,1963,0,0,,1
w10054787_jpc,jrrdtzio1d,Nick_Dissertation_EX1_EP,1,293,2021-11-06T22:55:13+00:00,14.150969982147,4,versionC_stim.csv,READVersionD.csv,"Read Version D","Dissertation, read only version D",BAR,GRILL,Study1,S,52,76,Test,User,-,,Recall,Recall2,13718,"Alcohol ",33.333333333333,2374,3007,0,0,,1
w10054787_jpc,jrrdtzio1d,Nick_Dissertation_EX1_EP,1,294,2021-11-06T22:55:24+00:00,11.158459186554,4,versionC_stim.csv,READVersionD.csv,"Read Version D","Dissertation, read only version D",ACCIDENT,STRONG,Study1,U,80,10,Test,User,-,,Recall,Recall2,10571,Wreck,18.181818181818,9198,9882,0,0,,1
w10054787_jpc,jrrdtzio1d,Nick_Dissertation_EX1_EP,1,295,2021-11-06T22:55:30+00:00,5.5034799575806,4,versionC_stim.csv,READVersionD.csv,"Read Version D","Dissertation, read only version D",FAMINE,HUNGER,Study1,F,40,74,Test,User,-,,Recall,Recall2,5055,"Fetish ",16.666666666667,2435,4335,0,0,,1
w10054787_jpc,jrrdtzio1d,Nick_Dissertation_EX1_EP,1,296,2021-11-06T22:55:37+00:00,6.9615459442139,4,versionC_stim.csv,READVersionD.csv,"Read Version D","Dissertation, read only version D",FLOWER,ORCHID,Study1,B,24,81,Test,User,-,,Recall,Recall2,6480,Vase,0,1829,5789,0,0,,1
w10054787_jpc,jrrdtzio1d,Nick_Dissertation_EX1_EP,1,297,2021-11-06T22:55:54+00:00,16.821286916733,4,versionC_stim.csv,READVersionD.csv,"Read Version D","Dissertation, read only version D",BIRD,SWAN,Study1,B,14,12,Test,User,-,,Recall,Recall2,16374,"Fly ",0,2012,5862,0,0,,1
w10054787_jpc,jrrdtzio1d,Nick_Dissertation_EX1_EP,1,298,2021-11-06T22:55:59+00:00,4.9632501602173,4,versionC_stim.csv,READVersionD.csv,"Read Version D","Dissertation, read only version D",FOOT,SHOE,Study1,S,60,17,Test,User,-,,Recall,Recall2,4507,Leg,28.571428571429,3497,3782,0,0,,1
w10054787_jpc,jrrdtzio1d,Nick_Dissertation_EX1_EP,1,299,2021-11-06T22:56:14+00:00,15.411979913712,4,versionC_stim.csv,READVersionD.csv,"Read Version D","Dissertation, read only version D",POSITION,MACHINE,Study1,U,76,48,Test,User,-,,Recall,Recall2,14966,Game,36.363636363636,10275,12077,0,0,,1
w10054787_jpc,jrrdtzio1d,Nick_Dissertation_EX1_EP,1,300,2021-11-06T22:56:18+00:00,4.029895067215,4,versionC_stim.csv,READVersionD.csv,"Read Version D","Dissertation, read only version D",LIVER,KIDNEY,Study1,S,53,55,Test,User,-,,Recall,Recall2,3585,Kidney,100,1896,2797,1,1,,1
w10054787_jpc,jrrdtzio1d,Nick_Dissertation_EX1_EP,1,301,2021-11-06T22:56:22+00:00,4.3570070266724,4,versionC_stim.csv,READVersionD.csv,"Read Version D","Dissertation, read only version D",RACKET,BALL,Study1,F,38,70,Test,User,-,,Recall,Recall2,3950,Tennis,0,1930,2714,0,0,,1
w10054787_jpc,jrrdtzio1d,Nick_Dissertation_EX1_EP,1,302,2021-11-06T22:56:26+00:00,3.518397808075,4,versionC_stim.csv,READVersionD.csv,"Read Version D","Dissertation, read only version D",STENCH,SMELL,Study1,F,42,37,Test,User,-,,Recall,Recall2,3024,Smell,100,1851,2317,1,1,,1
w10054787_jpc,jrrdtzio1d,Nick_Dissertation_EX1_EP,1,303,2021-11-06T22:56:35+00:00,9.2556331157684,4,versionC_stim.csv,READVersionD.csv,"Read Version D","Dissertation, read only version D",SEIZE,TAKE,Study1,F,29,64,Test,User,-,,Recall,Recall2,8636,Take,100,3651,6584,1,1,,1
w10054787_jpc,jrrdtzio1d,Nick_Dissertation_EX1_EP,1,304,2021-11-06T22:56:39+00:00,3.2760291099548,4,versionC_stim.csv,READVersionD.csv,"Read Version D","Dissertation, read only version D",WOMAN,LIFT,Study1,U,69,44,Test,User,-,,Recall,Recall2,2818,Lady,25,1692,2143,0,0,,1
w10054787_jpc,jrrdtzio1d,Nick_Dissertation_EX1_EP,1,305,2021-11-06T22:56:43+00:00,4.8356599807739,4,versionC_stim.csv,READVersionD.csv,"Read Version D","Dissertation, read only version D",DESIGN,ARCHITECTURE,Study1,S,51,79,Test,User,-,,Recall,Recall2,4382,Create,33.333333333333,1892,2624,0,0,,1
w10054787_jpc,jrrdtzio1d,Nick_Dissertation_EX1_EP,1,306,2021-11-06T22:56:47+00:00,3.5128488540649,4,versionC_stim.csv,READVersionD.csv,"Read Version D","Dissertation, read only version D",HAND,FIX,Study1,U,75,31,Test,User,-,,Recall,Recall2,3109,Arm,0,2055,2355,0,0,,1
w10054787_jpc,jrrdtzio1d,Nick_Dissertation_EX1_EP,1,307,2021-11-06T22:56:50+00:00,3.2803561687469,4,versionC_stim.csv,READVersionD.csv,"Read Version D","Dissertation, read only version D",SIGHT,DEBATE,Study1,U,73,19,Test,User,-,,Recall,Recall2,2883,Eyes,40,1763,2096,0,0,,1
w10054787_jpc,jrrdtzio1d,Nick_Dissertation_EX1_EP,1,308,2021-11-06T22:56:59+00:00,9.1372439861298,4,versionC_stim.csv,READVersionD.csv,"Read Version D","Dissertation, read only version D",GROWTH,HEIGHT,Study1,F,30,38,Test,User,-,,Recall,Recall2,8678,Development,23.529411764706,5056,7889,0,0,,1
w10054787_jpc,jrrdtzio1d,Nick_Dissertation_EX1_EP,1,309,2021-11-06T22:57:07+00:00,7.9530808925629,4,versionC_stim.csv,READVersionD.csv,"Read Version D","Dissertation, read only version D",WASTE,DUMP,Study1,S,49,28,Test,User,-,,Recall,Recall2,7237,"Trash ",0,3006,3588,0,0,,1
w10054787_jpc,jrrdtzio1d,Nick_Dissertation_EX1_EP,1,310,2021-11-06T22:57:11+00:00,4.1984589099884,4,versionC_stim.csv,READVersionD.csv,"Read Version D","Dissertation, read only version D",SICK,HIDE,Study1,U,84,47,Test,User,-,,Recall,Recall2,3785,"Doctor ",20,2383,3150,0,0,,1
w10054787_jpc,jrrdtzio1d,Nick_Dissertation_EX1_EP,1,311,2021-11-06T22:57:19+00:00,7.2574779987335,4,versionC_stim.csv,READVersionD.csv,"Read Version D","Dissertation, read only version D",SALAD,LETTUCE,Study1,S,59,57,Test,User,-,,Recall,Recall2,6665,Lettuce,100,4659,5658,1,1,,1
w10054787_jpc,jrrdtzio1d,Nick_Dissertation_EX1_EP,1,312,2021-11-06T22:57:28+00:00,9.474249124527,4,versionC_stim.csv,READVersionD.csv,"Read Version D","Dissertation, read only version D",FISH,TUNA,Study1,B,25,51,Test,User,-,,Recall,Recall2,8814,Tuna,100,4792,8007,1,1,,1
w10054787_jpc,jrrdtzio1d,Nick_Dissertation_EX1_EP,1,313,2021-11-06T22:57:32+00:00,4.0323898792267,4,versionC_stim.csv,READVersionD.csv,"Read Version D","Dissertation, read only version D",ROUND,CIRCLE,Study1,S,65,27,Test,User,-,,Recall,Recall2,3585,Circle,100,2248,2831,1,1,,1
w10054787_jpc,jrrdtzio1d,Nick_Dissertation_EX1_EP,1,314,2021-11-06T22:57:38+00:00,6.1704270839691,4,versionC_stim.csv,READVersionD.csv,"Read Version D","Dissertation, read only version D",WAR,REVOLUTION,Study1,B,20,73,Test,User,-,,Recall,Recall2,5579,Fight,13.333333333333,4225,4826,0,0,,1
w10054787_jpc,jrrdtzio1d,Nick_Dissertation_EX1_EP,1,315,2021-11-06T22:57:47+00:00,8.7731239795685,4,versionC_stim.csv,READVersionD.csv,"Read Version D","Dissertation, read only version D",ASSIGNMENT,DUE,Study1,S,46,8,Test,User,-,,Recall,Recall2,8180,School,0,5142,7475,0,0,,1
w10054787_jpc,jrrdtzio1d,Nick_Dissertation_EX1_EP,1,316,2021-11-06T22:57:59+00:00,11.854372024536,4,versionC_stim.csv,READVersionD.csv,"Read Version D","Dissertation, read only version D",TOILET,BATHROOM,Study1,S,58,25,Test,User,-,,Recall,Recall2,11229,Seat,33.333333333333,8972,10372,0,0,,1
w10054787_jpc,jrrdtzio1d,Nick_Dissertation_EX1_EP,1,317,2021-11-06T22:58:06+00:00,7.3426880836487,4,versionC_stim.csv,READVersionD.csv,"Read Version D","Dissertation, read only version D",CAVE,DARK,Study1,F,28,80,Test,User,-,,Recall,Recall2,6724,Bear,50,2337,5866,0,0,,1
w10054787_jpc,jrrdtzio1d,Nick_Dissertation_EX1_EP,1,318,2021-11-06T22:58:16+00:00,9.7092950344086,4,versionC_stim.csv,READVersionD.csv,"Read Version D","Dissertation, read only version D",FLOOR,DISCOVER,Study1,U,71,40,Test,User,-,,Recall,Recall2,9192,Ground,14.285714285714,7773,8452,0,0,,1
w10054787_jpc,jrrdtzio1d,Nick_Dissertation_EX1_EP,1,319,2021-11-06T22:58:29+00:00,13.32902097702,4,versionC_stim.csv,READVersionD.csv,"Read Version D","Dissertation, read only version D",CHORE,WORK,Study1,F,39,56,Test,User,-,,Recall,Recall2,12698,WORK,100,8662,11926,1,1,,1
w10054787_jpc,jrrdtzio1d,Nick_Dissertation_EX1_EP,1,320,2021-11-06T22:58:34+00:00,4.3541369438171,4,versionC_stim.csv,READVersionD.csv,"Read Version D","Dissertation, read only version D",ADD,VALLEY,Study1,U,82,85,Test,User,-,,Recall,Recall2,3890,"Subtract ",14.285714285714,1817,3201,0,0,,1
w10054787_jpc,jrrdtzio1d,Nick_Dissertation_EX1_EP,1,321,2021-11-06T22:58:43+00:00,9.4243650436401,4,versionC_stim.csv,READVersionD.csv,"Read Version D","Dissertation, read only version D",BEE,HONEY,Study1,S,63,24,Test,User,-,,Recall,Recall2,8844,Honey,100,4240,4791,1,1,,1
w10054787_jpc,jrrdtzio1d,Nick_Dissertation_EX1_EP,1,322,2021-11-06T22:58:47+00:00,3.488095998764,4,versionC_stim.csv,READVersionD.csv,"Read Version D","Dissertation, read only version D",CHILI,HOT,Study1,F,37,41,Test,User,-,,Recall,Recall2,2975,Hot,100,1873,2189,1,1,,1
w10054787_jpc,jrrdtzio1d,Nick_Dissertation_EX1_EP,1,323,2021-11-06T22:58:53+00:00,6.6379568576813,4,versionC_stim.csv,READVersionD.csv,"Read Version D","Dissertation, read only version D",WOULD,CASH,Study1,U,83,30,Test,User,-,,Recall,Recall2,6206,Could,22.222222222222,3431,3974,0,0,,1
w10054787_jpc,jrrdtzio1d,Nick_Dissertation_EX1_EP,1,324,2021-11-06T22:59:08+00:00,15.066095113754,4,versionC_stim.csv,READVersionD.csv,"Read Version D","Dissertation, read only version D",BRONZE,ARTERY,Study1,U,74,42,Test,User,-,,Recall,Recall2,14624,"Gold ",0,4508,5038,0,0,,1
w10054787_jpc,jrrdtzio1d,Nick_Dissertation_EX1_EP,1,325,2021-11-06T22:59:12+00:00,4.0214669704437,4,versionC_stim.csv,READVersionD.csv,"Read Version D","Dissertation, read only version D",DOG,PAW,Study1,B,15,58,Test,User,-,,Recall,Recall2,3515,Cat,33.333333333333,2233,2644,0,0,,1
w10054787_jpc,jrrdtzio1d,Nick_Dissertation_EX1_EP,1,326,2021-11-06T22:59:22+00:00,9.7107040882111,4,versionC_stim.csv,READVersionD.csv,"Read Version D","Dissertation, read only version D",ENOUGH,FULL,Study1,F,26,71,Test,User,-,,Recall,Recall2,9101,Alot,25,6724,7106,0,0,,1
w10054787_jpc,jrrdtzio1d,Nick_Dissertation_EX1_EP,1,327,2021-11-06T22:59:26+00:00,4.3811388015747,4,versionC_stim.csv,READVersionD.csv,"Read Version D","Dissertation, read only version D",ATTIRE,CLOTHES,Study1,F,43,63,Test,User,-,,Recall,Recall2,3778,Clothes,100,2255,3004,1,1,,1
w10054787_jpc,jrrdtzio1d,Nick_Dissertation_EX1_EP,1,328,2021-11-06T22:59:36+00:00,9.789046049118,4,versionC_stim.csv,READVersionD.csv,"Read Version D","Dissertation, read only version D",BUSINESS,DEATH,Study1,U,72,49,Test,User,-,,Recall,Recall2,9194,Cardd,20,7772,8442,0,0,,1
w10054787_jpc,jrrdtzio1d,Nick_Dissertation_EX1_EP,1,329,2021-11-06T22:59:41+00:00,4.5692400932312,4,versionC_stim.csv,READVersionD.csv,"Read Version D","Dissertation, read only version D",WIND,BLOW,Study1,S,55,16,Test,User,-,,Recall,Recall2,3991,Air,0,2869,3150,0,0,,1
w10054787_jpc,jrrdtzio1d,Nick_Dissertation_EX1_EP,1,330,2021-11-06T22:59:45+00:00,4.4469170570374,4,versionC_stim.csv,READVersionD.csv,"Read Version D","Dissertation, read only version D",RIDDLE,SUGAR,Study1,U,81,50,Test,User,-,,Recall,Recall2,3876,Poem,0,2655,3089,0,0,,1
w10054787_jpc,jrrdtzio1d,Nick_Dissertation_EX1_EP,1,331,2021-11-06T22:59:49+00:00,4.1678318977356,4,versionC_stim.csv,READVersionD.csv,"Read Version D","Dissertation, read only version D",BLAZE,FIRE,Study1,F,45,39,Test,User,-,,Recall,Recall2,3724,Fire,100,2487,2987,1,1,,1
w10054787_jpc,jrrdtzio1d,Nick_Dissertation_EX1_EP,1,332,2021-11-06T22:59:54+00:00,4.3459639549255,4,versionC_stim.csv,READVersionD.csv,"Read Version D","Dissertation, read only version D",COW,HERD,Study1,B,22,34,Test,User,-,,Recall,Recall2,3912,Milk,0,2705,3204,0,0,,1
w10054787_jpc,jrrdtzio1d,Nick_Dissertation_EX1_EP,1,333,2021-11-06T22:59:59+00:00,5.6196949481964,4,versionC_stim.csv,READVersionD.csv,"Read Version D","Dissertation, read only version D",LION,ART,Study1,U,79,82,Test,User,-,,Recall,Recall2,5150,Cat,66.666666666667,2106,2357,0,0,,1
w10054787_jpc,jrrdtzio1d,Nick_Dissertation_EX1_EP,1,334,2021-11-06T23:00:05+00:00,5.8941411972046,4,versionC_stim.csv,READVersionD.csv,"Read Version D","Dissertation, read only version D",CHILD,BABY,Study1,S,64,14,Test,User,-,,Recall,Recall2,5452,Kids,0,3965,4514,0,0,,1
w10054787_jpc,jrrdtzio1d,Nick_Dissertation_EX1_EP,1,335,2021-11-06T23:00:12+00:00,6.6022789478302,4,versionC_stim.csv,READVersionD.csv,"Read Version D","Dissertation, read only version D",SIP,DRINK,Study1,F,27,61,Test,User,-,,Recall,Recall2,6154,Drink,100,4871,5432,1,1,,1
w10054787_jpc,jrrdtzio1d,Nick_Dissertation_EX1_EP,1,336,2021-11-06T23:00:23+00:00,11.60578584671,4,versionC_stim.csv,READVersionD.csv,"Read Version D","Dissertation, read only version D",PILOT,PLANE,Study1,F,44,7,Test,User,-,,Recall,Recall2,10976,Plane,100,8430,8862,1,1,,1
w10054787_jpc,jrrdtzio1d,Nick_Dissertation_EX1_EP,1,337,2021-11-06T23:00:30+00:00,6.9302132129669,4,versionC_stim.csv,READVersionD.csv,"Read Version D","Dissertation, read only version D",CARD,CREDIT,Study1,B,23,59,Test,User,-,,Recall,Recall2,6476,"Business ",14.285714285714,2860,5804,0,0,,1
w10054787_jpc,jrrdtzio1d,Nick_Dissertation_EX1_EP,1,338,2021-11-06T23:00:35+00:00,4.933956861496,4,versionC_stim.csv,READVersionD.csv,"Read Version D","Dissertation, read only version D",COLD,BITTER,Study1,B,12,84,Test,User,-,,Recall,Recall2,4514,Ice,44.444444444444,3293,3730,0,0,,1
w10054787_jpc,jrrdtzio1d,Nick_Dissertation_EX1_EP,1,339,2021-11-06T23:00:42+00:00,6.8959760665894,4,versionC_stim.csv,READVersionD.csv,"Read Version D","Dissertation, read only version D",CLEAN,HYGIENE,Study1,B,17,43,Test,User,-,,Recall,Recall2,6314,Chores,30.769230769231,4527,5444,0,0,,1
w10054787_jpc,jrrdtzio1d,Nick_Dissertation_EX1_EP,1,340,2021-11-06T23:00:50+00:00,7.4790859222412,4,versionC_stim.csv,READVersionD.csv,"Read Version D","Dissertation, read only version D",NEWS,EDITOR,Study1,B,10,36,Test,User,-,,Recall,Recall2,6972,Accident,28.571428571429,5185,6167,0,0,,1
w10054787_jpc,jrrdtzio1d,Nick_Dissertation_EX1_EP,1,341,2021-11-06T23:00:56+00:00,6.5175230503082,4,versionC_stim.csv,READVersionD.csv,"Read Version D","Dissertation, read only version D",MONEY,WAGE,Study1,B,8,20,Test,User,-,,Recall,Recall2,5870,Banker,40,4433,5051,0,0,,1
w10054787_jpc,jrrdtzio1d,Nick_Dissertation_EX1_EP,1,342,2021-11-06T23:01:07+00:00,10.829751968384,4,versionC_stim.csv,READVersionD.csv,"Read Version D","Dissertation, read only version D",LATCH,KEY,Study1,F,36,65,Test,User,-,,Recall,Recall2,10191,Lock,28.571428571429,9051,9435,0,0,,1
w10054787_jpc,jrrdtzio1d,Nick_Dissertation_EX1_EP,1,343,2021-11-06T23:01:13+00:00,5.4475009441376,4,versionC_stim.csv,READVersionD.csv,"Read Version D","Dissertation, read only version D",TALK,DISCUSSION,Study1,B,21,67,Test,User,-,,Recall,Recall2,5003,"Conversation ",45.454545454545,2500,3341,0,0,,1
w10054787_jpc,jrrdtzio1d,Nick_Dissertation_EX1_EP,1,344,2021-11-06T23:01:21+00:00,8.4244780540466,4,versionC_stim.csv,READVersionD.csv,"Read Version D","Dissertation, read only version D",TUCK,ALLOW,Study1,U,78,86,Test,User,-,,Recall,Recall2,7793,Roll,44.444444444444,6510,7002,0,0,,1
w10054787_jpc,jrrdtzio1d,Nick_Dissertation_EX1_EP,1,345,2021-11-06T23:01:29+00:00,7.9263999462128,4,versionC_stim.csv,READVersionD.csv,"Read Version D","Dissertation, read only version D",WORD,SENTENCE,Study1,F,31,78,Test,User,-,,Recall,Recall2,7309,"Definition ",44.444444444444,4977,5789,0,0,,1
w10054787_jpc,jrrdtzio1d,Nick_Dissertation_EX1_EP,1,346,2021-11-06T23:01:37+00:00,7.6773381233215,4,versionC_stim.csv,READVersionD.csv,"Read Version D","Dissertation, read only version D",STOMACH,DIGESTION,Study1,B,7,35,Test,User,-,,Recall,Recall2,7092,"digestion ",100,1692,3290,1,1,,1
w10054787_jpc,jrrdtzio1d,Nick_Dissertation_EX1_EP,1,347,2021-11-06T23:01:41+00:00,4.4449260234833,4,versionC_stim.csv,READVersionD.csv,"Read Version D","Dissertation, read only version D",ATTORNEY,LAW,Study1,F,34,22,Test,User,-,,Recall,Recall2,4011,Lawyer,66.666666666667,2189,3252,0,0,,1
w10054787_jpc,jrrdtzio1d,Nick_Dissertation_EX1_EP,1,348,2021-11-06T23:01:45+00:00,4.1170928478241,4,versionC_stim.csv,READVersionD.csv,"Read Version D","Dissertation, read only version D",WASP,BUG,Study1,F,32,46,Test,User,-,,Recall,Recall2,3694,Sting,25,2220,2837,0,0,,1
w10054787_jpc,jrrdtzio1d,Nick_Dissertation_EX1_EP,1,349,2021-11-06T23:01:48+00:00,3.2292590141296,4,versionC_stim.csv,READVersionD.csv,"Read Version D","Dissertation, read only version D",HAMMER,CHISEL,Study1,B,9,77,Test,User,-,,Recall,Recall2,2783,Nail,40,1593,2079,0,0,,1
w10054787_jpc,jrrdtzio1d,Nick_Dissertation_EX1_EP,1,350,2021-11-06T23:01:53+00:00,4.6474640369415,4,versionC_stim.csv,READVersionD.csv,"Read Version D","Dissertation, read only version D",SITE,LOCATION,Study1,S,48,72,Test,User,-,,Recall,Recall2,4213,Web,0,2622,3123,0,0,,1
w10054787_jpc,jrrdtzio1d,Nick_Dissertation_EX1_EP,1,351,2021-11-06T23:02:04+00:00,10.942412137985,4,versionC_stim.csv,READVersionD.csv,"Read Version D","Dissertation, read only version D",DROWSY,SLEEP,Study1,F,41,32,Test,User,-,,Recall,Recall2,10333,Sleepy,90.909090909091,4796,5361,0,1,,1
w10054787_jpc,jrrdtzio1d,Nick_Dissertation_EX1_EP,1,352,2021-11-06T23:02:07+00:00,2.6599948406219,4,versionC_stim.csv,READVersionD.csv,"Read Version D","Dissertation, read only version D",,,,,,0,Instruct,User,-,"You have completed this section. Please press Enter.",,Instruct7,2228,,,-1,-1,,,,1
w10054787_jpc,jrrdtzio1d,Nick_Dissertation_EX1_EP,1,353,2021-11-06T23:02:17+00:00,10.548239946365,4,versionC_stim.csv,READVersionD.csv,"Read Version D","Dissertation, read only version D",,,,,,0,Instruct,User,-,"The following screen will ask you a few questions abour your experience today. You must complete these questions to receive credit.",,Instruct8,9945,,,-1,-1,,,,1
