Username,ID,ExperimentName,Session,Trial,Date,TimeDif,"Condition Number","Stimuli File","Order File","Condition Description","Condition Notes",Stimuli*Cue,Stimuli*Answer,Stimuli*Shuffle,"Stimuli*Stimuli Notes",Stimuli*Value,Procedure*Item,"Procedure*Trial Type","Procedure*Max Time","Procedure*Min Time",Procedure*Text,"Procedure*Procedure Notes",Procedure*Shuffle,Response*RT,Response*Response,Response*Accuracy,Response*RTfirst,Response*RTlast,Response*strictAcc,Response*lenientAcc,Response*focus,Response*Focus
w10110946_nzw,0ze7u8o2ok,Nick_Dissertation_EX1_EP,1,1,2021-12-01T21:25:16+00:00,6.3663511276245,3,versionC_stim.csv,READVersionC.csv,"Read Version C","Dissertation, read only version C",,,,,,0,Instruct,-,5,"In this section, you will be presented with a series of word pairs.",Initial_Instruct,Instruct1,6246,,,-1,-1,,,,1
w10110946_nzw,0ze7u8o2ok,Nick_Dissertation_EX1_EP,1,2,2021-12-01T21:25:28+00:00,11.957784891129,3,versionC_stim.csv,READVersionC.csv,"Read Version C","Dissertation, read only version C",,,,,,0,Instruct,-,10,"Each word will be displayed on the computer screen for 8 seconds. The screen will automatically move to the next pair when time is up. Please study each pair. Your memory will be tested!",,Instruct15,11781,,,-1,-1,,,,1
w10110946_nzw,0ze7u8o2ok,Nick_Dissertation_EX1_EP,1,3,2021-12-01T21:25:32+00:00,3.5467629432678,3,versionC_stim.csv,READVersionC.csv,"Read Version C","Dissertation, read only version C",,,,,,0,Instruct,User,-,"You will now begin the study. Press Enter when you are ready to begin.",,Instruct16,3372,,,-1,-1,,,,1
w10110946_nzw,0ze7u8o2ok,Nick_Dissertation_EX1_EP,1,4,2021-12-01T21:25:40+00:00,8.1776211261749,3,versionC_stim.csv,READVersionC.csv,"Read Version C","Dissertation, read only version C",GREEN,TREES,BUFFER1,Buffer,1,4,Study,8,8,,Study/JOL,BUFFER,8002,,,-1,-1,,,,1
w10110946_nzw,0ze7u8o2ok,Nick_Dissertation_EX1_EP,1,5,2021-12-01T21:25:48+00:00,8.1828730106354,3,versionC_stim.csv,READVersionC.csv,"Read Version C","Dissertation, read only version C",HIDE,SCARE,BUFFER1,Buffer,4,3,Study,8,8,,Study/JOL,BUFFER,8002,,,-1,-1,,,,1
w10110946_nzw,0ze7u8o2ok,Nick_Dissertation_EX1_EP,1,6,2021-12-01T21:25:57+00:00,8.2060258388519,3,versionC_stim.csv,READVersionC.csv,"Read Version C","Dissertation, read only version C",JAM,SPACE,BUFFER1,Buffer,5,6,Study,8,8,,Study/JOL,BUFFER,8002,,,-1,-1,,,,1
w10110946_nzw,0ze7u8o2ok,Nick_Dissertation_EX1_EP,1,7,2021-12-01T21:26:05+00:00,8.1833460330963,3,versionC_stim.csv,READVersionC.csv,"Read Version C","Dissertation, read only version C",CATCHER,BASEBALL,BUFFER1,Buffer,2,2,Study,8,8,,Study/JOL,BUFFER,8001,,,-1,-1,,,,1
w10110946_nzw,0ze7u8o2ok,Nick_Dissertation_EX1_EP,1,8,2021-12-01T21:26:13+00:00,8.2325150966644,3,versionC_stim.csv,READVersionC.csv,"Read Version C","Dissertation, read only version C",BUTTER,PEANUT,BUFFER1,Buffer,3,5,Study,8,8,,Study/JOL,BUFFER,8002,,,-1,-1,,,,1
w10110946_nzw,0ze7u8o2ok,Nick_Dissertation_EX1_EP,1,9,2021-12-01T21:26:21+00:00,8.183779001236,3,versionC_stim.csv,READVersionC.csv,"Read Version C","Dissertation, read only version C",END,BEGIN,Study1,S,54,36,Study,8,8,,Study/JOL,"Study Phase",8001,,,-1,-1,,,,1
w10110946_nzw,0ze7u8o2ok,Nick_Dissertation_EX1_EP,1,10,2021-12-01T21:26:29+00:00,8.2447519302368,3,versionC_stim.csv,READVersionC.csv,"Read Version C","Dissertation, read only version C",BAR,GRILL,Study1,S,52,30,Study,8,8,,Study/JOL,"Study Phase",8002,,,-1,-1,,,,1
w10110946_nzw,0ze7u8o2ok,Nick_Dissertation_EX1_EP,1,11,2021-12-01T21:26:38+00:00,8.2006530761719,3,versionC_stim.csv,READVersionC.csv,"Read Version C","Dissertation, read only version C",FLOOR,DISCOVER,Study1,U,71,63,Study,8,8,,Study/JOL,"Study Phase",8002,,,-1,-1,,,,1
w10110946_nzw,0ze7u8o2ok,Nick_Dissertation_EX1_EP,1,12,2021-12-01T21:26:46+00:00,8.2248568534851,3,versionC_stim.csv,READVersionC.csv,"Read Version C","Dissertation, read only version C",WORD,SENTENCE,Study1,F,31,85,Study,8,8,,Study/JOL,"Study Phase",8001,,,-1,-1,,,,0.938
w10110946_nzw,0ze7u8o2ok,Nick_Dissertation_EX1_EP,1,13,2021-12-01T21:26:54+00:00,8.2109689712524,3,versionC_stim.csv,READVersionC.csv,"Read Version C","Dissertation, read only version C",ATTORNEY,LAW,Study1,F,34,61,Study,8,8,,Study/JOL,"Study Phase",8002,,,-1,-1,,,,1
w10110946_nzw,0ze7u8o2ok,Nick_Dissertation_EX1_EP,1,14,2021-12-01T21:27:04+00:00,9.4645731449127,3,versionC_stim.csv,READVersionC.csv,"Read Version C","Dissertation, read only version C",DESIGN,ARCHITECTURE,Study1,S,51,21,Study,8,8,,Study/JOL,"Study Phase",8001,,,-1,-1,,,,1
w10110946_nzw,0ze7u8o2ok,Nick_Dissertation_EX1_EP,1,15,2021-12-01T21:27:12+00:00,8.1872580051422,3,versionC_stim.csv,READVersionC.csv,"Read Version C","Dissertation, read only version C",JURY,TRIAL,Study1,S,50,62,Study,8,8,,Study/JOL,"Study Phase",8001,,,-1,-1,,,,1
w10110946_nzw,0ze7u8o2ok,Nick_Dissertation_EX1_EP,1,16,2021-12-01T21:27:20+00:00,8.1950590610504,3,versionC_stim.csv,READVersionC.csv,"Read Version C","Dissertation, read only version C",LATCH,KEY,Study1,F,36,58,Study,8,8,,Study/JOL,"Study Phase",8001,,,-1,-1,,,,1
w10110946_nzw,0ze7u8o2ok,Nick_Dissertation_EX1_EP,1,17,2021-12-01T21:27:28+00:00,8.1966049671173,3,versionC_stim.csv,READVersionC.csv,"Read Version C","Dissertation, read only version C",RIDDLE,SUGAR,Study1,U,81,10,Study,8,8,,Study/JOL,"Study Phase",8001,,,-1,-1,,,,1
w10110946_nzw,0ze7u8o2ok,Nick_Dissertation_EX1_EP,1,18,2021-12-01T21:27:36+00:00,8.2254948616028,3,versionC_stim.csv,READVersionC.csv,"Read Version C","Dissertation, read only version C",SITE,LOCATION,Study1,S,48,66,Study,8,8,,Study/JOL,"Study Phase",8002,,,-1,-1,,,,1
w10110946_nzw,0ze7u8o2ok,Nick_Dissertation_EX1_EP,1,19,2021-12-01T21:27:44+00:00,8.1796481609344,3,versionC_stim.csv,READVersionC.csv,"Read Version C","Dissertation, read only version C",BEE,HONEY,Study1,S,63,34,Study,8,8,,Study/JOL,"Study Phase",8002,,,-1,-1,,,,1
w10110946_nzw,0ze7u8o2ok,Nick_Dissertation_EX1_EP,1,20,2021-12-01T21:27:53+00:00,8.1819069385529,3,versionC_stim.csv,READVersionC.csv,"Read Version C","Dissertation, read only version C",CLEAN,HYGIENE,Study1,B,17,73,Study,8,8,,Study/JOL,"Study Phase",8002,,,-1,-1,,,,1
w10110946_nzw,0ze7u8o2ok,Nick_Dissertation_EX1_EP,1,21,2021-12-01T21:28:01+00:00,8.1779849529266,3,versionC_stim.csv,READVersionC.csv,"Read Version C","Dissertation, read only version C",CAVE,DARK,Study1,F,28,42,Study,8,8,,Study/JOL,"Study Phase",8002,,,-1,-1,,,,1
w10110946_nzw,0ze7u8o2ok,Nick_Dissertation_EX1_EP,1,22,2021-12-01T21:28:09+00:00,8.1873819828033,3,versionC_stim.csv,READVersionC.csv,"Read Version C","Dissertation, read only version C",WATER,BRIDGE,Study1,B,18,9,Study,8,8,,Study/JOL,"Study Phase",8003,,,-1,-1,,,,1
w10110946_nzw,0ze7u8o2ok,Nick_Dissertation_EX1_EP,1,23,2021-12-01T21:28:17+00:00,8.1757380962372,3,versionC_stim.csv,READVersionC.csv,"Read Version C","Dissertation, read only version C",BUSINESS,DEATH,Study1,U,72,76,Study,8,8,,Study/JOL,"Study Phase",8001,,,-1,-1,,,,1
w10110946_nzw,0ze7u8o2ok,Nick_Dissertation_EX1_EP,1,24,2021-12-01T21:28:25+00:00,8.1856279373169,3,versionC_stim.csv,READVersionC.csv,"Read Version C","Dissertation, read only version C",SODA,POP,Study1,S,56,24,Study,8,8,,Study/JOL,"Study Phase",8002,,,-1,-1,,,,1
w10110946_nzw,0ze7u8o2ok,Nick_Dissertation_EX1_EP,1,25,2021-12-01T21:28:34+00:00,8.9787149429321,3,versionC_stim.csv,READVersionC.csv,"Read Version C","Dissertation, read only version C",TOILET,BATHROOM,Study1,S,58,39,Study,8,8,,Study/JOL,"Study Phase",8797,,,-1,-1,,,,0.95
w10110946_nzw,0ze7u8o2ok,Nick_Dissertation_EX1_EP,1,26,2021-12-01T21:28:43+00:00,8.1883189678192,3,versionC_stim.csv,READVersionC.csv,"Read Version C","Dissertation, read only version C",FUTURE,PAST,Study1,S,61,23,Study,8,8,,Study/JOL,"Study Phase",8001,,,-1,-1,,,,0.949
w10110946_nzw,0ze7u8o2ok,Nick_Dissertation_EX1_EP,1,27,2021-12-01T21:28:51+00:00,8.1838371753693,3,versionC_stim.csv,READVersionC.csv,"Read Version C","Dissertation, read only version C",CLUTTER,PUSHER,Study1,U,66,74,Study,8,8,,Study/JOL,"Study Phase",8003,,,-1,-1,,,,1
w10110946_nzw,0ze7u8o2ok,Nick_Dissertation_EX1_EP,1,28,2021-12-01T21:28:59+00:00,8.1873338222504,3,versionC_stim.csv,READVersionC.csv,"Read Version C","Dissertation, read only version C",FOOT,SHOE,Study1,S,60,14,Study,8,8,,Study/JOL,"Study Phase",8006,,,-1,-1,,,,1
w10110946_nzw,0ze7u8o2ok,Nick_Dissertation_EX1_EP,1,29,2021-12-01T21:29:07+00:00,8.1749451160431,3,versionC_stim.csv,READVersionC.csv,"Read Version C","Dissertation, read only version C",CAR,HAPPY,Study1,U,77,33,Study,8,8,,Study/JOL,"Study Phase",8001,,,-1,-1,,,,1
w10110946_nzw,0ze7u8o2ok,Nick_Dissertation_EX1_EP,1,30,2021-12-01T21:29:15+00:00,8.1814858913422,3,versionC_stim.csv,READVersionC.csv,"Read Version C","Dissertation, read only version C",GROWTH,HEIGHT,Study1,F,30,46,Study,8,8,,Study/JOL,"Study Phase",8001,,,-1,-1,,,,1
w10110946_nzw,0ze7u8o2ok,Nick_Dissertation_EX1_EP,1,31,2021-12-01T21:29:23+00:00,8.1855871677399,3,versionC_stim.csv,READVersionC.csv,"Read Version C","Dissertation, read only version C",WOULD,CASH,Study1,U,83,31,Study,8,8,,Study/JOL,"Study Phase",8001,,,-1,-1,,,,1
w10110946_nzw,0ze7u8o2ok,Nick_Dissertation_EX1_EP,1,32,2021-12-01T21:29:32+00:00,8.1820468902588,3,versionC_stim.csv,READVersionC.csv,"Read Version C","Dissertation, read only version C",CHILD,BABY,Study1,S,64,56,Study,8,8,,Study/JOL,"Study Phase",8002,,,-1,-1,,,,1
w10110946_nzw,0ze7u8o2ok,Nick_Dissertation_EX1_EP,1,33,2021-12-01T21:29:40+00:00,8.1782040596008,3,versionC_stim.csv,READVersionC.csv,"Read Version C","Dissertation, read only version C",FAMINE,HUNGER,Study1,F,40,72,Study,8,8,,Study/JOL,"Study Phase",8003,,,-1,-1,,,,0.972
w10110946_nzw,0ze7u8o2ok,Nick_Dissertation_EX1_EP,1,34,2021-12-01T21:29:48+00:00,8.1800448894501,3,versionC_stim.csv,READVersionC.csv,"Read Version C","Dissertation, read only version C",SIP,DRINK,Study1,F,27,78,Study,8,8,,Study/JOL,"Study Phase",8001,,,-1,-1,,,,1
w10110946_nzw,0ze7u8o2ok,Nick_Dissertation_EX1_EP,1,35,2021-12-01T21:29:56+00:00,8.1930711269379,3,versionC_stim.csv,READVersionC.csv,"Read Version C","Dissertation, read only version C",CHORE,WORK,Study1,F,39,29,Study,8,8,,Study/JOL,"Study Phase",8002,,,-1,-1,,,,1
w10110946_nzw,0ze7u8o2ok,Nick_Dissertation_EX1_EP,1,36,2021-12-01T21:30:04+00:00,8.1940040588379,3,versionC_stim.csv,READVersionC.csv,"Read Version C","Dissertation, read only version C",HAND,FIX,Study1,U,75,16,Study,8,8,,Study/JOL,"Study Phase",8002,,,-1,-1,,,,1
w10110946_nzw,0ze7u8o2ok,Nick_Dissertation_EX1_EP,1,37,2021-12-01T21:30:13+00:00,8.1804049015045,3,versionC_stim.csv,READVersionC.csv,"Read Version C","Dissertation, read only version C",ATTIRE,CLOTHES,Study1,F,43,84,Study,8,8,,Study/JOL,"Study Phase",8003,,,-1,-1,,,,1
w10110946_nzw,0ze7u8o2ok,Nick_Dissertation_EX1_EP,1,38,2021-12-01T21:30:21+00:00,8.1878960132599,3,versionC_stim.csv,READVersionC.csv,"Read Version C","Dissertation, read only version C",BELT,SOON,Study1,U,70,18,Study,8,8,,Study/JOL,"Study Phase",8002,,,-1,-1,,,,1
w10110946_nzw,0ze7u8o2ok,Nick_Dissertation_EX1_EP,1,39,2021-12-01T21:30:29+00:00,8.1884880065918,3,versionC_stim.csv,READVersionC.csv,"Read Version C","Dissertation, read only version C",WAR,REVOLUTION,Study1,B,20,50,Study,8,8,,Study/JOL,"Study Phase",8002,,,-1,-1,,,,1
w10110946_nzw,0ze7u8o2ok,Nick_Dissertation_EX1_EP,1,40,2021-12-01T21:30:37+00:00,8.1813340187073,3,versionC_stim.csv,READVersionC.csv,"Read Version C","Dissertation, read only version C",SEIZE,TAKE,Study1,F,29,37,Study,8,8,,Study/JOL,"Study Phase",8001,,,-1,-1,,,,1
w10110946_nzw,0ze7u8o2ok,Nick_Dissertation_EX1_EP,1,41,2021-12-01T21:30:45+00:00,8.1841468811035,3,versionC_stim.csv,READVersionC.csv,"Read Version C","Dissertation, read only version C",CARD,CREDIT,Study1,B,23,47,Study,8,8,,Study/JOL,"Study Phase",8002,,,-1,-1,,,,1
w10110946_nzw,0ze7u8o2ok,Nick_Dissertation_EX1_EP,1,42,2021-12-01T21:30:54+00:00,8.1864290237427,3,versionC_stim.csv,READVersionC.csv,"Read Version C","Dissertation, read only version C",HUNGRY,PARK,Study1,U,68,8,Study,8,8,,Study/JOL,"Study Phase",8002,,,-1,-1,,,,1
w10110946_nzw,0ze7u8o2ok,Nick_Dissertation_EX1_EP,1,43,2021-12-01T21:31:02+00:00,8.18235206604,3,versionC_stim.csv,READVersionC.csv,"Read Version C","Dissertation, read only version C",FANTASTIC,GREAT,Study1,F,35,26,Study,8,8,,Study/JOL,"Study Phase",8001,,,-1,-1,,,,1
w10110946_nzw,0ze7u8o2ok,Nick_Dissertation_EX1_EP,1,44,2021-12-01T21:31:10+00:00,8.1803550720215,3,versionC_stim.csv,READVersionC.csv,"Read Version C","Dissertation, read only version C",HAMMER,CHISEL,Study1,B,9,11,Study,8,8,,Study/JOL,"Study Phase",8003,,,-1,-1,,,,1
w10110946_nzw,0ze7u8o2ok,Nick_Dissertation_EX1_EP,1,45,2021-12-01T21:31:18+00:00,8.1807599067688,3,versionC_stim.csv,READVersionC.csv,"Read Version C","Dissertation, read only version C",SACKING,DIETARY,Study1,U,67,43,Study,8,8,,Study/JOL,"Study Phase",8003,,,-1,-1,,,,1
w10110946_nzw,0ze7u8o2ok,Nick_Dissertation_EX1_EP,1,46,2021-12-01T21:31:26+00:00,8.1786139011383,3,versionC_stim.csv,READVersionC.csv,"Read Version C","Dissertation, read only version C",OUT,WAY,Study1,B,16,48,Study,8,8,,Study/JOL,"Study Phase",8002,,,-1,-1,,,,0.974
w10110946_nzw,0ze7u8o2ok,Nick_Dissertation_EX1_EP,1,47,2021-12-01T21:31:34+00:00,8.1896421909332,3,versionC_stim.csv,READVersionC.csv,"Read Version C","Dissertation, read only version C",BRONZE,ARTERY,Study1,U,74,25,Study,8,8,,Study/JOL,"Study Phase",8001,,,-1,-1,,,,1
w10110946_nzw,0ze7u8o2ok,Nick_Dissertation_EX1_EP,1,48,2021-12-01T21:31:43+00:00,8.177925825119,3,versionC_stim.csv,READVersionC.csv,"Read Version C","Dissertation, read only version C",NEWS,EDITOR,Study1,B,10,20,Study,8,8,,Study/JOL,"Study Phase",8001,,,-1,-1,,,,1
w10110946_nzw,0ze7u8o2ok,Nick_Dissertation_EX1_EP,1,49,2021-12-01T21:31:51+00:00,8.1787660121918,3,versionC_stim.csv,READVersionC.csv,"Read Version C","Dissertation, read only version C",FLOWER,ORCHID,Study1,B,24,28,Study,8,8,,Study/JOL,"Study Phase",8002,,,-1,-1,,,,1
w10110946_nzw,0ze7u8o2ok,Nick_Dissertation_EX1_EP,1,50,2021-12-01T21:31:59+00:00,8.1819550991058,3,versionC_stim.csv,READVersionC.csv,"Read Version C","Dissertation, read only version C",PILOT,PLANE,Study1,F,44,55,Study,8,8,,Study/JOL,"Study Phase",8001,,,-1,-1,,,,1
w10110946_nzw,0ze7u8o2ok,Nick_Dissertation_EX1_EP,1,51,2021-12-01T21:32:09+00:00,9.9231400489807,3,versionC_stim.csv,READVersionC.csv,"Read Version C","Dissertation, read only version C",TUCK,ALLOW,Study1,U,78,71,Study,8,8,,Study/JOL,"Study Phase",8003,,,-1,-1,,,,1
w10110946_nzw,0ze7u8o2ok,Nick_Dissertation_EX1_EP,1,52,2021-12-01T21:32:17+00:00,8.1930768489838,3,versionC_stim.csv,READVersionC.csv,"Read Version C","Dissertation, read only version C",CHEESE,WINE,Study1,S,57,49,Study,8,8,,Study/JOL,"Study Phase",8001,,,-1,-1,,,,1
w10110946_nzw,0ze7u8o2ok,Nick_Dissertation_EX1_EP,1,53,2021-12-01T21:32:25+00:00,8.1762731075287,3,versionC_stim.csv,READVersionC.csv,"Read Version C","Dissertation, read only version C",DROWSY,SLEEP,Study1,F,41,17,Study,8,8,,Study/JOL,"Study Phase",8001,,,-1,-1,,,,1
w10110946_nzw,0ze7u8o2ok,Nick_Dissertation_EX1_EP,1,54,2021-12-01T21:32:33+00:00,8.1846890449524,3,versionC_stim.csv,READVersionC.csv,"Read Version C","Dissertation, read only version C",BAD,DELINQUENT,Study1,B,6,79,Study,8,8,,Study/JOL,"Study Phase",8001,,,-1,-1,,,,1
w10110946_nzw,0ze7u8o2ok,Nick_Dissertation_EX1_EP,1,55,2021-12-01T21:32:42+00:00,8.1823868751526,3,versionC_stim.csv,READVersionC.csv,"Read Version C","Dissertation, read only version C",VASE,KING,Study1,U,85,19,Study,8,8,,Study/JOL,"Study Phase",8001,,,-1,-1,,,,1
w10110946_nzw,0ze7u8o2ok,Nick_Dissertation_EX1_EP,1,56,2021-12-01T21:32:50+00:00,8.1880640983582,3,versionC_stim.csv,READVersionC.csv,"Read Version C","Dissertation, read only version C",PLANT,ROOT,Study1,B,13,59,Study,8,8,,Study/JOL,"Study Phase",8002,,,-1,-1,,,,1
w10110946_nzw,0ze7u8o2ok,Nick_Dissertation_EX1_EP,1,57,2021-12-01T21:32:58+00:00,8.1814758777618,3,versionC_stim.csv,READVersionC.csv,"Read Version C","Dissertation, read only version C",WASP,BUG,Study1,F,32,32,Study,8,8,,Study/JOL,"Study Phase",8001,,,-1,-1,,,,1
w10110946_nzw,0ze7u8o2ok,Nick_Dissertation_EX1_EP,1,58,2021-12-01T21:33:06+00:00,8.1830680370331,3,versionC_stim.csv,READVersionC.csv,"Read Version C","Dissertation, read only version C",AMOUNT,NUMBER,Study1,S,47,83,Study,8,8,,Study/JOL,"Study Phase",8001,,,-1,-1,,,,0.946
w10110946_nzw,0ze7u8o2ok,Nick_Dissertation_EX1_EP,1,59,2021-12-01T21:33:14+00:00,8.1846289634705,3,versionC_stim.csv,READVersionC.csv,"Read Version C","Dissertation, read only version C",SICK,HIDE,Study1,U,84,60,Study,8,8,,Study/JOL,"Study Phase",8002,,,-1,-1,,,,1
w10110946_nzw,0ze7u8o2ok,Nick_Dissertation_EX1_EP,1,60,2021-12-01T21:33:23+00:00,8.1877200603485,3,versionC_stim.csv,READVersionC.csv,"Read Version C","Dissertation, read only version C",DIVISION,MATH,Study1,F,33,67,Study,8,8,,Study/JOL,"Study Phase",8002,,,-1,-1,,,,1
w10110946_nzw,0ze7u8o2ok,Nick_Dissertation_EX1_EP,1,61,2021-12-01T21:33:31+00:00,8.1846101284027,3,versionC_stim.csv,READVersionC.csv,"Read Version C","Dissertation, read only version C",ENOUGH,FULL,Study1,F,26,27,Study,8,8,,Study/JOL,"Study Phase",8001,,,-1,-1,,,,1
w10110946_nzw,0ze7u8o2ok,Nick_Dissertation_EX1_EP,1,62,2021-12-01T21:33:39+00:00,8.1814198493958,3,versionC_stim.csv,READVersionC.csv,"Read Version C","Dissertation, read only version C",ASSIGNMENT,DUE,Study1,S,46,41,Study,8,8,,Study/JOL,"Study Phase",8003,,,-1,-1,,,,1
w10110946_nzw,0ze7u8o2ok,Nick_Dissertation_EX1_EP,1,63,2021-12-01T21:33:47+00:00,8.1796040534973,3,versionC_stim.csv,READVersionC.csv,"Read Version C","Dissertation, read only version C",STENCH,SMELL,Study1,F,42,40,Study,8,8,,Study/JOL,"Study Phase",8001,,,-1,-1,,,,1
w10110946_nzw,0ze7u8o2ok,Nick_Dissertation_EX1_EP,1,64,2021-12-01T21:33:55+00:00,8.1869790554047,3,versionC_stim.csv,READVersionC.csv,"Read Version C","Dissertation, read only version C",TALK,DISCUSSION,Study1,B,21,35,Study,8,8,,Study/JOL,"Study Phase",8001,,,-1,-1,,,,1
w10110946_nzw,0ze7u8o2ok,Nick_Dissertation_EX1_EP,1,65,2021-12-01T21:34:03+00:00,8.1817538738251,3,versionC_stim.csv,READVersionC.csv,"Read Version C","Dissertation, read only version C",RACKET,BALL,Study1,F,38,82,Study,8,8,,Study/JOL,"Study Phase",8002,,,-1,-1,,,,1
w10110946_nzw,0ze7u8o2ok,Nick_Dissertation_EX1_EP,1,66,2021-12-01T21:34:12+00:00,8.1868090629578,3,versionC_stim.csv,READVersionC.csv,"Read Version C","Dissertation, read only version C",ROCK,GEOLOGY,Study1,B,19,86,Study,8,8,,Study/JOL,"Study Phase",8002,,,-1,-1,,,,0.944
w10110946_nzw,0ze7u8o2ok,Nick_Dissertation_EX1_EP,1,67,2021-12-01T21:34:20+00:00,8.1848409175873,3,versionC_stim.csv,READVersionC.csv,"Read Version C","Dissertation, read only version C",ACCIDENT,STRONG,Study1,U,80,15,Study,8,8,,Study/JOL,"Study Phase",8001,,,-1,-1,,,,1
w10110946_nzw,0ze7u8o2ok,Nick_Dissertation_EX1_EP,1,68,2021-12-01T21:34:28+00:00,8.1895821094513,3,versionC_stim.csv,READVersionC.csv,"Read Version C","Dissertation, read only version C",WIND,BLOW,Study1,S,55,69,Study,8,8,,Study/JOL,"Study Phase",8004,,,-1,-1,,,,1
w10110946_nzw,0ze7u8o2ok,Nick_Dissertation_EX1_EP,1,69,2021-12-01T21:34:36+00:00,8.1844379901886,3,versionC_stim.csv,READVersionC.csv,"Read Version C","Dissertation, read only version C",COW,HERD,Study1,B,22,57,Study,8,8,,Study/JOL,"Study Phase",8001,,,-1,-1,,,,1
w10110946_nzw,0ze7u8o2ok,Nick_Dissertation_EX1_EP,1,70,2021-12-01T21:34:44+00:00,8.1815850734711,3,versionC_stim.csv,READVersionC.csv,"Read Version C","Dissertation, read only version C",ADD,VALLEY,Study1,U,82,22,Study,8,8,,Study/JOL,"Study Phase",8002,,,-1,-1,,,,1
w10110946_nzw,0ze7u8o2ok,Nick_Dissertation_EX1_EP,1,71,2021-12-01T21:34:53+00:00,8.193482875824,3,versionC_stim.csv,READVersionC.csv,"Read Version C","Dissertation, read only version C",STING,HORNET,Study1,B,11,52,Study,8,8,,Study/JOL,"Study Phase",8004,,,-1,-1,,,,1
w10110946_nzw,0ze7u8o2ok,Nick_Dissertation_EX1_EP,1,72,2021-12-01T21:35:01+00:00,8.1831829547882,3,versionC_stim.csv,READVersionC.csv,"Read Version C","Dissertation, read only version C",BLAZE,FIRE,Study1,F,45,45,Study,8,8,,Study/JOL,"Study Phase",8001,,,-1,-1,,,,1
w10110946_nzw,0ze7u8o2ok,Nick_Dissertation_EX1_EP,1,73,2021-12-01T21:35:09+00:00,8.2193470001221,3,versionC_stim.csv,READVersionC.csv,"Read Version C","Dissertation, read only version C",COLD,BITTER,Study1,B,12,51,Study,8,8,,Study/JOL,"Study Phase",8002,,,-1,-1,,,,1
w10110946_nzw,0ze7u8o2ok,Nick_Dissertation_EX1_EP,1,74,2021-12-01T21:35:17+00:00,8.1869931221008,3,versionC_stim.csv,READVersionC.csv,"Read Version C","Dissertation, read only version C",POSITION,MACHINE,Study1,U,76,12,Study,8,8,,Study/JOL,"Study Phase",8002,,,-1,-1,,,,1
w10110946_nzw,0ze7u8o2ok,Nick_Dissertation_EX1_EP,1,75,2021-12-01T21:35:25+00:00,8.2201020717621,3,versionC_stim.csv,READVersionC.csv,"Read Version C","Dissertation, read only version C",SIGHT,DEBATE,Study1,U,73,54,Study,8,8,,Study/JOL,"Study Phase",8036,,,-1,-1,,,,0.943
w10110946_nzw,0ze7u8o2ok,Nick_Dissertation_EX1_EP,1,76,2021-12-01T21:35:34+00:00,8.2043259143829,3,versionC_stim.csv,READVersionC.csv,"Read Version C","Dissertation, read only version C",ROUND,CIRCLE,Study1,S,65,53,Study,8,8,,Study/JOL,"Study Phase",8002,,,-1,-1,,,,0.912
w10110946_nzw,0ze7u8o2ok,Nick_Dissertation_EX1_EP,1,77,2021-12-01T21:35:42+00:00,8.1828880310059,3,versionC_stim.csv,READVersionC.csv,"Read Version C","Dissertation, read only version C",LION,ART,Study1,U,79,38,Study,8,8,,Study/JOL,"Study Phase",8001,,,-1,-1,,,,1
w10110946_nzw,0ze7u8o2ok,Nick_Dissertation_EX1_EP,1,78,2021-12-01T21:35:50+00:00,8.1770298480988,3,versionC_stim.csv,READVersionC.csv,"Read Version C","Dissertation, read only version C",DOG,PAW,Study1,B,15,75,Study,8,8,,Study/JOL,"Study Phase",8001,,,-1,-1,,,,1
w10110946_nzw,0ze7u8o2ok,Nick_Dissertation_EX1_EP,1,79,2021-12-01T21:35:58+00:00,8.1825602054596,3,versionC_stim.csv,READVersionC.csv,"Read Version C","Dissertation, read only version C",DEFINITION,MEANING,Study1,S,62,77,Study,8,8,,Study/JOL,"Study Phase",8002,,,-1,-1,,,,1
w10110946_nzw,0ze7u8o2ok,Nick_Dissertation_EX1_EP,1,80,2021-12-01T21:36:06+00:00,8.1815168857574,3,versionC_stim.csv,READVersionC.csv,"Read Version C","Dissertation, read only version C",BIRD,SWAN,Study1,B,14,44,Study,8,8,,Study/JOL,"Study Phase",8001,,,-1,-1,,,,1
w10110946_nzw,0ze7u8o2ok,Nick_Dissertation_EX1_EP,1,81,2021-12-01T21:36:15+00:00,8.1950531005859,3,versionC_stim.csv,READVersionC.csv,"Read Version C","Dissertation, read only version C",FISH,TUNA,Study1,B,25,7,Study,8,8,,Study/JOL,"Study Phase",8002,,,-1,-1,,,,1
w10110946_nzw,0ze7u8o2ok,Nick_Dissertation_EX1_EP,1,82,2021-12-01T21:36:23+00:00,8.1910719871521,3,versionC_stim.csv,READVersionC.csv,"Read Version C","Dissertation, read only version C",LIVER,KIDNEY,Study1,S,53,64,Study,8,8,,Study/JOL,"Study Phase",8001,,,-1,-1,,,,1
w10110946_nzw,0ze7u8o2ok,Nick_Dissertation_EX1_EP,1,83,2021-12-01T21:36:31+00:00,8.1842379570007,3,versionC_stim.csv,READVersionC.csv,"Read Version C","Dissertation, read only version C",MONEY,WAGE,Study1,B,8,81,Study,8,8,,Study/JOL,"Study Phase",8002,,,-1,-1,,,,1
w10110946_nzw,0ze7u8o2ok,Nick_Dissertation_EX1_EP,1,84,2021-12-01T21:36:39+00:00,8.1884329319,3,versionC_stim.csv,READVersionC.csv,"Read Version C","Dissertation, read only version C",SALAD,LETTUCE,Study1,S,59,70,Study,8,8,,Study/JOL,"Study Phase",8002,,,-1,-1,,,,1
w10110946_nzw,0ze7u8o2ok,Nick_Dissertation_EX1_EP,1,85,2021-12-01T21:36:47+00:00,8.1845550537109,3,versionC_stim.csv,READVersionC.csv,"Read Version C","Dissertation, read only version C",CHILI,HOT,Study1,F,37,68,Study,8,8,,Study/JOL,"Study Phase",8003,,,-1,-1,,,,1
w10110946_nzw,0ze7u8o2ok,Nick_Dissertation_EX1_EP,1,86,2021-12-01T21:36:55+00:00,8.1920599937439,3,versionC_stim.csv,READVersionC.csv,"Read Version C","Dissertation, read only version C",STOMACH,DIGESTION,Study1,B,7,80,Study,8,8,,Study/JOL,"Study Phase",8002,,,-1,-1,,,,1
w10110946_nzw,0ze7u8o2ok,Nick_Dissertation_EX1_EP,1,87,2021-12-01T21:37:04+00:00,8.4360549449921,3,versionC_stim.csv,READVersionC.csv,"Read Version C","Dissertation, read only version C",WOMAN,LIFT,Study1,U,69,13,Study,8,8,,Study/JOL,"Study Phase",8002,,,-1,-1,,,,1
w10110946_nzw,0ze7u8o2ok,Nick_Dissertation_EX1_EP,1,88,2021-12-01T21:37:12+00:00,8.1961591243744,3,versionC_stim.csv,READVersionC.csv,"Read Version C","Dissertation, read only version C",WASTE,DUMP,Study1,S,49,65,Study,8,8,,Study/JOL,"Study Phase",8002,,,-1,-1,,,,1
w10110946_nzw,0ze7u8o2ok,Nick_Dissertation_EX1_EP,1,89,2021-12-01T21:37:20+00:00,8.30411195755,3,versionC_stim.csv,READVersionC.csv,"Read Version C","Dissertation, read only version C",SPACE,MOON,BUFFER2,Buffer,89,87,Study,8,8,,Study/JOL,BUFFER2,8122,,,-1,-1,,,,0.974
w10110946_nzw,0ze7u8o2ok,Nick_Dissertation_EX1_EP,1,90,2021-12-01T21:37:29+00:00,8.1886339187622,3,versionC_stim.csv,READVersionC.csv,"Read Version C","Dissertation, read only version C",CHOCOLATE,MALT,BUFFER2,Buffer,88,88,Study,8,8,,Study/JOL,BUFFER2,8001,,,-1,-1,,,,0.914
w10110946_nzw,0ze7u8o2ok,Nick_Dissertation_EX1_EP,1,91,2021-12-01T21:37:37+00:00,8.1910121440887,3,versionC_stim.csv,READVersionC.csv,"Read Version C","Dissertation, read only version C",POLICE,SHERRIF,BUFFER2,Buffer,87,91,Study,8,8,,Study/JOL,BUFFER2,8002,,,-1,-1,,,,1
w10110946_nzw,0ze7u8o2ok,Nick_Dissertation_EX1_EP,1,92,2021-12-01T21:37:45+00:00,8.1848349571228,3,versionC_stim.csv,READVersionC.csv,"Read Version C","Dissertation, read only version C",STUFF,THING,BUFFER2,Buffer,90,90,Study,8,8,,Study/JOL,BUFFER2,8002,,,-1,-1,,,,1
w10110946_nzw,0ze7u8o2ok,Nick_Dissertation_EX1_EP,1,93,2021-12-01T21:37:53+00:00,8.1882929801941,3,versionC_stim.csv,READVersionC.csv,"Read Version C","Dissertation, read only version C",GOOSE,GEESE,BUFFER2,Buffer,86,89,Study,8,8,,Study/JOL,BUFFER2,8002,,,-1,-1,,,,1
w10110946_nzw,0ze7u8o2ok,Nick_Dissertation_EX1_EP,1,94,2021-12-01T21:37:56+00:00,2.5108790397644,3,versionC_stim.csv,READVersionC.csv,"Read Version C","Dissertation, read only version C",,,,,,0,Instruct,User,-,"You have completed this section. Please press Enter.",Filler_Instruction,Instruct2,2338,,,-1,-1,,,,1
w10110946_nzw,0ze7u8o2ok,Nick_Dissertation_EX1_EP,1,95,2021-12-01T21:39:56+00:00,120.26865291595,3,versionC_stim.csv,READVersionC.csv,"Read Version C","Dissertation, read only version C",,,,,,0,FreeRecall,120,120,"Please list the 50 US states in alphabetical order. The task will automatically advance to the next screen after two minutes.",,Filler1,120001,"alabama, alaska, arizona, arkansas, california, colorado, connecticut, delaware, florida, georgia, hawaii, idaho, illinois, indiana, iowa, kansas, kentucky, louisiana",0,17853,119846,0,0,,1
w10110946_nzw,0ze7u8o2ok,Nick_Dissertation_EX1_EP,1,96,2021-12-01T21:40:08+00:00,11.761126995087,3,versionC_stim.csv,READVersionC.csv,"Read Version C","Dissertation, read only version C",,,,,,0,Instruct,-,10,"You will now be presented with the first word from each of the previously studied item pairs. Please type the missing word. If you do not know the word, you may guess or press Enter to skip forward to the next pair.",,Instruct3,11573,,,-1,-1,,,,1
w10110946_nzw,0ze7u8o2ok,Nick_Dissertation_EX1_EP,1,97,2021-12-01T21:40:16+00:00,8.0414669513702,3,versionC_stim.csv,READVersionC.csv,"Read Version C","Dissertation, read only version C",CHORE,WORK,Study1,F,39,29,Test,User,-,,Recall,Recall1,7845,job,28.571428571429,6459,7046,0,0,,1
w10110946_nzw,0ze7u8o2ok,Nick_Dissertation_EX1_EP,1,98,2021-12-01T21:40:19+00:00,3.3932409286499,3,versionC_stim.csv,READVersionC.csv,"Read Version C","Dissertation, read only version C",BEE,HONEY,Study1,S,63,34,Test,User,-,,Recall,Recall1,3205,honey,100,1942,2805,1,1,,1
w10110946_nzw,0ze7u8o2ok,Nick_Dissertation_EX1_EP,1,99,2021-12-01T21:40:24+00:00,4.4729940891266,3,versionC_stim.csv,READVersionC.csv,"Read Version C","Dissertation, read only version C",BUSINESS,DEATH,Study1,U,72,76,Test,User,-,,Recall,Recall1,4280,work,0,2093,3991,0,0,,1
w10110946_nzw,0ze7u8o2ok,Nick_Dissertation_EX1_EP,1,100,2021-12-01T21:40:32+00:00,8.6951351165771,3,versionC_stim.csv,READVersionC.csv,"Read Version C","Dissertation, read only version C",FOOT,SHOE,Study1,S,60,14,Test,User,-,,Recall,Recall1,8513,leg,28.571428571429,7960,8354,0,0,,1
w10110946_nzw,0ze7u8o2ok,Nick_Dissertation_EX1_EP,1,101,2021-12-01T21:40:41+00:00,8.6910858154297,3,versionC_stim.csv,READVersionC.csv,"Read Version C","Dissertation, read only version C",LION,ART,Study1,U,79,38,Test,User,-,,Recall,Recall1,8500,,0,-1,-1,0,0,,1
w10110946_nzw,0ze7u8o2ok,Nick_Dissertation_EX1_EP,1,102,2021-12-01T21:40:46+00:00,5.5164229869843,3,versionC_stim.csv,READVersionC.csv,"Read Version C","Dissertation, read only version C",WAR,REVOLUTION,Study1,B,20,50,Test,User,-,,Recall,Recall1,5330,revolution,100,2747,4974,1,1,,1
w10110946_nzw,0ze7u8o2ok,Nick_Dissertation_EX1_EP,1,103,2021-12-01T21:40:53+00:00,6.6935741901398,3,versionC_stim.csv,READVersionC.csv,"Read Version C","Dissertation, read only version C",GROWTH,HEIGHT,Study1,F,30,46,Test,User,-,,Recall,Recall1,6505,height,100,4805,6291,1,1,,1
w10110946_nzw,0ze7u8o2ok,Nick_Dissertation_EX1_EP,1,104,2021-12-01T21:40:57+00:00,3.6903829574585,3,versionC_stim.csv,READVersionC.csv,"Read Version C","Dissertation, read only version C",SIP,DRINK,Study1,F,27,78,Test,User,-,,Recall,Recall1,3502,drink,100,2176,3295,1,1,,1
w10110946_nzw,0ze7u8o2ok,Nick_Dissertation_EX1_EP,1,105,2021-12-01T21:41:01+00:00,4.5942208766937,3,versionC_stim.csv,READVersionC.csv,"Read Version C","Dissertation, read only version C",COLD,BITTER,Study1,B,12,51,Test,User,-,,Recall,Recall1,4405,air,44.444444444444,3921,4172,0,0,,1
w10110946_nzw,0ze7u8o2ok,Nick_Dissertation_EX1_EP,1,106,2021-12-01T21:41:07+00:00,5.6950991153717,3,versionC_stim.csv,READVersionC.csv,"Read Version C","Dissertation, read only version C",RIDDLE,SUGAR,Study1,U,81,10,Test,User,-,,Recall,Recall1,5517,spell,20,4619,5281,0,0,,1
w10110946_nzw,0ze7u8o2ok,Nick_Dissertation_EX1_EP,1,107,2021-12-01T21:41:10+00:00,3.0860939025879,3,versionC_stim.csv,READVersionC.csv,"Read Version C","Dissertation, read only version C",DROWSY,SLEEP,Study1,F,41,17,Test,User,-,,Recall,Recall1,2907,sleep,100,2014,2665,1,1,,1
w10110946_nzw,0ze7u8o2ok,Nick_Dissertation_EX1_EP,1,108,2021-12-01T21:41:19+00:00,8.6606850624084,3,versionC_stim.csv,READVersionC.csv,"Read Version C","Dissertation, read only version C",FANTASTIC,GREAT,Study1,F,35,26,Test,User,-,,Recall,Recall1,8479,fun,0,7748,8108,0,0,,1
w10110946_nzw,0ze7u8o2ok,Nick_Dissertation_EX1_EP,1,109,2021-12-01T21:41:25+00:00,6.1633551120758,3,versionC_stim.csv,READVersionC.csv,"Read Version C","Dissertation, read only version C",CLEAN,HYGIENE,Study1,B,17,73,Test,User,-,,Recall,Recall1,5984,house,33.333333333333,4918,5805,0,0,,1
w10110946_nzw,0ze7u8o2ok,Nick_Dissertation_EX1_EP,1,110,2021-12-01T21:41:34+00:00,9.0056948661804,3,versionC_stim.csv,READVersionC.csv,"Read Version C","Dissertation, read only version C",CLUTTER,PUSHER,Study1,U,66,74,Test,User,-,,Recall,Recall1,8828,messy,18.181818181818,7714,8575,0,0,,1
w10110946_nzw,0ze7u8o2ok,Nick_Dissertation_EX1_EP,1,111,2021-12-01T21:41:37+00:00,2.5811820030212,3,versionC_stim.csv,READVersionC.csv,"Read Version C","Dissertation, read only version C",SODA,POP,Study1,S,56,24,Test,User,-,,Recall,Recall1,2403,pop,100,1283,1845,1,1,,1
w10110946_nzw,0ze7u8o2ok,Nick_Dissertation_EX1_EP,1,112,2021-12-01T21:41:42+00:00,5.4633090496063,3,versionC_stim.csv,READVersionC.csv,"Read Version C","Dissertation, read only version C",CHEESE,WINE,Study1,S,57,49,Test,User,-,,Recall,Recall1,5286,food,0,4594,5074,0,0,,1
w10110946_nzw,0ze7u8o2ok,Nick_Dissertation_EX1_EP,1,113,2021-12-01T21:41:47+00:00,4.6710250377655,3,versionC_stim.csv,READVersionC.csv,"Read Version C","Dissertation, read only version C",NEWS,EDITOR,Study1,B,10,20,Test,User,-,,Recall,Recall1,4494,letter,50,3368,4229,0,0,,1
w10110946_nzw,0ze7u8o2ok,Nick_Dissertation_EX1_EP,1,114,2021-12-01T21:41:51+00:00,4.4441299438477,3,versionC_stim.csv,READVersionC.csv,"Read Version C","Dissertation, read only version C",LIVER,KIDNEY,Study1,S,53,64,Test,User,-,,Recall,Recall1,4265,letter,16.666666666667,3076,4001,0,0,,1
w10110946_nzw,0ze7u8o2ok,Nick_Dissertation_EX1_EP,1,115,2021-12-01T21:41:59+00:00,7.454715013504,3,versionC_stim.csv,READVersionC.csv,"Read Version C","Dissertation, read only version C",JURY,TRIAL,Study1,S,50,62,Test,User,-,,Recall,Recall1,7275,court,20,5989,6895,0,0,,1
w10110946_nzw,0ze7u8o2ok,Nick_Dissertation_EX1_EP,1,116,2021-12-01T21:42:03+00:00,4.1404440402985,3,versionC_stim.csv,READVersionC.csv,"Read Version C","Dissertation, read only version C",DESIGN,ARCHITECTURE,Study1,S,51,21,Test,User,-,,Recall,Recall1,3958,house,35.294117647059,3021,3748,0,0,,1
w10110946_nzw,0ze7u8o2ok,Nick_Dissertation_EX1_EP,1,117,2021-12-01T21:42:14+00:00,11.141093015671,3,versionC_stim.csv,READVersionC.csv,"Read Version C","Dissertation, read only version C",CHILD,BABY,Study1,S,64,56,Test,User,-,,Recall,Recall1,10967,adolescent,14.285714285714,4262,10714,0,0,,1
w10110946_nzw,0ze7u8o2ok,Nick_Dissertation_EX1_EP,1,118,2021-12-01T21:42:18+00:00,4.226851940155,3,versionC_stim.csv,READVersionC.csv,"Read Version C","Dissertation, read only version C",COW,HERD,Study1,B,22,57,Test,User,-,,Recall,Recall1,4048,herd,100,3012,3762,1,1,,1
w10110946_nzw,0ze7u8o2ok,Nick_Dissertation_EX1_EP,1,119,2021-12-01T21:42:22+00:00,3.3580679893494,3,versionC_stim.csv,READVersionC.csv,"Read Version C","Dissertation, read only version C",STING,HORNET,Study1,B,11,52,Test,User,-,,Recall,Recall1,3176,bee,22.222222222222,2574,3009,0,0,,1
w10110946_nzw,0ze7u8o2ok,Nick_Dissertation_EX1_EP,1,120,2021-12-01T21:42:37+00:00,15.926934957504,3,versionC_stim.csv,READVersionC.csv,"Read Version C","Dissertation, read only version C",TOILET,BATHROOM,Study1,S,58,39,Test,User,-,,Recall,Recall1,15741,bathroom,100,13924,15369,1,1,,1
w10110946_nzw,0ze7u8o2ok,Nick_Dissertation_EX1_EP,1,121,2021-12-01T21:42:41+00:00,3.2296390533447,3,versionC_stim.csv,READVersionC.csv,"Read Version C","Dissertation, read only version C",WASTE,DUMP,Study1,S,49,65,Test,User,-,,Recall,Recall1,3043,garbage,0,1703,2788,0,0,,1
w10110946_nzw,0ze7u8o2ok,Nick_Dissertation_EX1_EP,1,122,2021-12-01T21:42:49+00:00,8.0887129306793,3,versionC_stim.csv,READVersionC.csv,"Read Version C","Dissertation, read only version C",WORD,SENTENCE,Study1,F,31,85,Test,User,-,,Recall,Recall1,7909,,0,-1,-1,0,0,,1
w10110946_nzw,0ze7u8o2ok,Nick_Dissertation_EX1_EP,1,123,2021-12-01T21:42:50+00:00,1.6399130821228,3,versionC_stim.csv,READVersionC.csv,"Read Version C","Dissertation, read only version C",WOULD,CASH,Study1,U,83,31,Test,User,-,,Recall,Recall1,1460,,0,-1,-1,0,0,,1
w10110946_nzw,0ze7u8o2ok,Nick_Dissertation_EX1_EP,1,124,2021-12-01T21:42:55+00:00,4.8219940662384,3,versionC_stim.csv,READVersionC.csv,"Read Version C","Dissertation, read only version C",ACCIDENT,STRONG,Study1,U,80,15,Test,User,-,,Recall,Recall1,4645,car,22.222222222222,3712,4363,0,0,,1
w10110946_nzw,0ze7u8o2ok,Nick_Dissertation_EX1_EP,1,125,2021-12-01T21:43:05+00:00,10.134620904922,3,versionC_stim.csv,READVersionC.csv,"Read Version C","Dissertation, read only version C",TALK,DISCUSSION,Study1,B,21,35,Test,User,-,,Recall,Recall1,9957,speak,13.333333333333,8989,9742,0,0,,1
w10110946_nzw,0ze7u8o2ok,Nick_Dissertation_EX1_EP,1,126,2021-12-01T21:43:08+00:00,2.2732911109924,3,versionC_stim.csv,READVersionC.csv,"Read Version C","Dissertation, read only version C",FAMINE,HUNGER,Study1,F,40,72,Test,User,-,,Recall,Recall1,2092,,0,-1,-1,0,0,,1
w10110946_nzw,0ze7u8o2ok,Nick_Dissertation_EX1_EP,1,127,2021-12-01T21:43:10+00:00,2.7134158611298,3,versionC_stim.csv,READVersionC.csv,"Read Version C","Dissertation, read only version C",PLANT,ROOT,Study1,B,13,59,Test,User,-,,Recall,Recall1,2538,flower,20,1297,2306,0,0,,1
w10110946_nzw,0ze7u8o2ok,Nick_Dissertation_EX1_EP,1,128,2021-12-01T21:43:15+00:00,4.5051939487457,3,versionC_stim.csv,READVersionC.csv,"Read Version C","Dissertation, read only version C",FISH,TUNA,Study1,B,25,7,Test,User,-,,Recall,Recall1,4332,tuna,100,3500,4119,1,1,,1
w10110946_nzw,0ze7u8o2ok,Nick_Dissertation_EX1_EP,1,129,2021-12-01T21:43:18+00:00,3.3842980861664,3,versionC_stim.csv,READVersionC.csv,"Read Version C","Dissertation, read only version C",FUTURE,PAST,Study1,S,61,23,Test,User,-,,Recall,Recall1,3205,past,100,2187,2698,1,1,,1
w10110946_nzw,0ze7u8o2ok,Nick_Dissertation_EX1_EP,1,130,2021-12-01T21:43:22+00:00,4.0943720340729,3,versionC_stim.csv,READVersionC.csv,"Read Version C","Dissertation, read only version C",CAR,HAPPY,Study1,U,77,33,Test,User,-,,Recall,Recall1,3917,truck,0,2673,3683,0,0,,1
w10110946_nzw,0ze7u8o2ok,Nick_Dissertation_EX1_EP,1,131,2021-12-01T21:43:28+00:00,5.3287229537964,3,versionC_stim.csv,READVersionC.csv,"Read Version C","Dissertation, read only version C",BELT,SOON,Study1,U,70,18,Test,User,-,,Recall,Recall1,5151,jeans,22.222222222222,4083,4948,0,0,,1
w10110946_nzw,0ze7u8o2ok,Nick_Dissertation_EX1_EP,1,132,2021-12-01T21:43:29+00:00,1.7158639431,3,versionC_stim.csv,READVersionC.csv,"Read Version C","Dissertation, read only version C",SACKING,DIETARY,Study1,U,67,43,Test,User,-,,Recall,Recall1,1534,,0,-1,-1,0,0,,1
w10110946_nzw,0ze7u8o2ok,Nick_Dissertation_EX1_EP,1,133,2021-12-01T21:43:33+00:00,3.2954561710358,3,versionC_stim.csv,READVersionC.csv,"Read Version C","Dissertation, read only version C",AMOUNT,NUMBER,Study1,S,47,83,Test,User,-,,Recall,Recall1,3110,number,100,1763,2915,1,1,,1
w10110946_nzw,0ze7u8o2ok,Nick_Dissertation_EX1_EP,1,134,2021-12-01T21:43:51+00:00,17.822641849518,3,versionC_stim.csv,READVersionC.csv,"Read Version C","Dissertation, read only version C",HAMMER,CHISEL,Study1,B,9,11,Test,User,-,,Recall,Recall1,17642,nail,40,16618,17176,0,0,,1
w10110946_nzw,0ze7u8o2ok,Nick_Dissertation_EX1_EP,1,135,2021-12-01T21:43:55+00:00,4.8875200748444,3,versionC_stim.csv,READVersionC.csv,"Read Version C","Dissertation, read only version C",FLOOR,DISCOVER,Study1,U,71,63,Test,User,-,,Recall,Recall1,4702,wood,16.666666666667,4094,4533,0,0,,1
w10110946_nzw,0ze7u8o2ok,Nick_Dissertation_EX1_EP,1,136,2021-12-01T21:44:00+00:00,4.621631860733,3,versionC_stim.csv,READVersionC.csv,"Read Version C","Dissertation, read only version C",LATCH,KEY,Study1,F,36,58,Test,User,-,,Recall,Recall1,4449,tie,33.333333333333,2966,3448,0,0,,1
w10110946_nzw,0ze7u8o2ok,Nick_Dissertation_EX1_EP,1,137,2021-12-01T21:44:04+00:00,3.9277520179749,3,versionC_stim.csv,READVersionC.csv,"Read Version C","Dissertation, read only version C",WASP,BUG,Study1,F,32,32,Test,User,-,,Recall,Recall1,3744,bee,33.333333333333,3194,3536,0,0,,1
w10110946_nzw,0ze7u8o2ok,Nick_Dissertation_EX1_EP,1,138,2021-12-01T21:44:09+00:00,4.7685251235962,3,versionC_stim.csv,READVersionC.csv,"Read Version C","Dissertation, read only version C",STENCH,SMELL,Study1,F,42,40,Test,User,-,,Recall,Recall1,4593,stink,20,3178,4188,0,0,,1
w10110946_nzw,0ze7u8o2ok,Nick_Dissertation_EX1_EP,1,139,2021-12-01T21:44:14+00:00,4.7994129657745,3,versionC_stim.csv,READVersionC.csv,"Read Version C","Dissertation, read only version C",SEIZE,TAKE,Study1,F,29,37,Test,User,-,,Recall,Recall1,4593,jury,0,3630,4212,0,0,,1
w10110946_nzw,0ze7u8o2ok,Nick_Dissertation_EX1_EP,1,140,2021-12-01T21:44:19+00:00,5.2899749279022,3,versionC_stim.csv,READVersionC.csv,"Read Version C","Dissertation, read only version C",ATTORNEY,LAW,Study1,F,34,61,Test,User,-,,Recall,Recall1,5094,court,0,3751,4884,0,0,,1
w10110946_nzw,0ze7u8o2ok,Nick_Dissertation_EX1_EP,1,141,2021-12-01T21:44:21+00:00,2.4975380897522,3,versionC_stim.csv,READVersionC.csv,"Read Version C","Dissertation, read only version C",BLAZE,FIRE,Study1,F,45,45,Test,User,-,,Recall,Recall1,2325,fire,100,1658,2146,1,1,,1
w10110946_nzw,0ze7u8o2ok,Nick_Dissertation_EX1_EP,1,142,2021-12-01T21:44:26+00:00,4.3864889144897,3,versionC_stim.csv,READVersionC.csv,"Read Version C","Dissertation, read only version C",ATTIRE,CLOTHES,Study1,F,43,84,Test,User,-,,Recall,Recall1,4205,clothing,66.666666666667,2442,3974,0,0,,1
w10110946_nzw,0ze7u8o2ok,Nick_Dissertation_EX1_EP,1,143,2021-12-01T21:44:30+00:00,4.0728931427002,3,versionC_stim.csv,READVersionC.csv,"Read Version C","Dissertation, read only version C",BRONZE,ARTERY,Study1,U,74,25,Test,User,-,,Recall,Recall1,3893,gold,0,3110,3695,0,0,,1
w10110946_nzw,0ze7u8o2ok,Nick_Dissertation_EX1_EP,1,144,2021-12-01T21:44:38+00:00,8.5814929008484,3,versionC_stim.csv,READVersionC.csv,"Read Version C","Dissertation, read only version C",STOMACH,DIGESTION,Study1,B,7,80,Test,User,-,,Recall,Recall1,8401,food,15.384615384615,5334,8226,0,0,,1
w10110946_nzw,0ze7u8o2ok,Nick_Dissertation_EX1_EP,1,145,2021-12-01T21:44:46+00:00,7.7939510345459,3,versionC_stim.csv,READVersionC.csv,"Read Version C","Dissertation, read only version C",BIRD,SWAN,Study1,B,14,44,Test,User,-,,Recall,Recall1,7612,nest,25,1670,7233,0,0,,1
w10110946_nzw,0ze7u8o2ok,Nick_Dissertation_EX1_EP,1,146,2021-12-01T21:44:49+00:00,2.3492290973663,3,versionC_stim.csv,READVersionC.csv,"Read Version C","Dissertation, read only version C",BAD,DELINQUENT,Study1,B,6,79,Test,User,-,,Recall,Recall1,2176,good,14.285714285714,1120,1629,0,0,,1
w10110946_nzw,0ze7u8o2ok,Nick_Dissertation_EX1_EP,1,147,2021-12-01T21:44:59+00:00,10.12942481041,3,versionC_stim.csv,READVersionC.csv,"Read Version C","Dissertation, read only version C",END,BEGIN,Study1,S,54,36,Test,User,-,,Recall,Recall1,9946,beginning,71.428571428571,6589,9645,0,0,,1
w10110946_nzw,0ze7u8o2ok,Nick_Dissertation_EX1_EP,1,148,2021-12-01T21:45:08+00:00,8.9772560596466,3,versionC_stim.csv,READVersionC.csv,"Read Version C","Dissertation, read only version C",ENOUGH,FULL,Study1,F,26,27,Test,User,-,,Recall,Recall1,8783,said,0,8014,8481,0,0,,1
w10110946_nzw,0ze7u8o2ok,Nick_Dissertation_EX1_EP,1,149,2021-12-01T21:45:14+00:00,6.0356910228729,3,versionC_stim.csv,READVersionC.csv,"Read Version C","Dissertation, read only version C",RACKET,BALL,Study1,F,38,82,Test,User,-,,Recall,Recall1,5847,tennis,0,1535,5657,0,0,,1
w10110946_nzw,0ze7u8o2ok,Nick_Dissertation_EX1_EP,1,150,2021-12-01T21:45:19+00:00,5.5899639129639,3,versionC_stim.csv,READVersionC.csv,"Read Version C","Dissertation, read only version C",ASSIGNMENT,DUE,Study1,S,46,41,Test,User,-,,Recall,Recall1,5390,work,0,1624,5084,0,0,,1
w10110946_nzw,0ze7u8o2ok,Nick_Dissertation_EX1_EP,1,151,2021-12-01T21:45:24+00:00,5.1472489833832,3,versionC_stim.csv,READVersionC.csv,"Read Version C","Dissertation, read only version C",SIGHT,DEBATE,Study1,U,73,54,Test,User,-,,Recall,Recall1,4959,eye,44.444444444444,2951,3336,0,0,,1
w10110946_nzw,0ze7u8o2ok,Nick_Dissertation_EX1_EP,1,152,2021-12-01T21:45:35+00:00,10.747843980789,3,versionC_stim.csv,READVersionC.csv,"Read Version C","Dissertation, read only version C",SALAD,LETTUCE,Study1,S,59,70,Test,User,-,,Recall,Recall1,10565,dressing,13.333333333333,8928,10286,0,0,,1
w10110946_nzw,0ze7u8o2ok,Nick_Dissertation_EX1_EP,1,153,2021-12-01T21:45:51+00:00,15.893395185471,3,versionC_stim.csv,READVersionC.csv,"Read Version C","Dissertation, read only version C",ROUND,CIRCLE,Study1,S,65,53,Test,User,-,,Recall,Recall1,15715,edge,20,13532,14346,0,0,,1
w10110946_nzw,0ze7u8o2ok,Nick_Dissertation_EX1_EP,1,154,2021-12-01T21:45:56+00:00,5.3022918701172,3,versionC_stim.csv,READVersionC.csv,"Read Version C","Dissertation, read only version C",FLOWER,ORCHID,Study1,B,24,28,Test,User,-,,Recall,Recall1,5125,plant,0,3936,4864,0,0,,1
w10110946_nzw,0ze7u8o2ok,Nick_Dissertation_EX1_EP,1,155,2021-12-01T21:46:00+00:00,3.1783580780029,3,versionC_stim.csv,READVersionC.csv,"Read Version C","Dissertation, read only version C",ADD,VALLEY,Study1,U,82,22,Test,User,-,,Recall,Recall1,3002,subract,15.384615384615,1414,2845,0,0,,1
w10110946_nzw,0ze7u8o2ok,Nick_Dissertation_EX1_EP,1,156,2021-12-01T21:46:05+00:00,5.2138650417328,3,versionC_stim.csv,READVersionC.csv,"Read Version C","Dissertation, read only version C",SICK,HIDE,Study1,U,84,60,Test,User,-,,Recall,Recall1,5020,cold,25,4339,4824,0,0,,1
w10110946_nzw,0ze7u8o2ok,Nick_Dissertation_EX1_EP,1,157,2021-12-01T21:46:10+00:00,4.8125169277191,3,versionC_stim.csv,READVersionC.csv,"Read Version C","Dissertation, read only version C",ROCK,GEOLOGY,Study1,B,19,86,Test,User,-,,Recall,Recall1,4614,stone,16.666666666667,3600,4409,0,0,,1
w10110946_nzw,0ze7u8o2ok,Nick_Dissertation_EX1_EP,1,158,2021-12-01T21:46:12+00:00,2.4592669010162,3,versionC_stim.csv,READVersionC.csv,"Read Version C","Dissertation, read only version C",CAVE,DARK,Study1,F,28,42,Test,User,-,,Recall,Recall1,2285,man,28.571428571429,1556,1808,0,0,,1
w10110946_nzw,0ze7u8o2ok,Nick_Dissertation_EX1_EP,1,159,2021-12-01T21:46:24+00:00,12.453139066696,3,versionC_stim.csv,READVersionC.csv,"Read Version C","Dissertation, read only version C",MONEY,WAGE,Study1,B,8,81,Test,User,-,,Recall,Recall1,11710,,0,-1,-1,0,0,,1
w10110946_nzw,0ze7u8o2ok,Nick_Dissertation_EX1_EP,1,160,2021-12-01T21:46:36+00:00,11.262969970703,3,versionC_stim.csv,READVersionC.csv,"Read Version C","Dissertation, read only version C",WIND,BLOW,Study1,S,55,69,Test,User,-,,Recall,Recall1,10999,cold,25,10174,10779,0,0,,1
w10110946_nzw,0ze7u8o2ok,Nick_Dissertation_EX1_EP,1,161,2021-12-01T21:46:42+00:00,5.8155891895294,3,versionC_stim.csv,READVersionC.csv,"Read Version C","Dissertation, read only version C",TUCK,ALLOW,Study1,U,78,71,Test,User,-,,Recall,Recall1,5630,flip,22.222222222222,4410,5290,0,0,,1
w10110946_nzw,0ze7u8o2ok,Nick_Dissertation_EX1_EP,1,162,2021-12-01T21:46:51+00:00,9.8854367733002,3,versionC_stim.csv,READVersionC.csv,"Read Version C","Dissertation, read only version C",DEFINITION,MEANING,Study1,S,62,77,Test,User,-,,Recall,Recall1,9704,word,0,9020,9479,0,0,,1
w10110946_nzw,0ze7u8o2ok,Nick_Dissertation_EX1_EP,1,163,2021-12-01T21:46:54+00:00,2.8524031639099,3,versionC_stim.csv,READVersionC.csv,"Read Version C","Dissertation, read only version C",VASE,KING,Study1,U,85,19,Test,User,-,,Recall,Recall1,2675,plant,22.222222222222,1576,2426,0,0,,1
w10110946_nzw,0ze7u8o2ok,Nick_Dissertation_EX1_EP,1,164,2021-12-01T21:47:02+00:00,7.2943480014801,3,versionC_stim.csv,READVersionC.csv,"Read Version C","Dissertation, read only version C",HUNGRY,PARK,Study1,U,68,8,Test,User,-,,Recall,Recall1,7116,full,0,1920,6742,0,0,,1
w10110946_nzw,0ze7u8o2ok,Nick_Dissertation_EX1_EP,1,165,2021-12-01T21:47:06+00:00,4.8779699802399,3,versionC_stim.csv,READVersionC.csv,"Read Version C","Dissertation, read only version C",BAR,GRILL,Study1,S,52,30,Test,User,-,,Recall,Recall1,4701,drink,40,3604,4425,0,0,,1
w10110946_nzw,0ze7u8o2ok,Nick_Dissertation_EX1_EP,1,166,2021-12-01T21:47:12+00:00,5.8808279037476,3,versionC_stim.csv,READVersionC.csv,"Read Version C","Dissertation, read only version C",DOG,PAW,Study1,B,15,75,Test,User,-,,Recall,Recall1,5705,pet,33.333333333333,1234,5494,0,0,,1
w10110946_nzw,0ze7u8o2ok,Nick_Dissertation_EX1_EP,1,167,2021-12-01T21:47:16+00:00,3.4918940067291,3,versionC_stim.csv,READVersionC.csv,"Read Version C","Dissertation, read only version C",SITE,LOCATION,Study1,S,48,66,Test,User,-,,Recall,Recall1,3309,seeing,28.571428571429,2133,3111,0,0,,1
w10110946_nzw,0ze7u8o2ok,Nick_Dissertation_EX1_EP,1,168,2021-12-01T21:47:19+00:00,3.6052050590515,3,versionC_stim.csv,READVersionC.csv,"Read Version C","Dissertation, read only version C",WOMAN,LIFT,Study1,U,69,13,Test,User,-,,Recall,Recall1,3416,man,0,2578,3024,0,0,,1
w10110946_nzw,0ze7u8o2ok,Nick_Dissertation_EX1_EP,1,169,2021-12-01T21:47:32+00:00,12.567811965942,3,versionC_stim.csv,READVersionC.csv,"Read Version C","Dissertation, read only version C",WATER,BRIDGE,Study1,B,18,9,Test,User,-,,Recall,Recall1,12385,liquid,33.333333333333,10940,12141,0,0,,1
w10110946_nzw,0ze7u8o2ok,Nick_Dissertation_EX1_EP,1,170,2021-12-01T21:47:34+00:00,2.1232891082764,3,versionC_stim.csv,READVersionC.csv,"Read Version C","Dissertation, read only version C",OUT,WAY,Study1,B,16,48,Test,User,-,,Recall,Recall1,1923,in,0,1392,1615,0,0,,1
w10110946_nzw,0ze7u8o2ok,Nick_Dissertation_EX1_EP,1,171,2021-12-01T21:47:37+00:00,3.086972951889,3,versionC_stim.csv,READVersionC.csv,"Read Version C","Dissertation, read only version C",HAND,FIX,Study1,U,75,16,Test,User,-,,Recall,Recall1,2873,foot,28.571428571429,2201,2703,0,0,,1
w10110946_nzw,0ze7u8o2ok,Nick_Dissertation_EX1_EP,1,172,2021-12-01T21:47:40+00:00,2.8266859054565,3,versionC_stim.csv,READVersionC.csv,"Read Version C","Dissertation, read only version C",PILOT,PLANE,Study1,F,44,55,Test,User,-,,Recall,Recall1,2648,plane,100,1696,2412,1,1,,1
w10110946_nzw,0ze7u8o2ok,Nick_Dissertation_EX1_EP,1,173,2021-12-01T21:47:51+00:00,10.527503013611,3,versionC_stim.csv,READVersionC.csv,"Read Version C","Dissertation, read only version C",CHILI,HOT,Study1,F,37,68,Test,User,-,,Recall,Recall1,10348,powder,22.222222222222,7732,8859,0,0,,1
w10110946_nzw,0ze7u8o2ok,Nick_Dissertation_EX1_EP,1,174,2021-12-01T21:47:56+00:00,5.0124111175537,3,versionC_stim.csv,READVersionC.csv,"Read Version C","Dissertation, read only version C",CARD,CREDIT,Study1,B,23,47,Test,User,-,,Recall,Recall1,4826,money,18.181818181818,1757,4428,0,0,,1
w10110946_nzw,0ze7u8o2ok,Nick_Dissertation_EX1_EP,1,175,2021-12-01T21:48:03+00:00,7.5663459300995,3,versionC_stim.csv,READVersionC.csv,"Read Version C","Dissertation, read only version C",DIVISION,MATH,Study1,F,33,67,Test,User,-,,Recall,Recall1,7389,multiplication,33.333333333333,2628,6404,0,0,,1
w10110946_nzw,0ze7u8o2ok,Nick_Dissertation_EX1_EP,1,176,2021-12-01T21:48:06+00:00,3.2461500167847,3,versionC_stim.csv,READVersionC.csv,"Read Version C","Dissertation, read only version C",POSITION,MACHINE,Study1,U,76,12,Test,User,-,,Recall,Recall1,3067,stance,46.153846153846,1880,2784,0,0,,1
w10110946_nzw,0ze7u8o2ok,Nick_Dissertation_EX1_EP,1,177,2021-12-01T21:48:18+00:00,11.359946966171,3,versionC_stim.csv,READVersionC.csv,"Read Version C","Dissertation, read only version C",,,,,,0,Instruct,-,10,"You will now be presented with a new set of word pairs. Please study each pair. Remember that your memory will be tested! When finished, press Enter to move to the next pair.",Initial_Instruct,Instruct4,11180,,,-1,-1,,,,1
w10110946_nzw,0ze7u8o2ok,Nick_Dissertation_EX1_EP,1,178,2021-12-01T21:48:21+00:00,3.6127440929413,3,versionC_stim.csv,READVersionC.csv,"Read Version C","Dissertation, read only version C",,,,,,0,Instruct,User,-,"Each word will be displayed on the computer screen for 8 seconds. The screen will automatically move to the next pair when time is up. Press Enter when you are ready to begin.",,Instruct11,3437,,,-1,-1,,,,1
w10110946_nzw,0ze7u8o2ok,Nick_Dissertation_EX1_EP,1,179,2021-12-01T21:48:30+00:00,8.1780889034271,3,versionC_stim.csv,READVersionC.csv,"Read Version C","Dissertation, read only version C",FISH,SHRIMP,BUFFER3,Buffer,93,94,Study,8,8,,Study/JOL,BUFFER3,8001,,,-1,-1,,,,1
w10110946_nzw,0ze7u8o2ok,Nick_Dissertation_EX1_EP,1,180,2021-12-01T21:48:38+00:00,8.8754911422729,3,versionC_stim.csv,READVersionC.csv,"Read Version C","Dissertation, read only version C",STRING,NOODLE,BUFFER3,Buffer,92,96,Study,8,8,,Study/JOL,BUFFER3,8001,,,-1,-1,,,,1
w10110946_nzw,0ze7u8o2ok,Nick_Dissertation_EX1_EP,1,181,2021-12-01T21:48:47+00:00,8.1889708042145,3,versionC_stim.csv,READVersionC.csv,"Read Version C","Dissertation, read only version C",POTATO,CARROT,BUFFER3,Buffer,91,92,Study,8,8,,Study/JOL,BUFFER3,8001,,,-1,-1,,,,1
w10110946_nzw,0ze7u8o2ok,Nick_Dissertation_EX1_EP,1,182,2021-12-01T21:48:55+00:00,8.186005115509,3,versionC_stim.csv,READVersionC.csv,"Read Version C","Dissertation, read only version C",ADVENTURE,CAMP,BUFFER3,Buffer,95,93,Study,8,8,,Study/JOL,BUFFER3,8001,,,-1,-1,,,,1
w10110946_nzw,0ze7u8o2ok,Nick_Dissertation_EX1_EP,1,183,2021-12-01T21:49:03+00:00,8.1799838542938,3,versionC_stim.csv,READVersionC.csv,"Read Version C","Dissertation, read only version C",FROZEN,ICE,BUFFER3,Buffer,94,95,Study,8,8,,Study/JOL,BUFFER3,8001,,,-1,-1,,,,1
w10110946_nzw,0ze7u8o2ok,Nick_Dissertation_EX1_EP,1,184,2021-12-01T21:49:11+00:00,8.1861040592194,3,versionC_stim.csv,READVersionC.csv,"Read Version C","Dissertation, read only version C",CHARM,VEHICLE,Study2,U,160,140,Study,8,8,,Study/JOL,"Study Phase2",8002,,,-1,-1,,,,1
w10110946_nzw,0ze7u8o2ok,Nick_Dissertation_EX1_EP,1,185,2021-12-01T21:49:19+00:00,8.1894400119781,3,versionC_stim.csv,READVersionC.csv,"Read Version C","Dissertation, read only version C",LEAGUE,BASEBALL,Study2,F,131,110,Study,8,8,,Study/JOL,"Study Phase2",8003,,,-1,-1,,,,1
w10110946_nzw,0ze7u8o2ok,Nick_Dissertation_EX1_EP,1,186,2021-12-01T21:49:28+00:00,8.1863310337067,3,versionC_stim.csv,READVersionC.csv,"Read Version C","Dissertation, read only version C",NAP,SLEEP,Study2,F,134,152,Study,8,8,,Study/JOL,"Study Phase2",8003,,,-1,-1,,,,0.906
w10110946_nzw,0ze7u8o2ok,Nick_Dissertation_EX1_EP,1,187,2021-12-01T21:49:36+00:00,8.1863889694214,3,versionC_stim.csv,READVersionC.csv,"Read Version C","Dissertation, read only version C",DONKEY,MULE,Study2,B,108,136,Study,8,8,,Study/JOL,"Study Phase2",8002,,,-1,-1,,,,1
w10110946_nzw,0ze7u8o2ok,Nick_Dissertation_EX1_EP,1,188,2021-12-01T21:49:44+00:00,8.1947209835052,3,versionC_stim.csv,READVersionC.csv,"Read Version C","Dissertation, read only version C",COFFIN,DEAD,Study2,F,128,111,Study,8,8,,Study/JOL,"Study Phase2",8002,,,-1,-1,,,,1
w10110946_nzw,0ze7u8o2ok,Nick_Dissertation_EX1_EP,1,189,2021-12-01T21:49:52+00:00,8.1896059513092,3,versionC_stim.csv,READVersionC.csv,"Read Version C","Dissertation, read only version C",EAT,DINE,Study2,B,111,133,Study,8,8,,Study/JOL,"Study Phase2",8002,,,-1,-1,,,,1
w10110946_nzw,0ze7u8o2ok,Nick_Dissertation_EX1_EP,1,190,2021-12-01T21:50:00+00:00,8.1874141693115,3,versionC_stim.csv,READVersionC.csv,"Read Version C","Dissertation, read only version C",LONELY,ALONE,Study2,S,145,129,Study,8,8,,Study/JOL,"Study Phase2",8002,,,-1,-1,,,,1
w10110946_nzw,0ze7u8o2ok,Nick_Dissertation_EX1_EP,1,191,2021-12-01T21:50:08+00:00,8.1822009086609,3,versionC_stim.csv,READVersionC.csv,"Read Version C","Dissertation, read only version C",TOIL,LEASE,Study2,U,170,99,Study,8,8,,Study/JOL,"Study Phase2",8002,,,-1,-1,,,,1
w10110946_nzw,0ze7u8o2ok,Nick_Dissertation_EX1_EP,1,192,2021-12-01T21:50:17+00:00,8.194060087204,3,versionC_stim.csv,READVersionC.csv,"Read Version C","Dissertation, read only version C",MAROON,JUSTICE,Study2,U,156,142,Study,8,8,,Study/JOL,"Study Phase2",8002,,,-1,-1,,,,1
w10110946_nzw,0ze7u8o2ok,Nick_Dissertation_EX1_EP,1,193,2021-12-01T21:50:25+00:00,8.194375038147,3,versionC_stim.csv,READVersionC.csv,"Read Version C","Dissertation, read only version C",BREAKABLE,GLASS,Study2,F,127,113,Study,8,8,,Study/JOL,"Study Phase2",8002,,,-1,-1,,,,1
w10110946_nzw,0ze7u8o2ok,Nick_Dissertation_EX1_EP,1,194,2021-12-01T21:50:33+00:00,8.2397668361664,3,versionC_stim.csv,READVersionC.csv,"Read Version C","Dissertation, read only version C",RED,CHERRY,Study2,B,104,150,Study,8,8,,Study/JOL,"Study Phase2",8001,,,-1,-1,,,,1
w10110946_nzw,0ze7u8o2ok,Nick_Dissertation_EX1_EP,1,195,2021-12-01T21:50:41+00:00,8.1971039772034,3,versionC_stim.csv,READVersionC.csv,"Read Version C","Dissertation, read only version C",FIGHT,FEUD,Study2,B,113,149,Study,8,8,,Study/JOL,"Study Phase2",8002,,,-1,-1,,,,0.9
w10110946_nzw,0ze7u8o2ok,Nick_Dissertation_EX1_EP,1,196,2021-12-01T21:50:49+00:00,8.1990330219269,3,versionC_stim.csv,READVersionC.csv,"Read Version C","Dissertation, read only version C",ACTRESS,STAR,Study2,F,120,162,Study,8,8,,Study/JOL,"Study Phase2",8002,,,-1,-1,,,,1
w10110946_nzw,0ze7u8o2ok,Nick_Dissertation_EX1_EP,1,197,2021-12-01T21:50:58+00:00,8.1930401325226,3,versionC_stim.csv,READVersionC.csv,"Read Version C","Dissertation, read only version C",COMMUNICATION,PHONE,Study2,S,149,98,Study,8,8,,Study/JOL,"Study Phase2",8002,,,-1,-1,,,,1
w10110946_nzw,0ze7u8o2ok,Nick_Dissertation_EX1_EP,1,198,2021-12-01T21:51:06+00:00,8.1891889572144,3,versionC_stim.csv,READVersionC.csv,"Read Version C","Dissertation, read only version C",PLANT,CACTUS,Study2,B,98,164,Study,8,8,,Study/JOL,"Study Phase2",8003,,,-1,-1,,,,1
w10110946_nzw,0ze7u8o2ok,Nick_Dissertation_EX1_EP,1,199,2021-12-01T21:51:14+00:00,8.1815719604492,3,versionC_stim.csv,READVersionC.csv,"Read Version C","Dissertation, read only version C",CAR,DRIVER,Study2,B,106,121,Study,8,8,,Study/JOL,"Study Phase2",8001,,,-1,-1,,,,1
w10110946_nzw,0ze7u8o2ok,Nick_Dissertation_EX1_EP,1,200,2021-12-01T21:51:22+00:00,8.1921050548553,3,versionC_stim.csv,READVersionC.csv,"Read Version C","Dissertation, read only version C",OBTAIN,MEAT,Study2,U,161,154,Study,8,8,,Study/JOL,"Study Phase2",8002,,,-1,-1,,,,1
w10110946_nzw,0ze7u8o2ok,Nick_Dissertation_EX1_EP,1,201,2021-12-01T21:51:30+00:00,8.1881170272827,3,versionC_stim.csv,READVersionC.csv,"Read Version C","Dissertation, read only version C",LONG,EXTENSION,Study2,B,96,171,Study,8,8,,Study/JOL,"Study Phase2",8001,,,-1,-1,,,,1
w10110946_nzw,0ze7u8o2ok,Nick_Dissertation_EX1_EP,1,202,2021-12-01T21:51:39+00:00,8.1754648685455,3,versionC_stim.csv,READVersionC.csv,"Read Version C","Dissertation, read only version C",CLEAR,MOAT,Study2,U,169,172,Study,8,8,,Study/JOL,"Study Phase2",8001,,,-1,-1,,,,1
w10110946_nzw,0ze7u8o2ok,Nick_Dissertation_EX1_EP,1,203,2021-12-01T21:51:47+00:00,8.1848981380463,3,versionC_stim.csv,READVersionC.csv,"Read Version C","Dissertation, read only version C",BANG,FUZZY,Study2,U,168,153,Study,8,8,,Study/JOL,"Study Phase2",8001,,,-1,-1,,,,1
w10110946_nzw,0ze7u8o2ok,Nick_Dissertation_EX1_EP,1,204,2021-12-01T21:51:55+00:00,8.1797249317169,3,versionC_stim.csv,READVersionC.csv,"Read Version C","Dissertation, read only version C",SARDINE,FISH,Study2,F,130,128,Study,8,8,,Study/JOL,"Study Phase2",8002,,,-1,-1,,,,1
w10110946_nzw,0ze7u8o2ok,Nick_Dissertation_EX1_EP,1,205,2021-12-01T21:52:03+00:00,8.1884028911591,3,versionC_stim.csv,READVersionC.csv,"Read Version C","Dissertation, read only version C",PENGUIN,BIRD,Study2,F,119,117,Study,8,8,,Study/JOL,"Study Phase2",8001,,,-1,-1,,,,1
w10110946_nzw,0ze7u8o2ok,Nick_Dissertation_EX1_EP,1,206,2021-12-01T21:52:11+00:00,8.1923270225525,3,versionC_stim.csv,READVersionC.csv,"Read Version C","Dissertation, read only version C",SHAKE,Shell,Study2,U,163,100,Study,8,8,,Study/JOL,"Study Phase2",8003,,,-1,-1,,,,1
w10110946_nzw,0ze7u8o2ok,Nick_Dissertation_EX1_EP,1,207,2021-12-01T21:52:20+00:00,8.194030046463,3,versionC_stim.csv,READVersionC.csv,"Read Version C","Dissertation, read only version C",TRASH,LITTER,Study2,B,103,139,Study,8,8,,Study/JOL,"Study Phase2",8002,,,-1,-1,,,,1
w10110946_nzw,0ze7u8o2ok,Nick_Dissertation_EX1_EP,1,208,2021-12-01T21:52:28+00:00,8.187609910965,3,versionC_stim.csv,READVersionC.csv,"Read Version C","Dissertation, read only version C",CHILDREN,MIRROR,Study2,U,174,148,Study,8,8,,Study/JOL,"Study Phase2",8001,,,-1,-1,,,,1
w10110946_nzw,0ze7u8o2ok,Nick_Dissertation_EX1_EP,1,209,2021-12-01T21:52:36+00:00,8.1872110366821,3,versionC_stim.csv,READVersionC.csv,"Read Version C","Dissertation, read only version C",SCAR,MAIN,Study2,U,175,175,Study,8,8,,Study/JOL,"Study Phase2",8002,,,-1,-1,,,,1
w10110946_nzw,0ze7u8o2ok,Nick_Dissertation_EX1_EP,1,210,2021-12-01T21:52:44+00:00,8.1860840320587,3,versionC_stim.csv,READVersionC.csv,"Read Version C","Dissertation, read only version C",GAME,CLUE,Study2,B,97,105,Study,8,8,,Study/JOL,"Study Phase2",8002,,,-1,-1,,,,1
w10110946_nzw,0ze7u8o2ok,Nick_Dissertation_EX1_EP,1,211,2021-12-01T21:52:52+00:00,8.1804170608521,3,versionC_stim.csv,READVersionC.csv,"Read Version C","Dissertation, read only version C",SEATBELT,SAFETY,Study2,S,147,116,Study,8,8,,Study/JOL,"Study Phase2",8001,,,-1,-1,,,,1
w10110946_nzw,0ze7u8o2ok,Nick_Dissertation_EX1_EP,1,212,2021-12-01T21:53:00+00:00,8.1795260906219,3,versionC_stim.csv,READVersionC.csv,"Read Version C","Dissertation, read only version C",TEMPER,TANTRUM,Study2,S,154,157,Study,8,8,,Study/JOL,"Study Phase2",8001,,,-1,-1,,,,1
w10110946_nzw,0ze7u8o2ok,Nick_Dissertation_EX1_EP,1,213,2021-12-01T21:53:09+00:00,8.1870520114899,3,versionC_stim.csv,READVersionC.csv,"Read Version C","Dissertation, read only version C",HAVE,OWN,Study2,S,153,104,Study,8,8,,Study/JOL,"Study Phase2",8001,,,-1,-1,,,,1
w10110946_nzw,0ze7u8o2ok,Nick_Dissertation_EX1_EP,1,214,2021-12-01T21:53:17+00:00,8.1844887733459,3,versionC_stim.csv,READVersionC.csv,"Read Version C","Dissertation, read only version C",AIRCRAFT,PLANE,Study2,F,129,126,Study,8,8,,Study/JOL,"Study Phase2",8002,,,-1,-1,,,,1
w10110946_nzw,0ze7u8o2ok,Nick_Dissertation_EX1_EP,1,215,2021-12-01T21:53:25+00:00,8.1870980262756,3,versionC_stim.csv,READVersionC.csv,"Read Version C","Dissertation, read only version C",END,ADJOURN,Study2,B,101,106,Study,8,8,,Study/JOL,"Study Phase2",8002,,,-1,-1,,,,1
w10110946_nzw,0ze7u8o2ok,Nick_Dissertation_EX1_EP,1,216,2021-12-01T21:53:33+00:00,8.1874260902405,3,versionC_stim.csv,READVersionC.csv,"Read Version C","Dissertation, read only version C",SMELL,INCENSE,Study2,B,110,101,Study,8,8,,Study/JOL,"Study Phase2",8001,,,-1,-1,,,,1
w10110946_nzw,0ze7u8o2ok,Nick_Dissertation_EX1_EP,1,217,2021-12-01T21:53:41+00:00,8.1816670894623,3,versionC_stim.csv,READVersionC.csv,"Read Version C","Dissertation, read only version C",WINDSHIELD,CAR,Study2,F,117,151,Study,8,8,,Study/JOL,"Study Phase2",8001,,,-1,-1,,,,1
w10110946_nzw,0ze7u8o2ok,Nick_Dissertation_EX1_EP,1,218,2021-12-01T21:53:50+00:00,8.1908288002014,3,versionC_stim.csv,READVersionC.csv,"Read Version C","Dissertation, read only version C",BALLOON,POP,Study2,F,123,134,Study,8,8,,Study/JOL,"Study Phase2",8001,,,-1,-1,,,,1
w10110946_nzw,0ze7u8o2ok,Nick_Dissertation_EX1_EP,1,219,2021-12-01T21:53:58+00:00,8.1842861175537,3,versionC_stim.csv,READVersionC.csv,"Read Version C","Dissertation, read only version C",FAVORITE,BEST,Study2,F,125,169,Study,8,8,,Study/JOL,"Study Phase2",8001,,,-1,-1,,,,1
w10110946_nzw,0ze7u8o2ok,Nick_Dissertation_EX1_EP,1,220,2021-12-01T21:54:06+00:00,8.629045009613,3,versionC_stim.csv,READVersionC.csv,"Read Version C","Dissertation, read only version C",STRAWBERRY,FRUIT,Study2,F,124,137,Study,8,8,,Study/JOL,"Study Phase2",8446,,,-1,-1,,,,0.974
w10110946_nzw,0ze7u8o2ok,Nick_Dissertation_EX1_EP,1,221,2021-12-01T21:54:15+00:00,8.2189030647278,3,versionC_stim.csv,READVersionC.csv,"Read Version C","Dissertation, read only version C",NOISE,LOUD,Study2,S,152,119,Study,8,8,,Study/JOL,"Study Phase2",8009,,,-1,-1,,,,0.974
w10110946_nzw,0ze7u8o2ok,Nick_Dissertation_EX1_EP,1,222,2021-12-01T21:54:23+00:00,8.5876019001007,3,versionC_stim.csv,READVersionC.csv,"Read Version C","Dissertation, read only version C",THIMBLE,THREAD,Study2,F,121,168,Study,8,8,,Study/JOL,"Study Phase2",8002,,,-1,-1,,,,1
w10110946_nzw,0ze7u8o2ok,Nick_Dissertation_EX1_EP,1,223,2021-12-01T21:54:31+00:00,8.1917080879211,3,versionC_stim.csv,READVersionC.csv,"Read Version C","Dissertation, read only version C",BANKER,MONEY,Study2,F,132,147,Study,8,8,,Study/JOL,"Study Phase2",8003,,,-1,-1,,,,1
w10110946_nzw,0ze7u8o2ok,Nick_Dissertation_EX1_EP,1,224,2021-12-01T21:54:40+00:00,8.1921789646149,3,versionC_stim.csv,READVersionC.csv,"Read Version C","Dissertation, read only version C",STEAK,GIVE,Study2,U,158,144,Study,8,8,,Study/JOL,"Study Phase2",8003,,,-1,-1,,,,1
w10110946_nzw,0ze7u8o2ok,Nick_Dissertation_EX1_EP,1,225,2021-12-01T21:54:48+00:00,8.1809539794922,3,versionC_stim.csv,READVersionC.csv,"Read Version C","Dissertation, read only version C",TRUTHFUL,HONEST,Study2,F,133,146,Study,8,8,,Study/JOL,"Study Phase2",8003,,,-1,-1,,,,1
w10110946_nzw,0ze7u8o2ok,Nick_Dissertation_EX1_EP,1,226,2021-12-01T21:54:56+00:00,8.1793348789215,3,versionC_stim.csv,READVersionC.csv,"Read Version C","Dissertation, read only version C",REVENGE,EVEN,Study2,F,122,143,Study,8,8,,Study/JOL,"Study Phase2",8001,,,-1,-1,,,,1
w10110946_nzw,0ze7u8o2ok,Nick_Dissertation_EX1_EP,1,227,2021-12-01T21:55:04+00:00,8.1789650917053,3,versionC_stim.csv,READVersionC.csv,"Read Version C","Dissertation, read only version C",FLIP,TURN,Study2,F,116,124,Study,8,8,,Study/JOL,"Study Phase2",8001,,,-1,-1,,,,1
w10110946_nzw,0ze7u8o2ok,Nick_Dissertation_EX1_EP,1,228,2021-12-01T21:55:12+00:00,8.1800920963287,3,versionC_stim.csv,READVersionC.csv,"Read Version C","Dissertation, read only version C",DRINK,WATER,Study2,S,143,122,Study,8,8,,Study/JOL,"Study Phase2",8003,,,-1,-1,,,,1
w10110946_nzw,0ze7u8o2ok,Nick_Dissertation_EX1_EP,1,229,2021-12-01T21:55:20+00:00,8.1865420341492,3,versionC_stim.csv,READVersionC.csv,"Read Version C","Dissertation, read only version C",FICTION,LISTEN,Study2,U,164,108,Study,8,8,,Study/JOL,"Study Phase2",8001,,,-1,-1,,,,1
w10110946_nzw,0ze7u8o2ok,Nick_Dissertation_EX1_EP,1,230,2021-12-01T21:55:29+00:00,8.182737827301,3,versionC_stim.csv,READVersionC.csv,"Read Version C","Dissertation, read only version C",COLD,CHILL,Study2,B,114,156,Study,8,8,,Study/JOL,"Study Phase2",8002,,,-1,-1,,,,1
w10110946_nzw,0ze7u8o2ok,Nick_Dissertation_EX1_EP,1,231,2021-12-01T21:55:37+00:00,8.1870019435883,3,versionC_stim.csv,READVersionC.csv,"Read Version C","Dissertation, read only version C",TICK,FLEA,Study2,S,151,159,Study,8,8,,Study/JOL,"Study Phase2",8001,,,-1,-1,,,,1
w10110946_nzw,0ze7u8o2ok,Nick_Dissertation_EX1_EP,1,232,2021-12-01T21:55:45+00:00,8.1865661144257,3,versionC_stim.csv,READVersionC.csv,"Read Version C","Dissertation, read only version C",TAN,SUN,Study2,S,155,97,Study,8,8,,Study/JOL,"Study Phase2",8002,,,-1,-1,,,,1
w10110946_nzw,0ze7u8o2ok,Nick_Dissertation_EX1_EP,1,233,2021-12-01T21:55:53+00:00,8.185005903244,3,versionC_stim.csv,READVersionC.csv,"Read Version C","Dissertation, read only version C",VILLAIN,BAD,Study2,F,118,127,Study,8,8,,Study/JOL,"Study Phase2",8002,,,-1,-1,,,,1
w10110946_nzw,0ze7u8o2ok,Nick_Dissertation_EX1_EP,1,234,2021-12-01T21:56:01+00:00,8.1821260452271,3,versionC_stim.csv,READVersionC.csv,"Read Version C","Dissertation, read only version C",GROUND,EARTH,Study2,S,144,174,Study,8,8,,Study/JOL,"Study Phase2",8001,,,-1,-1,,,,0.941
w10110946_nzw,0ze7u8o2ok,Nick_Dissertation_EX1_EP,1,235,2021-12-01T21:56:10+00:00,8.1913371086121,3,versionC_stim.csv,READVersionC.csv,"Read Version C","Dissertation, read only version C",OUNCE,BOTH,Study2,U,172,112,Study,8,8,,Study/JOL,"Study Phase2",8002,,,-1,-1,,,,1
w10110946_nzw,0ze7u8o2ok,Nick_Dissertation_EX1_EP,1,236,2021-12-01T21:56:18+00:00,8.1875698566437,3,versionC_stim.csv,READVersionC.csv,"Read Version C","Dissertation, read only version C",WET,DRY,Study2,S,146,132,Study,8,8,,Study/JOL,"Study Phase2",8001,,,-1,-1,,,,1
w10110946_nzw,0ze7u8o2ok,Nick_Dissertation_EX1_EP,1,237,2021-12-01T21:56:26+00:00,8.1941211223602,3,versionC_stim.csv,READVersionC.csv,"Read Version C","Dissertation, read only version C",LOVE,AFFECTION,Study2,B,115,118,Study,8,8,,Study/JOL,"Study Phase2",8002,,,-1,-1,,,,1
w10110946_nzw,0ze7u8o2ok,Nick_Dissertation_EX1_EP,1,238,2021-12-01T21:56:34+00:00,8.1849629878998,3,versionC_stim.csv,READVersionC.csv,"Read Version C","Dissertation, read only version C",CLOTH,STRETCH,Study2,U,157,161,Study,8,8,,Study/JOL,"Study Phase2",8002,,,-1,-1,,,,1
w10110946_nzw,0ze7u8o2ok,Nick_Dissertation_EX1_EP,1,239,2021-12-01T21:56:42+00:00,8.1938080787659,3,versionC_stim.csv,READVersionC.csv,"Read Version C","Dissertation, read only version C",LIE,TRUTH,Study2,S,148,131,Study,8,8,,Study/JOL,"Study Phase2",8001,,,-1,-1,,,,1
w10110946_nzw,0ze7u8o2ok,Nick_Dissertation_EX1_EP,1,240,2021-12-01T21:56:51+00:00,8.1988999843597,3,versionC_stim.csv,READVersionC.csv,"Read Version C","Dissertation, read only version C",ABLE,CRACKLE,Study2,U,162,158,Study,8,8,,Study/JOL,"Study Phase2",8002,,,-1,-1,,,,1
w10110946_nzw,0ze7u8o2ok,Nick_Dissertation_EX1_EP,1,241,2021-12-01T21:56:59+00:00,8.1848378181458,3,versionC_stim.csv,READVersionC.csv,"Read Version C","Dissertation, read only version C",BRACELET,WRIST,Study2,S,140,120,Study,8,8,,Study/JOL,"Study Phase2",8002,,,-1,-1,,,,1
w10110946_nzw,0ze7u8o2ok,Nick_Dissertation_EX1_EP,1,242,2021-12-01T21:57:07+00:00,8.18772315979,3,versionC_stim.csv,READVersionC.csv,"Read Version C","Dissertation, read only version C",SIGN,LOAN,Study2,U,171,145,Study,8,8,,Study/JOL,"Study Phase2",8003,,,-1,-1,,,,1
w10110946_nzw,0ze7u8o2ok,Nick_Dissertation_EX1_EP,1,243,2021-12-01T21:57:15+00:00,8.1965129375458,3,versionC_stim.csv,READVersionC.csv,"Read Version C","Dissertation, read only version C",CARBON,ELEMENT,Study2,S,141,130,Study,8,8,,Study/JOL,"Study Phase2",8004,,,-1,-1,,,,1
w10110946_nzw,0ze7u8o2ok,Nick_Dissertation_EX1_EP,1,244,2021-12-01T21:57:23+00:00,8.1938409805298,3,versionC_stim.csv,READVersionC.csv,"Read Version C","Dissertation, read only version C",HEAD,SCALP,Study2,B,105,103,Study,8,8,,Study/JOL,"Study Phase2",8001,,,-1,-1,,,,1
w10110946_nzw,0ze7u8o2ok,Nick_Dissertation_EX1_EP,1,245,2021-12-01T21:57:32+00:00,8.1983029842377,3,versionC_stim.csv,READVersionC.csv,"Read Version C","Dissertation, read only version C",Morning,TEMPERATURE,Study2,U,173,141,Study,8,8,,Study/JOL,"Study Phase2",8002,,,-1,-1,,,,1
w10110946_nzw,0ze7u8o2ok,Nick_Dissertation_EX1_EP,1,246,2021-12-01T21:57:40+00:00,8.1895000934601,3,versionC_stim.csv,READVersionC.csv,"Read Version C","Dissertation, read only version C",HATE,NAME,Study2,U,167,163,Study,8,8,,Study/JOL,"Study Phase2",8001,,,-1,-1,,,,1
w10110946_nzw,0ze7u8o2ok,Nick_Dissertation_EX1_EP,1,247,2021-12-01T21:57:48+00:00,8.1930339336395,3,versionC_stim.csv,READVersionC.csv,"Read Version C","Dissertation, read only version C",EQUAL,RIGHTS,Study2,S,137,176,Study,8,8,,Study/JOL,"Study Phase2",8001,,,-1,-1,,,,1
w10110946_nzw,0ze7u8o2ok,Nick_Dissertation_EX1_EP,1,248,2021-12-01T21:57:56+00:00,8.1894710063934,3,versionC_stim.csv,READVersionC.csv,"Read Version C","Dissertation, read only version C",CLOTHES,CAKE,Study2,U,166,155,Study,8,8,,Study/JOL,"Study Phase2",8003,,,-1,-1,,,,1
w10110946_nzw,0ze7u8o2ok,Nick_Dissertation_EX1_EP,1,249,2021-12-01T21:58:04+00:00,8.1882109642029,3,versionC_stim.csv,READVersionC.csv,"Read Version C","Dissertation, read only version C",MYSTERY,DETECTIVE,Study2,B,100,102,Study,8,8,,Study/JOL,"Study Phase2",8001,,,-1,-1,,,,1
w10110946_nzw,0ze7u8o2ok,Nick_Dissertation_EX1_EP,1,250,2021-12-01T21:58:12+00:00,8.1821219921112,3,versionC_stim.csv,READVersionC.csv,"Read Version C","Dissertation, read only version C",JOKE,KEYS,Study2,U,165,107,Study,8,8,,Study/JOL,"Study Phase2",8001,,,-1,-1,,,,1
w10110946_nzw,0ze7u8o2ok,Nick_Dissertation_EX1_EP,1,251,2021-12-01T21:58:21+00:00,8.1927621364594,3,versionC_stim.csv,READVersionC.csv,"Read Version C","Dissertation, read only version C",DOG,FURRY,Study2,B,102,138,Study,8,8,,Study/JOL,"Study Phase2",8004,,,-1,-1,,,,1
w10110946_nzw,0ze7u8o2ok,Nick_Dissertation_EX1_EP,1,252,2021-12-01T21:58:29+00:00,8.2269468307495,3,versionC_stim.csv,READVersionC.csv,"Read Version C","Dissertation, read only version C",SCISSORS,SHEARS,Study2,B,112,166,Study,8,8,,Study/JOL,"Study Phase2",8001,,,-1,-1,,,,1
w10110946_nzw,0ze7u8o2ok,Nick_Dissertation_EX1_EP,1,253,2021-12-01T21:58:37+00:00,8.1853370666504,3,versionC_stim.csv,READVersionC.csv,"Read Version C","Dissertation, read only version C",AWAY,GONE,Study2,S,142,170,Study,8,8,,Study/JOL,"Study Phase2",8001,,,-1,-1,,,,1
w10110946_nzw,0ze7u8o2ok,Nick_Dissertation_EX1_EP,1,254,2021-12-01T21:58:45+00:00,8.2044169902802,3,versionC_stim.csv,READVersionC.csv,"Read Version C","Dissertation, read only version C",ELECTION,MAZE,Study2,U,159,167,Study,8,8,,Study/JOL,"Study Phase2",8002,,,-1,-1,,,,1
w10110946_nzw,0ze7u8o2ok,Nick_Dissertation_EX1_EP,1,255,2021-12-01T21:58:53+00:00,8.1879689693451,3,versionC_stim.csv,READVersionC.csv,"Read Version C","Dissertation, read only version C",PAPER,DOCUMENT,Study2,B,109,125,Study,8,8,,Study/JOL,"Study Phase2",8001,,,-1,-1,,,,1
w10110946_nzw,0ze7u8o2ok,Nick_Dissertation_EX1_EP,1,256,2021-12-01T21:59:02+00:00,8.1889791488647,3,versionC_stim.csv,READVersionC.csv,"Read Version C","Dissertation, read only version C",JAR,MASON,Study2,S,138,109,Study,8,8,,Study/JOL,"Study Phase2",8002,,,-1,-1,,,,1
w10110946_nzw,0ze7u8o2ok,Nick_Dissertation_EX1_EP,1,257,2021-12-01T21:59:10+00:00,8.1883568763733,3,versionC_stim.csv,READVersionC.csv,"Read Version C","Dissertation, read only version C",BRAWL,FIGHT,Study2,F,135,115,Study,8,8,,Study/JOL,"Study Phase2",8002,,,-1,-1,,,,1
w10110946_nzw,0ze7u8o2ok,Nick_Dissertation_EX1_EP,1,258,2021-12-01T21:59:18+00:00,8.1832931041718,3,versionC_stim.csv,READVersionC.csv,"Read Version C","Dissertation, read only version C",TIE,SHOELACE,Study2,B,99,114,Study,8,8,,Study/JOL,"Study Phase2",8001,,,-1,-1,,,,1
w10110946_nzw,0ze7u8o2ok,Nick_Dissertation_EX1_EP,1,259,2021-12-01T21:59:26+00:00,8.1803488731384,3,versionC_stim.csv,READVersionC.csv,"Read Version C","Dissertation, read only version C",PANTHER,CAT,Study2,F,126,173,Study,8,8,,Study/JOL,"Study Phase2",8002,,,-1,-1,,,,1
w10110946_nzw,0ze7u8o2ok,Nick_Dissertation_EX1_EP,1,260,2021-12-01T21:59:34+00:00,8.1916599273682,3,versionC_stim.csv,READVersionC.csv,"Read Version C","Dissertation, read only version C",CUT,CHOP,Study2,B,107,165,Study,8,8,,Study/JOL,"Study Phase2",8002,,,-1,-1,,,,1
w10110946_nzw,0ze7u8o2ok,Nick_Dissertation_EX1_EP,1,261,2021-12-01T21:59:43+00:00,8.1965091228485,3,versionC_stim.csv,READVersionC.csv,"Read Version C","Dissertation, read only version C",REEL,ROD,Study2,S,150,135,Study,8,8,,Study/JOL,"Study Phase2",8002,,,-1,-1,,,,1
w10110946_nzw,0ze7u8o2ok,Nick_Dissertation_EX1_EP,1,262,2021-12-01T21:59:51+00:00,8.1973569393158,3,versionC_stim.csv,READVersionC.csv,"Read Version C","Dissertation, read only version C",SHAVE,RAZOR,Study2,S,136,160,Study,8,8,,Study/JOL,"Study Phase2",8001,,,-1,-1,,,,0.893
w10110946_nzw,0ze7u8o2ok,Nick_Dissertation_EX1_EP,1,263,2021-12-01T21:59:59+00:00,8.1933851242065,3,versionC_stim.csv,READVersionC.csv,"Read Version C","Dissertation, read only version C",WAX,CANDLE,Study2,S,139,123,Study,8,8,,Study/JOL,"Study Phase2",8002,,,-1,-1,,,,1
w10110946_nzw,0ze7u8o2ok,Nick_Dissertation_EX1_EP,1,264,2021-12-01T22:00:07+00:00,8.1947898864746,3,versionC_stim.csv,READVersionC.csv,"Read Version C","Dissertation, read only version C",MARCH,SPRING,BUFFER4,Buffer,179,181,Study,8,8,,Study/JOL,BUFFER4,8001,,,-1,-1,,,,1
w10110946_nzw,0ze7u8o2ok,Nick_Dissertation_EX1_EP,1,265,2021-12-01T22:00:15+00:00,8.1986739635468,3,versionC_stim.csv,READVersionC.csv,"Read Version C","Dissertation, read only version C",SPOOKY,OCTOBER,BUFFER4,Buffer,180,178,Study,8,8,,Study/JOL,BUFFER4,8002,,,-1,-1,,,,1
w10110946_nzw,0ze7u8o2ok,Nick_Dissertation_EX1_EP,1,266,2021-12-01T22:00:24+00:00,8.1872901916504,3,versionC_stim.csv,READVersionC.csv,"Read Version C","Dissertation, read only version C",WEAKS,DAYS,BUFFER4,Buffer,176,180,Study,8,8,,Study/JOL,BUFFER4,8001,,,-1,-1,,,,1
w10110946_nzw,0ze7u8o2ok,Nick_Dissertation_EX1_EP,1,267,2021-12-01T22:00:32+00:00,8.1906089782715,3,versionC_stim.csv,READVersionC.csv,"Read Version C","Dissertation, read only version C",SHED,TOOL,BUFFER4,Buffer,178,179,Study,8,8,,Study/JOL,BUFFER4,8002,,,-1,-1,,,,1
w10110946_nzw,0ze7u8o2ok,Nick_Dissertation_EX1_EP,1,268,2021-12-01T22:00:40+00:00,8.1949808597565,3,versionC_stim.csv,READVersionC.csv,"Read Version C","Dissertation, read only version C",YEAR,MONTH,BUFFER4,Buffer,177,177,Study,8,8,,Study/JOL,BUFFER4,8002,,,-1,-1,,,,1
w10110946_nzw,0ze7u8o2ok,Nick_Dissertation_EX1_EP,1,269,2021-12-01T22:00:44+00:00,3.7861621379852,3,versionC_stim.csv,READVersionC.csv,"Read Version C","Dissertation, read only version C",,,,,,0,Instruct,User,-,"You have completed this section. Please press Enter.",Filler_Instruction,Instruct5,3595,,,-1,-1,,,,1
w10110946_nzw,0ze7u8o2ok,Nick_Dissertation_EX1_EP,1,270,2021-12-01T22:02:44+00:00,120.27125501633,3,versionC_stim.csv,READVersionC.csv,"Read Version C","Dissertation, read only version C",,,,,,0,FreeRecall,120,120,"Please list the 50 US states in reverse alphabetical order (z - a). The task will automatically advance to the next screen after two minutes.",,Filler2,120001,"alabama, alaska, arkansas, arizona, california, colorado, connecticut, delaware, ",0,3081,91868,0,0,,1
w10110946_nzw,0ze7u8o2ok,Nick_Dissertation_EX1_EP,1,271,2021-12-01T22:03:09+00:00,24.895044803619,3,versionC_stim.csv,READVersionC.csv,"Read Version C","Dissertation, read only version C",,,,,,0,Instruct,-,10,"You will now be presented with the first word from each of the previously studied item pairs. Please type the missing word. If you do not know the word, you may guess or press Enter to skip forward to the next pair.",,Instruct6,24703,,,-1,-1,,,,1
w10110946_nzw,0ze7u8o2ok,Nick_Dissertation_EX1_EP,1,272,2021-12-01T22:04:02+00:00,53.463798999786,3,versionC_stim.csv,READVersionC.csv,"Read Version C","Dissertation, read only version C",PAPER,DOCUMENT,Study2,B,109,125,Test,User,-,,Recall,Recall2,53266,document,100,51222,52638,1,1,,1
w10110946_nzw,0ze7u8o2ok,Nick_Dissertation_EX1_EP,1,273,2021-12-01T22:04:40+00:00,37.439091205597,3,versionC_stim.csv,READVersionC.csv,"Read Version C","Dissertation, read only version C",THIMBLE,THREAD,Study2,F,121,168,Test,User,-,,Recall,Recall2,37242,thread,100,33773,35168,1,1,,1
w10110946_nzw,0ze7u8o2ok,Nick_Dissertation_EX1_EP,1,274,2021-12-01T22:04:59+00:00,19.408800840378,3,versionC_stim.csv,READVersionC.csv,"Read Version C","Dissertation, read only version C",PENGUIN,BIRD,Study2,F,119,117,Test,User,-,,Recall,Recall2,19227,BIRD,100,17396,18457,1,1,,0.907
w10110946_nzw,0ze7u8o2ok,Nick_Dissertation_EX1_EP,1,275,2021-12-01T22:05:50+00:00,50.778283119202,3,versionC_stim.csv,READVersionC.csv,"Read Version C","Dissertation, read only version C",GAME,CLUE,Study2,B,97,105,Test,User,-,,Recall,Recall2,50586,,0,-1,-1,0,0,,1
w10110946_nzw,0ze7u8o2ok,Nick_Dissertation_EX1_EP,1,276,2021-12-01T22:06:25+00:00,35.33083486557,3,versionC_stim.csv,READVersionC.csv,"Read Version C","Dissertation, read only version C",SHAKE,Shell,Study2,U,163,100,Test,User,-,,Recall,Recall2,35059,shell,100,33578,34408,1,1,,1
w10110946_nzw,0ze7u8o2ok,Nick_Dissertation_EX1_EP,1,277,2021-12-01T22:07:03+00:00,37.35162115097,3,versionC_stim.csv,READVersionC.csv,"Read Version C","Dissertation, read only version C",CLOTH,STRETCH,Study2,U,157,161,Test,User,-,,Recall,Recall2,37166,STRETCH,100,28011,34096,1,1,,1
w10110946_nzw,0ze7u8o2ok,Nick_Dissertation_EX1_EP,1,278,2021-12-01T22:07:56+00:00,53.137427806854,3,versionC_stim.csv,READVersionC.csv,"Read Version C","Dissertation, read only version C",LONG,EXTENSION,Study2,B,96,171,Test,User,-,,Recall,Recall2,52947,SHORT,28.571428571429,50153,52659,0,0,,1
w10110946_nzw,0ze7u8o2ok,Nick_Dissertation_EX1_EP,1,279,2021-12-01T22:08:46+00:00,49.794743061066,3,versionC_stim.csv,READVersionC.csv,"Read Version C","Dissertation, read only version C",PLANT,CACTUS,Study2,B,98,164,Test,User,-,,Recall,Recall2,49596,CACTUS,100,47312,48724,1,1,,1
w10110946_nzw,0ze7u8o2ok,Nick_Dissertation_EX1_EP,1,280,2021-12-01T22:09:04+00:00,18.317882061005,3,versionC_stim.csv,READVersionC.csv,"Read Version C","Dissertation, read only version C",CLEAR,MOAT,Study2,U,169,172,Test,User,-,,Recall,Recall2,18114,MOAT,100,16387,17493,1,1,,1
w10110946_nzw,0ze7u8o2ok,Nick_Dissertation_EX1_EP,1,281,2021-12-01T22:09:37+00:00,33.185047864914,3,versionC_stim.csv,READVersionC.csv,"Read Version C","Dissertation, read only version C",SMELL,INCENSE,Study2,B,110,101,Test,User,-,,Recall,Recall2,32955,INCENSE,100,29834,31163,1,1,,1
w10110946_nzw,0ze7u8o2ok,Nick_Dissertation_EX1_EP,1,282,2021-12-01T22:09:56+00:00,19.116931200027,3,versionC_stim.csv,READVersionC.csv,"Read Version C","Dissertation, read only version C",AWAY,GONE,Study2,S,142,170,Test,User,-,,Recall,Recall2,18909,GONE,100,17320,18615,1,1,,1
w10110946_nzw,0ze7u8o2ok,Nick_Dissertation_EX1_EP,1,283,2021-12-01T22:10:13+00:00,17.114288806915,3,versionC_stim.csv,READVersionC.csv,"Read Version C","Dissertation, read only version C",LIE,TRUTH,Study2,S,148,131,Test,User,-,,Recall,Recall2,16928,TRUTH,100,15784,16614,1,1,,1
w10110946_nzw,0ze7u8o2ok,Nick_Dissertation_EX1_EP,1,284,2021-12-01T22:11:07+00:00,53.982013225555,3,versionC_stim.csv,READVersionC.csv,"Read Version C","Dissertation, read only version C",WAX,CANDLE,Study2,S,139,123,Test,User,-,,Recall,Recall2,53793,CANDLE,100,51643,53558,1,1,,1
w10110946_nzw,0ze7u8o2ok,Nick_Dissertation_EX1_EP,1,285,2021-12-01T22:11:19+00:00,11.185823917389,3,versionC_stim.csv,READVersionC.csv,"Read Version C","Dissertation, read only version C",JAR,MASON,Study2,S,138,109,Test,User,-,,Recall,Recall2,10991,MASON,100,9883,10681,1,1,,1
w10110946_nzw,0ze7u8o2ok,Nick_Dissertation_EX1_EP,1,286,2021-12-01T22:11:37+00:00,18.355031013489,3,versionC_stim.csv,READVersionC.csv,"Read Version C","Dissertation, read only version C",AIRCRAFT,PLANE,Study2,F,129,126,Test,User,-,,Recall,Recall2,18172,PLANE,100,16691,17900,1,1,,1
w10110946_nzw,0ze7u8o2ok,Nick_Dissertation_EX1_EP,1,287,2021-12-01T22:11:58+00:00,20.753268957138,3,versionC_stim.csv,READVersionC.csv,"Read Version C","Dissertation, read only version C",FLIP,TURN,Study2,F,116,124,Test,User,-,,Recall,Recall2,20561,TURN,100,19360,19775,1,1,,1
w10110946_nzw,0ze7u8o2ok,Nick_Dissertation_EX1_EP,1,288,2021-12-01T22:12:17+00:00,19.173892021179,3,versionC_stim.csv,READVersionC.csv,"Read Version C","Dissertation, read only version C",JOKE,KEYS,Study2,U,165,107,Test,User,-,,Recall,Recall2,18979,KEYS,100,18186,18754,1,1,,1
w10110946_nzw,0ze7u8o2ok,Nick_Dissertation_EX1_EP,1,289,2021-12-01T22:12:55+00:00,38.105794906616,3,versionC_stim.csv,READVersionC.csv,"Read Version C","Dissertation, read only version C",CAR,DRIVER,Study2,B,106,121,Test,User,-,,Recall,Recall2,37910,WINDSHIELD,25,32943,37126,0,0,,1
w10110946_nzw,0ze7u8o2ok,Nick_Dissertation_EX1_EP,1,290,2021-12-01T22:13:36+00:00,41.121104955673,3,versionC_stim.csv,READVersionC.csv,"Read Version C","Dissertation, read only version C",ABLE,CRACKLE,Study2,U,162,158,Test,User,-,,Recall,Recall2,40931,CRACKLE,100,38813,40507,1,1,,1
w10110946_nzw,0ze7u8o2ok,Nick_Dissertation_EX1_EP,1,291,2021-12-01T22:13:59+00:00,23.131763219833,3,versionC_stim.csv,READVersionC.csv,"Read Version C","Dissertation, read only version C",FAVORITE,BEST,Study2,F,125,169,Test,User,-,,Recall,Recall2,22934,BEST,100,21734,22378,1,1,,1
w10110946_nzw,0ze7u8o2ok,Nick_Dissertation_EX1_EP,1,292,2021-12-01T22:14:03+00:00,3.8272199630737,3,versionC_stim.csv,READVersionC.csv,"Read Version C","Dissertation, read only version C",NOISE,LOUD,Study2,S,152,119,Test,User,-,,Recall,Recall2,3636,LOUD,100,2686,3375,1,1,,1
w10110946_nzw,0ze7u8o2ok,Nick_Dissertation_EX1_EP,1,293,2021-12-01T22:14:49+00:00,45.651885032654,3,versionC_stim.csv,READVersionC.csv,"Read Version C","Dissertation, read only version C",WET,DRY,Study2,S,146,132,Test,User,-,,Recall,Recall2,45471,WATER,25,44354,45249,0,0,,0.956
w10110946_nzw,0ze7u8o2ok,Nick_Dissertation_EX1_EP,1,294,2021-12-01T22:14:53+00:00,4.4364488124847,3,versionC_stim.csv,READVersionC.csv,"Read Version C","Dissertation, read only version C",LOVE,AFFECTION,Study2,B,115,118,Test,User,-,,Recall,Recall2,4250,AFFECTION,100,1565,3860,1,1,,1
w10110946_nzw,0ze7u8o2ok,Nick_Dissertation_EX1_EP,1,295,2021-12-01T22:15:35+00:00,41.724174976349,3,versionC_stim.csv,READVersionC.csv,"Read Version C","Dissertation, read only version C",END,ADJOURN,Study2,B,101,106,Test,User,-,,Recall,Recall2,41532,ADJOURN,100,36269,39753,1,1,,1
w10110946_nzw,0ze7u8o2ok,Nick_Dissertation_EX1_EP,1,296,2021-12-01T22:15:54+00:00,19.159285068512,3,versionC_stim.csv,READVersionC.csv,"Read Version C","Dissertation, read only version C",REVENGE,EVEN,Study2,F,122,143,Test,User,-,,Recall,Recall2,18963,EVEN,100,17322,18150,1,1,,1
w10110946_nzw,0ze7u8o2ok,Nick_Dissertation_EX1_EP,1,297,2021-12-01T22:16:06+00:00,11.759793996811,3,versionC_stim.csv,READVersionC.csv,"Read Version C","Dissertation, read only version C",VILLAIN,BAD,Study2,F,118,127,Test,User,-,,Recall,Recall2,11567,BAD,100,9978,10916,1,1,,1
w10110946_nzw,0ze7u8o2ok,Nick_Dissertation_EX1_EP,1,298,2021-12-01T22:17:06+00:00,60.383962154388,3,versionC_stim.csv,READVersionC.csv,"Read Version C","Dissertation, read only version C",BANG,FUZZY,Study2,U,168,153,Test,User,-,,Recall,Recall2,60003,FUZZY,100,57490,59491,1,1,,1
w10110946_nzw,0ze7u8o2ok,Nick_Dissertation_EX1_EP,1,299,2021-12-01T22:17:52+00:00,46.305342912674,3,versionC_stim.csv,READVersionC.csv,"Read Version C","Dissertation, read only version C",MYSTERY,DETECTIVE,Study2,B,100,102,Test,User,-,,Recall,Recall2,46110,DETECTIVE,100,44084,45915,1,1,,1
w10110946_nzw,0ze7u8o2ok,Nick_Dissertation_EX1_EP,1,300,2021-12-01T22:18:00+00:00,7.2465150356293,3,versionC_stim.csv,READVersionC.csv,"Read Version C","Dissertation, read only version C",DOG,FURRY,Study2,B,102,138,Test,User,-,,Recall,Recall2,7048,FURRY,100,6172,6750,1,1,,1
w10110946_nzw,0ze7u8o2ok,Nick_Dissertation_EX1_EP,1,301,2021-12-01T22:18:11+00:00,11.696521043777,3,versionC_stim.csv,READVersionC.csv,"Read Version C","Dissertation, read only version C",SARDINE,FISH,Study2,F,130,128,Test,User,-,,Recall,Recall2,11519,FISH,100,10776,11183,1,1,,1
w10110946_nzw,0ze7u8o2ok,Nick_Dissertation_EX1_EP,1,302,2021-12-01T22:18:39+00:00,27.227386951447,3,versionC_stim.csv,READVersionC.csv,"Read Version C","Dissertation, read only version C",SEATBELT,SAFETY,Study2,S,147,116,Test,User,-,,Recall,Recall2,27041,SAFETY,100,25586,26557,1,1,,1
w10110946_nzw,0ze7u8o2ok,Nick_Dissertation_EX1_EP,1,303,2021-12-01T22:18:46+00:00,7.2550508975983,3,versionC_stim.csv,READVersionC.csv,"Read Version C","Dissertation, read only version C",Morning,TEMPERATURE,Study2,U,173,141,Test,User,-,,Recall,Recall2,7061,TEMPERATURE,100,4382,6386,1,1,,1
w10110946_nzw,0ze7u8o2ok,Nick_Dissertation_EX1_EP,1,304,2021-12-01T22:19:10+00:00,24.217604160309,3,versionC_stim.csv,READVersionC.csv,"Read Version C","Dissertation, read only version C",GROUND,EARTH,Study2,S,144,174,Test,User,-,,Recall,Recall2,24023,EARTH,100,22705,23575,1,1,,1
w10110946_nzw,0ze7u8o2ok,Nick_Dissertation_EX1_EP,1,305,2021-12-01T22:19:36+00:00,26.3113758564,3,versionC_stim.csv,READVersionC.csv,"Read Version C","Dissertation, read only version C",STRAWBERRY,FRUIT,Study2,F,124,137,Test,User,-,,Recall,Recall2,26117,FRUIT,100,24955,25862,1,1,,1
w10110946_nzw,0ze7u8o2ok,Nick_Dissertation_EX1_EP,1,306,2021-12-01T22:19:57+00:00,20.510442972183,3,versionC_stim.csv,READVersionC.csv,"Read Version C","Dissertation, read only version C",ACTRESS,STAR,Study2,F,120,162,Test,User,-,,Recall,Recall2,20318,STAR,100,19370,19763,1,1,,1
w10110946_nzw,0ze7u8o2ok,Nick_Dissertation_EX1_EP,1,307,2021-12-01T22:20:05+00:00,8.0449659824371,3,versionC_stim.csv,READVersionC.csv,"Read Version C","Dissertation, read only version C",EAT,DINE,Study2,B,111,133,Test,User,-,,Recall,Recall2,7852,DINE,100,7119,7542,1,1,,1
w10110946_nzw,0ze7u8o2ok,Nick_Dissertation_EX1_EP,1,308,2021-12-01T22:20:42+00:00,37.502577066422,3,versionC_stim.csv,READVersionC.csv,"Read Version C","Dissertation, read only version C",ELECTION,MAZE,Study2,U,159,167,Test,User,-,,Recall,Recall2,37315,MAZE,100,36382,37070,1,1,,1
w10110946_nzw,0ze7u8o2ok,Nick_Dissertation_EX1_EP,1,309,2021-12-01T22:20:59+00:00,16.803118944168,3,versionC_stim.csv,READVersionC.csv,"Read Version C","Dissertation, read only version C",HEAD,SCALP,Study2,B,105,103,Test,User,-,,Recall,Recall2,16610,SCALP,100,14666,15758,1,1,,1
w10110946_nzw,0ze7u8o2ok,Nick_Dissertation_EX1_EP,1,310,2021-12-01T22:21:19+00:00,19.301754951477,3,versionC_stim.csv,READVersionC.csv,"Read Version C","Dissertation, read only version C",COMMUNICATION,PHONE,Study2,S,149,98,Test,User,-,,Recall,Recall2,19118,PHONE,100,17773,18797,1,1,,1
w10110946_nzw,0ze7u8o2ok,Nick_Dissertation_EX1_EP,1,311,2021-12-01T22:21:46+00:00,27.276285171509,3,versionC_stim.csv,READVersionC.csv,"Read Version C","Dissertation, read only version C",HATE,NAME,Study2,U,167,163,Test,User,-,,Recall,Recall2,27094,NAME,100,24936,26726,1,1,,1
w10110946_nzw,0ze7u8o2ok,Nick_Dissertation_EX1_EP,1,312,2021-12-01T22:22:00+00:00,14.287104845047,3,versionC_stim.csv,READVersionC.csv,"Read Version C","Dissertation, read only version C",OBTAIN,MEAT,Study2,U,161,154,Test,User,-,,Recall,Recall2,14089,RULES,22.222222222222,12873,13907,0,0,,1
w10110946_nzw,0ze7u8o2ok,Nick_Dissertation_EX1_EP,1,313,2021-12-01T22:22:48+00:00,47.485958099365,3,versionC_stim.csv,READVersionC.csv,"Read Version C","Dissertation, read only version C",CLOTHES,CAKE,Study2,U,166,155,Test,User,-,,Recall,Recall2,47295,CAKE,100,46465,46972,1,1,,1
w10110946_nzw,0ze7u8o2ok,Nick_Dissertation_EX1_EP,1,314,2021-12-01T22:23:00+00:00,12.153923034668,3,versionC_stim.csv,READVersionC.csv,"Read Version C","Dissertation, read only version C",LEAGUE,BASEBALL,Study2,F,131,110,Test,User,-,,Recall,Recall2,11957,BASEBALL,100,9903,11336,1,1,,1
w10110946_nzw,0ze7u8o2ok,Nick_Dissertation_EX1_EP,1,315,2021-12-01T22:23:03+00:00,3.2451589107513,3,versionC_stim.csv,READVersionC.csv,"Read Version C","Dissertation, read only version C",EQUAL,RIGHTS,Study2,S,137,176,Test,User,-,,Recall,Recall2,3059,RIGHTS,100,1883,2805,1,1,,1
w10110946_nzw,0ze7u8o2ok,Nick_Dissertation_EX1_EP,1,316,2021-12-01T22:23:35+00:00,32.501343011856,3,versionC_stim.csv,READVersionC.csv,"Read Version C","Dissertation, read only version C",CUT,CHOP,Study2,B,107,165,Test,User,-,,Recall,Recall2,32300,CHOP,100,31161,31928,1,1,,1
w10110946_nzw,0ze7u8o2ok,Nick_Dissertation_EX1_EP,1,317,2021-12-01T22:23:40+00:00,4.8391840457916,3,versionC_stim.csv,READVersionC.csv,"Read Version C","Dissertation, read only version C",STEAK,GIVE,Study2,U,158,144,Test,User,-,,Recall,Recall2,4643,MEAT,25,3785,4311,0,0,,1
w10110946_nzw,0ze7u8o2ok,Nick_Dissertation_EX1_EP,1,318,2021-12-01T22:23:48+00:00,7.7794868946075,3,versionC_stim.csv,READVersionC.csv,"Read Version C","Dissertation, read only version C",TICK,FLEA,Study2,S,151,159,Test,User,-,,Recall,Recall2,7597,LICE,50,6575,7179,0,0,,1
w10110946_nzw,0ze7u8o2ok,Nick_Dissertation_EX1_EP,1,319,2021-12-01T22:24:01+00:00,12.442783117294,3,versionC_stim.csv,READVersionC.csv,"Read Version C","Dissertation, read only version C",COLD,CHILL,Study2,B,114,156,Test,User,-,,Recall,Recall2,12255,CHILL,100,10221,11936,1,1,,1
w10110946_nzw,0ze7u8o2ok,Nick_Dissertation_EX1_EP,1,320,2021-12-01T22:24:24+00:00,23.214570045471,3,versionC_stim.csv,READVersionC.csv,"Read Version C","Dissertation, read only version C",TOIL,LEASE,Study2,U,170,99,Test,User,-,,Recall,Recall2,23023,LEASE,100,20743,21780,1,1,,1
w10110946_nzw,0ze7u8o2ok,Nick_Dissertation_EX1_EP,1,321,2021-12-01T22:24:51+00:00,26.923766851425,3,versionC_stim.csv,READVersionC.csv,"Read Version C","Dissertation, read only version C",OUNCE,BOTH,Study2,U,172,112,Test,User,-,,Recall,Recall2,26717,CUP,0,25834,26372,0,0,,1
w10110946_nzw,0ze7u8o2ok,Nick_Dissertation_EX1_EP,1,322,2021-12-01T22:25:06+00:00,15.131649017334,3,versionC_stim.csv,READVersionC.csv,"Read Version C","Dissertation, read only version C",BANKER,MONEY,Study2,F,132,147,Test,User,-,,Recall,Recall2,14941,MONEY,100,13740,14628,1,1,,1
w10110946_nzw,0ze7u8o2ok,Nick_Dissertation_EX1_EP,1,323,2021-12-01T22:25:13+00:00,7.2818081378937,3,versionC_stim.csv,READVersionC.csv,"Read Version C","Dissertation, read only version C",HAVE,OWN,Study2,S,153,104,Test,User,-,,Recall,Recall2,7081,OWN,100,6381,6805,1,1,,1
w10110946_nzw,0ze7u8o2ok,Nick_Dissertation_EX1_EP,1,324,2021-12-01T22:25:39+00:00,25.966425895691,3,versionC_stim.csv,READVersionC.csv,"Read Version C","Dissertation, read only version C",MAROON,JUSTICE,Study2,U,156,142,Test,User,-,,Recall,Recall2,25784,RED,20,25177,25589,0,0,,1
w10110946_nzw,0ze7u8o2ok,Nick_Dissertation_EX1_EP,1,325,2021-12-01T22:26:00+00:00,21.141108036041,3,versionC_stim.csv,READVersionC.csv,"Read Version C","Dissertation, read only version C",FICTION,LISTEN,Study2,U,164,108,Test,User,-,,Recall,Recall2,20952,LISTEN,100,19517,20605,1,1,,1
w10110946_nzw,0ze7u8o2ok,Nick_Dissertation_EX1_EP,1,326,2021-12-01T22:26:18+00:00,17.869827032089,3,versionC_stim.csv,READVersionC.csv,"Read Version C","Dissertation, read only version C",FIGHT,FEUD,Study2,B,113,149,Test,User,-,,Recall,Recall2,17675,FEUD,100,16693,17294,1,1,,1
w10110946_nzw,0ze7u8o2ok,Nick_Dissertation_EX1_EP,1,327,2021-12-01T22:26:48+00:00,29.759990930557,3,versionC_stim.csv,READVersionC.csv,"Read Version C","Dissertation, read only version C",TIE,SHOELACE,Study2,B,99,114,Test,User,-,,Recall,Recall2,29558,SHOELACE,100,27572,29398,1,1,,1
w10110946_nzw,0ze7u8o2ok,Nick_Dissertation_EX1_EP,1,328,2021-12-01T22:26:57+00:00,9.0079181194305,3,versionC_stim.csv,READVersionC.csv,"Read Version C","Dissertation, read only version C",CARBON,ELEMENT,Study2,S,141,130,Test,User,-,,Recall,Recall2,8825,AIR,0,8333,8607,0,0,,1
w10110946_nzw,0ze7u8o2ok,Nick_Dissertation_EX1_EP,1,329,2021-12-01T22:27:11+00:00,14.54025888443,3,versionC_stim.csv,READVersionC.csv,"Read Version C","Dissertation, read only version C",DRINK,WATER,Study2,S,143,122,Test,User,-,,Recall,Recall2,14345,WATER,100,13259,14044,1,1,,1
w10110946_nzw,0ze7u8o2ok,Nick_Dissertation_EX1_EP,1,330,2021-12-01T22:27:31+00:00,19.565016031265,3,versionC_stim.csv,READVersionC.csv,"Read Version C","Dissertation, read only version C",RED,CHERRY,Study2,B,104,150,Test,User,-,,Recall,Recall2,19343,CHERRY,100,18084,19017,1,1,,1
w10110946_nzw,0ze7u8o2ok,Nick_Dissertation_EX1_EP,1,331,2021-12-01T22:27:58+00:00,27.282164096832,3,versionC_stim.csv,READVersionC.csv,"Read Version C","Dissertation, read only version C",REEL,ROD,Study2,S,150,135,Test,User,-,,Recall,Recall2,27060,ROD,100,26485,26844,1,1,,1
w10110946_nzw,0ze7u8o2ok,Nick_Dissertation_EX1_EP,1,332,2021-12-01T22:28:33+00:00,34.527458906174,3,versionC_stim.csv,READVersionC.csv,"Read Version C","Dissertation, read only version C",BREAKABLE,GLASS,Study2,F,127,113,Test,User,-,,Recall,Recall2,34328,GLASS,100,33285,34111,1,1,,1
w10110946_nzw,0ze7u8o2ok,Nick_Dissertation_EX1_EP,1,333,2021-12-01T22:29:00+00:00,27.313107013702,3,versionC_stim.csv,READVersionC.csv,"Read Version C","Dissertation, read only version C",SIGN,LOAN,Study2,U,171,145,Test,User,-,,Recall,Recall2,27122,LOAN,100,26194,26757,1,1,,1
w10110946_nzw,0ze7u8o2ok,Nick_Dissertation_EX1_EP,1,334,2021-12-01T22:29:10+00:00,9.6105120182037,3,versionC_stim.csv,READVersionC.csv,"Read Version C","Dissertation, read only version C",BRAWL,FIGHT,Study2,F,135,115,Test,User,-,,Recall,Recall2,9427,FIGHT,100,8493,9233,1,1,,1
w10110946_nzw,0ze7u8o2ok,Nick_Dissertation_EX1_EP,1,335,2021-12-01T22:29:41+00:00,30.872339010239,3,versionC_stim.csv,READVersionC.csv,"Read Version C","Dissertation, read only version C",TEMPER,TANTRUM,Study2,S,154,157,Test,User,-,,Recall,Recall2,30687,TANTRUM,100,27841,30247,1,1,,1
w10110946_nzw,0ze7u8o2ok,Nick_Dissertation_EX1_EP,1,336,2021-12-01T22:29:56+00:00,14.974807024002,3,versionC_stim.csv,READVersionC.csv,"Read Version C","Dissertation, read only version C",NAP,SLEEP,Study2,F,134,152,Test,User,-,,Recall,Recall2,14783,SLEEP,100,13453,14524,1,1,,1
w10110946_nzw,0ze7u8o2ok,Nick_Dissertation_EX1_EP,1,337,2021-12-01T22:30:08+00:00,12.828193902969,3,versionC_stim.csv,READVersionC.csv,"Read Version C","Dissertation, read only version C",DONKEY,MULE,Study2,B,108,136,Test,User,-,,Recall,Recall2,12640,MULE,100,11736,12445,1,1,,1
w10110946_nzw,0ze7u8o2ok,Nick_Dissertation_EX1_EP,1,338,2021-12-01T22:30:11+00:00,2.8656580448151,3,versionC_stim.csv,READVersionC.csv,"Read Version C","Dissertation, read only version C",TAN,SUN,Study2,S,155,97,Test,User,-,,Recall,Recall2,2684,SUN,100,2003,2379,1,1,,1
w10110946_nzw,0ze7u8o2ok,Nick_Dissertation_EX1_EP,1,339,2021-12-01T22:30:14+00:00,2.8998610973358,3,versionC_stim.csv,READVersionC.csv,"Read Version C","Dissertation, read only version C",BALLOON,POP,Study2,F,123,134,Test,User,-,,Recall,Recall2,2721,POP,100,1196,2342,1,1,,1
w10110946_nzw,0ze7u8o2ok,Nick_Dissertation_EX1_EP,1,340,2021-12-01T22:30:16+00:00,2.1144409179688,3,versionC_stim.csv,READVersionC.csv,"Read Version C","Dissertation, read only version C",PANTHER,CAT,Study2,F,126,173,Test,User,-,,Recall,Recall2,1933,CAT,100,1292,1634,1,1,,1
w10110946_nzw,0ze7u8o2ok,Nick_Dissertation_EX1_EP,1,341,2021-12-01T22:30:19+00:00,2.8095178604126,3,versionC_stim.csv,READVersionC.csv,"Read Version C","Dissertation, read only version C",WINDSHIELD,CAR,Study2,F,117,151,Test,User,-,,Recall,Recall2,2627,CAR,100,1323,1773,1,1,,1
w10110946_nzw,0ze7u8o2ok,Nick_Dissertation_EX1_EP,1,342,2021-12-01T22:30:23+00:00,3.7534241676331,3,versionC_stim.csv,READVersionC.csv,"Read Version C","Dissertation, read only version C",LONELY,ALONE,Study2,S,145,129,Test,User,-,,Recall,Recall2,2954,ALONE,100,2030,2750,1,1,,1
w10110946_nzw,0ze7u8o2ok,Nick_Dissertation_EX1_EP,1,343,2021-12-01T22:30:43+00:00,20.381893873215,3,versionC_stim.csv,READVersionC.csv,"Read Version C","Dissertation, read only version C",TRASH,LITTER,Study2,B,103,139,Test,User,-,,Recall,Recall2,20196,LITTER,100,19084,19911,1,1,,1
w10110946_nzw,0ze7u8o2ok,Nick_Dissertation_EX1_EP,1,344,2021-12-01T22:30:48+00:00,4.8162369728088,3,versionC_stim.csv,READVersionC.csv,"Read Version C","Dissertation, read only version C",CHILDREN,MIRROR,Study2,U,174,148,Test,User,-,,Recall,Recall2,4623,MIRROR,100,3392,4383,1,1,,1
w10110946_nzw,0ze7u8o2ok,Nick_Dissertation_EX1_EP,1,345,2021-12-01T22:31:22+00:00,33.779336214066,3,versionC_stim.csv,READVersionC.csv,"Read Version C","Dissertation, read only version C",SHAVE,RAZOR,Study2,S,136,160,Test,User,-,,Recall,Recall2,33599,RAZOR,100,31709,33055,1,1,,1
w10110946_nzw,0ze7u8o2ok,Nick_Dissertation_EX1_EP,1,346,2021-12-01T22:31:32+00:00,9.9380309581757,3,versionC_stim.csv,READVersionC.csv,"Read Version C","Dissertation, read only version C",SCISSORS,SHEARS,Study2,B,112,166,Test,User,-,,Recall,Recall2,9757,SHEARS,100,7742,9177,1,1,,1
w10110946_nzw,0ze7u8o2ok,Nick_Dissertation_EX1_EP,1,347,2021-12-01T22:31:40+00:00,8.6183948516846,3,versionC_stim.csv,READVersionC.csv,"Read Version C","Dissertation, read only version C",BRACELET,WRIST,Study2,S,140,120,Test,User,-,,Recall,Recall2,8436,WRIST,100,7114,8081,1,1,,1
w10110946_nzw,0ze7u8o2ok,Nick_Dissertation_EX1_EP,1,348,2021-12-01T22:31:43+00:00,3.1321711540222,3,versionC_stim.csv,READVersionC.csv,"Read Version C","Dissertation, read only version C",SCAR,MAIN,Study2,U,175,175,Test,User,-,,Recall,Recall2,2951,SCRAPE,20,1808,2746,0,0,,1
w10110946_nzw,0ze7u8o2ok,Nick_Dissertation_EX1_EP,1,349,2021-12-01T22:31:48+00:00,4.0492470264435,3,versionC_stim.csv,READVersionC.csv,"Read Version C","Dissertation, read only version C",TRUTHFUL,HONEST,Study2,F,133,146,Test,User,-,,Recall,Recall2,3857,HONEST,100,2203,3603,1,1,,1
w10110946_nzw,0ze7u8o2ok,Nick_Dissertation_EX1_EP,1,350,2021-12-01T22:32:33+00:00,45.707255840302,3,versionC_stim.csv,READVersionC.csv,"Read Version C","Dissertation, read only version C",CHARM,VEHICLE,Study2,U,160,140,Test,User,-,,Recall,Recall2,45524,VEHICLE,100,43471,45213,1,1,,1
w10110946_nzw,0ze7u8o2ok,Nick_Dissertation_EX1_EP,1,351,2021-12-01T22:32:43+00:00,10.055536985397,3,versionC_stim.csv,READVersionC.csv,"Read Version C","Dissertation, read only version C",COFFIN,DEAD,Study2,F,128,111,Test,User,-,,Recall,Recall2,9860,DEAD,100,9016,9686,1,1,,1
w10110946_nzw,0ze7u8o2ok,Nick_Dissertation_EX1_EP,1,352,2021-12-01T22:32:45+00:00,2.0294110774994,3,versionC_stim.csv,READVersionC.csv,"Read Version C","Dissertation, read only version C",,,,,,0,Instruct,User,-,"You have completed this section. Please press Enter.",,Instruct7,1792,,,-1,-1,,,,1
w10110946_nzw,0ze7u8o2ok,Nick_Dissertation_EX1_EP,1,353,2021-12-01T22:32:48+00:00,2.9706718921661,3,versionC_stim.csv,READVersionC.csv,"Read Version C","Dissertation, read only version C",,,,,,0,Instruct,User,-,"The following screen will ask you a few questions abour your experience today. You must complete these questions to receive credit.",,Instruct8,2761,,,-1,-1,,,,1
