Username,ID,ExperimentName,Session,Trial,Date,TimeDif,"Condition Number","Stimuli File","Order File","Condition Description","Condition Notes",Stimuli*Cue,Stimuli*Answer,Stimuli*Shuffle,"Stimuli*Stimuli Notes",Stimuli*Value,Procedure*Item,"Procedure*Trial Type","Procedure*Max Time","Procedure*Min Time",Procedure*Text,"Procedure*Procedure Notes",Procedure*Shuffle,Response*RT,Response*Response,Response*Accuracy,Response*RTfirst,Response*RTlast,Response*strictAcc,Response*lenientAcc,Response*focus,Response*Focus
w10123816_lac,462nsxt8vd,Nick_Dissertation_EX1_EP,1,1,2021-12-01T14:22:42+00:00,6.2688751220703,1,versionA_stim.csv,READVersionA.csv,"Read Version A","Dissertation, read only version A",,,,,,0,Instruct,-,5,"In this section, you will be presented with a series of word pairs.",Initial_Instruct,Instruct1,6089,,,-1,-1,,,,1
w10123816_lac,462nsxt8vd,Nick_Dissertation_EX1_EP,1,2,2021-12-01T14:23:28+00:00,45.354636907578,1,versionA_stim.csv,READVersionA.csv,"Read Version A","Dissertation, read only version A",,,,,,0,Instruct,-,10,"Each word will be displayed on the computer screen for 8 seconds. The screen will automatically move to the next pair when time is up. Please study each pair. Your memory will be tested!",,Instruct15,45028,,,-1,-1,,,,0.972
w10123816_lac,462nsxt8vd,Nick_Dissertation_EX1_EP,1,3,2021-12-01T14:23:45+00:00,16.954065084457,1,versionA_stim.csv,READVersionA.csv,"Read Version A","Dissertation, read only version A",,,,,,0,Instruct,User,-,"You will now begin the study. Press Enter when you are ready to begin.",,Instruct16,12638,,,-1,-1,,,,0.889
w10123816_lac,462nsxt8vd,Nick_Dissertation_EX1_EP,1,4,2021-12-01T14:23:53+00:00,8.239296913147,1,versionA_stim.csv,READVersionA.csv,"Read Version A","Dissertation, read only version A",SPACE,JAM,BUFFER1,Buffer,5,5,Study,8,8,,Study/JOL,BUFFER,8002,,,-1,-1,,,,1
w10123816_lac,462nsxt8vd,Nick_Dissertation_EX1_EP,1,5,2021-12-01T14:24:01+00:00,8.2383570671082,1,versionA_stim.csv,READVersionA.csv,"Read Version A","Dissertation, read only version A",TREES,GREEN,BUFFER1,Buffer,1,3,Study,8,8,,Study/JOL,BUFFER,8017,,,-1,-1,,,,1
w10123816_lac,462nsxt8vd,Nick_Dissertation_EX1_EP,1,6,2021-12-01T14:24:09+00:00,8.2235820293427,1,versionA_stim.csv,READVersionA.csv,"Read Version A","Dissertation, read only version A",PEANUT,BUTTER,BUFFER1,Buffer,3,2,Study,8,8,,Study/JOL,BUFFER,8020,,,-1,-1,,,,1
w10123816_lac,462nsxt8vd,Nick_Dissertation_EX1_EP,1,7,2021-12-01T14:24:17+00:00,8.2266578674316,1,versionA_stim.csv,READVersionA.csv,"Read Version A","Dissertation, read only version A",SCARE,HIDE,BUFFER1,Buffer,4,6,Study,8,8,,Study/JOL,BUFFER,8005,,,-1,-1,,,,1
w10123816_lac,462nsxt8vd,Nick_Dissertation_EX1_EP,1,8,2021-12-01T14:24:26+00:00,8.2372131347656,1,versionA_stim.csv,READVersionA.csv,"Read Version A","Dissertation, read only version A",BASEBALL,CATCHER,BUFFER1,Buffer,2,4,Study,8,8,,Study/JOL,BUFFER,8002,,,-1,-1,,,,1
w10123816_lac,462nsxt8vd,Nick_Dissertation_EX1_EP,1,9,2021-12-01T14:24:34+00:00,8.234564781189,1,versionA_stim.csv,READVersionA.csv,"Read Version A","Dissertation, read only version A",WAGE,MONEY,Study1,F,8,25,Study,8,8,,Study/JOL,"Study Phase",8004,,,-1,-1,,,,1
w10123816_lac,462nsxt8vd,Nick_Dissertation_EX1_EP,1,10,2021-12-01T14:24:42+00:00,8.2278301715851,1,versionA_stim.csv,READVersionA.csv,"Read Version A","Dissertation, read only version A",LOCATION,SITE,Study1,S,48,56,Study,8,8,,Study/JOL,"Study Phase",8002,,,-1,-1,,,,1
w10123816_lac,462nsxt8vd,Nick_Dissertation_EX1_EP,1,11,2021-12-01T14:24:52+00:00,9.6393949985504,1,versionA_stim.csv,READVersionA.csv,"Read Version A","Dissertation, read only version A",DEATH,BUSINESS,Study1,U,72,21,Study,8,8,,Study/JOL,"Study Phase",8014,,,-1,-1,,,,1
w10123816_lac,462nsxt8vd,Nick_Dissertation_EX1_EP,1,12,2021-12-01T14:25:00+00:00,8.2141718864441,1,versionA_stim.csv,READVersionA.csv,"Read Version A","Dissertation, read only version A",ALLOW,TUCK,Study1,U,78,85,Study,8,8,,Study/JOL,"Study Phase",8004,,,-1,-1,,,,1
w10123816_lac,462nsxt8vd,Nick_Dissertation_EX1_EP,1,13,2021-12-01T14:25:08+00:00,8.2145869731903,1,versionA_stim.csv,READVersionA.csv,"Read Version A","Dissertation, read only version A",DEBATE,SIGHT,Study1,U,73,38,Study,8,8,,Study/JOL,"Study Phase",8002,,,-1,-1,,,,1
w10123816_lac,462nsxt8vd,Nick_Dissertation_EX1_EP,1,14,2021-12-01T14:25:16+00:00,8.2355470657349,1,versionA_stim.csv,READVersionA.csv,"Read Version A","Dissertation, read only version A",HAPPY,CAR,Study1,U,77,81,Study,8,8,,Study/JOL,"Study Phase",8018,,,-1,-1,,,,1
w10123816_lac,462nsxt8vd,Nick_Dissertation_EX1_EP,1,15,2021-12-01T14:25:25+00:00,8.2289299964905,1,versionA_stim.csv,READVersionA.csv,"Read Version A","Dissertation, read only version A",FIX,HAND,Study1,U,75,69,Study,8,8,,Study/JOL,"Study Phase",8008,,,-1,-1,,,,1
w10123816_lac,462nsxt8vd,Nick_Dissertation_EX1_EP,1,16,2021-12-01T14:25:33+00:00,8.2238690853119,1,versionA_stim.csv,READVersionA.csv,"Read Version A","Dissertation, read only version A",PUSHER,CLUTTER,Study1,U,66,40,Study,8,8,,Study/JOL,"Study Phase",8003,,,-1,-1,,,,1
w10123816_lac,462nsxt8vd,Nick_Dissertation_EX1_EP,1,17,2021-12-01T14:25:41+00:00,8.231153011322,1,versionA_stim.csv,READVersionA.csv,"Read Version A","Dissertation, read only version A",LIFT,WOMAN,Study1,U,69,36,Study,8,8,,Study/JOL,"Study Phase",8003,,,-1,-1,,,,1
w10123816_lac,462nsxt8vd,Nick_Dissertation_EX1_EP,1,18,2021-12-01T14:25:49+00:00,8.227175951004,1,versionA_stim.csv,READVersionA.csv,"Read Version A","Dissertation, read only version A",ROOT,PLANT,Study1,F,13,78,Study,8,8,,Study/JOL,"Study Phase",8002,,,-1,-1,,,,1
w10123816_lac,462nsxt8vd,Nick_Dissertation_EX1_EP,1,19,2021-12-01T14:25:58+00:00,8.2171170711517,1,versionA_stim.csv,READVersionA.csv,"Read Version A","Dissertation, read only version A",DIGESTION,STOMACH,Study1,F,7,63,Study,8,8,,Study/JOL,"Study Phase",8002,,,-1,-1,,,,1
w10123816_lac,462nsxt8vd,Nick_Dissertation_EX1_EP,1,20,2021-12-01T14:26:06+00:00,8.2423930168152,1,versionA_stim.csv,READVersionA.csv,"Read Version A","Dissertation, read only version A",HIDE,SICK,Study1,U,84,30,Study,8,8,,Study/JOL,"Study Phase",8004,,,-1,-1,,,,1
w10123816_lac,462nsxt8vd,Nick_Dissertation_EX1_EP,1,21,2021-12-01T14:26:14+00:00,8.2199268341064,1,versionA_stim.csv,READVersionA.csv,"Read Version A","Dissertation, read only version A",REVOLUTION,WAR,Study1,F,20,51,Study,8,8,,Study/JOL,"Study Phase",8002,,,-1,-1,,,,1
w10123816_lac,462nsxt8vd,Nick_Dissertation_EX1_EP,1,22,2021-12-01T14:26:22+00:00,8.2357649803162,1,versionA_stim.csv,READVersionA.csv,"Read Version A","Dissertation, read only version A",HOT,CHILI,Study1,B,37,50,Study,8,8,,Study/JOL,"Study Phase",8005,,,-1,-1,,,,1
w10123816_lac,462nsxt8vd,Nick_Dissertation_EX1_EP,1,23,2021-12-01T14:26:31+00:00,8.2252290248871,1,versionA_stim.csv,READVersionA.csv,"Read Version A","Dissertation, read only version A",SENTENCE,WORD,Study1,B,31,64,Study,8,8,,Study/JOL,"Study Phase",8003,,,-1,-1,,,,1
w10123816_lac,462nsxt8vd,Nick_Dissertation_EX1_EP,1,24,2021-12-01T14:26:39+00:00,8.228611946106,1,versionA_stim.csv,READVersionA.csv,"Read Version A","Dissertation, read only version A",WORK,CHORE,Study1,B,39,82,Study,8,8,,Study/JOL,"Study Phase",8001,,,-1,-1,,,,1
w10123816_lac,462nsxt8vd,Nick_Dissertation_EX1_EP,1,25,2021-12-01T14:26:47+00:00,8.2286541461945,1,versionA_stim.csv,READVersionA.csv,"Read Version A","Dissertation, read only version A",CLOTHES,ATTIRE,Study1,B,43,19,Study,8,8,,Study/JOL,"Study Phase",8002,,,-1,-1,,,,1
w10123816_lac,462nsxt8vd,Nick_Dissertation_EX1_EP,1,26,2021-12-01T14:26:55+00:00,8.2274260520935,1,versionA_stim.csv,READVersionA.csv,"Read Version A","Dissertation, read only version A",SLEEP,DROWSY,Study1,B,41,41,Study,8,8,,Study/JOL,"Study Phase",8019,,,-1,-1,,,,1
w10123816_lac,462nsxt8vd,Nick_Dissertation_EX1_EP,1,27,2021-12-01T14:27:03+00:00,8.2286028862,1,versionA_stim.csv,READVersionA.csv,"Read Version A","Dissertation, read only version A",HERD,COW,Study1,F,22,13,Study,8,8,,Study/JOL,"Study Phase",8004,,,-1,-1,,,,1
w10123816_lac,462nsxt8vd,Nick_Dissertation_EX1_EP,1,28,2021-12-01T14:27:12+00:00,8.2274849414825,1,versionA_stim.csv,READVersionA.csv,"Read Version A","Dissertation, read only version A",PLANE,PILOT,Study1,B,44,53,Study,8,8,,Study/JOL,"Study Phase",8002,,,-1,-1,,,,1
w10123816_lac,462nsxt8vd,Nick_Dissertation_EX1_EP,1,29,2021-12-01T14:27:21+00:00,8.908185005188,1,versionA_stim.csv,READVersionA.csv,"Read Version A","Dissertation, read only version A",HUNGER,FAMINE,Study1,B,40,76,Study,8,8,,Study/JOL,"Study Phase",8003,,,-1,-1,,,,1
w10123816_lac,462nsxt8vd,Nick_Dissertation_EX1_EP,1,30,2021-12-01T14:27:29+00:00,8.2472720146179,1,versionA_stim.csv,READVersionA.csv,"Read Version A","Dissertation, read only version A",BEGIN,END,Study1,S,54,80,Study,8,8,,Study/JOL,"Study Phase",8002,,,-1,-1,,,,1
w10123816_lac,462nsxt8vd,Nick_Dissertation_EX1_EP,1,31,2021-12-01T14:27:37+00:00,8.2388651371002,1,versionA_stim.csv,READVersionA.csv,"Read Version A","Dissertation, read only version A",BRIDGE,WATER,Study1,F,18,61,Study,8,8,,Study/JOL,"Study Phase",8004,,,-1,-1,,,,1
w10123816_lac,462nsxt8vd,Nick_Dissertation_EX1_EP,1,32,2021-12-01T14:27:45+00:00,8.2309470176697,1,versionA_stim.csv,READVersionA.csv,"Read Version A","Dissertation, read only version A",MACHINE,POSITION,Study1,U,76,29,Study,8,8,,Study/JOL,"Study Phase",8003,,,-1,-1,,,,1
w10123816_lac,462nsxt8vd,Nick_Dissertation_EX1_EP,1,33,2021-12-01T14:27:54+00:00,8.2535839080811,1,versionA_stim.csv,READVersionA.csv,"Read Version A","Dissertation, read only version A",LAW,ATTORNEY,Study1,B,34,74,Study,8,8,,Study/JOL,"Study Phase",8002,,,-1,-1,,,,1
w10123816_lac,462nsxt8vd,Nick_Dissertation_EX1_EP,1,34,2021-12-01T14:28:02+00:00,8.2436718940735,1,versionA_stim.csv,READVersionA.csv,"Read Version A","Dissertation, read only version A",PARK,HUNGRY,Study1,U,68,33,Study,8,8,,Study/JOL,"Study Phase",8002,,,-1,-1,,,,1
w10123816_lac,462nsxt8vd,Nick_Dissertation_EX1_EP,1,35,2021-12-01T14:28:10+00:00,8.2378561496735,1,versionA_stim.csv,READVersionA.csv,"Read Version A","Dissertation, read only version A",POP,SODA,Study1,S,56,8,Study,8,8,,Study/JOL,"Study Phase",8003,,,-1,-1,,,,1
w10123816_lac,462nsxt8vd,Nick_Dissertation_EX1_EP,1,36,2021-12-01T14:28:18+00:00,8.2370870113373,1,versionA_stim.csv,READVersionA.csv,"Read Version A","Dissertation, read only version A",DIETARY,SACKING,Study1,U,67,14,Study,8,8,,Study/JOL,"Study Phase",8003,,,-1,-1,,,,1
w10123816_lac,462nsxt8vd,Nick_Dissertation_EX1_EP,1,37,2021-12-01T14:28:27+00:00,8.2347848415375,1,versionA_stim.csv,READVersionA.csv,"Read Version A","Dissertation, read only version A",SMELL,STENCH,Study1,B,42,54,Study,8,8,,Study/JOL,"Study Phase",8003,,,-1,-1,,,,1
w10123816_lac,462nsxt8vd,Nick_Dissertation_EX1_EP,1,38,2021-12-01T14:28:35+00:00,8.2310590744019,1,versionA_stim.csv,READVersionA.csv,"Read Version A","Dissertation, read only version A",ARCHITECTURE,DESIGN,Study1,S,51,12,Study,8,8,,Study/JOL,"Study Phase",8011,,,-1,-1,,,,1
w10123816_lac,462nsxt8vd,Nick_Dissertation_EX1_EP,1,39,2021-12-01T14:28:43+00:00,8.2191369533539,1,versionA_stim.csv,READVersionA.csv,"Read Version A","Dissertation, read only version A",GEOLOGY,ROCK,Study1,F,19,23,Study,8,8,,Study/JOL,"Study Phase",8002,,,-1,-1,,,,1
w10123816_lac,462nsxt8vd,Nick_Dissertation_EX1_EP,1,40,2021-12-01T14:28:51+00:00,8.2227499485016,1,versionA_stim.csv,READVersionA.csv,"Read Version A","Dissertation, read only version A",DUMP,WASTE,Study1,S,49,31,Study,8,8,,Study/JOL,"Study Phase",8001,,,-1,-1,,,,1
w10123816_lac,462nsxt8vd,Nick_Dissertation_EX1_EP,1,41,2021-12-01T14:28:59+00:00,8.2386841773987,1,versionA_stim.csv,READVersionA.csv,"Read Version A","Dissertation, read only version A",BABY,CHILD,Study1,S,64,77,Study,8,8,,Study/JOL,"Study Phase",8003,,,-1,-1,,,,1
w10123816_lac,462nsxt8vd,Nick_Dissertation_EX1_EP,1,42,2021-12-01T14:29:08+00:00,8.2437059879303,1,versionA_stim.csv,READVersionA.csv,"Read Version A","Dissertation, read only version A",BITTER,COLD,Study1,F,12,58,Study,8,8,,Study/JOL,"Study Phase",8002,,,-1,-1,,,,1
w10123816_lac,462nsxt8vd,Nick_Dissertation_EX1_EP,1,43,2021-12-01T14:29:16+00:00,8.2267048358917,1,versionA_stim.csv,READVersionA.csv,"Read Version A","Dissertation, read only version A",TRIAL,JURY,Study1,S,50,16,Study,8,8,,Study/JOL,"Study Phase",8004,,,-1,-1,,,,1
w10123816_lac,462nsxt8vd,Nick_Dissertation_EX1_EP,1,44,2021-12-01T14:29:24+00:00,8.2351241111755,1,versionA_stim.csv,READVersionA.csv,"Read Version A","Dissertation, read only version A",DARK,CAVE,Study1,B,28,62,Study,8,8,,Study/JOL,"Study Phase",8002,,,-1,-1,,,,1
w10123816_lac,462nsxt8vd,Nick_Dissertation_EX1_EP,1,45,2021-12-01T14:29:32+00:00,8.2124490737915,1,versionA_stim.csv,READVersionA.csv,"Read Version A","Dissertation, read only version A",FIRE,BLAZE,Study1,B,45,10,Study,8,8,,Study/JOL,"Study Phase",8005,,,-1,-1,,,,1
w10123816_lac,462nsxt8vd,Nick_Dissertation_EX1_EP,1,46,2021-12-01T14:29:41+00:00,8.2272410392761,1,versionA_stim.csv,READVersionA.csv,"Read Version A","Dissertation, read only version A",DISCUSSION,TALK,Study1,F,21,75,Study,8,8,,Study/JOL,"Study Phase",8002,,,-1,-1,,,,1
w10123816_lac,462nsxt8vd,Nick_Dissertation_EX1_EP,1,47,2021-12-01T14:29:49+00:00,8.2303519248962,1,versionA_stim.csv,READVersionA.csv,"Read Version A","Dissertation, read only version A",NUMBER,AMOUNT,Study1,S,47,86,Study,8,8,,Study/JOL,"Study Phase",8002,,,-1,-1,,,,1
w10123816_lac,462nsxt8vd,Nick_Dissertation_EX1_EP,1,48,2021-12-01T14:29:57+00:00,8.2391469478607,1,versionA_stim.csv,READVersionA.csv,"Read Version A","Dissertation, read only version A",HYGIENE,CLEAN,Study1,F,17,48,Study,8,8,,Study/JOL,"Study Phase",8003,,,-1,-1,,,,1
w10123816_lac,462nsxt8vd,Nick_Dissertation_EX1_EP,1,49,2021-12-01T14:30:05+00:00,8.2499921321869,1,versionA_stim.csv,READVersionA.csv,"Read Version A","Dissertation, read only version A",HONEY,BEE,Study1,S,63,18,Study,8,8,,Study/JOL,"Study Phase",8001,,,-1,-1,,,,1
w10123816_lac,462nsxt8vd,Nick_Dissertation_EX1_EP,1,50,2021-12-01T14:30:14+00:00,8.2369148731232,1,versionA_stim.csv,READVersionA.csv,"Read Version A","Dissertation, read only version A",EDITOR,NEWS,Study1,F,10,39,Study,8,8,,Study/JOL,"Study Phase",8003,,,-1,-1,,,,1
w10123816_lac,462nsxt8vd,Nick_Dissertation_EX1_EP,1,51,2021-12-01T14:30:22+00:00,8.248349905014,1,versionA_stim.csv,READVersionA.csv,"Read Version A","Dissertation, read only version A",SUGAR,RIDDLE,Study1,U,81,15,Study,8,8,,Study/JOL,"Study Phase",8004,,,-1,-1,,,,1
w10123816_lac,462nsxt8vd,Nick_Dissertation_EX1_EP,1,52,2021-12-01T14:30:31+00:00,8.9440732002258,1,versionA_stim.csv,READVersionA.csv,"Read Version A","Dissertation, read only version A",DRINK,SIP,Study1,B,27,20,Study,8,8,,Study/JOL,"Study Phase",8002,,,-1,-1,,,,1
w10123816_lac,462nsxt8vd,Nick_Dissertation_EX1_EP,1,53,2021-12-01T14:30:39+00:00,8.2294659614563,1,versionA_stim.csv,READVersionA.csv,"Read Version A","Dissertation, read only version A",CASH,WOULD,Study1,U,83,70,Study,8,8,,Study/JOL,"Study Phase",8002,,,-1,-1,,,,1
w10123816_lac,462nsxt8vd,Nick_Dissertation_EX1_EP,1,54,2021-12-01T14:30:47+00:00,8.2484459877014,1,versionA_stim.csv,READVersionA.csv,"Read Version A","Dissertation, read only version A",STRONG,ACCIDENT,Study1,U,80,68,Study,8,8,,Study/JOL,"Study Phase",8004,,,-1,-1,,,,1
w10123816_lac,462nsxt8vd,Nick_Dissertation_EX1_EP,1,55,2021-12-01T14:30:55+00:00,8.2167408466339,1,versionA_stim.csv,READVersionA.csv,"Read Version A","Dissertation, read only version A",SHOE,FOOT,Study1,S,60,84,Study,8,8,,Study/JOL,"Study Phase",8004,,,-1,-1,,,,1
w10123816_lac,462nsxt8vd,Nick_Dissertation_EX1_EP,1,56,2021-12-01T14:31:04+00:00,8.2287340164185,1,versionA_stim.csv,READVersionA.csv,"Read Version A","Dissertation, read only version A",MATH,DIVISION,Study1,B,33,9,Study,8,8,,Study/JOL,"Study Phase",8005,,,-1,-1,,,,1
w10123816_lac,462nsxt8vd,Nick_Dissertation_EX1_EP,1,57,2021-12-01T14:31:12+00:00,8.2287340164185,1,versionA_stim.csv,READVersionA.csv,"Read Version A","Dissertation, read only version A",FULL,ENOUGH,Study1,B,26,7,Study,8,8,,Study/JOL,"Study Phase",8004,,,-1,-1,,,,1
w10123816_lac,462nsxt8vd,Nick_Dissertation_EX1_EP,1,58,2021-12-01T14:31:20+00:00,8.2195529937744,1,versionA_stim.csv,READVersionA.csv,"Read Version A","Dissertation, read only version A",KEY,LATCH,Study1,B,36,49,Study,8,8,,Study/JOL,"Study Phase",8006,,,-1,-1,,,,1
w10123816_lac,462nsxt8vd,Nick_Dissertation_EX1_EP,1,59,2021-12-01T14:31:28+00:00,8.2222759723663,1,versionA_stim.csv,READVersionA.csv,"Read Version A","Dissertation, read only version A",CHISEL,HAMMER,Study1,F,9,24,Study,8,8,,Study/JOL,"Study Phase",8004,,,-1,-1,,,,1
w10123816_lac,462nsxt8vd,Nick_Dissertation_EX1_EP,1,60,2021-12-01T14:31:37+00:00,8.2473142147064,1,versionA_stim.csv,READVersionA.csv,"Read Version A","Dissertation, read only version A",TUNA,FISH,Study1,F,25,28,Study,8,8,,Study/JOL,"Study Phase",8005,,,-1,-1,,,,1
w10123816_lac,462nsxt8vd,Nick_Dissertation_EX1_EP,1,61,2021-12-01T14:31:45+00:00,8.2249858379364,1,versionA_stim.csv,READVersionA.csv,"Read Version A","Dissertation, read only version A",CIRCLE,ROUND,Study1,S,65,34,Study,8,8,,Study/JOL,"Study Phase",8004,,,-1,-1,,,,1
w10123816_lac,462nsxt8vd,Nick_Dissertation_EX1_EP,1,62,2021-12-01T14:31:53+00:00,8.2389991283417,1,versionA_stim.csv,READVersionA.csv,"Read Version A","Dissertation, read only version A",HORNET,STING,Study1,F,11,79,Study,8,8,,Study/JOL,"Study Phase",8003,,,-1,-1,,,,1
w10123816_lac,462nsxt8vd,Nick_Dissertation_EX1_EP,1,63,2021-12-01T14:32:01+00:00,8.2414138317108,1,versionA_stim.csv,READVersionA.csv,"Read Version A","Dissertation, read only version A",ART,LION,Study1,U,79,46,Study,8,8,,Study/JOL,"Study Phase",8005,,,-1,-1,,,,1
w10123816_lac,462nsxt8vd,Nick_Dissertation_EX1_EP,1,64,2021-12-01T14:32:10+00:00,8.2393851280212,1,versionA_stim.csv,READVersionA.csv,"Read Version A","Dissertation, read only version A",BATHROOM,TOILET,Study1,S,58,27,Study,8,8,,Study/JOL,"Study Phase",8002,,,-1,-1,,,,1
w10123816_lac,462nsxt8vd,Nick_Dissertation_EX1_EP,1,65,2021-12-01T14:32:18+00:00,8.2399258613586,1,versionA_stim.csv,READVersionA.csv,"Read Version A","Dissertation, read only version A",ARTERY,BRONZE,Study1,U,74,37,Study,8,8,,Study/JOL,"Study Phase",8012,,,-1,-1,,,,1
w10123816_lac,462nsxt8vd,Nick_Dissertation_EX1_EP,1,66,2021-12-01T14:32:26+00:00,8.2313451766968,1,versionA_stim.csv,READVersionA.csv,"Read Version A","Dissertation, read only version A",BLOW,WIND,Study1,S,55,66,Study,8,8,,Study/JOL,"Study Phase",8012,,,-1,-1,,,,1
w10123816_lac,462nsxt8vd,Nick_Dissertation_EX1_EP,1,67,2021-12-01T14:32:34+00:00,8.2477459907532,1,versionA_stim.csv,READVersionA.csv,"Read Version A","Dissertation, read only version A",GREAT,FANTASTIC,Study1,B,35,42,Study,8,8,,Study/JOL,"Study Phase",8002,,,-1,-1,,,,1
w10123816_lac,462nsxt8vd,Nick_Dissertation_EX1_EP,1,68,2021-12-01T14:32:42+00:00,8.2307410240173,1,versionA_stim.csv,READVersionA.csv,"Read Version A","Dissertation, read only version A",HEIGHT,GROWTH,Study1,B,30,47,Study,8,8,,Study/JOL,"Study Phase",8003,,,-1,-1,,,,1
w10123816_lac,462nsxt8vd,Nick_Dissertation_EX1_EP,1,69,2021-12-01T14:32:51+00:00,8.2333478927612,1,versionA_stim.csv,READVersionA.csv,"Read Version A","Dissertation, read only version A",PAW,DOG,Study1,F,15,44,Study,8,8,,Study/JOL,"Study Phase",8003,,,-1,-1,,,,1
w10123816_lac,462nsxt8vd,Nick_Dissertation_EX1_EP,1,70,2021-12-01T14:32:59+00:00,8.228639125824,1,versionA_stim.csv,READVersionA.csv,"Read Version A","Dissertation, read only version A",LETTUCE,SALAD,Study1,S,59,22,Study,8,8,,Study/JOL,"Study Phase",8004,,,-1,-1,,,,1
w10123816_lac,462nsxt8vd,Nick_Dissertation_EX1_EP,1,71,2021-12-01T14:33:07+00:00,8.2561140060425,1,versionA_stim.csv,READVersionA.csv,"Read Version A","Dissertation, read only version A",KIDNEY,LIVER,Study1,S,53,35,Study,8,8,,Study/JOL,"Study Phase",8004,,,-1,-1,,,,1
w10123816_lac,462nsxt8vd,Nick_Dissertation_EX1_EP,1,72,2021-12-01T14:33:15+00:00,8.2397358417511,1,versionA_stim.csv,READVersionA.csv,"Read Version A","Dissertation, read only version A",KING,VASE,Study1,U,85,26,Study,8,8,,Study/JOL,"Study Phase",8003,,,-1,-1,,,,1
w10123816_lac,462nsxt8vd,Nick_Dissertation_EX1_EP,1,73,2021-12-01T14:33:24+00:00,8.234619140625,1,versionA_stim.csv,READVersionA.csv,"Read Version A","Dissertation, read only version A",BUG,WASP,Study1,B,32,43,Study,8,8,,Study/JOL,"Study Phase",8002,,,-1,-1,,,,1
w10123816_lac,462nsxt8vd,Nick_Dissertation_EX1_EP,1,74,2021-12-01T14:33:32+00:00,8.296229839325,1,versionA_stim.csv,READVersionA.csv,"Read Version A","Dissertation, read only version A",SWAN,BIRD,Study1,F,14,45,Study,8,8,,Study/JOL,"Study Phase",8002,,,-1,-1,,,,1
w10123816_lac,462nsxt8vd,Nick_Dissertation_EX1_EP,1,75,2021-12-01T14:33:42+00:00,9.5880441665649,1,versionA_stim.csv,READVersionA.csv,"Read Version A","Dissertation, read only version A",BALL,RACKET,Study1,B,38,83,Study,8,8,,Study/JOL,"Study Phase",8002,,,-1,-1,,,,1
w10123816_lac,462nsxt8vd,Nick_Dissertation_EX1_EP,1,76,2021-12-01T14:33:50+00:00,8.2893848419189,1,versionA_stim.csv,READVersionA.csv,"Read Version A","Dissertation, read only version A",DUE,ASSIGNMENT,Study1,S,46,32,Study,8,8,,Study/JOL,"Study Phase",8003,,,-1,-1,,,,1
w10123816_lac,462nsxt8vd,Nick_Dissertation_EX1_EP,1,77,2021-12-01T14:33:58+00:00,8.2689590454102,1,versionA_stim.csv,READVersionA.csv,"Read Version A","Dissertation, read only version A",WAY,OUT,Study1,F,16,67,Study,8,8,,Study/JOL,"Study Phase",8003,,,-1,-1,,,,1
w10123816_lac,462nsxt8vd,Nick_Dissertation_EX1_EP,1,78,2021-12-01T14:34:06+00:00,8.2675881385803,1,versionA_stim.csv,READVersionA.csv,"Read Version A","Dissertation, read only version A",SOON,BELT,Study1,U,70,71,Study,8,8,,Study/JOL,"Study Phase",8003,,,-1,-1,,,,1
w10123816_lac,462nsxt8vd,Nick_Dissertation_EX1_EP,1,79,2021-12-01T14:34:15+00:00,8.2322528362274,1,versionA_stim.csv,READVersionA.csv,"Read Version A","Dissertation, read only version A",VALLEY,ADD,Study1,U,82,60,Study,8,8,,Study/JOL,"Study Phase",8004,,,-1,-1,,,,1
w10123816_lac,462nsxt8vd,Nick_Dissertation_EX1_EP,1,80,2021-12-01T14:34:23+00:00,8.2317380905151,1,versionA_stim.csv,READVersionA.csv,"Read Version A","Dissertation, read only version A",DELINQUENT,BAD,Study1,F,6,11,Study,8,8,,Study/JOL,"Study Phase",8017,,,-1,-1,,,,1
w10123816_lac,462nsxt8vd,Nick_Dissertation_EX1_EP,1,81,2021-12-01T14:34:31+00:00,8.2359099388123,1,versionA_stim.csv,READVersionA.csv,"Read Version A","Dissertation, read only version A",DISCOVER,FLOOR,Study1,U,71,52,Study,8,8,,Study/JOL,"Study Phase",8005,,,-1,-1,,,,1
w10123816_lac,462nsxt8vd,Nick_Dissertation_EX1_EP,1,82,2021-12-01T14:34:39+00:00,8.2346920967102,1,versionA_stim.csv,READVersionA.csv,"Read Version A","Dissertation, read only version A",MEANING,DEFINITION,Study1,S,62,59,Study,8,8,,Study/JOL,"Study Phase",8002,,,-1,-1,,,,1
w10123816_lac,462nsxt8vd,Nick_Dissertation_EX1_EP,1,83,2021-12-01T14:34:48+00:00,8.2376518249512,1,versionA_stim.csv,READVersionA.csv,"Read Version A","Dissertation, read only version A",TAKE,SEIZE,Study1,B,29,55,Study,8,8,,Study/JOL,"Study Phase",8002,,,-1,-1,,,,1
w10123816_lac,462nsxt8vd,Nick_Dissertation_EX1_EP,1,84,2021-12-01T14:34:57+00:00,9.2222480773926,1,versionA_stim.csv,READVersionA.csv,"Read Version A","Dissertation, read only version A",WINE,CHEESE,Study1,S,57,73,Study,8,8,,Study/JOL,"Study Phase",8002,,,-1,-1,,,,1
w10123816_lac,462nsxt8vd,Nick_Dissertation_EX1_EP,1,85,2021-12-01T14:35:05+00:00,8.2502999305725,1,versionA_stim.csv,READVersionA.csv,"Read Version A","Dissertation, read only version A",GRILL,BAR,Study1,S,52,57,Study,8,8,,Study/JOL,"Study Phase",8002,,,-1,-1,,,,1
w10123816_lac,462nsxt8vd,Nick_Dissertation_EX1_EP,1,86,2021-12-01T14:35:13+00:00,8.2386751174927,1,versionA_stim.csv,READVersionA.csv,"Read Version A","Dissertation, read only version A",CREDIT,CARD,Study1,F,23,17,Study,8,8,,Study/JOL,"Study Phase",8004,,,-1,-1,,,,1
w10123816_lac,462nsxt8vd,Nick_Dissertation_EX1_EP,1,87,2021-12-01T14:35:21+00:00,8.2462420463562,1,versionA_stim.csv,READVersionA.csv,"Read Version A","Dissertation, read only version A",PAST,FUTURE,Study1,S,61,65,Study,8,8,,Study/JOL,"Study Phase",8003,,,-1,-1,,,,1
w10123816_lac,462nsxt8vd,Nick_Dissertation_EX1_EP,1,88,2021-12-01T14:35:30+00:00,8.2328798770905,1,versionA_stim.csv,READVersionA.csv,"Read Version A","Dissertation, read only version A",ORCHID,FLOWER,Study1,F,24,72,Study,8,8,,Study/JOL,"Study Phase",8004,,,-1,-1,,,,1
w10123816_lac,462nsxt8vd,Nick_Dissertation_EX1_EP,1,89,2021-12-01T14:35:38+00:00,8.2186031341553,1,versionA_stim.csv,READVersionA.csv,"Read Version A","Dissertation, read only version A",GEESE,GOOSE,BUFFER2,Buffer,86,89,Study,8,8,,Study/JOL,BUFFER2,8002,,,-1,-1,,,,1
w10123816_lac,462nsxt8vd,Nick_Dissertation_EX1_EP,1,90,2021-12-01T14:35:46+00:00,8.2351038455963,1,versionA_stim.csv,READVersionA.csv,"Read Version A","Dissertation, read only version A",THING,STUFF,BUFFER2,Buffer,90,90,Study,8,8,,Study/JOL,BUFFER2,8004,,,-1,-1,,,,1
w10123816_lac,462nsxt8vd,Nick_Dissertation_EX1_EP,1,91,2021-12-01T14:35:54+00:00,8.2403891086578,1,versionA_stim.csv,READVersionA.csv,"Read Version A","Dissertation, read only version A",SHERRIF,POLICE,BUFFER2,Buffer,87,88,Study,8,8,,Study/JOL,BUFFER2,8005,,,-1,-1,,,,1
w10123816_lac,462nsxt8vd,Nick_Dissertation_EX1_EP,1,92,2021-12-01T14:36:03+00:00,8.2273118495941,1,versionA_stim.csv,READVersionA.csv,"Read Version A","Dissertation, read only version A",MOON,SPACE,BUFFER2,Buffer,89,87,Study,8,8,,Study/JOL,BUFFER2,8014,,,-1,-1,,,,1
w10123816_lac,462nsxt8vd,Nick_Dissertation_EX1_EP,1,93,2021-12-01T14:36:11+00:00,8.2318761348724,1,versionA_stim.csv,READVersionA.csv,"Read Version A","Dissertation, read only version A",MALT,CHOCOLATE,BUFFER2,Buffer,88,91,Study,8,8,,Study/JOL,BUFFER2,8003,,,-1,-1,,,,1
w10123816_lac,462nsxt8vd,Nick_Dissertation_EX1_EP,1,94,2021-12-01T14:36:13+00:00,2.525269985199,1,versionA_stim.csv,READVersionA.csv,"Read Version A","Dissertation, read only version A",,,,,,0,Instruct,User,-,"You have completed this section. Please press Enter.",Filler_Instruction,Instruct2,2393,,,-1,-1,,,,1
w10123816_lac,462nsxt8vd,Nick_Dissertation_EX1_EP,1,95,2021-12-01T14:38:14+00:00,120.37679696083,1,versionA_stim.csv,READVersionA.csv,"Read Version A","Dissertation, read only version A",,,,,,0,FreeRecall,120,120,"Please list the 50 US states in alphabetical order. The task will automatically advance to the next screen after two minutes.",,Filler1,120010,"Alabama, Alaska. Arizona. Arkansas California Colorado Connecticut Delaware Florida Georgia Hawaii Idaho Indiana Kansa Maine New ",0,9839,114392,0,0,,1
w10123816_lac,462nsxt8vd,Nick_Dissertation_EX1_EP,1,96,2021-12-01T14:38:36+00:00,22.365520000458,1,versionA_stim.csv,READVersionA.csv,"Read Version A","Dissertation, read only version A",,,,,,0,Instruct,-,10,"You will now be presented with the first word from each of the previously studied item pairs. Please type the missing word. If you do not know the word, you may guess or press Enter to skip forward to the next pair.",,Instruct3,22106,,,-1,-1,,,,0.631
w10123816_lac,462nsxt8vd,Nick_Dissertation_EX1_EP,1,97,2021-12-01T14:38:57+00:00,21.017535924911,1,versionA_stim.csv,READVersionA.csv,"Read Version A","Dissertation, read only version A",DIETARY,SACKING,Study1,U,67,14,Test,User,-,,Recall,Recall1,18691,Eat,20,16964,17396,0,0,,1
w10123816_lac,462nsxt8vd,Nick_Dissertation_EX1_EP,1,98,2021-12-01T14:39:01+00:00,3.9699001312256,1,versionA_stim.csv,READVersionA.csv,"Read Version A","Dissertation, read only version A",BEGIN,END,Study1,S,54,80,Test,User,-,,Recall,Recall1,3814,End,100,2462,2770,1,1,,0.65
w10123816_lac,462nsxt8vd,Nick_Dissertation_EX1_EP,1,99,2021-12-01T14:39:06+00:00,4.3876399993896,1,versionA_stim.csv,READVersionA.csv,"Read Version A","Dissertation, read only version A",HORNET,STING,Study1,F,11,79,Test,User,-,,Recall,Recall1,4163,Sting,100,2494,3210,1,1,,0.619
w10123816_lac,462nsxt8vd,Nick_Dissertation_EX1_EP,1,100,2021-12-01T14:39:10+00:00,4.0026280879974,1,versionA_stim.csv,READVersionA.csv,"Read Version A","Dissertation, read only version A",WINE,CHEESE,Study1,S,57,73,Test,User,-,,Recall,Recall1,3845,cheese,100,2115,3065,1,1,,0.65
w10123816_lac,462nsxt8vd,Nick_Dissertation_EX1_EP,1,101,2021-12-01T14:39:13+00:00,3.4941549301147,1,versionA_stim.csv,READVersionA.csv,"Read Version A","Dissertation, read only version A",CREDIT,CARD,Study1,F,23,17,Test,User,-,,Recall,Recall1,3353,card,100,1853,2506,1,1,,0.647
w10123816_lac,462nsxt8vd,Nick_Dissertation_EX1_EP,1,102,2021-12-01T14:39:23+00:00,9.9950928688049,1,versionA_stim.csv,READVersionA.csv,"Read Version A","Dissertation, read only version A",ART,LION,Study1,U,79,46,Test,User,-,,Recall,Recall1,9770,painting,33.333333333333,7917,8868,0,0,,0.878
w10123816_lac,462nsxt8vd,Nick_Dissertation_EX1_EP,1,103,2021-12-01T14:39:27+00:00,3.8493130207062,1,versionA_stim.csv,READVersionA.csv,"Read Version A","Dissertation, read only version A",LETTUCE,SALAD,Study1,S,59,22,Test,User,-,,Recall,Recall1,3659,salad,100,2066,2715,1,1,,0.632
w10123816_lac,462nsxt8vd,Nick_Dissertation_EX1_EP,1,104,2021-12-01T14:39:30+00:00,3.5701811313629,1,versionA_stim.csv,READVersionA.csv,"Read Version A","Dissertation, read only version A",DRINK,SIP,Study1,B,27,20,Test,User,-,,Recall,Recall1,3440,wine,28.571428571429,2092,2478,0,0,,0.667
w10123816_lac,462nsxt8vd,Nick_Dissertation_EX1_EP,1,105,2021-12-01T14:39:35+00:00,4.209743976593,1,versionA_stim.csv,READVersionA.csv,"Read Version A","Dissertation, read only version A",NUMBER,AMOUNT,Study1,S,47,86,Test,User,-,,Recall,Recall1,3994,amount,100,2008,3082,1,1,,0.7
w10123816_lac,462nsxt8vd,Nick_Dissertation_EX1_EP,1,106,2021-12-01T14:39:42+00:00,6.8906760215759,1,versionA_stim.csv,READVersionA.csv,"Read Version A","Dissertation, read only version A",SMELL,STENCH,Study1,B,42,54,Test,User,-,,Recall,Recall1,6657,"stench ",100,3248,4063,1,1,,0.824
w10123816_lac,462nsxt8vd,Nick_Dissertation_EX1_EP,1,107,2021-12-01T14:39:52+00:00,10.295358896255,1,versionA_stim.csv,READVersionA.csv,"Read Version A","Dissertation, read only version A",MACHINE,POSITION,Study1,U,76,29,Test,User,-,,Recall,Recall1,10069,site,50,3656,9100,0,0,,0.902
w10123816_lac,462nsxt8vd,Nick_Dissertation_EX1_EP,1,108,2021-12-01T14:40:03+00:00,10.949308156967,1,versionA_stim.csv,READVersionA.csv,"Read Version A","Dissertation, read only version A",BABY,CHILD,Study1,S,64,77,Test,User,-,,Recall,Recall1,10710,Cry,25,9098,9529,0,0,,0.87
w10123816_lac,462nsxt8vd,Nick_Dissertation_EX1_EP,1,109,2021-12-01T14:40:07+00:00,4.3517007827759,1,versionA_stim.csv,READVersionA.csv,"Read Version A","Dissertation, read only version A",DUE,ASSIGNMENT,Study1,S,46,32,Test,User,-,,Recall,Recall1,4107,"Assignment ",100,1942,2865,1,1,,0.762
w10123816_lac,462nsxt8vd,Nick_Dissertation_EX1_EP,1,110,2021-12-01T14:40:14+00:00,6.8243670463562,1,versionA_stim.csv,READVersionA.csv,"Read Version A","Dissertation, read only version A",DARK,CAVE,Study1,B,28,62,Test,User,-,,Recall,Recall1,6572,hide,25,5172,5690,0,0,,0.848
w10123816_lac,462nsxt8vd,Nick_Dissertation_EX1_EP,1,111,2021-12-01T14:40:18+00:00,3.7393960952759,1,versionA_stim.csv,READVersionA.csv,"Read Version A","Dissertation, read only version A",BITTER,COLD,Study1,F,12,58,Test,User,-,,Recall,Recall1,3569,cold,100,2360,2698,1,1,,0.722
w10123816_lac,462nsxt8vd,Nick_Dissertation_EX1_EP,1,112,2021-12-01T14:40:21+00:00,3.6541938781738,1,versionA_stim.csv,READVersionA.csv,"Read Version A","Dissertation, read only version A",ARCHITECTURE,DESIGN,Study1,S,51,12,Test,User,-,,Recall,Recall1,3440,art,0,2074,2557,0,0,,0.667
w10123816_lac,462nsxt8vd,Nick_Dissertation_EX1_EP,1,113,2021-12-01T14:40:25+00:00,3.7950601577759,1,versionA_stim.csv,READVersionA.csv,"Read Version A","Dissertation, read only version A",ORCHID,FLOWER,Study1,F,24,72,Test,User,-,,Recall,Recall1,3646,flower,100,2094,2868,1,1,,0.632
w10123816_lac,462nsxt8vd,Nick_Dissertation_EX1_EP,1,114,2021-12-01T14:40:32+00:00,6.8671000003815,1,versionA_stim.csv,READVersionA.csv,"Read Version A","Dissertation, read only version A",KEY,LATCH,Study1,B,36,49,Test,User,-,,Recall,Recall1,6646,Card,22.222222222222,4986,5744,0,0,,0.824
w10123816_lac,462nsxt8vd,Nick_Dissertation_EX1_EP,1,115,2021-12-01T14:40:36+00:00,3.7392828464508,1,versionA_stim.csv,READVersionA.csv,"Read Version A","Dissertation, read only version A",BRIDGE,WATER,Study1,F,18,61,Test,User,-,,Recall,Recall1,3588,water,100,1932,2788,1,1,,0.611
w10123816_lac,462nsxt8vd,Nick_Dissertation_EX1_EP,1,116,2021-12-01T14:40:46+00:00,10.140402078629,1,versionA_stim.csv,READVersionA.csv,"Read Version A","Dissertation, read only version A",SLEEP,DROWSY,Study1,B,41,41,Test,User,-,,Recall,Recall1,9866,"night ",0,7310,7957,0,0,,0.9
w10123816_lac,462nsxt8vd,Nick_Dissertation_EX1_EP,1,117,2021-12-01T14:40:51+00:00,4.7734909057617,1,versionA_stim.csv,READVersionA.csv,"Read Version A","Dissertation, read only version A",LIFT,WOMAN,Study1,U,69,36,Test,User,-,,Recall,Recall1,4552,woman,100,1654,3612,1,1,,0.783
w10123816_lac,462nsxt8vd,Nick_Dissertation_EX1_EP,1,118,2021-12-01T14:41:06+00:00,15.466812133789,1,versionA_stim.csv,READVersionA.csv,"Read Version A","Dissertation, read only version A",CLOTHES,ATTIRE,Study1,B,43,19,Test,User,-,,Recall,Recall1,15215,shoe,20,13186,14322,0,0,,0.934
w10123816_lac,462nsxt8vd,Nick_Dissertation_EX1_EP,1,119,2021-12-01T14:41:22+00:00,15.862613916397,1,versionA_stim.csv,READVersionA.csv,"Read Version A","Dissertation, read only version A",SOON,BELT,Study1,U,70,71,Test,User,-,,Recall,Recall1,15623,now,0,14340,14715,0,0,,0.924
w10123816_lac,462nsxt8vd,Nick_Dissertation_EX1_EP,1,120,2021-12-01T14:41:25+00:00,2.9147961139679,1,versionA_stim.csv,READVersionA.csv,"Read Version A","Dissertation, read only version A",PAW,DOG,Study1,F,15,44,Test,User,-,,Recall,Recall1,2755,dog,100,1680,1939,1,1,,0.643
w10123816_lac,462nsxt8vd,Nick_Dissertation_EX1_EP,1,121,2021-12-01T14:41:31+00:00,6.3950788974762,1,versionA_stim.csv,READVersionA.csv,"Read Version A","Dissertation, read only version A",BUG,WASP,Study1,B,32,43,Test,User,-,,Recall,Recall1,6181,bite,0,4724,5309,0,0,,0.839
w10123816_lac,462nsxt8vd,Nick_Dissertation_EX1_EP,1,122,2021-12-01T14:41:35+00:00,3.5164051055908,1,versionA_stim.csv,READVersionA.csv,"Read Version A","Dissertation, read only version A",HOT,CHILI,Study1,B,37,50,Test,User,-,,Recall,Recall1,3356,chili,100,1546,2321,1,1,,0.706
w10123816_lac,462nsxt8vd,Nick_Dissertation_EX1_EP,1,123,2021-12-01T14:41:38+00:00,3.3017008304596,1,versionA_stim.csv,READVersionA.csv,"Read Version A","Dissertation, read only version A",KIDNEY,LIVER,Study1,S,53,35,Test,User,-,,Recall,Recall1,3153,liver,100,1618,2434,1,1,,0.688
w10123816_lac,462nsxt8vd,Nick_Dissertation_EX1_EP,1,124,2021-12-01T14:41:42+00:00,3.6514291763306,1,versionA_stim.csv,READVersionA.csv,"Read Version A","Dissertation, read only version A",TAKE,SEIZE,Study1,B,29,55,Test,User,-,,Recall,Recall1,3506,out,0,2288,2698,0,0,,0.722
w10123816_lac,462nsxt8vd,Nick_Dissertation_EX1_EP,1,125,2021-12-01T14:41:52+00:00,10.523778915405,1,versionA_stim.csv,READVersionA.csv,"Read Version A","Dissertation, read only version A",GREAT,FANTASTIC,Study1,B,35,42,Test,User,-,,Recall,Recall1,10295,good,0,6189,6697,0,0,,0.904
w10123816_lac,462nsxt8vd,Nick_Dissertation_EX1_EP,1,126,2021-12-01T14:42:04+00:00,11.785335063934,1,versionA_stim.csv,READVersionA.csv,"Read Version A","Dissertation, read only version A",PUSHER,CLUTTER,Study1,U,66,40,Test,User,-,,Recall,Recall1,11581,clusher,71.428571428571,2277,10529,0,0,,0.759
w10123816_lac,462nsxt8vd,Nick_Dissertation_EX1_EP,1,127,2021-12-01T14:42:11+00:00,6.6126449108124,1,versionA_stim.csv,READVersionA.csv,"Read Version A","Dissertation, read only version A",FULL,ENOUGH,Study1,B,26,7,Test,User,-,,Recall,Recall1,6378,stomach,30.769230769231,2306,5509,0,0,,0.781
w10123816_lac,462nsxt8vd,Nick_Dissertation_EX1_EP,1,128,2021-12-01T14:42:15+00:00,4.5155370235443,1,versionA_stim.csv,READVersionA.csv,"Read Version A","Dissertation, read only version A",SUGAR,RIDDLE,Study1,U,81,15,Test,User,-,,Recall,Recall1,4283,riddle,100,2711,3474,1,1,,0.773
w10123816_lac,462nsxt8vd,Nick_Dissertation_EX1_EP,1,129,2021-12-01T14:42:19+00:00,3.7836809158325,1,versionA_stim.csv,READVersionA.csv,"Read Version A","Dissertation, read only version A",DELINQUENT,BAD,Study1,F,6,11,Test,User,-,,Recall,Recall1,3619,bad,100,2496,2826,1,1,,0.684
w10123816_lac,462nsxt8vd,Nick_Dissertation_EX1_EP,1,130,2021-12-01T14:42:31+00:00,12.474207162857,1,versionA_stim.csv,READVersionA.csv,"Read Version A","Dissertation, read only version A",FIX,HAND,Study1,U,75,69,Test,User,-,,Recall,Recall1,12236,"hammer ",40,9117,9927,0,0,,0.919
w10123816_lac,462nsxt8vd,Nick_Dissertation_EX1_EP,1,131,2021-12-01T14:42:40+00:00,8.8917419910431,1,versionA_stim.csv,READVersionA.csv,"Read Version A","Dissertation, read only version A",DEBATE,SIGHT,Study1,U,73,38,Test,User,-,,Recall,Recall1,8693,sight,100,6725,7286,1,1,,0.205
w10123816_lac,462nsxt8vd,Nick_Dissertation_EX1_EP,1,132,2021-12-01T14:42:48+00:00,7.2793078422546,1,versionA_stim.csv,READVersionA.csv,"Read Version A","Dissertation, read only version A",WAGE,MONEY,Study1,F,8,25,Test,User,-,,Recall,Recall1,6237,money,100,2735,3716,1,1,,1
w10123816_lac,462nsxt8vd,Nick_Dissertation_EX1_EP,1,133,2021-12-01T14:43:14+00:00,26.747502088547,1,versionA_stim.csv,READVersionA.csv,"Read Version A","Dissertation, read only version A",ALLOW,TUCK,Study1,U,78,85,Test,User,-,,Recall,Recall1,26489,parent,20,19622,25586,0,0,,0.955
w10123816_lac,462nsxt8vd,Nick_Dissertation_EX1_EP,1,134,2021-12-01T14:43:24+00:00,9.6657679080963,1,versionA_stim.csv,READVersionA.csv,"Read Version A","Dissertation, read only version A",DISCUSSION,TALK,Study1,F,21,75,Test,User,-,,Recall,Recall1,9247,group,0,7324,8298,0,0,,0.894
w10123816_lac,462nsxt8vd,Nick_Dissertation_EX1_EP,1,135,2021-12-01T14:43:34+00:00,10.284661054611,1,versionA_stim.csv,READVersionA.csv,"Read Version A","Dissertation, read only version A",VALLEY,ADD,Study1,U,82,60,Test,User,-,,Recall,Recall1,10057,bar,33.333333333333,8763,9191,0,0,,0.863
w10123816_lac,462nsxt8vd,Nick_Dissertation_EX1_EP,1,136,2021-12-01T14:43:44+00:00,9.7893309593201,1,versionA_stim.csv,READVersionA.csv,"Read Version A","Dissertation, read only version A",PARK,HUNGRY,Study1,U,68,33,Test,User,-,,Recall,Recall1,9557,food,0,8185,8588,0,0,,0.875
w10123816_lac,462nsxt8vd,Nick_Dissertation_EX1_EP,1,137,2021-12-01T14:43:52+00:00,7.5395710468292,1,versionA_stim.csv,READVersionA.csv,"Read Version A","Dissertation, read only version A",DUMP,WASTE,Study1,S,49,31,Test,User,-,,Recall,Recall1,7307,"garbage ",33.333333333333,2256,3105,0,0,,0.838
w10123816_lac,462nsxt8vd,Nick_Dissertation_EX1_EP,1,138,2021-12-01T14:43:59+00:00,7.8179750442505,1,versionA_stim.csv,READVersionA.csv,"Read Version A","Dissertation, read only version A",MATH,DIVISION,Study1,B,33,9,Test,User,-,,Recall,Recall1,7579,numbers,13.333333333333,5527,6749,0,0,,0.842
w10123816_lac,462nsxt8vd,Nick_Dissertation_EX1_EP,1,139,2021-12-01T14:44:06+00:00,6.3000600337982,1,versionA_stim.csv,READVersionA.csv,"Read Version A","Dissertation, read only version A",LOCATION,SITE,Study1,S,48,56,Test,User,-,,Recall,Recall1,6059,site,100,4596,5145,1,1,,0.839
w10123816_lac,462nsxt8vd,Nick_Dissertation_EX1_EP,1,140,2021-12-01T14:44:09+00:00,3.6220550537109,1,versionA_stim.csv,READVersionA.csv,"Read Version A","Dissertation, read only version A",ROOT,PLANT,Study1,F,13,78,Test,User,-,,Recall,Recall1,3460,plants,90.909090909091,1726,2726,0,1,,0.667
w10123816_lac,462nsxt8vd,Nick_Dissertation_EX1_EP,1,141,2021-12-01T14:44:15+00:00,5.7047288417816,1,versionA_stim.csv,READVersionA.csv,"Read Version A","Dissertation, read only version A",TRIAL,JURY,Study1,S,50,16,Test,User,-,,Recall,Recall1,5481,"attorney ",33.333333333333,2049,3312,0,0,,0.821
w10123816_lac,462nsxt8vd,Nick_Dissertation_EX1_EP,1,142,2021-12-01T14:44:24+00:00,9.3354730606079,1,versionA_stim.csv,READVersionA.csv,"Read Version A","Dissertation, read only version A",FIRE,BLAZE,Study1,B,45,10,Test,User,-,,Recall,Recall1,9099,ball,44.444444444444,6830,8054,0,0,,0.87
w10123816_lac,462nsxt8vd,Nick_Dissertation_EX1_EP,1,143,2021-12-01T14:44:28+00:00,3.6690380573273,1,versionA_stim.csv,READVersionA.csv,"Read Version A","Dissertation, read only version A",WORK,CHORE,Study1,B,39,82,Test,User,-,,Recall,Recall1,3529,out,25,2150,2518,0,0,,0.667
w10123816_lac,462nsxt8vd,Nick_Dissertation_EX1_EP,1,144,2021-12-01T14:44:32+00:00,4.1563830375671,1,versionA_stim.csv,READVersionA.csv,"Read Version A","Dissertation, read only version A",HYGIENE,CLEAN,Study1,F,17,48,Test,User,-,,Recall,Recall1,3940,shower,18.181818181818,2229,3176,0,0,,0.7
w10123816_lac,462nsxt8vd,Nick_Dissertation_EX1_EP,1,145,2021-12-01T14:44:36+00:00,4.1722300052643,1,versionA_stim.csv,READVersionA.csv,"Read Version A","Dissertation, read only version A",HONEY,BEE,Study1,S,63,18,Test,User,-,,Recall,Recall1,3946,bee,100,2832,3195,1,1,,0.7
w10123816_lac,462nsxt8vd,Nick_Dissertation_EX1_EP,1,146,2021-12-01T14:44:41+00:00,4.605358839035,1,versionA_stim.csv,READVersionA.csv,"Read Version A","Dissertation, read only version A",HUNGER,FAMINE,Study1,B,40,76,Test,User,-,,Recall,Recall1,4329,famine,100,2477,3448,1,1,,0.773
w10123816_lac,462nsxt8vd,Nick_Dissertation_EX1_EP,1,147,2021-12-01T14:44:47+00:00,6.2904191017151,1,versionA_stim.csv,READVersionA.csv,"Read Version A","Dissertation, read only version A",SHOE,FOOT,Study1,S,60,84,Test,User,-,,Recall,Recall1,6034,foot,100,4759,5139,1,1,,0.839
w10123816_lac,462nsxt8vd,Nick_Dissertation_EX1_EP,1,148,2021-12-01T14:44:52+00:00,4.3749089241028,1,versionA_stim.csv,READVersionA.csv,"Read Version A","Dissertation, read only version A",DISCOVER,FLOOR,Study1,U,71,52,Test,User,-,,Recall,Recall1,4134,card,22.222222222222,2634,3377,0,0,,0.714
w10123816_lac,462nsxt8vd,Nick_Dissertation_EX1_EP,1,149,2021-12-01T14:44:57+00:00,5.3901300430298,1,versionA_stim.csv,READVersionA.csv,"Read Version A","Dissertation, read only version A",BATHROOM,TOILET,Study1,S,58,27,Test,User,-,,Recall,Recall1,5169,toilet,100,3235,4233,1,1,,0.769
w10123816_lac,462nsxt8vd,Nick_Dissertation_EX1_EP,1,150,2021-12-01T14:45:00+00:00,3.2380690574646,1,versionA_stim.csv,READVersionA.csv,"Read Version A","Dissertation, read only version A",SENTENCE,WORD,Study1,B,31,64,Test,User,-,,Recall,Recall1,3085,word,100,1876,2395,1,1,,0.625
w10123816_lac,462nsxt8vd,Nick_Dissertation_EX1_EP,1,151,2021-12-01T14:45:04+00:00,3.9319009780884,1,versionA_stim.csv,READVersionA.csv,"Read Version A","Dissertation, read only version A",EDITOR,NEWS,Study1,F,10,39,Test,User,-,,Recall,Recall1,3784,book,0,2343,2940,0,0,,0.632
w10123816_lac,462nsxt8vd,Nick_Dissertation_EX1_EP,1,152,2021-12-01T14:45:08+00:00,3.5580089092255,1,versionA_stim.csv,READVersionA.csv,"Read Version A","Dissertation, read only version A",CHISEL,HAMMER,Study1,F,9,24,Test,User,-,,Recall,Recall1,3393,chest,36.363636363636,1968,2643,0,0,,0.706
w10123816_lac,462nsxt8vd,Nick_Dissertation_EX1_EP,1,153,2021-12-01T14:45:13+00:00,4.8172581195831,1,versionA_stim.csv,READVersionA.csv,"Read Version A","Dissertation, read only version A",WAY,OUT,Study1,F,16,67,Test,User,-,,Recall,Recall1,4573,out,100,2738,3774,1,1,,0.783
w10123816_lac,462nsxt8vd,Nick_Dissertation_EX1_EP,1,154,2021-12-01T14:45:19+00:00,6.6651759147644,1,versionA_stim.csv,READVersionA.csv,"Read Version A","Dissertation, read only version A",SWAN,BIRD,Study1,F,14,45,Test,User,-,,Recall,Recall1,6433,goose,0,1940,5368,0,0,,0.818
w10123816_lac,462nsxt8vd,Nick_Dissertation_EX1_EP,1,155,2021-12-01T14:45:24+00:00,4.9337139129639,1,versionA_stim.csv,READVersionA.csv,"Read Version A","Dissertation, read only version A",MEANING,DEFINITION,Study1,S,62,59,Test,User,-,,Recall,Recall1,4686,word,14.285714285714,3340,3896,0,0,,0.75
w10123816_lac,462nsxt8vd,Nick_Dissertation_EX1_EP,1,156,2021-12-01T14:45:30+00:00,5.4414100646973,1,versionA_stim.csv,READVersionA.csv,"Read Version A","Dissertation, read only version A",HERD,COW,Study1,F,22,13,Test,User,-,,Recall,Recall1,5185,sheep,0,3585,4172,0,0,,0.808
w10123816_lac,462nsxt8vd,Nick_Dissertation_EX1_EP,1,157,2021-12-01T14:45:35+00:00,5.5688300132751,1,versionA_stim.csv,READVersionA.csv,"Read Version A","Dissertation, read only version A",DIGESTION,STOMACH,Study1,F,7,63,Test,User,-,,Recall,Recall1,5335,food,18.181818181818,3644,4049,0,0,,0.778
w10123816_lac,462nsxt8vd,Nick_Dissertation_EX1_EP,1,158,2021-12-01T14:45:44+00:00,8.5620031356812,1,versionA_stim.csv,READVersionA.csv,"Read Version A","Dissertation, read only version A",LAW,ATTORNEY,Study1,B,34,74,Test,User,-,,Recall,Recall1,8346,"attorney ",100,4026,6213,1,1,,0.595
w10123816_lac,462nsxt8vd,Nick_Dissertation_EX1_EP,1,159,2021-12-01T14:45:54+00:00,10.338950872421,1,versionA_stim.csv,READVersionA.csv,"Read Version A","Dissertation, read only version A",HAPPY,CAR,Study1,U,77,81,Test,User,-,,Recall,Recall1,10111,food,0,8475,8925,0,0,,0.882
w10123816_lac,462nsxt8vd,Nick_Dissertation_EX1_EP,1,160,2021-12-01T14:46:01+00:00,7.1777460575104,1,versionA_stim.csv,READVersionA.csv,"Read Version A","Dissertation, read only version A",DEATH,BUSINESS,Study1,U,72,21,Test,User,-,,Recall,Recall1,6919,Business,100,4895,6218,1,1,,0.857
w10123816_lac,462nsxt8vd,Nick_Dissertation_EX1_EP,1,161,2021-12-01T14:46:06+00:00,4.3582918643951,1,versionA_stim.csv,READVersionA.csv,"Read Version A","Dissertation, read only version A",ARTERY,BRONZE,Study1,U,74,37,Test,User,-,,Recall,Recall1,4113,bronze,100,2003,3122,1,1,,0.667
w10123816_lac,462nsxt8vd,Nick_Dissertation_EX1_EP,1,162,2021-12-01T14:46:09+00:00,3.2481031417847,1,versionA_stim.csv,READVersionA.csv,"Read Version A","Dissertation, read only version A",BLOW,WIND,Study1,S,55,66,Test,User,-,,Recall,Recall1,3102,wind,100,1788,2198,1,1,,0.625
w10123816_lac,462nsxt8vd,Nick_Dissertation_EX1_EP,1,163,2021-12-01T14:46:12+00:00,2.9783320426941,1,versionA_stim.csv,READVersionA.csv,"Read Version A","Dissertation, read only version A",GRILL,BAR,Study1,S,52,57,Test,User,-,,Recall,Recall1,2842,bar,100,1670,2064,1,1,,0.667
w10123816_lac,462nsxt8vd,Nick_Dissertation_EX1_EP,1,164,2021-12-01T14:46:16+00:00,3.9371860027313,1,versionA_stim.csv,READVersionA.csv,"Read Version A","Dissertation, read only version A",BALL,RACKET,Study1,B,38,83,Test,User,-,,Recall,Recall1,3790,catcher,30.769230769231,1799,2950,0,0,,0.684
w10123816_lac,462nsxt8vd,Nick_Dissertation_EX1_EP,1,165,2021-12-01T14:46:19+00:00,3.3068988323212,1,versionA_stim.csv,READVersionA.csv,"Read Version A","Dissertation, read only version A",TUNA,FISH,Study1,F,25,28,Test,User,-,,Recall,Recall1,3172,fish,100,1762,2248,1,1,,0.625
w10123816_lac,462nsxt8vd,Nick_Dissertation_EX1_EP,1,166,2021-12-01T14:46:30+00:00,10.649868965149,1,versionA_stim.csv,READVersionA.csv,"Read Version A","Dissertation, read only version A",HIDE,SICK,Study1,U,84,30,Test,User,-,,Recall,Recall1,10412,scare,44.444444444444,8682,9537,0,0,,0.887
w10123816_lac,462nsxt8vd,Nick_Dissertation_EX1_EP,1,167,2021-12-01T14:46:40+00:00,10.024610996246,1,versionA_stim.csv,READVersionA.csv,"Read Version A","Dissertation, read only version A",STRONG,ACCIDENT,Study1,U,80,68,Test,User,-,,Recall,Recall1,9791,"accident ",100,7184,8029,1,1,,0.878
w10123816_lac,462nsxt8vd,Nick_Dissertation_EX1_EP,1,168,2021-12-01T14:46:47+00:00,7.4280331134796,1,versionA_stim.csv,READVersionA.csv,"Read Version A","Dissertation, read only version A",KING,VASE,Study1,U,85,26,Test,User,-,,Recall,Recall1,7200,palace,40,5449,6322,0,0,,0.833
w10123816_lac,462nsxt8vd,Nick_Dissertation_EX1_EP,1,169,2021-12-01T14:46:53+00:00,5.4919428825378,1,versionA_stim.csv,READVersionA.csv,"Read Version A","Dissertation, read only version A",PLANE,PILOT,Study1,B,44,53,Test,User,-,,Recall,Recall1,3727,pilot,100,2059,2902,1,1,,0.632
w10123816_lac,462nsxt8vd,Nick_Dissertation_EX1_EP,1,170,2021-12-01T14:46:56+00:00,3.6586120128632,1,versionA_stim.csv,READVersionA.csv,"Read Version A","Dissertation, read only version A",HEIGHT,GROWTH,Study1,B,30,47,Test,User,-,,Recall,Recall1,3502,growth,100,1780,2599,1,1,,0.667
w10123816_lac,462nsxt8vd,Nick_Dissertation_EX1_EP,1,171,2021-12-01T14:47:01+00:00,4.2044641971588,1,versionA_stim.csv,READVersionA.csv,"Read Version A","Dissertation, read only version A",CIRCLE,ROUND,Study1,S,65,34,Test,User,-,,Recall,Recall1,3976,around,90.909090909091,2141,3009,0,1,,0.75
w10123816_lac,462nsxt8vd,Nick_Dissertation_EX1_EP,1,172,2021-12-01T14:47:04+00:00,3.5654489994049,1,versionA_stim.csv,READVersionA.csv,"Read Version A","Dissertation, read only version A",CASH,WOULD,Study1,U,83,70,Test,User,-,,Recall,Recall1,3415,money,20,1881,2556,0,0,,0.647
w10123816_lac,462nsxt8vd,Nick_Dissertation_EX1_EP,1,173,2021-12-01T14:47:11+00:00,6.6089007854462,1,versionA_stim.csv,READVersionA.csv,"Read Version A","Dissertation, read only version A",PAST,FUTURE,Study1,S,61,65,Test,User,-,,Recall,Recall1,6384,present,30.769230769231,4598,5493,0,0,,0.813
w10123816_lac,462nsxt8vd,Nick_Dissertation_EX1_EP,1,174,2021-12-01T14:47:14+00:00,3.3240711688995,1,versionA_stim.csv,READVersionA.csv,"Read Version A","Dissertation, read only version A",REVOLUTION,WAR,Study1,F,20,51,Test,User,-,,Recall,Recall1,3179,war,100,1882,2297,1,1,,0.625
w10123816_lac,462nsxt8vd,Nick_Dissertation_EX1_EP,1,175,2021-12-01T14:47:17+00:00,2.9572939872742,1,versionA_stim.csv,READVersionA.csv,"Read Version A","Dissertation, read only version A",POP,SODA,Study1,S,56,8,Test,User,-,,Recall,Recall1,2816,soda,100,1719,2119,1,1,,0.667
w10123816_lac,462nsxt8vd,Nick_Dissertation_EX1_EP,1,176,2021-12-01T14:47:20+00:00,3.1516978740692,1,versionA_stim.csv,READVersionA.csv,"Read Version A","Dissertation, read only version A",GEOLOGY,ROCK,Study1,F,19,23,Test,User,-,,Recall,Recall1,3007,rock,100,1782,2194,1,1,,0.6
w10123816_lac,462nsxt8vd,Nick_Dissertation_EX1_EP,1,177,2021-12-01T14:47:32+00:00,11.850281000137,1,versionA_stim.csv,READVersionA.csv,"Read Version A","Dissertation, read only version A",,,,,,0,Instruct,-,10,"You will now be presented with a new set of word pairs. Please study each pair. Remember that your memory will be tested! When finished, press Enter to move to the next pair.",Initial_Instruct,Instruct4,11654,,,-1,-1,,,,0
w10123816_lac,462nsxt8vd,Nick_Dissertation_EX1_EP,1,178,2021-12-01T14:47:49+00:00,16.72128200531,1,versionA_stim.csv,READVersionA.csv,"Read Version A","Dissertation, read only version A",,,,,,0,Instruct,User,-,"Each word will be displayed on the computer screen for 8 seconds. The screen will automatically move to the next pair when time is up. Press Enter when you are ready to begin.",,Instruct11,16491,,,-1,-1,,,,1
w10123816_lac,462nsxt8vd,Nick_Dissertation_EX1_EP,1,179,2021-12-01T14:47:57+00:00,8.2212040424347,1,versionA_stim.csv,READVersionA.csv,"Read Version A","Dissertation, read only version A",ICE,FROZEN,BUFFER3,Buffer,94,96,Study,8,8,,Study/JOL,BUFFER3,8004,,,-1,-1,,,,1
w10123816_lac,462nsxt8vd,Nick_Dissertation_EX1_EP,1,180,2021-12-01T14:48:05+00:00,8.239609003067,1,versionA_stim.csv,READVersionA.csv,"Read Version A","Dissertation, read only version A",CAMP,ADVENTURE,BUFFER3,Buffer,95,93,Study,8,8,,Study/JOL,BUFFER3,8003,,,-1,-1,,,,1
w10123816_lac,462nsxt8vd,Nick_Dissertation_EX1_EP,1,181,2021-12-01T14:48:14+00:00,8.2422361373901,1,versionA_stim.csv,READVersionA.csv,"Read Version A","Dissertation, read only version A",SHRIMP,FISH,BUFFER3,Buffer,93,94,Study,8,8,,Study/JOL,BUFFER3,8002,,,-1,-1,,,,1
w10123816_lac,462nsxt8vd,Nick_Dissertation_EX1_EP,1,182,2021-12-01T14:48:22+00:00,8.2362229824066,1,versionA_stim.csv,READVersionA.csv,"Read Version A","Dissertation, read only version A",CARROT,POTATO,BUFFER3,Buffer,91,92,Study,8,8,,Study/JOL,BUFFER3,8003,,,-1,-1,,,,1
w10123816_lac,462nsxt8vd,Nick_Dissertation_EX1_EP,1,183,2021-12-01T14:48:30+00:00,8.2356178760529,1,versionA_stim.csv,READVersionA.csv,"Read Version A","Dissertation, read only version A",NOODLE,STRING,BUFFER3,Buffer,92,95,Study,8,8,,Study/JOL,BUFFER3,8002,,,-1,-1,,,,1
w10123816_lac,462nsxt8vd,Nick_Dissertation_EX1_EP,1,184,2021-12-01T14:48:38+00:00,8.2421929836273,1,versionA_stim.csv,READVersionA.csv,"Read Version A","Dissertation, read only version A",CHOP,CUT,Study2,F,107,101,Study,8,8,,Study/JOL,"Study Phase2",8002,,,-1,-1,,,,1
w10123816_lac,462nsxt8vd,Nick_Dissertation_EX1_EP,1,185,2021-12-01T14:48:46+00:00,8.2442581653595,1,versionA_stim.csv,READVersionA.csv,"Read Version A","Dissertation, read only version A",FISH,SARDINE,Study2,B,130,162,Study,8,8,,Study/JOL,"Study Phase2",8001,,,-1,-1,,,,1
w10123816_lac,462nsxt8vd,Nick_Dissertation_EX1_EP,1,186,2021-12-01T14:48:55+00:00,8.2220327854156,1,versionA_stim.csv,READVersionA.csv,"Read Version A","Dissertation, read only version A",DRIVER,CAR,Study2,F,106,161,Study,8,8,,Study/JOL,"Study Phase2",8002,,,-1,-1,,,,1
w10123816_lac,462nsxt8vd,Nick_Dissertation_EX1_EP,1,187,2021-12-01T14:49:03+00:00,8.2365601062775,1,versionA_stim.csv,READVersionA.csv,"Read Version A","Dissertation, read only version A",CHILL,COLD,Study2,F,114,138,Study,8,8,,Study/JOL,"Study Phase2",8003,,,-1,-1,,,,1
w10123816_lac,462nsxt8vd,Nick_Dissertation_EX1_EP,1,188,2021-12-01T14:49:11+00:00,8.2471680641174,1,versionA_stim.csv,READVersionA.csv,"Read Version A","Dissertation, read only version A",DOCUMENT,PAPER,Study2,F,109,148,Study,8,8,,Study/JOL,"Study Phase2",8003,,,-1,-1,,,,1
w10123816_lac,462nsxt8vd,Nick_Dissertation_EX1_EP,1,189,2021-12-01T14:49:19+00:00,8.2409420013428,1,versionA_stim.csv,READVersionA.csv,"Read Version A","Dissertation, read only version A",DEAD,COFFIN,Study2,B,128,134,Study,8,8,,Study/JOL,"Study Phase2",8001,,,-1,-1,,,,1
w10123816_lac,462nsxt8vd,Nick_Dissertation_EX1_EP,1,190,2021-12-01T14:49:28+00:00,8.2403409481049,1,versionA_stim.csv,READVersionA.csv,"Read Version A","Dissertation, read only version A",AFFECTION,LOVE,Study2,F,115,116,Study,8,8,,Study/JOL,"Study Phase2",8003,,,-1,-1,,,,1
w10123816_lac,462nsxt8vd,Nick_Dissertation_EX1_EP,1,191,2021-12-01T14:49:36+00:00,8.2525360584259,1,versionA_stim.csv,READVersionA.csv,"Read Version A","Dissertation, read only version A",DINE,EAT,Study2,F,111,113,Study,8,8,,Study/JOL,"Study Phase2",8006,,,-1,-1,,,,1
w10123816_lac,462nsxt8vd,Nick_Dissertation_EX1_EP,1,192,2021-12-01T14:49:44+00:00,8.2411789894104,1,versionA_stim.csv,READVersionA.csv,"Read Version A","Dissertation, read only version A",THREAD,THIMBLE,Study2,B,121,117,Study,8,8,,Study/JOL,"Study Phase2",8003,,,-1,-1,,,,1
w10123816_lac,462nsxt8vd,Nick_Dissertation_EX1_EP,1,193,2021-12-01T14:49:52+00:00,8.2306768894196,1,versionA_stim.csv,READVersionA.csv,"Read Version A","Dissertation, read only version A",OWN,HAVE,Study2,S,153,147,Study,8,8,,Study/JOL,"Study Phase2",8002,,,-1,-1,,,,1
w10123816_lac,462nsxt8vd,Nick_Dissertation_EX1_EP,1,194,2021-12-01T14:50:01+00:00,8.2622311115265,1,versionA_stim.csv,READVersionA.csv,"Read Version A","Dissertation, read only version A",NAME,HATE,Study2,U,167,159,Study,8,8,,Study/JOL,"Study Phase2",8001,,,-1,-1,,,,1
w10123816_lac,462nsxt8vd,Nick_Dissertation_EX1_EP,1,195,2021-12-01T14:50:09+00:00,8.2320020198822,1,versionA_stim.csv,READVersionA.csv,"Read Version A","Dissertation, read only version A",CHERRY,RED,Study2,F,104,144,Study,8,8,,Study/JOL,"Study Phase2",8002,,,-1,-1,,,,1
w10123816_lac,462nsxt8vd,Nick_Dissertation_EX1_EP,1,196,2021-12-01T14:50:17+00:00,8.249330997467,1,versionA_stim.csv,READVersionA.csv,"Read Version A","Dissertation, read only version A",CACTUS,PLANT,Study2,F,98,124,Study,8,8,,Study/JOL,"Study Phase2",8003,,,-1,-1,,,,1
w10123816_lac,462nsxt8vd,Nick_Dissertation_EX1_EP,1,197,2021-12-01T14:50:25+00:00,8.2313778400421,1,versionA_stim.csv,READVersionA.csv,"Read Version A","Dissertation, read only version A",SLEEP,NAP,Study2,B,134,97,Study,8,8,,Study/JOL,"Study Phase2",8001,,,-1,-1,,,,1
w10123816_lac,462nsxt8vd,Nick_Dissertation_EX1_EP,1,198,2021-12-01T14:50:34+00:00,8.286288022995,1,versionA_stim.csv,READVersionA.csv,"Read Version A","Dissertation, read only version A",EXTENSION,LONG,Study2,F,96,143,Study,8,8,,Study/JOL,"Study Phase2",8003,,,-1,-1,,,,1
w10123816_lac,462nsxt8vd,Nick_Dissertation_EX1_EP,1,199,2021-12-01T14:50:42+00:00,8.2476119995117,1,versionA_stim.csv,READVersionA.csv,"Read Version A","Dissertation, read only version A",SAFETY,SEATBELT,Study2,S,147,102,Study,8,8,,Study/JOL,"Study Phase2",8008,,,-1,-1,,,,1
w10123816_lac,462nsxt8vd,Nick_Dissertation_EX1_EP,1,200,2021-12-01T14:50:50+00:00,8.2649080753326,1,versionA_stim.csv,READVersionA.csv,"Read Version A","Dissertation, read only version A",DRY,WET,Study2,S,146,135,Study,8,8,,Study/JOL,"Study Phase2",8005,,,-1,-1,,,,0.893
w10123816_lac,462nsxt8vd,Nick_Dissertation_EX1_EP,1,201,2021-12-01T14:50:58+00:00,8.2385189533234,1,versionA_stim.csv,READVersionA.csv,"Read Version A","Dissertation, read only version A",SCALP,HEAD,Study2,F,105,137,Study,8,8,,Study/JOL,"Study Phase2",8014,,,-1,-1,,,,1
w10123816_lac,462nsxt8vd,Nick_Dissertation_EX1_EP,1,202,2021-12-01T14:51:07+00:00,8.253396987915,1,versionA_stim.csv,READVersionA.csv,"Read Version A","Dissertation, read only version A",CANDLE,WAX,Study2,S,139,167,Study,8,8,,Study/JOL,"Study Phase2",8012,,,-1,-1,,,,1
w10123816_lac,462nsxt8vd,Nick_Dissertation_EX1_EP,1,203,2021-12-01T14:51:15+00:00,8.3862080574036,1,versionA_stim.csv,READVersionA.csv,"Read Version A","Dissertation, read only version A",POP,BALLOON,Study2,B,123,120,Study,8,8,,Study/JOL,"Study Phase2",8014,,,-1,-1,,,,1
w10123816_lac,462nsxt8vd,Nick_Dissertation_EX1_EP,1,204,2021-12-01T14:51:24+00:00,8.599536895752,1,versionA_stim.csv,READVersionA.csv,"Read Version A","Dissertation, read only version A",MAZE,ELECTION,Study2,U,159,99,Study,8,8,,Study/JOL,"Study Phase2",8024,,,-1,-1,,,,1
w10123816_lac,462nsxt8vd,Nick_Dissertation_EX1_EP,1,205,2021-12-01T14:51:32+00:00,8.2777869701385,1,versionA_stim.csv,READVersionA.csv,"Read Version A","Dissertation, read only version A",JUSTICE,MAROON,Study2,U,156,145,Study,8,8,,Study/JOL,"Study Phase2",8009,,,-1,-1,,,,1
w10123816_lac,462nsxt8vd,Nick_Dissertation_EX1_EP,1,206,2021-12-01T14:51:40+00:00,8.2392621040344,1,versionA_stim.csv,READVersionA.csv,"Read Version A","Dissertation, read only version A",MAIN,SCAR,Study2,U,175,141,Study,8,8,,Study/JOL,"Study Phase2",8010,,,-1,-1,,,,1
w10123816_lac,462nsxt8vd,Nick_Dissertation_EX1_EP,1,207,2021-12-01T14:51:48+00:00,8.2678689956665,1,versionA_stim.csv,READVersionA.csv,"Read Version A","Dissertation, read only version A",STAR,ACTRESS,Study2,B,120,104,Study,8,8,,Study/JOL,"Study Phase2",8020,,,-1,-1,,,,1
w10123816_lac,462nsxt8vd,Nick_Dissertation_EX1_EP,1,208,2021-12-01T14:51:57+00:00,8.235053062439,1,versionA_stim.csv,READVersionA.csv,"Read Version A","Dissertation, read only version A",PLANE,AIRCRAFT,Study2,B,129,121,Study,8,8,,Study/JOL,"Study Phase2",8004,,,-1,-1,,,,1
w10123816_lac,462nsxt8vd,Nick_Dissertation_EX1_EP,1,209,2021-12-01T14:52:05+00:00,8.2562980651855,1,versionA_stim.csv,READVersionA.csv,"Read Version A","Dissertation, read only version A",GONE,AWAY,Study2,S,142,136,Study,8,8,,Study/JOL,"Study Phase2",8014,,,-1,-1,,,,1
w10123816_lac,462nsxt8vd,Nick_Dissertation_EX1_EP,1,210,2021-12-01T14:52:13+00:00,8.2529878616333,1,versionA_stim.csv,READVersionA.csv,"Read Version A","Dissertation, read only version A",FIGHT,BRAWL,Study2,B,135,149,Study,8,8,,Study/JOL,"Study Phase2",8006,,,-1,-1,,,,1
w10123816_lac,462nsxt8vd,Nick_Dissertation_EX1_EP,1,211,2021-12-01T14:52:21+00:00,8.2463710308075,1,versionA_stim.csv,READVersionA.csv,"Read Version A","Dissertation, read only version A",LITTER,TRASH,Study2,F,103,110,Study,8,8,,Study/JOL,"Study Phase2",8003,,,-1,-1,,,,1
w10123816_lac,462nsxt8vd,Nick_Dissertation_EX1_EP,1,212,2021-12-01T14:52:30+00:00,8.2433850765228,1,versionA_stim.csv,READVersionA.csv,"Read Version A","Dissertation, read only version A",BOTH,OUNCE,Study2,U,172,163,Study,8,8,,Study/JOL,"Study Phase2",8009,,,-1,-1,,,,1
w10123816_lac,462nsxt8vd,Nick_Dissertation_EX1_EP,1,213,2021-12-01T14:52:38+00:00,8.243558883667,1,versionA_stim.csv,READVersionA.csv,"Read Version A","Dissertation, read only version A",SUN,TAN,Study2,S,155,170,Study,8,8,,Study/JOL,"Study Phase2",8011,,,-1,-1,,,,1
w10123816_lac,462nsxt8vd,Nick_Dissertation_EX1_EP,1,214,2021-12-01T14:52:46+00:00,8.2822351455688,1,versionA_stim.csv,READVersionA.csv,"Read Version A","Dissertation, read only version A",BASEBALL,LEAGUE,Study2,B,131,171,Study,8,8,,Study/JOL,"Study Phase2",8026,,,-1,-1,,,,1
w10123816_lac,462nsxt8vd,Nick_Dissertation_EX1_EP,1,215,2021-12-01T14:52:54+00:00,8.2659039497375,1,versionA_stim.csv,READVersionA.csv,"Read Version A","Dissertation, read only version A",LOAN,SIGN,Study2,U,171,156,Study,8,8,,Study/JOL,"Study Phase2",8018,,,-1,-1,,,,1
w10123816_lac,462nsxt8vd,Nick_Dissertation_EX1_EP,1,216,2021-12-01T14:53:03+00:00,8.2525780200958,1,versionA_stim.csv,READVersionA.csv,"Read Version A","Dissertation, read only version A",GIVE,STEAK,Study2,U,158,103,Study,8,8,,Study/JOL,"Study Phase2",8002,,,-1,-1,,,,1
w10123816_lac,462nsxt8vd,Nick_Dissertation_EX1_EP,1,217,2021-12-01T14:53:11+00:00,8.2271399497986,1,versionA_stim.csv,READVersionA.csv,"Read Version A","Dissertation, read only version A",CAT,PANTHER,Study2,B,126,150,Study,8,8,,Study/JOL,"Study Phase2",8002,,,-1,-1,,,,1
w10123816_lac,462nsxt8vd,Nick_Dissertation_EX1_EP,1,218,2021-12-01T14:53:19+00:00,8.2407069206238,1,versionA_stim.csv,READVersionA.csv,"Read Version A","Dissertation, read only version A",BAD,VILLAIN,Study2,B,118,174,Study,8,8,,Study/JOL,"Study Phase2",8003,,,-1,-1,,,,1
w10123816_lac,462nsxt8vd,Nick_Dissertation_EX1_EP,1,219,2021-12-01T14:53:27+00:00,8.2408831119537,1,versionA_stim.csv,READVersionA.csv,"Read Version A","Dissertation, read only version A",TRUTH,LIE,Study2,S,148,106,Study,8,8,,Study/JOL,"Study Phase2",8002,,,-1,-1,,,,1
w10123816_lac,462nsxt8vd,Nick_Dissertation_EX1_EP,1,220,2021-12-01T14:53:36+00:00,8.3448100090027,1,versionA_stim.csv,READVersionA.csv,"Read Version A","Dissertation, read only version A",CAKE,CLOTHES,Study2,U,166,100,Study,8,8,,Study/JOL,"Study Phase2",8003,,,-1,-1,,,,1
w10123816_lac,462nsxt8vd,Nick_Dissertation_EX1_EP,1,221,2021-12-01T14:53:45+00:00,8.9292299747467,1,versionA_stim.csv,READVersionA.csv,"Read Version A","Dissertation, read only version A",TURN,FLIP,Study2,B,116,115,Study,8,8,,Study/JOL,"Study Phase2",8002,,,-1,-1,,,,1
w10123816_lac,462nsxt8vd,Nick_Dissertation_EX1_EP,1,222,2021-12-01T14:53:53+00:00,8.2402698993683,1,versionA_stim.csv,READVersionA.csv,"Read Version A","Dissertation, read only version A",MONEY,BANKER,Study2,B,132,168,Study,8,8,,Study/JOL,"Study Phase2",8002,,,-1,-1,,,,1
w10123816_lac,462nsxt8vd,Nick_Dissertation_EX1_EP,1,223,2021-12-01T14:54:01+00:00,8.2473039627075,1,versionA_stim.csv,READVersionA.csv,"Read Version A","Dissertation, read only version A",RAZOR,SHAVE,Study2,S,136,118,Study,8,8,,Study/JOL,"Study Phase2",8016,,,-1,-1,,,,1
w10123816_lac,462nsxt8vd,Nick_Dissertation_EX1_EP,1,224,2021-12-01T14:54:09+00:00,8.2370340824127,1,versionA_stim.csv,READVersionA.csv,"Read Version A","Dissertation, read only version A",SHOELACE,TIE,Study2,F,99,132,Study,8,8,,Study/JOL,"Study Phase2",8003,,,-1,-1,,,,1
w10123816_lac,462nsxt8vd,Nick_Dissertation_EX1_EP,1,225,2021-12-01T14:54:18+00:00,8.2489531040192,1,versionA_stim.csv,READVersionA.csv,"Read Version A","Dissertation, read only version A",FLEA,TICK,Study2,S,151,112,Study,8,8,,Study/JOL,"Study Phase2",8003,,,-1,-1,,,,1
w10123816_lac,462nsxt8vd,Nick_Dissertation_EX1_EP,1,226,2021-12-01T14:54:26+00:00,8.2525157928467,1,versionA_stim.csv,READVersionA.csv,"Read Version A","Dissertation, read only version A",KEYS,JOKE,Study2,U,165,175,Study,8,8,,Study/JOL,"Study Phase2",8005,,,-1,-1,,,,1
w10123816_lac,462nsxt8vd,Nick_Dissertation_EX1_EP,1,227,2021-12-01T14:54:34+00:00,8.2454450130463,1,versionA_stim.csv,READVersionA.csv,"Read Version A","Dissertation, read only version A",ALONE,LONELY,Study2,S,145,111,Study,8,8,,Study/JOL,"Study Phase2",8003,,,-1,-1,,,,1
w10123816_lac,462nsxt8vd,Nick_Dissertation_EX1_EP,1,228,2021-12-01T14:54:42+00:00,8.2947151660919,1,versionA_stim.csv,READVersionA.csv,"Read Version A","Dissertation, read only version A",MULE,DONKEY,Study2,F,108,169,Study,8,8,,Study/JOL,"Study Phase2",8005,,,-1,-1,,,,1
w10123816_lac,462nsxt8vd,Nick_Dissertation_EX1_EP,1,229,2021-12-01T14:54:51+00:00,8.2420139312744,1,versionA_stim.csv,READVersionA.csv,"Read Version A","Dissertation, read only version A",PHONE,COMMUNICATION,Study2,S,149,109,Study,8,8,,Study/JOL,"Study Phase2",8003,,,-1,-1,,,,1
w10123816_lac,462nsxt8vd,Nick_Dissertation_EX1_EP,1,230,2021-12-01T14:54:59+00:00,8.2480161190033,1,versionA_stim.csv,READVersionA.csv,"Read Version A","Dissertation, read only version A",HONEST,TRUTHFUL,Study2,B,133,107,Study,8,8,,Study/JOL,"Study Phase2",8002,,,-1,-1,,,,1
w10123816_lac,462nsxt8vd,Nick_Dissertation_EX1_EP,1,231,2021-12-01T14:55:08+00:00,8.7000589370728,1,versionA_stim.csv,READVersionA.csv,"Read Version A","Dissertation, read only version A",ROD,REEL,Study2,S,150,157,Study,8,8,,Study/JOL,"Study Phase2",8003,,,-1,-1,,,,1
w10123816_lac,462nsxt8vd,Nick_Dissertation_EX1_EP,1,232,2021-12-01T14:55:16+00:00,8.3267638683319,1,versionA_stim.csv,READVersionA.csv,"Read Version A","Dissertation, read only version A",Shell,SHAKE,Study2,U,163,173,Study,8,8,,Study/JOL,"Study Phase2",8003,,,-1,-1,,,,1
w10123816_lac,462nsxt8vd,Nick_Dissertation_EX1_EP,1,233,2021-12-01T14:55:24+00:00,8.2461290359497,1,versionA_stim.csv,READVersionA.csv,"Read Version A","Dissertation, read only version A",WATER,DRINK,Study2,S,143,119,Study,8,8,,Study/JOL,"Study Phase2",8006,,,-1,-1,,,,1
w10123816_lac,462nsxt8vd,Nick_Dissertation_EX1_EP,1,234,2021-12-01T14:55:32+00:00,8.2439739704132,1,versionA_stim.csv,READVersionA.csv,"Read Version A","Dissertation, read only version A",STRETCH,CLOTH,Study2,U,157,133,Study,8,8,,Study/JOL,"Study Phase2",8002,,,-1,-1,,,,1
w10123816_lac,462nsxt8vd,Nick_Dissertation_EX1_EP,1,235,2021-12-01T14:55:41+00:00,8.2405540943146,1,versionA_stim.csv,READVersionA.csv,"Read Version A","Dissertation, read only version A",FUZZY,BANG,Study2,U,168,127,Study,8,8,,Study/JOL,"Study Phase2",8006,,,-1,-1,,,,1
w10123816_lac,462nsxt8vd,Nick_Dissertation_EX1_EP,1,236,2021-12-01T14:55:49+00:00,8.2536039352417,1,versionA_stim.csv,READVersionA.csv,"Read Version A","Dissertation, read only version A",EARTH,GROUND,Study2,S,144,142,Study,8,8,,Study/JOL,"Study Phase2",8002,,,-1,-1,,,,1
w10123816_lac,462nsxt8vd,Nick_Dissertation_EX1_EP,1,237,2021-12-01T14:55:57+00:00,8.2548649311066,1,versionA_stim.csv,READVersionA.csv,"Read Version A","Dissertation, read only version A",INCENSE,SMELL,Study2,F,110,98,Study,8,8,,Study/JOL,"Study Phase2",8002,,,-1,-1,,,,1
w10123816_lac,462nsxt8vd,Nick_Dissertation_EX1_EP,1,238,2021-12-01T14:56:05+00:00,8.2800931930542,1,versionA_stim.csv,READVersionA.csv,"Read Version A","Dissertation, read only version A",EVEN,REVENGE,Study2,B,122,165,Study,8,8,,Study/JOL,"Study Phase2",8003,,,-1,-1,,,,1
w10123816_lac,462nsxt8vd,Nick_Dissertation_EX1_EP,1,239,2021-12-01T14:56:14+00:00,8.2368910312653,1,versionA_stim.csv,READVersionA.csv,"Read Version A","Dissertation, read only version A",ELEMENT,CARBON,Study2,S,141,166,Study,8,8,,Study/JOL,"Study Phase2",8002,,,-1,-1,,,,1
w10123816_lac,462nsxt8vd,Nick_Dissertation_EX1_EP,1,240,2021-12-01T14:56:22+00:00,8.2316288948059,1,versionA_stim.csv,READVersionA.csv,"Read Version A","Dissertation, read only version A",SHEARS,SCISSORS,Study2,F,112,114,Study,8,8,,Study/JOL,"Study Phase2",8003,,,-1,-1,,,,1
w10123816_lac,462nsxt8vd,Nick_Dissertation_EX1_EP,1,241,2021-12-01T14:56:30+00:00,8.2350718975067,1,versionA_stim.csv,READVersionA.csv,"Read Version A","Dissertation, read only version A",FRUIT,STRAWBERRY,Study2,B,124,105,Study,8,8,,Study/JOL,"Study Phase2",8002,,,-1,-1,,,,1
w10123816_lac,462nsxt8vd,Nick_Dissertation_EX1_EP,1,242,2021-12-01T14:56:38+00:00,8.2425961494446,1,versionA_stim.csv,READVersionA.csv,"Read Version A","Dissertation, read only version A",DETECTIVE,MYSTERY,Study2,F,100,123,Study,8,8,,Study/JOL,"Study Phase2",8006,,,-1,-1,,,,1
w10123816_lac,462nsxt8vd,Nick_Dissertation_EX1_EP,1,243,2021-12-01T14:56:47+00:00,8.2429859638214,1,versionA_stim.csv,READVersionA.csv,"Read Version A","Dissertation, read only version A",RIGHTS,EQUAL,Study2,S,137,160,Study,8,8,,Study/JOL,"Study Phase2",8003,,,-1,-1,,,,1
w10123816_lac,462nsxt8vd,Nick_Dissertation_EX1_EP,1,244,2021-12-01T14:56:55+00:00,8.2446708679199,1,versionA_stim.csv,READVersionA.csv,"Read Version A","Dissertation, read only version A",LISTEN,FICTION,Study2,U,164,153,Study,8,8,,Study/JOL,"Study Phase2",8006,,,-1,-1,,,,1
w10123816_lac,462nsxt8vd,Nick_Dissertation_EX1_EP,1,245,2021-12-01T14:57:03+00:00,8.2806351184845,1,versionA_stim.csv,READVersionA.csv,"Read Version A","Dissertation, read only version A",ADJOURN,END,Study2,F,101,140,Study,8,8,,Study/JOL,"Study Phase2",8005,,,-1,-1,,,,1
w10123816_lac,462nsxt8vd,Nick_Dissertation_EX1_EP,1,246,2021-12-01T14:57:11+00:00,8.2322080135345,1,versionA_stim.csv,READVersionA.csv,"Read Version A","Dissertation, read only version A",MOAT,CLEAR,Study2,U,169,155,Study,8,8,,Study/JOL,"Study Phase2",8002,,,-1,-1,,,,1
w10123816_lac,462nsxt8vd,Nick_Dissertation_EX1_EP,1,247,2021-12-01T14:57:20+00:00,8.2557530403137,1,versionA_stim.csv,READVersionA.csv,"Read Version A","Dissertation, read only version A",FEUD,FIGHT,Study2,F,113,176,Study,8,8,,Study/JOL,"Study Phase2",8003,,,-1,-1,,,,1
w10123816_lac,462nsxt8vd,Nick_Dissertation_EX1_EP,1,248,2021-12-01T14:57:28+00:00,8.256954908371,1,versionA_stim.csv,READVersionA.csv,"Read Version A","Dissertation, read only version A",WRIST,BRACELET,Study2,S,140,125,Study,8,8,,Study/JOL,"Study Phase2",8002,,,-1,-1,,,,1
w10123816_lac,462nsxt8vd,Nick_Dissertation_EX1_EP,1,249,2021-12-01T14:57:36+00:00,8.2611191272736,1,versionA_stim.csv,READVersionA.csv,"Read Version A","Dissertation, read only version A",MIRROR,CHILDREN,Study2,U,174,139,Study,8,8,,Study/JOL,"Study Phase2",8003,,,-1,-1,,,,1
w10123816_lac,462nsxt8vd,Nick_Dissertation_EX1_EP,1,250,2021-12-01T14:57:44+00:00,8.2763669490814,1,versionA_stim.csv,READVersionA.csv,"Read Version A","Dissertation, read only version A",CRACKLE,ABLE,Study2,U,162,108,Study,8,8,,Study/JOL,"Study Phase2",8002,,,-1,-1,,,,1
w10123816_lac,462nsxt8vd,Nick_Dissertation_EX1_EP,1,251,2021-12-01T14:57:53+00:00,8.3289730548859,1,versionA_stim.csv,READVersionA.csv,"Read Version A","Dissertation, read only version A",MEAT,OBTAIN,Study2,U,161,131,Study,8,8,,Study/JOL,"Study Phase2",8002,,,-1,-1,,,,1
w10123816_lac,462nsxt8vd,Nick_Dissertation_EX1_EP,1,252,2021-12-01T14:58:01+00:00,8.3264169692993,1,versionA_stim.csv,READVersionA.csv,"Read Version A","Dissertation, read only version A",FURRY,DOG,Study2,F,102,164,Study,8,8,,Study/JOL,"Study Phase2",8002,,,-1,-1,,,,1
w10123816_lac,462nsxt8vd,Nick_Dissertation_EX1_EP,1,253,2021-12-01T14:58:09+00:00,8.2463119029999,1,versionA_stim.csv,READVersionA.csv,"Read Version A","Dissertation, read only version A",TEMPERATURE,Morning,Study2,U,173,126,Study,8,8,,Study/JOL,"Study Phase2",8003,,,-1,-1,,,,1
w10123816_lac,462nsxt8vd,Nick_Dissertation_EX1_EP,1,254,2021-12-01T14:58:18+00:00,8.2368371486664,1,versionA_stim.csv,READVersionA.csv,"Read Version A","Dissertation, read only version A",LEASE,TOIL,Study2,U,170,129,Study,8,8,,Study/JOL,"Study Phase2",8003,,,-1,-1,,,,1
w10123816_lac,462nsxt8vd,Nick_Dissertation_EX1_EP,1,255,2021-12-01T14:58:26+00:00,8.2403078079224,1,versionA_stim.csv,READVersionA.csv,"Read Version A","Dissertation, read only version A",GLASS,BREAKABLE,Study2,B,127,152,Study,8,8,,Study/JOL,"Study Phase2",8005,,,-1,-1,,,,1
w10123816_lac,462nsxt8vd,Nick_Dissertation_EX1_EP,1,256,2021-12-01T14:58:34+00:00,8.2663111686707,1,versionA_stim.csv,READVersionA.csv,"Read Version A","Dissertation, read only version A",TANTRUM,TEMPER,Study2,S,154,122,Study,8,8,,Study/JOL,"Study Phase2",8005,,,-1,-1,,,,1
w10123816_lac,462nsxt8vd,Nick_Dissertation_EX1_EP,1,257,2021-12-01T14:58:42+00:00,8.2514238357544,1,versionA_stim.csv,READVersionA.csv,"Read Version A","Dissertation, read only version A",BEST,FAVORITE,Study2,B,125,146,Study,8,8,,Study/JOL,"Study Phase2",8003,,,-1,-1,,,,1
w10123816_lac,462nsxt8vd,Nick_Dissertation_EX1_EP,1,258,2021-12-01T14:58:51+00:00,8.2444121837616,1,versionA_stim.csv,READVersionA.csv,"Read Version A","Dissertation, read only version A",CAR,WINDSHIELD,Study2,B,117,158,Study,8,8,,Study/JOL,"Study Phase2",8003,,,-1,-1,,,,1
w10123816_lac,462nsxt8vd,Nick_Dissertation_EX1_EP,1,259,2021-12-01T14:58:59+00:00,8.2412128448486,1,versionA_stim.csv,READVersionA.csv,"Read Version A","Dissertation, read only version A",LOUD,NOISE,Study2,S,152,130,Study,8,8,,Study/JOL,"Study Phase2",8016,,,-1,-1,,,,1
w10123816_lac,462nsxt8vd,Nick_Dissertation_EX1_EP,1,260,2021-12-01T14:59:07+00:00,8.2360410690308,1,versionA_stim.csv,READVersionA.csv,"Read Version A","Dissertation, read only version A",CLUE,GAME,Study2,F,97,154,Study,8,8,,Study/JOL,"Study Phase2",8003,,,-1,-1,,,,1
w10123816_lac,462nsxt8vd,Nick_Dissertation_EX1_EP,1,261,2021-12-01T14:59:15+00:00,8.2550010681152,1,versionA_stim.csv,READVersionA.csv,"Read Version A","Dissertation, read only version A",VEHICLE,CHARM,Study2,U,160,151,Study,8,8,,Study/JOL,"Study Phase2",8005,,,-1,-1,,,,1
w10123816_lac,462nsxt8vd,Nick_Dissertation_EX1_EP,1,262,2021-12-01T14:59:24+00:00,8.2526838779449,1,versionA_stim.csv,READVersionA.csv,"Read Version A","Dissertation, read only version A",BIRD,PENGUIN,Study2,B,119,128,Study,8,8,,Study/JOL,"Study Phase2",8004,,,-1,-1,,,,1
w10123816_lac,462nsxt8vd,Nick_Dissertation_EX1_EP,1,263,2021-12-01T14:59:32+00:00,8.2364709377289,1,versionA_stim.csv,READVersionA.csv,"Read Version A","Dissertation, read only version A",MASON,JAR,Study2,S,138,172,Study,8,8,,Study/JOL,"Study Phase2",8003,,,-1,-1,,,,1
w10123816_lac,462nsxt8vd,Nick_Dissertation_EX1_EP,1,264,2021-12-01T14:59:40+00:00,8.2576031684875,1,versionA_stim.csv,READVersionA.csv,"Read Version A","Dissertation, read only version A",TOOL,SHED,BUFFER4,Buffer,178,178,Study,8,8,,Study/JOL,BUFFER4,8003,,,-1,-1,,,,1
w10123816_lac,462nsxt8vd,Nick_Dissertation_EX1_EP,1,265,2021-12-01T14:59:48+00:00,8.2643430233002,1,versionA_stim.csv,READVersionA.csv,"Read Version A","Dissertation, read only version A",MONTH,YEAR,BUFFER4,Buffer,177,181,Study,8,8,,Study/JOL,BUFFER4,8003,,,-1,-1,,,,1
w10123816_lac,462nsxt8vd,Nick_Dissertation_EX1_EP,1,266,2021-12-01T14:59:57+00:00,8.2423069477081,1,versionA_stim.csv,READVersionA.csv,"Read Version A","Dissertation, read only version A",SPRING,MARCH,BUFFER4,Buffer,179,177,Study,8,8,,Study/JOL,BUFFER4,8002,,,-1,-1,,,,1
w10123816_lac,462nsxt8vd,Nick_Dissertation_EX1_EP,1,267,2021-12-01T15:00:05+00:00,8.2472660541534,1,versionA_stim.csv,READVersionA.csv,"Read Version A","Dissertation, read only version A",OCTOBER,SPOOKY,BUFFER4,Buffer,180,179,Study,8,8,,Study/JOL,BUFFER4,8003,,,-1,-1,,,,1
w10123816_lac,462nsxt8vd,Nick_Dissertation_EX1_EP,1,268,2021-12-01T15:00:13+00:00,8.254695892334,1,versionA_stim.csv,READVersionA.csv,"Read Version A","Dissertation, read only version A",DAYS,WEAKS,BUFFER4,Buffer,176,180,Study,8,8,,Study/JOL,BUFFER4,8005,,,-1,-1,,,,1
w10123816_lac,462nsxt8vd,Nick_Dissertation_EX1_EP,1,269,2021-12-01T15:00:19+00:00,6.2146348953247,1,versionA_stim.csv,READVersionA.csv,"Read Version A","Dissertation, read only version A",,,,,,0,Instruct,User,-,"You have completed this section. Please press Enter.",Filler_Instruction,Instruct5,5954,,,-1,-1,,,,1
w10123816_lac,462nsxt8vd,Nick_Dissertation_EX1_EP,1,270,2021-12-01T15:02:20+00:00,120.28260016441,1,versionA_stim.csv,READVersionA.csv,"Read Version A","Dissertation, read only version A",,,,,,0,FreeRecall,120,120,"Please list the 50 US states in reverse alphabetical order (z - a). The task will automatically advance to the next screen after two minutes.",,Filler2,120007,"Wyoming, West Virginia, Washington, Virginia, Seattle, South Carolina, Tennessee, Texas, Utah, ",0,23767,114123,0,0,,1
w10123816_lac,462nsxt8vd,Nick_Dissertation_EX1_EP,1,271,2021-12-01T15:02:31+00:00,11.506844997406,1,versionA_stim.csv,READVersionA.csv,"Read Version A","Dissertation, read only version A",,,,,,0,Instruct,-,10,"You will now be presented with the first word from each of the previously studied item pairs. Please type the missing word. If you do not know the word, you may guess or press Enter to skip forward to the next pair.",,Instruct6,11261,,,-1,-1,,,,0.018
w10123816_lac,462nsxt8vd,Nick_Dissertation_EX1_EP,1,272,2021-12-01T15:02:35+00:00,3.7671840190887,1,versionA_stim.csv,READVersionA.csv,"Read Version A","Dissertation, read only version A",WRIST,BRACELET,Study2,S,140,125,Test,User,-,,Recall,Recall2,3599,watch,30.769230769231,1913,2741,0,0,,1
w10123816_lac,462nsxt8vd,Nick_Dissertation_EX1_EP,1,273,2021-12-01T15:02:40+00:00,4.7023649215698,1,versionA_stim.csv,READVersionA.csv,"Read Version A","Dissertation, read only version A",CAT,PANTHER,Study2,B,126,150,Test,User,-,,Recall,Recall2,4473,claw,18.181818181818,2772,3620,0,0,,0.739
w10123816_lac,462nsxt8vd,Nick_Dissertation_EX1_EP,1,274,2021-12-01T15:02:43+00:00,3.7406311035156,1,versionA_stim.csv,READVersionA.csv,"Read Version A","Dissertation, read only version A",FUZZY,BANG,Study2,U,168,127,Test,User,-,,Recall,Recall2,3587,ball,50,1986,2772,0,0,,0.722
w10123816_lac,462nsxt8vd,Nick_Dissertation_EX1_EP,1,275,2021-12-01T15:02:49+00:00,5.5406699180603,1,versionA_stim.csv,READVersionA.csv,"Read Version A","Dissertation, read only version A",KEYS,JOKE,Study2,U,165,175,Test,User,-,,Recall,Recall2,5311,chain,0,3466,4506,0,0,,0.778
w10123816_lac,462nsxt8vd,Nick_Dissertation_EX1_EP,1,276,2021-12-01T15:02:53+00:00,3.9985580444336,1,versionA_stim.csv,READVersionA.csv,"Read Version A","Dissertation, read only version A",CHERRY,RED,Study2,F,104,144,Test,User,-,,Recall,Recall2,3835,red,100,2664,3018,1,1,,0.75
w10123816_lac,462nsxt8vd,Nick_Dissertation_EX1_EP,1,277,2021-12-01T15:02:57+00:00,3.881306886673,1,versionA_stim.csv,READVersionA.csv,"Read Version A","Dissertation, read only version A",MULE,DONKEY,Study2,F,108,169,Test,User,-,,Recall,Recall2,3738,donkey,100,1674,2914,1,1,,0.737
w10123816_lac,462nsxt8vd,Nick_Dissertation_EX1_EP,1,278,2021-12-01T15:03:01+00:00,4.4260351657867,1,versionA_stim.csv,READVersionA.csv,"Read Version A","Dissertation, read only version A",CHOP,CUT,Study2,F,107,101,Test,User,-,,Recall,Recall2,4073,cheese,22.222222222222,1845,3273,0,0,,0.714
w10123816_lac,462nsxt8vd,Nick_Dissertation_EX1_EP,1,279,2021-12-01T15:03:10+00:00,8.4741299152374,1,versionA_stim.csv,READVersionA.csv,"Read Version A","Dissertation, read only version A",MAIN,SCAR,Study2,U,175,141,Test,User,-,,Recall,Recall2,8223,"entrance ",16.666666666667,4669,6357,0,0,,0.857
w10123816_lac,462nsxt8vd,Nick_Dissertation_EX1_EP,1,280,2021-12-01T15:03:14+00:00,4.4657950401306,1,versionA_stim.csv,READVersionA.csv,"Read Version A","Dissertation, read only version A",BAD,VILLAIN,Study2,B,118,174,Test,User,-,,Recall,Recall2,4229,jail,36.363636363636,2686,3407,0,0,,0.773
w10123816_lac,462nsxt8vd,Nick_Dissertation_EX1_EP,1,281,2021-12-01T15:03:23+00:00,8.5943179130554,1,versionA_stim.csv,READVersionA.csv,"Read Version A","Dissertation, read only version A",EARTH,GROUND,Study2,S,144,142,Test,User,-,,Recall,Recall2,8361,planet,16.666666666667,5022,7515,0,0,,0.881
w10123816_lac,462nsxt8vd,Nick_Dissertation_EX1_EP,1,282,2021-12-01T15:03:27+00:00,4.225508928299,1,versionA_stim.csv,READVersionA.csv,"Read Version A","Dissertation, read only version A",CACTUS,PLANT,Study2,F,98,124,Test,User,-,,Recall,Recall2,3974,plant,100,1974,3076,1,1,,0.7
w10123816_lac,462nsxt8vd,Nick_Dissertation_EX1_EP,1,283,2021-12-01T15:03:33+00:00,6.5017302036285,1,versionA_stim.csv,READVersionA.csv,"Read Version A","Dissertation, read only version A",BASEBALL,LEAGUE,Study2,B,131,171,Test,User,-,,Recall,Recall2,6299,catcher,30.769230769231,2125,4126,0,0,,0.594
w10123816_lac,462nsxt8vd,Nick_Dissertation_EX1_EP,1,284,2021-12-01T15:03:41+00:00,7.3391609191895,1,versionA_stim.csv,READVersionA.csv,"Read Version A","Dissertation, read only version A",DRY,WET,Study2,S,146,135,Test,User,-,,Recall,Recall2,7089,wet,100,3794,6187,1,1,,1
w10123816_lac,462nsxt8vd,Nick_Dissertation_EX1_EP,1,285,2021-12-01T15:03:46+00:00,4.7430009841919,1,versionA_stim.csv,READVersionA.csv,"Read Version A","Dissertation, read only version A",DRIVER,CAR,Study2,F,106,161,Test,User,-,,Recall,Recall2,4505,taxi,28.571428571429,2516,3637,0,0,,0.739
w10123816_lac,462nsxt8vd,Nick_Dissertation_EX1_EP,1,286,2021-12-01T15:03:51+00:00,5.6161069869995,1,versionA_stim.csv,READVersionA.csv,"Read Version A","Dissertation, read only version A",BOTH,OUNCE,Study2,U,172,163,Test,User,-,,Recall,Recall2,5379,two,25,3850,4515,0,0,,0.778
w10123816_lac,462nsxt8vd,Nick_Dissertation_EX1_EP,1,287,2021-12-01T15:03:55+00:00,3.8720469474792,1,versionA_stim.csv,READVersionA.csv,"Read Version A","Dissertation, read only version A",CAKE,CLOTHES,Study2,U,166,100,Test,User,-,,Recall,Recall2,3713,batter,30.769230769231,1813,2921,0,0,,0.737
w10123816_lac,462nsxt8vd,Nick_Dissertation_EX1_EP,1,288,2021-12-01T15:04:00+00:00,5.4757931232452,1,versionA_stim.csv,READVersionA.csv,"Read Version A","Dissertation, read only version A",OWN,HAVE,Study2,S,153,147,Test,User,-,,Recall,Recall2,5248,mine,25,3597,4400,0,0,,0.815
w10123816_lac,462nsxt8vd,Nick_Dissertation_EX1_EP,1,289,2021-12-01T15:04:15+00:00,14.506245851517,1,versionA_stim.csv,READVersionA.csv,"Read Version A","Dissertation, read only version A",CHILL,COLD,Study2,F,114,138,Test,User,-,,Recall,Recall2,14252,cold,100,4332,5308,1,1,,0.931
w10123816_lac,462nsxt8vd,Nick_Dissertation_EX1_EP,1,290,2021-12-01T15:04:21+00:00,6.4003050327301,1,versionA_stim.csv,READVersionA.csv,"Read Version A","Dissertation, read only version A",FIGHT,BRAWL,Study2,B,135,149,Test,User,-,,Recall,Recall2,6157,bad,50,4137,5345,0,0,,0.806
w10123816_lac,462nsxt8vd,Nick_Dissertation_EX1_EP,1,291,2021-12-01T15:04:29+00:00,7.4894261360168,1,versionA_stim.csv,READVersionA.csv,"Read Version A","Dissertation, read only version A",INCENSE,SMELL,Study2,F,110,98,Test,User,-,,Recall,Recall2,7258,"license ",16.666666666667,3945,5092,0,0,,0.838
w10123816_lac,462nsxt8vd,Nick_Dissertation_EX1_EP,1,292,2021-12-01T15:04:34+00:00,5.3863458633423,1,versionA_stim.csv,READVersionA.csv,"Read Version A","Dissertation, read only version A",Shell,SHAKE,Study2,U,163,173,Test,User,-,,Recall,Recall2,5148,hard,44.444444444444,3619,4274,0,0,,0.769
w10123816_lac,462nsxt8vd,Nick_Dissertation_EX1_EP,1,293,2021-12-01T15:04:39+00:00,5.006679058075,1,versionA_stim.csv,READVersionA.csv,"Read Version A","Dissertation, read only version A",ELEMENT,CARBON,Study2,S,141,166,Test,User,-,,Recall,Recall2,4774,rock,40,1741,3784,0,0,,0.75
w10123816_lac,462nsxt8vd,Nick_Dissertation_EX1_EP,1,294,2021-12-01T15:04:43+00:00,3.4930188655853,1,versionA_stim.csv,READVersionA.csv,"Read Version A","Dissertation, read only version A",FURRY,DOG,Study2,F,102,164,Test,User,-,,Recall,Recall2,3322,cat,0,1985,2479,0,0,,0.706
w10123816_lac,462nsxt8vd,Nick_Dissertation_EX1_EP,1,295,2021-12-01T15:04:48+00:00,4.9495651721954,1,versionA_stim.csv,READVersionA.csv,"Read Version A","Dissertation, read only version A",RIGHTS,EQUAL,Study2,S,137,160,Test,User,-,,Recall,Recall2,4694,bill,22.222222222222,2744,3385,0,0,,0.792
w10123816_lac,462nsxt8vd,Nick_Dissertation_EX1_EP,1,296,2021-12-01T15:04:52+00:00,3.9657180309296,1,versionA_stim.csv,READVersionA.csv,"Read Version A","Dissertation, read only version A",AFFECTION,LOVE,Study2,F,115,116,Test,User,-,,Recall,Recall2,3822,kiss,0,2325,3028,0,0,,0.75
w10123816_lac,462nsxt8vd,Nick_Dissertation_EX1_EP,1,297,2021-12-01T15:04:55+00:00,3.292995929718,1,versionA_stim.csv,READVersionA.csv,"Read Version A","Dissertation, read only version A",TEMPERATURE,Morning,Study2,U,173,126,Test,User,-,,Recall,Recall2,3141,hot,20,1760,2288,0,0,,0.625
w10123816_lac,462nsxt8vd,Nick_Dissertation_EX1_EP,1,298,2021-12-01T15:04:59+00:00,3.6480278968811,1,versionA_stim.csv,READVersionA.csv,"Read Version A","Dissertation, read only version A",TANTRUM,TEMPER,Study2,S,154,122,Test,User,-,,Recall,Recall2,3507,child,0,1691,2604,0,0,,0.667
w10123816_lac,462nsxt8vd,Nick_Dissertation_EX1_EP,1,299,2021-12-01T15:05:03+00:00,3.9728691577911,1,versionA_stim.csv,READVersionA.csv,"Read Version A","Dissertation, read only version A",CAR,WINDSHIELD,Study2,B,117,158,Test,User,-,,Recall,Recall2,3822,driver,37.5,1725,3004,0,0,,0.75
w10123816_lac,462nsxt8vd,Nick_Dissertation_EX1_EP,1,300,2021-12-01T15:05:08+00:00,5.7543318271637,1,versionA_stim.csv,READVersionA.csv,"Read Version A","Dissertation, read only version A",BEST,FAVORITE,Study2,B,125,146,Test,User,-,,Recall,Recall2,5313,day,18.181818181818,3006,4408,0,0,,0.815
w10123816_lac,462nsxt8vd,Nick_Dissertation_EX1_EP,1,301,2021-12-01T15:05:14+00:00,5.2572660446167,1,versionA_stim.csv,READVersionA.csv,"Read Version A","Dissertation, read only version A",EVEN,REVENGE,Study2,B,122,165,Test,User,-,,Recall,Recall2,4968,odd,0,1773,4090,0,0,,0.76
w10123816_lac,462nsxt8vd,Nick_Dissertation_EX1_EP,1,302,2021-12-01T15:05:19+00:00,4.9197969436646,1,versionA_stim.csv,READVersionA.csv,"Read Version A","Dissertation, read only version A",CLUE,GAME,Study2,F,97,154,Test,User,-,,Recall,Recall2,4692,blue,25,1886,2846,0,0,,0.542
w10123816_lac,462nsxt8vd,Nick_Dissertation_EX1_EP,1,303,2021-12-01T15:05:22+00:00,3.1554110050201,1,versionA_stim.csv,READVersionA.csv,"Read Version A","Dissertation, read only version A",LITTER,TRASH,Study2,F,103,110,Test,User,-,,Recall,Recall2,2986,cat,25,1647,2148,0,0,,1
w10123816_lac,462nsxt8vd,Nick_Dissertation_EX1_EP,1,304,2021-12-01T15:05:25+00:00,3.351594209671,1,versionA_stim.csv,READVersionA.csv,"Read Version A","Dissertation, read only version A",SUN,TAN,Study2,S,155,170,Test,User,-,,Recall,Recall2,3207,moon,28.571428571429,1644,2376,0,0,,0.688
w10123816_lac,462nsxt8vd,Nick_Dissertation_EX1_EP,1,305,2021-12-01T15:05:31+00:00,5.7247488498688,1,versionA_stim.csv,READVersionA.csv,"Read Version A","Dissertation, read only version A",EXTENSION,LONG,Study2,F,96,143,Test,User,-,,Recall,Recall2,5510,cord,25,3270,4414,0,0,,0.786
w10123816_lac,462nsxt8vd,Nick_Dissertation_EX1_EP,1,306,2021-12-01T15:05:34+00:00,3.6822421550751,1,versionA_stim.csv,READVersionA.csv,"Read Version A","Dissertation, read only version A",JUSTICE,MAROON,Study2,U,156,145,Test,User,-,,Recall,Recall2,3538,law,22.222222222222,1984,2618,0,0,,0.667
w10123816_lac,462nsxt8vd,Nick_Dissertation_EX1_EP,1,307,2021-12-01T15:05:41+00:00,6.3511519432068,1,versionA_stim.csv,READVersionA.csv,"Read Version A","Dissertation, read only version A",DEAD,COFFIN,Study2,B,128,134,Test,User,-,,Recall,Recall2,6126,"business ",28.571428571429,3687,4689,0,0,,0.806
w10123816_lac,462nsxt8vd,Nick_Dissertation_EX1_EP,1,308,2021-12-01T15:05:46+00:00,4.8404099941254,1,versionA_stim.csv,READVersionA.csv,"Read Version A","Dissertation, read only version A",DINE,EAT,Study2,F,111,113,Test,User,-,,Recall,Recall2,4602,food,0,3094,3837,0,0,,0.739
w10123816_lac,462nsxt8vd,Nick_Dissertation_EX1_EP,1,309,2021-12-01T15:05:50+00:00,4.3259270191193,1,versionA_stim.csv,READVersionA.csv,"Read Version A","Dissertation, read only version A",TRUTH,LIE,Study2,S,148,106,Test,User,-,,Recall,Recall2,4098,lie,100,2726,3283,1,1,,0.762
w10123816_lac,462nsxt8vd,Nick_Dissertation_EX1_EP,1,310,2021-12-01T15:05:57+00:00,6.8076829910278,1,versionA_stim.csv,READVersionA.csv,"Read Version A","Dissertation, read only version A",TURN,FLIP,Study2,B,116,115,Test,User,-,,Recall,Recall2,6567,"straight ",16.666666666667,3806,4819,0,0,,0.848
w10123816_lac,462nsxt8vd,Nick_Dissertation_EX1_EP,1,311,2021-12-01T15:06:11+00:00,14.491322040558,1,versionA_stim.csv,READVersionA.csv,"Read Version A","Dissertation, read only version A",CRACKLE,ABLE,Study2,U,162,108,Test,User,-,,Recall,Recall2,14246,barrel,40,11795,13325,0,0,,0.931
w10123816_lac,462nsxt8vd,Nick_Dissertation_EX1_EP,1,312,2021-12-01T15:06:19+00:00,7.8883249759674,1,versionA_stim.csv,READVersionA.csv,"Read Version A","Dissertation, read only version A",HONEST,TRUTHFUL,Study2,B,133,107,Test,User,-,,Recall,Recall2,7626,truth,76.923076923077,5848,6750,0,1,,0.744
w10123816_lac,462nsxt8vd,Nick_Dissertation_EX1_EP,1,313,2021-12-01T15:06:39+00:00,19.98317193985,1,versionA_stim.csv,READVersionA.csv,"Read Version A","Dissertation, read only version A",MASON,JAR,Study2,S,138,172,Test,User,-,,Recall,Recall2,19680,Kid,0,18337,18876,0,0,,0.929
w10123816_lac,462nsxt8vd,Nick_Dissertation_EX1_EP,1,314,2021-12-01T15:06:43+00:00,3.5099799633026,1,versionA_stim.csv,READVersionA.csv,"Read Version A","Dissertation, read only version A",SAFETY,SEATBELT,Study2,S,147,102,Test,User,-,,Recall,Recall2,3345,belt,66.666666666667,1720,2556,0,0,,0.647
w10123816_lac,462nsxt8vd,Nick_Dissertation_EX1_EP,1,315,2021-12-01T15:06:47+00:00,4.7598941326141,1,versionA_stim.csv,READVersionA.csv,"Read Version A","Dissertation, read only version A",PHONE,COMMUNICATION,Study2,S,149,109,Test,User,-,,Recall,Recall2,4549,number,10.526315789474,2343,3708,0,0,,0.739
w10123816_lac,462nsxt8vd,Nick_Dissertation_EX1_EP,1,316,2021-12-01T15:06:52+00:00,4.7718048095703,1,versionA_stim.csv,READVersionA.csv,"Read Version A","Dissertation, read only version A",SHOELACE,TIE,Study2,F,99,132,Test,User,-,,Recall,Recall2,4541,shoe,28.571428571429,2899,3696,0,0,,0.739
w10123816_lac,462nsxt8vd,Nick_Dissertation_EX1_EP,1,317,2021-12-01T15:06:57+00:00,4.4908850193024,1,versionA_stim.csv,READVersionA.csv,"Read Version A","Dissertation, read only version A",MIRROR,CHILDREN,Study2,U,174,139,Test,User,-,,Recall,Recall2,4243,child,76.923076923077,2302,3391,0,1,,0.727
w10123816_lac,462nsxt8vd,Nick_Dissertation_EX1_EP,1,318,2021-12-01T15:07:02+00:00,4.8990170955658,1,versionA_stim.csv,READVersionA.csv,"Read Version A","Dissertation, read only version A",VEHICLE,CHARM,Study2,U,160,151,Test,User,-,,Recall,Recall2,4657,belt,0,2919,3845,0,0,,0.792
w10123816_lac,462nsxt8vd,Nick_Dissertation_EX1_EP,1,319,2021-12-01T15:07:06+00:00,3.9825739860535,1,versionA_stim.csv,READVersionA.csv,"Read Version A","Dissertation, read only version A",FRUIT,STRAWBERRY,Study2,B,124,105,Test,User,-,,Recall,Recall2,3820,cherry,50,1950,3024,0,0,,0.75
w10123816_lac,462nsxt8vd,Nick_Dissertation_EX1_EP,1,320,2021-12-01T15:07:11+00:00,4.9836049079895,1,versionA_stim.csv,READVersionA.csv,"Read Version A","Dissertation, read only version A",FLEA,TICK,Study2,S,151,112,Test,User,-,,Recall,Recall2,4742,market,20,2604,3954,0,0,,0.75
w10123816_lac,462nsxt8vd,Nick_Dissertation_EX1_EP,1,321,2021-12-01T15:07:15+00:00,4.1798491477966,1,versionA_stim.csv,READVersionA.csv,"Read Version A","Dissertation, read only version A",MOAT,CLEAR,Study2,U,169,155,Test,User,-,,Recall,Recall2,3949,boat,22.222222222222,2215,3099,0,0,,0.75
w10123816_lac,462nsxt8vd,Nick_Dissertation_EX1_EP,1,322,2021-12-01T15:07:22+00:00,7.6500728130341,1,versionA_stim.csv,READVersionA.csv,"Read Version A","Dissertation, read only version A",LISTEN,FICTION,Study2,U,164,153,Test,User,-,,Recall,Recall2,7402,call,18.181818181818,5778,6591,0,0,,0.838
w10123816_lac,462nsxt8vd,Nick_Dissertation_EX1_EP,1,323,2021-12-01T15:07:25+00:00,3.1183252334595,1,versionA_stim.csv,READVersionA.csv,"Read Version A","Dissertation, read only version A",CANDLE,WAX,Study2,S,139,167,Test,User,-,,Recall,Recall2,2944,wax,100,1664,2127,1,1,,0.667
w10123816_lac,462nsxt8vd,Nick_Dissertation_EX1_EP,1,324,2021-12-01T15:07:41+00:00,15.145486831665,1,versionA_stim.csv,READVersionA.csv,"Read Version A","Dissertation, read only version A",NAME,HATE,Study2,U,167,159,Test,User,-,,Recall,Recall2,14914,paper,44.444444444444,12540,14053,0,0,,0.92
w10123816_lac,462nsxt8vd,Nick_Dissertation_EX1_EP,1,325,2021-12-01T15:07:44+00:00,3.5778751373291,1,versionA_stim.csv,READVersionA.csv,"Read Version A","Dissertation, read only version A",LEASE,TOIL,Study2,U,170,129,Test,User,-,,Recall,Recall2,3433,rebt,25,1867,2604,0,0,,0.667
w10123816_lac,462nsxt8vd,Nick_Dissertation_EX1_EP,1,326,2021-12-01T15:07:49+00:00,5.1119258403778,1,versionA_stim.csv,READVersionA.csv,"Read Version A","Dissertation, read only version A",ALONE,LONELY,Study2,S,145,111,Test,User,-,,Recall,Recall2,4902,sad,0,3601,3996,0,0,,0.72
w10123816_lac,462nsxt8vd,Nick_Dissertation_EX1_EP,1,327,2021-12-01T15:07:53+00:00,3.8828220367432,1,versionA_stim.csv,READVersionA.csv,"Read Version A","Dissertation, read only version A",THREAD,THIMBLE,Study2,B,121,117,Test,User,-,,Recall,Recall2,3733,needle,30.769230769231,1688,2924,0,0,,0.737
w10123816_lac,462nsxt8vd,Nick_Dissertation_EX1_EP,1,328,2021-12-01T15:07:57+00:00,3.8171701431274,1,versionA_stim.csv,READVersionA.csv,"Read Version A","Dissertation, read only version A",STRETCH,CLOTH,Study2,U,157,133,Test,User,-,,Recall,Recall2,3678,marks,0,1753,2909,0,0,,0.737
w10123816_lac,462nsxt8vd,Nick_Dissertation_EX1_EP,1,329,2021-12-01T15:08:08+00:00,11.444289922714,1,versionA_stim.csv,READVersionA.csv,"Read Version A","Dissertation, read only version A",FEUD,FIGHT,Study2,F,113,176,Test,User,-,,Recall,Recall2,11207,fight,100,9197,10300,1,1,,0.911
w10123816_lac,462nsxt8vd,Nick_Dissertation_EX1_EP,1,330,2021-12-01T15:08:12+00:00,4.0508880615234,1,versionA_stim.csv,READVersionA.csv,"Read Version A","Dissertation, read only version A",FISH,SARDINE,Study2,B,130,162,Test,User,-,,Recall,Recall2,3883,tuna,18.181818181818,1967,2746,0,0,,1
w10123816_lac,462nsxt8vd,Nick_Dissertation_EX1_EP,1,331,2021-12-01T15:08:18+00:00,5.8363988399506,1,versionA_stim.csv,READVersionA.csv,"Read Version A","Dissertation, read only version A",RAZOR,SHAVE,Study2,S,136,118,Test,User,-,,Recall,Recall2,5616,shave,100,3826,4805,1,1,,0.643
w10123816_lac,462nsxt8vd,Nick_Dissertation_EX1_EP,1,332,2021-12-01T15:08:23+00:00,4.6991159915924,1,versionA_stim.csv,READVersionA.csv,"Read Version A","Dissertation, read only version A",GIVE,STEAK,Study2,U,158,103,Test,User,-,,Recall,Recall2,4468,take,66.666666666667,2328,3414,0,0,,0.739
w10123816_lac,462nsxt8vd,Nick_Dissertation_EX1_EP,1,333,2021-12-01T15:08:28+00:00,5.345899105072,1,versionA_stim.csv,READVersionA.csv,"Read Version A","Dissertation, read only version A",BIRD,PENGUIN,Study2,B,119,128,Test,User,-,,Recall,Recall2,5124,bath,0,3485,4225,0,0,,0.769
w10123816_lac,462nsxt8vd,Nick_Dissertation_EX1_EP,1,334,2021-12-01T15:08:39+00:00,10.651748895645,1,versionA_stim.csv,READVersionA.csv,"Read Version A","Dissertation, read only version A",ADJOURN,END,Study2,F,101,140,Test,User,-,,Recall,Recall2,10414,food,28.571428571429,8730,9562,0,0,,0.887
w10123816_lac,462nsxt8vd,Nick_Dissertation_EX1_EP,1,335,2021-12-01T15:08:43+00:00,3.5914499759674,1,versionA_stim.csv,READVersionA.csv,"Read Version A","Dissertation, read only version A",MEAT,OBTAIN,Study2,U,161,131,Test,User,-,,Recall,Recall2,3438,wet,22.222222222222,2238,2616,0,0,,0.667
w10123816_lac,462nsxt8vd,Nick_Dissertation_EX1_EP,1,336,2021-12-01T15:08:46+00:00,3.1220171451569,1,versionA_stim.csv,READVersionA.csv,"Read Version A","Dissertation, read only version A",SCALP,HEAD,Study2,F,105,137,Test,User,-,,Recall,Recall2,2973,dry,28.571428571429,1716,2149,0,0,,0.6
w10123816_lac,462nsxt8vd,Nick_Dissertation_EX1_EP,1,337,2021-12-01T15:08:49+00:00,3.7519328594208,1,versionA_stim.csv,READVersionA.csv,"Read Version A","Dissertation, read only version A",WATER,DRINK,Study2,S,143,119,Test,User,-,,Recall,Recall2,3605,fire,22.222222222222,2001,2809,0,0,,0.667
w10123816_lac,462nsxt8vd,Nick_Dissertation_EX1_EP,1,338,2021-12-01T15:09:00+00:00,10.374867200851,1,versionA_stim.csv,READVersionA.csv,"Read Version A","Dissertation, read only version A",PLANE,AIRCRAFT,Study2,B,129,121,Test,User,-,,Recall,Recall2,8491,pilot,30.769230769231,6614,7527,0,0,,0.86
w10123816_lac,462nsxt8vd,Nick_Dissertation_EX1_EP,1,339,2021-12-01T15:09:05+00:00,5.4048969745636,1,versionA_stim.csv,READVersionA.csv,"Read Version A","Dissertation, read only version A",MONEY,BANKER,Study2,B,132,168,Test,User,-,,Recall,Recall2,5150,"amount ",33.333333333333,2553,3289,0,0,,0.692
w10123816_lac,462nsxt8vd,Nick_Dissertation_EX1_EP,1,340,2021-12-01T15:09:11+00:00,5.5956218242645,1,versionA_stim.csv,READVersionA.csv,"Read Version A","Dissertation, read only version A",SHEARS,SCISSORS,Study2,F,112,114,Test,User,-,,Recall,Recall2,5353,cut,18.181818181818,2220,4379,0,0,,0.704
w10123816_lac,462nsxt8vd,Nick_Dissertation_EX1_EP,1,341,2021-12-01T15:09:16+00:00,4.7564291954041,1,versionA_stim.csv,READVersionA.csv,"Read Version A","Dissertation, read only version A",POP,BALLOON,Study2,B,123,120,Test,User,-,,Recall,Recall2,4520,soda,18.181818181818,1774,3681,0,0,,0.739
w10123816_lac,462nsxt8vd,Nick_Dissertation_EX1_EP,1,342,2021-12-01T15:09:21+00:00,5.3979108333588,1,versionA_stim.csv,READVersionA.csv,"Read Version A","Dissertation, read only version A",LOAN,SIGN,Study2,U,171,156,Test,User,-,,Recall,Recall2,5172,bank,25,3522,4343,0,0,,0.808
w10123816_lac,462nsxt8vd,Nick_Dissertation_EX1_EP,1,343,2021-12-01T15:09:33+00:00,11.658882141113,1,versionA_stim.csv,READVersionA.csv,"Read Version A","Dissertation, read only version A",DOCUMENT,PAPER,Study2,F,109,148,Test,User,-,,Recall,Recall2,11405,paper,100,9108,10587,1,1,,0.754
w10123816_lac,462nsxt8vd,Nick_Dissertation_EX1_EP,1,344,2021-12-01T15:09:37+00:00,4.4375748634338,1,versionA_stim.csv,READVersionA.csv,"Read Version A","Dissertation, read only version A",SLEEP,NAP,Study2,B,134,97,Test,User,-,,Recall,Recall2,4195,bed,0,2891,3342,0,0,,0.714
w10123816_lac,462nsxt8vd,Nick_Dissertation_EX1_EP,1,345,2021-12-01T15:09:41+00:00,3.7011680603027,1,versionA_stim.csv,READVersionA.csv,"Read Version A","Dissertation, read only version A",STAR,ACTRESS,Study2,B,120,104,Test,User,-,,Recall,Recall2,3533,light,16.666666666667,1678,2677,0,0,,0.722
w10123816_lac,462nsxt8vd,Nick_Dissertation_EX1_EP,1,346,2021-12-01T15:09:47+00:00,6.4752759933472,1,versionA_stim.csv,READVersionA.csv,"Read Version A","Dissertation, read only version A",MAZE,ELECTION,Study2,U,159,99,Test,User,-,,Recall,Recall2,6245,crow,33.333333333333,4528,5413,0,0,,0.875
w10123816_lac,462nsxt8vd,Nick_Dissertation_EX1_EP,1,347,2021-12-01T15:09:55+00:00,7.5335819721222,1,versionA_stim.csv,READVersionA.csv,"Read Version A","Dissertation, read only version A",DETECTIVE,MYSTERY,Study2,F,100,123,Test,User,-,,Recall,Recall2,7308,"investigation ",20,2362,5908,0,0,,0.838
w10123816_lac,462nsxt8vd,Nick_Dissertation_EX1_EP,1,348,2021-12-01T15:09:59+00:00,4.4037780761719,1,versionA_stim.csv,READVersionA.csv,"Read Version A","Dissertation, read only version A",GLASS,BREAKABLE,Study2,B,127,152,Test,User,-,,Recall,Recall2,4161,mirror,13.333333333333,1880,3328,0,0,,0.714
w10123816_lac,462nsxt8vd,Nick_Dissertation_EX1_EP,1,349,2021-12-01T15:10:07+00:00,7.3602728843689,1,versionA_stim.csv,READVersionA.csv,"Read Version A","Dissertation, read only version A",ROD,REEL,Study2,S,150,157,Test,User,-,,Recall,Recall2,7105,fish,0,5113,6198,0,0,,0.861
w10123816_lac,462nsxt8vd,Nick_Dissertation_EX1_EP,1,350,2021-12-01T15:10:11+00:00,4.2401130199432,1,versionA_stim.csv,READVersionA.csv,"Read Version A","Dissertation, read only version A",GONE,AWAY,Study2,S,142,136,Test,User,-,,Recall,Recall2,3959,back,25,2171,3020,0,0,,0.75
w10123816_lac,462nsxt8vd,Nick_Dissertation_EX1_EP,1,351,2021-12-01T15:10:15+00:00,4.1765151023865,1,versionA_stim.csv,READVersionA.csv,"Read Version A","Dissertation, read only version A",LOUD,NOISE,Study2,S,152,130,Test,User,-,,Recall,Recall2,3928,house,60,2141,3165,0,0,,0.75
w10123816_lac,462nsxt8vd,Nick_Dissertation_EX1_EP,1,352,2021-12-01T15:10:17+00:00,2.2435300350189,1,versionA_stim.csv,READVersionA.csv,"Read Version A","Dissertation, read only version A",,,,,,0,Instruct,User,-,"You have completed this section. Please press Enter.",,Instruct7,2110,,,-1,-1,,,,0
w10123816_lac,462nsxt8vd,Nick_Dissertation_EX1_EP,1,353,2021-12-01T15:10:21+00:00,3.3020308017731,1,versionA_stim.csv,READVersionA.csv,"Read Version A","Dissertation, read only version A",,,,,,0,Instruct,User,-,"The following screen will ask you a few questions abour your experience today. You must complete these questions to receive credit.",,Instruct8,3178,,,-1,-1,,,,1
