Username,ID,ExperimentName,Session,Trial,Date,TimeDif,"Condition Number","Stimuli File","Order File","Condition Description","Condition Notes",Stimuli*Cue,Stimuli*Answer,Stimuli*Shuffle,"Stimuli*Stimuli Notes",Stimuli*Value,Procedure*Item,"Procedure*Trial Type","Procedure*Max Time","Procedure*Min Time",Procedure*Text,"Procedure*Procedure Notes",Procedure*Shuffle,Response*RT,Response*Response,Response*Accuracy,Response*RTfirst,Response*RTlast,Response*strictAcc,Response*lenientAcc,Response*focus,Response*Focus
5ebecb3f7899980b68a9898a,4va7029uyk,Nick_Dissertation_EX1,1,1,2020-10-24T10:15:12-07:00,13.274268865585,2,versionA_stim.csv,READVersionB.csv,"Read Version B","Dissertation, read only version B",,,,,,0,Instruct,-,10,"Please study each of the following word pairs. Remember that your memory will be tested! When finished, press Enter to move to the next pair.",Initial_Instruct,Instruct1,12828,,,-1,-1,,,,1
5ebecb3f7899980b68a9898a,4va7029uyk,Nick_Dissertation_EX1,1,2,2020-10-24T10:15:16-07:00,4.0000040531158,2,versionA_stim.csv,READVersionB.csv,"Read Version B","Dissertation, read only version B",ICE,FROZEN,BUFFER3,Buffer,94,96,Study,User,-,,Study/JOL,BUFFER,3320,,,-1,-1,,,,1
5ebecb3f7899980b68a9898a,4va7029uyk,Nick_Dissertation_EX1,1,3,2020-10-24T10:15:23-07:00,7.2718489170074,2,versionA_stim.csv,READVersionB.csv,"Read Version B","Dissertation, read only version B",NOODLE,STRING,BUFFER3,Buffer,92,94,Study,User,-,,Study/JOL,BUFFER,6629,,,-1,-1,,,,1
5ebecb3f7899980b68a9898a,4va7029uyk,Nick_Dissertation_EX1,1,4,2020-10-24T10:15:32-07:00,8.3284411430359,2,versionA_stim.csv,READVersionB.csv,"Read Version B","Dissertation, read only version B",CAMP,ADVENTURE,BUFFER3,Buffer,95,92,Study,User,-,,Study/JOL,BUFFER,7817,,,-1,-1,,,,1
5ebecb3f7899980b68a9898a,4va7029uyk,Nick_Dissertation_EX1,1,5,2020-10-24T10:15:38-07:00,6.0439789295197,2,versionA_stim.csv,READVersionB.csv,"Read Version B","Dissertation, read only version B",CARROT,POTATO,BUFFER3,Buffer,91,95,Study,User,-,,Study/JOL,BUFFER,5582,,,-1,-1,,,,1
5ebecb3f7899980b68a9898a,4va7029uyk,Nick_Dissertation_EX1,1,6,2020-10-24T10:15:44-07:00,6.3485360145569,2,versionA_stim.csv,READVersionB.csv,"Read Version B","Dissertation, read only version B",SHRIMP,FISH,BUFFER3,Buffer,93,93,Study,User,-,,Study/JOL,BUFFER,5928,,,-1,-1,,,,1
5ebecb3f7899980b68a9898a,4va7029uyk,Nick_Dissertation_EX1,1,7,2020-10-24T10:15:48-07:00,4.1800770759583,2,versionA_stim.csv,READVersionB.csv,"Read Version B","Dissertation, read only version B",HONEST,TRUTHFUL,Study2,B,133,172,Study,User,-,,Study/JOL,"Study Phase",3755,,,-1,-1,,,,1
5ebecb3f7899980b68a9898a,4va7029uyk,Nick_Dissertation_EX1,1,8,2020-10-24T10:15:54-07:00,5.9469239711761,2,versionA_stim.csv,READVersionB.csv,"Read Version B","Dissertation, read only version B",POP,BALLOON,Study2,B,123,114,Study,User,-,,Study/JOL,"Study Phase",5528,,,-1,-1,,,,1
5ebecb3f7899980b68a9898a,4va7029uyk,Nick_Dissertation_EX1,1,9,2020-10-24T10:15:59-07:00,5.191556930542,2,versionA_stim.csv,READVersionB.csv,"Read Version B","Dissertation, read only version B",PHONE,COMMUNICATION,Study2,S,149,108,Study,User,-,,Study/JOL,"Study Phase",4755,,,-1,-1,,,,1
5ebecb3f7899980b68a9898a,4va7029uyk,Nick_Dissertation_EX1,1,10,2020-10-24T10:16:05-07:00,5.0602040290833,2,versionA_stim.csv,READVersionB.csv,"Read Version B","Dissertation, read only version B",PLANE,AIRCRAFT,Study2,B,129,174,Study,User,-,,Study/JOL,"Study Phase",4640,,,-1,-1,,,,1
5ebecb3f7899980b68a9898a,4va7029uyk,Nick_Dissertation_EX1,1,11,2020-10-24T10:16:09-07:00,4.8783118724823,2,versionA_stim.csv,READVersionB.csv,"Read Version B","Dissertation, read only version B",ROD,REEL,Study2,S,150,98,Study,User,-,,Study/JOL,"Study Phase",4403,,,-1,-1,,,,1
5ebecb3f7899980b68a9898a,4va7029uyk,Nick_Dissertation_EX1,1,12,2020-10-24T10:16:15-07:00,5.5763750076294,2,versionA_stim.csv,READVersionB.csv,"Read Version B","Dissertation, read only version B",CHILL,COLD,Study2,F,114,164,Study,User,-,,Study/JOL,"Study Phase",5008,,,-1,-1,,,,1
5ebecb3f7899980b68a9898a,4va7029uyk,Nick_Dissertation_EX1,1,13,2020-10-24T10:16:21-07:00,5.9299690723419,2,versionA_stim.csv,READVersionB.csv,"Read Version B","Dissertation, read only version B",GIVE,STEAK,Study2,U,158,127,Study,User,-,,Study/JOL,"Study Phase",5491,,,-1,-1,,,,1
5ebecb3f7899980b68a9898a,4va7029uyk,Nick_Dissertation_EX1,1,14,2020-10-24T10:16:28-07:00,7.1264810562134,2,versionA_stim.csv,READVersionB.csv,"Read Version B","Dissertation, read only version B",FURRY,DOG,Study2,F,102,109,Study,User,-,,Study/JOL,"Study Phase",6630,,,-1,-1,,,,1
5ebecb3f7899980b68a9898a,4va7029uyk,Nick_Dissertation_EX1,1,15,2020-10-24T10:16:33-07:00,5.1161458492279,2,versionA_stim.csv,READVersionB.csv,"Read Version B","Dissertation, read only version B",FISH,SARDINE,Study2,B,130,163,Study,User,-,,Study/JOL,"Study Phase",4639,,,-1,-1,,,,1
5ebecb3f7899980b68a9898a,4va7029uyk,Nick_Dissertation_EX1,1,16,2020-10-24T10:16:38-07:00,5.2667021751404,2,versionA_stim.csv,READVersionB.csv,"Read Version B","Dissertation, read only version B",SUN,TAN,Study2,S,155,107,Study,User,-,,Study/JOL,"Study Phase",4849,,,-1,-1,,,,1
5ebecb3f7899980b68a9898a,4va7029uyk,Nick_Dissertation_EX1,1,17,2020-10-24T10:16:44-07:00,5.7338910102844,2,versionA_stim.csv,READVersionB.csv,"Read Version B","Dissertation, read only version B",VEHICLE,CHARM,Study2,U,160,117,Study,User,-,,Study/JOL,"Study Phase",5267,,,-1,-1,,,,1
5ebecb3f7899980b68a9898a,4va7029uyk,Nick_Dissertation_EX1,1,18,2020-10-24T10:16:50-07:00,5.6978118419647,2,versionA_stim.csv,READVersionB.csv,"Read Version B","Dissertation, read only version B",TANTRUM,TEMPER,Study2,S,154,105,Study,User,-,,Study/JOL,"Study Phase",5245,,,-1,-1,,,,1
5ebecb3f7899980b68a9898a,4va7029uyk,Nick_Dissertation_EX1,1,19,2020-10-24T10:17:00-07:00,10.387350082397,2,versionA_stim.csv,READVersionB.csv,"Read Version B","Dissertation, read only version B",OWN,HAVE,Study2,S,153,136,Study,User,-,,Study/JOL,"Study Phase",9960,,,-1,-1,,,,0.946
5ebecb3f7899980b68a9898a,4va7029uyk,Nick_Dissertation_EX1,1,20,2020-10-24T10:17:13-07:00,12.60942196846,2,versionA_stim.csv,READVersionB.csv,"Read Version B","Dissertation, read only version B",MOAT,CLEAR,Study2,U,169,104,Study,User,-,,Study/JOL,"Study Phase",12162,,,-1,-1,,,,1
5ebecb3f7899980b68a9898a,4va7029uyk,Nick_Dissertation_EX1,1,21,2020-10-24T10:17:25-07:00,12.531322956085,2,versionA_stim.csv,READVersionB.csv,"Read Version B","Dissertation, read only version B",WRIST,BRACELET,Study2,S,140,128,Study,User,-,,Study/JOL,"Study Phase",12101,,,-1,-1,,,,1
5ebecb3f7899980b68a9898a,4va7029uyk,Nick_Dissertation_EX1,1,22,2020-10-24T10:17:35-07:00,9.4501011371613,2,versionA_stim.csv,READVersionB.csv,"Read Version B","Dissertation, read only version B",TRUTH,LIE,Study2,S,148,110,Study,User,-,,Study/JOL,"Study Phase",9017,,,-1,-1,,,,1
5ebecb3f7899980b68a9898a,4va7029uyk,Nick_Dissertation_EX1,1,23,2020-10-24T10:17:40-07:00,5.2646899223328,2,versionA_stim.csv,READVersionB.csv,"Read Version B","Dissertation, read only version B",ALONE,LONELY,Study2,S,145,139,Study,User,-,,Study/JOL,"Study Phase",4827,,,-1,-1,,,,1
5ebecb3f7899980b68a9898a,4va7029uyk,Nick_Dissertation_EX1,1,24,2020-10-24T10:17:48-07:00,7.5286159515381,2,versionA_stim.csv,READVersionB.csv,"Read Version B","Dissertation, read only version B",DRIVER,CAR,Study2,F,106,123,Study,User,-,,Study/JOL,"Study Phase",7054,,,-1,-1,,,,1
5ebecb3f7899980b68a9898a,4va7029uyk,Nick_Dissertation_EX1,1,25,2020-10-24T10:17:56-07:00,8.6222791671753,2,versionA_stim.csv,READVersionB.csv,"Read Version B","Dissertation, read only version B",CHOP,CUT,Study2,F,107,130,Study,User,-,,Study/JOL,"Study Phase",8193,,,-1,-1,,,,1
5ebecb3f7899980b68a9898a,4va7029uyk,Nick_Dissertation_EX1,1,26,2020-10-24T10:18:02-07:00,5.369824886322,2,versionA_stim.csv,READVersionB.csv,"Read Version B","Dissertation, read only version B",BEST,FAVORITE,Study2,B,125,111,Study,User,-,,Study/JOL,"Study Phase",4939,,,-1,-1,,,,1
5ebecb3f7899980b68a9898a,4va7029uyk,Nick_Dissertation_EX1,1,27,2020-10-24T10:18:07-07:00,4.9304881095886,2,versionA_stim.csv,READVersionB.csv,"Read Version B","Dissertation, read only version B",CAT,PANTHER,Study2,B,126,102,Study,User,-,,Study/JOL,"Study Phase",4509,,,-1,-1,,,,1
5ebecb3f7899980b68a9898a,4va7029uyk,Nick_Dissertation_EX1,1,28,2020-10-24T10:18:16-07:00,9.0160188674927,2,versionA_stim.csv,READVersionB.csv,"Read Version B","Dissertation, read only version B",CRACKLE,ABLE,Study2,U,162,140,Study,User,-,,Study/JOL,"Study Phase",8574,,,-1,-1,,,,1
5ebecb3f7899980b68a9898a,4va7029uyk,Nick_Dissertation_EX1,1,29,2020-10-24T10:18:21-07:00,5.4444150924683,2,versionA_stim.csv,READVersionB.csv,"Read Version B","Dissertation, read only version B",LOUD,NOISE,Study2,S,152,121,Study,User,-,,Study/JOL,"Study Phase",4927,,,-1,-1,,,,1
5ebecb3f7899980b68a9898a,4va7029uyk,Nick_Dissertation_EX1,1,30,2020-10-24T10:18:26-07:00,5.3073370456696,2,versionA_stim.csv,READVersionB.csv,"Read Version B","Dissertation, read only version B",SAFETY,SEATBELT,Study2,S,147,116,Study,User,-,,Study/JOL,"Study Phase",4811,,,-1,-1,,,,1
5ebecb3f7899980b68a9898a,4va7029uyk,Nick_Dissertation_EX1,1,31,2020-10-24T10:18:32-07:00,5.3984007835388,2,versionA_stim.csv,READVersionB.csv,"Read Version B","Dissertation, read only version B",MAZE,ELECTION,Study2,U,159,118,Study,User,-,,Study/JOL,"Study Phase",4999,,,-1,-1,,,,1
5ebecb3f7899980b68a9898a,4va7029uyk,Nick_Dissertation_EX1,1,32,2020-10-24T10:18:37-07:00,5.458279132843,2,versionA_stim.csv,READVersionB.csv,"Read Version B","Dissertation, read only version B",MIRROR,CHILDREN,Study2,U,174,167,Study,User,-,,Study/JOL,"Study Phase",5046,,,-1,-1,,,,1
5ebecb3f7899980b68a9898a,4va7029uyk,Nick_Dissertation_EX1,1,33,2020-10-24T10:18:44-07:00,7.1316149234772,2,versionA_stim.csv,READVersionB.csv,"Read Version B","Dissertation, read only version B",Shell,SHAKE,Study2,U,163,161,Study,User,-,,Study/JOL,"Study Phase",6712,,,-1,-1,,,,1
5ebecb3f7899980b68a9898a,4va7029uyk,Nick_Dissertation_EX1,1,34,2020-10-24T10:18:50-07:00,5.6704559326172,2,versionA_stim.csv,READVersionB.csv,"Read Version B","Dissertation, read only version B",SCALP,HEAD,Study2,F,105,158,Study,User,-,,Study/JOL,"Study Phase",5132,,,-1,-1,,,,1
5ebecb3f7899980b68a9898a,4va7029uyk,Nick_Dissertation_EX1,1,35,2020-10-24T10:18:55-07:00,5.4187941551208,2,versionA_stim.csv,READVersionB.csv,"Read Version B","Dissertation, read only version B",BOTH,OUNCE,Study2,U,172,166,Study,User,-,,Study/JOL,"Study Phase",4783,,,-1,-1,,,,1
5ebecb3f7899980b68a9898a,4va7029uyk,Nick_Dissertation_EX1,1,36,2020-10-24T10:19:00-07:00,4.9791760444641,2,versionA_stim.csv,READVersionB.csv,"Read Version B","Dissertation, read only version B",DINE,EAT,Study2,F,111,103,Study,User,-,,Study/JOL,"Study Phase",4564,,,-1,-1,,,,1
5ebecb3f7899980b68a9898a,4va7029uyk,Nick_Dissertation_EX1,1,37,2020-10-24T10:19:05-07:00,4.8486180305481,2,versionA_stim.csv,READVersionB.csv,"Read Version B","Dissertation, read only version B",FIGHT,BRAWL,Study2,B,135,159,Study,User,-,,Study/JOL,"Study Phase",4395,,,-1,-1,,,,1
5ebecb3f7899980b68a9898a,4va7029uyk,Nick_Dissertation_EX1,1,38,2020-10-24T10:19:14-07:00,9.0261168479919,2,versionA_stim.csv,READVersionB.csv,"Read Version B","Dissertation, read only version B",SHEARS,SCISSORS,Study2,F,112,153,Study,User,-,,Study/JOL,"Study Phase",8547,,,-1,-1,,,,1
5ebecb3f7899980b68a9898a,4va7029uyk,Nick_Dissertation_EX1,1,39,2020-10-24T10:19:20-07:00,5.5211980342865,2,versionA_stim.csv,READVersionB.csv,"Read Version B","Dissertation, read only version B",BIRD,PENGUIN,Study2,B,119,155,Study,User,-,,Study/JOL,"Study Phase",4968,,,-1,-1,,,,1
5ebecb3f7899980b68a9898a,4va7029uyk,Nick_Dissertation_EX1,1,40,2020-10-24T10:19:26-07:00,6.0478889942169,2,versionA_stim.csv,READVersionB.csv,"Read Version B","Dissertation, read only version B",JUSTICE,MAROON,Study2,U,156,106,Study,User,-,,Study/JOL,"Study Phase",5631,,,-1,-1,,,,1
5ebecb3f7899980b68a9898a,4va7029uyk,Nick_Dissertation_EX1,1,41,2020-10-24T10:19:30-07:00,4.0588350296021,2,versionA_stim.csv,READVersionB.csv,"Read Version B","Dissertation, read only version B",MONEY,BANKER,Study2,B,132,120,Study,User,-,,Study/JOL,"Study Phase",3624,,,-1,-1,,,,1
5ebecb3f7899980b68a9898a,4va7029uyk,Nick_Dissertation_EX1,1,42,2020-10-24T10:19:35-07:00,5.5492389202118,2,versionA_stim.csv,READVersionB.csv,"Read Version B","Dissertation, read only version B",AFFECTION,LOVE,Study2,F,115,148,Study,User,-,,Study/JOL,"Study Phase",5121,,,-1,-1,,,,1
5ebecb3f7899980b68a9898a,4va7029uyk,Nick_Dissertation_EX1,1,43,2020-10-24T10:19:48-07:00,12.563764095306,2,versionA_stim.csv,READVersionB.csv,"Read Version B","Dissertation, read only version B",BASEBALL,LEAGUE,Study2,B,131,126,Study,User,-,,Study/JOL,"Study Phase",12126,,,-1,-1,,,,1
5ebecb3f7899980b68a9898a,4va7029uyk,Nick_Dissertation_EX1,1,44,2020-10-24T10:20:01-07:00,13.361320972443,2,versionA_stim.csv,READVersionB.csv,"Read Version B","Dissertation, read only version B",CAKE,CLOTHES,Study2,U,166,152,Study,User,-,,Study/JOL,"Study Phase",12862,,,-1,-1,,,,1
5ebecb3f7899980b68a9898a,4va7029uyk,Nick_Dissertation_EX1,1,45,2020-10-24T10:20:06-07:00,5.119117975235,2,versionA_stim.csv,READVersionB.csv,"Read Version B","Dissertation, read only version B",GLASS,BREAKABLE,Study2,B,127,142,Study,User,-,,Study/JOL,"Study Phase",4687,,,-1,-1,,,,1
5ebecb3f7899980b68a9898a,4va7029uyk,Nick_Dissertation_EX1,1,46,2020-10-24T10:20:13-07:00,6.4286661148071,2,versionA_stim.csv,READVersionB.csv,"Read Version B","Dissertation, read only version B",SLEEP,NAP,Study2,B,134,160,Study,User,-,,Study/JOL,"Study Phase",5992,,,-1,-1,,,,1
5ebecb3f7899980b68a9898a,4va7029uyk,Nick_Dissertation_EX1,1,47,2020-10-24T10:20:18-07:00,5.1534729003906,2,versionA_stim.csv,READVersionB.csv,"Read Version B","Dissertation, read only version B",ELEMENT,CARBON,Study2,S,141,151,Study,User,-,,Study/JOL,"Study Phase",4729,,,-1,-1,,,,1
5ebecb3f7899980b68a9898a,4va7029uyk,Nick_Dissertation_EX1,1,48,2020-10-24T10:20:24-07:00,5.6835939884186,2,versionA_stim.csv,READVersionB.csv,"Read Version B","Dissertation, read only version B",DETECTIVE,MYSTERY,Study2,F,100,154,Study,User,-,,Study/JOL,"Study Phase",5275,,,-1,-1,,,,1
5ebecb3f7899980b68a9898a,4va7029uyk,Nick_Dissertation_EX1,1,49,2020-10-24T10:20:29-07:00,4.9518930912018,2,versionA_stim.csv,READVersionB.csv,"Read Version B","Dissertation, read only version B",MEAT,OBTAIN,Study2,U,161,113,Study,User,-,,Study/JOL,"Study Phase",4478,,,-1,-1,,,,1
5ebecb3f7899980b68a9898a,4va7029uyk,Nick_Dissertation_EX1,1,50,2020-10-24T10:20:34-07:00,4.9111709594727,2,versionA_stim.csv,READVersionB.csv,"Read Version B","Dissertation, read only version B",STAR,ACTRESS,Study2,B,120,122,Study,User,-,,Study/JOL,"Study Phase",4342,,,-1,-1,,,,1
5ebecb3f7899980b68a9898a,4va7029uyk,Nick_Dissertation_EX1,1,51,2020-10-24T10:20:41-07:00,7.5642700195312,2,versionA_stim.csv,READVersionB.csv,"Read Version B","Dissertation, read only version B",SHOELACE,TIE,Study2,F,99,100,Study,User,-,,Study/JOL,"Study Phase",7152,,,-1,-1,,,,1
5ebecb3f7899980b68a9898a,4va7029uyk,Nick_Dissertation_EX1,1,52,2020-10-24T10:20:50-07:00,8.6328709125519,2,versionA_stim.csv,READVersionB.csv,"Read Version B","Dissertation, read only version B",LEASE,TOIL,Study2,U,170,171,Study,User,-,,Study/JOL,"Study Phase",8203,,,-1,-1,,,,1
5ebecb3f7899980b68a9898a,4va7029uyk,Nick_Dissertation_EX1,1,53,2020-10-24T10:20:58-07:00,7.9604539871216,2,versionA_stim.csv,READVersionB.csv,"Read Version B","Dissertation, read only version B",NAME,HATE,Study2,U,167,99,Study,User,-,,Study/JOL,"Study Phase",7538,,,-1,-1,,,,1
5ebecb3f7899980b68a9898a,4va7029uyk,Nick_Dissertation_EX1,1,54,2020-10-24T10:21:04-07:00,5.962170124054,2,versionA_stim.csv,READVersionB.csv,"Read Version B","Dissertation, read only version B",CANDLE,WAX,Study2,S,139,138,Study,User,-,,Study/JOL,"Study Phase",5553,,,-1,-1,,,,1
5ebecb3f7899980b68a9898a,4va7029uyk,Nick_Dissertation_EX1,1,55,2020-10-24T10:21:13-07:00,9.224632024765,2,versionA_stim.csv,READVersionB.csv,"Read Version B","Dissertation, read only version B",TEMPERATURE,Morning,Study2,U,173,175,Study,User,-,,Study/JOL,"Study Phase",8793,,,-1,-1,,,,1
5ebecb3f7899980b68a9898a,4va7029uyk,Nick_Dissertation_EX1,1,56,2020-10-24T10:21:19-07:00,6.2300629615784,2,versionA_stim.csv,READVersionB.csv,"Read Version B","Dissertation, read only version B",EVEN,REVENGE,Study2,B,122,112,Study,User,-,,Study/JOL,"Study Phase",5791,,,-1,-1,,,,1
5ebecb3f7899980b68a9898a,4va7029uyk,Nick_Dissertation_EX1,1,57,2020-10-24T10:21:30-07:00,10.392036914825,2,versionA_stim.csv,READVersionB.csv,"Read Version B","Dissertation, read only version B",EXTENSION,LONG,Study2,F,96,162,Study,User,-,,Study/JOL,"Study Phase",9990,,,-1,-1,,,,0.848
5ebecb3f7899980b68a9898a,4va7029uyk,Nick_Dissertation_EX1,1,58,2020-10-24T10:21:36-07:00,6.2780230045319,2,versionA_stim.csv,READVersionB.csv,"Read Version B","Dissertation, read only version B",KEYS,JOKE,Study2,U,165,144,Study,User,-,,Study/JOL,"Study Phase",5842,,,-1,-1,,,,1
5ebecb3f7899980b68a9898a,4va7029uyk,Nick_Dissertation_EX1,1,59,2020-10-24T10:21:40-07:00,4.41557097435,2,versionA_stim.csv,READVersionB.csv,"Read Version B","Dissertation, read only version B",WATER,DRINK,Study2,S,143,97,Study,User,-,,Study/JOL,"Study Phase",4004,,,-1,-1,,,,1
5ebecb3f7899980b68a9898a,4va7029uyk,Nick_Dissertation_EX1,1,60,2020-10-24T10:21:47-07:00,6.557018995285,2,versionA_stim.csv,READVersionB.csv,"Read Version B","Dissertation, read only version B",LITTER,TRASH,Study2,F,103,141,Study,User,-,,Study/JOL,"Study Phase",6121,,,-1,-1,,,,1
5ebecb3f7899980b68a9898a,4va7029uyk,Nick_Dissertation_EX1,1,61,2020-10-24T10:21:52-07:00,5.6152920722961,2,versionA_stim.csv,READVersionB.csv,"Read Version B","Dissertation, read only version B",MASON,JAR,Study2,S,138,124,Study,User,-,,Study/JOL,"Study Phase",5044,,,-1,-1,,,,1
5ebecb3f7899980b68a9898a,4va7029uyk,Nick_Dissertation_EX1,1,62,2020-10-24T10:21:58-07:00,5.8083980083466,2,versionA_stim.csv,READVersionB.csv,"Read Version B","Dissertation, read only version B",THREAD,THIMBLE,Study2,B,121,137,Study,User,-,,Study/JOL,"Study Phase",5373,,,-1,-1,,,,1
5ebecb3f7899980b68a9898a,4va7029uyk,Nick_Dissertation_EX1,1,63,2020-10-24T10:22:04-07:00,5.5808000564575,2,versionA_stim.csv,READVersionB.csv,"Read Version B","Dissertation, read only version B",GONE,AWAY,Study2,S,142,165,Study,User,-,,Study/JOL,"Study Phase",5019,,,-1,-1,,,,1
5ebecb3f7899980b68a9898a,4va7029uyk,Nick_Dissertation_EX1,1,64,2020-10-24T10:22:10-07:00,6.5767679214478,2,versionA_stim.csv,READVersionB.csv,"Read Version B","Dissertation, read only version B",MAIN,SCAR,Study2,U,175,131,Study,User,-,,Study/JOL,"Study Phase",6053,,,-1,-1,,,,1
5ebecb3f7899980b68a9898a,4va7029uyk,Nick_Dissertation_EX1,1,65,2020-10-24T10:22:16-07:00,5.3955268859863,2,versionA_stim.csv,READVersionB.csv,"Read Version B","Dissertation, read only version B",DOCUMENT,PAPER,Study2,F,109,150,Study,User,-,,Study/JOL,"Study Phase",4968,,,-1,-1,,,,1
5ebecb3f7899980b68a9898a,4va7029uyk,Nick_Dissertation_EX1,1,66,2020-10-24T10:22:22-07:00,5.9408512115479,2,versionA_stim.csv,READVersionB.csv,"Read Version B","Dissertation, read only version B",EARTH,GROUND,Study2,S,144,143,Study,User,-,,Study/JOL,"Study Phase",5481,,,-1,-1,,,,1
5ebecb3f7899980b68a9898a,4va7029uyk,Nick_Dissertation_EX1,1,67,2020-10-24T10:22:24-07:00,2.5650057792664,2,versionA_stim.csv,READVersionB.csv,"Read Version B","Dissertation, read only version B",RAZOR,SHAVE,Study2,S,136,176,Study,User,-,,Study/JOL,"Study Phase",1977,,,-1,-1,,,,1
5ebecb3f7899980b68a9898a,4va7029uyk,Nick_Dissertation_EX1,1,68,2020-10-24T10:22:31-07:00,6.6172630786896,2,versionA_stim.csv,READVersionB.csv,"Read Version B","Dissertation, read only version B",INCENSE,SMELL,Study2,F,110,132,Study,User,-,,Study/JOL,"Study Phase",6186,,,-1,-1,,,,1
5ebecb3f7899980b68a9898a,4va7029uyk,Nick_Dissertation_EX1,1,69,2020-10-24T10:23:08-07:00,37.102019071579,2,versionA_stim.csv,READVersionB.csv,"Read Version B","Dissertation, read only version B",FUZZY,BANG,Study2,U,168,133,Study,User,-,,Study/JOL,"Study Phase",36688,,,-1,-1,,,,0.833
5ebecb3f7899980b68a9898a,4va7029uyk,Nick_Dissertation_EX1,1,70,2020-10-24T10:23:13-07:00,5.4016790390015,2,versionA_stim.csv,READVersionB.csv,"Read Version B","Dissertation, read only version B",CHERRY,RED,Study2,F,104,119,Study,User,-,,Study/JOL,"Study Phase",4959,,,-1,-1,,,,1
5ebecb3f7899980b68a9898a,4va7029uyk,Nick_Dissertation_EX1,1,71,2020-10-24T10:23:18-07:00,4.9179909229279,2,versionA_stim.csv,READVersionB.csv,"Read Version B","Dissertation, read only version B",BAD,VILLAIN,Study2,B,118,157,Study,User,-,,Study/JOL,"Study Phase",4446,,,-1,-1,,,,1
5ebecb3f7899980b68a9898a,4va7029uyk,Nick_Dissertation_EX1,1,72,2020-10-24T10:23:23-07:00,4.7885599136353,2,versionA_stim.csv,READVersionB.csv,"Read Version B","Dissertation, read only version B",MULE,DONKEY,Study2,F,108,173,Study,User,-,,Study/JOL,"Study Phase",4290,,,-1,-1,,,,1
5ebecb3f7899980b68a9898a,4va7029uyk,Nick_Dissertation_EX1,1,73,2020-10-24T10:23:31-07:00,7.8137180805206,2,versionA_stim.csv,READVersionB.csv,"Read Version B","Dissertation, read only version B",TURN,FLIP,Study2,B,116,134,Study,User,-,,Study/JOL,"Study Phase",7405,,,-1,-1,,,,1
5ebecb3f7899980b68a9898a,4va7029uyk,Nick_Dissertation_EX1,1,74,2020-10-24T10:23:39-07:00,8.0780029296875,2,versionA_stim.csv,READVersionB.csv,"Read Version B","Dissertation, read only version B",FLEA,TICK,Study2,S,151,101,Study,User,-,,Study/JOL,"Study Phase",7642,,,-1,-1,,,,1
5ebecb3f7899980b68a9898a,4va7029uyk,Nick_Dissertation_EX1,1,75,2020-10-24T10:23:45-07:00,5.6367020606995,2,versionA_stim.csv,READVersionB.csv,"Read Version B","Dissertation, read only version B",ADJOURN,END,Study2,F,101,129,Study,User,-,,Study/JOL,"Study Phase",5213,,,-1,-1,,,,1
5ebecb3f7899980b68a9898a,4va7029uyk,Nick_Dissertation_EX1,1,76,2020-10-24T10:23:51-07:00,6.1443591117859,2,versionA_stim.csv,READVersionB.csv,"Read Version B","Dissertation, read only version B",CACTUS,PLANT,Study2,F,98,170,Study,User,-,,Study/JOL,"Study Phase",5709,,,-1,-1,,,,1
5ebecb3f7899980b68a9898a,4va7029uyk,Nick_Dissertation_EX1,1,77,2020-10-24T10:23:56-07:00,5.2506229877472,2,versionA_stim.csv,READVersionB.csv,"Read Version B","Dissertation, read only version B",DEAD,COFFIN,Study2,B,128,125,Study,User,-,,Study/JOL,"Study Phase",4805,,,-1,-1,,,,1
5ebecb3f7899980b68a9898a,4va7029uyk,Nick_Dissertation_EX1,1,78,2020-10-24T10:24:00-07:00,3.9157040119171,2,versionA_stim.csv,READVersionB.csv,"Read Version B","Dissertation, read only version B",CAR,WINDSHIELD,Study2,B,117,146,Study,User,-,,Study/JOL,"Study Phase",3403,,,-1,-1,,,,1
5ebecb3f7899980b68a9898a,4va7029uyk,Nick_Dissertation_EX1,1,79,2020-10-24T10:24:05-07:00,5.1430628299713,2,versionA_stim.csv,READVersionB.csv,"Read Version B","Dissertation, read only version B",RIGHTS,EQUAL,Study2,S,137,149,Study,User,-,,Study/JOL,"Study Phase",4709,,,-1,-1,,,,1
5ebecb3f7899980b68a9898a,4va7029uyk,Nick_Dissertation_EX1,1,80,2020-10-24T10:24:08-07:00,2.4611330032349,2,versionA_stim.csv,READVersionB.csv,"Read Version B","Dissertation, read only version B",FEUD,FIGHT,Study2,F,113,135,Study,User,-,,Study/JOL,"Study Phase",2021,,,-1,-1,,,,1
5ebecb3f7899980b68a9898a,4va7029uyk,Nick_Dissertation_EX1,1,81,2020-10-24T10:24:13-07:00,5.0126030445099,2,versionA_stim.csv,READVersionB.csv,"Read Version B","Dissertation, read only version B",LISTEN,FICTION,Study2,U,164,168,Study,User,-,,Study/JOL,"Study Phase",4576,,,-1,-1,,,,1
5ebecb3f7899980b68a9898a,4va7029uyk,Nick_Dissertation_EX1,1,82,2020-10-24T10:24:17-07:00,4.6665711402893,2,versionA_stim.csv,READVersionB.csv,"Read Version B","Dissertation, read only version B",LOAN,SIGN,Study2,U,171,147,Study,User,-,,Study/JOL,"Study Phase",4153,,,-1,-1,,,,1
5ebecb3f7899980b68a9898a,4va7029uyk,Nick_Dissertation_EX1,1,83,2020-10-24T10:24:22-07:00,5.0599048137665,2,versionA_stim.csv,READVersionB.csv,"Read Version B","Dissertation, read only version B",CLUE,GAME,Study2,F,97,115,Study,User,-,,Study/JOL,"Study Phase",4621,,,-1,-1,,,,1
5ebecb3f7899980b68a9898a,4va7029uyk,Nick_Dissertation_EX1,1,84,2020-10-24T10:24:27-07:00,4.7644209861755,2,versionA_stim.csv,READVersionB.csv,"Read Version B","Dissertation, read only version B",FRUIT,STRAWBERRY,Study2,B,124,145,Study,User,-,,Study/JOL,"Study Phase",4268,,,-1,-1,,,,1
5ebecb3f7899980b68a9898a,4va7029uyk,Nick_Dissertation_EX1,1,85,2020-10-24T10:24:31-07:00,4.4266700744629,2,versionA_stim.csv,READVersionB.csv,"Read Version B","Dissertation, read only version B",STRETCH,CLOTH,Study2,U,157,169,Study,User,-,,Study/JOL,"Study Phase",3980,,,-1,-1,,,,1
5ebecb3f7899980b68a9898a,4va7029uyk,Nick_Dissertation_EX1,1,86,2020-10-24T10:24:36-07:00,4.7765309810638,2,versionA_stim.csv,READVersionB.csv,"Read Version B","Dissertation, read only version B",DRY,WET,Study2,S,146,156,Study,User,-,,Study/JOL,"Study Phase",4359,,,-1,-1,,,,1
5ebecb3f7899980b68a9898a,4va7029uyk,Nick_Dissertation_EX1,1,87,2020-10-24T10:24:52-07:00,15.376757144928,2,versionA_stim.csv,READVersionB.csv,"Read Version B","Dissertation, read only version B",MONTH,YEAR,BUFFER4,Buffer,177,178,Study,User,-,,Study/JOL,BUFFER2,14870,,,-1,-1,,,,1
5ebecb3f7899980b68a9898a,4va7029uyk,Nick_Dissertation_EX1,1,88,2020-10-24T10:24:57-07:00,5.1744379997253,2,versionA_stim.csv,READVersionB.csv,"Read Version B","Dissertation, read only version B",OCTOBER,SPOOKY,BUFFER4,Buffer,180,181,Study,User,-,,Study/JOL,BUFFER2,4561,,,-1,-1,,,,1
5ebecb3f7899980b68a9898a,4va7029uyk,Nick_Dissertation_EX1,1,89,2020-10-24T10:25:03-07:00,5.8663928508759,2,versionA_stim.csv,READVersionB.csv,"Read Version B","Dissertation, read only version B",SPRING,MARCH,BUFFER4,Buffer,179,180,Study,User,-,,Study/JOL,BUFFER2,5441,,,-1,-1,,,,1
5ebecb3f7899980b68a9898a,4va7029uyk,Nick_Dissertation_EX1,1,90,2020-10-24T10:25:18-07:00,15.476714134216,2,versionA_stim.csv,READVersionB.csv,"Read Version B","Dissertation, read only version B",DAYS,WEAKS,BUFFER4,Buffer,176,179,Study,User,-,,Study/JOL,BUFFER2,15000,,,-1,-1,,,,0.586
5ebecb3f7899980b68a9898a,4va7029uyk,Nick_Dissertation_EX1,1,91,2020-10-24T10:25:23-07:00,4.9630689620972,2,versionA_stim.csv,READVersionB.csv,"Read Version B","Dissertation, read only version B",TOOL,SHED,BUFFER4,Buffer,178,177,Study,User,-,,Study/JOL,BUFFER2,4533,,,-1,-1,,,,1
5ebecb3f7899980b68a9898a,4va7029uyk,Nick_Dissertation_EX1,1,92,2020-10-24T10:25:28-07:00,5.1585218906403,2,versionA_stim.csv,READVersionB.csv,"Read Version B","Dissertation, read only version B",,,,,,0,Instruct,User,-,"You have completed this section. Please press Enter.",Filler_Instruction,Instruct2,4752,,,-1,-1,,,,1
5ebecb3f7899980b68a9898a,4va7029uyk,Nick_Dissertation_EX1,1,93,2020-10-24T10:27:29-07:00,120.44210314751,2,versionA_stim.csv,READVersionB.csv,"Read Version B","Dissertation, read only version B",,,,,,0,FreeRecall,120,120,"Please list the 50 US states in alphabetical order. The task will automatically advance to the next screen after two minutes.",,Filler1,120014,"Alabama Alaska Arizona Calafornia Delaware Florida Georgia H",0,40478,120008,0,0,,0.881
5ebecb3f7899980b68a9898a,4va7029uyk,Nick_Dissertation_EX1,1,94,2020-10-24T10:27:41-07:00,12.086031913757,2,versionA_stim.csv,READVersionB.csv,"Read Version B","Dissertation, read only version B",,,,,,0,Instruct,-,10,"You will now be presented with the first word from each of the previously studied item pairs. Please type the missing word. If you do not know the word, you may guess or press Enter to skip forward to the next pair.",,Instruct3,11500,,,-1,-1,,,,1
5ebecb3f7899980b68a9898a,4va7029uyk,Nick_Dissertation_EX1,1,95,2020-10-24T10:28:17-07:00,35.854286909103,2,versionA_stim.csv,READVersionB.csv,"Read Version B","Dissertation, read only version B",Shell,SHAKE,Study2,U,163,161,Test,User,-,,Recall,Recall1,35286,Shake,100,32718,33633,1,1,,0.713
5ebecb3f7899980b68a9898a,4va7029uyk,Nick_Dissertation_EX1,1,96,2020-10-24T10:28:24-07:00,6.9455471038818,2,versionA_stim.csv,READVersionB.csv,"Read Version B","Dissertation, read only version B",EARTH,GROUND,Study2,S,144,143,Test,User,-,,Recall,Recall1,6439,Ground,100,2780,3892,1,1,,1
5ebecb3f7899980b68a9898a,4va7029uyk,Nick_Dissertation_EX1,1,97,2020-10-24T10:28:30-07:00,6.4576179981232,2,versionA_stim.csv,READVersionB.csv,"Read Version B","Dissertation, read only version B",CANDLE,WAX,Study2,S,139,138,Test,User,-,,Recall,Recall1,5830,Wax,100,3808,4384,1,1,,1
5ebecb3f7899980b68a9898a,4va7029uyk,Nick_Dissertation_EX1,1,98,2020-10-24T10:29:27-07:00,56.525449037552,2,versionA_stim.csv,READVersionB.csv,"Read Version B","Dissertation, read only version B",POP,BALLOON,Study2,B,123,114,Test,User,-,,Recall,Recall1,55957,"Balloon ",100,53161,53833,1,1,,0.647
5ebecb3f7899980b68a9898a,4va7029uyk,Nick_Dissertation_EX1,1,99,2020-10-24T10:30:06-07:00,39.835732936859,2,versionA_stim.csv,READVersionB.csv,"Read Version B","Dissertation, read only version B",MULE,DONKEY,Study2,F,108,173,Test,User,-,,Recall,Recall1,39293,"Donkey ",100,36097,36843,1,1,,0.8
5ebecb3f7899980b68a9898a,4va7029uyk,Nick_Dissertation_EX1,1,100,2020-10-24T10:31:00-07:00,53.599097013474,2,versionA_stim.csv,READVersionB.csv,"Read Version B","Dissertation, read only version B",GONE,AWAY,Study2,S,142,165,Test,User,-,,Recall,Recall1,53136,Away,100,51476,52143,1,1,,0.76
5ebecb3f7899980b68a9898a,4va7029uyk,Nick_Dissertation_EX1,1,101,2020-10-24T10:31:40-07:00,39.781877994537,2,versionA_stim.csv,READVersionB.csv,"Read Version B","Dissertation, read only version B",MOAT,CLEAR,Study2,U,169,104,Test,User,-,,Recall,Recall1,39239,Clear,100,35924,37148,1,1,,0.545
5ebecb3f7899980b68a9898a,4va7029uyk,Nick_Dissertation_EX1,1,102,2020-10-24T10:32:20-07:00,40.551310062408,2,versionA_stim.csv,READVersionB.csv,"Read Version B","Dissertation, read only version B",NAME,HATE,Study2,U,167,99,Test,User,-,,Recall,Recall1,39907,Hate,100,35408,35989,1,1,,0.857
5ebecb3f7899980b68a9898a,4va7029uyk,Nick_Dissertation_EX1,1,103,2020-10-24T10:33:07-07:00,47.102818012238,2,versionA_stim.csv,READVersionB.csv,"Read Version B","Dissertation, read only version B",ALONE,LONELY,Study2,S,145,139,Test,User,-,,Recall,Recall1,45401,"Lonely ",100,42560,43288,1,1,,0.725
5ebecb3f7899980b68a9898a,4va7029uyk,Nick_Dissertation_EX1,1,104,2020-10-24T10:33:13-07:00,5.6106598377228,2,versionA_stim.csv,READVersionB.csv,"Read Version B","Dissertation, read only version B",DRY,WET,Study2,S,146,156,Test,User,-,,Recall,Recall1,3965,Wet,100,2712,3071,1,1,,1
5ebecb3f7899980b68a9898a,4va7029uyk,Nick_Dissertation_EX1,1,105,2020-10-24T10:34:06-07:00,52.817804098129,2,versionA_stim.csv,READVersionB.csv,"Read Version B","Dissertation, read only version B",BASEBALL,LEAGUE,Study2,B,131,126,Test,User,-,,Recall,Recall1,52220,League,100,47687,49632,1,1,,0.735
5ebecb3f7899980b68a9898a,4va7029uyk,Nick_Dissertation_EX1,1,106,2020-10-24T10:34:53-07:00,46.649396896362,2,versionA_stim.csv,READVersionB.csv,"Read Version B","Dissertation, read only version B",DETECTIVE,MYSTERY,Study2,F,100,154,Test,User,-,,Recall,Recall1,46045,Mystery,100,41102,44806,1,1,,0.565
5ebecb3f7899980b68a9898a,4va7029uyk,Nick_Dissertation_EX1,1,107,2020-10-24T10:35:38-07:00,45.812736988068,2,versionA_stim.csv,READVersionB.csv,"Read Version B","Dissertation, read only version B",WATER,DRINK,Study2,S,143,97,Test,User,-,,Recall,Recall1,45273,Drink,100,43572,44379,1,1,,0.618
5ebecb3f7899980b68a9898a,4va7029uyk,Nick_Dissertation_EX1,1,108,2020-10-24T10:35:58-07:00,19.825460195541,2,versionA_stim.csv,READVersionB.csv,"Read Version B","Dissertation, read only version B",SHOELACE,TIE,Study2,F,99,100,Test,User,-,,Recall,Recall1,19361,Tie,100,17928,18389,1,1,,0.683
5ebecb3f7899980b68a9898a,4va7029uyk,Nick_Dissertation_EX1,1,109,2020-10-24T10:36:05-07:00,6.9333508014679,2,versionA_stim.csv,READVersionB.csv,"Read Version B","Dissertation, read only version B",DOCUMENT,PAPER,Study2,F,109,150,Test,User,-,,Recall,Recall1,6359,"Paper ",100,3671,4558,1,1,,1
5ebecb3f7899980b68a9898a,4va7029uyk,Nick_Dissertation_EX1,1,110,2020-10-24T10:37:00-07:00,54.604158163071,2,versionA_stim.csv,READVersionB.csv,"Read Version B","Dissertation, read only version B",PHONE,COMMUNICATION,Study2,S,149,108,Test,User,-,,Recall,Recall1,53986,"Communication ",100,47156,51509,1,1,,0.643
5ebecb3f7899980b68a9898a,4va7029uyk,Nick_Dissertation_EX1,1,111,2020-10-24T10:37:31-07:00,31.211549043655,2,versionA_stim.csv,READVersionB.csv,"Read Version B","Dissertation, read only version B",TURN,FLIP,Study2,B,116,134,Test,User,-,,Recall,Recall1,30583,Flip,100,28998,29604,1,1,,0.829
5ebecb3f7899980b68a9898a,4va7029uyk,Nick_Dissertation_EX1,1,112,2020-10-24T10:38:14-07:00,42.819073915482,2,versionA_stim.csv,READVersionB.csv,"Read Version B","Dissertation, read only version B",LOUD,NOISE,Study2,S,152,121,Test,User,-,,Recall,Recall1,42305,"Noise ",100,39333,40069,1,1,,0.814
5ebecb3f7899980b68a9898a,4va7029uyk,Nick_Dissertation_EX1,1,113,2020-10-24T10:38:49-07:00,35.359539031982,2,versionA_stim.csv,READVersionB.csv,"Read Version B","Dissertation, read only version B",STAR,ACTRESS,Study2,B,120,122,Test,User,-,,Recall,Recall1,34867,Actress,100,32638,33987,1,1,,0.643
5ebecb3f7899980b68a9898a,4va7029uyk,Nick_Dissertation_EX1,1,114,2020-10-24T10:39:13-07:00,24.04114985466,2,versionA_stim.csv,READVersionB.csv,"Read Version B","Dissertation, read only version B",BAD,VILLAIN,Study2,B,118,157,Test,User,-,,Recall,Recall1,23533,Villian,85.714285714286,14466,22517,0,1,,0.847
5ebecb3f7899980b68a9898a,4va7029uyk,Nick_Dissertation_EX1,1,115,2020-10-24T10:39:47-07:00,33.687208175659,2,versionA_stim.csv,READVersionB.csv,"Read Version B","Dissertation, read only version B",FURRY,DOG,Study2,F,102,109,Test,User,-,,Recall,Recall1,33012,"Dog ",100,30586,31122,1,1,,0.738
5ebecb3f7899980b68a9898a,4va7029uyk,Nick_Dissertation_EX1,1,116,2020-10-24T10:39:53-07:00,6.5523488521576,2,versionA_stim.csv,READVersionB.csv,"Read Version B","Dissertation, read only version B",RAZOR,SHAVE,Study2,S,136,176,Test,User,-,,Recall,Recall1,6054,Shave,100,2509,5071,1,1,,1
5ebecb3f7899980b68a9898a,4va7029uyk,Nick_Dissertation_EX1,1,117,2020-10-24T10:39:57-07:00,3.9898970127106,2,versionA_stim.csv,READVersionB.csv,"Read Version B","Dissertation, read only version B",SCALP,HEAD,Study2,F,105,158,Test,User,-,,Recall,Recall1,3390,Head,100,1940,2496,1,1,,1
5ebecb3f7899980b68a9898a,4va7029uyk,Nick_Dissertation_EX1,1,118,2020-10-24T10:40:46-07:00,49.033107042313,2,versionA_stim.csv,READVersionB.csv,"Read Version B","Dissertation, read only version B",TEMPERATURE,Morning,Study2,U,173,175,Test,User,-,,Recall,Recall1,48467,"Morning ",100,45852,46298,1,1,,0.483
5ebecb3f7899980b68a9898a,4va7029uyk,Nick_Dissertation_EX1,1,119,2020-10-24T10:40:52-07:00,5.4173090457916,2,versionA_stim.csv,READVersionB.csv,"Read Version B","Dissertation, read only version B",SLEEP,NAP,Study2,B,134,160,Test,User,-,,Recall,Recall1,4983,Nap,100,3630,4148,1,1,,1
5ebecb3f7899980b68a9898a,4va7029uyk,Nick_Dissertation_EX1,1,120,2020-10-24T10:41:15-07:00,23.173383951187,2,versionA_stim.csv,READVersionB.csv,"Read Version B","Dissertation, read only version B",MASON,JAR,Study2,S,138,124,Test,User,-,,Recall,Recall1,22692,Jar,100,21274,21684,1,1,,0.759
5ebecb3f7899980b68a9898a,4va7029uyk,Nick_Dissertation_EX1,1,121,2020-10-24T10:41:46-07:00,30.817922115326,2,versionA_stim.csv,READVersionB.csv,"Read Version B","Dissertation, read only version B",PLANE,AIRCRAFT,Study2,B,129,174,Test,User,-,,Recall,Recall1,30246,Aircraft,100,26655,29404,1,1,,0.795
5ebecb3f7899980b68a9898a,4va7029uyk,Nick_Dissertation_EX1,1,122,2020-10-24T10:42:13-07:00,27.245342969894,2,versionA_stim.csv,READVersionB.csv,"Read Version B","Dissertation, read only version B",JUSTICE,MAROON,Study2,U,156,106,Test,User,-,,Recall,Recall1,26764,"Maroon ",100,21776,23069,1,1,,0.844
5ebecb3f7899980b68a9898a,4va7029uyk,Nick_Dissertation_EX1,1,123,2020-10-24T10:43:02-07:00,48.507764816284,2,versionA_stim.csv,READVersionB.csv,"Read Version B","Dissertation, read only version B",HONEST,TRUTHFUL,Study2,B,133,172,Test,User,-,,Recall,Recall1,47902,"Truthful ",100,44015,45771,1,1,,0.74
5ebecb3f7899980b68a9898a,4va7029uyk,Nick_Dissertation_EX1,1,124,2020-10-24T10:43:41-07:00,38.941306114197,2,versionA_stim.csv,READVersionB.csv,"Read Version B","Dissertation, read only version B",WRIST,BRACELET,Study2,S,140,128,Test,User,-,,Recall,Recall1,38399,"Hand ",16.666666666667,35967,36665,0,0,,0.464
5ebecb3f7899980b68a9898a,4va7029uyk,Nick_Dissertation_EX1,1,125,2020-10-24T10:43:57-07:00,16.367233037949,2,versionA_stim.csv,READVersionB.csv,"Read Version B","Dissertation, read only version B",KEYS,JOKE,Study2,U,165,144,Test,User,-,,Recall,Recall1,15910,Joke,100,14298,14969,1,1,,0.767
5ebecb3f7899980b68a9898a,4va7029uyk,Nick_Dissertation_EX1,1,126,2020-10-24T10:45:01-07:00,64.295464038849,2,versionA_stim.csv,READVersionB.csv,"Read Version B","Dissertation, read only version B",RIGHTS,EQUAL,Study2,S,137,149,Test,User,-,,Recall,Recall1,63856,Equal,100,60700,62905,1,1,,0.723
5ebecb3f7899980b68a9898a,4va7029uyk,Nick_Dissertation_EX1,1,127,2020-10-24T10:45:30-07:00,29.003477811813,2,versionA_stim.csv,READVersionB.csv,"Read Version B","Dissertation, read only version B",BIRD,PENGUIN,Study2,B,119,155,Test,User,-,,Recall,Recall1,28519,Penquin,85.714285714286,23635,27595,0,1,,0.822
5ebecb3f7899980b68a9898a,4va7029uyk,Nick_Dissertation_EX1,1,128,2020-10-24T10:46:02-07:00,31.630416154861,2,versionA_stim.csv,READVersionB.csv,"Read Version B","Dissertation, read only version B",CACTUS,PLANT,Study2,F,98,170,Test,User,-,,Recall,Recall1,31176,Plant,100,29399,30286,1,1,,0.742
5ebecb3f7899980b68a9898a,4va7029uyk,Nick_Dissertation_EX1,1,129,2020-10-24T10:46:16-07:00,14.322043895721,2,versionA_stim.csv,READVersionB.csv,"Read Version B","Dissertation, read only version B",INCENSE,SMELL,Study2,F,110,132,Test,User,-,,Recall,Recall1,13871,Smell,100,11158,12118,1,1,,0.778
5ebecb3f7899980b68a9898a,4va7029uyk,Nick_Dissertation_EX1,1,130,2020-10-24T10:46:57-07:00,40.958500146866,2,versionA_stim.csv,READVersionB.csv,"Read Version B","Dissertation, read only version B",STRETCH,CLOTH,Study2,U,157,169,Test,User,-,,Recall,Recall1,40531,Cloth,100,38827,39635,1,1,,0.475
5ebecb3f7899980b68a9898a,4va7029uyk,Nick_Dissertation_EX1,1,131,2020-10-24T10:47:14-07:00,16.678085803986,2,versionA_stim.csv,READVersionB.csv,"Read Version B","Dissertation, read only version B",FUZZY,BANG,Study2,U,168,133,Test,User,-,,Recall,Recall1,16229,Bang,100,11401,14285,1,1,,0.841
5ebecb3f7899980b68a9898a,4va7029uyk,Nick_Dissertation_EX1,1,132,2020-10-24T10:47:34-07:00,20.094280004501,2,versionA_stim.csv,READVersionB.csv,"Read Version B","Dissertation, read only version B",MIRROR,CHILDREN,Study2,U,174,167,Test,User,-,,Recall,Recall1,19629,"Children ",100,17273,17993,1,1,,0.8
5ebecb3f7899980b68a9898a,4va7029uyk,Nick_Dissertation_EX1,1,133,2020-10-24T10:47:54-07:00,20.070098161697,2,versionA_stim.csv,READVersionB.csv,"Read Version B","Dissertation, read only version B",GIVE,STEAK,Study2,U,158,127,Test,User,-,,Recall,Recall1,19615,Steak,100,17737,18722,1,1,,0.829
5ebecb3f7899980b68a9898a,4va7029uyk,Nick_Dissertation_EX1,1,134,2020-10-24T10:48:15-07:00,21.177927017212,2,versionA_stim.csv,READVersionB.csv,"Read Version B","Dissertation, read only version B",LEASE,TOIL,Study2,U,170,171,Test,User,-,,Recall,Recall1,20747,Toil,100,19256,19904,1,1,,0.741
5ebecb3f7899980b68a9898a,4va7029uyk,Nick_Dissertation_EX1,1,135,2020-10-24T10:48:22-07:00,7.1039559841156,2,versionA_stim.csv,READVersionB.csv,"Read Version B","Dissertation, read only version B",SAFETY,SEATBELT,Study2,S,147,116,Test,User,-,,Recall,Recall1,6559,Seatbelt,100,3545,5725,1,1,,1
5ebecb3f7899980b68a9898a,4va7029uyk,Nick_Dissertation_EX1,1,136,2020-10-24T10:48:57-07:00,34.615110874176,2,versionA_stim.csv,READVersionB.csv,"Read Version B","Dissertation, read only version B",EXTENSION,LONG,Study2,F,96,162,Test,User,-,,Recall,Recall1,33949,Stretch,0,31678,33092,0,0,,0.718
5ebecb3f7899980b68a9898a,4va7029uyk,Nick_Dissertation_EX1,1,137,2020-10-24T10:49:18-07:00,21.5008020401,2,versionA_stim.csv,READVersionB.csv,"Read Version B","Dissertation, read only version B",CRACKLE,ABLE,Study2,U,162,140,Test,User,-,,Recall,Recall1,21043,Able,100,19382,20124,1,1,,0.774
5ebecb3f7899980b68a9898a,4va7029uyk,Nick_Dissertation_EX1,1,138,2020-10-24T10:49:30-07:00,11.339631080627,2,versionA_stim.csv,READVersionB.csv,"Read Version B","Dissertation, read only version B",CHOP,CUT,Study2,F,107,130,Test,User,-,,Recall,Recall1,10851,Cut,100,9468,9934,1,1,,0.741
5ebecb3f7899980b68a9898a,4va7029uyk,Nick_Dissertation_EX1,1,139,2020-10-24T10:49:42-07:00,12.212163925171,2,versionA_stim.csv,READVersionB.csv,"Read Version B","Dissertation, read only version B",TRUTH,LIE,Study2,S,148,110,Test,User,-,,Recall,Recall1,11747,Lie,100,10368,10895,1,1,,0.741
5ebecb3f7899980b68a9898a,4va7029uyk,Nick_Dissertation_EX1,1,140,2020-10-24T10:50:10-07:00,28.574072122574,2,versionA_stim.csv,READVersionB.csv,"Read Version B","Dissertation, read only version B",MONEY,BANKER,Study2,B,132,120,Test,User,-,,Recall,Recall1,26949,"Spend ",18.181818181818,24295,25202,0,0,,0.8
5ebecb3f7899980b68a9898a,4va7029uyk,Nick_Dissertation_EX1,1,141,2020-10-24T10:50:21-07:00,10.498375892639,2,versionA_stim.csv,READVersionB.csv,"Read Version B","Dissertation, read only version B",LOAN,SIGN,Study2,U,171,147,Test,User,-,,Recall,Recall1,9886,Sign,100,8340,9017,1,1,,0.778
5ebecb3f7899980b68a9898a,4va7029uyk,Nick_Dissertation_EX1,1,142,2020-10-24T10:50:39-07:00,17.658992052078,2,versionA_stim.csv,READVersionB.csv,"Read Version B","Dissertation, read only version B",FRUIT,STRAWBERRY,Study2,B,124,145,Test,User,-,,Recall,Recall1,17176,"Strawberry ",100,13088,15401,1,1,,0.825
5ebecb3f7899980b68a9898a,4va7029uyk,Nick_Dissertation_EX1,1,143,2020-10-24T10:50:59-07:00,19.941653013229,2,versionA_stim.csv,READVersionB.csv,"Read Version B","Dissertation, read only version B",DINE,EAT,Study2,F,111,103,Test,User,-,,Recall,Recall1,19473,Ear,66.666666666667,18143,18517,0,0,,0.704
5ebecb3f7899980b68a9898a,4va7029uyk,Nick_Dissertation_EX1,1,144,2020-10-24T10:51:14-07:00,15.555673837662,2,versionA_stim.csv,READVersionB.csv,"Read Version B","Dissertation, read only version B",ADJOURN,END,Study2,F,101,129,Test,User,-,,Recall,Recall1,15111,End,100,13589,14112,1,1,,0.767
5ebecb3f7899980b68a9898a,4va7029uyk,Nick_Dissertation_EX1,1,145,2020-10-24T10:51:22-07:00,7.9254910945892,2,versionA_stim.csv,READVersionB.csv,"Read Version B","Dissertation, read only version B",DEAD,COFFIN,Study2,B,128,125,Test,User,-,,Recall,Recall1,7398,Coffin,100,4321,6230,1,1,,1
5ebecb3f7899980b68a9898a,4va7029uyk,Nick_Dissertation_EX1,1,146,2020-10-24T10:51:43-07:00,21.047486066818,2,versionA_stim.csv,READVersionB.csv,"Read Version B","Dissertation, read only version B",FLEA,TICK,Study2,S,151,101,Test,User,-,,Recall,Recall1,20457,Tick,100,18903,19567,1,1,,0.733
5ebecb3f7899980b68a9898a,4va7029uyk,Nick_Dissertation_EX1,1,147,2020-10-24T10:52:07-07:00,23.796545028687,2,versionA_stim.csv,READVersionB.csv,"Read Version B","Dissertation, read only version B",MAZE,ELECTION,Study2,U,159,118,Test,User,-,,Recall,Recall1,23295,"Election ",100,20230,21069,1,1,,0.778
5ebecb3f7899980b68a9898a,4va7029uyk,Nick_Dissertation_EX1,1,148,2020-10-24T10:52:18-07:00,11.422803878784,2,versionA_stim.csv,READVersionB.csv,"Read Version B","Dissertation, read only version B",CAKE,CLOTHES,Study2,U,166,152,Test,User,-,,Recall,Recall1,10972,Clothes,100,8917,10094,1,1,,0.793
5ebecb3f7899980b68a9898a,4va7029uyk,Nick_Dissertation_EX1,1,149,2020-10-24T10:52:40-07:00,21.898638963699,2,versionA_stim.csv,READVersionB.csv,"Read Version B","Dissertation, read only version B",MEAT,OBTAIN,Study2,U,161,113,Test,User,-,,Recall,Recall1,21419,"Obtain ",100,19162,19937,1,1,,0.765
5ebecb3f7899980b68a9898a,4va7029uyk,Nick_Dissertation_EX1,1,150,2020-10-24T10:53:01-07:00,20.779461145401,2,versionA_stim.csv,READVersionB.csv,"Read Version B","Dissertation, read only version B",BOTH,OUNCE,Study2,U,172,166,Test,User,-,,Recall,Recall1,20318,Ounce,100,18418,19360,1,1,,0.733
5ebecb3f7899980b68a9898a,4va7029uyk,Nick_Dissertation_EX1,1,151,2020-10-24T10:53:30-07:00,28.880322933197,2,versionA_stim.csv,READVersionB.csv,"Read Version B","Dissertation, read only version B",CHERRY,RED,Study2,F,104,119,Test,User,-,,Recall,Recall1,28424,Red,100,27101,27440,1,1,,0.741
5ebecb3f7899980b68a9898a,4va7029uyk,Nick_Dissertation_EX1,1,152,2020-10-24T10:53:48-07:00,18.42853307724,2,versionA_stim.csv,READVersionB.csv,"Read Version B","Dissertation, read only version B",SUN,TAN,Study2,S,155,107,Test,User,-,,Recall,Recall1,17967,Tan,100,16555,17163,1,1,,0.759
5ebecb3f7899980b68a9898a,4va7029uyk,Nick_Dissertation_EX1,1,153,2020-10-24T10:54:01-07:00,12.321604967117,2,versionA_stim.csv,READVersionB.csv,"Read Version B","Dissertation, read only version B",TANTRUM,TEMPER,Study2,S,154,105,Test,User,-,,Recall,Recall1,11863,Temper,100,9953,11035,1,1,,0.813
5ebecb3f7899980b68a9898a,4va7029uyk,Nick_Dissertation_EX1,1,154,2020-10-24T10:54:16-07:00,15.565366983414,2,versionA_stim.csv,READVersionB.csv,"Read Version B","Dissertation, read only version B",FIGHT,BRAWL,Study2,B,135,159,Test,User,-,,Recall,Recall1,15116,Brawl,100,13291,14255,1,1,,0.758
5ebecb3f7899980b68a9898a,4va7029uyk,Nick_Dissertation_EX1,1,155,2020-10-24T10:54:37-07:00,20.830492973328,2,versionA_stim.csv,READVersionB.csv,"Read Version B","Dissertation, read only version B",EVEN,REVENGE,Study2,B,122,112,Test,User,-,,Recall,Recall1,20312,"Revenge ",100,16590,18658,1,1,,0.795
5ebecb3f7899980b68a9898a,4va7029uyk,Nick_Dissertation_EX1,1,156,2020-10-24T10:54:52-07:00,14.638316869736,2,versionA_stim.csv,READVersionB.csv,"Read Version B","Dissertation, read only version B",BEST,FAVORITE,Study2,B,125,111,Test,User,-,,Recall,Recall1,14043,"Favourite ",94.117647058824,10938,12116,0,1,,0.8
5ebecb3f7899980b68a9898a,4va7029uyk,Nick_Dissertation_EX1,1,157,2020-10-24T10:55:12-07:00,19.869765996933,2,versionA_stim.csv,READVersionB.csv,"Read Version B","Dissertation, read only version B",CAR,WINDSHIELD,Study2,B,117,146,Test,User,-,,Recall,Recall1,19308,Driver,37.5,16583,18436,0,0,,0.771
5ebecb3f7899980b68a9898a,4va7029uyk,Nick_Dissertation_EX1,1,158,2020-10-24T10:55:27-07:00,15.434239149094,2,versionA_stim.csv,READVersionB.csv,"Read Version B","Dissertation, read only version B",MAIN,SCAR,Study2,U,175,131,Test,User,-,,Recall,Recall1,14900,Scar,100,13411,13980,1,1,,0.704
5ebecb3f7899980b68a9898a,4va7029uyk,Nick_Dissertation_EX1,1,159,2020-10-24T10:55:45-07:00,18.218617916107,2,versionA_stim.csv,READVersionB.csv,"Read Version B","Dissertation, read only version B",FEUD,FIGHT,Study2,F,113,135,Test,User,-,,Recall,Recall1,17770,Fight,100,16084,16854,1,1,,0.75
5ebecb3f7899980b68a9898a,4va7029uyk,Nick_Dissertation_EX1,1,160,2020-10-24T10:55:58-07:00,13.087197065353,2,versionA_stim.csv,READVersionB.csv,"Read Version B","Dissertation, read only version B",THREAD,THIMBLE,Study2,B,121,137,Test,User,-,,Recall,Recall1,12625,"Thimble ",100,9509,10906,1,1,,0.8
5ebecb3f7899980b68a9898a,4va7029uyk,Nick_Dissertation_EX1,1,161,2020-10-24T10:56:16-07:00,17.978295087814,2,versionA_stim.csv,READVersionB.csv,"Read Version B","Dissertation, read only version B",FISH,SARDINE,Study2,B,130,163,Test,User,-,,Recall,Recall1,17488,Sardine,100,14013,14711,1,1,,0.821
5ebecb3f7899980b68a9898a,4va7029uyk,Nick_Dissertation_EX1,1,162,2020-10-24T10:56:37-07:00,20.993135929108,2,versionA_stim.csv,READVersionB.csv,"Read Version B","Dissertation, read only version B",CLUE,GAME,Study2,F,97,115,Test,User,-,,Recall,Recall1,20354,Game,100,18613,19295,1,1,,0.714
5ebecb3f7899980b68a9898a,4va7029uyk,Nick_Dissertation_EX1,1,163,2020-10-24T10:56:51-07:00,14.232064962387,2,versionA_stim.csv,READVersionB.csv,"Read Version B","Dissertation, read only version B",CAT,PANTHER,Study2,B,126,102,Test,User,-,,Recall,Recall1,13788,Panther,100,11595,12928,1,1,,0.75
5ebecb3f7899980b68a9898a,4va7029uyk,Nick_Dissertation_EX1,1,164,2020-10-24T10:57:02-07:00,10.579597949982,2,versionA_stim.csv,READVersionB.csv,"Read Version B","Dissertation, read only version B",ELEMENT,CARBON,Study2,S,141,151,Test,User,-,,Recall,Recall1,10125,Carbon,100,7924,9291,1,1,,0.793
5ebecb3f7899980b68a9898a,4va7029uyk,Nick_Dissertation_EX1,1,165,2020-10-24T10:57:16-07:00,14.29777598381,2,versionA_stim.csv,READVersionB.csv,"Read Version B","Dissertation, read only version B",VEHICLE,CHARM,Study2,U,160,117,Test,User,-,,Recall,Recall1,13826,"Charm ",100,11305,12140,1,1,,0.75
5ebecb3f7899980b68a9898a,4va7029uyk,Nick_Dissertation_EX1,1,166,2020-10-24T10:57:31-07:00,14.541282176971,2,versionA_stim.csv,READVersionB.csv,"Read Version B","Dissertation, read only version B",GLASS,BREAKABLE,Study2,B,127,142,Test,User,-,,Recall,Recall1,13969,"Breakable ",100,8646,12185,1,1,,0.867
5ebecb3f7899980b68a9898a,4va7029uyk,Nick_Dissertation_EX1,1,167,2020-10-24T10:57:46-07:00,14.645150899887,2,versionA_stim.csv,READVersionB.csv,"Read Version B","Dissertation, read only version B",SHEARS,SCISSORS,Study2,F,112,153,Test,User,-,,Recall,Recall1,14100,"Scissors ",100,10661,12405,1,1,,0.784
5ebecb3f7899980b68a9898a,4va7029uyk,Nick_Dissertation_EX1,1,168,2020-10-24T10:57:55-07:00,9.5219519138336,2,versionA_stim.csv,READVersionB.csv,"Read Version B","Dissertation, read only version B",OWN,HAVE,Study2,S,153,136,Test,User,-,,Recall,Recall1,8977,Have,100,7497,8126,1,1,,0.792
5ebecb3f7899980b68a9898a,4va7029uyk,Nick_Dissertation_EX1,1,169,2020-10-24T10:58:04-07:00,9.4223971366882,2,versionA_stim.csv,READVersionB.csv,"Read Version B","Dissertation, read only version B",DRIVER,CAR,Study2,F,106,123,Test,User,-,,Recall,Recall1,8952,Car,100,7490,7915,1,1,,0.846
5ebecb3f7899980b68a9898a,4va7029uyk,Nick_Dissertation_EX1,1,170,2020-10-24T10:58:12-07:00,7.1715579032898,2,versionA_stim.csv,READVersionB.csv,"Read Version B","Dissertation, read only version B",CHILL,COLD,Study2,F,114,164,Test,User,-,,Recall,Recall1,6589,Cold,100,4979,5670,1,1,,0.864
5ebecb3f7899980b68a9898a,4va7029uyk,Nick_Dissertation_EX1,1,171,2020-10-24T10:58:23-07:00,11.158901929855,2,versionA_stim.csv,READVersionB.csv,"Read Version B","Dissertation, read only version B",AFFECTION,LOVE,Study2,F,115,148,Test,User,-,,Recall,Recall1,10506,Love,100,9031,9648,1,1,,0.769
5ebecb3f7899980b68a9898a,4va7029uyk,Nick_Dissertation_EX1,1,172,2020-10-24T10:58:35-07:00,12.010658025742,2,versionA_stim.csv,READVersionB.csv,"Read Version B","Dissertation, read only version B",ROD,REEL,Study2,S,150,98,Test,User,-,,Recall,Recall1,11494,"Reel ",100,9075,9739,1,1,,0.813
5ebecb3f7899980b68a9898a,4va7029uyk,Nick_Dissertation_EX1,1,173,2020-10-24T10:58:47-07:00,12.673923969269,2,versionA_stim.csv,READVersionB.csv,"Read Version B","Dissertation, read only version B",LITTER,TRASH,Study2,F,103,141,Test,User,-,,Recall,Recall1,12162,Dump,0,10445,11238,0,0,,0.724
5ebecb3f7899980b68a9898a,4va7029uyk,Nick_Dissertation_EX1,1,174,2020-10-24T10:59:04-07:00,16.17907500267,2,versionA_stim.csv,READVersionB.csv,"Read Version B","Dissertation, read only version B",LISTEN,FICTION,Study2,U,164,168,Test,User,-,,Recall,Recall1,15523,"Fiction ",100,12912,13716,1,1,,0.923
5ebecb3f7899980b68a9898a,4va7029uyk,Nick_Dissertation_EX1,1,175,2020-10-24T10:59:29-07:00,25.079657077789,2,versionA_stim.csv,READVersionB.csv,"Read Version B","Dissertation, read only version B",,,,,,0,Instruct,-,10,"You will now be presented with a new set of word pairs. Please study each pair. Remember that your memory will be tested! When finished, press Enter to move to the next pair.",Initial_Instruct,Instruct4,24542,,,-1,-1,,,,0.945
5ebecb3f7899980b68a9898a,4va7029uyk,Nick_Dissertation_EX1,1,176,2020-10-24T11:00:51-07:00,81.923011064529,2,versionA_stim.csv,READVersionB.csv,"Read Version B","Dissertation, read only version B",BASEBALL,CATCHER,BUFFER1,Buffer,2,6,Study,User,-,,Study/JOL,BUFFER3,81497,,,-1,-1,,,,0.868
5ebecb3f7899980b68a9898a,4va7029uyk,Nick_Dissertation_EX1,1,177,2020-10-24T11:00:55-07:00,4.4713449478149,2,versionA_stim.csv,READVersionB.csv,"Read Version B","Dissertation, read only version B",TREES,GREEN,BUFFER1,Buffer,1,4,Study,User,-,,Study/JOL,BUFFER3,4019,,,-1,-1,,,,1
5ebecb3f7899980b68a9898a,4va7029uyk,Nick_Dissertation_EX1,1,178,2020-10-24T11:00:59-07:00,4.1565930843353,2,versionA_stim.csv,READVersionB.csv,"Read Version B","Dissertation, read only version B",SPACE,JAM,BUFFER1,Buffer,5,3,Study,User,-,,Study/JOL,BUFFER3,3749,,,-1,-1,,,,1
5ebecb3f7899980b68a9898a,4va7029uyk,Nick_Dissertation_EX1,1,179,2020-10-24T11:01:03-07:00,3.3490438461304,2,versionA_stim.csv,READVersionB.csv,"Read Version B","Dissertation, read only version B",PEANUT,BUTTER,BUFFER1,Buffer,3,5,Study,User,-,,Study/JOL,BUFFER3,2925,,,-1,-1,,,,1
5ebecb3f7899980b68a9898a,4va7029uyk,Nick_Dissertation_EX1,1,180,2020-10-24T11:01:06-07:00,3.3807640075684,2,versionA_stim.csv,READVersionB.csv,"Read Version B","Dissertation, read only version B",SCARE,HIDE,BUFFER1,Buffer,4,2,Study,User,-,,Study/JOL,BUFFER3,2931,,,-1,-1,,,,1
5ebecb3f7899980b68a9898a,4va7029uyk,Nick_Dissertation_EX1,1,181,2020-10-24T11:01:11-07:00,4.9797930717468,2,versionA_stim.csv,READVersionB.csv,"Read Version B","Dissertation, read only version B",BLOW,WIND,Study1,S,55,37,Study,User,-,,Study/JOL,"Study Phase2",4548,,,-1,-1,,,,1
5ebecb3f7899980b68a9898a,4va7029uyk,Nick_Dissertation_EX1,1,182,2020-10-24T11:01:16-07:00,5.2765340805054,2,versionA_stim.csv,READVersionB.csv,"Read Version B","Dissertation, read only version B",REVOLUTION,WAR,Study1,F,20,51,Study,User,-,,Study/JOL,"Study Phase2",4862,,,-1,-1,,,,1
5ebecb3f7899980b68a9898a,4va7029uyk,Nick_Dissertation_EX1,1,183,2020-10-24T11:01:20-07:00,3.5341358184814,2,versionA_stim.csv,READVersionB.csv,"Read Version B","Dissertation, read only version B",DISCUSSION,TALK,Study1,F,21,77,Study,User,-,,Study/JOL,"Study Phase2",3108,,,-1,-1,,,,1
5ebecb3f7899980b68a9898a,4va7029uyk,Nick_Dissertation_EX1,1,184,2020-10-24T11:01:23-07:00,3.4626531600952,2,versionA_stim.csv,READVersionB.csv,"Read Version B","Dissertation, read only version B",ART,LION,Study1,U,79,31,Study,User,-,,Study/JOL,"Study Phase2",3043,,,-1,-1,,,,1
5ebecb3f7899980b68a9898a,4va7029uyk,Nick_Dissertation_EX1,1,185,2020-10-24T11:01:27-07:00,3.6672298908234,2,versionA_stim.csv,READVersionB.csv,"Read Version B","Dissertation, read only version B",LAW,ATTORNEY,Study1,B,34,13,Study,User,-,,Study/JOL,"Study Phase2",3256,,,-1,-1,,,,1
5ebecb3f7899980b68a9898a,4va7029uyk,Nick_Dissertation_EX1,1,186,2020-10-24T11:01:30-07:00,3.3173060417175,2,versionA_stim.csv,READVersionB.csv,"Read Version B","Dissertation, read only version B",DIETARY,SACKING,Study1,U,67,86,Study,User,-,,Study/JOL,"Study Phase2",2882,,,-1,-1,,,,1
5ebecb3f7899980b68a9898a,4va7029uyk,Nick_Dissertation_EX1,1,187,2020-10-24T11:01:34-07:00,3.4504790306091,2,versionA_stim.csv,READVersionB.csv,"Read Version B","Dissertation, read only version B",PLANE,PILOT,Study1,B,44,26,Study,User,-,,Study/JOL,"Study Phase2",3022,,,-1,-1,,,,1
5ebecb3f7899980b68a9898a,4va7029uyk,Nick_Dissertation_EX1,1,188,2020-10-24T11:01:37-07:00,3.6482698917389,2,versionA_stim.csv,READVersionB.csv,"Read Version B","Dissertation, read only version B",DIGESTION,STOMACH,Study1,F,7,28,Study,User,-,,Study/JOL,"Study Phase2",3206,,,-1,-1,,,,1
5ebecb3f7899980b68a9898a,4va7029uyk,Nick_Dissertation_EX1,1,189,2020-10-24T11:01:44-07:00,6.3554282188416,2,versionA_stim.csv,READVersionB.csv,"Read Version B","Dissertation, read only version B",ARCHITECTURE,DESIGN,Study1,S,51,72,Study,User,-,,Study/JOL,"Study Phase2",5852,,,-1,-1,,,,1
5ebecb3f7899980b68a9898a,4va7029uyk,Nick_Dissertation_EX1,1,190,2020-10-24T11:01:48-07:00,4.4195158481598,2,versionA_stim.csv,READVersionB.csv,"Read Version B","Dissertation, read only version B",DEBATE,SIGHT,Study1,U,73,73,Study,User,-,,Study/JOL,"Study Phase2",4011,,,-1,-1,,,,1
5ebecb3f7899980b68a9898a,4va7029uyk,Nick_Dissertation_EX1,1,191,2020-10-24T11:01:51-07:00,3.2678711414337,2,versionA_stim.csv,READVersionB.csv,"Read Version B","Dissertation, read only version B",KEY,LATCH,Study1,B,36,64,Study,User,-,,Study/JOL,"Study Phase2",2853,,,-1,-1,,,,1
5ebecb3f7899980b68a9898a,4va7029uyk,Nick_Dissertation_EX1,1,192,2020-10-24T11:01:55-07:00,3.1780669689178,2,versionA_stim.csv,READVersionB.csv,"Read Version B","Dissertation, read only version B",SWAN,BIRD,Study1,F,14,16,Study,User,-,,Study/JOL,"Study Phase2",2751,,,-1,-1,,,,1
5ebecb3f7899980b68a9898a,4va7029uyk,Nick_Dissertation_EX1,1,193,2020-10-24T11:01:58-07:00,3.0731010437012,2,versionA_stim.csv,READVersionB.csv,"Read Version B","Dissertation, read only version B",TRIAL,JURY,Study1,S,50,39,Study,User,-,,Study/JOL,"Study Phase2",2628,,,-1,-1,,,,1
5ebecb3f7899980b68a9898a,4va7029uyk,Nick_Dissertation_EX1,1,194,2020-10-24T11:02:01-07:00,3.4059038162231,2,versionA_stim.csv,READVersionB.csv,"Read Version B","Dissertation, read only version B",LIFT,WOMAN,Study1,U,69,36,Study,User,-,,Study/JOL,"Study Phase2",2960,,,-1,-1,,,,1
5ebecb3f7899980b68a9898a,4va7029uyk,Nick_Dissertation_EX1,1,195,2020-10-24T11:02:04-07:00,3.2026000022888,2,versionA_stim.csv,READVersionB.csv,"Read Version B","Dissertation, read only version B",KING,VASE,Study1,U,85,59,Study,User,-,,Study/JOL,"Study Phase2",2698,,,-1,-1,,,,1
5ebecb3f7899980b68a9898a,4va7029uyk,Nick_Dissertation_EX1,1,196,2020-10-24T11:02:07-07:00,2.9407291412354,2,versionA_stim.csv,READVersionB.csv,"Read Version B","Dissertation, read only version B",BEGIN,END,Study1,S,54,25,Study,User,-,,Study/JOL,"Study Phase2",2515,,,-1,-1,,,,1
5ebecb3f7899980b68a9898a,4va7029uyk,Nick_Dissertation_EX1,1,197,2020-10-24T11:02:10-07:00,2.8862249851227,2,versionA_stim.csv,READVersionB.csv,"Read Version B","Dissertation, read only version B",FIRE,BLAZE,Study1,B,45,68,Study,User,-,,Study/JOL,"Study Phase2",2471,,,-1,-1,,,,1
5ebecb3f7899980b68a9898a,4va7029uyk,Nick_Dissertation_EX1,1,198,2020-10-24T11:02:13-07:00,3.2155900001526,2,versionA_stim.csv,READVersionB.csv,"Read Version B","Dissertation, read only version B",HUNGER,FAMINE,Study1,B,40,33,Study,User,-,,Study/JOL,"Study Phase2",2723,,,-1,-1,,,,1
5ebecb3f7899980b68a9898a,4va7029uyk,Nick_Dissertation_EX1,1,199,2020-10-24T11:02:16-07:00,3.0554399490356,2,versionA_stim.csv,READVersionB.csv,"Read Version B","Dissertation, read only version B",SLEEP,DROWSY,Study1,B,41,32,Study,User,-,,Study/JOL,"Study Phase2",2625,,,-1,-1,,,,1
5ebecb3f7899980b68a9898a,4va7029uyk,Nick_Dissertation_EX1,1,200,2020-10-24T11:02:20-07:00,3.2301630973816,2,versionA_stim.csv,READVersionB.csv,"Read Version B","Dissertation, read only version B",DUMP,WASTE,Study1,S,49,30,Study,User,-,,Study/JOL,"Study Phase2",2805,,,-1,-1,,,,1
5ebecb3f7899980b68a9898a,4va7029uyk,Nick_Dissertation_EX1,1,201,2020-10-24T11:02:23-07:00,3.3006517887115,2,versionA_stim.csv,READVersionB.csv,"Read Version B","Dissertation, read only version B",ORCHID,FLOWER,Study1,F,24,65,Study,User,-,,Study/JOL,"Study Phase2",2857,,,-1,-1,,,,1
5ebecb3f7899980b68a9898a,4va7029uyk,Nick_Dissertation_EX1,1,202,2020-10-24T11:02:26-07:00,3.1693780422211,2,versionA_stim.csv,READVersionB.csv,"Read Version B","Dissertation, read only version B",WAY,OUT,Study1,F,16,23,Study,User,-,,Study/JOL,"Study Phase2",2651,,,-1,-1,,,,1
5ebecb3f7899980b68a9898a,4va7029uyk,Nick_Dissertation_EX1,1,203,2020-10-24T11:02:30-07:00,3.7124471664429,2,versionA_stim.csv,READVersionB.csv,"Read Version B","Dissertation, read only version B",SOON,BELT,Study1,U,70,35,Study,User,-,,Study/JOL,"Study Phase2",3295,,,-1,-1,,,,1
5ebecb3f7899980b68a9898a,4va7029uyk,Nick_Dissertation_EX1,1,204,2020-10-24T11:02:33-07:00,2.972384929657,2,versionA_stim.csv,READVersionB.csv,"Read Version B","Dissertation, read only version B",HORNET,STING,Study1,F,11,46,Study,User,-,,Study/JOL,"Study Phase2",2547,,,-1,-1,,,,1
5ebecb3f7899980b68a9898a,4va7029uyk,Nick_Dissertation_EX1,1,205,2020-10-24T11:02:37-07:00,3.8297300338745,2,versionA_stim.csv,READVersionB.csv,"Read Version B","Dissertation, read only version B",EDITOR,NEWS,Study1,F,10,45,Study,User,-,,Study/JOL,"Study Phase2",3396,,,-1,-1,,,,1
5ebecb3f7899980b68a9898a,4va7029uyk,Nick_Dissertation_EX1,1,206,2020-10-24T11:02:40-07:00,2.9665389060974,2,versionA_stim.csv,READVersionB.csv,"Read Version B","Dissertation, read only version B",FULL,ENOUGH,Study1,B,26,60,Study,User,-,,Study/JOL,"Study Phase2",2525,,,-1,-1,,,,1
5ebecb3f7899980b68a9898a,4va7029uyk,Nick_Dissertation_EX1,1,207,2020-10-24T11:02:43-07:00,3.5688209533691,2,versionA_stim.csv,READVersionB.csv,"Read Version B","Dissertation, read only version B",HEIGHT,GROWTH,Study1,B,30,20,Study,User,-,,Study/JOL,"Study Phase2",3139,,,-1,-1,,,,1
5ebecb3f7899980b68a9898a,4va7029uyk,Nick_Dissertation_EX1,1,208,2020-10-24T11:02:47-07:00,3.6025140285492,2,versionA_stim.csv,READVersionB.csv,"Read Version B","Dissertation, read only version B",POP,SODA,Study1,S,56,53,Study,User,-,,Study/JOL,"Study Phase2",3173,,,-1,-1,,,,1
5ebecb3f7899980b68a9898a,4va7029uyk,Nick_Dissertation_EX1,1,209,2020-10-24T11:02:50-07:00,3.1075661182404,2,versionA_stim.csv,READVersionB.csv,"Read Version B","Dissertation, read only version B",BITTER,COLD,Study1,F,12,42,Study,User,-,,Study/JOL,"Study Phase2",2644,,,-1,-1,,,,1
5ebecb3f7899980b68a9898a,4va7029uyk,Nick_Dissertation_EX1,1,210,2020-10-24T11:02:53-07:00,3.4209289550781,2,versionA_stim.csv,READVersionB.csv,"Read Version B","Dissertation, read only version B",SUGAR,RIDDLE,Study1,U,81,58,Study,User,-,,Study/JOL,"Study Phase2",3004,,,-1,-1,,,,1
5ebecb3f7899980b68a9898a,4va7029uyk,Nick_Dissertation_EX1,1,211,2020-10-24T11:02:58-07:00,4.4014608860016,2,versionA_stim.csv,READVersionB.csv,"Read Version B","Dissertation, read only version B",SENTENCE,WORD,Study1,B,31,61,Study,User,-,,Study/JOL,"Study Phase2",3964,,,-1,-1,,,,1
5ebecb3f7899980b68a9898a,4va7029uyk,Nick_Dissertation_EX1,1,212,2020-10-24T11:03:01-07:00,3.2257339954376,2,versionA_stim.csv,READVersionB.csv,"Read Version B","Dissertation, read only version B",PAST,FUTURE,Study1,S,61,80,Study,User,-,,Study/JOL,"Study Phase2",2792,,,-1,-1,,,,1
5ebecb3f7899980b68a9898a,4va7029uyk,Nick_Dissertation_EX1,1,213,2020-10-24T11:03:04-07:00,2.7547340393066,2,versionA_stim.csv,READVersionB.csv,"Read Version B","Dissertation, read only version B",CIRCLE,ROUND,Study1,S,65,50,Study,User,-,,Study/JOL,"Study Phase2",2350,,,-1,-1,,,,1
5ebecb3f7899980b68a9898a,4va7029uyk,Nick_Dissertation_EX1,1,214,2020-10-24T11:03:07-07:00,3.3105759620667,2,versionA_stim.csv,READVersionB.csv,"Read Version B","Dissertation, read only version B",BALL,RACKET,Study1,B,38,29,Study,User,-,,Study/JOL,"Study Phase2",2806,,,-1,-1,,,,1
5ebecb3f7899980b68a9898a,4va7029uyk,Nick_Dissertation_EX1,1,215,2020-10-24T11:03:10-07:00,3.2031891345978,2,versionA_stim.csv,READVersionB.csv,"Read Version B","Dissertation, read only version B",PARK,HUNGRY,Study1,U,68,21,Study,User,-,,Study/JOL,"Study Phase2",2666,,,-1,-1,,,,1
5ebecb3f7899980b68a9898a,4va7029uyk,Nick_Dissertation_EX1,1,216,2020-10-24T11:03:15-07:00,4.6136360168457,2,versionA_stim.csv,READVersionB.csv,"Read Version B","Dissertation, read only version B",CREDIT,CARD,Study1,F,23,40,Study,User,-,,Study/JOL,"Study Phase2",3085,,,-1,-1,,,,1
5ebecb3f7899980b68a9898a,4va7029uyk,Nick_Dissertation_EX1,1,217,2020-10-24T11:03:18-07:00,3.018828868866,2,versionA_stim.csv,READVersionB.csv,"Read Version B","Dissertation, read only version B",WINE,CHEESE,Study1,S,57,24,Study,User,-,,Study/JOL,"Study Phase2",2601,,,-1,-1,,,,1
5ebecb3f7899980b68a9898a,4va7029uyk,Nick_Dissertation_EX1,1,218,2020-10-24T11:03:21-07:00,3.6747500896454,2,versionA_stim.csv,READVersionB.csv,"Read Version B","Dissertation, read only version B",BABY,CHILD,Study1,S,64,54,Study,User,-,,Study/JOL,"Study Phase2",3206,,,-1,-1,,,,1
5ebecb3f7899980b68a9898a,4va7029uyk,Nick_Dissertation_EX1,1,219,2020-10-24T11:03:28-07:00,6.6069619655609,2,versionA_stim.csv,READVersionB.csv,"Read Version B","Dissertation, read only version B",DEATH,BUSINESS,Study1,U,72,22,Study,User,-,,Study/JOL,"Study Phase2",6170,,,-1,-1,,,,1
5ebecb3f7899980b68a9898a,4va7029uyk,Nick_Dissertation_EX1,1,220,2020-10-24T11:03:31-07:00,3.3675570487976,2,versionA_stim.csv,READVersionB.csv,"Read Version B","Dissertation, read only version B",PAW,DOG,Study1,F,15,69,Study,User,-,,Study/JOL,"Study Phase2",2873,,,-1,-1,,,,1
5ebecb3f7899980b68a9898a,4va7029uyk,Nick_Dissertation_EX1,1,221,2020-10-24T11:03:34-07:00,2.8496470451355,2,versionA_stim.csv,READVersionB.csv,"Read Version B","Dissertation, read only version B",HAPPY,CAR,Study1,U,77,43,Study,User,-,,Study/JOL,"Study Phase2",2397,,,-1,-1,,,,1
5ebecb3f7899980b68a9898a,4va7029uyk,Nick_Dissertation_EX1,1,222,2020-10-24T11:03:37-07:00,2.9256978034973,2,versionA_stim.csv,READVersionB.csv,"Read Version B","Dissertation, read only version B",HERD,COW,Study1,F,22,18,Study,User,-,,Study/JOL,"Study Phase2",2481,,,-1,-1,,,,1
5ebecb3f7899980b68a9898a,4va7029uyk,Nick_Dissertation_EX1,1,223,2020-10-24T11:03:40-07:00,2.7189211845398,2,versionA_stim.csv,READVersionB.csv,"Read Version B","Dissertation, read only version B",HONEY,BEE,Study1,S,63,52,Study,User,-,,Study/JOL,"Study Phase2",2277,,,-1,-1,,,,1
5ebecb3f7899980b68a9898a,4va7029uyk,Nick_Dissertation_EX1,1,224,2020-10-24T11:03:43-07:00,2.8475909233093,2,versionA_stim.csv,READVersionB.csv,"Read Version B","Dissertation, read only version B",FIX,HAND,Study1,U,75,78,Study,User,-,,Study/JOL,"Study Phase2",2405,,,-1,-1,,,,1
5ebecb3f7899980b68a9898a,4va7029uyk,Nick_Dissertation_EX1,1,225,2020-10-24T11:03:46-07:00,2.8961770534515,2,versionA_stim.csv,READVersionB.csv,"Read Version B","Dissertation, read only version B",CLOTHES,ATTIRE,Study1,B,43,14,Study,User,-,,Study/JOL,"Study Phase2",2513,,,-1,-1,,,,1
5ebecb3f7899980b68a9898a,4va7029uyk,Nick_Dissertation_EX1,1,226,2020-10-24T11:03:50-07:00,4.2899608612061,2,versionA_stim.csv,READVersionB.csv,"Read Version B","Dissertation, read only version B",BATHROOM,TOILET,Study1,S,58,11,Study,User,-,,Study/JOL,"Study Phase2",3870,,,-1,-1,,,,1
5ebecb3f7899980b68a9898a,4va7029uyk,Nick_Dissertation_EX1,1,227,2020-10-24T11:05:31-07:00,101.55534815788,2,versionA_stim.csv,READVersionB.csv,"Read Version B","Dissertation, read only version B",STRONG,ACCIDENT,Study1,U,80,7,Study,User,-,,Study/JOL,"Study Phase2",101118,,,-1,-1,,,,0.745
5ebecb3f7899980b68a9898a,4va7029uyk,Nick_Dissertation_EX1,1,228,2020-10-24T11:05:36-07:00,4.5786578655243,2,versionA_stim.csv,READVersionB.csv,"Read Version B","Dissertation, read only version B",PUSHER,CLUTTER,Study1,U,66,17,Study,User,-,,Study/JOL,"Study Phase2",4130,,,-1,-1,,,,1
5ebecb3f7899980b68a9898a,4va7029uyk,Nick_Dissertation_EX1,1,229,2020-10-24T11:05:47-07:00,11.03780913353,2,versionA_stim.csv,READVersionB.csv,"Read Version B","Dissertation, read only version B",MEANING,DEFINITION,Study1,S,62,83,Study,User,-,,Study/JOL,"Study Phase2",10497,,,-1,-1,,,,1
5ebecb3f7899980b68a9898a,4va7029uyk,Nick_Dissertation_EX1,1,230,2020-10-24T11:05:50-07:00,3.2983999252319,2,versionA_stim.csv,READVersionB.csv,"Read Version B","Dissertation, read only version B",HIDE,SICK,Study1,U,84,84,Study,User,-,,Study/JOL,"Study Phase2",2769,,,-1,-1,,,,1
5ebecb3f7899980b68a9898a,4va7029uyk,Nick_Dissertation_EX1,1,231,2020-10-24T11:05:53-07:00,2.8575448989868,2,versionA_stim.csv,READVersionB.csv,"Read Version B","Dissertation, read only version B",ARTERY,BRONZE,Study1,U,74,62,Study,User,-,,Study/JOL,"Study Phase2",2424,,,-1,-1,,,,1
5ebecb3f7899980b68a9898a,4va7029uyk,Nick_Dissertation_EX1,1,232,2020-10-24T11:05:56-07:00,3.1596920490265,2,versionA_stim.csv,READVersionB.csv,"Read Version B","Dissertation, read only version B",DRINK,SIP,Study1,B,27,71,Study,User,-,,Study/JOL,"Study Phase2",2727,,,-1,-1,,,,1
5ebecb3f7899980b68a9898a,4va7029uyk,Nick_Dissertation_EX1,1,233,2020-10-24T11:05:59-07:00,2.8807239532471,2,versionA_stim.csv,READVersionB.csv,"Read Version B","Dissertation, read only version B",HOT,CHILI,Study1,B,37,70,Study,User,-,,Study/JOL,"Study Phase2",2461,,,-1,-1,,,,1
5ebecb3f7899980b68a9898a,4va7029uyk,Nick_Dissertation_EX1,1,234,2020-10-24T11:06:06-07:00,6.3157341480255,2,versionA_stim.csv,READVersionB.csv,"Read Version B","Dissertation, read only version B",TUNA,FISH,Study1,F,25,44,Study,User,-,,Study/JOL,"Study Phase2",5834,,,-1,-1,,,,1
5ebecb3f7899980b68a9898a,4va7029uyk,Nick_Dissertation_EX1,1,235,2020-10-24T11:06:09-07:00,3.6807148456573,2,versionA_stim.csv,READVersionB.csv,"Read Version B","Dissertation, read only version B",LETTUCE,SALAD,Study1,S,59,49,Study,User,-,,Study/JOL,"Study Phase2",3221,,,-1,-1,,,,1
5ebecb3f7899980b68a9898a,4va7029uyk,Nick_Dissertation_EX1,1,236,2020-10-24T11:06:14-07:00,4.4366362094879,2,versionA_stim.csv,READVersionB.csv,"Read Version B","Dissertation, read only version B",DUE,ASSIGNMENT,Study1,S,46,63,Study,User,-,,Study/JOL,"Study Phase2",4017,,,-1,-1,,,,1
5ebecb3f7899980b68a9898a,4va7029uyk,Nick_Dissertation_EX1,1,237,2020-10-24T11:06:17-07:00,3.1734449863434,2,versionA_stim.csv,READVersionB.csv,"Read Version B","Dissertation, read only version B",BRIDGE,WATER,Study1,F,18,27,Study,User,-,,Study/JOL,"Study Phase2",2759,,,-1,-1,,,,1
5ebecb3f7899980b68a9898a,4va7029uyk,Nick_Dissertation_EX1,1,238,2020-10-24T11:06:23-07:00,6.5528049468994,2,versionA_stim.csv,READVersionB.csv,"Read Version B","Dissertation, read only version B",BUG,WASP,Study1,B,32,85,Study,User,-,,Study/JOL,"Study Phase2",6101,,,-1,-1,,,,1
5ebecb3f7899980b68a9898a,4va7029uyk,Nick_Dissertation_EX1,1,239,2020-10-24T11:06:27-07:00,3.2300748825073,2,versionA_stim.csv,READVersionB.csv,"Read Version B","Dissertation, read only version B",DARK,CAVE,Study1,B,28,82,Study,User,-,,Study/JOL,"Study Phase2",2805,,,-1,-1,,,,1
5ebecb3f7899980b68a9898a,4va7029uyk,Nick_Dissertation_EX1,1,240,2020-10-24T11:06:30-07:00,3.1191229820251,2,versionA_stim.csv,READVersionB.csv,"Read Version B","Dissertation, read only version B",LOCATION,SITE,Study1,S,48,76,Study,User,-,,Study/JOL,"Study Phase2",2671,,,-1,-1,,,,1
5ebecb3f7899980b68a9898a,4va7029uyk,Nick_Dissertation_EX1,1,241,2020-10-24T11:06:33-07:00,3.3758120536804,2,versionA_stim.csv,READVersionB.csv,"Read Version B","Dissertation, read only version B",MATH,DIVISION,Study1,B,33,74,Study,User,-,,Study/JOL,"Study Phase2",2930,,,-1,-1,,,,1
5ebecb3f7899980b68a9898a,4va7029uyk,Nick_Dissertation_EX1,1,242,2020-10-24T11:06:37-07:00,3.5478200912476,2,versionA_stim.csv,READVersionB.csv,"Read Version B","Dissertation, read only version B",KIDNEY,LIVER,Study1,S,53,38,Study,User,-,,Study/JOL,"Study Phase2",3108,,,-1,-1,,,,1
5ebecb3f7899980b68a9898a,4va7029uyk,Nick_Dissertation_EX1,1,243,2020-10-24T11:06:41-07:00,4.4279630184174,2,versionA_stim.csv,READVersionB.csv,"Read Version B","Dissertation, read only version B",ROOT,PLANT,Study1,F,13,79,Study,User,-,,Study/JOL,"Study Phase2",2973,,,-1,-1,,,,1
5ebecb3f7899980b68a9898a,4va7029uyk,Nick_Dissertation_EX1,1,244,2020-10-24T11:06:44-07:00,2.9263319969177,2,versionA_stim.csv,READVersionB.csv,"Read Version B","Dissertation, read only version B",WAGE,MONEY,Study1,F,8,12,Study,User,-,,Study/JOL,"Study Phase2",2460,,,-1,-1,,,,1
5ebecb3f7899980b68a9898a,4va7029uyk,Nick_Dissertation_EX1,1,245,2020-10-24T11:06:48-07:00,4.1219120025635,2,versionA_stim.csv,READVersionB.csv,"Read Version B","Dissertation, read only version B",TAKE,SEIZE,Study1,B,29,9,Study,User,-,,Study/JOL,"Study Phase2",2606,,,-1,-1,,,,1
5ebecb3f7899980b68a9898a,4va7029uyk,Nick_Dissertation_EX1,1,246,2020-10-24T11:06:52-07:00,4.0889978408813,2,versionA_stim.csv,READVersionB.csv,"Read Version B","Dissertation, read only version B",NUMBER,AMOUNT,Study1,S,47,48,Study,User,-,,Study/JOL,"Study Phase2",3583,,,-1,-1,,,,1
5ebecb3f7899980b68a9898a,4va7029uyk,Nick_Dissertation_EX1,1,247,2020-10-24T11:06:56-07:00,3.3115780353546,2,versionA_stim.csv,READVersionB.csv,"Read Version B","Dissertation, read only version B",GEOLOGY,ROCK,Study1,F,19,81,Study,User,-,,Study/JOL,"Study Phase2",2860,,,-1,-1,,,,1
5ebecb3f7899980b68a9898a,4va7029uyk,Nick_Dissertation_EX1,1,248,2020-10-24T11:06:59-07:00,2.9779210090637,2,versionA_stim.csv,READVersionB.csv,"Read Version B","Dissertation, read only version B",DELINQUENT,BAD,Study1,F,6,34,Study,User,-,,Study/JOL,"Study Phase2",2552,,,-1,-1,,,,1
5ebecb3f7899980b68a9898a,4va7029uyk,Nick_Dissertation_EX1,1,249,2020-10-24T11:07:01-07:00,2.8577461242676,2,versionA_stim.csv,READVersionB.csv,"Read Version B","Dissertation, read only version B",CASH,WOULD,Study1,U,83,19,Study,User,-,,Study/JOL,"Study Phase2",2435,,,-1,-1,,,,1
5ebecb3f7899980b68a9898a,4va7029uyk,Nick_Dissertation_EX1,1,250,2020-10-24T11:07:06-07:00,4.1042499542236,2,versionA_stim.csv,READVersionB.csv,"Read Version B","Dissertation, read only version B",GRILL,BAR,Study1,S,52,47,Study,User,-,,Study/JOL,"Study Phase2",2674,,,-1,-1,,,,1
5ebecb3f7899980b68a9898a,4va7029uyk,Nick_Dissertation_EX1,1,251,2020-10-24T11:07:10-07:00,3.9887270927429,2,versionA_stim.csv,READVersionB.csv,"Read Version B","Dissertation, read only version B",MACHINE,POSITION,Study1,U,76,57,Study,User,-,,Study/JOL,"Study Phase2",3575,,,-1,-1,,,,1
5ebecb3f7899980b68a9898a,4va7029uyk,Nick_Dissertation_EX1,1,252,2020-10-24T11:07:16-07:00,5.9989778995514,2,versionA_stim.csv,READVersionB.csv,"Read Version B","Dissertation, read only version B",HYGIENE,CLEAN,Study1,F,17,15,Study,User,-,,Study/JOL,"Study Phase2",4575,,,-1,-1,,,,1
5ebecb3f7899980b68a9898a,4va7029uyk,Nick_Dissertation_EX1,1,253,2020-10-24T11:07:20-07:00,4.3384709358215,2,versionA_stim.csv,READVersionB.csv,"Read Version B","Dissertation, read only version B",VALLEY,ADD,Study1,U,82,41,Study,User,-,,Study/JOL,"Study Phase2",3867,,,-1,-1,,,,1
5ebecb3f7899980b68a9898a,4va7029uyk,Nick_Dissertation_EX1,1,254,2020-10-24T11:07:23-07:00,2.8315420150757,2,versionA_stim.csv,READVersionB.csv,"Read Version B","Dissertation, read only version B",SHOE,FOOT,Study1,S,60,55,Study,User,-,,Study/JOL,"Study Phase2",2395,,,-1,-1,,,,1
5ebecb3f7899980b68a9898a,4va7029uyk,Nick_Dissertation_EX1,1,255,2020-10-24T11:07:28-07:00,4.8991079330444,2,versionA_stim.csv,READVersionB.csv,"Read Version B","Dissertation, read only version B",ALLOW,TUCK,Study1,U,78,56,Study,User,-,,Study/JOL,"Study Phase2",3463,,,-1,-1,,,,1
5ebecb3f7899980b68a9898a,4va7029uyk,Nick_Dissertation_EX1,1,256,2020-10-24T11:07:31-07:00,3.4403100013733,2,versionA_stim.csv,READVersionB.csv,"Read Version B","Dissertation, read only version B",SMELL,STENCH,Study1,B,42,67,Study,User,-,,Study/JOL,"Study Phase2",3016,,,-1,-1,,,,1
5ebecb3f7899980b68a9898a,4va7029uyk,Nick_Dissertation_EX1,1,257,2020-10-24T11:07:34-07:00,3.434121131897,2,versionA_stim.csv,READVersionB.csv,"Read Version B","Dissertation, read only version B",DISCOVER,FLOOR,Study1,U,71,8,Study,User,-,,Study/JOL,"Study Phase2",2986,,,-1,-1,,,,1
5ebecb3f7899980b68a9898a,4va7029uyk,Nick_Dissertation_EX1,1,258,2020-10-24T11:07:38-07:00,3.0930409431458,2,versionA_stim.csv,READVersionB.csv,"Read Version B","Dissertation, read only version B",WORK,CHORE,Study1,B,39,10,Study,User,-,,Study/JOL,"Study Phase2",2678,,,-1,-1,,,,1
5ebecb3f7899980b68a9898a,4va7029uyk,Nick_Dissertation_EX1,1,259,2020-10-24T11:07:43-07:00,5.3844039440155,2,versionA_stim.csv,READVersionB.csv,"Read Version B","Dissertation, read only version B",CHISEL,HAMMER,Study1,F,9,66,Study,User,-,,Study/JOL,"Study Phase2",3954,,,-1,-1,,,,1
5ebecb3f7899980b68a9898a,4va7029uyk,Nick_Dissertation_EX1,1,260,2020-10-24T11:07:47-07:00,3.6312429904938,2,versionA_stim.csv,READVersionB.csv,"Read Version B","Dissertation, read only version B",GREAT,FANTASTIC,Study1,B,35,75,Study,User,-,,Study/JOL,"Study Phase2",3194,,,-1,-1,,,,1
5ebecb3f7899980b68a9898a,4va7029uyk,Nick_Dissertation_EX1,1,261,2020-10-24T11:07:50-07:00,3.3952851295471,2,versionA_stim.csv,READVersionB.csv,"Read Version B","Dissertation, read only version B",MALT,CHOCOLATE,BUFFER2,Buffer,88,90,Study,User,-,,Study/JOL,BUFFER4,2942,,,-1,-1,,,,1
5ebecb3f7899980b68a9898a,4va7029uyk,Nick_Dissertation_EX1,1,262,2020-10-24T11:07:53-07:00,3.3719730377197,2,versionA_stim.csv,READVersionB.csv,"Read Version B","Dissertation, read only version B",SHERRIF,POLICE,BUFFER2,Buffer,87,88,Study,User,-,,Study/JOL,BUFFER4,2965,,,-1,-1,,,,1
5ebecb3f7899980b68a9898a,4va7029uyk,Nick_Dissertation_EX1,1,263,2020-10-24T11:07:57-07:00,3.2837858200073,2,versionA_stim.csv,READVersionB.csv,"Read Version B","Dissertation, read only version B",MOON,SPACE,BUFFER2,Buffer,89,91,Study,User,-,,Study/JOL,BUFFER4,2813,,,-1,-1,,,,1
5ebecb3f7899980b68a9898a,4va7029uyk,Nick_Dissertation_EX1,1,264,2020-10-24T11:08:01-07:00,4.0420541763306,2,versionA_stim.csv,READVersionB.csv,"Read Version B","Dissertation, read only version B",THING,STUFF,BUFFER2,Buffer,90,87,Study,User,-,,Study/JOL,BUFFER4,3560,,,-1,-1,,,,1
5ebecb3f7899980b68a9898a,4va7029uyk,Nick_Dissertation_EX1,1,265,2020-10-24T11:08:05-07:00,4.0549509525299,2,versionA_stim.csv,READVersionB.csv,"Read Version B","Dissertation, read only version B",GEESE,GOOSE,BUFFER2,Buffer,86,89,Study,User,-,,Study/JOL,BUFFER4,3557,,,-1,-1,,,,1
5ebecb3f7899980b68a9898a,4va7029uyk,Nick_Dissertation_EX1,1,266,2020-10-24T11:08:09-07:00,3.9634199142456,2,versionA_stim.csv,READVersionB.csv,"Read Version B","Dissertation, read only version B",,,,,,0,Instruct,User,-,"You have completed this section. Please press Enter.",Filler_Instruction,Instruct5,2518,,,-1,-1,,,,1
5ebecb3f7899980b68a9898a,4va7029uyk,Nick_Dissertation_EX1,1,267,2020-10-24T11:10:10-07:00,121.27200102806,2,versionA_stim.csv,READVersionB.csv,"Read Version B","Dissertation, read only version B",,,,,,0,FreeRecall,120,120,"Please list the 50 US states in reverse alphabetical order (z - a). The task will automatically advance to the next screen after two minutes.",,Filler2,120698,"Wyoming Washington Virginia Vermont Utah Texas Tennessee South Dakota South Carolina Rhode Island ",0,25900,95495,0,0,,0.887
5ebecb3f7899980b68a9898a,4va7029uyk,Nick_Dissertation_EX1,1,268,2020-10-24T11:10:38-07:00,28.399245023727,2,versionA_stim.csv,READVersionB.csv,"Read Version B","Dissertation, read only version B",,,,,,0,Instruct,-,10,"You will now be presented with the first word from each of the previously studied item pairs. Please type the missing word. If you do not know the word, you may guess or press Enter to skip forward to the next pair.",,Instruct6,27892,,,-1,-1,,,,0.577
5ebecb3f7899980b68a9898a,4va7029uyk,Nick_Dissertation_EX1,1,269,2020-10-24T11:11:40-07:00,61.849774122238,2,versionA_stim.csv,READVersionB.csv,"Read Version B","Dissertation, read only version B",BLOW,WIND,Study1,S,55,37,Test,User,-,,Recall,Recall2,61317,Wind,100,59409,60128,1,1,,0.796
5ebecb3f7899980b68a9898a,4va7029uyk,Nick_Dissertation_EX1,1,270,2020-10-24T11:12:36-07:00,55.278176784515,2,versionA_stim.csv,READVersionB.csv,"Read Version B","Dissertation, read only version B",GREAT,FANTASTIC,Study1,B,35,75,Test,User,-,,Recall,Recall2,54827,"Fantastic ",100,52264,52693,1,1,,0.464
5ebecb3f7899980b68a9898a,4va7029uyk,Nick_Dissertation_EX1,1,271,2020-10-24T11:13:42-07:00,66.032340049744,2,versionA_stim.csv,READVersionB.csv,"Read Version B","Dissertation, read only version B",WORK,CHORE,Study1,B,39,10,Test,User,-,,Recall,Recall2,65484,Hard,44.444444444444,63940,64493,0,0,,0.714
5ebecb3f7899980b68a9898a,4va7029uyk,Nick_Dissertation_EX1,1,272,2020-10-24T11:16:07-07:00,145.55970001221,2,versionA_stim.csv,READVersionB.csv,"Read Version B","Dissertation, read only version B",KING,VASE,Study1,U,85,59,Test,User,-,,Recall,Recall2,144983,Vase,100,143519,144131,1,1,,0.468
5ebecb3f7899980b68a9898a,4va7029uyk,Nick_Dissertation_EX1,1,273,2020-10-24T11:16:47-07:00,39.66925406456,2,versionA_stim.csv,READVersionB.csv,"Read Version B","Dissertation, read only version B",SOON,BELT,Study1,U,70,35,Test,User,-,,Recall,Recall2,39145,"Belt ",100,36904,37582,1,1,,0.632
5ebecb3f7899980b68a9898a,4va7029uyk,Nick_Dissertation_EX1,1,274,2020-10-24T11:18:07-07:00,80.675507068634,2,versionA_stim.csv,READVersionB.csv,"Read Version B","Dissertation, read only version B",FIRE,BLAZE,Study1,B,45,68,Test,User,-,,Recall,Recall2,80259,Blaze,100,78407,79287,1,1,,0.415
5ebecb3f7899980b68a9898a,4va7029uyk,Nick_Dissertation_EX1,1,275,2020-10-24T11:18:58-07:00,50.235945940018,2,versionA_stim.csv,READVersionB.csv,"Read Version B","Dissertation, read only version B",HYGIENE,CLEAN,Study1,F,17,15,Test,User,-,,Recall,Recall2,49740,"Clean ",100,47427,48033,1,1,,0.667
5ebecb3f7899980b68a9898a,4va7029uyk,Nick_Dissertation_EX1,1,276,2020-10-24T11:19:41-07:00,43.580790996552,2,versionA_stim.csv,READVersionB.csv,"Read Version B","Dissertation, read only version B",REVOLUTION,WAR,Study1,F,20,51,Test,User,-,,Recall,Recall2,43116,War,100,41867,42234,1,1,,0.645
5ebecb3f7899980b68a9898a,4va7029uyk,Nick_Dissertation_EX1,1,277,2020-10-24T11:20:18-07:00,37.208374023438,2,versionA_stim.csv,READVersionB.csv,"Read Version B","Dissertation, read only version B",BUG,WASP,Study1,B,32,85,Test,User,-,,Recall,Recall2,36704,Waso,75,35291,35912,0,1,,0.576
5ebecb3f7899980b68a9898a,4va7029uyk,Nick_Dissertation_EX1,1,278,2020-10-24T11:21:33-07:00,74.759284973145,2,versionA_stim.csv,READVersionB.csv,"Read Version B","Dissertation, read only version B",LOCATION,SITE,Study1,S,48,76,Test,User,-,,Recall,Recall2,74273,Site,100,70375,73363,1,1,,0.551
5ebecb3f7899980b68a9898a,4va7029uyk,Nick_Dissertation_EX1,1,279,2020-10-24T11:22:04-07:00,31.196526050568,2,versionA_stim.csv,READVersionB.csv,"Read Version B","Dissertation, read only version B",CIRCLE,ROUND,Study1,S,65,50,Test,User,-,,Recall,Recall2,30737,Round,100,28975,29831,1,1,,0.75
5ebecb3f7899980b68a9898a,4va7029uyk,Nick_Dissertation_EX1,1,280,2020-10-24T11:22:31-07:00,26.378983974457,2,versionA_stim.csv,READVersionB.csv,"Read Version B","Dissertation, read only version B",LAW,ATTORNEY,Study1,B,34,13,Test,User,-,,Recall,Recall2,25943,"Attorney ",100,23019,24249,1,1,,0.771
5ebecb3f7899980b68a9898a,4va7029uyk,Nick_Dissertation_EX1,1,281,2020-10-24T11:22:46-07:00,15.176535844803,2,versionA_stim.csv,READVersionB.csv,"Read Version B","Dissertation, read only version B",DISCUSSION,TALK,Study1,F,21,77,Test,User,-,,Recall,Recall2,14716,Talk,100,13200,13776,1,1,,0.759
5ebecb3f7899980b68a9898a,4va7029uyk,Nick_Dissertation_EX1,1,282,2020-10-24T11:23:24-07:00,37.822116136551,2,versionA_stim.csv,READVersionB.csv,"Read Version B","Dissertation, read only version B",BRIDGE,WATER,Study1,F,18,27,Test,User,-,,Recall,Recall2,37338,Water,100,35709,36413,1,1,,0.588
5ebecb3f7899980b68a9898a,4va7029uyk,Nick_Dissertation_EX1,1,283,2020-10-24T11:24:22-07:00,57.870049953461,2,versionA_stim.csv,READVersionB.csv,"Read Version B","Dissertation, read only version B",SUGAR,RIDDLE,Study1,U,81,58,Test,User,-,,Recall,Recall2,57389,Spice,36.363636363636,55348,56277,0,0,,0.403
5ebecb3f7899980b68a9898a,4va7029uyk,Nick_Dissertation_EX1,1,284,2020-10-24T11:24:33-07:00,10.973959922791,2,versionA_stim.csv,READVersionB.csv,"Read Version B","Dissertation, read only version B",WINE,CHEESE,Study1,S,57,24,Test,User,-,,Recall,Recall2,10508,Cheese,100,8646,9643,1,1,,0.741
5ebecb3f7899980b68a9898a,4va7029uyk,Nick_Dissertation_EX1,1,285,2020-10-24T11:24:47-07:00,14.183413028717,2,versionA_stim.csv,READVersionB.csv,"Read Version B","Dissertation, read only version B",BALL,RACKET,Study1,B,38,29,Test,User,-,,Recall,Recall2,13721,"Racket ",100,10961,12226,1,1,,0.806
5ebecb3f7899980b68a9898a,4va7029uyk,Nick_Dissertation_EX1,1,286,2020-10-24T11:24:54-07:00,7.0697541236877,2,versionA_stim.csv,READVersionB.csv,"Read Version B","Dissertation, read only version B",ART,LION,Study1,U,79,31,Test,User,-,,Recall,Recall2,6530,Lion,100,4827,5429,1,1,,1
5ebecb3f7899980b68a9898a,4va7029uyk,Nick_Dissertation_EX1,1,287,2020-10-24T11:25:38-07:00,44.428061008453,2,versionA_stim.csv,READVersionB.csv,"Read Version B","Dissertation, read only version B",LETTUCE,SALAD,Study1,S,59,49,Test,User,-,,Recall,Recall2,43880,Salad,100,40753,42693,1,1,,0.69
5ebecb3f7899980b68a9898a,4va7029uyk,Nick_Dissertation_EX1,1,288,2020-10-24T11:26:48-07:00,69.490337848663,2,versionA_stim.csv,READVersionB.csv,"Read Version B","Dissertation, read only version B",ROOT,PLANT,Study1,F,13,79,Test,User,-,,Recall,Recall2,69028,Plant,100,67363,68156,1,1,,0.481
5ebecb3f7899980b68a9898a,4va7029uyk,Nick_Dissertation_EX1,1,289,2020-10-24T11:27:38-07:00,50.333059072495,2,versionA_stim.csv,READVersionB.csv,"Read Version B","Dissertation, read only version B",KEY,LATCH,Study1,B,36,64,Test,User,-,,Recall,Recall2,49822,"Latch ",100,46970,47794,1,1,,0.733
5ebecb3f7899980b68a9898a,4va7029uyk,Nick_Dissertation_EX1,1,290,2020-10-24T11:28:08-07:00,30.092833995819,2,versionA_stim.csv,READVersionB.csv,"Read Version B","Dissertation, read only version B",DEATH,BUSINESS,Study1,U,72,22,Test,User,-,,Recall,Recall2,29619,"Business ",100,26021,28013,1,1,,0.582
5ebecb3f7899980b68a9898a,4va7029uyk,Nick_Dissertation_EX1,1,291,2020-10-24T11:28:32-07:00,24.063328027725,2,versionA_stim.csv,READVersionB.csv,"Read Version B","Dissertation, read only version B",DISCOVER,FLOOR,Study1,U,71,8,Test,User,-,,Recall,Recall2,23602,Floor,100,21958,22747,1,1,,0.525
5ebecb3f7899980b68a9898a,4va7029uyk,Nick_Dissertation_EX1,1,292,2020-10-24T11:28:50-07:00,17.457897901535,2,versionA_stim.csv,READVersionB.csv,"Read Version B","Dissertation, read only version B",GEOLOGY,ROCK,Study1,F,19,81,Test,User,-,,Recall,Recall2,17020,Rock,100,15491,16134,1,1,,0.606
5ebecb3f7899980b68a9898a,4va7029uyk,Nick_Dissertation_EX1,1,293,2020-10-24T11:29:00-07:00,10.367966175079,2,versionA_stim.csv,READVersionB.csv,"Read Version B","Dissertation, read only version B",SHOE,FOOT,Study1,S,60,55,Test,User,-,,Recall,Recall2,9938,"Foot ",100,6934,8346,1,1,,0.844
5ebecb3f7899980b68a9898a,4va7029uyk,Nick_Dissertation_EX1,1,294,2020-10-24T11:29:12-07:00,12.003403902054,2,versionA_stim.csv,READVersionB.csv,"Read Version B","Dissertation, read only version B",MACHINE,POSITION,Study1,U,76,57,Test,User,-,,Recall,Recall2,11537,"Position ",100,7707,9635,1,1,,0.861
5ebecb3f7899980b68a9898a,4va7029uyk,Nick_Dissertation_EX1,1,295,2020-10-24T11:29:37-07:00,24.995609045029,2,versionA_stim.csv,READVersionB.csv,"Read Version B","Dissertation, read only version B",HAPPY,CAR,Study1,U,77,43,Test,User,-,,Recall,Recall2,24551,Car,100,23346,23721,1,1,,0.5
5ebecb3f7899980b68a9898a,4va7029uyk,Nick_Dissertation_EX1,1,296,2020-10-24T11:30:11-07:00,33.752723932266,2,versionA_stim.csv,READVersionB.csv,"Read Version B","Dissertation, read only version B",FIX,HAND,Study1,U,75,78,Test,User,-,,Recall,Recall2,33324,Hand,100,31770,32438,1,1,,0.408
5ebecb3f7899980b68a9898a,4va7029uyk,Nick_Dissertation_EX1,1,297,2020-10-24T11:30:54-07:00,43.452319145203,2,versionA_stim.csv,READVersionB.csv,"Read Version B","Dissertation, read only version B",DEBATE,SIGHT,Study1,U,73,73,Test,User,-,,Recall,Recall2,42997,"Sight ",100,40610,41391,1,1,,0.75
5ebecb3f7899980b68a9898a,4va7029uyk,Nick_Dissertation_EX1,1,298,2020-10-24T11:31:23-07:00,28.575221776962,2,versionA_stim.csv,READVersionB.csv,"Read Version B","Dissertation, read only version B",HOT,CHILI,Study1,B,37,70,Test,User,-,,Recall,Recall2,28087,Cold,44.444444444444,26562,27203,0,0,,0.714
5ebecb3f7899980b68a9898a,4va7029uyk,Nick_Dissertation_EX1,1,299,2020-10-24T11:31:38-07:00,14.922277212143,2,versionA_stim.csv,READVersionB.csv,"Read Version B","Dissertation, read only version B",BABY,CHILD,Study1,S,64,54,Test,User,-,,Recall,Recall2,14439,"Child ",100,11774,12652,1,1,,0.781
5ebecb3f7899980b68a9898a,4va7029uyk,Nick_Dissertation_EX1,1,300,2020-10-24T11:32:26-07:00,48.402913808823,2,versionA_stim.csv,READVersionB.csv,"Read Version B","Dissertation, read only version B",LIFT,WOMAN,Study1,U,69,36,Test,User,-,,Recall,Recall2,47885,Woman,100,44683,46654,1,1,,0.69
5ebecb3f7899980b68a9898a,4va7029uyk,Nick_Dissertation_EX1,1,301,2020-10-24T11:33:03-07:00,36.739932060242,2,versionA_stim.csv,READVersionB.csv,"Read Version B","Dissertation, read only version B",HERD,COW,Study1,F,22,18,Test,User,-,,Recall,Recall2,36213,Cow,100,34788,35260,1,1,,0.492
5ebecb3f7899980b68a9898a,4va7029uyk,Nick_Dissertation_EX1,1,302,2020-10-24T11:33:22-07:00,18.665945053101,2,versionA_stim.csv,READVersionB.csv,"Read Version B","Dissertation, read only version B",ARTERY,BRONZE,Study1,U,74,62,Test,User,-,,Recall,Recall2,18150,Bronze,100,15957,17069,1,1,,0.667
5ebecb3f7899980b68a9898a,4va7029uyk,Nick_Dissertation_EX1,1,303,2020-10-24T11:33:46-07:00,24.752341032028,2,versionA_stim.csv,READVersionB.csv,"Read Version B","Dissertation, read only version B",DRINK,SIP,Study1,B,27,71,Test,User,-,,Recall,Recall2,24264,Sip,100,22961,23448,1,1,,0.654
5ebecb3f7899980b68a9898a,4va7029uyk,Nick_Dissertation_EX1,1,304,2020-10-24T11:34:44-07:00,57.544378042221,2,versionA_stim.csv,READVersionB.csv,"Read Version B","Dissertation, read only version B",CHISEL,HAMMER,Study1,F,9,66,Test,User,-,,Recall,Recall2,56908,Hammer,100,53312,55877,1,1,,0.508
5ebecb3f7899980b68a9898a,4va7029uyk,Nick_Dissertation_EX1,1,305,2020-10-24T11:35:03-07:00,19.274875879288,2,versionA_stim.csv,READVersionB.csv,"Read Version B","Dissertation, read only version B",CASH,WOULD,Study1,U,83,19,Test,User,-,,Recall,Recall2,18769,Would,100,16999,17901,1,1,,0.7
5ebecb3f7899980b68a9898a,4va7029uyk,Nick_Dissertation_EX1,1,306,2020-10-24T11:36:00-07:00,56.96758890152,2,versionA_stim.csv,READVersionB.csv,"Read Version B","Dissertation, read only version B",ALLOW,TUCK,Study1,U,78,56,Test,User,-,,Recall,Recall2,56394,Tuck,100,52768,53411,1,1,,0.651
5ebecb3f7899980b68a9898a,4va7029uyk,Nick_Dissertation_EX1,1,307,2020-10-24T11:36:34-07:00,34.147865056992,2,versionA_stim.csv,READVersionB.csv,"Read Version B","Dissertation, read only version B",BATHROOM,TOILET,Study1,S,58,11,Test,User,-,,Recall,Recall2,33534,Toilet,100,31697,32655,1,1,,0.491
5ebecb3f7899980b68a9898a,4va7029uyk,Nick_Dissertation_EX1,1,308,2020-10-24T11:36:56-07:00,21.706583976746,2,versionA_stim.csv,READVersionB.csv,"Read Version B","Dissertation, read only version B",SENTENCE,WORD,Study1,B,31,61,Test,User,-,,Recall,Recall2,21225,Word,100,19741,20430,1,1,,0.692
5ebecb3f7899980b68a9898a,4va7029uyk,Nick_Dissertation_EX1,1,309,2020-10-24T11:37:13-07:00,16.496271133423,2,versionA_stim.csv,READVersionB.csv,"Read Version B","Dissertation, read only version B",WAGE,MONEY,Study1,F,8,12,Test,User,-,,Recall,Recall2,16039,"Money ",100,13609,14381,1,1,,0.71
5ebecb3f7899980b68a9898a,4va7029uyk,Nick_Dissertation_EX1,1,310,2020-10-24T11:37:53-07:00,40.334930896759,2,versionA_stim.csv,READVersionB.csv,"Read Version B","Dissertation, read only version B",DUMP,WASTE,Study1,S,49,30,Test,User,-,,Recall,Recall2,39835,Rubbish,16.666666666667,37776,39029,0,0,,0.733
5ebecb3f7899980b68a9898a,4va7029uyk,Nick_Dissertation_EX1,1,311,2020-10-24T11:38:18-07:00,24.863023996353,2,versionA_stim.csv,READVersionB.csv,"Read Version B","Dissertation, read only version B",MEANING,DEFINITION,Study1,S,62,83,Test,User,-,,Recall,Recall2,24388,"Definition ",100,22057,22504,1,1,,0.535
5ebecb3f7899980b68a9898a,4va7029uyk,Nick_Dissertation_EX1,1,312,2020-10-24T11:38:49-07:00,31.344372987747,2,versionA_stim.csv,READVersionB.csv,"Read Version B","Dissertation, read only version B",KIDNEY,LIVER,Study1,S,53,38,Test,User,-,,Recall,Recall2,30881,Liver,100,29262,30074,1,1,,0.519
5ebecb3f7899980b68a9898a,4va7029uyk,Nick_Dissertation_EX1,1,313,2020-10-24T11:39:01-07:00,12.372862100601,2,versionA_stim.csv,READVersionB.csv,"Read Version B","Dissertation, read only version B",NUMBER,AMOUNT,Study1,S,47,48,Test,User,-,,Recall,Recall2,11930,Amount,100,8914,11108,1,1,,0.813
5ebecb3f7899980b68a9898a,4va7029uyk,Nick_Dissertation_EX1,1,314,2020-10-24T11:39:14-07:00,12.223242044449,2,versionA_stim.csv,READVersionB.csv,"Read Version B","Dissertation, read only version B",VALLEY,ADD,Study1,U,82,41,Test,User,-,,Recall,Recall2,11765,Add,100,10574,10951,1,1,,0.667
5ebecb3f7899980b68a9898a,4va7029uyk,Nick_Dissertation_EX1,1,315,2020-10-24T11:41:23-07:00,129.21975588799,2,versionA_stim.csv,READVersionB.csv,"Read Version B","Dissertation, read only version B",EDITOR,NEWS,Study1,F,10,45,Test,User,-,,Recall,Recall2,128777,Write,22.222222222222,122834,127937,0,0,,0.869
5ebecb3f7899980b68a9898a,4va7029uyk,Nick_Dissertation_EX1,1,316,2020-10-24T11:41:27-07:00,4.6066889762878,2,versionA_stim.csv,READVersionB.csv,"Read Version B","Dissertation, read only version B",HORNET,STING,Study1,F,11,46,Test,User,-,,Recall,Recall2,4035,Bee,0,2701,3131,0,0,,1
5ebecb3f7899980b68a9898a,4va7029uyk,Nick_Dissertation_EX1,1,317,2020-10-24T11:42:12-07:00,44.61363196373,2,versionA_stim.csv,READVersionB.csv,"Read Version B","Dissertation, read only version B",SMELL,STENCH,Study1,B,42,67,Test,User,-,,Recall,Recall2,44118,Stench,100,42037,43194,1,1,,0.696
5ebecb3f7899980b68a9898a,4va7029uyk,Nick_Dissertation_EX1,1,318,2020-10-24T11:42:41-07:00,29.219492197037,2,versionA_stim.csv,READVersionB.csv,"Read Version B","Dissertation, read only version B",DIETARY,SACKING,Study1,U,67,86,Test,User,-,,Recall,Recall2,28670,Sacking,100,26482,27703,1,1,,0.51
5ebecb3f7899980b68a9898a,4va7029uyk,Nick_Dissertation_EX1,1,319,2020-10-24T11:43:16-07:00,34.89507484436,2,versionA_stim.csv,READVersionB.csv,"Read Version B","Dissertation, read only version B",GRILL,BAR,Study1,S,52,47,Test,User,-,,Recall,Recall2,34369,Bar,100,32042,33480,1,1,,0.578
5ebecb3f7899980b68a9898a,4va7029uyk,Nick_Dissertation_EX1,1,320,2020-10-24T11:43:32-07:00,15.389184951782,2,versionA_stim.csv,READVersionB.csv,"Read Version B","Dissertation, read only version B",MATH,DIVISION,Study1,B,33,74,Test,User,-,,Recall,Recall2,14893,Divide,57.142857142857,12616,13951,0,0,,0.722
5ebecb3f7899980b68a9898a,4va7029uyk,Nick_Dissertation_EX1,1,321,2020-10-24T11:43:53-07:00,21.710202217102,2,versionA_stim.csv,READVersionB.csv,"Read Version B","Dissertation, read only version B",BEGIN,END,Study1,S,54,25,Test,User,-,,Recall,Recall2,21254,"End ",100,19010,19509,1,1,,0.585
5ebecb3f7899980b68a9898a,4va7029uyk,Nick_Dissertation_EX1,1,322,2020-10-24T11:43:59-07:00,5.7339007854462,2,versionA_stim.csv,READVersionB.csv,"Read Version B","Dissertation, read only version B",SWAN,BIRD,Study1,F,14,16,Test,User,-,,Recall,Recall2,5259,Bird,100,3801,4385,1,1,,1
5ebecb3f7899980b68a9898a,4va7029uyk,Nick_Dissertation_EX1,1,323,2020-10-24T11:44:27-07:00,28.150567054749,2,versionA_stim.csv,READVersionB.csv,"Read Version B","Dissertation, read only version B",BITTER,COLD,Study1,F,12,42,Test,User,-,,Recall,Recall2,27620,Cold,100,26072,26691,1,1,,0.477
5ebecb3f7899980b68a9898a,4va7029uyk,Nick_Dissertation_EX1,1,324,2020-10-24T11:44:40-07:00,13.209619045258,2,versionA_stim.csv,READVersionB.csv,"Read Version B","Dissertation, read only version B",CLOTHES,ATTIRE,Study1,B,43,14,Test,User,-,,Recall,Recall2,12669,Attire,100,10417,11771,1,1,,0.758
5ebecb3f7899980b68a9898a,4va7029uyk,Nick_Dissertation_EX1,1,325,2020-10-24T11:44:54-07:00,13.931648015976,2,versionA_stim.csv,READVersionB.csv,"Read Version B","Dissertation, read only version B",TAKE,SEIZE,Study1,B,29,9,Test,User,-,,Recall,Recall2,13391,"Seize ",100,10357,11613,1,1,,0.778
5ebecb3f7899980b68a9898a,4va7029uyk,Nick_Dissertation_EX1,1,326,2020-10-24T11:45:16-07:00,21.325861930847,2,versionA_stim.csv,READVersionB.csv,"Read Version B","Dissertation, read only version B",WAY,OUT,Study1,F,16,23,Test,User,-,,Recall,Recall2,20834,Out,100,19555,19991,1,1,,0.553
5ebecb3f7899980b68a9898a,4va7029uyk,Nick_Dissertation_EX1,1,327,2020-10-24T11:45:33-07:00,17.199869155884,2,versionA_stim.csv,READVersionB.csv,"Read Version B","Dissertation, read only version B",DIGESTION,STOMACH,Study1,F,7,28,Test,User,-,,Recall,Recall2,15760,"Stomach ",100,13297,14004,1,1,,0.686
5ebecb3f7899980b68a9898a,4va7029uyk,Nick_Dissertation_EX1,1,328,2020-10-24T11:45:52-07:00,18.943704843521,2,versionA_stim.csv,READVersionB.csv,"Read Version B","Dissertation, read only version B",PUSHER,CLUTTER,Study1,U,66,17,Test,User,-,,Recall,Recall2,18360,Clutter,100,16199,17517,1,1,,0.667
5ebecb3f7899980b68a9898a,4va7029uyk,Nick_Dissertation_EX1,1,329,2020-10-24T11:46:05-07:00,12.953504085541,2,versionA_stim.csv,READVersionB.csv,"Read Version B","Dissertation, read only version B",STRONG,ACCIDENT,Study1,U,80,7,Test,User,-,,Recall,Recall2,12508,"Accident ",100,9946,10675,1,1,,0.75
5ebecb3f7899980b68a9898a,4va7029uyk,Nick_Dissertation_EX1,1,330,2020-10-24T11:46:17-07:00,12.641620874405,2,versionA_stim.csv,READVersionB.csv,"Read Version B","Dissertation, read only version B",ORCHID,FLOWER,Study1,F,24,65,Test,User,-,,Recall,Recall2,12198,Flower,100,10332,11320,1,1,,0.767
5ebecb3f7899980b68a9898a,4va7029uyk,Nick_Dissertation_EX1,1,331,2020-10-24T11:46:27-07:00,9.3518071174622,2,versionA_stim.csv,READVersionB.csv,"Read Version B","Dissertation, read only version B",FULL,ENOUGH,Study1,B,26,60,Test,User,-,,Recall,Recall2,8905,"Enough ",100,6674,7243,1,1,,0.862
5ebecb3f7899980b68a9898a,4va7029uyk,Nick_Dissertation_EX1,1,332,2020-10-24T11:46:31-07:00,4.665461063385,2,versionA_stim.csv,READVersionB.csv,"Read Version B","Dissertation, read only version B",TUNA,FISH,Study1,F,25,44,Test,User,-,,Recall,Recall2,4102,Fish,100,2708,3307,1,1,,1
5ebecb3f7899980b68a9898a,4va7029uyk,Nick_Dissertation_EX1,1,333,2020-10-24T11:47:12-07:00,40.54726600647,2,versionA_stim.csv,READVersionB.csv,"Read Version B","Dissertation, read only version B",DUE,ASSIGNMENT,Study1,S,46,63,Test,User,-,,Recall,Recall2,39891,"Assignment ",100,21236,38020,1,1,,0.831
5ebecb3f7899980b68a9898a,4va7029uyk,Nick_Dissertation_EX1,1,334,2020-10-24T11:47:32-07:00,19.820602893829,2,versionA_stim.csv,READVersionB.csv,"Read Version B","Dissertation, read only version B",ARCHITECTURE,DESIGN,Study1,S,51,72,Test,User,-,,Recall,Recall2,19288,"Design ",100,16925,17286,1,1,,0.632
5ebecb3f7899980b68a9898a,4va7029uyk,Nick_Dissertation_EX1,1,335,2020-10-24T11:47:45-07:00,12.903641939163,2,versionA_stim.csv,READVersionB.csv,"Read Version B","Dissertation, read only version B",SLEEP,DROWSY,Study1,B,41,32,Test,User,-,,Recall,Recall2,12253,Drowsy,100,8701,11251,1,1,,0.829
5ebecb3f7899980b68a9898a,4va7029uyk,Nick_Dissertation_EX1,1,336,2020-10-24T11:47:56-07:00,10.817103147507,2,versionA_stim.csv,READVersionB.csv,"Read Version B","Dissertation, read only version B",PAW,DOG,Study1,F,15,69,Test,User,-,,Recall,Recall2,10381,"Dog ",100,8205,8688,1,1,,0.793
5ebecb3f7899980b68a9898a,4va7029uyk,Nick_Dissertation_EX1,1,337,2020-10-24T11:48:04-07:00,7.9929020404816,2,versionA_stim.csv,READVersionB.csv,"Read Version B","Dissertation, read only version B",HONEY,BEE,Study1,S,63,52,Test,User,-,,Recall,Recall2,7551,Bee,100,6284,6786,1,1,,0.826
5ebecb3f7899980b68a9898a,4va7029uyk,Nick_Dissertation_EX1,1,338,2020-10-24T11:48:16-07:00,12.248727798462,2,versionA_stim.csv,READVersionB.csv,"Read Version B","Dissertation, read only version B",HUNGER,FAMINE,Study1,B,40,33,Test,User,-,,Recall,Recall2,11808,Famine,100,8425,10681,1,1,,0.838
5ebecb3f7899980b68a9898a,4va7029uyk,Nick_Dissertation_EX1,1,339,2020-10-24T11:48:23-07:00,6.969829082489,2,versionA_stim.csv,READVersionB.csv,"Read Version B","Dissertation, read only version B",HEIGHT,GROWTH,Study1,B,30,20,Test,User,-,,Recall,Recall2,6417,Growth,100,4234,5303,1,1,,0.963
5ebecb3f7899980b68a9898a,4va7029uyk,Nick_Dissertation_EX1,1,340,2020-10-24T11:48:37-07:00,14.586755037308,2,versionA_stim.csv,READVersionB.csv,"Read Version B","Dissertation, read only version B",PLANE,PILOT,Study1,B,44,26,Test,User,-,,Recall,Recall2,14124,Pilot,100,12508,13254,1,1,,0.71
5ebecb3f7899980b68a9898a,4va7029uyk,Nick_Dissertation_EX1,1,341,2020-10-24T11:48:49-07:00,12.146627902985,2,versionA_stim.csv,READVersionB.csv,"Read Version B","Dissertation, read only version B",PARK,HUNGRY,Study1,U,68,21,Test,User,-,,Recall,Recall2,11687,Hungry,100,9649,10749,1,1,,0.767
5ebecb3f7899980b68a9898a,4va7029uyk,Nick_Dissertation_EX1,1,342,2020-10-24T11:48:53-07:00,3.8960571289062,2,versionA_stim.csv,READVersionB.csv,"Read Version B","Dissertation, read only version B",CREDIT,CARD,Study1,F,23,40,Test,User,-,,Recall,Recall2,3376,Card,100,1883,2490,1,1,,1
5ebecb3f7899980b68a9898a,4va7029uyk,Nick_Dissertation_EX1,1,343,2020-10-24T11:49:17-07:00,23.628465890884,2,versionA_stim.csv,READVersionB.csv,"Read Version B","Dissertation, read only version B",POP,SODA,Study1,S,56,53,Test,User,-,,Recall,Recall2,23118,Soda,100,21414,22229,1,1,,0.537
5ebecb3f7899980b68a9898a,4va7029uyk,Nick_Dissertation_EX1,1,344,2020-10-24T11:49:38-07:00,21.392467975616,2,versionA_stim.csv,READVersionB.csv,"Read Version B","Dissertation, read only version B",DARK,CAVE,Study1,B,28,82,Test,User,-,,Recall,Recall2,20935,Cave,100,19467,20116,1,1,,0.579
