Username,ID,ExperimentName,Session,Trial,Date,TimeDif,"Condition Number","Stimuli File","Order File","Condition Description","Condition Notes",Stimuli*Cue,Stimuli*Answer,Stimuli*Shuffle,"Stimuli*Stimuli Notes",Stimuli*Value,Procedure*Item,"Procedure*Trial Type","Procedure*Max Time","Procedure*Min Time",Procedure*Text,"Procedure*Procedure Notes",Procedure*Shuffle,Response*RT,Response*Response,Response*Accuracy,Response*RTfirst,Response*RTlast,Response*strictAcc,Response*lenientAcc,Response*focus,Response*Focus
10104845FH,r1emwkx808,Nick_Dissertation_EX1,1,1,2020-09-27T08:46:28-07:00,12.353691101074,3,versionC_stim.csv,READVersionC.csv,"Read Version C","Dissertation, read only version C",,,,,,0,Instruct,-,10,"Please study each of the following word pairs. Remember that your memory will be tested! When finished, press Enter to move to the next pair.",Initial_Instruct,Instruct1,11751,,,-1,-1,,,,1
10104845FH,r1emwkx808,Nick_Dissertation_EX1,1,2,2020-09-27T08:46:34-07:00,6.0211718082428,3,versionC_stim.csv,READVersionC.csv,"Read Version C","Dissertation, read only version C",CATCHER,BASEBALL,BUFFER1,Buffer,2,5,Study,User,-,,Study/JOL,BUFFER,5217,,,-1,-1,,,,1
10104845FH,r1emwkx808,Nick_Dissertation_EX1,1,3,2020-09-27T08:46:37-07:00,3.2199461460114,3,versionC_stim.csv,READVersionC.csv,"Read Version C","Dissertation, read only version C",BUTTER,PEANUT,BUFFER1,Buffer,3,4,Study,User,-,,Study/JOL,BUFFER,2586,,,-1,-1,,,,1
10104845FH,r1emwkx808,Nick_Dissertation_EX1,1,4,2020-09-27T08:46:39-07:00,1.9026739597321,3,versionC_stim.csv,READVersionC.csv,"Read Version C","Dissertation, read only version C",GREEN,TREES,BUFFER1,Buffer,1,3,Study,User,-,,Study/JOL,BUFFER,1537,,,-1,-1,,,,1
10104845FH,r1emwkx808,Nick_Dissertation_EX1,1,5,2020-09-27T08:46:42-07:00,2.5193629264832,3,versionC_stim.csv,READVersionC.csv,"Read Version C","Dissertation, read only version C",HIDE,SCARE,BUFFER1,Buffer,4,2,Study,User,-,,Study/JOL,BUFFER,2129,,,-1,-1,,,,1
10104845FH,r1emwkx808,Nick_Dissertation_EX1,1,6,2020-09-27T08:46:44-07:00,1.9954760074615,3,versionC_stim.csv,READVersionC.csv,"Read Version C","Dissertation, read only version C",JAM,SPACE,BUFFER1,Buffer,5,6,Study,User,-,,Study/JOL,BUFFER,1640,,,-1,-1,,,,1
10104845FH,r1emwkx808,Nick_Dissertation_EX1,1,7,2020-09-27T08:46:45-07:00,1.7355351448059,3,versionC_stim.csv,READVersionC.csv,"Read Version C","Dissertation, read only version C",CHILI,HOT,Study1,F,37,28,Study,User,-,,Study/JOL,"Study Phase",1355,,,-1,-1,,,,1
10104845FH,r1emwkx808,Nick_Dissertation_EX1,1,8,2020-09-27T08:46:48-07:00,2.2555370330811,3,versionC_stim.csv,READVersionC.csv,"Read Version C","Dissertation, read only version C",OUT,WAY,Study1,B,16,81,Study,User,-,,Study/JOL,"Study Phase",1702,,,-1,-1,,,,1
10104845FH,r1emwkx808,Nick_Dissertation_EX1,1,9,2020-09-27T08:46:50-07:00,1.8799939155579,3,versionC_stim.csv,READVersionC.csv,"Read Version C","Dissertation, read only version C",SEIZE,TAKE,Study1,F,29,47,Study,User,-,,Study/JOL,"Study Phase",1349,,,-1,-1,,,,1
10104845FH,r1emwkx808,Nick_Dissertation_EX1,1,10,2020-09-27T08:46:51-07:00,1.6381340026855,3,versionC_stim.csv,READVersionC.csv,"Read Version C","Dissertation, read only version C",STOMACH,DIGESTION,Study1,B,7,40,Study,User,-,,Study/JOL,"Study Phase",1271,,,-1,-1,,,,1
10104845FH,r1emwkx808,Nick_Dissertation_EX1,1,11,2020-09-27T08:46:53-07:00,1.8292369842529,3,versionC_stim.csv,READVersionC.csv,"Read Version C","Dissertation, read only version C",BAD,DELINQUENT,Study1,B,6,59,Study,User,-,,Study/JOL,"Study Phase",1487,,,-1,-1,,,,1
10104845FH,r1emwkx808,Nick_Dissertation_EX1,1,12,2020-09-27T08:46:55-07:00,1.8411939144135,3,versionC_stim.csv,READVersionC.csv,"Read Version C","Dissertation, read only version C",FUTURE,PAST,Study1,S,61,13,Study,User,-,,Study/JOL,"Study Phase",1196,,,-1,-1,,,,1
10104845FH,r1emwkx808,Nick_Dissertation_EX1,1,13,2020-09-27T08:46:57-07:00,1.8141779899597,3,versionC_stim.csv,READVersionC.csv,"Read Version C","Dissertation, read only version C",ATTIRE,CLOTHES,Study1,F,43,58,Study,User,-,,Study/JOL,"Study Phase",1242,,,-1,-1,,,,1
10104845FH,r1emwkx808,Nick_Dissertation_EX1,1,14,2020-09-27T08:46:59-07:00,2.239825963974,3,versionC_stim.csv,READVersionC.csv,"Read Version C","Dissertation, read only version C",TOILET,BATHROOM,Study1,S,58,51,Study,User,-,,Study/JOL,"Study Phase",1520,,,-1,-1,,,,1
10104845FH,r1emwkx808,Nick_Dissertation_EX1,1,15,2020-09-27T08:47:01-07:00,1.8046441078186,3,versionC_stim.csv,READVersionC.csv,"Read Version C","Dissertation, read only version C",SALAD,LETTUCE,Study1,S,59,41,Study,User,-,,Study/JOL,"Study Phase",1315,,,-1,-1,,,,1
10104845FH,r1emwkx808,Nick_Dissertation_EX1,1,16,2020-09-27T08:47:02-07:00,1.777391910553,3,versionC_stim.csv,READVersionC.csv,"Read Version C","Dissertation, read only version C",PLANT,ROOT,Study1,B,13,82,Study,User,-,,Study/JOL,"Study Phase",1182,,,-1,-1,,,,1
10104845FH,r1emwkx808,Nick_Dissertation_EX1,1,17,2020-09-27T08:47:04-07:00,1.6660540103912,3,versionC_stim.csv,READVersionC.csv,"Read Version C","Dissertation, read only version C",SODA,POP,Study1,S,56,11,Study,User,-,,Study/JOL,"Study Phase",1223,,,-1,-1,,,,1
10104845FH,r1emwkx808,Nick_Dissertation_EX1,1,18,2020-09-27T08:47:07-07:00,2.4473071098328,3,versionC_stim.csv,READVersionC.csv,"Read Version C","Dissertation, read only version C",LION,ART,Study1,U,79,18,Study,User,-,,Study/JOL,"Study Phase",1957,,,-1,-1,,,,1
10104845FH,r1emwkx808,Nick_Dissertation_EX1,1,19,2020-09-27T08:47:08-07:00,1.5499629974365,3,versionC_stim.csv,READVersionC.csv,"Read Version C","Dissertation, read only version C",BLAZE,FIRE,Study1,F,45,34,Study,User,-,,Study/JOL,"Study Phase",1161,,,-1,-1,,,,1
10104845FH,r1emwkx808,Nick_Dissertation_EX1,1,20,2020-09-27T08:47:11-07:00,2.6259860992432,3,versionC_stim.csv,READVersionC.csv,"Read Version C","Dissertation, read only version C",SICK,HIDE,Study1,U,84,62,Study,User,-,,Study/JOL,"Study Phase",2051,,,-1,-1,,,,1
10104845FH,r1emwkx808,Nick_Dissertation_EX1,1,21,2020-09-27T08:47:13-07:00,1.839005947113,3,versionC_stim.csv,READVersionC.csv,"Read Version C","Dissertation, read only version C",HAMMER,CHISEL,Study1,B,9,7,Study,User,-,,Study/JOL,"Study Phase",1419,,,-1,-1,,,,1
10104845FH,r1emwkx808,Nick_Dissertation_EX1,1,22,2020-09-27T08:47:15-07:00,2.2467839717865,3,versionC_stim.csv,READVersionC.csv,"Read Version C","Dissertation, read only version C",FAMINE,HUNGER,Study1,F,40,24,Study,User,-,,Study/JOL,"Study Phase",1781,,,-1,-1,,,,1
10104845FH,r1emwkx808,Nick_Dissertation_EX1,1,23,2020-09-27T08:47:17-07:00,2.2228760719299,3,versionC_stim.csv,READVersionC.csv,"Read Version C","Dissertation, read only version C",NEWS,EDITOR,Study1,B,10,39,Study,User,-,,Study/JOL,"Study Phase",1761,,,-1,-1,,,,1
10104845FH,r1emwkx808,Nick_Dissertation_EX1,1,24,2020-09-27T08:47:19-07:00,1.9517638683319,3,versionC_stim.csv,READVersionC.csv,"Read Version C","Dissertation, read only version C",BRONZE,ARTERY,Study1,U,74,27,Study,User,-,,Study/JOL,"Study Phase",1540,,,-1,-1,,,,1
10104845FH,r1emwkx808,Nick_Dissertation_EX1,1,25,2020-09-27T08:47:22-07:00,2.6200020313263,3,versionC_stim.csv,READVersionC.csv,"Read Version C","Dissertation, read only version C",SITE,LOCATION,Study1,S,48,36,Study,User,-,,Study/JOL,"Study Phase",1962,,,-1,-1,,,,1
10104845FH,r1emwkx808,Nick_Dissertation_EX1,1,26,2020-09-27T08:47:23-07:00,1.8556790351868,3,versionC_stim.csv,READVersionC.csv,"Read Version C","Dissertation, read only version C",TUCK,ALLOW,Study1,U,78,12,Study,User,-,,Study/JOL,"Study Phase",1409,,,-1,-1,,,,1
10104845FH,r1emwkx808,Nick_Dissertation_EX1,1,27,2020-09-27T08:47:26-07:00,2.3367328643799,3,versionC_stim.csv,READVersionC.csv,"Read Version C","Dissertation, read only version C",CHILD,BABY,Study1,S,64,68,Study,User,-,,Study/JOL,"Study Phase",1782,,,-1,-1,,,,1
10104845FH,r1emwkx808,Nick_Dissertation_EX1,1,28,2020-09-27T08:47:28-07:00,1.9264841079712,3,versionC_stim.csv,READVersionC.csv,"Read Version C","Dissertation, read only version C",COW,HERD,Study1,B,22,72,Study,User,-,,Study/JOL,"Study Phase",1549,,,-1,-1,,,,1
10104845FH,r1emwkx808,Nick_Dissertation_EX1,1,29,2020-09-27T08:47:29-07:00,1.671942949295,3,versionC_stim.csv,READVersionC.csv,"Read Version C","Dissertation, read only version C",LATCH,KEY,Study1,F,36,43,Study,User,-,,Study/JOL,"Study Phase",1221,,,-1,-1,,,,1
10104845FH,r1emwkx808,Nick_Dissertation_EX1,1,30,2020-09-27T08:47:31-07:00,1.7181241512299,3,versionC_stim.csv,READVersionC.csv,"Read Version C","Dissertation, read only version C",STENCH,SMELL,Study1,F,42,26,Study,User,-,,Study/JOL,"Study Phase",1312,,,-1,-1,,,,1
10104845FH,r1emwkx808,Nick_Dissertation_EX1,1,31,2020-09-27T08:47:33-07:00,1.6011297702789,3,versionC_stim.csv,READVersionC.csv,"Read Version C","Dissertation, read only version C",FOOT,SHOE,Study1,S,60,8,Study,User,-,,Study/JOL,"Study Phase",1226,,,-1,-1,,,,1
10104845FH,r1emwkx808,Nick_Dissertation_EX1,1,32,2020-09-27T08:47:34-07:00,1.7089102268219,3,versionC_stim.csv,READVersionC.csv,"Read Version C","Dissertation, read only version C",CLEAN,HYGIENE,Study1,B,17,30,Study,User,-,,Study/JOL,"Study Phase",1321,,,-1,-1,,,,1
10104845FH,r1emwkx808,Nick_Dissertation_EX1,1,33,2020-09-27T08:47:36-07:00,1.7055869102478,3,versionC_stim.csv,READVersionC.csv,"Read Version C","Dissertation, read only version C",ASSIGNMENT,DUE,Study1,S,46,77,Study,User,-,,Study/JOL,"Study Phase",1344,,,-1,-1,,,,1
10104845FH,r1emwkx808,Nick_Dissertation_EX1,1,34,2020-09-27T08:47:39-07:00,3.0350759029388,3,versionC_stim.csv,READVersionC.csv,"Read Version C","Dissertation, read only version C",SACKING,DIETARY,Study1,U,67,15,Study,User,-,,Study/JOL,"Study Phase",2640,,,-1,-1,,,,1
10104845FH,r1emwkx808,Nick_Dissertation_EX1,1,35,2020-09-27T08:47:41-07:00,1.7894690036774,3,versionC_stim.csv,READVersionC.csv,"Read Version C","Dissertation, read only version C",ROUND,CIRCLE,Study1,S,65,14,Study,User,-,,Study/JOL,"Study Phase",1442,,,-1,-1,,,,1
10104845FH,r1emwkx808,Nick_Dissertation_EX1,1,36,2020-09-27T08:47:43-07:00,2.0267741680145,3,versionC_stim.csv,READVersionC.csv,"Read Version C","Dissertation, read only version C",CAVE,DARK,Study1,F,28,45,Study,User,-,,Study/JOL,"Study Phase",1665,,,-1,-1,,,,1
10104845FH,r1emwkx808,Nick_Dissertation_EX1,1,37,2020-09-27T08:47:46-07:00,2.5705559253693,3,versionC_stim.csv,READVersionC.csv,"Read Version C","Dissertation, read only version C",COLD,BITTER,Study1,B,12,52,Study,User,-,,Study/JOL,"Study Phase",2170,,,-1,-1,,,,1
10104845FH,r1emwkx808,Nick_Dissertation_EX1,1,38,2020-09-27T08:47:48-07:00,2.6715929508209,3,versionC_stim.csv,READVersionC.csv,"Read Version C","Dissertation, read only version C",SIGHT,DEBATE,Study1,U,73,19,Study,User,-,,Study/JOL,"Study Phase",2078,,,-1,-1,,,,1
10104845FH,r1emwkx808,Nick_Dissertation_EX1,1,39,2020-09-27T08:47:50-07:00,2.0250749588013,3,versionC_stim.csv,READVersionC.csv,"Read Version C","Dissertation, read only version C",CHEESE,WINE,Study1,S,57,61,Study,User,-,,Study/JOL,"Study Phase",1290,,,-1,-1,,,,1
10104845FH,r1emwkx808,Nick_Dissertation_EX1,1,40,2020-09-27T08:47:52-07:00,2.0609781742096,3,versionC_stim.csv,READVersionC.csv,"Read Version C","Dissertation, read only version C",GROWTH,HEIGHT,Study1,F,30,86,Study,User,-,,Study/JOL,"Study Phase",1597,,,-1,-1,,,,1
10104845FH,r1emwkx808,Nick_Dissertation_EX1,1,41,2020-09-27T08:47:54-07:00,1.9552087783813,3,versionC_stim.csv,READVersionC.csv,"Read Version C","Dissertation, read only version C",CAR,HAPPY,Study1,U,77,84,Study,User,-,,Study/JOL,"Study Phase",1555,,,-1,-1,,,,1
10104845FH,r1emwkx808,Nick_Dissertation_EX1,1,42,2020-09-27T08:47:56-07:00,2.1600592136383,3,versionC_stim.csv,READVersionC.csv,"Read Version C","Dissertation, read only version C",VASE,KING,Study1,U,85,65,Study,User,-,,Study/JOL,"Study Phase",1690,,,-1,-1,,,,1
10104845FH,r1emwkx808,Nick_Dissertation_EX1,1,43,2020-09-27T08:47:59-07:00,2.1099338531494,3,versionC_stim.csv,READVersionC.csv,"Read Version C","Dissertation, read only version C",ATTORNEY,LAW,Study1,F,34,64,Study,User,-,,Study/JOL,"Study Phase",1633,,,-1,-1,,,,1
10104845FH,r1emwkx808,Nick_Dissertation_EX1,1,44,2020-09-27T08:48:00-07:00,1.9214041233063,3,versionC_stim.csv,READVersionC.csv,"Read Version C","Dissertation, read only version C",WASP,BUG,Study1,F,32,79,Study,User,-,,Study/JOL,"Study Phase",1559,,,-1,-1,,,,1
10104845FH,r1emwkx808,Nick_Dissertation_EX1,1,45,2020-09-27T08:48:02-07:00,1.8095278739929,3,versionC_stim.csv,READVersionC.csv,"Read Version C","Dissertation, read only version C",DIVISION,MATH,Study1,F,33,74,Study,User,-,,Study/JOL,"Study Phase",1442,,,-1,-1,,,,1
10104845FH,r1emwkx808,Nick_Dissertation_EX1,1,46,2020-09-27T08:48:04-07:00,1.7304840087891,3,versionC_stim.csv,READVersionC.csv,"Read Version C","Dissertation, read only version C",DOG,PAW,Study1,B,15,71,Study,User,-,,Study/JOL,"Study Phase",1317,,,-1,-1,,,,1
10104845FH,r1emwkx808,Nick_Dissertation_EX1,1,47,2020-09-27T08:48:06-07:00,1.6154251098633,3,versionC_stim.csv,READVersionC.csv,"Read Version C","Dissertation, read only version C",ENOUGH,FULL,Study1,F,26,21,Study,User,-,,Study/JOL,"Study Phase",1251,,,-1,-1,,,,1
10104845FH,r1emwkx808,Nick_Dissertation_EX1,1,48,2020-09-27T08:48:07-07:00,1.5315098762512,3,versionC_stim.csv,READVersionC.csv,"Read Version C","Dissertation, read only version C",WAR,REVOLUTION,Study1,B,20,83,Study,User,-,,Study/JOL,"Study Phase",1184,,,-1,-1,,,,1
10104845FH,r1emwkx808,Nick_Dissertation_EX1,1,49,2020-09-27T08:48:09-07:00,2.1674160957336,3,versionC_stim.csv,READVersionC.csv,"Read Version C","Dissertation, read only version C",BELT,SOON,Study1,U,70,20,Study,User,-,,Study/JOL,"Study Phase",1694,,,-1,-1,,,,1
10104845FH,r1emwkx808,Nick_Dissertation_EX1,1,50,2020-09-27T08:48:11-07:00,1.6897969245911,3,versionC_stim.csv,READVersionC.csv,"Read Version C","Dissertation, read only version C",CHORE,WORK,Study1,F,39,85,Study,User,-,,Study/JOL,"Study Phase",1298,,,-1,-1,,,,1
10104845FH,r1emwkx808,Nick_Dissertation_EX1,1,51,2020-09-27T08:48:13-07:00,1.5576751232147,3,versionC_stim.csv,READVersionC.csv,"Read Version C","Dissertation, read only version C",BAR,GRILL,Study1,S,52,37,Study,User,-,,Study/JOL,"Study Phase",1157,,,-1,-1,,,,1
10104845FH,r1emwkx808,Nick_Dissertation_EX1,1,52,2020-09-27T08:48:15-07:00,1.9476199150085,3,versionC_stim.csv,READVersionC.csv,"Read Version C","Dissertation, read only version C",HAND,FIX,Study1,U,75,33,Study,User,-,,Study/JOL,"Study Phase",1543,,,-1,-1,,,,1
10104845FH,r1emwkx808,Nick_Dissertation_EX1,1,53,2020-09-27T08:48:17-07:00,2.4389550685883,3,versionC_stim.csv,READVersionC.csv,"Read Version C","Dissertation, read only version C",ACCIDENT,STRONG,Study1,U,80,78,Study,User,-,,Study/JOL,"Study Phase",1949,,,-1,-1,,,,1
10104845FH,r1emwkx808,Nick_Dissertation_EX1,1,54,2020-09-27T08:48:19-07:00,2.1008489131927,3,versionC_stim.csv,READVersionC.csv,"Read Version C","Dissertation, read only version C",WOULD,CASH,Study1,U,83,75,Study,User,-,,Study/JOL,"Study Phase",1671,,,-1,-1,,,,1
10104845FH,r1emwkx808,Nick_Dissertation_EX1,1,55,2020-09-27T08:48:21-07:00,1.635046005249,3,versionC_stim.csv,READVersionC.csv,"Read Version C","Dissertation, read only version C",SIP,DRINK,Study1,F,27,56,Study,User,-,,Study/JOL,"Study Phase",1250,,,-1,-1,,,,1
10104845FH,r1emwkx808,Nick_Dissertation_EX1,1,56,2020-09-27T08:48:23-07:00,1.9429659843445,3,versionC_stim.csv,READVersionC.csv,"Read Version C","Dissertation, read only version C",FLOWER,ORCHID,Study1,B,24,80,Study,User,-,,Study/JOL,"Study Phase",1387,,,-1,-1,,,,1
10104845FH,r1emwkx808,Nick_Dissertation_EX1,1,57,2020-09-27T08:48:25-07:00,1.9473459720612,3,versionC_stim.csv,READVersionC.csv,"Read Version C","Dissertation, read only version C",BIRD,SWAN,Study1,B,14,54,Study,User,-,,Study/JOL,"Study Phase",1551,,,-1,-1,,,,1
10104845FH,r1emwkx808,Nick_Dissertation_EX1,1,58,2020-09-27T08:48:28-07:00,2.9695401191711,3,versionC_stim.csv,READVersionC.csv,"Read Version C","Dissertation, read only version C",POSITION,MACHINE,Study1,U,76,22,Study,User,-,,Study/JOL,"Study Phase",2460,,,-1,-1,,,,1
10104845FH,r1emwkx808,Nick_Dissertation_EX1,1,59,2020-09-27T08:48:30-07:00,1.9311909675598,3,versionC_stim.csv,READVersionC.csv,"Read Version C","Dissertation, read only version C",FISH,TUNA,Study1,B,25,44,Study,User,-,,Study/JOL,"Study Phase",1489,,,-1,-1,,,,1
10104845FH,r1emwkx808,Nick_Dissertation_EX1,1,60,2020-09-27T08:48:33-07:00,3.0152220726013,3,versionC_stim.csv,READVersionC.csv,"Read Version C","Dissertation, read only version C",AMOUNT,NUMBER,Study1,S,47,70,Study,User,-,,Study/JOL,"Study Phase",2542,,,-1,-1,,,,1
10104845FH,r1emwkx808,Nick_Dissertation_EX1,1,61,2020-09-27T08:48:35-07:00,2.6628649234772,3,versionC_stim.csv,READVersionC.csv,"Read Version C","Dissertation, read only version C",FANTASTIC,GREAT,Study1,F,35,60,Study,User,-,,Study/JOL,"Study Phase",2179,,,-1,-1,,,,1
10104845FH,r1emwkx808,Nick_Dissertation_EX1,1,62,2020-09-27T08:48:37-07:00,1.5796718597412,3,versionC_stim.csv,READVersionC.csv,"Read Version C","Dissertation, read only version C",JURY,TRIAL,Study1,S,50,49,Study,User,-,,Study/JOL,"Study Phase",1164,,,-1,-1,,,,1
10104845FH,r1emwkx808,Nick_Dissertation_EX1,1,63,2020-09-27T08:48:38-07:00,1.5748631954193,3,versionC_stim.csv,READVersionC.csv,"Read Version C","Dissertation, read only version C",WASTE,DUMP,Study1,S,49,50,Study,User,-,,Study/JOL,"Study Phase",1153,,,-1,-1,,,,1
10104845FH,r1emwkx808,Nick_Dissertation_EX1,1,64,2020-09-27T08:48:41-07:00,2.6019978523254,3,versionC_stim.csv,READVersionC.csv,"Read Version C","Dissertation, read only version C",END,BEGIN,Study1,S,54,67,Study,User,-,,Study/JOL,"Study Phase",2079,,,-1,-1,,,,1
10104845FH,r1emwkx808,Nick_Dissertation_EX1,1,65,2020-09-27T08:48:43-07:00,2.3201520442963,3,versionC_stim.csv,READVersionC.csv,"Read Version C","Dissertation, read only version C",WIND,BLOW,Study1,S,55,17,Study,User,-,,Study/JOL,"Study Phase",1702,,,-1,-1,,,,1
10104845FH,r1emwkx808,Nick_Dissertation_EX1,1,66,2020-09-27T08:48:45-07:00,1.8603200912476,3,versionC_stim.csv,READVersionC.csv,"Read Version C","Dissertation, read only version C",TALK,DISCUSSION,Study1,B,21,69,Study,User,-,,Study/JOL,"Study Phase",1111,,,-1,-1,,,,1
10104845FH,r1emwkx808,Nick_Dissertation_EX1,1,67,2020-09-27T08:48:47-07:00,1.9279508590698,3,versionC_stim.csv,READVersionC.csv,"Read Version C","Dissertation, read only version C",DESIGN,ARCHITECTURE,Study1,S,51,73,Study,User,-,,Study/JOL,"Study Phase",1439,,,-1,-1,,,,1
10104845FH,r1emwkx808,Nick_Dissertation_EX1,1,68,2020-09-27T08:48:49-07:00,1.9844300746918,3,versionC_stim.csv,READVersionC.csv,"Read Version C","Dissertation, read only version C",STING,HORNET,Study1,B,11,16,Study,User,-,,Study/JOL,"Study Phase",1395,,,-1,-1,,,,1
10104845FH,r1emwkx808,Nick_Dissertation_EX1,1,69,2020-09-27T08:48:51-07:00,2.456983089447,3,versionC_stim.csv,READVersionC.csv,"Read Version C","Dissertation, read only version C",DROWSY,SLEEP,Study1,F,41,25,Study,User,-,,Study/JOL,"Study Phase",1838,,,-1,-1,,,,1
10104845FH,r1emwkx808,Nick_Dissertation_EX1,1,70,2020-09-27T08:48:54-07:00,2.2945280075073,3,versionC_stim.csv,READVersionC.csv,"Read Version C","Dissertation, read only version C",BEE,HONEY,Study1,S,63,32,Study,User,-,,Study/JOL,"Study Phase",1484,,,-1,-1,,,,1
10104845FH,r1emwkx808,Nick_Dissertation_EX1,1,71,2020-09-27T08:48:55-07:00,1.5986468791962,3,versionC_stim.csv,READVersionC.csv,"Read Version C","Dissertation, read only version C",BUSINESS,DEATH,Study1,U,72,38,Study,User,-,,Study/JOL,"Study Phase",1230,,,-1,-1,,,,1
10104845FH,r1emwkx808,Nick_Dissertation_EX1,1,72,2020-09-27T08:48:58-07:00,2.9959869384766,3,versionC_stim.csv,READVersionC.csv,"Read Version C","Dissertation, read only version C",RIDDLE,SUGAR,Study1,U,81,31,Study,User,-,,Study/JOL,"Study Phase",2353,,,-1,-1,,,,1
10104845FH,r1emwkx808,Nick_Dissertation_EX1,1,73,2020-09-27T08:49:00-07:00,1.3100461959839,3,versionC_stim.csv,READVersionC.csv,"Read Version C","Dissertation, read only version C",CLUTTER,PUSHER,Study1,U,66,23,Study,User,-,,Study/JOL,"Study Phase",893,,,-1,-1,,,,1
10104845FH,r1emwkx808,Nick_Dissertation_EX1,1,74,2020-09-27T08:49:02-07:00,2.1448128223419,3,versionC_stim.csv,READVersionC.csv,"Read Version C","Dissertation, read only version C",WOMAN,LIFT,Study1,U,69,63,Study,User,-,,Study/JOL,"Study Phase",1040,,,-1,-1,,,,1
10104845FH,r1emwkx808,Nick_Dissertation_EX1,1,75,2020-09-27T08:49:04-07:00,1.8260250091553,3,versionC_stim.csv,READVersionC.csv,"Read Version C","Dissertation, read only version C",LIVER,KIDNEY,Study1,S,53,42,Study,User,-,,Study/JOL,"Study Phase",1228,,,-1,-1,,,,1
10104845FH,r1emwkx808,Nick_Dissertation_EX1,1,76,2020-09-27T08:49:05-07:00,1.8401930332184,3,versionC_stim.csv,READVersionC.csv,"Read Version C","Dissertation, read only version C",MONEY,WAGE,Study1,B,8,55,Study,User,-,,Study/JOL,"Study Phase",1169,,,-1,-1,,,,1
10104845FH,r1emwkx808,Nick_Dissertation_EX1,1,77,2020-09-27T08:49:07-07:00,1.6397800445557,3,versionC_stim.csv,READVersionC.csv,"Read Version C","Dissertation, read only version C",ADD,VALLEY,Study1,U,82,57,Study,User,-,,Study/JOL,"Study Phase",1146,,,-1,-1,,,,1
10104845FH,r1emwkx808,Nick_Dissertation_EX1,1,78,2020-09-27T08:49:09-07:00,1.5713219642639,3,versionC_stim.csv,READVersionC.csv,"Read Version C","Dissertation, read only version C",ROCK,GEOLOGY,Study1,B,19,53,Study,User,-,,Study/JOL,"Study Phase",1143,,,-1,-1,,,,1
10104845FH,r1emwkx808,Nick_Dissertation_EX1,1,79,2020-09-27T08:49:10-07:00,1.5315449237823,3,versionC_stim.csv,READVersionC.csv,"Read Version C","Dissertation, read only version C",WATER,BRIDGE,Study1,B,18,35,Study,User,-,,Study/JOL,"Study Phase",878,,,-1,-1,,,,1
10104845FH,r1emwkx808,Nick_Dissertation_EX1,1,80,2020-09-27T08:49:12-07:00,2.2249660491943,3,versionC_stim.csv,READVersionC.csv,"Read Version C","Dissertation, read only version C",FLOOR,DISCOVER,Study1,U,71,66,Study,User,-,,Study/JOL,"Study Phase",1445,,,-1,-1,,,,1
10104845FH,r1emwkx808,Nick_Dissertation_EX1,1,81,2020-09-27T08:49:14-07:00,1.9360511302948,3,versionC_stim.csv,READVersionC.csv,"Read Version C","Dissertation, read only version C",PILOT,PLANE,Study1,F,44,10,Study,User,-,,Study/JOL,"Study Phase",1289,,,-1,-1,,,,1
10104845FH,r1emwkx808,Nick_Dissertation_EX1,1,82,2020-09-27T08:49:17-07:00,2.716579914093,3,versionC_stim.csv,READVersionC.csv,"Read Version C","Dissertation, read only version C",DEFINITION,MEANING,Study1,S,62,48,Study,User,-,,Study/JOL,"Study Phase",1910,,,-1,-1,,,,1
10104845FH,r1emwkx808,Nick_Dissertation_EX1,1,83,2020-09-27T08:49:19-07:00,1.594367980957,3,versionC_stim.csv,READVersionC.csv,"Read Version C","Dissertation, read only version C",WORD,SENTENCE,Study1,F,31,76,Study,User,-,,Study/JOL,"Study Phase",1174,,,-1,-1,,,,1
10104845FH,r1emwkx808,Nick_Dissertation_EX1,1,84,2020-09-27T08:49:21-07:00,1.8297920227051,3,versionC_stim.csv,READVersionC.csv,"Read Version C","Dissertation, read only version C",RACKET,BALL,Study1,F,38,29,Study,User,-,,Study/JOL,"Study Phase",1410,,,-1,-1,,,,1
10104845FH,r1emwkx808,Nick_Dissertation_EX1,1,85,2020-09-27T08:49:22-07:00,1.5491778850555,3,versionC_stim.csv,READVersionC.csv,"Read Version C","Dissertation, read only version C",CARD,CREDIT,Study1,B,23,9,Study,User,-,,Study/JOL,"Study Phase",1139,,,-1,-1,,,,1
10104845FH,r1emwkx808,Nick_Dissertation_EX1,1,86,2020-09-27T08:49:24-07:00,2.0614511966705,3,versionC_stim.csv,READVersionC.csv,"Read Version C","Dissertation, read only version C",HUNGRY,PARK,Study1,U,68,46,Study,User,-,,Study/JOL,"Study Phase",1675,,,-1,-1,,,,1
10104845FH,r1emwkx808,Nick_Dissertation_EX1,1,87,2020-09-27T08:49:26-07:00,1.8082668781281,3,versionC_stim.csv,READVersionC.csv,"Read Version C","Dissertation, read only version C",CHOCOLATE,MALT,BUFFER2,Buffer,88,89,Study,User,-,,Study/JOL,BUFFER2,1266,,,-1,-1,,,,1
10104845FH,r1emwkx808,Nick_Dissertation_EX1,1,88,2020-09-27T08:49:28-07:00,1.8399260044098,3,versionC_stim.csv,READVersionC.csv,"Read Version C","Dissertation, read only version C",POLICE,SHERRIF,BUFFER2,Buffer,87,88,Study,User,-,,Study/JOL,BUFFER2,1431,,,-1,-1,,,,1
10104845FH,r1emwkx808,Nick_Dissertation_EX1,1,89,2020-09-27T08:49:30-07:00,1.7645170688629,3,versionC_stim.csv,READVersionC.csv,"Read Version C","Dissertation, read only version C",SPACE,MOON,BUFFER2,Buffer,89,90,Study,User,-,,Study/JOL,BUFFER2,1075,,,-1,-1,,,,1
10104845FH,r1emwkx808,Nick_Dissertation_EX1,1,90,2020-09-27T08:49:32-07:00,1.9561350345612,3,versionC_stim.csv,READVersionC.csv,"Read Version C","Dissertation, read only version C",STUFF,THING,BUFFER2,Buffer,90,87,Study,User,-,,Study/JOL,BUFFER2,1378,,,-1,-1,,,,1
10104845FH,r1emwkx808,Nick_Dissertation_EX1,1,91,2020-09-27T08:49:33-07:00,1.6600840091705,3,versionC_stim.csv,READVersionC.csv,"Read Version C","Dissertation, read only version C",GOOSE,GEESE,BUFFER2,Buffer,86,91,Study,User,-,,Study/JOL,BUFFER2,1199,,,-1,-1,,,,1
10104845FH,r1emwkx808,Nick_Dissertation_EX1,1,92,2020-09-27T08:49:36-07:00,3.0187048912048,3,versionC_stim.csv,READVersionC.csv,"Read Version C","Dissertation, read only version C",,,,,,0,Instruct,User,-,"You have completed this section. Please press Enter.",Filler_Instruction,Instruct2,2269,,,-1,-1,,,,1
10104845FH,r1emwkx808,Nick_Dissertation_EX1,1,93,2020-09-27T08:51:37-07:00,120.5622689724,3,versionC_stim.csv,READVersionC.csv,"Read Version C","Dissertation, read only version C",,,,,,0,FreeRecall,120,120,"Please list the 50 US states in alphabetical order. The task will automatically advance to the next screen after two minutes.",,Filler1,120002,"ALABAMA ALASKA ARIZONA ARKINSAS COLORADO DELAWARE FLORIDA GEORGIA HAWAII IDAHO INDIANA ILLINOIS KENTUCKY LOUISIANA MONTANA MICHIGAN MASSACHUSETTS MISSISSIPPI MAINE NEBRASKA NEW HAMPSHIRE NEW YORK OHIO NORTH CAROLINA NORTH DAKOTA SOUTH CAROLINA SOUTH DAKOTA TENESSEE NEVADA OREGON ",0,4265,113305,0,0,,1
10104845FH,r1emwkx808,Nick_Dissertation_EX1,1,94,2020-09-27T08:51:50-07:00,13.627722024918,3,versionC_stim.csv,READVersionC.csv,"Read Version C","Dissertation, read only version C",,,,,,0,Instruct,-,10,"You will now be presented with the first word from each of the previously studied item pairs. Please type the missing word. If you do not know the word, you may guess or press Enter to skip forward to the next pair.",,Instruct3,12830,,,-1,-1,,,,1
10104845FH,r1emwkx808,Nick_Dissertation_EX1,1,95,2020-09-27T08:51:53-07:00,2.9514729976654,3,versionC_stim.csv,READVersionC.csv,"Read Version C","Dissertation, read only version C",CAVE,DARK,Study1,F,28,45,Test,User,-,,Recall,Recall1,2156,DARK,100,1473,1953,1,1,,1
10104845FH,r1emwkx808,Nick_Dissertation_EX1,1,96,2020-09-27T08:52:01-07:00,7.9687860012054,3,versionC_stim.csv,READVersionC.csv,"Read Version C","Dissertation, read only version C",WOMAN,LIFT,Study1,U,69,63,Test,User,-,,Recall,Recall1,7507,LIFT,100,6692,7280,1,1,,1
10104845FH,r1emwkx808,Nick_Dissertation_EX1,1,97,2020-09-27T08:52:04-07:00,2.4665160179138,3,versionC_stim.csv,READVersionC.csv,"Read Version C","Dissertation, read only version C",CARD,CREDIT,Study1,B,23,9,Test,User,-,,Recall,Recall1,2008,CREDIT,100,967,1814,1,1,,1
10104845FH,r1emwkx808,Nick_Dissertation_EX1,1,98,2020-09-27T08:52:06-07:00,2.7206048965454,3,versionC_stim.csv,READVersionC.csv,"Read Version C","Dissertation, read only version C",HAMMER,CHISEL,Study1,B,9,7,Test,User,-,,Recall,Recall1,2156,CHISEL,100,1137,1944,1,1,,1
10104845FH,r1emwkx808,Nick_Dissertation_EX1,1,99,2020-09-27T08:52:11-07:00,4.9793801307678,3,versionC_stim.csv,READVersionC.csv,"Read Version C","Dissertation, read only version C",PLANT,ROOT,Study1,B,13,82,Test,User,-,,Recall,Recall1,4572,GROW,50,1305,4380,0,0,,1
10104845FH,r1emwkx808,Nick_Dissertation_EX1,1,100,2020-09-27T08:52:17-07:00,6.0130059719086,3,versionC_stim.csv,READVersionC.csv,"Read Version C","Dissertation, read only version C",NEWS,EDITOR,Study1,B,10,39,Test,User,-,,Recall,Recall1,4513,EDITOR,100,1180,4305,1,1,,1
10104845FH,r1emwkx808,Nick_Dissertation_EX1,1,101,2020-09-27T08:52:22-07:00,4.9016160964966,3,versionC_stim.csv,READVersionC.csv,"Read Version C","Dissertation, read only version C",ROCK,GEOLOGY,Study1,B,19,53,Test,User,-,,Recall,Recall1,4263,,0,-1,-1,0,0,,1
10104845FH,r1emwkx808,Nick_Dissertation_EX1,1,102,2020-09-27T08:52:25-07:00,2.2855019569397,3,versionC_stim.csv,READVersionC.csv,"Read Version C","Dissertation, read only version C",FLOWER,ORCHID,Study1,B,24,80,Test,User,-,,Recall,Recall1,1866,ORCHID,100,925,1744,1,1,,1
10104845FH,r1emwkx808,Nick_Dissertation_EX1,1,103,2020-09-27T08:52:30-07:00,4.9761500358582,3,versionC_stim.csv,READVersionC.csv,"Read Version C","Dissertation, read only version C",WAR,REVOLUTION,Study1,B,20,83,Test,User,-,,Recall,Recall1,4541,REVOLUTION,100,1461,4259,1,1,,1
10104845FH,r1emwkx808,Nick_Dissertation_EX1,1,104,2020-09-27T08:52:35-07:00,5.2186069488525,3,versionC_stim.csv,READVersionC.csv,"Read Version C","Dissertation, read only version C",WASP,BUG,Study1,F,32,79,Test,User,-,,Recall,Recall1,4788,INSECT,0,2791,4187,0,0,,1
10104845FH,r1emwkx808,Nick_Dissertation_EX1,1,105,2020-09-27T08:52:38-07:00,2.6747570037842,3,versionC_stim.csv,READVersionC.csv,"Read Version C","Dissertation, read only version C",GROWTH,HEIGHT,Study1,F,30,86,Test,User,-,,Recall,Recall1,2059,HEIGHT,100,1205,1782,1,1,,1
10104845FH,r1emwkx808,Nick_Dissertation_EX1,1,106,2020-09-27T08:52:41-07:00,3.2425549030304,3,versionC_stim.csv,READVersionC.csv,"Read Version C","Dissertation, read only version C",FANTASTIC,GREAT,Study1,F,35,60,Test,User,-,,Recall,Recall1,2511,GREAT,100,1342,2301,1,1,,1
10104845FH,r1emwkx808,Nick_Dissertation_EX1,1,107,2020-09-27T08:52:44-07:00,2.9787831306458,3,versionC_stim.csv,READVersionC.csv,"Read Version C","Dissertation, read only version C",DROWSY,SLEEP,Study1,F,41,25,Test,User,-,,Recall,Recall1,2568,SLEEP,100,1728,2299,1,1,,1
10104845FH,r1emwkx808,Nick_Dissertation_EX1,1,108,2020-09-27T08:52:46-07:00,2.4634418487549,3,versionC_stim.csv,READVersionC.csv,"Read Version C","Dissertation, read only version C",STENCH,SMELL,Study1,F,42,26,Test,User,-,,Recall,Recall1,2053,SMELL,100,1116,1720,1,1,,1
10104845FH,r1emwkx808,Nick_Dissertation_EX1,1,109,2020-09-27T08:52:48-07:00,1.9908330440521,3,versionC_stim.csv,READVersionC.csv,"Read Version C","Dissertation, read only version C",BLAZE,FIRE,Study1,F,45,34,Test,User,-,,Recall,Recall1,1630,FIRE,100,1008,1464,1,1,,1
10104845FH,r1emwkx808,Nick_Dissertation_EX1,1,110,2020-09-27T08:52:52-07:00,3.8007700443268,3,versionC_stim.csv,READVersionC.csv,"Read Version C","Dissertation, read only version C",VASE,KING,Study1,U,85,65,Test,User,-,,Recall,Recall1,3358,KING,100,2782,3190,1,1,,1
10104845FH,r1emwkx808,Nick_Dissertation_EX1,1,111,2020-09-27T08:52:56-07:00,4.4172780513763,3,versionC_stim.csv,READVersionC.csv,"Read Version C","Dissertation, read only version C",BUSINESS,DEATH,Study1,U,72,38,Test,User,-,,Recall,Recall1,3893,,0,-1,-1,0,0,,1
10104845FH,r1emwkx808,Nick_Dissertation_EX1,1,112,2020-09-27T08:53:01-07:00,4.2132589817047,3,versionC_stim.csv,READVersionC.csv,"Read Version C","Dissertation, read only version C",CLEAN,HYGIENE,Study1,B,17,30,Test,User,-,,Recall,Recall1,3333,,0,-1,-1,0,0,,1
10104845FH,r1emwkx808,Nick_Dissertation_EX1,1,113,2020-09-27T08:53:07-07:00,6.5037839412689,3,versionC_stim.csv,READVersionC.csv,"Read Version C","Dissertation, read only version C",PILOT,PLANE,Study1,F,44,10,Test,User,-,,Recall,Recall1,5926,PLANE,100,1896,5788,1,1,,1
10104845FH,r1emwkx808,Nick_Dissertation_EX1,1,114,2020-09-27T08:53:11-07:00,3.4616510868073,3,versionC_stim.csv,READVersionC.csv,"Read Version C","Dissertation, read only version C",SITE,LOCATION,Study1,S,48,36,Test,User,-,,Recall,Recall1,2898,LOCATION,100,1690,2702,1,1,,1
10104845FH,r1emwkx808,Nick_Dissertation_EX1,1,115,2020-09-27T08:53:17-07:00,6.1170098781586,3,versionC_stim.csv,READVersionC.csv,"Read Version C","Dissertation, read only version C",DESIGN,ARCHITECTURE,Study1,S,51,73,Test,User,-,,Recall,Recall1,5342,ARCHICTECTURE,96,1168,5178,0,1,,1
10104845FH,r1emwkx808,Nick_Dissertation_EX1,1,116,2020-09-27T08:53:19-07:00,2.5614941120148,3,versionC_stim.csv,READVersionC.csv,"Read Version C","Dissertation, read only version C",HUNGRY,PARK,Study1,U,68,46,Test,User,-,,Recall,Recall1,1944,FAMINE,20,1058,1781,0,0,,1
10104845FH,r1emwkx808,Nick_Dissertation_EX1,1,117,2020-09-27T08:53:22-07:00,2.4502348899841,3,versionC_stim.csv,READVersionC.csv,"Read Version C","Dissertation, read only version C",BAR,GRILL,Study1,S,52,37,Test,User,-,,Recall,Recall1,1894,,0,-1,-1,0,0,,1
10104845FH,r1emwkx808,Nick_Dissertation_EX1,1,118,2020-09-27T08:53:27-07:00,5.1255519390106,3,versionC_stim.csv,READVersionC.csv,"Read Version C","Dissertation, read only version C",STOMACH,DIGESTION,Study1,B,7,40,Test,User,-,,Recall,Recall1,4483,DIGESTION,100,3014,4297,1,1,,1
10104845FH,r1emwkx808,Nick_Dissertation_EX1,1,119,2020-09-27T08:53:32-07:00,4.644727230072,3,versionC_stim.csv,READVersionC.csv,"Read Version C","Dissertation, read only version C",ATTORNEY,LAW,Study1,F,34,64,Test,User,-,,Recall,Recall1,4192,LAW,100,3702,4018,1,1,,1
10104845FH,r1emwkx808,Nick_Dissertation_EX1,1,120,2020-09-27T08:53:35-07:00,3.524493932724,3,versionC_stim.csv,READVersionC.csv,"Read Version C","Dissertation, read only version C",SACKING,DIETARY,Study1,U,67,15,Test,User,-,,Recall,Recall1,2946,,0,-1,-1,0,0,,1
10104845FH,r1emwkx808,Nick_Dissertation_EX1,1,121,2020-09-27T08:53:39-07:00,4.0408198833466,3,versionC_stim.csv,READVersionC.csv,"Read Version C","Dissertation, read only version C",BIRD,SWAN,Study1,B,14,54,Test,User,-,,Recall,Recall1,3278,SWAN,100,1823,3043,1,1,,1
10104845FH,r1emwkx808,Nick_Dissertation_EX1,1,122,2020-09-27T08:53:41-07:00,2.0432779788971,3,versionC_stim.csv,READVersionC.csv,"Read Version C","Dissertation, read only version C",DEFINITION,MEANING,Study1,S,62,48,Test,User,-,,Recall,Recall1,1633,,0,-1,-1,0,0,,1
10104845FH,r1emwkx808,Nick_Dissertation_EX1,1,123,2020-09-27T08:53:44-07:00,2.706864118576,3,versionC_stim.csv,READVersionC.csv,"Read Version C","Dissertation, read only version C",FISH,TUNA,Study1,B,25,44,Test,User,-,,Recall,Recall1,2241,TUNA,100,1622,2063,1,1,,1
10104845FH,r1emwkx808,Nick_Dissertation_EX1,1,124,2020-09-27T08:53:51-07:00,6.7728378772736,3,versionC_stim.csv,READVersionC.csv,"Read Version C","Dissertation, read only version C",COLD,BITTER,Study1,B,12,52,Test,User,-,,Recall,Recall1,6320,,0,-1,-1,0,0,,1
10104845FH,r1emwkx808,Nick_Dissertation_EX1,1,125,2020-09-27T08:53:54-07:00,3.3558411598206,3,versionC_stim.csv,READVersionC.csv,"Read Version C","Dissertation, read only version C",TALK,DISCUSSION,Study1,B,21,69,Test,User,-,,Recall,Recall1,2854,SHOW,28.571428571429,2252,2652,0,0,,1
10104845FH,r1emwkx808,Nick_Dissertation_EX1,1,126,2020-09-27T08:53:59-07:00,4.5508530139923,3,versionC_stim.csv,READVersionC.csv,"Read Version C","Dissertation, read only version C",SIGHT,DEBATE,Study1,U,73,19,Test,User,-,,Recall,Recall1,4007,,0,-1,-1,0,0,,1
10104845FH,r1emwkx808,Nick_Dissertation_EX1,1,127,2020-09-27T08:54:03-07:00,4.3198759555817,3,versionC_stim.csv,READVersionC.csv,"Read Version C","Dissertation, read only version C",STING,HORNET,Study1,B,11,16,Test,User,-,,Recall,Recall1,3838,WASP,0,1175,3563,0,0,,1
10104845FH,r1emwkx808,Nick_Dissertation_EX1,1,128,2020-09-27T08:54:09-07:00,6.3346340656281,3,versionC_stim.csv,READVersionC.csv,"Read Version C","Dissertation, read only version C",BAD,DELINQUENT,Study1,B,6,59,Test,User,-,,Recall,Recall1,5727,DELINQUENT,100,3720,5476,1,1,,1
10104845FH,r1emwkx808,Nick_Dissertation_EX1,1,129,2020-09-27T08:54:15-07:00,5.7051680088043,3,versionC_stim.csv,READVersionC.csv,"Read Version C","Dissertation, read only version C",CLUTTER,PUSHER,Study1,U,66,23,Test,User,-,,Recall,Recall1,5270,CHAOS,18.181818181818,2245,4189,0,0,,1
10104845FH,r1emwkx808,Nick_Dissertation_EX1,1,130,2020-09-27T08:54:21-07:00,5.8910567760468,3,versionC_stim.csv,READVersionC.csv,"Read Version C","Dissertation, read only version C",BEE,HONEY,Study1,S,63,32,Test,User,-,,Recall,Recall1,5332,INSECT,36.363636363636,4082,5146,0,0,,1
10104845FH,r1emwkx808,Nick_Dissertation_EX1,1,131,2020-09-27T08:54:30-07:00,9.25186419487,3,versionC_stim.csv,READVersionC.csv,"Read Version C","Dissertation, read only version C",JURY,TRIAL,Study1,S,50,49,Test,User,-,,Recall,Recall1,8778,TRIAL,100,7878,8550,1,1,,1
10104845FH,r1emwkx808,Nick_Dissertation_EX1,1,132,2020-09-27T08:54:33-07:00,3.1610929965973,3,versionC_stim.csv,READVersionC.csv,"Read Version C","Dissertation, read only version C",SEIZE,TAKE,Study1,F,29,47,Test,User,-,,Recall,Recall1,2621,TAKE,100,2030,2459,1,1,,1
10104845FH,r1emwkx808,Nick_Dissertation_EX1,1,133,2020-09-27T08:54:36-07:00,2.4607999324799,3,versionC_stim.csv,READVersionC.csv,"Read Version C","Dissertation, read only version C",POSITION,MACHINE,Study1,U,76,22,Test,User,-,,Recall,Recall1,1941,,0,-1,-1,0,0,,1
10104845FH,r1emwkx808,Nick_Dissertation_EX1,1,134,2020-09-27T08:54:38-07:00,2.105544090271,3,versionC_stim.csv,READVersionC.csv,"Read Version C","Dissertation, read only version C",FUTURE,PAST,Study1,S,61,13,Test,User,-,,Recall,Recall1,1663,,0,-1,-1,0,0,,1
10104845FH,r1emwkx808,Nick_Dissertation_EX1,1,135,2020-09-27T08:54:40-07:00,2.3994798660278,3,versionC_stim.csv,READVersionC.csv,"Read Version C","Dissertation, read only version C",END,BEGIN,Study1,S,54,67,Test,User,-,,Recall,Recall1,1859,,0,-1,-1,0,0,,1
10104845FH,r1emwkx808,Nick_Dissertation_EX1,1,136,2020-09-27T08:54:44-07:00,3.4938440322876,3,versionC_stim.csv,READVersionC.csv,"Read Version C","Dissertation, read only version C",TOILET,BATHROOM,Study1,S,58,51,Test,User,-,,Recall,Recall1,2935,,0,-1,-1,0,0,,1
10104845FH,r1emwkx808,Nick_Dissertation_EX1,1,137,2020-09-27T08:54:47-07:00,2.8706710338593,3,versionC_stim.csv,READVersionC.csv,"Read Version C","Dissertation, read only version C",OUT,WAY,Study1,B,16,81,Test,User,-,,Recall,Recall1,2461,,0,-1,-1,0,0,,1
10104845FH,r1emwkx808,Nick_Dissertation_EX1,1,138,2020-09-27T08:54:50-07:00,3.1894860267639,3,versionC_stim.csv,READVersionC.csv,"Read Version C","Dissertation, read only version C",WOULD,CASH,Study1,U,83,75,Test,User,-,,Recall,Recall1,2773,DIE,0,2404,2612,0,0,,1
10104845FH,r1emwkx808,Nick_Dissertation_EX1,1,139,2020-09-27T08:54:52-07:00,2.4913809299469,3,versionC_stim.csv,READVersionC.csv,"Read Version C","Dissertation, read only version C",CHEESE,WINE,Study1,S,57,61,Test,User,-,,Recall,Recall1,2042,WINE,100,1451,1871,1,1,,1
10104845FH,r1emwkx808,Nick_Dissertation_EX1,1,140,2020-09-27T08:54:57-07:00,5.0255889892578,3,versionC_stim.csv,READVersionC.csv,"Read Version C","Dissertation, read only version C",ACCIDENT,STRONG,Study1,U,80,78,Test,User,-,,Recall,Recall1,4506,,0,-1,-1,0,0,,1
10104845FH,r1emwkx808,Nick_Dissertation_EX1,1,141,2020-09-27T08:55:00-07:00,2.739953994751,3,versionC_stim.csv,READVersionC.csv,"Read Version C","Dissertation, read only version C",FAMINE,HUNGER,Study1,F,40,24,Test,User,-,,Recall,Recall1,2197,HUNGER,100,971,1915,1,1,,1
10104845FH,r1emwkx808,Nick_Dissertation_EX1,1,142,2020-09-27T08:55:03-07:00,2.6250140666962,3,versionC_stim.csv,READVersionC.csv,"Read Version C","Dissertation, read only version C",BELT,SOON,Study1,U,70,20,Test,User,-,,Recall,Recall1,2182,SOON,100,1549,1985,1,1,,1
10104845FH,r1emwkx808,Nick_Dissertation_EX1,1,143,2020-09-27T08:55:05-07:00,2.4117450714111,3,versionC_stim.csv,READVersionC.csv,"Read Version C","Dissertation, read only version C",DIVISION,MATH,Study1,F,33,74,Test,User,-,,Recall,Recall1,1727,MATH,100,1158,1508,1,1,,1
10104845FH,r1emwkx808,Nick_Dissertation_EX1,1,144,2020-09-27T08:55:10-07:00,5.1013939380646,3,versionC_stim.csv,READVersionC.csv,"Read Version C","Dissertation, read only version C",WORD,SENTENCE,Study1,F,31,76,Test,User,-,,Recall,Recall1,4522,,0,-1,-1,0,0,,1
10104845FH,r1emwkx808,Nick_Dissertation_EX1,1,145,2020-09-27T08:55:13-07:00,3.280483007431,3,versionC_stim.csv,READVersionC.csv,"Read Version C","Dissertation, read only version C",CAR,HAPPY,Study1,U,77,84,Test,User,-,,Recall,Recall1,2371,HAPPY,100,1536,2140,1,1,,1
10104845FH,r1emwkx808,Nick_Dissertation_EX1,1,146,2020-09-27T08:55:16-07:00,2.6094288825989,3,versionC_stim.csv,READVersionC.csv,"Read Version C","Dissertation, read only version C",ENOUGH,FULL,Study1,F,26,21,Test,User,-,,Recall,Recall1,2194,FULL,100,1496,2015,1,1,,1
10104845FH,r1emwkx808,Nick_Dissertation_EX1,1,147,2020-09-27T08:55:18-07:00,2.225075006485,3,versionC_stim.csv,READVersionC.csv,"Read Version C","Dissertation, read only version C",FOOT,SHOE,Study1,S,60,8,Test,User,-,,Recall,Recall1,1810,SHOE,100,1272,1622,1,1,,1
10104845FH,r1emwkx808,Nick_Dissertation_EX1,1,148,2020-09-27T08:55:21-07:00,2.7917439937592,3,versionC_stim.csv,READVersionC.csv,"Read Version C","Dissertation, read only version C",ROUND,CIRCLE,Study1,S,65,14,Test,User,-,,Recall,Recall1,2356,CIRCLE,100,1297,2178,1,1,,1
10104845FH,r1emwkx808,Nick_Dissertation_EX1,1,149,2020-09-27T08:55:23-07:00,2.4692251682281,3,versionC_stim.csv,READVersionC.csv,"Read Version C","Dissertation, read only version C",COW,HERD,Study1,B,22,72,Test,User,-,,Recall,Recall1,2033,HERD,100,1319,1845,1,1,,1
10104845FH,r1emwkx808,Nick_Dissertation_EX1,1,150,2020-09-27T08:55:27-07:00,3.7298548221588,3,versionC_stim.csv,READVersionC.csv,"Read Version C","Dissertation, read only version C",MONEY,WAGE,Study1,B,8,55,Test,User,-,,Recall,Recall1,3090,DOLLAR,20,2302,2911,0,0,,1
10104845FH,r1emwkx808,Nick_Dissertation_EX1,1,151,2020-09-27T08:55:29-07:00,2.1612920761108,3,versionC_stim.csv,READVersionC.csv,"Read Version C","Dissertation, read only version C",DOG,PAW,Study1,B,15,71,Test,User,-,,Recall,Recall1,1629,PAW,100,1125,1430,1,1,,1
10104845FH,r1emwkx808,Nick_Dissertation_EX1,1,152,2020-09-27T08:55:32-07:00,2.942745923996,3,versionC_stim.csv,READVersionC.csv,"Read Version C","Dissertation, read only version C",RACKET,BALL,Study1,F,38,29,Test,User,-,,Recall,Recall1,2259,TENNIS,0,1173,1967,0,0,,1
10104845FH,r1emwkx808,Nick_Dissertation_EX1,1,153,2020-09-27T08:55:35-07:00,2.3764460086823,3,versionC_stim.csv,READVersionC.csv,"Read Version C","Dissertation, read only version C",ADD,VALLEY,Study1,U,82,57,Test,User,-,,Recall,Recall1,1996,MATH,20,1208,1746,0,0,,1
10104845FH,r1emwkx808,Nick_Dissertation_EX1,1,154,2020-09-27T08:55:37-07:00,2.0553619861603,3,versionC_stim.csv,READVersionC.csv,"Read Version C","Dissertation, read only version C",LATCH,KEY,Study1,F,36,43,Test,User,-,,Recall,Recall1,1589,KEY,100,1113,1358,1,1,,1
10104845FH,r1emwkx808,Nick_Dissertation_EX1,1,155,2020-09-27T08:55:42-07:00,5.4776921272278,3,versionC_stim.csv,READVersionC.csv,"Read Version C","Dissertation, read only version C",WASTE,DUMP,Study1,S,49,50,Test,User,-,,Recall,Recall1,4843,TRASH,0,3880,4585,0,0,,1
10104845FH,r1emwkx808,Nick_Dissertation_EX1,1,156,2020-09-27T08:55:45-07:00,3.2292809486389,3,versionC_stim.csv,READVersionC.csv,"Read Version C","Dissertation, read only version C",SICK,HIDE,Study1,U,84,62,Test,User,-,,Recall,Recall1,2657,,0,-1,-1,0,0,,1
10104845FH,r1emwkx808,Nick_Dissertation_EX1,1,157,2020-09-27T08:55:48-07:00,2.530492067337,3,versionC_stim.csv,READVersionC.csv,"Read Version C","Dissertation, read only version C",SODA,POP,Study1,S,56,11,Test,User,-,,Recall,Recall1,2025,PO[,66.666666666667,1349,1772,0,0,,1
10104845FH,r1emwkx808,Nick_Dissertation_EX1,1,158,2020-09-27T08:55:52-07:00,3.7246968746185,3,versionC_stim.csv,READVersionC.csv,"Read Version C","Dissertation, read only version C",FLOOR,DISCOVER,Study1,U,71,66,Test,User,-,,Recall,Recall1,3229,,0,-1,-1,0,0,,1
10104845FH,r1emwkx808,Nick_Dissertation_EX1,1,159,2020-09-27T08:55:55-07:00,3.1761181354523,3,versionC_stim.csv,READVersionC.csv,"Read Version C","Dissertation, read only version C",CHILI,HOT,Study1,F,37,28,Test,User,-,,Recall,Recall1,2661,HOT,100,2096,2408,1,1,,1
10104845FH,r1emwkx808,Nick_Dissertation_EX1,1,160,2020-09-27T08:55:57-07:00,2.2165758609772,3,versionC_stim.csv,READVersionC.csv,"Read Version C","Dissertation, read only version C",CHILD,BABY,Study1,S,64,68,Test,User,-,,Recall,Recall1,1750,BABY,100,1096,1510,1,1,,1
10104845FH,r1emwkx808,Nick_Dissertation_EX1,1,161,2020-09-27T08:56:00-07:00,3.0020401477814,3,versionC_stim.csv,READVersionC.csv,"Read Version C","Dissertation, read only version C",SALAD,LETTUCE,Study1,S,59,41,Test,User,-,,Recall,Recall1,2544,LETTUCE,100,1350,2365,1,1,,1
10104845FH,r1emwkx808,Nick_Dissertation_EX1,1,162,2020-09-27T08:56:02-07:00,2.4067149162292,3,versionC_stim.csv,READVersionC.csv,"Read Version C","Dissertation, read only version C",TUCK,ALLOW,Study1,U,78,12,Test,User,-,,Recall,Recall1,1976,ROLL,44.444444444444,1329,1797,0,0,,1
10104845FH,r1emwkx808,Nick_Dissertation_EX1,1,163,2020-09-27T08:56:07-07:00,4.2488760948181,3,versionC_stim.csv,READVersionC.csv,"Read Version C","Dissertation, read only version C",AMOUNT,NUMBER,Study1,S,47,70,Test,User,-,,Recall,Recall1,3736,MONEY,36.363636363636,2922,3501,0,0,,1
10104845FH,r1emwkx808,Nick_Dissertation_EX1,1,164,2020-09-27T08:56:11-07:00,3.7873539924622,3,versionC_stim.csv,READVersionC.csv,"Read Version C","Dissertation, read only version C",HAND,FIX,Study1,U,75,33,Test,User,-,,Recall,Recall1,3283,,0,-1,-1,0,0,,1
10104845FH,r1emwkx808,Nick_Dissertation_EX1,1,165,2020-09-27T08:56:15-07:00,4.0175518989563,3,versionC_stim.csv,READVersionC.csv,"Read Version C","Dissertation, read only version C",CHORE,WORK,Study1,F,39,85,Test,User,-,,Recall,Recall1,3580,JOB,28.571428571429,1661,3204,0,0,,1
10104845FH,r1emwkx808,Nick_Dissertation_EX1,1,166,2020-09-27T08:56:19-07:00,4.5881171226501,3,versionC_stim.csv,READVersionC.csv,"Read Version C","Dissertation, read only version C",SIP,DRINK,Study1,F,27,56,Test,User,-,,Recall,Recall1,4098,DRINK,100,3168,3894,1,1,,1
10104845FH,r1emwkx808,Nick_Dissertation_EX1,1,167,2020-09-27T08:56:25-07:00,5.7973549365997,3,versionC_stim.csv,READVersionC.csv,"Read Version C","Dissertation, read only version C",BRONZE,ARTERY,Study1,U,74,27,Test,User,-,,Recall,Recall1,5286,HEAT,20,4616,5065,0,0,,1
10104845FH,r1emwkx808,Nick_Dissertation_EX1,1,168,2020-09-27T08:56:28-07:00,3.3961539268494,3,versionC_stim.csv,READVersionC.csv,"Read Version C","Dissertation, read only version C",WATER,BRIDGE,Study1,B,18,35,Test,User,-,,Recall,Recall1,2946,,0,-1,-1,0,0,,1
10104845FH,r1emwkx808,Nick_Dissertation_EX1,1,169,2020-09-27T08:56:31-07:00,3.0465190410614,3,versionC_stim.csv,READVersionC.csv,"Read Version C","Dissertation, read only version C",ATTIRE,CLOTHES,Study1,F,43,58,Test,User,-,,Recall,Recall1,2572,CLOTHES,100,1072,2399,1,1,,1
10104845FH,r1emwkx808,Nick_Dissertation_EX1,1,170,2020-09-27T08:56:34-07:00,2.8699090480804,3,versionC_stim.csv,READVersionC.csv,"Read Version C","Dissertation, read only version C",ASSIGNMENT,DUE,Study1,S,46,77,Test,User,-,,Recall,Recall1,2371,DUE,100,1972,2192,1,1,,1
10104845FH,r1emwkx808,Nick_Dissertation_EX1,1,171,2020-09-27T08:56:36-07:00,2.2432448863983,3,versionC_stim.csv,READVersionC.csv,"Read Version C","Dissertation, read only version C",WIND,BLOW,Study1,S,55,17,Test,User,-,,Recall,Recall1,1693,BLOW,100,1081,1494,1,1,,1
10104845FH,r1emwkx808,Nick_Dissertation_EX1,1,172,2020-09-27T08:56:39-07:00,2.7759721279144,3,versionC_stim.csv,READVersionC.csv,"Read Version C","Dissertation, read only version C",LIVER,KIDNEY,Study1,S,53,42,Test,User,-,,Recall,Recall1,2155,KIDNEY,100,1039,1944,1,1,,1
10104845FH,r1emwkx808,Nick_Dissertation_EX1,1,173,2020-09-27T08:56:42-07:00,2.2621529102325,3,versionC_stim.csv,READVersionC.csv,"Read Version C","Dissertation, read only version C",RIDDLE,SUGAR,Study1,U,81,31,Test,User,-,,Recall,Recall1,1758,,0,-1,-1,0,0,,1
10104845FH,r1emwkx808,Nick_Dissertation_EX1,1,174,2020-09-27T08:56:45-07:00,3.6465311050415,3,versionC_stim.csv,READVersionC.csv,"Read Version C","Dissertation, read only version C",LION,ART,Study1,U,79,18,Test,User,-,,Recall,Recall1,3022,,0,-1,-1,0,0,,1
10104845FH,r1emwkx808,Nick_Dissertation_EX1,1,175,2020-09-27T08:56:58-07:00,12.753438949585,3,versionC_stim.csv,READVersionC.csv,"Read Version C","Dissertation, read only version C",,,,,,0,Instruct,-,10,"You will now be presented with a new set of word pairs. Please study each pair. Remember that your memory will be tested! When finished, press Enter to move to the next pair.",Initial_Instruct,Instruct4,12204,,,-1,-1,,,,1
10104845FH,r1emwkx808,Nick_Dissertation_EX1,1,176,2020-09-27T08:57:13-07:00,15.147152900696,3,versionC_stim.csv,READVersionC.csv,"Read Version C","Dissertation, read only version C",ADVENTURE,CAMP,BUFFER3,Buffer,95,94,Study,User,-,,Study/JOL,BUFFER3,14448,,,-1,-1,,,,1
10104845FH,r1emwkx808,Nick_Dissertation_EX1,1,177,2020-09-27T08:57:24-07:00,10.904023170471,3,versionC_stim.csv,READVersionC.csv,"Read Version C","Dissertation, read only version C",STRING,NOODLE,BUFFER3,Buffer,92,93,Study,User,-,,Study/JOL,BUFFER3,10017,,,-1,-1,,,,1
10104845FH,r1emwkx808,Nick_Dissertation_EX1,1,178,2020-09-27T08:57:35-07:00,10.667398929596,3,versionC_stim.csv,READVersionC.csv,"Read Version C","Dissertation, read only version C",FISH,SHRIMP,BUFFER3,Buffer,93,92,Study,User,-,,Study/JOL,BUFFER3,9896,,,-1,-1,,,,1
10104845FH,r1emwkx808,Nick_Dissertation_EX1,1,179,2020-09-27T08:57:48-07:00,13.485331058502,3,versionC_stim.csv,READVersionC.csv,"Read Version C","Dissertation, read only version C",POTATO,CARROT,BUFFER3,Buffer,91,95,Study,User,-,,Study/JOL,BUFFER3,12857,,,-1,-1,,,,1
10104845FH,r1emwkx808,Nick_Dissertation_EX1,1,180,2020-09-27T08:57:59-07:00,10.377593994141,3,versionC_stim.csv,READVersionC.csv,"Read Version C","Dissertation, read only version C",FROZEN,ICE,BUFFER3,Buffer,94,96,Study,User,-,,Study/JOL,BUFFER3,9674,,,-1,-1,,,,1
10104845FH,r1emwkx808,Nick_Dissertation_EX1,1,181,2020-09-27T08:58:08-07:00,9.489403963089,3,versionC_stim.csv,READVersionC.csv,"Read Version C","Dissertation, read only version C",DONKEY,MULE,Study2,B,108,142,Study,User,-,,Study/JOL,"Study Phase2",8673,,,-1,-1,,,,1
10104845FH,r1emwkx808,Nick_Dissertation_EX1,1,182,2020-09-27T08:58:16-07:00,7.8409669399261,3,versionC_stim.csv,READVersionC.csv,"Read Version C","Dissertation, read only version C",LONELY,ALONE,Study2,S,145,132,Study,User,-,,Study/JOL,"Study Phase2",7293,,,-1,-1,,,,1
10104845FH,r1emwkx808,Nick_Dissertation_EX1,1,183,2020-09-27T08:58:22-07:00,6.43084192276,3,versionC_stim.csv,READVersionC.csv,"Read Version C","Dissertation, read only version C",CARBON,ELEMENT,Study2,S,141,118,Study,User,-,,Study/JOL,"Study Phase2",5954,,,-1,-1,,,,1
10104845FH,r1emwkx808,Nick_Dissertation_EX1,1,184,2020-09-27T08:58:28-07:00,5.8951959609985,3,versionC_stim.csv,READVersionC.csv,"Read Version C","Dissertation, read only version C",LOVE,AFFECTION,Study2,B,115,162,Study,User,-,,Study/JOL,"Study Phase2",5408,,,-1,-1,,,,1
10104845FH,r1emwkx808,Nick_Dissertation_EX1,1,185,2020-09-27T08:58:36-07:00,7.5531580448151,3,versionC_stim.csv,READVersionC.csv,"Read Version C","Dissertation, read only version C",SIGN,LOAN,Study2,U,171,150,Study,User,-,,Study/JOL,"Study Phase2",7027,,,-1,-1,,,,1
10104845FH,r1emwkx808,Nick_Dissertation_EX1,1,186,2020-09-27T08:58:43-07:00,6.9065721035004,3,versionC_stim.csv,READVersionC.csv,"Read Version C","Dissertation, read only version C",LEAGUE,BASEBALL,Study2,F,131,109,Study,User,-,,Study/JOL,"Study Phase2",6450,,,-1,-1,,,,1
10104845FH,r1emwkx808,Nick_Dissertation_EX1,1,187,2020-09-27T08:58:51-07:00,8.0510060787201,3,versionC_stim.csv,READVersionC.csv,"Read Version C","Dissertation, read only version C",PENGUIN,BIRD,Study2,F,119,155,Study,User,-,,Study/JOL,"Study Phase2",7370,,,-1,-1,,,,1
10104845FH,r1emwkx808,Nick_Dissertation_EX1,1,188,2020-09-27T08:58:56-07:00,4.8338618278503,3,versionC_stim.csv,READVersionC.csv,"Read Version C","Dissertation, read only version C",AIRCRAFT,PLANE,Study2,F,129,114,Study,User,-,,Study/JOL,"Study Phase2",4253,,,-1,-1,,,,1
10104845FH,r1emwkx808,Nick_Dissertation_EX1,1,189,2020-09-27T08:59:00-07:00,4.8849740028381,3,versionC_stim.csv,READVersionC.csv,"Read Version C","Dissertation, read only version C",HATE,NAME,Study2,U,167,149,Study,User,-,,Study/JOL,"Study Phase2",4435,,,-1,-1,,,,1
10104845FH,r1emwkx808,Nick_Dissertation_EX1,1,190,2020-09-27T08:59:08-07:00,7.4798209667206,3,versionC_stim.csv,READVersionC.csv,"Read Version C","Dissertation, read only version C",CHILDREN,MIRROR,Study2,U,174,139,Study,User,-,,Study/JOL,"Study Phase2",6851,,,-1,-1,,,,1
10104845FH,r1emwkx808,Nick_Dissertation_EX1,1,191,2020-09-27T08:59:11-07:00,3.0690500736237,3,versionC_stim.csv,READVersionC.csv,"Read Version C","Dissertation, read only version C",AWAY,GONE,Study2,S,142,113,Study,User,-,,Study/JOL,"Study Phase2",2443,,,-1,-1,,,,1
10104845FH,r1emwkx808,Nick_Dissertation_EX1,1,192,2020-09-27T08:59:14-07:00,2.8652229309082,3,versionC_stim.csv,READVersionC.csv,"Read Version C","Dissertation, read only version C",FIGHT,FEUD,Study2,B,113,165,Study,User,-,,Study/JOL,"Study Phase2",2398,,,-1,-1,,,,1
10104845FH,r1emwkx808,Nick_Dissertation_EX1,1,193,2020-09-27T08:59:19-07:00,5.3662071228027,3,versionC_stim.csv,READVersionC.csv,"Read Version C","Dissertation, read only version C",JOKE,KEYS,Study2,U,165,135,Study,User,-,,Study/JOL,"Study Phase2",4672,,,-1,-1,,,,1
10104845FH,r1emwkx808,Nick_Dissertation_EX1,1,194,2020-09-27T08:59:28-07:00,8.360995054245,3,versionC_stim.csv,READVersionC.csv,"Read Version C","Dissertation, read only version C",SMELL,INCENSE,Study2,B,110,122,Study,User,-,,Study/JOL,"Study Phase2",7803,,,-1,-1,,,,1
10104845FH,r1emwkx808,Nick_Dissertation_EX1,1,195,2020-09-27T08:59:33-07:00,5.0298309326172,3,versionC_stim.csv,READVersionC.csv,"Read Version C","Dissertation, read only version C",TICK,FLEA,Study2,S,151,104,Study,User,-,,Study/JOL,"Study Phase2",4607,,,-1,-1,,,,1
10104845FH,r1emwkx808,Nick_Dissertation_EX1,1,196,2020-09-27T08:59:37-07:00,4.1745920181274,3,versionC_stim.csv,READVersionC.csv,"Read Version C","Dissertation, read only version C",WET,DRY,Study2,S,146,121,Study,User,-,,Study/JOL,"Study Phase2",3663,,,-1,-1,,,,1
10104845FH,r1emwkx808,Nick_Dissertation_EX1,1,197,2020-09-27T08:59:39-07:00,2.6920840740204,3,versionC_stim.csv,READVersionC.csv,"Read Version C","Dissertation, read only version C",EQUAL,RIGHTS,Study2,S,137,125,Study,User,-,,Study/JOL,"Study Phase2",2170,,,-1,-1,,,,1
10104845FH,r1emwkx808,Nick_Dissertation_EX1,1,198,2020-09-27T08:59:44-07:00,4.0750498771667,3,versionC_stim.csv,READVersionC.csv,"Read Version C","Dissertation, read only version C",FLIP,TURN,Study2,F,116,130,Study,User,-,,Study/JOL,"Study Phase2",3366,,,-1,-1,,,,1
10104845FH,r1emwkx808,Nick_Dissertation_EX1,1,199,2020-09-27T08:59:49-07:00,5.3028159141541,3,versionC_stim.csv,READVersionC.csv,"Read Version C","Dissertation, read only version C",OUNCE,BOTH,Study2,U,172,99,Study,User,-,,Study/JOL,"Study Phase2",4838,,,-1,-1,,,,1
10104845FH,r1emwkx808,Nick_Dissertation_EX1,1,200,2020-09-27T08:59:52-07:00,3.6697950363159,3,versionC_stim.csv,READVersionC.csv,"Read Version C","Dissertation, read only version C",STEAK,GIVE,Study2,U,158,138,Study,User,-,,Study/JOL,"Study Phase2",2709,,,-1,-1,,,,1
10104845FH,r1emwkx808,Nick_Dissertation_EX1,1,201,2020-09-27T08:59:57-07:00,4.0431051254272,3,versionC_stim.csv,READVersionC.csv,"Read Version C","Dissertation, read only version C",CAR,DRIVER,Study2,B,106,100,Study,User,-,,Study/JOL,"Study Phase2",3528,,,-1,-1,,,,1
10104845FH,r1emwkx808,Nick_Dissertation_EX1,1,202,2020-09-27T09:00:04-07:00,7.3663618564606,3,versionC_stim.csv,READVersionC.csv,"Read Version C","Dissertation, read only version C",BRAWL,FIGHT,Study2,F,135,154,Study,User,-,,Study/JOL,"Study Phase2",6693,,,-1,-1,,,,1
10104845FH,r1emwkx808,Nick_Dissertation_EX1,1,203,2020-09-27T09:00:14-07:00,10.078835010529,3,versionC_stim.csv,READVersionC.csv,"Read Version C","Dissertation, read only version C",PANTHER,CAT,Study2,F,126,163,Study,User,-,,Study/JOL,"Study Phase2",9638,,,-1,-1,,,,1
10104845FH,r1emwkx808,Nick_Dissertation_EX1,1,204,2020-09-27T09:00:21-07:00,6.8252921104431,3,versionC_stim.csv,READVersionC.csv,"Read Version C","Dissertation, read only version C",CLOTH,STRETCH,Study2,U,157,136,Study,User,-,,Study/JOL,"Study Phase2",6378,,,-1,-1,,,,1
10104845FH,r1emwkx808,Nick_Dissertation_EX1,1,205,2020-09-27T09:00:24-07:00,3.5711228847504,3,versionC_stim.csv,READVersionC.csv,"Read Version C","Dissertation, read only version C",COLD,CHILL,Study2,B,114,110,Study,User,-,,Study/JOL,"Study Phase2",2959,,,-1,-1,,,,1
10104845FH,r1emwkx808,Nick_Dissertation_EX1,1,206,2020-09-27T09:00:30-07:00,5.2806639671326,3,versionC_stim.csv,READVersionC.csv,"Read Version C","Dissertation, read only version C",DOG,FURRY,Study2,B,102,151,Study,User,-,,Study/JOL,"Study Phase2",4787,,,-1,-1,,,,1
10104845FH,r1emwkx808,Nick_Dissertation_EX1,1,207,2020-09-27T09:00:34-07:00,4.8485291004181,3,versionC_stim.csv,READVersionC.csv,"Read Version C","Dissertation, read only version C",HAVE,OWN,Study2,S,153,141,Study,User,-,,Study/JOL,"Study Phase2",4308,,,-1,-1,,,,1
10104845FH,r1emwkx808,Nick_Dissertation_EX1,1,208,2020-09-27T09:00:42-07:00,7.4511389732361,3,versionC_stim.csv,READVersionC.csv,"Read Version C","Dissertation, read only version C",TRASH,LITTER,Study2,B,103,152,Study,User,-,,Study/JOL,"Study Phase2",6915,,,-1,-1,,,,1
10104845FH,r1emwkx808,Nick_Dissertation_EX1,1,209,2020-09-27T09:00:46-07:00,4.0195870399475,3,versionC_stim.csv,READVersionC.csv,"Read Version C","Dissertation, read only version C",ABLE,CRACKLE,Study2,U,162,175,Study,User,-,,Study/JOL,"Study Phase2",3394,,,-1,-1,,,,1
10104845FH,r1emwkx808,Nick_Dissertation_EX1,1,210,2020-09-27T09:00:50-07:00,3.6802508831024,3,versionC_stim.csv,READVersionC.csv,"Read Version C","Dissertation, read only version C",REVENGE,EVEN,Study2,F,122,140,Study,User,-,,Study/JOL,"Study Phase2",3153,,,-1,-1,,,,1
10104845FH,r1emwkx808,Nick_Dissertation_EX1,1,211,2020-09-27T09:00:52-07:00,2.4591422080994,3,versionC_stim.csv,READVersionC.csv,"Read Version C","Dissertation, read only version C",NOISE,LOUD,Study2,S,152,112,Study,User,-,,Study/JOL,"Study Phase2",1741,,,-1,-1,,,,1
10104845FH,r1emwkx808,Nick_Dissertation_EX1,1,212,2020-09-27T09:00:54-07:00,2.2506749629974,3,versionC_stim.csv,READVersionC.csv,"Read Version C","Dissertation, read only version C",WAX,CANDLE,Study2,S,139,158,Study,User,-,,Study/JOL,"Study Phase2",1670,,,-1,-1,,,,1
10104845FH,r1emwkx808,Nick_Dissertation_EX1,1,213,2020-09-27T09:00:56-07:00,2.0595059394836,3,versionC_stim.csv,READVersionC.csv,"Read Version C","Dissertation, read only version C",TAN,SUN,Study2,S,155,148,Study,User,-,,Study/JOL,"Study Phase2",1513,,,-1,-1,,,,1
10104845FH,r1emwkx808,Nick_Dissertation_EX1,1,214,2020-09-27T09:01:00-07:00,3.8347599506378,3,versionC_stim.csv,READVersionC.csv,"Read Version C","Dissertation, read only version C",FICTION,LISTEN,Study2,U,164,133,Study,User,-,,Study/JOL,"Study Phase2",3120,,,-1,-1,,,,1
10104845FH,r1emwkx808,Nick_Dissertation_EX1,1,215,2020-09-27T09:01:03-07:00,2.8766901493073,3,versionC_stim.csv,READVersionC.csv,"Read Version C","Dissertation, read only version C",LIE,TRUTH,Study2,S,148,120,Study,User,-,,Study/JOL,"Study Phase2",2361,,,-1,-1,,,,1
10104845FH,r1emwkx808,Nick_Dissertation_EX1,1,216,2020-09-27T09:01:05-07:00,2.1172239780426,3,versionC_stim.csv,READVersionC.csv,"Read Version C","Dissertation, read only version C",DRINK,WATER,Study2,S,143,101,Study,User,-,,Study/JOL,"Study Phase2",1656,,,-1,-1,,,,1
10104845FH,r1emwkx808,Nick_Dissertation_EX1,1,217,2020-09-27T09:01:08-07:00,2.8951449394226,3,versionC_stim.csv,READVersionC.csv,"Read Version C","Dissertation, read only version C",SCISSORS,SHEARS,Study2,B,112,161,Study,User,-,,Study/JOL,"Study Phase2",2247,,,-1,-1,,,,1
10104845FH,r1emwkx808,Nick_Dissertation_EX1,1,218,2020-09-27T09:01:11-07:00,2.7761490345001,3,versionC_stim.csv,READVersionC.csv,"Read Version C","Dissertation, read only version C",VILLAIN,BAD,Study2,F,118,146,Study,User,-,,Study/JOL,"Study Phase2",1992,,,-1,-1,,,,1
10104845FH,r1emwkx808,Nick_Dissertation_EX1,1,219,2020-09-27T09:01:13-07:00,2.5442788600922,3,versionC_stim.csv,READVersionC.csv,"Read Version C","Dissertation, read only version C",BANKER,MONEY,Study2,F,132,173,Study,User,-,,Study/JOL,"Study Phase2",2067,,,-1,-1,,,,1
10104845FH,r1emwkx808,Nick_Dissertation_EX1,1,220,2020-09-27T09:01:18-07:00,4.0743250846863,3,versionC_stim.csv,READVersionC.csv,"Read Version C","Dissertation, read only version C",PLANT,CACTUS,Study2,B,98,143,Study,User,-,,Study/JOL,"Study Phase2",3316,,,-1,-1,,,,1
10104845FH,r1emwkx808,Nick_Dissertation_EX1,1,221,2020-09-27T09:01:20-07:00,2.9570579528809,3,versionC_stim.csv,READVersionC.csv,"Read Version C","Dissertation, read only version C",TEMPER,TANTRUM,Study2,S,154,108,Study,User,-,,Study/JOL,"Study Phase2",2422,,,-1,-1,,,,1
10104845FH,r1emwkx808,Nick_Dissertation_EX1,1,222,2020-09-27T09:01:23-07:00,2.6925239562988,3,versionC_stim.csv,READVersionC.csv,"Read Version C","Dissertation, read only version C",Morning,TEMPERATURE,Study2,U,173,169,Study,User,-,,Study/JOL,"Study Phase2",1983,,,-1,-1,,,,1
10104845FH,r1emwkx808,Nick_Dissertation_EX1,1,223,2020-09-27T09:01:27-07:00,3.5476980209351,3,versionC_stim.csv,READVersionC.csv,"Read Version C","Dissertation, read only version C",BREAKABLE,GLASS,Study2,F,127,160,Study,User,-,,Study/JOL,"Study Phase2",2742,,,-1,-1,,,,1
10104845FH,r1emwkx808,Nick_Dissertation_EX1,1,224,2020-09-27T09:01:29-07:00,2.7046749591827,3,versionC_stim.csv,READVersionC.csv,"Read Version C","Dissertation, read only version C",THIMBLE,THREAD,Study2,F,121,111,Study,User,-,,Study/JOL,"Study Phase2",1887,,,-1,-1,,,,1
10104845FH,r1emwkx808,Nick_Dissertation_EX1,1,225,2020-09-27T09:01:31-07:00,1.8148281574249,3,versionC_stim.csv,READVersionC.csv,"Read Version C","Dissertation, read only version C",HEAD,SCALP,Study2,B,105,103,Study,User,-,,Study/JOL,"Study Phase2",1378,,,-1,-1,,,,1
10104845FH,r1emwkx808,Nick_Dissertation_EX1,1,226,2020-09-27T09:01:33-07:00,1.953882932663,3,versionC_stim.csv,READVersionC.csv,"Read Version C","Dissertation, read only version C",SARDINE,FISH,Study2,F,130,174,Study,User,-,,Study/JOL,"Study Phase2",1474,,,-1,-1,,,,1
10104845FH,r1emwkx808,Nick_Dissertation_EX1,1,227,2020-09-27T09:01:35-07:00,1.8652310371399,3,versionC_stim.csv,READVersionC.csv,"Read Version C","Dissertation, read only version C",ACTRESS,STAR,Study2,F,120,102,Study,User,-,,Study/JOL,"Study Phase2",1340,,,-1,-1,,,,1
10104845FH,r1emwkx808,Nick_Dissertation_EX1,1,228,2020-09-27T09:01:38-07:00,2.7902069091797,3,versionC_stim.csv,READVersionC.csv,"Read Version C","Dissertation, read only version C",TOIL,LEASE,Study2,U,170,124,Study,User,-,,Study/JOL,"Study Phase2",2298,,,-1,-1,,,,1
10104845FH,r1emwkx808,Nick_Dissertation_EX1,1,229,2020-09-27T09:01:40-07:00,1.9504861831665,3,versionC_stim.csv,READVersionC.csv,"Read Version C","Dissertation, read only version C",TIE,SHOELACE,Study2,B,99,167,Study,User,-,,Study/JOL,"Study Phase2",1367,,,-1,-1,,,,1
10104845FH,r1emwkx808,Nick_Dissertation_EX1,1,230,2020-09-27T09:01:42-07:00,2.2051889896393,3,versionC_stim.csv,READVersionC.csv,"Read Version C","Dissertation, read only version C",BRACELET,WRIST,Study2,S,140,171,Study,User,-,,Study/JOL,"Study Phase2",1653,,,-1,-1,,,,1
10104845FH,r1emwkx808,Nick_Dissertation_EX1,1,231,2020-09-27T09:01:46-07:00,4.125284910202,3,versionC_stim.csv,READVersionC.csv,"Read Version C","Dissertation, read only version C",END,ADJOURN,Study2,B,101,137,Study,User,-,,Study/JOL,"Study Phase2",3496,,,-1,-1,,,,1
10104845FH,r1emwkx808,Nick_Dissertation_EX1,1,232,2020-09-27T09:01:51-07:00,5.0854198932648,3,versionC_stim.csv,READVersionC.csv,"Read Version C","Dissertation, read only version C",CHARM,VEHICLE,Study2,U,160,106,Study,User,-,,Study/JOL,"Study Phase2",4466,,,-1,-1,,,,1
10104845FH,r1emwkx808,Nick_Dissertation_EX1,1,233,2020-09-27T09:01:54-07:00,2.9785950183868,3,versionC_stim.csv,READVersionC.csv,"Read Version C","Dissertation, read only version C",ELECTION,MAZE,Study2,U,159,134,Study,User,-,,Study/JOL,"Study Phase2",1955,,,-1,-1,,,,1
10104845FH,r1emwkx808,Nick_Dissertation_EX1,1,234,2020-09-27T09:01:57-07:00,2.618753194809,3,versionC_stim.csv,READVersionC.csv,"Read Version C","Dissertation, read only version C",COMMUNICATION,PHONE,Study2,S,149,156,Study,User,-,,Study/JOL,"Study Phase2",2116,,,-1,-1,,,,1
10104845FH,r1emwkx808,Nick_Dissertation_EX1,1,235,2020-09-27T09:01:59-07:00,2.3551518917084,3,versionC_stim.csv,READVersionC.csv,"Read Version C","Dissertation, read only version C",MYSTERY,DETECTIVE,Study2,B,100,170,Study,User,-,,Study/JOL,"Study Phase2",1835,,,-1,-1,,,,1
10104845FH,r1emwkx808,Nick_Dissertation_EX1,1,236,2020-09-27T09:02:01-07:00,2.287456035614,3,versionC_stim.csv,READVersionC.csv,"Read Version C","Dissertation, read only version C",SEATBELT,SAFETY,Study2,S,147,159,Study,User,-,,Study/JOL,"Study Phase2",1629,,,-1,-1,,,,1
10104845FH,r1emwkx808,Nick_Dissertation_EX1,1,237,2020-09-27T09:02:03-07:00,1.7045130729675,3,versionC_stim.csv,READVersionC.csv,"Read Version C","Dissertation, read only version C",PAPER,DOCUMENT,Study2,B,109,168,Study,User,-,,Study/JOL,"Study Phase2",1302,,,-1,-1,,,,1
10104845FH,r1emwkx808,Nick_Dissertation_EX1,1,238,2020-09-27T09:02:05-07:00,1.7901668548584,3,versionC_stim.csv,READVersionC.csv,"Read Version C","Dissertation, read only version C",BALLOON,POP,Study2,F,123,176,Study,User,-,,Study/JOL,"Study Phase2",1198,,,-1,-1,,,,1
10104845FH,r1emwkx808,Nick_Dissertation_EX1,1,239,2020-09-27T09:02:07-07:00,1.6854329109192,3,versionC_stim.csv,READVersionC.csv,"Read Version C","Dissertation, read only version C",STRAWBERRY,FRUIT,Study2,F,124,128,Study,User,-,,Study/JOL,"Study Phase2",1174,,,-1,-1,,,,1
10104845FH,r1emwkx808,Nick_Dissertation_EX1,1,240,2020-09-27T09:02:08-07:00,1.5714011192322,3,versionC_stim.csv,READVersionC.csv,"Read Version C","Dissertation, read only version C",NAP,SLEEP,Study2,F,134,115,Study,User,-,,Study/JOL,"Study Phase2",995,,,-1,-1,,,,1
10104845FH,r1emwkx808,Nick_Dissertation_EX1,1,241,2020-09-27T09:02:10-07:00,1.618833065033,3,versionC_stim.csv,READVersionC.csv,"Read Version C","Dissertation, read only version C",TRUTHFUL,HONEST,Study2,F,133,144,Study,User,-,,Study/JOL,"Study Phase2",1177,,,-1,-1,,,,1
10104845FH,r1emwkx808,Nick_Dissertation_EX1,1,242,2020-09-27T09:02:13-07:00,2.6784858703613,3,versionC_stim.csv,READVersionC.csv,"Read Version C","Dissertation, read only version C",SHAKE,Shell,Study2,U,163,145,Study,User,-,,Study/JOL,"Study Phase2",2137,,,-1,-1,,,,1
10104845FH,r1emwkx808,Nick_Dissertation_EX1,1,243,2020-09-27T09:02:15-07:00,2.0193381309509,3,versionC_stim.csv,READVersionC.csv,"Read Version C","Dissertation, read only version C",GAME,CLUE,Study2,B,97,97,Study,User,-,,Study/JOL,"Study Phase2",1472,,,-1,-1,,,,1
10104845FH,r1emwkx808,Nick_Dissertation_EX1,1,244,2020-09-27T09:02:17-07:00,2.2959318161011,3,versionC_stim.csv,READVersionC.csv,"Read Version C","Dissertation, read only version C",SCAR,MAIN,Study2,U,175,105,Study,User,-,,Study/JOL,"Study Phase2",1602,,,-1,-1,,,,1
10104845FH,r1emwkx808,Nick_Dissertation_EX1,1,245,2020-09-27T09:02:19-07:00,1.7795572280884,3,versionC_stim.csv,READVersionC.csv,"Read Version C","Dissertation, read only version C",FAVORITE,BEST,Study2,F,125,131,Study,User,-,,Study/JOL,"Study Phase2",1182,,,-1,-1,,,,1
10104845FH,r1emwkx808,Nick_Dissertation_EX1,1,246,2020-09-27T09:02:20-07:00,1.7687180042267,3,versionC_stim.csv,READVersionC.csv,"Read Version C","Dissertation, read only version C",RED,CHERRY,Study2,B,104,129,Study,User,-,,Study/JOL,"Study Phase2",1312,,,-1,-1,,,,1
10104845FH,r1emwkx808,Nick_Dissertation_EX1,1,247,2020-09-27T09:02:22-07:00,1.7405579090118,3,versionC_stim.csv,READVersionC.csv,"Read Version C","Dissertation, read only version C",REEL,ROD,Study2,S,150,123,Study,User,-,,Study/JOL,"Study Phase2",1299,,,-1,-1,,,,1
10104845FH,r1emwkx808,Nick_Dissertation_EX1,1,248,2020-09-27T09:02:24-07:00,2.3207099437714,3,versionC_stim.csv,READVersionC.csv,"Read Version C","Dissertation, read only version C",CLEAR,MOAT,Study2,U,169,116,Study,User,-,,Study/JOL,"Study Phase2",1803,,,-1,-1,,,,1
10104845FH,r1emwkx808,Nick_Dissertation_EX1,1,249,2020-09-27T09:02:26-07:00,1.6206901073456,3,versionC_stim.csv,READVersionC.csv,"Read Version C","Dissertation, read only version C",JAR,MASON,Study2,S,138,98,Study,User,-,,Study/JOL,"Study Phase2",1216,,,-1,-1,,,,1
10104845FH,r1emwkx808,Nick_Dissertation_EX1,1,250,2020-09-27T09:02:28-07:00,2.0804748535156,3,versionC_stim.csv,READVersionC.csv,"Read Version C","Dissertation, read only version C",COFFIN,DEAD,Study2,F,128,107,Study,User,-,,Study/JOL,"Study Phase2",1622,,,-1,-1,,,,1
10104845FH,r1emwkx808,Nick_Dissertation_EX1,1,251,2020-09-27T09:02:31-07:00,2.4821469783783,3,versionC_stim.csv,READVersionC.csv,"Read Version C","Dissertation, read only version C",OBTAIN,MEAT,Study2,U,161,117,Study,User,-,,Study/JOL,"Study Phase2",2011,,,-1,-1,,,,1
10104845FH,r1emwkx808,Nick_Dissertation_EX1,1,252,2020-09-27T09:02:33-07:00,2.7111880779266,3,versionC_stim.csv,READVersionC.csv,"Read Version C","Dissertation, read only version C",CLOTHES,CAKE,Study2,U,166,126,Study,User,-,,Study/JOL,"Study Phase2",2093,,,-1,-1,,,,1
10104845FH,r1emwkx808,Nick_Dissertation_EX1,1,253,2020-09-27T09:02:35-07:00,1.9265611171722,3,versionC_stim.csv,READVersionC.csv,"Read Version C","Dissertation, read only version C",GROUND,EARTH,Study2,S,144,127,Study,User,-,,Study/JOL,"Study Phase2",1397,,,-1,-1,,,,1
10104845FH,r1emwkx808,Nick_Dissertation_EX1,1,254,2020-09-27T09:02:37-07:00,2.0053617954254,3,versionC_stim.csv,READVersionC.csv,"Read Version C","Dissertation, read only version C",LONG,EXTENSION,Study2,B,96,166,Study,User,-,,Study/JOL,"Study Phase2",1473,,,-1,-1,,,,1
10104845FH,r1emwkx808,Nick_Dissertation_EX1,1,255,2020-09-27T09:02:39-07:00,2.0930380821228,3,versionC_stim.csv,READVersionC.csv,"Read Version C","Dissertation, read only version C",BANG,FUZZY,Study2,U,168,157,Study,User,-,,Study/JOL,"Study Phase2",1568,,,-1,-1,,,,1
10104845FH,r1emwkx808,Nick_Dissertation_EX1,1,256,2020-09-27T09:02:41-07:00,1.7306809425354,3,versionC_stim.csv,READVersionC.csv,"Read Version C","Dissertation, read only version C",CUT,CHOP,Study2,B,107,164,Study,User,-,,Study/JOL,"Study Phase2",1175,,,-1,-1,,,,1
10104845FH,r1emwkx808,Nick_Dissertation_EX1,1,257,2020-09-27T09:02:43-07:00,2.06862616539,3,versionC_stim.csv,READVersionC.csv,"Read Version C","Dissertation, read only version C",EAT,DINE,Study2,B,111,147,Study,User,-,,Study/JOL,"Study Phase2",1650,,,-1,-1,,,,1
10104845FH,r1emwkx808,Nick_Dissertation_EX1,1,258,2020-09-27T09:02:46-07:00,2.3825259208679,3,versionC_stim.csv,READVersionC.csv,"Read Version C","Dissertation, read only version C",MAROON,JUSTICE,Study2,U,156,119,Study,User,-,,Study/JOL,"Study Phase2",1870,,,-1,-1,,,,1
10104845FH,r1emwkx808,Nick_Dissertation_EX1,1,259,2020-09-27T09:02:47-07:00,1.6803569793701,3,versionC_stim.csv,READVersionC.csv,"Read Version C","Dissertation, read only version C",WINDSHIELD,CAR,Study2,F,117,153,Study,User,-,,Study/JOL,"Study Phase2",1214,,,-1,-1,,,,1
10104845FH,r1emwkx808,Nick_Dissertation_EX1,1,260,2020-09-27T09:02:49-07:00,1.7939131259918,3,versionC_stim.csv,READVersionC.csv,"Read Version C","Dissertation, read only version C",SHAVE,RAZOR,Study2,S,136,172,Study,User,-,,Study/JOL,"Study Phase2",1159,,,-1,-1,,,,1
10104845FH,r1emwkx808,Nick_Dissertation_EX1,1,261,2020-09-27T09:02:51-07:00,1.6508209705353,3,versionC_stim.csv,READVersionC.csv,"Read Version C","Dissertation, read only version C",SPOOKY,OCTOBER,BUFFER4,Buffer,180,181,Study,User,-,,Study/JOL,BUFFER4,1191,,,-1,-1,,,,1
10104845FH,r1emwkx808,Nick_Dissertation_EX1,1,262,2020-09-27T09:02:52-07:00,1.5044009685516,3,versionC_stim.csv,READVersionC.csv,"Read Version C","Dissertation, read only version C",SHED,TOOL,BUFFER4,Buffer,178,179,Study,User,-,,Study/JOL,BUFFER4,1063,,,-1,-1,,,,1
10104845FH,r1emwkx808,Nick_Dissertation_EX1,1,263,2020-09-27T09:02:55-07:00,2.4208378791809,3,versionC_stim.csv,READVersionC.csv,"Read Version C","Dissertation, read only version C",WEAKS,DAYS,BUFFER4,Buffer,176,180,Study,User,-,,Study/JOL,BUFFER4,1698,,,-1,-1,,,,1
10104845FH,r1emwkx808,Nick_Dissertation_EX1,1,264,2020-09-27T09:02:56-07:00,1.6889879703522,3,versionC_stim.csv,READVersionC.csv,"Read Version C","Dissertation, read only version C",MARCH,SPRING,BUFFER4,Buffer,179,178,Study,User,-,,Study/JOL,BUFFER4,1157,,,-1,-1,,,,1
10104845FH,r1emwkx808,Nick_Dissertation_EX1,1,265,2020-09-27T09:02:58-07:00,1.506245136261,3,versionC_stim.csv,READVersionC.csv,"Read Version C","Dissertation, read only version C",YEAR,MONTH,BUFFER4,Buffer,177,177,Study,User,-,,Study/JOL,BUFFER4,1028,,,-1,-1,,,,1
10104845FH,r1emwkx808,Nick_Dissertation_EX1,1,266,2020-09-27T09:03:00-07:00,2.5414478778839,3,versionC_stim.csv,READVersionC.csv,"Read Version C","Dissertation, read only version C",,,,,,0,Instruct,User,-,"You have completed this section. Please press Enter.",Filler_Instruction,Instruct5,1923,,,-1,-1,,,,1
10104845FH,r1emwkx808,Nick_Dissertation_EX1,1,267,2020-09-27T09:05:01-07:00,120.61657118797,3,versionC_stim.csv,READVersionC.csv,"Read Version C","Dissertation, read only version C",,,,,,0,FreeRecall,120,120,"Please list the 50 US states in reverse alphabetical order (z - a). The task will automatically advance to the next screen after two minutes.",,Filler2,120005,"WYOMING WASHINGTON UTAH TENNESSEE SOUTH DAKOTA SOUTH CAROLINA PENNSYLVANIA OKLAHOMA NORTH DAKOT",0,10893,119796,0,0,,1
10104845FH,r1emwkx808,Nick_Dissertation_EX1,1,268,2020-09-27T09:05:13-07:00,12.320360898972,3,versionC_stim.csv,READVersionC.csv,"Read Version C","Dissertation, read only version C",,,,,,0,Instruct,-,10,"You will now be presented with the first word from each of the previously studied item pairs. Please type the missing word. If you do not know the word, you may guess or press Enter to skip forward to the next pair.",,Instruct6,11535,,,-1,-1,,,,1
10104845FH,r1emwkx808,Nick_Dissertation_EX1,1,269,2020-09-27T09:05:16-07:00,2.9026899337769,3,versionC_stim.csv,READVersionC.csv,"Read Version C","Dissertation, read only version C",PENGUIN,BIRD,Study2,F,119,155,Test,User,-,,Recall,Recall2,2284,BIRD,100,1569,2073,1,1,,1
10104845FH,r1emwkx808,Nick_Dissertation_EX1,1,270,2020-09-27T09:05:26-07:00,9.4183671474457,3,versionC_stim.csv,READVersionC.csv,"Read Version C","Dissertation, read only version C",CAR,DRIVER,Study2,B,106,100,Test,User,-,,Recall,Recall2,8764,,0,-1,-1,0,0,,1
10104845FH,r1emwkx808,Nick_Dissertation_EX1,1,271,2020-09-27T09:05:29-07:00,3.7328419685364,3,versionC_stim.csv,READVersionC.csv,"Read Version C","Dissertation, read only version C",FICTION,LISTEN,Study2,U,164,133,Test,User,-,,Recall,Recall2,2758,TRUTH,18.181818181818,1470,2039,0,0,,1
10104845FH,r1emwkx808,Nick_Dissertation_EX1,1,272,2020-09-27T09:05:33-07:00,3.8800580501556,3,versionC_stim.csv,READVersionC.csv,"Read Version C","Dissertation, read only version C",TRUTHFUL,HONEST,Study2,F,133,144,Test,User,-,,Recall,Recall2,3440,HONEST,100,2362,3218,1,1,,1
10104845FH,r1emwkx808,Nick_Dissertation_EX1,1,273,2020-09-27T09:05:36-07:00,2.9759268760681,3,versionC_stim.csv,READVersionC.csv,"Read Version C","Dissertation, read only version C",THIMBLE,THREAD,Study2,F,121,111,Test,User,-,,Recall,Recall2,2102,THREAD,100,1193,1935,1,1,,1
10104845FH,r1emwkx808,Nick_Dissertation_EX1,1,274,2020-09-27T09:05:42-07:00,5.4045450687408,3,versionC_stim.csv,READVersionC.csv,"Read Version C","Dissertation, read only version C",LONG,EXTENSION,Study2,B,96,166,Test,User,-,,Recall,Recall2,4747,EXTENSION,100,1322,3775,1,1,,1
10104845FH,r1emwkx808,Nick_Dissertation_EX1,1,275,2020-09-27T09:05:45-07:00,3.7954130172729,3,versionC_stim.csv,READVersionC.csv,"Read Version C","Dissertation, read only version C",SCISSORS,SHEARS,Study2,B,112,161,Test,User,-,,Recall,Recall2,3253,SHEARS,100,1467,3073,1,1,,1
10104845FH,r1emwkx808,Nick_Dissertation_EX1,1,276,2020-09-27T09:05:50-07:00,4.3561370372772,3,versionC_stim.csv,READVersionC.csv,"Read Version C","Dissertation, read only version C",NAP,SLEEP,Study2,F,134,115,Test,User,-,,Recall,Recall2,3683,SLEEPY,90.909090909091,2267,3432,0,1,,1
10104845FH,r1emwkx808,Nick_Dissertation_EX1,1,277,2020-09-27T09:05:56-07:00,6.4843029975891,3,versionC_stim.csv,READVersionC.csv,"Read Version C","Dissertation, read only version C",Morning,TEMPERATURE,Study2,U,173,169,Test,User,-,,Recall,Recall2,5962,,0,-1,-1,0,0,,1
10104845FH,r1emwkx808,Nick_Dissertation_EX1,1,278,2020-09-27T09:06:00-07:00,3.6768147945404,3,versionC_stim.csv,READVersionC.csv,"Read Version C","Dissertation, read only version C",END,ADJOURN,Study2,B,101,137,Test,User,-,,Recall,Recall2,3163,FINISH,15.384615384615,2234,2916,0,0,,1
10104845FH,r1emwkx808,Nick_Dissertation_EX1,1,279,2020-09-27T09:06:02-07:00,2.3043701648712,3,versionC_stim.csv,READVersionC.csv,"Read Version C","Dissertation, read only version C",DONKEY,MULE,Study2,B,108,142,Test,User,-,,Recall,Recall2,1696,MULE,100,1020,1535,1,1,,1
10104845FH,r1emwkx808,Nick_Dissertation_EX1,1,280,2020-09-27T09:06:05-07:00,3.2504639625549,3,versionC_stim.csv,READVersionC.csv,"Read Version C","Dissertation, read only version C",DRINK,WATER,Study2,S,143,101,Test,User,-,,Recall,Recall2,2738,WATER,100,1993,2542,1,1,,1
10104845FH,r1emwkx808,Nick_Dissertation_EX1,1,281,2020-09-27T09:06:08-07:00,2.8433110713959,3,versionC_stim.csv,READVersionC.csv,"Read Version C","Dissertation, read only version C",SCAR,MAIN,Study2,U,175,105,Test,User,-,,Recall,Recall2,2081,MAIN,100,1463,1887,1,1,,1
10104845FH,r1emwkx808,Nick_Dissertation_EX1,1,282,2020-09-27T09:06:11-07:00,2.6192138195038,3,versionC_stim.csv,READVersionC.csv,"Read Version C","Dissertation, read only version C",LONELY,ALONE,Study2,S,145,132,Test,User,-,,Recall,Recall2,1806,ALONE,100,1048,1638,1,1,,1
10104845FH,r1emwkx808,Nick_Dissertation_EX1,1,283,2020-09-27T09:06:15-07:00,4.1019811630249,3,versionC_stim.csv,READVersionC.csv,"Read Version C","Dissertation, read only version C",CLOTHES,CAKE,Study2,U,166,126,Test,User,-,,Recall,Recall2,3230,STRETCH,18.181818181818,1877,3023,0,0,,1
10104845FH,r1emwkx808,Nick_Dissertation_EX1,1,284,2020-09-27T09:06:17-07:00,2.3287358283997,3,versionC_stim.csv,READVersionC.csv,"Read Version C","Dissertation, read only version C",COFFIN,DEAD,Study2,F,128,107,Test,User,-,,Recall,Recall2,1699,DEAD,100,927,1470,1,1,,1
10104845FH,r1emwkx808,Nick_Dissertation_EX1,1,285,2020-09-27T09:06:21-07:00,3.7317152023315,3,versionC_stim.csv,READVersionC.csv,"Read Version C","Dissertation, read only version C",SARDINE,FISH,Study2,F,130,174,Test,User,-,,Recall,Recall2,3000,FISH,100,1071,2713,1,1,,1
10104845FH,r1emwkx808,Nick_Dissertation_EX1,1,286,2020-09-27T09:06:23-07:00,2.2737369537354,3,versionC_stim.csv,READVersionC.csv,"Read Version C","Dissertation, read only version C",ACTRESS,STAR,Study2,F,120,102,Test,User,-,,Recall,Recall2,1712,STAR,100,1006,1458,1,1,,1
10104845FH,r1emwkx808,Nick_Dissertation_EX1,1,287,2020-09-27T09:06:26-07:00,2.6961748600006,3,versionC_stim.csv,READVersionC.csv,"Read Version C","Dissertation, read only version C",TIE,SHOELACE,Study2,B,99,167,Test,User,-,,Recall,Recall2,2115,KNOT,16.666666666667,1229,1897,0,0,,1
10104845FH,r1emwkx808,Nick_Dissertation_EX1,1,288,2020-09-27T09:06:28-07:00,2.195680141449,3,versionC_stim.csv,READVersionC.csv,"Read Version C","Dissertation, read only version C",WET,DRY,Study2,S,146,121,Test,User,-,,Recall,Recall2,1628,DRY,100,982,1365,1,1,,1
10104845FH,r1emwkx808,Nick_Dissertation_EX1,1,289,2020-09-27T09:06:36-07:00,7.8272709846497,3,versionC_stim.csv,READVersionC.csv,"Read Version C","Dissertation, read only version C",LIE,TRUTH,Study2,S,148,120,Test,User,-,,Recall,Recall2,7311,TRUTH,100,6497,7084,1,1,,1
10104845FH,r1emwkx808,Nick_Dissertation_EX1,1,290,2020-09-27T09:06:38-07:00,2.2579388618469,3,versionC_stim.csv,READVersionC.csv,"Read Version C","Dissertation, read only version C",TAN,SUN,Study2,S,155,148,Test,User,-,,Recall,Recall2,1691,SUN,100,1167,1475,1,1,,1
10104845FH,r1emwkx808,Nick_Dissertation_EX1,1,291,2020-09-27T09:06:43-07:00,4.497857093811,3,versionC_stim.csv,READVersionC.csv,"Read Version C","Dissertation, read only version C",AWAY,GONE,Study2,S,142,113,Test,User,-,,Recall,Recall2,3774,LEAVE,22.222222222222,1764,2847,0,0,,1
10104845FH,r1emwkx808,Nick_Dissertation_EX1,1,292,2020-09-27T09:06:46-07:00,3.4753890037537,3,versionC_stim.csv,READVersionC.csv,"Read Version C","Dissertation, read only version C",COMMUNICATION,PHONE,Study2,S,149,156,Test,User,-,,Recall,Recall2,2917,PHONE,100,2176,2737,1,1,,1
10104845FH,r1emwkx808,Nick_Dissertation_EX1,1,293,2020-09-27T09:06:50-07:00,3.7327868938446,3,versionC_stim.csv,READVersionC.csv,"Read Version C","Dissertation, read only version C",CLOTH,STRETCH,Study2,U,157,136,Test,User,-,,Recall,Recall2,3145,MAROON,15.384615384615,2191,2931,0,0,,1
10104845FH,r1emwkx808,Nick_Dissertation_EX1,1,294,2020-09-27T09:06:53-07:00,2.7701961994171,3,versionC_stim.csv,READVersionC.csv,"Read Version C","Dissertation, read only version C",TRASH,LITTER,Study2,B,103,152,Test,User,-,,Recall,Recall2,2177,LITTER,100,1320,1980,1,1,,1
10104845FH,r1emwkx808,Nick_Dissertation_EX1,1,295,2020-09-27T09:07:05-07:00,12.476821899414,3,versionC_stim.csv,READVersionC.csv,"Read Version C","Dissertation, read only version C",CHILDREN,MIRROR,Study2,U,174,139,Test,User,-,,Recall,Recall2,11868,KIDS,20,7053,11705,0,0,,1
10104845FH,r1emwkx808,Nick_Dissertation_EX1,1,296,2020-09-27T09:07:08-07:00,2.7031509876251,3,versionC_stim.csv,READVersionC.csv,"Read Version C","Dissertation, read only version C",AIRCRAFT,PLANE,Study2,F,129,114,Test,User,-,,Recall,Recall2,2132,PLANE,100,1375,1951,1,1,,1
10104845FH,r1emwkx808,Nick_Dissertation_EX1,1,297,2020-09-27T09:07:10-07:00,2.3272180557251,3,versionC_stim.csv,READVersionC.csv,"Read Version C","Dissertation, read only version C",JAR,MASON,Study2,S,138,98,Test,User,-,,Recall,Recall2,1701,MASON,100,941,1530,1,1,,1
10104845FH,r1emwkx808,Nick_Dissertation_EX1,1,298,2020-09-27T09:07:16-07:00,6.1138110160828,3,versionC_stim.csv,READVersionC.csv,"Read Version C","Dissertation, read only version C",GROUND,EARTH,Study2,S,144,127,Test,User,-,,Recall,Recall2,5502,UNDERNEATH,53.333333333333,3584,5293,0,0,,1
10104845FH,r1emwkx808,Nick_Dissertation_EX1,1,299,2020-09-27T09:07:19-07:00,2.5933389663696,3,versionC_stim.csv,READVersionC.csv,"Read Version C","Dissertation, read only version C",CUT,CHOP,Study2,B,107,164,Test,User,-,,Recall,Recall2,2106,CHOP,100,1454,1819,1,1,,1
10104845FH,r1emwkx808,Nick_Dissertation_EX1,1,300,2020-09-27T09:07:24-07:00,4.5464990139008,3,versionC_stim.csv,READVersionC.csv,"Read Version C","Dissertation, read only version C",EQUAL,RIGHTS,Study2,S,137,125,Test,User,-,,Recall,Recall2,3993,RIGHTS,100,3183,3814,1,1,,1
10104845FH,r1emwkx808,Nick_Dissertation_EX1,1,301,2020-09-27T09:07:27-07:00,3.2089340686798,3,versionC_stim.csv,READVersionC.csv,"Read Version C","Dissertation, read only version C",OBTAIN,MEAT,Study2,U,161,117,Test,User,-,,Recall,Recall2,2521,TAKE,25,1946,2374,0,0,,1
10104845FH,r1emwkx808,Nick_Dissertation_EX1,1,302,2020-09-27T09:07:29-07:00,1.8823218345642,3,versionC_stim.csv,READVersionC.csv,"Read Version C","Dissertation, read only version C",REEL,ROD,Study2,S,150,123,Test,User,-,,Recall,Recall2,1367,ROD,100,948,1204,1,1,,1
10104845FH,r1emwkx808,Nick_Dissertation_EX1,1,303,2020-09-27T09:07:32-07:00,3.7300360202789,3,versionC_stim.csv,READVersionC.csv,"Read Version C","Dissertation, read only version C",TEMPER,TANTRUM,Study2,S,154,108,Test,User,-,,Recall,Recall2,2708,TANTRUM,100,981,2506,1,1,,1
10104845FH,r1emwkx808,Nick_Dissertation_EX1,1,304,2020-09-27T09:07:36-07:00,3.2124829292297,3,versionC_stim.csv,READVersionC.csv,"Read Version C","Dissertation, read only version C",CLEAR,MOAT,Study2,U,169,116,Test,User,-,,Recall,Recall2,2429,MOAT,100,1749,2161,1,1,,1
10104845FH,r1emwkx808,Nick_Dissertation_EX1,1,305,2020-09-27T09:07:41-07:00,5.1877160072327,3,versionC_stim.csv,READVersionC.csv,"Read Version C","Dissertation, read only version C",LOVE,AFFECTION,Study2,B,115,162,Test,User,-,,Recall,Recall2,4496,ADMIRE,26.666666666667,3258,4302,0,0,,1
10104845FH,r1emwkx808,Nick_Dissertation_EX1,1,306,2020-09-27T09:07:45-07:00,3.8055181503296,3,versionC_stim.csv,READVersionC.csv,"Read Version C","Dissertation, read only version C",ELECTION,MAZE,Study2,U,159,134,Test,User,-,,Recall,Recall2,2954,MAZE,100,2145,2734,1,1,,1
10104845FH,r1emwkx808,Nick_Dissertation_EX1,1,307,2020-09-27T09:07:49-07:00,4.888720035553,3,versionC_stim.csv,READVersionC.csv,"Read Version C","Dissertation, read only version C",SHAKE,Shell,Study2,U,163,145,Test,User,-,,Recall,Recall2,4313,TREMBLE,33.333333333333,3035,4119,0,0,,1
10104845FH,r1emwkx808,Nick_Dissertation_EX1,1,308,2020-09-27T09:07:57-07:00,7.269425868988,3,versionC_stim.csv,READVersionC.csv,"Read Version C","Dissertation, read only version C",HEAD,SCALP,Study2,B,105,103,Test,User,-,,Recall,Recall2,6647,,0,-1,-1,0,0,,1
10104845FH,r1emwkx808,Nick_Dissertation_EX1,1,309,2020-09-27T09:08:00-07:00,3.7009530067444,3,versionC_stim.csv,READVersionC.csv,"Read Version C","Dissertation, read only version C",BANKER,MONEY,Study2,F,132,173,Test,User,-,,Recall,Recall2,2872,MONEY,100,2053,2621,1,1,,1
10104845FH,r1emwkx808,Nick_Dissertation_EX1,1,310,2020-09-27T09:08:10-07:00,9.5535709857941,3,versionC_stim.csv,READVersionC.csv,"Read Version C","Dissertation, read only version C",FLIP,TURN,Study2,F,116,130,Test,User,-,,Recall,Recall2,9072,TURN,100,7080,8845,1,1,,1
10104845FH,r1emwkx808,Nick_Dissertation_EX1,1,311,2020-09-27T09:08:14-07:00,3.8105759620667,3,versionC_stim.csv,READVersionC.csv,"Read Version C","Dissertation, read only version C",VILLAIN,BAD,Study2,F,118,146,Test,User,-,,Recall,Recall2,2993,EVIL,0,2119,2766,0,0,,1
10104845FH,r1emwkx808,Nick_Dissertation_EX1,1,312,2020-09-27T09:08:16-07:00,1.8846800327301,3,versionC_stim.csv,READVersionC.csv,"Read Version C","Dissertation, read only version C",JOKE,KEYS,Study2,U,165,135,Test,User,-,,Recall,Recall2,1225,,0,-1,-1,0,0,,1
10104845FH,r1emwkx808,Nick_Dissertation_EX1,1,313,2020-09-27T09:08:20-07:00,4.1131491661072,3,versionC_stim.csv,READVersionC.csv,"Read Version C","Dissertation, read only version C",OUNCE,BOTH,Study2,U,172,99,Test,User,-,,Recall,Recall2,3486,WEIGHT,20,2541,3247,0,0,,1
10104845FH,r1emwkx808,Nick_Dissertation_EX1,1,314,2020-09-27T09:08:22-07:00,2.5210018157959,3,versionC_stim.csv,READVersionC.csv,"Read Version C","Dissertation, read only version C",WAX,CANDLE,Study2,S,139,158,Test,User,-,,Recall,Recall2,2016,CANDLE,100,1146,1852,1,1,,1
10104845FH,r1emwkx808,Nick_Dissertation_EX1,1,315,2020-09-27T09:08:28-07:00,5.8677351474762,3,versionC_stim.csv,READVersionC.csv,"Read Version C","Dissertation, read only version C",HATE,NAME,Study2,U,167,149,Test,User,-,,Recall,Recall2,5294,DISLIKE,18.181818181818,3923,5124,0,0,,1
10104845FH,r1emwkx808,Nick_Dissertation_EX1,1,316,2020-09-27T09:08:31-07:00,2.9452829360962,3,versionC_stim.csv,READVersionC.csv,"Read Version C","Dissertation, read only version C",TICK,FLEA,Study2,S,151,104,Test,User,-,,Recall,Recall2,2216,FLEA,100,1590,2030,1,1,,1
10104845FH,r1emwkx808,Nick_Dissertation_EX1,1,317,2020-09-27T09:08:34-07:00,2.8190350532532,3,versionC_stim.csv,READVersionC.csv,"Read Version C","Dissertation, read only version C",BRAWL,FIGHT,Study2,F,135,154,Test,User,-,,Recall,Recall2,1998,FIGHT,100,1113,1641,1,1,,1
10104845FH,r1emwkx808,Nick_Dissertation_EX1,1,318,2020-09-27T09:08:36-07:00,2.3203978538513,3,versionC_stim.csv,READVersionC.csv,"Read Version C","Dissertation, read only version C",MAROON,JUSTICE,Study2,U,156,119,Test,User,-,,Recall,Recall2,1462,,0,-1,-1,0,0,,1
10104845FH,r1emwkx808,Nick_Dissertation_EX1,1,319,2020-09-27T09:08:39-07:00,2.6927621364594,3,versionC_stim.csv,READVersionC.csv,"Read Version C","Dissertation, read only version C",DOG,FURRY,Study2,B,102,151,Test,User,-,,Recall,Recall2,2109,FURRY,100,1368,1882,1,1,,1
10104845FH,r1emwkx808,Nick_Dissertation_EX1,1,320,2020-09-27T09:08:45-07:00,5.6195158958435,3,versionC_stim.csv,READVersionC.csv,"Read Version C","Dissertation, read only version C",RED,CHERRY,Study2,B,104,129,Test,User,-,,Recall,Recall2,4881,ROSE,20,4279,4678,0,0,,1
10104845FH,r1emwkx808,Nick_Dissertation_EX1,1,321,2020-09-27T09:08:47-07:00,2.8101670742035,3,versionC_stim.csv,READVersionC.csv,"Read Version C","Dissertation, read only version C",BRACELET,WRIST,Study2,S,140,171,Test,User,-,,Recall,Recall2,2301,WRIST,100,1238,2080,1,1,,1
10104845FH,r1emwkx808,Nick_Dissertation_EX1,1,322,2020-09-27T09:08:51-07:00,3.1818649768829,3,versionC_stim.csv,READVersionC.csv,"Read Version C","Dissertation, read only version C",SHAVE,RAZOR,Study2,S,136,172,Test,User,-,,Recall,Recall2,2673,HAIR,44.444444444444,2166,2534,0,0,,1
10104845FH,r1emwkx808,Nick_Dissertation_EX1,1,323,2020-09-27T09:08:55-07:00,4.1838319301605,3,versionC_stim.csv,READVersionC.csv,"Read Version C","Dissertation, read only version C",TOIL,LEASE,Study2,U,170,124,Test,User,-,,Recall,Recall2,3638,TURMOIL,16.666666666667,2219,3415,0,0,,1
10104845FH,r1emwkx808,Nick_Dissertation_EX1,1,324,2020-09-27T09:08:59-07:00,3.8457250595093,3,versionC_stim.csv,READVersionC.csv,"Read Version C","Dissertation, read only version C",GAME,CLUE,Study2,B,97,97,Test,User,-,,Recall,Recall2,3204,CLUE,100,2612,3003,1,1,,1
10104845FH,r1emwkx808,Nick_Dissertation_EX1,1,325,2020-09-27T09:09:04-07:00,4.9489130973816,3,versionC_stim.csv,READVersionC.csv,"Read Version C","Dissertation, read only version C",BANG,FUZZY,Study2,U,168,157,Test,User,-,,Recall,Recall2,4239,NOISE,0,2958,4004,0,0,,1
10104845FH,r1emwkx808,Nick_Dissertation_EX1,1,326,2020-09-27T09:09:09-07:00,5.320338010788,3,versionC_stim.csv,READVersionC.csv,"Read Version C","Dissertation, read only version C",FAVORITE,BEST,Study2,F,125,131,Test,User,-,,Recall,Recall2,4711,BEST,100,3960,4515,1,1,,1
10104845FH,r1emwkx808,Nick_Dissertation_EX1,1,327,2020-09-27T09:09:12-07:00,2.7714469432831,3,versionC_stim.csv,READVersionC.csv,"Read Version C","Dissertation, read only version C",SMELL,INCENSE,Study2,B,110,122,Test,User,-,,Recall,Recall2,2146,STENCH,30.769230769231,1072,1901,0,0,,1
10104845FH,r1emwkx808,Nick_Dissertation_EX1,1,328,2020-09-27T09:09:14-07:00,2.6095888614655,3,versionC_stim.csv,READVersionC.csv,"Read Version C","Dissertation, read only version C",BALLOON,POP,Study2,F,123,176,Test,User,-,,Recall,Recall2,2059,POP,100,1391,1817,1,1,,1
10104845FH,r1emwkx808,Nick_Dissertation_EX1,1,329,2020-09-27T09:09:18-07:00,3.3758671283722,3,versionC_stim.csv,READVersionC.csv,"Read Version C","Dissertation, read only version C",PAPER,DOCUMENT,Study2,B,109,168,Test,User,-,,Recall,Recall2,2662,DOCUMENT,100,1456,2442,1,1,,1
10104845FH,r1emwkx808,Nick_Dissertation_EX1,1,330,2020-09-27T09:09:24-07:00,6.4326570034027,3,versionC_stim.csv,READVersionC.csv,"Read Version C","Dissertation, read only version C",ABLE,CRACKLE,Study2,U,162,175,Test,User,-,,Recall,Recall2,5835,,0,-1,-1,0,0,,1
10104845FH,r1emwkx808,Nick_Dissertation_EX1,1,331,2020-09-27T09:09:29-07:00,4.5603590011597,3,versionC_stim.csv,READVersionC.csv,"Read Version C","Dissertation, read only version C",NOISE,LOUD,Study2,S,152,112,Test,User,-,,Recall,Recall2,3919,LOUD,100,3142,3729,1,1,,1
10104845FH,r1emwkx808,Nick_Dissertation_EX1,1,332,2020-09-27T09:09:32-07:00,2.9552340507507,3,versionC_stim.csv,READVersionC.csv,"Read Version C","Dissertation, read only version C",SIGN,LOAN,Study2,U,171,150,Test,User,-,,Recall,Recall2,2425,LOAN,100,1840,2223,1,1,,1
10104845FH,r1emwkx808,Nick_Dissertation_EX1,1,333,2020-09-27T09:09:38-07:00,5.9767818450928,3,versionC_stim.csv,READVersionC.csv,"Read Version C","Dissertation, read only version C",STEAK,GIVE,Study2,U,158,138,Test,User,-,,Recall,Recall2,5357,,0,-1,-1,0,0,,1
10104845FH,r1emwkx808,Nick_Dissertation_EX1,1,334,2020-09-27T09:09:41-07:00,3.1418440341949,3,versionC_stim.csv,READVersionC.csv,"Read Version C","Dissertation, read only version C",COLD,CHILL,Study2,B,114,110,Test,User,-,,Recall,Recall2,2336,ICE,25,1799,2174,0,0,,1
10104845FH,r1emwkx808,Nick_Dissertation_EX1,1,335,2020-09-27T09:09:44-07:00,2.9708321094513,3,versionC_stim.csv,READVersionC.csv,"Read Version C","Dissertation, read only version C",HAVE,OWN,Study2,S,153,141,Test,User,-,,Recall,Recall2,2265,OWN,100,1809,2081,1,1,,1
10104845FH,r1emwkx808,Nick_Dissertation_EX1,1,336,2020-09-27T09:09:47-07:00,3.2255609035492,3,versionC_stim.csv,READVersionC.csv,"Read Version C","Dissertation, read only version C",CARBON,ELEMENT,Study2,S,141,118,Test,User,-,,Recall,Recall2,2368,ELEMENT,100,1262,2176,1,1,,1
10104845FH,r1emwkx808,Nick_Dissertation_EX1,1,337,2020-09-27T09:09:50-07:00,3.215763092041,3,versionC_stim.csv,READVersionC.csv,"Read Version C","Dissertation, read only version C",LEAGUE,BASEBALL,Study2,F,131,109,Test,User,-,,Recall,Recall2,2433,BASEBALL,100,1029,2230,1,1,,1
10104845FH,r1emwkx808,Nick_Dissertation_EX1,1,338,2020-09-27T09:09:55-07:00,5.3006408214569,3,versionC_stim.csv,READVersionC.csv,"Read Version C","Dissertation, read only version C",PLANT,CACTUS,Study2,B,98,143,Test,User,-,,Recall,Recall2,4655,,0,-1,-1,0,0,,1
10104845FH,r1emwkx808,Nick_Dissertation_EX1,1,339,2020-09-27T09:09:59-07:00,3.2097880840302,3,versionC_stim.csv,READVersionC.csv,"Read Version C","Dissertation, read only version C",REVENGE,EVEN,Study2,F,122,140,Test,User,-,,Recall,Recall2,2457,EVEN,100,1768,2237,1,1,,1
10104845FH,r1emwkx808,Nick_Dissertation_EX1,1,340,2020-09-27T09:10:04-07:00,4.9193599224091,3,versionC_stim.csv,READVersionC.csv,"Read Version C","Dissertation, read only version C",STRAWBERRY,FRUIT,Study2,F,124,128,Test,User,-,,Recall,Recall2,4373,PLANT,20,3466,4153,0,0,,1
10104845FH,r1emwkx808,Nick_Dissertation_EX1,1,341,2020-09-27T09:10:09-07:00,5.2581331729889,3,versionC_stim.csv,READVersionC.csv,"Read Version C","Dissertation, read only version C",EAT,DINE,Study2,B,111,147,Test,User,-,,Recall,Recall2,4721,CHEW,25,4089,4498,0,0,,1
10104845FH,r1emwkx808,Nick_Dissertation_EX1,1,342,2020-09-27T09:10:12-07:00,2.6962559223175,3,versionC_stim.csv,READVersionC.csv,"Read Version C","Dissertation, read only version C",PANTHER,CAT,Study2,F,126,163,Test,User,-,,Recall,Recall2,2116,CAT,100,1524,1875,1,1,,1
10104845FH,r1emwkx808,Nick_Dissertation_EX1,1,343,2020-09-27T09:10:14-07:00,2.8587210178375,3,versionC_stim.csv,READVersionC.csv,"Read Version C","Dissertation, read only version C",BREAKABLE,GLASS,Study2,F,127,160,Test,User,-,,Recall,Recall2,2299,GLASS,100,1483,2154,1,1,,1
10104845FH,r1emwkx808,Nick_Dissertation_EX1,1,344,2020-09-27T09:10:18-07:00,3.6637709140778,3,versionC_stim.csv,READVersionC.csv,"Read Version C","Dissertation, read only version C",CHARM,VEHICLE,Study2,U,160,106,Test,User,-,,Recall,Recall2,3111,,0,-1,-1,0,0,,1
10104845FH,r1emwkx808,Nick_Dissertation_EX1,1,345,2020-09-27T09:10:22-07:00,4.3594450950623,3,versionC_stim.csv,READVersionC.csv,"Read Version C","Dissertation, read only version C",FIGHT,FEUD,Study2,B,113,165,Test,User,-,,Recall,Recall2,3619,BRAWL,0,2088,3392,0,0,,1
10104845FH,r1emwkx808,Nick_Dissertation_EX1,1,346,2020-09-27T09:10:27-07:00,4.4696989059448,3,versionC_stim.csv,READVersionC.csv,"Read Version C","Dissertation, read only version C",MYSTERY,DETECTIVE,Study2,B,100,170,Test,User,-,,Recall,Recall2,3947,DETECTIVE,100,2320,3800,1,1,,1
10104845FH,r1emwkx808,Nick_Dissertation_EX1,1,347,2020-09-27T09:10:30-07:00,3.2346861362457,3,versionC_stim.csv,READVersionC.csv,"Read Version C","Dissertation, read only version C",SEATBELT,SAFETY,Study2,S,147,159,Test,User,-,,Recall,Recall2,2439,SAFETY,100,1102,2228,1,1,,1
10104845FH,r1emwkx808,Nick_Dissertation_EX1,1,348,2020-09-27T09:10:33-07:00,3.1243989467621,3,versionC_stim.csv,READVersionC.csv,"Read Version C","Dissertation, read only version C",WINDSHIELD,CAR,Study2,F,117,153,Test,User,-,,Recall,Recall2,2504,GLASS,25,1715,2363,0,0,,1
10104845FH,r1emwkx808,Nick_Dissertation_EX1,1,349,2020-09-27T09:10:36-07:00,3.0339140892029,3,versionC_stim.csv,READVersionC.csv,"Read Version C","Dissertation, read only version C",,,,,,0,Instruct,User,-,"You have completed this section. Please press Enter.",,Instruct7,2451,,,-1,-1,,,,1
10104845FH,r1emwkx808,Nick_Dissertation_EX1,1,350,2020-09-27T09:10:41-07:00,4.8402209281921,3,versionC_stim.csv,READVersionC.csv,"Read Version C","Dissertation, read only version C",,,,,,0,Instruct,User,-,"The following screen will ask you a few questions abour your experience today. You must complete these questions to receive credit.",,Instruct8,4215,,,-1,-1,,,,1
