Username,ID,ExperimentName,Session,Trial,Date,TimeDif,"Condition Number","Stimuli File","Order File","Condition Description","Condition Notes",Stimuli*Cue,Stimuli*Answer,Stimuli*Shuffle,"Stimuli*Stimuli Notes",Stimuli*Value,Procedure*Item,"Procedure*Trial Type","Procedure*Max Time","Procedure*Min Time",Procedure*Text,"Procedure*Procedure Notes",Procedure*Shuffle,Response*RT,Response*Response,Response*Accuracy,Response*RTfirst,Response*RTlast,Response*strictAcc,Response*lenientAcc,Response*focus,Response*Focus
5f4c2efda7461b8435ce9fd3,qgk92kcjct,Nick_Dissertation_EX1,1,1,2020-10-24T10:24:12-07:00,12.123380184174,4,versionC_stim.csv,READVersionD.csv,"Read Version D","Dissertation, read only version D",,,,,,0,Instruct,-,10,"Please study each of the following word pairs. Remember that your memory will be tested! When finished, press Enter to move to the next pair.",Initial_Instruct,Instruct1,11692,,,-1,-1,,,,1
5f4c2efda7461b8435ce9fd3,qgk92kcjct,Nick_Dissertation_EX1,1,2,2020-10-24T10:24:16-07:00,4.2461159229279,4,versionC_stim.csv,READVersionD.csv,"Read Version D","Dissertation, read only version D",STRING,NOODLE,BUFFER3,Buffer,92,95,Study,User,-,,Study/JOL,BUFFER,3520,,,-1,-1,,,,1
5f4c2efda7461b8435ce9fd3,qgk92kcjct,Nick_Dissertation_EX1,1,3,2020-10-24T10:24:19-07:00,3.2804570198059,4,versionC_stim.csv,READVersionD.csv,"Read Version D","Dissertation, read only version D",FROZEN,ICE,BUFFER3,Buffer,94,92,Study,User,-,,Study/JOL,BUFFER,2606,,,-1,-1,,,,1
5f4c2efda7461b8435ce9fd3,qgk92kcjct,Nick_Dissertation_EX1,1,4,2020-10-24T10:24:22-07:00,2.7961959838867,4,versionC_stim.csv,READVersionD.csv,"Read Version D","Dissertation, read only version D",POTATO,CARROT,BUFFER3,Buffer,91,93,Study,User,-,,Study/JOL,BUFFER,2069,,,-1,-1,,,,1
5f4c2efda7461b8435ce9fd3,qgk92kcjct,Nick_Dissertation_EX1,1,5,2020-10-24T10:24:24-07:00,1.8145520687103,4,versionC_stim.csv,READVersionD.csv,"Read Version D","Dissertation, read only version D",ADVENTURE,CAMP,BUFFER3,Buffer,95,94,Study,User,-,,Study/JOL,BUFFER,1114,,,-1,-1,,,,1
5f4c2efda7461b8435ce9fd3,qgk92kcjct,Nick_Dissertation_EX1,1,6,2020-10-24T10:24:26-07:00,2.2612609863281,4,versionC_stim.csv,READVersionD.csv,"Read Version D","Dissertation, read only version D",FISH,SHRIMP,BUFFER3,Buffer,93,96,Study,User,-,,Study/JOL,BUFFER,1550,,,-1,-1,,,,1
5f4c2efda7461b8435ce9fd3,qgk92kcjct,Nick_Dissertation_EX1,1,7,2020-10-24T10:24:29-07:00,2.5645899772644,4,versionC_stim.csv,READVersionD.csv,"Read Version D","Dissertation, read only version D",MYSTERY,DETECTIVE,Study2,B,100,114,Study,User,-,,Study/JOL,"Study Phase",1670,,,-1,-1,,,,1
5f4c2efda7461b8435ce9fd3,qgk92kcjct,Nick_Dissertation_EX1,1,8,2020-10-24T10:24:30-07:00,1.7350978851318,4,versionC_stim.csv,READVersionD.csv,"Read Version D","Dissertation, read only version D",TEMPER,TANTRUM,Study2,S,154,167,Study,User,-,,Study/JOL,"Study Phase",1042,,,-1,-1,,,,1
5f4c2efda7461b8435ce9fd3,qgk92kcjct,Nick_Dissertation_EX1,1,9,2020-10-24T10:24:32-07:00,1.5667779445648,4,versionC_stim.csv,READVersionD.csv,"Read Version D","Dissertation, read only version D",WET,DRY,Study2,S,146,157,Study,User,-,,Study/JOL,"Study Phase",903,,,-1,-1,,,,1
5f4c2efda7461b8435ce9fd3,qgk92kcjct,Nick_Dissertation_EX1,1,10,2020-10-24T10:24:34-07:00,2.145788192749,4,versionC_stim.csv,READVersionD.csv,"Read Version D","Dissertation, read only version D",HAVE,OWN,Study2,S,153,140,Study,User,-,,Study/JOL,"Study Phase",1476,,,-1,-1,,,,1
5f4c2efda7461b8435ce9fd3,qgk92kcjct,Nick_Dissertation_EX1,1,11,2020-10-24T10:24:35-07:00,1.3446450233459,4,versionC_stim.csv,READVersionD.csv,"Read Version D","Dissertation, read only version D",REEL,ROD,Study2,S,150,146,Study,User,-,,Study/JOL,"Study Phase",649,,,-1,-1,,,,1
5f4c2efda7461b8435ce9fd3,qgk92kcjct,Nick_Dissertation_EX1,1,12,2020-10-24T10:24:37-07:00,1.7047629356384,4,versionC_stim.csv,READVersionD.csv,"Read Version D","Dissertation, read only version D",DOG,FURRY,Study2,B,102,104,Study,User,-,,Study/JOL,"Study Phase",1032,,,-1,-1,,,,1
5f4c2efda7461b8435ce9fd3,qgk92kcjct,Nick_Dissertation_EX1,1,13,2020-10-24T10:24:38-07:00,1.2819368839264,4,versionC_stim.csv,READVersionD.csv,"Read Version D","Dissertation, read only version D",CHARM,VEHICLE,Study2,U,160,134,Study,User,-,,Study/JOL,"Study Phase",601,,,-1,-1,,,,1
5f4c2efda7461b8435ce9fd3,qgk92kcjct,Nick_Dissertation_EX1,1,14,2020-10-24T10:24:41-07:00,2.5452680587769,4,versionC_stim.csv,READVersionD.csv,"Read Version D","Dissertation, read only version D",TIE,SHOELACE,Study2,B,99,139,Study,User,-,,Study/JOL,"Study Phase",1679,,,-1,-1,,,,1
5f4c2efda7461b8435ce9fd3,qgk92kcjct,Nick_Dissertation_EX1,1,15,2020-10-24T10:24:44-07:00,3.2413220405579,4,versionC_stim.csv,READVersionD.csv,"Read Version D","Dissertation, read only version D",LONG,EXTENSION,Study2,B,96,100,Study,User,-,,Study/JOL,"Study Phase",2294,,,-1,-1,,,,1
5f4c2efda7461b8435ce9fd3,qgk92kcjct,Nick_Dissertation_EX1,1,16,2020-10-24T10:24:46-07:00,2.2291469573975,4,versionC_stim.csv,READVersionD.csv,"Read Version D","Dissertation, read only version D",FIGHT,FEUD,Study2,B,113,107,Study,User,-,,Study/JOL,"Study Phase",1523,,,-1,-1,,,,1
5f4c2efda7461b8435ce9fd3,qgk92kcjct,Nick_Dissertation_EX1,1,17,2020-10-24T10:24:50-07:00,3.6200189590454,4,versionC_stim.csv,READVersionD.csv,"Read Version D","Dissertation, read only version D",BRAWL,FIGHT,Study2,F,135,102,Study,User,-,,Study/JOL,"Study Phase",2915,,,-1,-1,,,,1
5f4c2efda7461b8435ce9fd3,qgk92kcjct,Nick_Dissertation_EX1,1,18,2020-10-24T10:24:53-07:00,2.9901211261749,4,versionC_stim.csv,READVersionD.csv,"Read Version D","Dissertation, read only version D",DONKEY,MULE,Study2,B,108,162,Study,User,-,,Study/JOL,"Study Phase",2284,,,-1,-1,,,,1
5f4c2efda7461b8435ce9fd3,qgk92kcjct,Nick_Dissertation_EX1,1,19,2020-10-24T10:24:57-07:00,3.5848670005798,4,versionC_stim.csv,READVersionD.csv,"Read Version D","Dissertation, read only version D",NOISE,LOUD,Study2,S,152,127,Study,User,-,,Study/JOL,"Study Phase",1730,,,-1,-1,,,,1
5f4c2efda7461b8435ce9fd3,qgk92kcjct,Nick_Dissertation_EX1,1,20,2020-10-24T10:24:59-07:00,2.7153968811035,4,versionC_stim.csv,READVersionD.csv,"Read Version D","Dissertation, read only version D",SARDINE,FISH,Study2,F,130,128,Study,User,-,,Study/JOL,"Study Phase",1764,,,-1,-1,,,,1
5f4c2efda7461b8435ce9fd3,qgk92kcjct,Nick_Dissertation_EX1,1,21,2020-10-24T10:25:01-07:00,1.7724161148071,4,versionC_stim.csv,READVersionD.csv,"Read Version D","Dissertation, read only version D",GROUND,EARTH,Study2,S,144,126,Study,User,-,,Study/JOL,"Study Phase",1063,,,-1,-1,,,,1
5f4c2efda7461b8435ce9fd3,qgk92kcjct,Nick_Dissertation_EX1,1,22,2020-10-24T10:25:04-07:00,2.5604088306427,4,versionC_stim.csv,READVersionD.csv,"Read Version D","Dissertation, read only version D",OBTAIN,MEAT,Study2,U,161,175,Study,User,-,,Study/JOL,"Study Phase",1767,,,-1,-1,,,,1
5f4c2efda7461b8435ce9fd3,qgk92kcjct,Nick_Dissertation_EX1,1,23,2020-10-24T10:25:08-07:00,4.2708840370178,4,versionC_stim.csv,READVersionD.csv,"Read Version D","Dissertation, read only version D",STEAK,GIVE,Study2,U,158,136,Study,User,-,,Study/JOL,"Study Phase",3312,,,-1,-1,,,,1
5f4c2efda7461b8435ce9fd3,qgk92kcjct,Nick_Dissertation_EX1,1,24,2020-10-24T10:25:11-07:00,3.1226470470428,4,versionC_stim.csv,READVersionD.csv,"Read Version D","Dissertation, read only version D",JAR,MASON,Study2,S,138,166,Study,User,-,,Study/JOL,"Study Phase",2436,,,-1,-1,,,,1
5f4c2efda7461b8435ce9fd3,qgk92kcjct,Nick_Dissertation_EX1,1,25,2020-10-24T10:25:12-07:00,1.2436780929565,4,versionC_stim.csv,READVersionD.csv,"Read Version D","Dissertation, read only version D",HEAD,SCALP,Study2,B,105,135,Study,User,-,,Study/JOL,"Study Phase",526,,,-1,-1,,,,1
5f4c2efda7461b8435ce9fd3,qgk92kcjct,Nick_Dissertation_EX1,1,26,2020-10-24T10:25:14-07:00,1.3393909931183,4,versionC_stim.csv,READVersionD.csv,"Read Version D","Dissertation, read only version D",CHILDREN,MIRROR,Study2,U,174,99,Study,User,-,,Study/JOL,"Study Phase",630,,,-1,-1,,,,1
5f4c2efda7461b8435ce9fd3,qgk92kcjct,Nick_Dissertation_EX1,1,27,2020-10-24T10:25:15-07:00,1.3354868888855,4,versionC_stim.csv,READVersionD.csv,"Read Version D","Dissertation, read only version D",NAP,SLEEP,Study2,F,134,138,Study,User,-,,Study/JOL,"Study Phase",619,,,-1,-1,,,,1
5f4c2efda7461b8435ce9fd3,qgk92kcjct,Nick_Dissertation_EX1,1,28,2020-10-24T10:25:17-07:00,2.2800810337067,4,versionC_stim.csv,READVersionD.csv,"Read Version D","Dissertation, read only version D",ELECTION,MAZE,Study2,U,159,120,Study,User,-,,Study/JOL,"Study Phase",1559,,,-1,-1,,,,1
5f4c2efda7461b8435ce9fd3,qgk92kcjct,Nick_Dissertation_EX1,1,29,2020-10-24T10:25:19-07:00,2.1850259304047,4,versionC_stim.csv,READVersionD.csv,"Read Version D","Dissertation, read only version D",REVENGE,EVEN,Study2,F,122,149,Study,User,-,,Study/JOL,"Study Phase",1450,,,-1,-1,,,,1
5f4c2efda7461b8435ce9fd3,qgk92kcjct,Nick_Dissertation_EX1,1,30,2020-10-24T10:25:21-07:00,1.8327810764313,4,versionC_stim.csv,READVersionD.csv,"Read Version D","Dissertation, read only version D",END,ADJOURN,Study2,B,101,164,Study,User,-,,Study/JOL,"Study Phase",1125,,,-1,-1,,,,1
5f4c2efda7461b8435ce9fd3,qgk92kcjct,Nick_Dissertation_EX1,1,31,2020-10-24T10:25:23-07:00,1.8340430259705,4,versionC_stim.csv,READVersionD.csv,"Read Version D","Dissertation, read only version D",SMELL,INCENSE,Study2,B,110,158,Study,User,-,,Study/JOL,"Study Phase",1132,,,-1,-1,,,,1
5f4c2efda7461b8435ce9fd3,qgk92kcjct,Nick_Dissertation_EX1,1,32,2020-10-24T10:25:29-07:00,5.7850139141083,4,versionC_stim.csv,READVersionD.csv,"Read Version D","Dissertation, read only version D",THIMBLE,THREAD,Study2,F,121,119,Study,User,-,,Study/JOL,"Study Phase",4081,,,-1,-1,,,,1
5f4c2efda7461b8435ce9fd3,qgk92kcjct,Nick_Dissertation_EX1,1,33,2020-10-24T10:25:30-07:00,1.465341091156,4,versionC_stim.csv,READVersionD.csv,"Read Version D","Dissertation, read only version D",WINDSHIELD,CAR,Study2,F,117,101,Study,User,-,,Study/JOL,"Study Phase",780,,,-1,-1,,,,1
5f4c2efda7461b8435ce9fd3,qgk92kcjct,Nick_Dissertation_EX1,1,34,2020-10-24T10:25:32-07:00,1.6194770336151,4,versionC_stim.csv,READVersionD.csv,"Read Version D","Dissertation, read only version D",BREAKABLE,GLASS,Study2,F,127,143,Study,User,-,,Study/JOL,"Study Phase",923,,,-1,-1,,,,1
5f4c2efda7461b8435ce9fd3,qgk92kcjct,Nick_Dissertation_EX1,1,35,2020-10-24T10:25:34-07:00,2.1197888851166,4,versionC_stim.csv,READVersionD.csv,"Read Version D","Dissertation, read only version D",TRUTHFUL,HONEST,Study2,F,133,117,Study,User,-,,Study/JOL,"Study Phase",1433,,,-1,-1,,,,1
5f4c2efda7461b8435ce9fd3,qgk92kcjct,Nick_Dissertation_EX1,1,36,2020-10-24T10:25:36-07:00,2.0304369926453,4,versionC_stim.csv,READVersionD.csv,"Read Version D","Dissertation, read only version D",VILLAIN,BAD,Study2,F,118,133,Study,User,-,,Study/JOL,"Study Phase",1338,,,-1,-1,,,,1
5f4c2efda7461b8435ce9fd3,qgk92kcjct,Nick_Dissertation_EX1,1,37,2020-10-24T10:25:37-07:00,1.2115910053253,4,versionC_stim.csv,READVersionD.csv,"Read Version D","Dissertation, read only version D",FICTION,LISTEN,Study2,U,164,106,Study,User,-,,Study/JOL,"Study Phase",527,,,-1,-1,,,,1
5f4c2efda7461b8435ce9fd3,qgk92kcjct,Nick_Dissertation_EX1,1,38,2020-10-24T10:25:41-07:00,3.2839591503143,4,versionC_stim.csv,READVersionD.csv,"Read Version D","Dissertation, read only version D",TOIL,LEASE,Study2,U,170,110,Study,User,-,,Study/JOL,"Study Phase",2591,,,-1,-1,,,,1
5f4c2efda7461b8435ce9fd3,qgk92kcjct,Nick_Dissertation_EX1,1,39,2020-10-24T10:25:43-07:00,1.9043748378754,4,versionC_stim.csv,READVersionD.csv,"Read Version D","Dissertation, read only version D",DRINK,WATER,Study2,S,143,161,Study,User,-,,Study/JOL,"Study Phase",1222,,,-1,-1,,,,1
5f4c2efda7461b8435ce9fd3,qgk92kcjct,Nick_Dissertation_EX1,1,40,2020-10-24T10:25:45-07:00,2.5609691143036,4,versionC_stim.csv,READVersionD.csv,"Read Version D","Dissertation, read only version D",LONELY,ALONE,Study2,S,145,171,Study,User,-,,Study/JOL,"Study Phase",1881,,,-1,-1,,,,1
5f4c2efda7461b8435ce9fd3,qgk92kcjct,Nick_Dissertation_EX1,1,41,2020-10-24T10:25:48-07:00,2.549684047699,4,versionC_stim.csv,READVersionD.csv,"Read Version D","Dissertation, read only version D",CLOTHES,CAKE,Study2,U,166,103,Study,User,-,,Study/JOL,"Study Phase",1865,,,-1,-1,,,,1
5f4c2efda7461b8435ce9fd3,qgk92kcjct,Nick_Dissertation_EX1,1,42,2020-10-24T10:25:50-07:00,2.5551059246063,4,versionC_stim.csv,READVersionD.csv,"Read Version D","Dissertation, read only version D",FLIP,TURN,Study2,F,116,98,Study,User,-,,Study/JOL,"Study Phase",1711,,,-1,-1,,,,1
5f4c2efda7461b8435ce9fd3,qgk92kcjct,Nick_Dissertation_EX1,1,43,2020-10-24T10:25:52-07:00,2.0170290470123,4,versionC_stim.csv,READVersionD.csv,"Read Version D","Dissertation, read only version D",COLD,CHILL,Study2,B,114,116,Study,User,-,,Study/JOL,"Study Phase",1299,,,-1,-1,,,,1
5f4c2efda7461b8435ce9fd3,qgk92kcjct,Nick_Dissertation_EX1,1,44,2020-10-24T10:25:54-07:00,1.4646618366241,4,versionC_stim.csv,READVersionD.csv,"Read Version D","Dissertation, read only version D",BANG,FUZZY,Study2,U,168,122,Study,User,-,,Study/JOL,"Study Phase",748,,,-1,-1,,,,1
5f4c2efda7461b8435ce9fd3,qgk92kcjct,Nick_Dissertation_EX1,1,45,2020-10-24T10:25:56-07:00,2.5799751281738,4,versionC_stim.csv,READVersionD.csv,"Read Version D","Dissertation, read only version D",PLANT,CACTUS,Study2,B,98,163,Study,User,-,,Study/JOL,"Study Phase",1693,,,-1,-1,,,,1
5f4c2efda7461b8435ce9fd3,qgk92kcjct,Nick_Dissertation_EX1,1,46,2020-10-24T10:25:59-07:00,2.8835690021515,4,versionC_stim.csv,READVersionD.csv,"Read Version D","Dissertation, read only version D",LOVE,AFFECTION,Study2,B,115,156,Study,User,-,,Study/JOL,"Study Phase",1932,,,-1,-1,,,,1
5f4c2efda7461b8435ce9fd3,qgk92kcjct,Nick_Dissertation_EX1,1,47,2020-10-24T10:26:02-07:00,2.5825710296631,4,versionC_stim.csv,READVersionD.csv,"Read Version D","Dissertation, read only version D",SEATBELT,SAFETY,Study2,S,147,109,Study,User,-,,Study/JOL,"Study Phase",1637,,,-1,-1,,,,1
5f4c2efda7461b8435ce9fd3,qgk92kcjct,Nick_Dissertation_EX1,1,48,2020-10-24T10:26:04-07:00,1.9495630264282,4,versionC_stim.csv,READVersionD.csv,"Read Version D","Dissertation, read only version D",COFFIN,DEAD,Study2,F,128,174,Study,User,-,,Study/JOL,"Study Phase",1248,,,-1,-1,,,,1
5f4c2efda7461b8435ce9fd3,qgk92kcjct,Nick_Dissertation_EX1,1,49,2020-10-24T10:26:07-07:00,3.104966878891,4,versionC_stim.csv,READVersionD.csv,"Read Version D","Dissertation, read only version D",STRAWBERRY,FRUIT,Study2,F,124,97,Study,User,-,,Study/JOL,"Study Phase",2393,,,-1,-1,,,,1
5f4c2efda7461b8435ce9fd3,qgk92kcjct,Nick_Dissertation_EX1,1,50,2020-10-24T10:26:10-07:00,2.9996910095215,4,versionC_stim.csv,READVersionD.csv,"Read Version D","Dissertation, read only version D",FAVORITE,BEST,Study2,F,125,130,Study,User,-,,Study/JOL,"Study Phase",2296,,,-1,-1,,,,1
5f4c2efda7461b8435ce9fd3,qgk92kcjct,Nick_Dissertation_EX1,1,51,2020-10-24T10:26:13-07:00,3.244884967804,4,versionC_stim.csv,READVersionD.csv,"Read Version D","Dissertation, read only version D",LIE,TRUTH,Study2,S,148,172,Study,User,-,,Study/JOL,"Study Phase",2554,,,-1,-1,,,,1
5f4c2efda7461b8435ce9fd3,qgk92kcjct,Nick_Dissertation_EX1,1,52,2020-10-24T10:26:16-07:00,2.700010061264,4,versionC_stim.csv,READVersionD.csv,"Read Version D","Dissertation, read only version D",PAPER,DOCUMENT,Study2,B,109,150,Study,User,-,,Study/JOL,"Study Phase",1982,,,-1,-1,,,,1
5f4c2efda7461b8435ce9fd3,qgk92kcjct,Nick_Dissertation_EX1,1,53,2020-10-24T10:26:18-07:00,2.7063279151917,4,versionC_stim.csv,READVersionD.csv,"Read Version D","Dissertation, read only version D",OUNCE,BOTH,Study2,U,172,144,Study,User,-,,Study/JOL,"Study Phase",2021,,,-1,-1,,,,1
5f4c2efda7461b8435ce9fd3,qgk92kcjct,Nick_Dissertation_EX1,1,54,2020-10-24T10:26:21-07:00,2.7293860912323,4,versionC_stim.csv,READVersionD.csv,"Read Version D","Dissertation, read only version D",AWAY,GONE,Study2,S,142,112,Study,User,-,,Study/JOL,"Study Phase",1986,,,-1,-1,,,,1
5f4c2efda7461b8435ce9fd3,qgk92kcjct,Nick_Dissertation_EX1,1,55,2020-10-24T10:26:23-07:00,2.2845480442047,4,versionC_stim.csv,READVersionD.csv,"Read Version D","Dissertation, read only version D",JOKE,KEYS,Study2,U,165,147,Study,User,-,,Study/JOL,"Study Phase",1563,,,-1,-1,,,,1
5f4c2efda7461b8435ce9fd3,qgk92kcjct,Nick_Dissertation_EX1,1,56,2020-10-24T10:26:26-07:00,2.5853550434113,4,versionC_stim.csv,READVersionD.csv,"Read Version D","Dissertation, read only version D",AIRCRAFT,PLANE,Study2,F,129,148,Study,User,-,,Study/JOL,"Study Phase",1865,,,-1,-1,,,,1
5f4c2efda7461b8435ce9fd3,qgk92kcjct,Nick_Dissertation_EX1,1,57,2020-10-24T10:26:28-07:00,2.2855179309845,4,versionC_stim.csv,READVersionD.csv,"Read Version D","Dissertation, read only version D",BANKER,MONEY,Study2,F,132,124,Study,User,-,,Study/JOL,"Study Phase",1573,,,-1,-1,,,,1
5f4c2efda7461b8435ce9fd3,qgk92kcjct,Nick_Dissertation_EX1,1,58,2020-10-24T10:26:31-07:00,2.5689959526062,4,versionC_stim.csv,READVersionD.csv,"Read Version D","Dissertation, read only version D",COMMUNICATION,PHONE,Study2,S,149,115,Study,User,-,,Study/JOL,"Study Phase",1660,,,-1,-1,,,,1
5f4c2efda7461b8435ce9fd3,qgk92kcjct,Nick_Dissertation_EX1,1,59,2020-10-24T10:26:34-07:00,2.7866630554199,4,versionC_stim.csv,READVersionD.csv,"Read Version D","Dissertation, read only version D",SCAR,MAIN,Study2,U,175,155,Study,User,-,,Study/JOL,"Study Phase",1842,,,-1,-1,,,,1
5f4c2efda7461b8435ce9fd3,qgk92kcjct,Nick_Dissertation_EX1,1,60,2020-10-24T10:26:36-07:00,2.0434648990631,4,versionC_stim.csv,READVersionD.csv,"Read Version D","Dissertation, read only version D",LEAGUE,BASEBALL,Study2,F,131,160,Study,User,-,,Study/JOL,"Study Phase",1321,,,-1,-1,,,,1
5f4c2efda7461b8435ce9fd3,qgk92kcjct,Nick_Dissertation_EX1,1,61,2020-10-24T10:26:38-07:00,2.0251681804657,4,versionC_stim.csv,READVersionD.csv,"Read Version D","Dissertation, read only version D",BALLOON,POP,Study2,F,123,121,Study,User,-,,Study/JOL,"Study Phase",1318,,,-1,-1,,,,1
5f4c2efda7461b8435ce9fd3,qgk92kcjct,Nick_Dissertation_EX1,1,62,2020-10-24T10:26:41-07:00,2.8667049407959,4,versionC_stim.csv,READVersionD.csv,"Read Version D","Dissertation, read only version D",TICK,FLEA,Study2,S,151,145,Study,User,-,,Study/JOL,"Study Phase",2163,,,-1,-1,,,,1
5f4c2efda7461b8435ce9fd3,qgk92kcjct,Nick_Dissertation_EX1,1,63,2020-10-24T10:26:43-07:00,2.0322408676147,4,versionC_stim.csv,READVersionD.csv,"Read Version D","Dissertation, read only version D",PANTHER,CAT,Study2,F,126,125,Study,User,-,,Study/JOL,"Study Phase",1329,,,-1,-1,,,,1
5f4c2efda7461b8435ce9fd3,qgk92kcjct,Nick_Dissertation_EX1,1,64,2020-10-24T10:26:45-07:00,2.0208339691162,4,versionC_stim.csv,READVersionD.csv,"Read Version D","Dissertation, read only version D",HATE,NAME,Study2,U,167,105,Study,User,-,,Study/JOL,"Study Phase",1327,,,-1,-1,,,,1
5f4c2efda7461b8435ce9fd3,qgk92kcjct,Nick_Dissertation_EX1,1,65,2020-10-24T10:26:47-07:00,2.5756430625916,4,versionC_stim.csv,READVersionD.csv,"Read Version D","Dissertation, read only version D",MAROON,JUSTICE,Study2,U,156,123,Study,User,-,,Study/JOL,"Study Phase",1753,,,-1,-1,,,,1
5f4c2efda7461b8435ce9fd3,qgk92kcjct,Nick_Dissertation_EX1,1,66,2020-10-24T10:26:49-07:00,2.0099980831146,4,versionC_stim.csv,READVersionD.csv,"Read Version D","Dissertation, read only version D",Morning,TEMPERATURE,Study2,U,173,151,Study,User,-,,Study/JOL,"Study Phase",1312,,,-1,-1,,,,1
5f4c2efda7461b8435ce9fd3,qgk92kcjct,Nick_Dissertation_EX1,1,67,2020-10-24T10:26:51-07:00,2.129497051239,4,versionC_stim.csv,READVersionD.csv,"Read Version D","Dissertation, read only version D",BRACELET,WRIST,Study2,S,140,170,Study,User,-,,Study/JOL,"Study Phase",1414,,,-1,-1,,,,1
5f4c2efda7461b8435ce9fd3,qgk92kcjct,Nick_Dissertation_EX1,1,68,2020-10-24T10:26:53-07:00,1.740208864212,4,versionC_stim.csv,READVersionD.csv,"Read Version D","Dissertation, read only version D",ACTRESS,STAR,Study2,F,120,108,Study,User,-,,Study/JOL,"Study Phase",1051,,,-1,-1,,,,1
5f4c2efda7461b8435ce9fd3,qgk92kcjct,Nick_Dissertation_EX1,1,69,2020-10-24T10:26:55-07:00,1.9950549602509,4,versionC_stim.csv,READVersionD.csv,"Read Version D","Dissertation, read only version D",CARBON,ELEMENT,Study2,S,141,173,Study,User,-,,Study/JOL,"Study Phase",1290,,,-1,-1,,,,1
5f4c2efda7461b8435ce9fd3,qgk92kcjct,Nick_Dissertation_EX1,1,70,2020-10-24T10:26:58-07:00,2.5991079807281,4,versionC_stim.csv,READVersionD.csv,"Read Version D","Dissertation, read only version D",CLOTH,STRETCH,Study2,U,157,113,Study,User,-,,Study/JOL,"Study Phase",1903,,,-1,-1,,,,1
5f4c2efda7461b8435ce9fd3,qgk92kcjct,Nick_Dissertation_EX1,1,71,2020-10-24T10:26:59-07:00,1.4905672073364,4,versionC_stim.csv,READVersionD.csv,"Read Version D","Dissertation, read only version D",PENGUIN,BIRD,Study2,F,119,137,Study,User,-,,Study/JOL,"Study Phase",789,,,-1,-1,,,,1
5f4c2efda7461b8435ce9fd3,qgk92kcjct,Nick_Dissertation_EX1,1,72,2020-10-24T10:27:01-07:00,1.769809961319,4,versionC_stim.csv,READVersionD.csv,"Read Version D","Dissertation, read only version D",CAR,DRIVER,Study2,B,106,152,Study,User,-,,Study/JOL,"Study Phase",1078,,,-1,-1,,,,1
5f4c2efda7461b8435ce9fd3,qgk92kcjct,Nick_Dissertation_EX1,1,73,2020-10-24T10:27:03-07:00,1.5896348953247,4,versionC_stim.csv,READVersionD.csv,"Read Version D","Dissertation, read only version D",CLEAR,MOAT,Study2,U,169,165,Study,User,-,,Study/JOL,"Study Phase",898,,,-1,-1,,,,1
5f4c2efda7461b8435ce9fd3,qgk92kcjct,Nick_Dissertation_EX1,1,74,2020-10-24T10:27:05-07:00,1.9551639556885,4,versionC_stim.csv,READVersionD.csv,"Read Version D","Dissertation, read only version D",SIGN,LOAN,Study2,U,171,169,Study,User,-,,Study/JOL,"Study Phase",1268,,,-1,-1,,,,1
5f4c2efda7461b8435ce9fd3,qgk92kcjct,Nick_Dissertation_EX1,1,75,2020-10-24T10:27:06-07:00,1.7044751644135,4,versionC_stim.csv,READVersionD.csv,"Read Version D","Dissertation, read only version D",TAN,SUN,Study2,S,155,132,Study,User,-,,Study/JOL,"Study Phase",1012,,,-1,-1,,,,1
5f4c2efda7461b8435ce9fd3,qgk92kcjct,Nick_Dissertation_EX1,1,76,2020-10-24T10:27:08-07:00,1.8708729743958,4,versionC_stim.csv,READVersionD.csv,"Read Version D","Dissertation, read only version D",SCISSORS,SHEARS,Study2,B,112,118,Study,User,-,,Study/JOL,"Study Phase",1172,,,-1,-1,,,,1
5f4c2efda7461b8435ce9fd3,qgk92kcjct,Nick_Dissertation_EX1,1,77,2020-10-24T10:27:10-07:00,1.744127035141,4,versionC_stim.csv,READVersionD.csv,"Read Version D","Dissertation, read only version D",TRASH,LITTER,Study2,B,103,159,Study,User,-,,Study/JOL,"Study Phase",1045,,,-1,-1,,,,1
5f4c2efda7461b8435ce9fd3,qgk92kcjct,Nick_Dissertation_EX1,1,78,2020-10-24T10:27:12-07:00,1.820396900177,4,versionC_stim.csv,READVersionD.csv,"Read Version D","Dissertation, read only version D",SHAKE,Shell,Study2,U,163,129,Study,User,-,,Study/JOL,"Study Phase",1127,,,-1,-1,,,,1
5f4c2efda7461b8435ce9fd3,qgk92kcjct,Nick_Dissertation_EX1,1,79,2020-10-24T10:27:14-07:00,2.6165790557861,4,versionC_stim.csv,READVersionD.csv,"Read Version D","Dissertation, read only version D",EAT,DINE,Study2,B,111,141,Study,User,-,,Study/JOL,"Study Phase",908,,,-1,-1,,,,1
5f4c2efda7461b8435ce9fd3,qgk92kcjct,Nick_Dissertation_EX1,1,80,2020-10-24T10:27:16-07:00,1.5403969287872,4,versionC_stim.csv,READVersionD.csv,"Read Version D","Dissertation, read only version D",WAX,CANDLE,Study2,S,139,153,Study,User,-,,Study/JOL,"Study Phase",855,,,-1,-1,,,,1
5f4c2efda7461b8435ce9fd3,qgk92kcjct,Nick_Dissertation_EX1,1,81,2020-10-24T10:27:18-07:00,2.0303001403809,4,versionC_stim.csv,READVersionD.csv,"Read Version D","Dissertation, read only version D",EQUAL,RIGHTS,Study2,S,137,131,Study,User,-,,Study/JOL,"Study Phase",1344,,,-1,-1,,,,1
5f4c2efda7461b8435ce9fd3,qgk92kcjct,Nick_Dissertation_EX1,1,82,2020-10-24T10:27:20-07:00,2.5555868148804,4,versionC_stim.csv,READVersionD.csv,"Read Version D","Dissertation, read only version D",RED,CHERRY,Study2,B,104,176,Study,User,-,,Study/JOL,"Study Phase",1701,,,-1,-1,,,,1
5f4c2efda7461b8435ce9fd3,qgk92kcjct,Nick_Dissertation_EX1,1,83,2020-10-24T10:27:22-07:00,1.956326007843,4,versionC_stim.csv,READVersionD.csv,"Read Version D","Dissertation, read only version D",ABLE,CRACKLE,Study2,U,162,168,Study,User,-,,Study/JOL,"Study Phase",1266,,,-1,-1,,,,1
5f4c2efda7461b8435ce9fd3,qgk92kcjct,Nick_Dissertation_EX1,1,84,2020-10-24T10:27:25-07:00,2.5632231235504,4,versionC_stim.csv,READVersionD.csv,"Read Version D","Dissertation, read only version D",CUT,CHOP,Study2,B,107,154,Study,User,-,,Study/JOL,"Study Phase",1719,,,-1,-1,,,,1
5f4c2efda7461b8435ce9fd3,qgk92kcjct,Nick_Dissertation_EX1,1,85,2020-10-24T10:27:27-07:00,1.8653268814087,4,versionC_stim.csv,READVersionD.csv,"Read Version D","Dissertation, read only version D",SHAVE,RAZOR,Study2,S,136,111,Study,User,-,,Study/JOL,"Study Phase",1182,,,-1,-1,,,,1
5f4c2efda7461b8435ce9fd3,qgk92kcjct,Nick_Dissertation_EX1,1,86,2020-10-24T10:27:29-07:00,2.1600539684296,4,versionC_stim.csv,READVersionD.csv,"Read Version D","Dissertation, read only version D",GAME,CLUE,Study2,B,97,142,Study,User,-,,Study/JOL,"Study Phase",1479,,,-1,-1,,,,1
5f4c2efda7461b8435ce9fd3,qgk92kcjct,Nick_Dissertation_EX1,1,87,2020-10-24T10:27:30-07:00,1.4152309894562,4,versionC_stim.csv,READVersionD.csv,"Read Version D","Dissertation, read only version D",WEAKS,DAYS,BUFFER4,Buffer,176,181,Study,User,-,,Study/JOL,BUFFER2,731,,,-1,-1,,,,1
5f4c2efda7461b8435ce9fd3,qgk92kcjct,Nick_Dissertation_EX1,1,88,2020-10-24T10:27:32-07:00,1.6939752101898,4,versionC_stim.csv,READVersionD.csv,"Read Version D","Dissertation, read only version D",SHED,TOOL,BUFFER4,Buffer,178,180,Study,User,-,,Study/JOL,BUFFER2,1002,,,-1,-1,,,,1
5f4c2efda7461b8435ce9fd3,qgk92kcjct,Nick_Dissertation_EX1,1,89,2020-10-24T10:27:34-07:00,1.8479628562927,4,versionC_stim.csv,READVersionD.csv,"Read Version D","Dissertation, read only version D",YEAR,MONTH,BUFFER4,Buffer,177,178,Study,User,-,,Study/JOL,BUFFER2,1133,,,-1,-1,,,,1
5f4c2efda7461b8435ce9fd3,qgk92kcjct,Nick_Dissertation_EX1,1,90,2020-10-24T10:27:36-07:00,1.734925031662,4,versionC_stim.csv,READVersionD.csv,"Read Version D","Dissertation, read only version D",MARCH,SPRING,BUFFER4,Buffer,179,177,Study,User,-,,Study/JOL,BUFFER2,1039,,,-1,-1,,,,1
5f4c2efda7461b8435ce9fd3,qgk92kcjct,Nick_Dissertation_EX1,1,91,2020-10-24T10:27:38-07:00,2.5609529018402,4,versionC_stim.csv,READVersionD.csv,"Read Version D","Dissertation, read only version D",SPOOKY,OCTOBER,BUFFER4,Buffer,180,179,Study,User,-,,Study/JOL,BUFFER2,1615,,,-1,-1,,,,1
5f4c2efda7461b8435ce9fd3,qgk92kcjct,Nick_Dissertation_EX1,1,92,2020-10-24T10:27:41-07:00,2.8835589885712,4,versionC_stim.csv,READVersionD.csv,"Read Version D","Dissertation, read only version D",,,,,,0,Instruct,User,-,"You have completed this section. Please press Enter.",Filler_Instruction,Instruct2,1912,,,-1,-1,,,,1
5f4c2efda7461b8435ce9fd3,qgk92kcjct,Nick_Dissertation_EX1,1,93,2020-10-24T10:29:42-07:00,120.92871713638,4,versionC_stim.csv,READVersionD.csv,"Read Version D","Dissertation, read only version D",,,,,,0,FreeRecall,120,120,"Please list the 50 US states in alphabetical order. The task will automatically advance to the next screen after two minutes.",,Filler1,120002,"Alabama , california, florida, ohio, texas , washington",0,10493,100684,0,0,,0.937
5f4c2efda7461b8435ce9fd3,qgk92kcjct,Nick_Dissertation_EX1,1,94,2020-10-24T10:29:55-07:00,13.145531892776,4,versionC_stim.csv,READVersionD.csv,"Read Version D","Dissertation, read only version D",,,,,,0,Instruct,-,10,"You will now be presented with the first word from each of the previously studied item pairs. Please type the missing word. If you do not know the word, you may guess or press Enter to skip forward to the next pair.",,Instruct3,12433,,,-1,-1,,,,1
5f4c2efda7461b8435ce9fd3,qgk92kcjct,Nick_Dissertation_EX1,1,95,2020-10-24T10:29:59-07:00,3.4516830444336,4,versionC_stim.csv,READVersionD.csv,"Read Version D","Dissertation, read only version D",SARDINE,FISH,Study2,F,130,128,Test,User,-,,Recall,Recall1,2656,fish,100,1696,2327,1,1,,1
5f4c2efda7461b8435ce9fd3,qgk92kcjct,Nick_Dissertation_EX1,1,96,2020-10-24T10:30:02-07:00,3.2021970748901,4,versionC_stim.csv,READVersionD.csv,"Read Version D","Dissertation, read only version D",ABLE,CRACKLE,Study2,U,162,168,Test,User,-,,Recall,Recall1,2490,to,0,2074,2257,0,0,,1
5f4c2efda7461b8435ce9fd3,qgk92kcjct,Nick_Dissertation_EX1,1,97,2020-10-24T10:30:05-07:00,3.0551540851593,4,versionC_stim.csv,READVersionD.csv,"Read Version D","Dissertation, read only version D",BRACELET,WRIST,Study2,S,140,170,Test,User,-,,Recall,Recall1,2332,on,0,1732,1891,0,0,,1
5f4c2efda7461b8435ce9fd3,qgk92kcjct,Nick_Dissertation_EX1,1,98,2020-10-24T10:32:18-07:00,133.40419983864,4,versionC_stim.csv,READVersionD.csv,"Read Version D","Dissertation, read only version D",HAVE,OWN,Study2,S,153,140,Test,User,-,,Recall,Recall1,3843,NOT,33.333333333333,2643,3706,0,0,,1
5f4c2efda7461b8435ce9fd3,qgk92kcjct,Nick_Dissertation_EX1,1,99,2020-10-24T10:32:22-07:00,3.4855980873108,4,versionC_stim.csv,READVersionD.csv,"Read Version D","Dissertation, read only version D",TAN,SUN,Study2,S,155,132,Test,User,-,,Recall,Recall1,2711,JAM,0,2246,2461,0,0,,1
5f4c2efda7461b8435ce9fd3,qgk92kcjct,Nick_Dissertation_EX1,1,100,2020-10-24T10:32:25-07:00,2.8249268531799,4,versionC_stim.csv,READVersionD.csv,"Read Version D","Dissertation, read only version D",FLIP,TURN,Study2,F,116,98,Test,User,-,,Recall,Recall1,2058,FLOP,0,1297,1833,0,0,,1
5f4c2efda7461b8435ce9fd3,qgk92kcjct,Nick_Dissertation_EX1,1,101,2020-10-24T10:32:28-07:00,2.9499101638794,4,versionC_stim.csv,READVersionD.csv,"Read Version D","Dissertation, read only version D",WAX,CANDLE,Study2,S,139,153,Test,User,-,,Recall,Recall1,2234,CNA,44.444444444444,1265,1688,0,0,,1
5f4c2efda7461b8435ce9fd3,qgk92kcjct,Nick_Dissertation_EX1,1,102,2020-10-24T10:32:31-07:00,3.7952959537506,4,versionC_stim.csv,READVersionD.csv,"Read Version D","Dissertation, read only version D",VILLAIN,BAD,Study2,F,118,133,Test,User,-,,Recall,Recall1,3067,HERO,0,2539,2817,0,0,,1
5f4c2efda7461b8435ce9fd3,qgk92kcjct,Nick_Dissertation_EX1,1,103,2020-10-24T10:32:35-07:00,3.6452069282532,4,versionC_stim.csv,READVersionD.csv,"Read Version D","Dissertation, read only version D",PAPER,DOCUMENT,Study2,B,109,150,Test,User,-,,Recall,Recall1,2936,,0,1496,1967,0,0,,1
5f4c2efda7461b8435ce9fd3,qgk92kcjct,Nick_Dissertation_EX1,1,104,2020-10-24T10:32:37-07:00,1.5352230072021,4,versionC_stim.csv,READVersionD.csv,"Read Version D","Dissertation, read only version D",CLOTH,STRETCH,Study2,U,157,113,Test,User,-,,Recall,Recall1,770,,0,-1,-1,0,0,,1
5f4c2efda7461b8435ce9fd3,qgk92kcjct,Nick_Dissertation_EX1,1,105,2020-10-24T10:32:40-07:00,3.0648760795593,4,versionC_stim.csv,READVersionD.csv,"Read Version D","Dissertation, read only version D",BRAWL,FIGHT,Study2,F,135,102,Test,User,-,,Recall,Recall1,2314,FIGHT,100,1658,2162,1,1,,1
5f4c2efda7461b8435ce9fd3,qgk92kcjct,Nick_Dissertation_EX1,1,106,2020-10-24T10:32:41-07:00,1.6358919143677,4,versionC_stim.csv,READVersionD.csv,"Read Version D","Dissertation, read only version D",SHAKE,Shell,Study2,U,163,129,Test,User,-,,Recall,Recall1,888,,0,-1,-1,0,0,,1
5f4c2efda7461b8435ce9fd3,qgk92kcjct,Nick_Dissertation_EX1,1,107,2020-10-24T10:32:43-07:00,1.494213104248,4,versionC_stim.csv,READVersionD.csv,"Read Version D","Dissertation, read only version D",END,ADJOURN,Study2,B,101,164,Test,User,-,,Recall,Recall1,729,,0,-1,-1,0,0,,1
5f4c2efda7461b8435ce9fd3,qgk92kcjct,Nick_Dissertation_EX1,1,108,2020-10-24T10:32:46-07:00,3.4543309211731,4,versionC_stim.csv,READVersionD.csv,"Read Version D","Dissertation, read only version D",LONELY,ALONE,Study2,S,145,171,Test,User,-,,Recall,Recall1,2675,ALONE,100,1523,2378,1,1,,1
5f4c2efda7461b8435ce9fd3,qgk92kcjct,Nick_Dissertation_EX1,1,109,2020-10-24T10:32:54-07:00,7.7945580482483,4,versionC_stim.csv,READVersionD.csv,"Read Version D","Dissertation, read only version D",SEATBELT,SAFETY,Study2,S,147,109,Test,User,-,,Recall,Recall1,6995,SAFETY,100,1240,2559,1,1,,1
5f4c2efda7461b8435ce9fd3,qgk92kcjct,Nick_Dissertation_EX1,1,110,2020-10-24T10:32:57-07:00,3.2443599700928,4,versionC_stim.csv,READVersionD.csv,"Read Version D","Dissertation, read only version D",WINDSHIELD,CAR,Study2,F,117,101,Test,User,-,,Recall,Recall1,2462,,0,-1,-1,0,0,,1
5f4c2efda7461b8435ce9fd3,qgk92kcjct,Nick_Dissertation_EX1,1,111,2020-10-24T10:32:59-07:00,1.933070898056,4,versionC_stim.csv,READVersionD.csv,"Read Version D","Dissertation, read only version D",MYSTERY,DETECTIVE,Study2,B,100,114,Test,User,-,,Recall,Recall1,1163,,0,-1,-1,0,0,,1
5f4c2efda7461b8435ce9fd3,qgk92kcjct,Nick_Dissertation_EX1,1,112,2020-10-24T10:33:04-07:00,4.5717620849609,4,versionC_stim.csv,READVersionD.csv,"Read Version D","Dissertation, read only version D",PLANT,CACTUS,Study2,B,98,163,Test,User,-,,Recall,Recall1,3809,,0,-1,-1,0,0,,1
5f4c2efda7461b8435ce9fd3,qgk92kcjct,Nick_Dissertation_EX1,1,113,2020-10-24T10:33:06-07:00,1.7958381175995,4,versionC_stim.csv,READVersionD.csv,"Read Version D","Dissertation, read only version D",TIE,SHOELACE,Study2,B,99,139,Test,User,-,,Recall,Recall1,1042,,0,-1,-1,0,0,,1
5f4c2efda7461b8435ce9fd3,qgk92kcjct,Nick_Dissertation_EX1,1,114,2020-10-24T10:33:08-07:00,2.6015717983246,4,versionC_stim.csv,READVersionD.csv,"Read Version D","Dissertation, read only version D",REEL,ROD,Study2,S,150,146,Test,User,-,,Recall,Recall1,1767,,0,-1,-1,0,0,,1
5f4c2efda7461b8435ce9fd3,qgk92kcjct,Nick_Dissertation_EX1,1,115,2020-10-24T10:33:10-07:00,1.6835741996765,4,versionC_stim.csv,READVersionD.csv,"Read Version D","Dissertation, read only version D",NAP,SLEEP,Study2,F,134,138,Test,User,-,,Recall,Recall1,923,,0,-1,-1,0,0,,1
5f4c2efda7461b8435ce9fd3,qgk92kcjct,Nick_Dissertation_EX1,1,116,2020-10-24T10:33:12-07:00,1.7287619113922,4,versionC_stim.csv,READVersionD.csv,"Read Version D","Dissertation, read only version D",COMMUNICATION,PHONE,Study2,S,149,115,Test,User,-,,Recall,Recall1,1004,,0,-1,-1,0,0,,1
5f4c2efda7461b8435ce9fd3,qgk92kcjct,Nick_Dissertation_EX1,1,117,2020-10-24T10:33:13-07:00,1.5578451156616,4,versionC_stim.csv,READVersionD.csv,"Read Version D","Dissertation, read only version D",CHARM,VEHICLE,Study2,U,160,134,Test,User,-,,Recall,Recall1,822,,0,-1,-1,0,0,,1
5f4c2efda7461b8435ce9fd3,qgk92kcjct,Nick_Dissertation_EX1,1,118,2020-10-24T10:33:15-07:00,1.4794719219208,4,versionC_stim.csv,READVersionD.csv,"Read Version D","Dissertation, read only version D",HEAD,SCALP,Study2,B,105,135,Test,User,-,,Recall,Recall1,712,,0,-1,-1,0,0,,1
5f4c2efda7461b8435ce9fd3,qgk92kcjct,Nick_Dissertation_EX1,1,119,2020-10-24T10:33:20-07:00,5.1092069149017,4,versionC_stim.csv,READVersionD.csv,"Read Version D","Dissertation, read only version D",TOIL,LEASE,Study2,U,170,110,Test,User,-,,Recall,Recall1,4325,RENT,22.222222222222,3452,3828,0,0,,1
5f4c2efda7461b8435ce9fd3,qgk92kcjct,Nick_Dissertation_EX1,1,120,2020-10-24T10:33:21-07:00,1.790265083313,4,versionC_stim.csv,READVersionD.csv,"Read Version D","Dissertation, read only version D",DRINK,WATER,Study2,S,143,161,Test,User,-,,Recall,Recall1,1049,,0,-1,-1,0,0,,1
5f4c2efda7461b8435ce9fd3,qgk92kcjct,Nick_Dissertation_EX1,1,121,2020-10-24T10:33:23-07:00,1.6149978637695,4,versionC_stim.csv,READVersionD.csv,"Read Version D","Dissertation, read only version D",TICK,FLEA,Study2,S,151,145,Test,User,-,,Recall,Recall1,887,,0,-1,-1,0,0,,1
5f4c2efda7461b8435ce9fd3,qgk92kcjct,Nick_Dissertation_EX1,1,122,2020-10-24T10:33:24-07:00,1.3006629943848,4,versionC_stim.csv,READVersionD.csv,"Read Version D","Dissertation, read only version D",PANTHER,CAT,Study2,F,126,125,Test,User,-,,Recall,Recall1,585,,0,-1,-1,0,0,,1
5f4c2efda7461b8435ce9fd3,qgk92kcjct,Nick_Dissertation_EX1,1,123,2020-10-24T10:33:28-07:00,3.574657201767,4,versionC_stim.csv,READVersionD.csv,"Read Version D","Dissertation, read only version D",FIGHT,FEUD,Study2,B,113,107,Test,User,-,,Recall,Recall1,2858,BRAWL,0,1642,2609,0,0,,1
5f4c2efda7461b8435ce9fd3,qgk92kcjct,Nick_Dissertation_EX1,1,124,2020-10-24T10:33:30-07:00,1.7192459106445,4,versionC_stim.csv,READVersionD.csv,"Read Version D","Dissertation, read only version D",TRUTHFUL,HONEST,Study2,F,133,117,Test,User,-,,Recall,Recall1,990,,0,-1,-1,0,0,,1
5f4c2efda7461b8435ce9fd3,qgk92kcjct,Nick_Dissertation_EX1,1,125,2020-10-24T10:33:31-07:00,1.4759240150452,4,versionC_stim.csv,READVersionD.csv,"Read Version D","Dissertation, read only version D",SCAR,MAIN,Study2,U,175,155,Test,User,-,,Recall,Recall1,744,,0,-1,-1,0,0,,1
5f4c2efda7461b8435ce9fd3,qgk92kcjct,Nick_Dissertation_EX1,1,126,2020-10-24T10:33:33-07:00,1.5097839832306,4,versionC_stim.csv,READVersionD.csv,"Read Version D","Dissertation, read only version D",SCISSORS,SHEARS,Study2,B,112,118,Test,User,-,,Recall,Recall1,737,,0,-1,-1,0,0,,1
5f4c2efda7461b8435ce9fd3,qgk92kcjct,Nick_Dissertation_EX1,1,127,2020-10-24T10:33:34-07:00,1.611475944519,4,versionC_stim.csv,READVersionD.csv,"Read Version D","Dissertation, read only version D",SHAVE,RAZOR,Study2,S,136,111,Test,User,-,,Recall,Recall1,847,,0,-1,-1,0,0,,1
5f4c2efda7461b8435ce9fd3,qgk92kcjct,Nick_Dissertation_EX1,1,128,2020-10-24T10:33:36-07:00,1.8177630901337,4,versionC_stim.csv,READVersionD.csv,"Read Version D","Dissertation, read only version D",MAROON,JUSTICE,Study2,U,156,123,Test,User,-,,Recall,Recall1,1060,,0,-1,-1,0,0,,1
5f4c2efda7461b8435ce9fd3,qgk92kcjct,Nick_Dissertation_EX1,1,129,2020-10-24T10:33:41-07:00,4.8496990203857,4,versionC_stim.csv,READVersionD.csv,"Read Version D","Dissertation, read only version D",PENGUIN,BIRD,Study2,F,119,137,Test,User,-,,Recall,Recall1,4131,BIRD,100,3186,3955,1,1,,1
5f4c2efda7461b8435ce9fd3,qgk92kcjct,Nick_Dissertation_EX1,1,130,2020-10-24T10:33:43-07:00,1.6459999084473,4,versionC_stim.csv,READVersionD.csv,"Read Version D","Dissertation, read only version D",RED,CHERRY,Study2,B,104,176,Test,User,-,,Recall,Recall1,906,,0,-1,-1,0,0,,1
5f4c2efda7461b8435ce9fd3,qgk92kcjct,Nick_Dissertation_EX1,1,131,2020-10-24T10:33:44-07:00,1.6848709583282,4,versionC_stim.csv,READVersionD.csv,"Read Version D","Dissertation, read only version D",CLEAR,MOAT,Study2,U,169,165,Test,User,-,,Recall,Recall1,952,,0,-1,-1,0,0,,1
5f4c2efda7461b8435ce9fd3,qgk92kcjct,Nick_Dissertation_EX1,1,132,2020-10-24T10:33:46-07:00,1.3942129611969,4,versionC_stim.csv,READVersionD.csv,"Read Version D","Dissertation, read only version D",COLD,CHILL,Study2,B,114,116,Test,User,-,,Recall,Recall1,651,,0,-1,-1,0,0,,1
5f4c2efda7461b8435ce9fd3,qgk92kcjct,Nick_Dissertation_EX1,1,133,2020-10-24T10:33:57-07:00,11.290870189667,4,versionC_stim.csv,READVersionD.csv,"Read Version D","Dissertation, read only version D",THIMBLE,THREAD,Study2,F,121,119,Test,User,-,,Recall,Recall1,10543,,0,4630,6110,0,0,,1
5f4c2efda7461b8435ce9fd3,qgk92kcjct,Nick_Dissertation_EX1,1,134,2020-10-24T10:33:59-07:00,1.7148070335388,4,versionC_stim.csv,READVersionD.csv,"Read Version D","Dissertation, read only version D",AIRCRAFT,PLANE,Study2,F,129,148,Test,User,-,,Recall,Recall1,977,,0,-1,-1,0,0,,1
5f4c2efda7461b8435ce9fd3,qgk92kcjct,Nick_Dissertation_EX1,1,135,2020-10-24T10:34:00-07:00,1.6303069591522,4,versionC_stim.csv,READVersionD.csv,"Read Version D","Dissertation, read only version D",WET,DRY,Study2,S,146,157,Test,User,-,,Recall,Recall1,876,,0,-1,-1,0,0,,1
5f4c2efda7461b8435ce9fd3,qgk92kcjct,Nick_Dissertation_EX1,1,136,2020-10-24T10:34:02-07:00,1.5839488506317,4,versionC_stim.csv,READVersionD.csv,"Read Version D","Dissertation, read only version D",DONKEY,MULE,Study2,B,108,162,Test,User,-,,Recall,Recall1,851,,0,-1,-1,0,0,,1
5f4c2efda7461b8435ce9fd3,qgk92kcjct,Nick_Dissertation_EX1,1,137,2020-10-24T10:34:07-07:00,5.4105989933014,4,versionC_stim.csv,READVersionD.csv,"Read Version D","Dissertation, read only version D",STEAK,GIVE,Study2,U,158,136,Test,User,-,,Recall,Recall1,4614,,0,-1,-1,0,0,,1
5f4c2efda7461b8435ce9fd3,qgk92kcjct,Nick_Dissertation_EX1,1,138,2020-10-24T10:34:09-07:00,1.6653470993042,4,versionC_stim.csv,READVersionD.csv,"Read Version D","Dissertation, read only version D",GROUND,EARTH,Study2,S,144,126,Test,User,-,,Recall,Recall1,909,,0,-1,-1,0,0,,1
5f4c2efda7461b8435ce9fd3,qgk92kcjct,Nick_Dissertation_EX1,1,139,2020-10-24T10:34:11-07:00,1.5995600223541,4,versionC_stim.csv,READVersionD.csv,"Read Version D","Dissertation, read only version D",SMELL,INCENSE,Study2,B,110,158,Test,User,-,,Recall,Recall1,874,,0,-1,-1,0,0,,1
5f4c2efda7461b8435ce9fd3,qgk92kcjct,Nick_Dissertation_EX1,1,140,2020-10-24T10:34:12-07:00,1.6450688838959,4,versionC_stim.csv,READVersionD.csv,"Read Version D","Dissertation, read only version D",CUT,CHOP,Study2,B,107,154,Test,User,-,,Recall,Recall1,936,,0,-1,-1,0,0,,1
5f4c2efda7461b8435ce9fd3,qgk92kcjct,Nick_Dissertation_EX1,1,141,2020-10-24T10:34:14-07:00,2.2206971645355,4,versionC_stim.csv,READVersionD.csv,"Read Version D","Dissertation, read only version D",CLOTHES,CAKE,Study2,U,166,103,Test,User,-,,Recall,Recall1,1487,,0,-1,-1,0,0,,1
5f4c2efda7461b8435ce9fd3,qgk92kcjct,Nick_Dissertation_EX1,1,142,2020-10-24T10:34:16-07:00,1.674772977829,4,versionC_stim.csv,READVersionD.csv,"Read Version D","Dissertation, read only version D",BALLOON,POP,Study2,F,123,121,Test,User,-,,Recall,Recall1,968,,0,-1,-1,0,0,,1
5f4c2efda7461b8435ce9fd3,qgk92kcjct,Nick_Dissertation_EX1,1,143,2020-10-24T10:34:18-07:00,2.0635638237,4,versionC_stim.csv,READVersionD.csv,"Read Version D","Dissertation, read only version D",JOKE,KEYS,Study2,U,165,147,Test,User,-,,Recall,Recall1,1352,,0,-1,-1,0,0,,1
5f4c2efda7461b8435ce9fd3,qgk92kcjct,Nick_Dissertation_EX1,1,144,2020-10-24T10:34:19-07:00,1.2862842082977,4,versionC_stim.csv,READVersionD.csv,"Read Version D","Dissertation, read only version D",OBTAIN,MEAT,Study2,U,161,175,Test,User,-,,Recall,Recall1,557,,0,-1,-1,0,0,,1
5f4c2efda7461b8435ce9fd3,qgk92kcjct,Nick_Dissertation_EX1,1,145,2020-10-24T10:34:22-07:00,2.6114490032196,4,versionC_stim.csv,READVersionD.csv,"Read Version D","Dissertation, read only version D",NOISE,LOUD,Study2,S,152,127,Test,User,-,,Recall,Recall1,892,,0,-1,-1,0,0,,1
5f4c2efda7461b8435ce9fd3,qgk92kcjct,Nick_Dissertation_EX1,1,146,2020-10-24T10:34:26-07:00,3.5037670135498,4,versionC_stim.csv,READVersionD.csv,"Read Version D","Dissertation, read only version D",ACTRESS,STAR,Study2,F,120,108,Test,User,-,,Recall,Recall1,2790,STAR,100,1950,2605,1,1,,1
5f4c2efda7461b8435ce9fd3,qgk92kcjct,Nick_Dissertation_EX1,1,147,2020-10-24T10:34:30-07:00,4.5414400100708,4,versionC_stim.csv,READVersionD.csv,"Read Version D","Dissertation, read only version D",CARBON,ELEMENT,Study2,S,141,173,Test,User,-,,Recall,Recall1,3768,ELEMENT,100,1265,3503,1,1,,1
5f4c2efda7461b8435ce9fd3,qgk92kcjct,Nick_Dissertation_EX1,1,148,2020-10-24T10:34:32-07:00,1.5841407775879,4,versionC_stim.csv,READVersionD.csv,"Read Version D","Dissertation, read only version D",CAR,DRIVER,Study2,B,106,152,Test,User,-,,Recall,Recall1,836,,0,-1,-1,0,0,,1
5f4c2efda7461b8435ce9fd3,qgk92kcjct,Nick_Dissertation_EX1,1,149,2020-10-24T10:34:33-07:00,1.3692331314087,4,versionC_stim.csv,READVersionD.csv,"Read Version D","Dissertation, read only version D",LEAGUE,BASEBALL,Study2,F,131,160,Test,User,-,,Recall,Recall1,634,,0,-1,-1,0,0,,1
5f4c2efda7461b8435ce9fd3,qgk92kcjct,Nick_Dissertation_EX1,1,150,2020-10-24T10:34:36-07:00,2.7491149902344,4,versionC_stim.csv,READVersionD.csv,"Read Version D","Dissertation, read only version D",GAME,CLUE,Study2,B,97,142,Test,User,-,,Recall,Recall1,1004,,0,-1,-1,0,0,,1
5f4c2efda7461b8435ce9fd3,qgk92kcjct,Nick_Dissertation_EX1,1,151,2020-10-24T10:34:41-07:00,5.0405089855194,4,versionC_stim.csv,READVersionD.csv,"Read Version D","Dissertation, read only version D",COFFIN,DEAD,Study2,F,128,174,Test,User,-,,Recall,Recall1,4314,DEAD,100,2194,2690,1,1,,1
5f4c2efda7461b8435ce9fd3,qgk92kcjct,Nick_Dissertation_EX1,1,152,2020-10-24T10:34:42-07:00,1.5652470588684,4,versionC_stim.csv,READVersionD.csv,"Read Version D","Dissertation, read only version D",ELECTION,MAZE,Study2,U,159,120,Test,User,-,,Recall,Recall1,830,,0,-1,-1,0,0,,1
5f4c2efda7461b8435ce9fd3,qgk92kcjct,Nick_Dissertation_EX1,1,153,2020-10-24T10:34:44-07:00,1.2550568580627,4,versionC_stim.csv,READVersionD.csv,"Read Version D","Dissertation, read only version D",FICTION,LISTEN,Study2,U,164,106,Test,User,-,,Recall,Recall1,522,,0,-1,-1,0,0,,1
5f4c2efda7461b8435ce9fd3,qgk92kcjct,Nick_Dissertation_EX1,1,154,2020-10-24T10:34:46-07:00,2.2761161327362,4,versionC_stim.csv,READVersionD.csv,"Read Version D","Dissertation, read only version D",JAR,MASON,Study2,S,138,166,Test,User,-,,Recall,Recall1,544,,0,-1,-1,0,0,,1
5f4c2efda7461b8435ce9fd3,qgk92kcjct,Nick_Dissertation_EX1,1,155,2020-10-24T10:34:48-07:00,1.5434648990631,4,versionC_stim.csv,READVersionD.csv,"Read Version D","Dissertation, read only version D",BANKER,MONEY,Study2,F,132,124,Test,User,-,,Recall,Recall1,794,,0,-1,-1,0,0,,1
5f4c2efda7461b8435ce9fd3,qgk92kcjct,Nick_Dissertation_EX1,1,156,2020-10-24T10:34:49-07:00,1.7283289432526,4,versionC_stim.csv,READVersionD.csv,"Read Version D","Dissertation, read only version D",AWAY,GONE,Study2,S,142,112,Test,User,-,,Recall,Recall1,994,,0,-1,-1,0,0,,1
5f4c2efda7461b8435ce9fd3,qgk92kcjct,Nick_Dissertation_EX1,1,157,2020-10-24T10:34:51-07:00,1.4060101509094,4,versionC_stim.csv,READVersionD.csv,"Read Version D","Dissertation, read only version D",BREAKABLE,GLASS,Study2,F,127,143,Test,User,-,,Recall,Recall1,660,,0,-1,-1,0,0,,1
5f4c2efda7461b8435ce9fd3,qgk92kcjct,Nick_Dissertation_EX1,1,158,2020-10-24T10:34:53-07:00,2.4003360271454,4,versionC_stim.csv,READVersionD.csv,"Read Version D","Dissertation, read only version D",LONG,EXTENSION,Study2,B,96,100,Test,User,-,,Recall,Recall1,558,,0,-1,-1,0,0,,1
5f4c2efda7461b8435ce9fd3,qgk92kcjct,Nick_Dissertation_EX1,1,159,2020-10-24T10:34:55-07:00,1.6341509819031,4,versionC_stim.csv,READVersionD.csv,"Read Version D","Dissertation, read only version D",CHILDREN,MIRROR,Study2,U,174,99,Test,User,-,,Recall,Recall1,908,,0,-1,-1,0,0,,1
5f4c2efda7461b8435ce9fd3,qgk92kcjct,Nick_Dissertation_EX1,1,160,2020-10-24T10:34:56-07:00,1.6246140003204,4,versionC_stim.csv,READVersionD.csv,"Read Version D","Dissertation, read only version D",TRASH,LITTER,Study2,B,103,159,Test,User,-,,Recall,Recall1,874,,0,-1,-1,0,0,,1
5f4c2efda7461b8435ce9fd3,qgk92kcjct,Nick_Dissertation_EX1,1,161,2020-10-24T10:34:58-07:00,1.8217370510101,4,versionC_stim.csv,READVersionD.csv,"Read Version D","Dissertation, read only version D",EAT,DINE,Study2,B,111,141,Test,User,-,,Recall,Recall1,1097,,0,-1,-1,0,0,,1
5f4c2efda7461b8435ce9fd3,qgk92kcjct,Nick_Dissertation_EX1,1,162,2020-10-24T10:35:00-07:00,1.7735459804535,4,versionC_stim.csv,READVersionD.csv,"Read Version D","Dissertation, read only version D",DOG,FURRY,Study2,B,102,104,Test,User,-,,Recall,Recall1,1047,,0,-1,-1,0,0,,1
5f4c2efda7461b8435ce9fd3,qgk92kcjct,Nick_Dissertation_EX1,1,163,2020-10-24T10:35:02-07:00,1.6073849201202,4,versionC_stim.csv,READVersionD.csv,"Read Version D","Dissertation, read only version D",HATE,NAME,Study2,U,167,105,Test,User,-,,Recall,Recall1,874,,0,-1,-1,0,0,,1
5f4c2efda7461b8435ce9fd3,qgk92kcjct,Nick_Dissertation_EX1,1,164,2020-10-24T10:35:03-07:00,1.4402599334717,4,versionC_stim.csv,READVersionD.csv,"Read Version D","Dissertation, read only version D",LIE,TRUTH,Study2,S,148,172,Test,User,-,,Recall,Recall1,722,,0,-1,-1,0,0,,1
5f4c2efda7461b8435ce9fd3,qgk92kcjct,Nick_Dissertation_EX1,1,165,2020-10-24T10:35:04-07:00,1.4036731719971,4,versionC_stim.csv,READVersionD.csv,"Read Version D","Dissertation, read only version D",EQUAL,RIGHTS,Study2,S,137,131,Test,User,-,,Recall,Recall1,666,,0,-1,-1,0,0,,1
5f4c2efda7461b8435ce9fd3,qgk92kcjct,Nick_Dissertation_EX1,1,166,2020-10-24T10:35:06-07:00,1.325190782547,4,versionC_stim.csv,READVersionD.csv,"Read Version D","Dissertation, read only version D",OUNCE,BOTH,Study2,U,172,144,Test,User,-,,Recall,Recall1,598,,0,-1,-1,0,0,,1
5f4c2efda7461b8435ce9fd3,qgk92kcjct,Nick_Dissertation_EX1,1,167,2020-10-24T10:35:07-07:00,1.2566080093384,4,versionC_stim.csv,READVersionD.csv,"Read Version D","Dissertation, read only version D",REVENGE,EVEN,Study2,F,122,149,Test,User,-,,Recall,Recall1,531,,0,-1,-1,0,0,,1
5f4c2efda7461b8435ce9fd3,qgk92kcjct,Nick_Dissertation_EX1,1,168,2020-10-24T10:35:08-07:00,1.4836461544037,4,versionC_stim.csv,READVersionD.csv,"Read Version D","Dissertation, read only version D",SIGN,LOAN,Study2,U,171,169,Test,User,-,,Recall,Recall1,761,,0,-1,-1,0,0,,1
5f4c2efda7461b8435ce9fd3,qgk92kcjct,Nick_Dissertation_EX1,1,169,2020-10-24T10:35:10-07:00,1.3429388999939,4,versionC_stim.csv,READVersionD.csv,"Read Version D","Dissertation, read only version D",STRAWBERRY,FRUIT,Study2,F,124,97,Test,User,-,,Recall,Recall1,612,,0,-1,-1,0,0,,1
5f4c2efda7461b8435ce9fd3,qgk92kcjct,Nick_Dissertation_EX1,1,170,2020-10-24T10:35:11-07:00,1.3723320960999,4,versionC_stim.csv,READVersionD.csv,"Read Version D","Dissertation, read only version D",BANG,FUZZY,Study2,U,168,122,Test,User,-,,Recall,Recall1,655,,0,-1,-1,0,0,,1
5f4c2efda7461b8435ce9fd3,qgk92kcjct,Nick_Dissertation_EX1,1,171,2020-10-24T10:35:13-07:00,1.6587598323822,4,versionC_stim.csv,READVersionD.csv,"Read Version D","Dissertation, read only version D",TEMPER,TANTRUM,Study2,S,154,167,Test,User,-,,Recall,Recall1,924,,0,-1,-1,0,0,,1
5f4c2efda7461b8435ce9fd3,qgk92kcjct,Nick_Dissertation_EX1,1,172,2020-10-24T10:35:15-07:00,1.8230590820312,4,versionC_stim.csv,READVersionD.csv,"Read Version D","Dissertation, read only version D",Morning,TEMPERATURE,Study2,U,173,151,Test,User,-,,Recall,Recall1,1094,,0,-1,-1,0,0,,1
5f4c2efda7461b8435ce9fd3,qgk92kcjct,Nick_Dissertation_EX1,1,173,2020-10-24T10:35:16-07:00,1.5684099197388,4,versionC_stim.csv,READVersionD.csv,"Read Version D","Dissertation, read only version D",FAVORITE,BEST,Study2,F,125,130,Test,User,-,,Recall,Recall1,829,,0,-1,-1,0,0,,1
5f4c2efda7461b8435ce9fd3,qgk92kcjct,Nick_Dissertation_EX1,1,174,2020-10-24T10:35:18-07:00,1.6908521652222,4,versionC_stim.csv,READVersionD.csv,"Read Version D","Dissertation, read only version D",LOVE,AFFECTION,Study2,B,115,156,Test,User,-,,Recall,Recall1,955,,0,-1,-1,0,0,,1
5f4c2efda7461b8435ce9fd3,qgk92kcjct,Nick_Dissertation_EX1,1,175,2020-10-24T10:41:24-07:00,366.31209397316,4,versionC_stim.csv,READVersionD.csv,"Read Version D","Dissertation, read only version D",,,,,,0,Instruct,-,10,"You will now be presented with a new set of word pairs. Please study each pair. Remember that your memory will be tested! When finished, press Enter to move to the next pair.",Initial_Instruct,Instruct4,365295,,,-1,-1,,,,0.314
5f4c2efda7461b8435ce9fd3,qgk92kcjct,Nick_Dissertation_EX1,1,176,2020-10-24T10:41:36-07:00,11.436342954636,4,versionC_stim.csv,READVersionD.csv,"Read Version D","Dissertation, read only version D",HIDE,SCARE,BUFFER1,Buffer,4,5,Study,User,-,,Study/JOL,BUFFER3,10653,,,-1,-1,,,,0.722
5f4c2efda7461b8435ce9fd3,qgk92kcjct,Nick_Dissertation_EX1,1,177,2020-10-24T10:41:38-07:00,2.2544910907745,4,versionC_stim.csv,READVersionD.csv,"Read Version D","Dissertation, read only version D",JAM,SPACE,BUFFER1,Buffer,5,6,Study,User,-,,Study/JOL,BUFFER3,1491,,,-1,-1,,,,1
5f4c2efda7461b8435ce9fd3,qgk92kcjct,Nick_Dissertation_EX1,1,178,2020-10-24T10:41:40-07:00,2.591677904129,4,versionC_stim.csv,READVersionD.csv,"Read Version D","Dissertation, read only version D",CATCHER,BASEBALL,BUFFER1,Buffer,2,3,Study,User,-,,Study/JOL,BUFFER3,1562,,,-1,-1,,,,1
5f4c2efda7461b8435ce9fd3,qgk92kcjct,Nick_Dissertation_EX1,1,179,2020-10-24T10:41:45-07:00,4.4515459537506,4,versionC_stim.csv,READVersionD.csv,"Read Version D","Dissertation, read only version D",GREEN,TREES,BUFFER1,Buffer,1,4,Study,User,-,,Study/JOL,BUFFER3,2437,,,-1,-1,,,,1
5f4c2efda7461b8435ce9fd3,qgk92kcjct,Nick_Dissertation_EX1,1,180,2020-10-24T10:41:53-07:00,7.8550081253052,4,versionC_stim.csv,READVersionD.csv,"Read Version D","Dissertation, read only version D",BUTTER,PEANUT,BUFFER1,Buffer,3,2,Study,User,-,,Study/JOL,BUFFER3,7121,,,-1,-1,,,,1
5f4c2efda7461b8435ce9fd3,qgk92kcjct,Nick_Dissertation_EX1,1,181,2020-10-24T10:42:00-07:00,7.2917318344116,4,versionC_stim.csv,READVersionD.csv,"Read Version D","Dissertation, read only version D",NEWS,EDITOR,Study1,B,10,31,Study,User,-,,Study/JOL,"Study Phase2",6549,,,-1,-1,,,,1
5f4c2efda7461b8435ce9fd3,qgk92kcjct,Nick_Dissertation_EX1,1,182,2020-10-24T10:42:06-07:00,5.8909230232239,4,versionC_stim.csv,READVersionD.csv,"Read Version D","Dissertation, read only version D",LION,ART,Study1,U,79,22,Study,User,-,,Study/JOL,"Study Phase2",5153,,,-1,-1,,,,1
5f4c2efda7461b8435ce9fd3,qgk92kcjct,Nick_Dissertation_EX1,1,183,2020-10-24T10:42:09-07:00,2.9304521083832,4,versionC_stim.csv,READVersionD.csv,"Read Version D","Dissertation, read only version D",CAVE,DARK,Study1,F,28,54,Study,User,-,,Study/JOL,"Study Phase2",2186,,,-1,-1,,,,1
5f4c2efda7461b8435ce9fd3,qgk92kcjct,Nick_Dissertation_EX1,1,184,2020-10-24T10:42:17-07:00,8.1838300228119,4,versionC_stim.csv,READVersionD.csv,"Read Version D","Dissertation, read only version D",WIND,BLOW,Study1,S,55,16,Study,User,-,,Study/JOL,"Study Phase2",7459,,,-1,-1,,,,1
5f4c2efda7461b8435ce9fd3,qgk92kcjct,Nick_Dissertation_EX1,1,185,2020-10-24T10:42:23-07:00,6.3191640377045,4,versionC_stim.csv,READVersionD.csv,"Read Version D","Dissertation, read only version D",WORD,SENTENCE,Study1,F,31,66,Study,User,-,,Study/JOL,"Study Phase2",5578,,,-1,-1,,,,1
5f4c2efda7461b8435ce9fd3,qgk92kcjct,Nick_Dissertation_EX1,1,186,2020-10-24T10:42:28-07:00,4.2018468379974,4,versionC_stim.csv,READVersionD.csv,"Read Version D","Dissertation, read only version D",FANTASTIC,GREAT,Study1,F,35,14,Study,User,-,,Study/JOL,"Study Phase2",3444,,,-1,-1,,,,1
5f4c2efda7461b8435ce9fd3,qgk92kcjct,Nick_Dissertation_EX1,1,187,2020-10-24T10:42:37-07:00,9.0000360012054,4,versionC_stim.csv,READVersionD.csv,"Read Version D","Dissertation, read only version D",RACKET,BALL,Study1,F,38,19,Study,User,-,,Study/JOL,"Study Phase2",8295,,,-1,-1,,,,1
5f4c2efda7461b8435ce9fd3,qgk92kcjct,Nick_Dissertation_EX1,1,188,2020-10-24T10:42:44-07:00,7.0987100601196,4,versionC_stim.csv,READVersionD.csv,"Read Version D","Dissertation, read only version D",FLOOR,DISCOVER,Study1,U,71,71,Study,User,-,,Study/JOL,"Study Phase2",6354,,,-1,-1,,,,1
5f4c2efda7461b8435ce9fd3,qgk92kcjct,Nick_Dissertation_EX1,1,189,2020-10-24T10:42:49-07:00,5.0212180614471,4,versionC_stim.csv,READVersionD.csv,"Read Version D","Dissertation, read only version D",ATTIRE,CLOTHES,Study1,F,43,15,Study,User,-,,Study/JOL,"Study Phase2",4311,,,-1,-1,,,,1
5f4c2efda7461b8435ce9fd3,qgk92kcjct,Nick_Dissertation_EX1,1,190,2020-10-24T10:42:51-07:00,2.7301778793335,4,versionC_stim.csv,READVersionD.csv,"Read Version D","Dissertation, read only version D",CAR,HAPPY,Study1,U,77,50,Study,User,-,,Study/JOL,"Study Phase2",1996,,,-1,-1,,,,1
5f4c2efda7461b8435ce9fd3,qgk92kcjct,Nick_Dissertation_EX1,1,191,2020-10-24T10:42:55-07:00,3.189789056778,4,versionC_stim.csv,READVersionD.csv,"Read Version D","Dissertation, read only version D",SIGHT,DEBATE,Study1,U,73,47,Study,User,-,,Study/JOL,"Study Phase2",2467,,,-1,-1,,,,1
5f4c2efda7461b8435ce9fd3,qgk92kcjct,Nick_Dissertation_EX1,1,192,2020-10-24T10:42:57-07:00,2.7136609554291,4,versionC_stim.csv,READVersionD.csv,"Read Version D","Dissertation, read only version D",FISH,TUNA,Study1,B,25,18,Study,User,-,,Study/JOL,"Study Phase2",1874,,,-1,-1,,,,1
5f4c2efda7461b8435ce9fd3,qgk92kcjct,Nick_Dissertation_EX1,1,193,2020-10-24T10:42:59-07:00,1.359295129776,4,versionC_stim.csv,READVersionD.csv,"Read Version D","Dissertation, read only version D",SIP,DRINK,Study1,F,27,49,Study,User,-,,Study/JOL,"Study Phase2",634,,,-1,-1,,,,1
5f4c2efda7461b8435ce9fd3,qgk92kcjct,Nick_Dissertation_EX1,1,194,2020-10-24T10:43:20-07:00,21.502305984497,4,versionC_stim.csv,READVersionD.csv,"Read Version D","Dissertation, read only version D",BAD,DELINQUENT,Study1,B,6,65,Study,User,-,,Study/JOL,"Study Phase2",20724,,,-1,-1,,,,0.471
5f4c2efda7461b8435ce9fd3,qgk92kcjct,Nick_Dissertation_EX1,1,195,2020-10-24T10:43:22-07:00,1.7491438388824,4,versionC_stim.csv,READVersionD.csv,"Read Version D","Dissertation, read only version D",END,BEGIN,Study1,S,54,67,Study,User,-,,Study/JOL,"Study Phase2",969,,,-1,-1,,,,1
5f4c2efda7461b8435ce9fd3,qgk92kcjct,Nick_Dissertation_EX1,1,196,2020-10-24T10:43:25-07:00,2.8647820949554,4,versionC_stim.csv,READVersionD.csv,"Read Version D","Dissertation, read only version D",CLUTTER,PUSHER,Study1,U,66,75,Study,User,-,,Study/JOL,"Study Phase2",2136,,,-1,-1,,,,1
5f4c2efda7461b8435ce9fd3,qgk92kcjct,Nick_Dissertation_EX1,1,197,2020-10-24T10:43:28-07:00,3.4841129779816,4,versionC_stim.csv,READVersionD.csv,"Read Version D","Dissertation, read only version D",COW,HERD,Study1,B,22,12,Study,User,-,,Study/JOL,"Study Phase2",2726,,,-1,-1,,,,1
5f4c2efda7461b8435ce9fd3,qgk92kcjct,Nick_Dissertation_EX1,1,198,2020-10-24T10:43:32-07:00,3.9415860176086,4,versionC_stim.csv,READVersionD.csv,"Read Version D","Dissertation, read only version D",JURY,TRIAL,Study1,S,50,24,Study,User,-,,Study/JOL,"Study Phase2",3225,,,-1,-1,,,,1
5f4c2efda7461b8435ce9fd3,qgk92kcjct,Nick_Dissertation_EX1,1,199,2020-10-24T10:43:38-07:00,5.3852739334106,4,versionC_stim.csv,READVersionD.csv,"Read Version D","Dissertation, read only version D",BUSINESS,DEATH,Study1,U,72,13,Study,User,-,,Study/JOL,"Study Phase2",4661,,,-1,-1,,,,1
5f4c2efda7461b8435ce9fd3,qgk92kcjct,Nick_Dissertation_EX1,1,200,2020-10-24T10:43:41-07:00,3.7502160072327,4,versionC_stim.csv,READVersionD.csv,"Read Version D","Dissertation, read only version D",STOMACH,DIGESTION,Study1,B,7,28,Study,User,-,,Study/JOL,"Study Phase2",2940,,,-1,-1,,,,1
5f4c2efda7461b8435ce9fd3,qgk92kcjct,Nick_Dissertation_EX1,1,201,2020-10-24T10:43:47-07:00,5.3097729682922,4,versionC_stim.csv,READVersionD.csv,"Read Version D","Dissertation, read only version D",HAMMER,CHISEL,Study1,B,9,70,Study,User,-,,Study/JOL,"Study Phase2",4562,,,-1,-1,,,,1
5f4c2efda7461b8435ce9fd3,qgk92kcjct,Nick_Dissertation_EX1,1,202,2020-10-24T10:43:51-07:00,4.464369058609,4,versionC_stim.csv,READVersionD.csv,"Read Version D","Dissertation, read only version D",FUTURE,PAST,Study1,S,61,29,Study,User,-,,Study/JOL,"Study Phase2",3738,,,-1,-1,,,,1
5f4c2efda7461b8435ce9fd3,qgk92kcjct,Nick_Dissertation_EX1,1,203,2020-10-24T10:43:56-07:00,4.3453330993652,4,versionC_stim.csv,READVersionD.csv,"Read Version D","Dissertation, read only version D",ASSIGNMENT,DUE,Study1,S,46,82,Study,User,-,,Study/JOL,"Study Phase2",3587,,,-1,-1,,,,1
5f4c2efda7461b8435ce9fd3,qgk92kcjct,Nick_Dissertation_EX1,1,204,2020-10-24T10:44:00-07:00,4.1538219451904,4,versionC_stim.csv,READVersionD.csv,"Read Version D","Dissertation, read only version D",ACCIDENT,STRONG,Study1,U,80,74,Study,User,-,,Study/JOL,"Study Phase2",3436,,,-1,-1,,,,1
5f4c2efda7461b8435ce9fd3,qgk92kcjct,Nick_Dissertation_EX1,1,205,2020-10-24T10:44:04-07:00,4.3915629386902,4,versionC_stim.csv,READVersionD.csv,"Read Version D","Dissertation, read only version D",FOOT,SHOE,Study1,S,60,9,Study,User,-,,Study/JOL,"Study Phase2",3656,,,-1,-1,,,,1
5f4c2efda7461b8435ce9fd3,qgk92kcjct,Nick_Dissertation_EX1,1,206,2020-10-24T10:44:09-07:00,4.8900389671326,4,versionC_stim.csv,READVersionD.csv,"Read Version D","Dissertation, read only version D",RIDDLE,SUGAR,Study1,U,81,59,Study,User,-,,Study/JOL,"Study Phase2",4148,,,-1,-1,,,,1
5f4c2efda7461b8435ce9fd3,qgk92kcjct,Nick_Dissertation_EX1,1,207,2020-10-24T10:44:14-07:00,4.7838921546936,4,versionC_stim.csv,READVersionD.csv,"Read Version D","Dissertation, read only version D",FLOWER,ORCHID,Study1,B,24,57,Study,User,-,,Study/JOL,"Study Phase2",4071,,,-1,-1,,,,1
5f4c2efda7461b8435ce9fd3,qgk92kcjct,Nick_Dissertation_EX1,1,208,2020-10-24T10:44:18-07:00,4.7203929424286,4,versionC_stim.csv,READVersionD.csv,"Read Version D","Dissertation, read only version D",ATTORNEY,LAW,Study1,F,34,25,Study,User,-,,Study/JOL,"Study Phase2",3956,,,-1,-1,,,,1
5f4c2efda7461b8435ce9fd3,qgk92kcjct,Nick_Dissertation_EX1,1,209,2020-10-24T10:44:26-07:00,7.160425901413,4,versionC_stim.csv,READVersionD.csv,"Read Version D","Dissertation, read only version D",ADD,VALLEY,Study1,U,82,68,Study,User,-,,Study/JOL,"Study Phase2",5437,,,-1,-1,,,,1
5f4c2efda7461b8435ce9fd3,qgk92kcjct,Nick_Dissertation_EX1,1,210,2020-10-24T10:44:30-07:00,4.527624130249,4,versionC_stim.csv,READVersionD.csv,"Read Version D","Dissertation, read only version D",TALK,DISCUSSION,Study1,B,21,85,Study,User,-,,Study/JOL,"Study Phase2",3729,,,-1,-1,,,,1
5f4c2efda7461b8435ce9fd3,qgk92kcjct,Nick_Dissertation_EX1,1,211,2020-10-24T10:44:35-07:00,4.9022040367126,4,versionC_stim.csv,READVersionD.csv,"Read Version D","Dissertation, read only version D",FAMINE,HUNGER,Study1,F,40,40,Study,User,-,,Study/JOL,"Study Phase2",4182,,,-1,-1,,,,1
5f4c2efda7461b8435ce9fd3,qgk92kcjct,Nick_Dissertation_EX1,1,212,2020-10-24T10:44:39-07:00,3.6597938537598,4,versionC_stim.csv,READVersionD.csv,"Read Version D","Dissertation, read only version D",ROCK,GEOLOGY,Study1,B,19,44,Study,User,-,,Study/JOL,"Study Phase2",2933,,,-1,-1,,,,1
5f4c2efda7461b8435ce9fd3,qgk92kcjct,Nick_Dissertation_EX1,1,213,2020-10-24T10:44:41-07:00,2.7199161052704,4,versionC_stim.csv,READVersionD.csv,"Read Version D","Dissertation, read only version D",LIVER,KIDNEY,Study1,S,53,63,Study,User,-,,Study/JOL,"Study Phase2",1989,,,-1,-1,,,,1
5f4c2efda7461b8435ce9fd3,qgk92kcjct,Nick_Dissertation_EX1,1,214,2020-10-24T10:44:43-07:00,1.894711971283,4,versionC_stim.csv,READVersionD.csv,"Read Version D","Dissertation, read only version D",BAR,GRILL,Study1,S,52,35,Study,User,-,,Study/JOL,"Study Phase2",1177,,,-1,-1,,,,1
5f4c2efda7461b8435ce9fd3,qgk92kcjct,Nick_Dissertation_EX1,1,215,2020-10-24T10:44:49-07:00,5.3496150970459,4,versionC_stim.csv,READVersionD.csv,"Read Version D","Dissertation, read only version D",CLEAN,HYGIENE,Study1,B,17,77,Study,User,-,,Study/JOL,"Study Phase2",4630,,,-1,-1,,,,1
5f4c2efda7461b8435ce9fd3,qgk92kcjct,Nick_Dissertation_EX1,1,216,2020-10-24T10:44:53-07:00,4.5559020042419,4,versionC_stim.csv,READVersionD.csv,"Read Version D","Dissertation, read only version D",WOULD,CASH,Study1,U,83,8,Study,User,-,,Study/JOL,"Study Phase2",3812,,,-1,-1,,,,1
5f4c2efda7461b8435ce9fd3,qgk92kcjct,Nick_Dissertation_EX1,1,217,2020-10-24T10:44:57-07:00,4.0553538799286,4,versionC_stim.csv,READVersionD.csv,"Read Version D","Dissertation, read only version D",CHORE,WORK,Study1,F,39,46,Study,User,-,,Study/JOL,"Study Phase2",3346,,,-1,-1,,,,1
5f4c2efda7461b8435ce9fd3,qgk92kcjct,Nick_Dissertation_EX1,1,218,2020-10-24T10:45:03-07:00,5.5696160793304,4,versionC_stim.csv,READVersionD.csv,"Read Version D","Dissertation, read only version D",ROUND,CIRCLE,Study1,S,65,33,Study,User,-,,Study/JOL,"Study Phase2",4847,,,-1,-1,,,,1
5f4c2efda7461b8435ce9fd3,qgk92kcjct,Nick_Dissertation_EX1,1,219,2020-10-24T10:45:07-07:00,4.4065279960632,4,versionC_stim.csv,READVersionD.csv,"Read Version D","Dissertation, read only version D",WATER,BRIDGE,Study1,B,18,30,Study,User,-,,Study/JOL,"Study Phase2",3591,,,-1,-1,,,,1
5f4c2efda7461b8435ce9fd3,qgk92kcjct,Nick_Dissertation_EX1,1,220,2020-10-24T10:45:13-07:00,5.9840340614319,4,versionC_stim.csv,READVersionD.csv,"Read Version D","Dissertation, read only version D",BLAZE,FIRE,Study1,F,45,27,Study,User,-,,Study/JOL,"Study Phase2",5210,,,-1,-1,,,,1
5f4c2efda7461b8435ce9fd3,qgk92kcjct,Nick_Dissertation_EX1,1,221,2020-10-24T10:45:21-07:00,7.3840298652649,4,versionC_stim.csv,READVersionD.csv,"Read Version D","Dissertation, read only version D",AMOUNT,NUMBER,Study1,S,47,45,Study,User,-,,Study/JOL,"Study Phase2",6651,,,-1,-1,,,,1
5f4c2efda7461b8435ce9fd3,qgk92kcjct,Nick_Dissertation_EX1,1,222,2020-10-24T10:45:26-07:00,5.219437122345,4,versionC_stim.csv,READVersionD.csv,"Read Version D","Dissertation, read only version D",CHEESE,WINE,Study1,S,57,10,Study,User,-,,Study/JOL,"Study Phase2",4464,,,-1,-1,,,,1
5f4c2efda7461b8435ce9fd3,qgk92kcjct,Nick_Dissertation_EX1,1,223,2020-10-24T10:45:30-07:00,3.775367975235,4,versionC_stim.csv,READVersionD.csv,"Read Version D","Dissertation, read only version D",ENOUGH,FULL,Study1,F,26,38,Study,User,-,,Study/JOL,"Study Phase2",3023,,,-1,-1,,,,1
5f4c2efda7461b8435ce9fd3,qgk92kcjct,Nick_Dissertation_EX1,1,224,2020-10-24T10:45:33-07:00,3.685889005661,4,versionC_stim.csv,READVersionD.csv,"Read Version D","Dissertation, read only version D",DROWSY,SLEEP,Study1,F,41,53,Study,User,-,,Study/JOL,"Study Phase2",2960,,,-1,-1,,,,1
5f4c2efda7461b8435ce9fd3,qgk92kcjct,Nick_Dissertation_EX1,1,225,2020-10-24T10:45:37-07:00,3.5191099643707,4,versionC_stim.csv,READVersionD.csv,"Read Version D","Dissertation, read only version D",PILOT,PLANE,Study1,F,44,36,Study,User,-,,Study/JOL,"Study Phase2",2780,,,-1,-1,,,,1
5f4c2efda7461b8435ce9fd3,qgk92kcjct,Nick_Dissertation_EX1,1,226,2020-10-24T10:45:39-07:00,2.5512728691101,4,versionC_stim.csv,READVersionD.csv,"Read Version D","Dissertation, read only version D",SODA,POP,Study1,S,56,52,Study,User,-,,Study/JOL,"Study Phase2",1734,,,-1,-1,,,,1
5f4c2efda7461b8435ce9fd3,qgk92kcjct,Nick_Dissertation_EX1,1,227,2020-10-24T10:45:43-07:00,3.2078030109406,4,versionC_stim.csv,READVersionD.csv,"Read Version D","Dissertation, read only version D",CARD,CREDIT,Study1,B,23,37,Study,User,-,,Study/JOL,"Study Phase2",2207,,,-1,-1,,,,1
5f4c2efda7461b8435ce9fd3,qgk92kcjct,Nick_Dissertation_EX1,1,228,2020-10-24T10:45:46-07:00,3.6702520847321,4,versionC_stim.csv,READVersionD.csv,"Read Version D","Dissertation, read only version D",DEFINITION,MEANING,Study1,S,62,32,Study,User,-,,Study/JOL,"Study Phase2",2893,,,-1,-1,,,,1
5f4c2efda7461b8435ce9fd3,qgk92kcjct,Nick_Dissertation_EX1,1,229,2020-10-24T10:45:49-07:00,2.6547420024872,4,versionC_stim.csv,READVersionD.csv,"Read Version D","Dissertation, read only version D",BEE,HONEY,Study1,S,63,55,Study,User,-,,Study/JOL,"Study Phase2",1931,,,-1,-1,,,,1
5f4c2efda7461b8435ce9fd3,qgk92kcjct,Nick_Dissertation_EX1,1,230,2020-10-24T10:45:54-07:00,5.0613169670105,4,versionC_stim.csv,READVersionD.csv,"Read Version D","Dissertation, read only version D",WASP,BUG,Study1,F,32,69,Study,User,-,,Study/JOL,"Study Phase2",4308,,,-1,-1,,,,1
5f4c2efda7461b8435ce9fd3,qgk92kcjct,Nick_Dissertation_EX1,1,231,2020-10-24T10:46:29-07:00,34.757734060287,4,versionC_stim.csv,READVersionD.csv,"Read Version D","Dissertation, read only version D",SEIZE,TAKE,Study1,F,29,48,Study,User,-,,Study/JOL,"Study Phase2",2352,,,-1,-1,,,,1
5f4c2efda7461b8435ce9fd3,qgk92kcjct,Nick_Dissertation_EX1,1,232,2020-10-24T10:46:34-07:00,5.5656099319458,4,versionC_stim.csv,READVersionD.csv,"Read Version D","Dissertation, read only version D",CHILD,BABY,Study1,S,64,62,Study,User,-,,Study/JOL,"Study Phase2",4794,,,-1,-1,,,,0.708
5f4c2efda7461b8435ce9fd3,qgk92kcjct,Nick_Dissertation_EX1,1,233,2020-10-24T10:46:46-07:00,11.546178102493,4,versionC_stim.csv,READVersionD.csv,"Read Version D","Dissertation, read only version D",WAR,REVOLUTION,Study1,B,20,78,Study,User,-,,Study/JOL,"Study Phase2",2922,,,-1,-1,,,,1
5f4c2efda7461b8435ce9fd3,qgk92kcjct,Nick_Dissertation_EX1,1,234,2020-10-24T10:46:53-07:00,7.2197518348694,4,versionC_stim.csv,READVersionD.csv,"Read Version D","Dissertation, read only version D",TUCK,ALLOW,Study1,U,78,60,Study,User,-,,Study/JOL,"Study Phase2",5925,,,-1,-1,,,,0.167
5f4c2efda7461b8435ce9fd3,qgk92kcjct,Nick_Dissertation_EX1,1,235,2020-10-24T10:47:48-07:00,54.75777220726,4,versionC_stim.csv,READVersionD.csv,"Read Version D","Dissertation, read only version D",BRONZE,ARTERY,Study1,U,74,86,Study,User,-,,Study/JOL,"Study Phase2",8094,,,-1,-1,,,,1
5f4c2efda7461b8435ce9fd3,qgk92kcjct,Nick_Dissertation_EX1,1,236,2020-10-24T10:47:57-07:00,8.8152668476105,4,versionC_stim.csv,READVersionD.csv,"Read Version D","Dissertation, read only version D",TOILET,BATHROOM,Study1,S,58,84,Study,User,-,,Study/JOL,"Study Phase2",7973,,,-1,-1,,,,1
5f4c2efda7461b8435ce9fd3,qgk92kcjct,Nick_Dissertation_EX1,1,237,2020-10-24T10:48:30-07:00,33.179760932922,4,versionC_stim.csv,READVersionD.csv,"Read Version D","Dissertation, read only version D",LATCH,KEY,Study1,F,36,83,Study,User,-,,Study/JOL,"Study Phase2",1730,,,-1,-1,,,,1
5f4c2efda7461b8435ce9fd3,qgk92kcjct,Nick_Dissertation_EX1,1,238,2020-10-24T10:48:36-07:00,5.9026780128479,4,versionC_stim.csv,READVersionD.csv,"Read Version D","Dissertation, read only version D",PLANT,ROOT,Study1,B,13,21,Study,User,-,,Study/JOL,"Study Phase2",4856,,,-1,-1,,,,1
5f4c2efda7461b8435ce9fd3,qgk92kcjct,Nick_Dissertation_EX1,1,239,2020-10-24T10:48:43-07:00,7.0689961910248,4,versionC_stim.csv,READVersionD.csv,"Read Version D","Dissertation, read only version D",POSITION,MACHINE,Study1,U,76,26,Study,User,-,,Study/JOL,"Study Phase2",5503,,,-1,-1,,,,1
5f4c2efda7461b8435ce9fd3,qgk92kcjct,Nick_Dissertation_EX1,1,240,2020-10-24T10:48:47-07:00,4.6950979232788,4,versionC_stim.csv,READVersionD.csv,"Read Version D","Dissertation, read only version D",GROWTH,HEIGHT,Study1,F,30,64,Study,User,-,,Study/JOL,"Study Phase2",3896,,,-1,-1,,,,1
5f4c2efda7461b8435ce9fd3,qgk92kcjct,Nick_Dissertation_EX1,1,241,2020-10-24T10:48:52-07:00,4.7269198894501,4,versionC_stim.csv,READVersionD.csv,"Read Version D","Dissertation, read only version D",BELT,SOON,Study1,U,70,39,Study,User,-,,Study/JOL,"Study Phase2",3999,,,-1,-1,,,,1
5f4c2efda7461b8435ce9fd3,qgk92kcjct,Nick_Dissertation_EX1,1,242,2020-10-24T10:48:57-07:00,5.239312171936,4,versionC_stim.csv,READVersionD.csv,"Read Version D","Dissertation, read only version D",BIRD,SWAN,Study1,B,14,41,Study,User,-,,Study/JOL,"Study Phase2",4542,,,-1,-1,,,,1
5f4c2efda7461b8435ce9fd3,qgk92kcjct,Nick_Dissertation_EX1,1,243,2020-10-24T10:49:02-07:00,4.5752339363098,4,versionC_stim.csv,READVersionD.csv,"Read Version D","Dissertation, read only version D",HAND,FIX,Study1,U,75,76,Study,User,-,,Study/JOL,"Study Phase2",3828,,,-1,-1,,,,1
5f4c2efda7461b8435ce9fd3,qgk92kcjct,Nick_Dissertation_EX1,1,244,2020-10-24T10:49:07-07:00,4.9043929576874,4,versionC_stim.csv,READVersionD.csv,"Read Version D","Dissertation, read only version D",WOMAN,LIFT,Study1,U,69,79,Study,User,-,,Study/JOL,"Study Phase2",4138,,,-1,-1,,,,1
5f4c2efda7461b8435ce9fd3,qgk92kcjct,Nick_Dissertation_EX1,1,245,2020-10-24T10:49:14-07:00,6.9502511024475,4,versionC_stim.csv,READVersionD.csv,"Read Version D","Dissertation, read only version D",SACKING,DIETARY,Study1,U,67,80,Study,User,-,,Study/JOL,"Study Phase2",6153,,,-1,-1,,,,1
5f4c2efda7461b8435ce9fd3,qgk92kcjct,Nick_Dissertation_EX1,1,246,2020-10-24T10:49:20-07:00,5.7255539894104,4,versionC_stim.csv,READVersionD.csv,"Read Version D","Dissertation, read only version D",WASTE,DUMP,Study1,S,49,42,Study,User,-,,Study/JOL,"Study Phase2",5014,,,-1,-1,,,,1
5f4c2efda7461b8435ce9fd3,qgk92kcjct,Nick_Dissertation_EX1,1,247,2020-10-24T10:49:26-07:00,6.6491379737854,4,versionC_stim.csv,READVersionD.csv,"Read Version D","Dissertation, read only version D",COLD,BITTER,Study1,B,12,34,Study,User,-,,Study/JOL,"Study Phase2",5920,,,-1,-1,,,,1
5f4c2efda7461b8435ce9fd3,qgk92kcjct,Nick_Dissertation_EX1,1,248,2020-10-24T10:49:31-07:00,5.0863678455353,4,versionC_stim.csv,READVersionD.csv,"Read Version D","Dissertation, read only version D",VASE,KING,Study1,U,85,11,Study,User,-,,Study/JOL,"Study Phase2",4366,,,-1,-1,,,,1
5f4c2efda7461b8435ce9fd3,qgk92kcjct,Nick_Dissertation_EX1,1,249,2020-10-24T10:49:36-07:00,4.4158511161804,4,versionC_stim.csv,READVersionD.csv,"Read Version D","Dissertation, read only version D",HUNGRY,PARK,Study1,U,68,23,Study,User,-,,Study/JOL,"Study Phase2",3689,,,-1,-1,,,,1
5f4c2efda7461b8435ce9fd3,qgk92kcjct,Nick_Dissertation_EX1,1,250,2020-10-24T10:49:40-07:00,4.4430968761444,4,versionC_stim.csv,READVersionD.csv,"Read Version D","Dissertation, read only version D",STING,HORNET,Study1,B,11,58,Study,User,-,,Study/JOL,"Study Phase2",3735,,,-1,-1,,,,1
5f4c2efda7461b8435ce9fd3,qgk92kcjct,Nick_Dissertation_EX1,1,251,2020-10-24T10:49:46-07:00,6.223886013031,4,versionC_stim.csv,READVersionD.csv,"Read Version D","Dissertation, read only version D",DIVISION,MATH,Study1,F,33,72,Study,User,-,,Study/JOL,"Study Phase2",4472,,,-1,-1,,,,1
5f4c2efda7461b8435ce9fd3,qgk92kcjct,Nick_Dissertation_EX1,1,252,2020-10-24T10:49:54-07:00,7.3464901447296,4,versionC_stim.csv,READVersionD.csv,"Read Version D","Dissertation, read only version D",DESIGN,ARCHITECTURE,Study1,S,51,17,Study,User,-,,Study/JOL,"Study Phase2",5497,,,-1,-1,,,,1
5f4c2efda7461b8435ce9fd3,qgk92kcjct,Nick_Dissertation_EX1,1,253,2020-10-24T10:50:00-07:00,5.7758719921112,4,versionC_stim.csv,READVersionD.csv,"Read Version D","Dissertation, read only version D",SALAD,LETTUCE,Study1,S,59,81,Study,User,-,,Study/JOL,"Study Phase2",5053,,,-1,-1,,,,1
5f4c2efda7461b8435ce9fd3,qgk92kcjct,Nick_Dissertation_EX1,1,254,2020-10-24T10:50:03-07:00,3.8399188518524,4,versionC_stim.csv,READVersionD.csv,"Read Version D","Dissertation, read only version D",OUT,WAY,Study1,B,16,7,Study,User,-,,Study/JOL,"Study Phase2",3074,,,-1,-1,,,,1
5f4c2efda7461b8435ce9fd3,qgk92kcjct,Nick_Dissertation_EX1,1,255,2020-10-24T10:50:08-07:00,5.0045680999756,4,versionC_stim.csv,READVersionD.csv,"Read Version D","Dissertation, read only version D",DOG,PAW,Study1,B,15,51,Study,User,-,,Study/JOL,"Study Phase2",4266,,,-1,-1,,,,1
5f4c2efda7461b8435ce9fd3,qgk92kcjct,Nick_Dissertation_EX1,1,256,2020-10-24T10:50:13-07:00,4.7145819664001,4,versionC_stim.csv,READVersionD.csv,"Read Version D","Dissertation, read only version D",MONEY,WAGE,Study1,B,8,61,Study,User,-,,Study/JOL,"Study Phase2",3963,,,-1,-1,,,,1
5f4c2efda7461b8435ce9fd3,qgk92kcjct,Nick_Dissertation_EX1,1,257,2020-10-24T10:50:18-07:00,5.2525191307068,4,versionC_stim.csv,READVersionD.csv,"Read Version D","Dissertation, read only version D",CHILI,HOT,Study1,F,37,43,Study,User,-,,Study/JOL,"Study Phase2",4505,,,-1,-1,,,,1
5f4c2efda7461b8435ce9fd3,qgk92kcjct,Nick_Dissertation_EX1,1,258,2020-10-24T10:50:23-07:00,4.7827808856964,4,versionC_stim.csv,READVersionD.csv,"Read Version D","Dissertation, read only version D",SITE,LOCATION,Study1,S,48,73,Study,User,-,,Study/JOL,"Study Phase2",4037,,,-1,-1,,,,1
5f4c2efda7461b8435ce9fd3,qgk92kcjct,Nick_Dissertation_EX1,1,259,2020-10-24T10:50:34-07:00,10.665209054947,4,versionC_stim.csv,READVersionD.csv,"Read Version D","Dissertation, read only version D",SICK,HIDE,Study1,U,84,56,Study,User,-,,Study/JOL,"Study Phase2",9935,,,-1,-1,,,,1
5f4c2efda7461b8435ce9fd3,qgk92kcjct,Nick_Dissertation_EX1,1,260,2020-10-24T10:50:38-07:00,3.8529529571533,4,versionC_stim.csv,READVersionD.csv,"Read Version D","Dissertation, read only version D",STENCH,SMELL,Study1,F,42,20,Study,User,-,,Study/JOL,"Study Phase2",3089,,,-1,-1,,,,1
5f4c2efda7461b8435ce9fd3,qgk92kcjct,Nick_Dissertation_EX1,1,261,2020-10-24T10:50:42-07:00,3.9924371242523,4,versionC_stim.csv,READVersionD.csv,"Read Version D","Dissertation, read only version D",SPACE,MOON,BUFFER2,Buffer,89,87,Study,User,-,,Study/JOL,BUFFER4,3227,,,-1,-1,,,,1
5f4c2efda7461b8435ce9fd3,qgk92kcjct,Nick_Dissertation_EX1,1,262,2020-10-24T10:50:46-07:00,4.0242269039154,4,versionC_stim.csv,READVersionD.csv,"Read Version D","Dissertation, read only version D",CHOCOLATE,MALT,BUFFER2,Buffer,88,89,Study,User,-,,Study/JOL,BUFFER4,3288,,,-1,-1,,,,1
5f4c2efda7461b8435ce9fd3,qgk92kcjct,Nick_Dissertation_EX1,1,263,2020-10-24T10:50:50-07:00,4.3796539306641,4,versionC_stim.csv,READVersionD.csv,"Read Version D","Dissertation, read only version D",GOOSE,GEESE,BUFFER2,Buffer,86,90,Study,User,-,,Study/JOL,BUFFER4,3638,,,-1,-1,,,,1
5f4c2efda7461b8435ce9fd3,qgk92kcjct,Nick_Dissertation_EX1,1,264,2020-10-24T10:51:39-07:00,49.057291030884,4,versionC_stim.csv,READVersionD.csv,"Read Version D","Dissertation, read only version D",STUFF,THING,BUFFER2,Buffer,90,88,Study,User,-,,Study/JOL,BUFFER4,1623,,,-1,-1,,,,1
5f4c2efda7461b8435ce9fd3,qgk92kcjct,Nick_Dissertation_EX1,1,265,2020-10-24T10:51:45-07:00,5.5700011253357,4,versionC_stim.csv,READVersionD.csv,"Read Version D","Dissertation, read only version D",POLICE,SHERRIF,BUFFER2,Buffer,87,91,Study,User,-,,Study/JOL,BUFFER4,4804,,,-1,-1,,,,1
5f4c2efda7461b8435ce9fd3,qgk92kcjct,Nick_Dissertation_EX1,1,266,2020-10-24T10:51:47-07:00,2.6410608291626,4,versionC_stim.csv,READVersionD.csv,"Read Version D","Dissertation, read only version D",,,,,,0,Instruct,User,-,"You have completed this section. Please press Enter.",Filler_Instruction,Instruct5,1853,,,-1,-1,,,,1
5f4c2efda7461b8435ce9fd3,qgk92kcjct,Nick_Dissertation_EX1,1,267,2020-10-24T10:54:41-07:00,173.88568902016,4,versionC_stim.csv,READVersionD.csv,"Read Version D","Dissertation, read only version D",,,,,,0,FreeRecall,120,120,"Please list the 50 US states in reverse alphabetical order (z - a). The task will automatically advance to the next screen after two minutes.",,Filler2,120393,"Washington, texas, ohio , florida , alabama",0,7703,37326,0,0,,0.816
5f4c2efda7461b8435ce9fd3,qgk92kcjct,Nick_Dissertation_EX1,1,268,2020-10-24T10:54:56-07:00,14.534549951553,4,versionC_stim.csv,READVersionD.csv,"Read Version D","Dissertation, read only version D",,,,,,0,Instruct,-,10,"You will now be presented with the first word from each of the previously studied item pairs. Please type the missing word. If you do not know the word, you may guess or press Enter to skip forward to the next pair.",,Instruct6,12786,,,-1,-1,,,,0.968
5f4c2efda7461b8435ce9fd3,qgk92kcjct,Nick_Dissertation_EX1,1,269,2020-10-24T10:54:58-07:00,2.643651008606,4,versionC_stim.csv,READVersionD.csv,"Read Version D","Dissertation, read only version D",BLAZE,FIRE,Study1,F,45,27,Test,User,-,,Recall,Recall2,1708,,0,-1,-1,0,0,,1
5f4c2efda7461b8435ce9fd3,qgk92kcjct,Nick_Dissertation_EX1,1,270,2020-10-24T10:55:04-07:00,5.21013712883,4,versionC_stim.csv,READVersionD.csv,"Read Version D","Dissertation, read only version D",WASP,BUG,Study1,F,32,69,Test,User,-,,Recall,Recall2,4188,STING,25,1411,4011,0,0,,1
5f4c2efda7461b8435ce9fd3,qgk92kcjct,Nick_Dissertation_EX1,1,271,2020-10-24T10:55:06-07:00,2.2943549156189,4,versionC_stim.csv,READVersionD.csv,"Read Version D","Dissertation, read only version D",DOG,PAW,Study1,B,15,51,Test,User,-,,Recall,Recall2,1543,PAW,100,1255,1405,1,1,,1
5f4c2efda7461b8435ce9fd3,qgk92kcjct,Nick_Dissertation_EX1,1,272,2020-10-24T10:55:09-07:00,3.4782531261444,4,versionC_stim.csv,READVersionD.csv,"Read Version D","Dissertation, read only version D",WOMAN,LIFT,Study1,U,69,79,Test,User,-,,Recall,Recall2,2749,LIFT,100,2085,2604,1,1,,1
5f4c2efda7461b8435ce9fd3,qgk92kcjct,Nick_Dissertation_EX1,1,273,2020-10-24T10:55:11-07:00,2.1217269897461,4,versionC_stim.csv,READVersionD.csv,"Read Version D","Dissertation, read only version D",ROUND,CIRCLE,Study1,S,65,33,Test,User,-,,Recall,Recall2,1381,,0,-1,-1,0,0,,1
5f4c2efda7461b8435ce9fd3,qgk92kcjct,Nick_Dissertation_EX1,1,274,2020-10-24T10:55:14-07:00,2.6379008293152,4,versionC_stim.csv,READVersionD.csv,"Read Version D","Dissertation, read only version D",WASTE,DUMP,Study1,S,49,42,Test,User,-,,Recall,Recall2,1890,,0,-1,-1,0,0,,1
5f4c2efda7461b8435ce9fd3,qgk92kcjct,Nick_Dissertation_EX1,1,275,2020-10-24T10:55:16-07:00,1.8552360534668,4,versionC_stim.csv,READVersionD.csv,"Read Version D","Dissertation, read only version D",CHORE,WORK,Study1,F,39,46,Test,User,-,,Recall,Recall2,1106,,0,-1,-1,0,0,,1
5f4c2efda7461b8435ce9fd3,qgk92kcjct,Nick_Dissertation_EX1,1,276,2020-10-24T10:55:17-07:00,1.4652171134949,4,versionC_stim.csv,READVersionD.csv,"Read Version D","Dissertation, read only version D",CHEESE,WINE,Study1,S,57,10,Test,User,-,,Recall,Recall2,724,,0,-1,-1,0,0,,1
5f4c2efda7461b8435ce9fd3,qgk92kcjct,Nick_Dissertation_EX1,1,277,2020-10-24T10:55:19-07:00,1.9573159217834,4,versionC_stim.csv,READVersionD.csv,"Read Version D","Dissertation, read only version D",WORD,SENTENCE,Study1,F,31,66,Test,User,-,,Recall,Recall2,1212,,0,-1,-1,0,0,,1
5f4c2efda7461b8435ce9fd3,qgk92kcjct,Nick_Dissertation_EX1,1,278,2020-10-24T10:55:22-07:00,2.633022069931,4,versionC_stim.csv,READVersionD.csv,"Read Version D","Dissertation, read only version D",ROCK,GEOLOGY,Study1,B,19,44,Test,User,-,,Recall,Recall2,1867,,0,-1,-1,0,0,,1
5f4c2efda7461b8435ce9fd3,qgk92kcjct,Nick_Dissertation_EX1,1,279,2020-10-24T10:55:25-07:00,2.8087909221649,4,versionC_stim.csv,READVersionD.csv,"Read Version D","Dissertation, read only version D",ASSIGNMENT,DUE,Study1,S,46,82,Test,User,-,,Recall,Recall2,2016,DUE,100,1423,1854,1,1,,1
5f4c2efda7461b8435ce9fd3,qgk92kcjct,Nick_Dissertation_EX1,1,280,2020-10-24T10:55:26-07:00,1.5855550765991,4,versionC_stim.csv,READVersionD.csv,"Read Version D","Dissertation, read only version D",WOULD,CASH,Study1,U,83,8,Test,User,-,,Recall,Recall2,822,,0,-1,-1,0,0,,1
5f4c2efda7461b8435ce9fd3,qgk92kcjct,Nick_Dissertation_EX1,1,281,2020-10-24T10:55:46-07:00,19.495710849762,4,versionC_stim.csv,READVersionD.csv,"Read Version D","Dissertation, read only version D",WAR,REVOLUTION,Study1,B,20,78,Test,User,-,,Recall,Recall2,4577,ZONE,28.571428571429,3969,4384,0,0,,1
5f4c2efda7461b8435ce9fd3,qgk92kcjct,Nick_Dissertation_EX1,1,282,2020-10-24T10:55:49-07:00,2.9796040058136,4,versionC_stim.csv,READVersionD.csv,"Read Version D","Dissertation, read only version D",PLANT,ROOT,Study1,B,13,21,Test,User,-,,Recall,Recall2,2222,SEED,0,1630,2126,0,0,,1
5f4c2efda7461b8435ce9fd3,qgk92kcjct,Nick_Dissertation_EX1,1,283,2020-10-24T10:55:53-07:00,4.3138561248779,4,versionC_stim.csv,READVersionD.csv,"Read Version D","Dissertation, read only version D",FISH,TUNA,Study1,B,25,18,Test,User,-,,Recall,Recall2,3545,,0,-1,-1,0,0,,1
5f4c2efda7461b8435ce9fd3,qgk92kcjct,Nick_Dissertation_EX1,1,284,2020-10-24T10:55:55-07:00,1.8704559803009,4,versionC_stim.csv,READVersionD.csv,"Read Version D","Dissertation, read only version D",AMOUNT,NUMBER,Study1,S,47,45,Test,User,-,,Recall,Recall2,1129,,0,-1,-1,0,0,,1
5f4c2efda7461b8435ce9fd3,qgk92kcjct,Nick_Dissertation_EX1,1,285,2020-10-24T10:55:58-07:00,2.936103105545,4,versionC_stim.csv,READVersionD.csv,"Read Version D","Dissertation, read only version D",DIVISION,MATH,Study1,F,33,72,Test,User,-,,Recall,Recall2,2195,,0,-1,-1,0,0,,1
5f4c2efda7461b8435ce9fd3,qgk92kcjct,Nick_Dissertation_EX1,1,286,2020-10-24T10:56:01-07:00,2.7600889205933,4,versionC_stim.csv,READVersionD.csv,"Read Version D","Dissertation, read only version D",BELT,SOON,Study1,U,70,39,Test,User,-,,Recall,Recall2,2013,,0,-1,-1,0,0,,1
5f4c2efda7461b8435ce9fd3,qgk92kcjct,Nick_Dissertation_EX1,1,287,2020-10-24T10:56:12-07:00,11.289319038391,4,versionC_stim.csv,READVersionD.csv,"Read Version D","Dissertation, read only version D",SALAD,LETTUCE,Study1,S,59,81,Test,User,-,,Recall,Recall2,10538,ONION,0,5385,10321,0,0,,1
5f4c2efda7461b8435ce9fd3,qgk92kcjct,Nick_Dissertation_EX1,1,288,2020-10-24T10:56:14-07:00,1.4955139160156,4,versionC_stim.csv,READVersionD.csv,"Read Version D","Dissertation, read only version D",VASE,KING,Study1,U,85,11,Test,User,-,,Recall,Recall2,738,,0,-1,-1,0,0,,1
5f4c2efda7461b8435ce9fd3,qgk92kcjct,Nick_Dissertation_EX1,1,289,2020-10-24T10:56:15-07:00,1.5499761104584,4,versionC_stim.csv,READVersionD.csv,"Read Version D","Dissertation, read only version D",SITE,LOCATION,Study1,S,48,73,Test,User,-,,Recall,Recall2,798,,0,-1,-1,0,0,,1
5f4c2efda7461b8435ce9fd3,qgk92kcjct,Nick_Dissertation_EX1,1,290,2020-10-24T10:56:17-07:00,2.0291719436646,4,versionC_stim.csv,READVersionD.csv,"Read Version D","Dissertation, read only version D",FANTASTIC,GREAT,Study1,F,35,14,Test,User,-,,Recall,Recall2,1272,,0,-1,-1,0,0,,1
5f4c2efda7461b8435ce9fd3,qgk92kcjct,Nick_Dissertation_EX1,1,291,2020-10-24T10:56:19-07:00,1.9937398433685,4,versionC_stim.csv,READVersionD.csv,"Read Version D","Dissertation, read only version D",LION,ART,Study1,U,79,22,Test,User,-,,Recall,Recall2,1217,,0,-1,-1,0,0,,1
5f4c2efda7461b8435ce9fd3,qgk92kcjct,Nick_Dissertation_EX1,1,292,2020-10-24T10:56:23-07:00,4.0012130737305,4,versionC_stim.csv,READVersionD.csv,"Read Version D","Dissertation, read only version D",CHILI,HOT,Study1,F,37,43,Test,User,-,,Recall,Recall2,3224,PEPPER,0,2273,3040,0,0,,1
5f4c2efda7461b8435ce9fd3,qgk92kcjct,Nick_Dissertation_EX1,1,293,2020-10-24T10:56:25-07:00,1.6255309581757,4,versionC_stim.csv,READVersionD.csv,"Read Version D","Dissertation, read only version D",ADD,VALLEY,Study1,U,82,68,Test,User,-,,Recall,Recall2,872,,0,-1,-1,0,0,,1
5f4c2efda7461b8435ce9fd3,qgk92kcjct,Nick_Dissertation_EX1,1,294,2020-10-24T10:56:28-07:00,3.727530002594,4,versionC_stim.csv,READVersionD.csv,"Read Version D","Dissertation, read only version D",TOILET,BATHROOM,Study1,S,58,84,Test,User,-,,Recall,Recall2,2976,,0,-1,-1,0,0,,1
5f4c2efda7461b8435ce9fd3,qgk92kcjct,Nick_Dissertation_EX1,1,295,2020-10-24T10:56:33-07:00,4.9251620769501,4,versionC_stim.csv,READVersionD.csv,"Read Version D","Dissertation, read only version D",LIVER,KIDNEY,Study1,S,53,63,Test,User,-,,Recall,Recall2,4213,KIDNEY,100,1756,3803,1,1,,1
5f4c2efda7461b8435ce9fd3,qgk92kcjct,Nick_Dissertation_EX1,1,296,2020-10-24T10:56:36-07:00,2.9405090808868,4,versionC_stim.csv,READVersionD.csv,"Read Version D","Dissertation, read only version D",FLOWER,ORCHID,Study1,B,24,57,Test,User,-,,Recall,Recall2,2214,SEED,20,1629,2125,0,0,,1
5f4c2efda7461b8435ce9fd3,qgk92kcjct,Nick_Dissertation_EX1,1,297,2020-10-24T10:56:39-07:00,2.6155099868774,4,versionC_stim.csv,READVersionD.csv,"Read Version D","Dissertation, read only version D",SODA,POP,Study1,S,56,52,Test,User,-,,Recall,Recall2,1731,POP,100,1099,1425,1,1,,1
5f4c2efda7461b8435ce9fd3,qgk92kcjct,Nick_Dissertation_EX1,1,298,2020-10-24T10:56:41-07:00,2.1044838428497,4,versionC_stim.csv,READVersionD.csv,"Read Version D","Dissertation, read only version D",STENCH,SMELL,Study1,F,42,20,Test,User,-,,Recall,Recall2,1366,,0,-1,-1,0,0,,1
5f4c2efda7461b8435ce9fd3,qgk92kcjct,Nick_Dissertation_EX1,1,299,2020-10-24T10:56:44-07:00,2.8853731155396,4,versionC_stim.csv,READVersionD.csv,"Read Version D","Dissertation, read only version D",CHILD,BABY,Study1,S,64,62,Test,User,-,,Recall,Recall2,1144,,0,-1,-1,0,0,,1
5f4c2efda7461b8435ce9fd3,qgk92kcjct,Nick_Dissertation_EX1,1,300,2020-10-24T10:56:48-07:00,4.3773238658905,4,versionC_stim.csv,READVersionD.csv,"Read Version D","Dissertation, read only version D",CAR,HAPPY,Study1,U,77,50,Test,User,-,,Recall,Recall2,3667,,0,2595,2835,0,0,,1
5f4c2efda7461b8435ce9fd3,qgk92kcjct,Nick_Dissertation_EX1,1,301,2020-10-24T10:56:50-07:00,1.8391270637512,4,versionC_stim.csv,READVersionD.csv,"Read Version D","Dissertation, read only version D",BUSINESS,DEATH,Study1,U,72,13,Test,User,-,,Recall,Recall2,1073,,0,-1,-1,0,0,,1
5f4c2efda7461b8435ce9fd3,qgk92kcjct,Nick_Dissertation_EX1,1,302,2020-10-24T10:56:53-07:00,2.6609170436859,4,versionC_stim.csv,READVersionD.csv,"Read Version D","Dissertation, read only version D",BRONZE,ARTERY,Study1,U,74,86,Test,User,-,,Recall,Recall2,1926,,0,-1,-1,0,0,,1
5f4c2efda7461b8435ce9fd3,qgk92kcjct,Nick_Dissertation_EX1,1,303,2020-10-24T10:56:54-07:00,1.5493760108948,4,versionC_stim.csv,READVersionD.csv,"Read Version D","Dissertation, read only version D",OUT,WAY,Study1,B,16,7,Test,User,-,,Recall,Recall2,836,,0,-1,-1,0,0,,1
5f4c2efda7461b8435ce9fd3,qgk92kcjct,Nick_Dissertation_EX1,1,304,2020-10-24T10:56:58-07:00,3.1502819061279,4,versionC_stim.csv,READVersionD.csv,"Read Version D","Dissertation, read only version D",STING,HORNET,Study1,B,11,58,Test,User,-,,Recall,Recall2,2427,WASP,0,1755,2154,0,0,,1
5f4c2efda7461b8435ce9fd3,qgk92kcjct,Nick_Dissertation_EX1,1,305,2020-10-24T10:56:59-07:00,1.6694920063019,4,versionC_stim.csv,READVersionD.csv,"Read Version D","Dissertation, read only version D",FOOT,SHOE,Study1,S,60,9,Test,User,-,,Recall,Recall2,966,,0,-1,-1,0,0,,1
5f4c2efda7461b8435ce9fd3,qgk92kcjct,Nick_Dissertation_EX1,1,306,2020-10-24T10:57:01-07:00,2.0101220607758,4,versionC_stim.csv,READVersionD.csv,"Read Version D","Dissertation, read only version D",POSITION,MACHINE,Study1,U,76,26,Test,User,-,,Recall,Recall2,1277,,0,-1,-1,0,0,,1
5f4c2efda7461b8435ce9fd3,qgk92kcjct,Nick_Dissertation_EX1,1,307,2020-10-24T10:57:03-07:00,1.604474067688,4,versionC_stim.csv,READVersionD.csv,"Read Version D","Dissertation, read only version D",LATCH,KEY,Study1,F,36,83,Test,User,-,,Recall,Recall2,868,,0,-1,-1,0,0,,1
5f4c2efda7461b8435ce9fd3,qgk92kcjct,Nick_Dissertation_EX1,1,308,2020-10-24T10:57:05-07:00,2.607666015625,4,versionC_stim.csv,READVersionD.csv,"Read Version D","Dissertation, read only version D",DEFINITION,MEANING,Study1,S,62,32,Test,User,-,,Recall,Recall2,1827,,0,-1,-1,0,0,,1
5f4c2efda7461b8435ce9fd3,qgk92kcjct,Nick_Dissertation_EX1,1,309,2020-10-24T10:57:10-07:00,4.2465028762817,4,versionC_stim.csv,READVersionD.csv,"Read Version D","Dissertation, read only version D",BAR,GRILL,Study1,S,52,35,Test,User,-,,Recall,Recall2,3253,GRILL,100,2037,2812,1,1,,1
5f4c2efda7461b8435ce9fd3,qgk92kcjct,Nick_Dissertation_EX1,1,310,2020-10-24T10:57:11-07:00,1.7446570396423,4,versionC_stim.csv,READVersionD.csv,"Read Version D","Dissertation, read only version D",ATTORNEY,LAW,Study1,F,34,25,Test,User,-,,Recall,Recall2,1049,,0,-1,-1,0,0,,1
5f4c2efda7461b8435ce9fd3,qgk92kcjct,Nick_Dissertation_EX1,1,311,2020-10-24T10:57:13-07:00,1.3648750782013,4,versionC_stim.csv,READVersionD.csv,"Read Version D","Dissertation, read only version D",HAND,FIX,Study1,U,75,76,Test,User,-,,Recall,Recall2,666,,0,-1,-1,0,0,,1
5f4c2efda7461b8435ce9fd3,qgk92kcjct,Nick_Dissertation_EX1,1,312,2020-10-24T10:57:14-07:00,1.4498288631439,4,versionC_stim.csv,READVersionD.csv,"Read Version D","Dissertation, read only version D",HAMMER,CHISEL,Study1,B,9,70,Test,User,-,,Recall,Recall2,752,,0,-1,-1,0,0,,1
5f4c2efda7461b8435ce9fd3,qgk92kcjct,Nick_Dissertation_EX1,1,313,2020-10-24T10:57:17-07:00,2.7377421855927,4,versionC_stim.csv,READVersionD.csv,"Read Version D","Dissertation, read only version D",COW,HERD,Study1,B,22,12,Test,User,-,,Recall,Recall2,1054,,0,-1,-1,0,0,,1
5f4c2efda7461b8435ce9fd3,qgk92kcjct,Nick_Dissertation_EX1,1,314,2020-10-24T10:57:20-07:00,2.5380728244781,4,versionC_stim.csv,READVersionD.csv,"Read Version D","Dissertation, read only version D",GROWTH,HEIGHT,Study1,F,30,64,Test,User,-,,Recall,Recall2,836,,0,-1,-1,0,0,,1
5f4c2efda7461b8435ce9fd3,qgk92kcjct,Nick_Dissertation_EX1,1,315,2020-10-24T10:57:21-07:00,1.6237871646881,4,versionC_stim.csv,READVersionD.csv,"Read Version D","Dissertation, read only version D",WATER,BRIDGE,Study1,B,18,30,Test,User,-,,Recall,Recall2,927,,0,-1,-1,0,0,,1
5f4c2efda7461b8435ce9fd3,qgk92kcjct,Nick_Dissertation_EX1,1,316,2020-10-24T10:57:23-07:00,1.4763758182526,4,versionC_stim.csv,READVersionD.csv,"Read Version D","Dissertation, read only version D",BAD,DELINQUENT,Study1,B,6,65,Test,User,-,,Recall,Recall2,769,,0,-1,-1,0,0,,1
5f4c2efda7461b8435ce9fd3,qgk92kcjct,Nick_Dissertation_EX1,1,317,2020-10-24T10:57:24-07:00,1.4541490077972,4,versionC_stim.csv,READVersionD.csv,"Read Version D","Dissertation, read only version D",END,BEGIN,Study1,S,54,67,Test,User,-,,Recall,Recall2,760,,0,-1,-1,0,0,,1
5f4c2efda7461b8435ce9fd3,qgk92kcjct,Nick_Dissertation_EX1,1,318,2020-10-24T10:57:26-07:00,1.4648721218109,4,versionC_stim.csv,READVersionD.csv,"Read Version D","Dissertation, read only version D",ENOUGH,FULL,Study1,F,26,38,Test,User,-,,Recall,Recall2,757,,0,-1,-1,0,0,,1
5f4c2efda7461b8435ce9fd3,qgk92kcjct,Nick_Dissertation_EX1,1,319,2020-10-24T10:57:31-07:00,5.4207038879395,4,versionC_stim.csv,READVersionD.csv,"Read Version D","Dissertation, read only version D",STOMACH,DIGESTION,Study1,B,7,28,Test,User,-,,Recall,Recall2,4723,DIGESTION,100,1843,3299,1,1,,1
5f4c2efda7461b8435ce9fd3,qgk92kcjct,Nick_Dissertation_EX1,1,320,2020-10-24T10:57:32-07:00,1.4090051651001,4,versionC_stim.csv,READVersionD.csv,"Read Version D","Dissertation, read only version D",TUCK,ALLOW,Study1,U,78,60,Test,User,-,,Recall,Recall2,690,,0,-1,-1,0,0,,1
5f4c2efda7461b8435ce9fd3,qgk92kcjct,Nick_Dissertation_EX1,1,321,2020-10-24T10:57:34-07:00,1.5900499820709,4,versionC_stim.csv,READVersionD.csv,"Read Version D","Dissertation, read only version D",RIDDLE,SUGAR,Study1,U,81,59,Test,User,-,,Recall,Recall2,857,,0,-1,-1,0,0,,1
5f4c2efda7461b8435ce9fd3,qgk92kcjct,Nick_Dissertation_EX1,1,322,2020-10-24T10:57:37-07:00,2.6318709850311,4,versionC_stim.csv,READVersionD.csv,"Read Version D","Dissertation, read only version D",COLD,BITTER,Study1,B,12,34,Test,User,-,,Recall,Recall2,896,,0,-1,-1,0,0,,1
5f4c2efda7461b8435ce9fd3,qgk92kcjct,Nick_Dissertation_EX1,1,323,2020-10-24T10:57:41-07:00,4.0404670238495,4,versionC_stim.csv,READVersionD.csv,"Read Version D","Dissertation, read only version D",PILOT,PLANE,Study1,F,44,36,Test,User,-,,Recall,Recall2,3323,PLANE,100,2563,3090,1,1,,1
5f4c2efda7461b8435ce9fd3,qgk92kcjct,Nick_Dissertation_EX1,1,324,2020-10-24T10:57:43-07:00,2.6301939487457,4,versionC_stim.csv,READVersionD.csv,"Read Version D","Dissertation, read only version D",FLOOR,DISCOVER,Study1,U,71,71,Test,User,-,,Recall,Recall2,823,,0,-1,-1,0,0,,1
5f4c2efda7461b8435ce9fd3,qgk92kcjct,Nick_Dissertation_EX1,1,325,2020-10-24T10:57:50-07:00,6.9942169189453,4,versionC_stim.csv,READVersionD.csv,"Read Version D","Dissertation, read only version D",SICK,HIDE,Study1,U,84,56,Test,User,-,,Recall,Recall2,6292,PUPPY,0,5307,6090,0,0,,1
5f4c2efda7461b8435ce9fd3,qgk92kcjct,Nick_Dissertation_EX1,1,326,2020-10-24T10:57:52-07:00,1.5341820716858,4,versionC_stim.csv,READVersionD.csv,"Read Version D","Dissertation, read only version D",RACKET,BALL,Study1,F,38,19,Test,User,-,,Recall,Recall2,828,,0,-1,-1,0,0,,1
5f4c2efda7461b8435ce9fd3,qgk92kcjct,Nick_Dissertation_EX1,1,327,2020-10-24T10:57:53-07:00,1.3350009918213,4,versionC_stim.csv,READVersionD.csv,"Read Version D","Dissertation, read only version D",SACKING,DIETARY,Study1,U,67,80,Test,User,-,,Recall,Recall2,634,,0,-1,-1,0,0,,1
5f4c2efda7461b8435ce9fd3,qgk92kcjct,Nick_Dissertation_EX1,1,328,2020-10-24T10:57:54-07:00,1.234934091568,4,versionC_stim.csv,READVersionD.csv,"Read Version D","Dissertation, read only version D",NEWS,EDITOR,Study1,B,10,31,Test,User,-,,Recall,Recall2,527,,0,-1,-1,0,0,,1
5f4c2efda7461b8435ce9fd3,qgk92kcjct,Nick_Dissertation_EX1,1,329,2020-10-24T10:57:56-07:00,1.3053188323975,4,versionC_stim.csv,READVersionD.csv,"Read Version D","Dissertation, read only version D",SIP,DRINK,Study1,F,27,49,Test,User,-,,Recall,Recall2,579,,0,-1,-1,0,0,,1
5f4c2efda7461b8435ce9fd3,qgk92kcjct,Nick_Dissertation_EX1,1,330,2020-10-24T10:57:57-07:00,1.1550230979919,4,versionC_stim.csv,READVersionD.csv,"Read Version D","Dissertation, read only version D",FAMINE,HUNGER,Study1,F,40,40,Test,User,-,,Recall,Recall2,445,,0,-1,-1,0,0,,1
5f4c2efda7461b8435ce9fd3,qgk92kcjct,Nick_Dissertation_EX1,1,331,2020-10-24T10:57:58-07:00,1.0565218925476,4,versionC_stim.csv,READVersionD.csv,"Read Version D","Dissertation, read only version D",CLUTTER,PUSHER,Study1,U,66,75,Test,User,-,,Recall,Recall2,343,,0,-1,-1,0,0,,1
5f4c2efda7461b8435ce9fd3,qgk92kcjct,Nick_Dissertation_EX1,1,332,2020-10-24T10:58:02-07:00,3.6355020999908,4,versionC_stim.csv,READVersionD.csv,"Read Version D","Dissertation, read only version D",BEE,HONEY,Study1,S,63,55,Test,User,-,,Recall,Recall2,2939,HONEY,100,2115,2754,1,1,,1
5f4c2efda7461b8435ce9fd3,qgk92kcjct,Nick_Dissertation_EX1,1,333,2020-10-24T10:58:03-07:00,1.4598090648651,4,versionC_stim.csv,READVersionD.csv,"Read Version D","Dissertation, read only version D",SEIZE,TAKE,Study1,F,29,48,Test,User,-,,Recall,Recall2,742,,0,-1,-1,0,0,,1
5f4c2efda7461b8435ce9fd3,qgk92kcjct,Nick_Dissertation_EX1,1,334,2020-10-24T10:58:05-07:00,1.6208889484406,4,versionC_stim.csv,READVersionD.csv,"Read Version D","Dissertation, read only version D",SIGHT,DEBATE,Study1,U,73,47,Test,User,-,,Recall,Recall2,919,,0,-1,-1,0,0,,1
5f4c2efda7461b8435ce9fd3,qgk92kcjct,Nick_Dissertation_EX1,1,335,2020-10-24T10:58:06-07:00,1.4316599369049,4,versionC_stim.csv,READVersionD.csv,"Read Version D","Dissertation, read only version D",CLEAN,HYGIENE,Study1,B,17,77,Test,User,-,,Recall,Recall2,711,,0,-1,-1,0,0,,1
5f4c2efda7461b8435ce9fd3,qgk92kcjct,Nick_Dissertation_EX1,1,336,2020-10-24T10:58:07-07:00,1.2843079566956,4,versionC_stim.csv,READVersionD.csv,"Read Version D","Dissertation, read only version D",ATTIRE,CLOTHES,Study1,F,43,15,Test,User,-,,Recall,Recall2,556,,0,-1,-1,0,0,,1
5f4c2efda7461b8435ce9fd3,qgk92kcjct,Nick_Dissertation_EX1,1,337,2020-10-24T10:58:09-07:00,1.6116240024567,4,versionC_stim.csv,READVersionD.csv,"Read Version D","Dissertation, read only version D",BIRD,SWAN,Study1,B,14,41,Test,User,-,,Recall,Recall2,899,,0,-1,-1,0,0,,1
5f4c2efda7461b8435ce9fd3,qgk92kcjct,Nick_Dissertation_EX1,1,338,2020-10-24T10:58:10-07:00,1.4721109867096,4,versionC_stim.csv,READVersionD.csv,"Read Version D","Dissertation, read only version D",CAVE,DARK,Study1,F,28,54,Test,User,-,,Recall,Recall2,686,,0,-1,-1,0,0,,1
5f4c2efda7461b8435ce9fd3,qgk92kcjct,Nick_Dissertation_EX1,1,339,2020-10-24T10:58:12-07:00,1.7367300987244,4,versionC_stim.csv,READVersionD.csv,"Read Version D","Dissertation, read only version D",WIND,BLOW,Study1,S,55,16,Test,User,-,,Recall,Recall2,1020,,0,-1,-1,0,0,,1
5f4c2efda7461b8435ce9fd3,qgk92kcjct,Nick_Dissertation_EX1,1,340,2020-10-24T10:58:14-07:00,1.3879039287567,4,versionC_stim.csv,READVersionD.csv,"Read Version D","Dissertation, read only version D",FUTURE,PAST,Study1,S,61,29,Test,User,-,,Recall,Recall2,657,,0,-1,-1,0,0,,1
5f4c2efda7461b8435ce9fd3,qgk92kcjct,Nick_Dissertation_EX1,1,341,2020-10-24T10:58:15-07:00,1.5497541427612,4,versionC_stim.csv,READVersionD.csv,"Read Version D","Dissertation, read only version D",ACCIDENT,STRONG,Study1,U,80,74,Test,User,-,,Recall,Recall2,849,,0,-1,-1,0,0,,1
5f4c2efda7461b8435ce9fd3,qgk92kcjct,Nick_Dissertation_EX1,1,342,2020-10-24T10:58:16-07:00,1.4192140102386,4,versionC_stim.csv,READVersionD.csv,"Read Version D","Dissertation, read only version D",HUNGRY,PARK,Study1,U,68,23,Test,User,-,,Recall,Recall2,678,,0,-1,-1,0,0,,1
5f4c2efda7461b8435ce9fd3,qgk92kcjct,Nick_Dissertation_EX1,1,343,2020-10-24T10:58:18-07:00,1.4362149238586,4,versionC_stim.csv,READVersionD.csv,"Read Version D","Dissertation, read only version D",TALK,DISCUSSION,Study1,B,21,85,Test,User,-,,Recall,Recall2,725,,0,-1,-1,0,0,,1
5f4c2efda7461b8435ce9fd3,qgk92kcjct,Nick_Dissertation_EX1,1,344,2020-10-24T10:58:19-07:00,1.5239050388336,4,versionC_stim.csv,READVersionD.csv,"Read Version D","Dissertation, read only version D",DESIGN,ARCHITECTURE,Study1,S,51,17,Test,User,-,,Recall,Recall2,814,,0,-1,-1,0,0,,1
5f4c2efda7461b8435ce9fd3,qgk92kcjct,Nick_Dissertation_EX1,1,345,2020-10-24T10:58:21-07:00,1.3910298347473,4,versionC_stim.csv,READVersionD.csv,"Read Version D","Dissertation, read only version D",JURY,TRIAL,Study1,S,50,24,Test,User,-,,Recall,Recall2,680,,0,-1,-1,0,0,,1
5f4c2efda7461b8435ce9fd3,qgk92kcjct,Nick_Dissertation_EX1,1,346,2020-10-24T10:58:24-07:00,3.4842810630798,4,versionC_stim.csv,READVersionD.csv,"Read Version D","Dissertation, read only version D",MONEY,WAGE,Study1,B,8,61,Test,User,-,,Recall,Recall2,2755,LOAN,25,2042,2450,0,0,,1
5f4c2efda7461b8435ce9fd3,qgk92kcjct,Nick_Dissertation_EX1,1,347,2020-10-24T10:58:28-07:00,3.3096561431885,4,versionC_stim.csv,READVersionD.csv,"Read Version D","Dissertation, read only version D",DROWSY,SLEEP,Study1,F,41,53,Test,User,-,,Recall,Recall2,2579,SLEEPING,76.923076923077,1465,2384,0,1,,1
5f4c2efda7461b8435ce9fd3,qgk92kcjct,Nick_Dissertation_EX1,1,348,2020-10-24T10:58:30-07:00,2.5945529937744,4,versionC_stim.csv,READVersionD.csv,"Read Version D","Dissertation, read only version D",CARD,CREDIT,Study1,B,23,37,Test,User,-,,Recall,Recall2,1612,,0,-1,-1,0,0,,1
5f4c2efda7461b8435ce9fd3,qgk92kcjct,Nick_Dissertation_EX1,1,349,2020-10-24T10:58:32-07:00,1.3467447757721,4,versionC_stim.csv,READVersionD.csv,"Read Version D","Dissertation, read only version D",,,,,,0,Instruct,User,-,"You have completed this section. Please press Enter.",,Instruct7,641,,,-1,-1,,,,1
5f4c2efda7461b8435ce9fd3,qgk92kcjct,Nick_Dissertation_EX1,1,350,2020-10-24T10:58:34-07:00,2.8641731739044,4,versionC_stim.csv,READVersionD.csv,"Read Version D","Dissertation, read only version D",,,,,,0,Instruct,User,-,"The following screen will ask you a few questions abour your experience today. You must complete these questions to receive credit.",,Instruct8,2147,,,-1,-1,,,,1
