Username,ID,ExperimentName,Session,Trial,Date,TimeDif,"Condition Number","Stimuli File","Order File","Condition Description","Condition Notes",Stimuli*Cue,Stimuli*Answer,Stimuli*Shuffle,"Stimuli*Stimuli Notes",Stimuli*Value,Procedure*Item,"Procedure*Trial Type","Procedure*Max Time","Procedure*Min Time",Procedure*Text,"Procedure*Procedure Notes",Procedure*Shuffle,Response*RT,Response*Response,Response*Accuracy,Response*RTfirst,Response*RTlast,Response*strictAcc,Response*lenientAcc,Response*focus,Response*Focus
5d0a90bb7c5110001acaa336,erfrv1t955,Nick_Dissertation_EX1,1,1,2020-10-24T10:23:06-07:00,12.623358011246,1,versionA_stim.csv,READVersionA.csv,"Read Version A","Dissertation, read only version A",,,,,,0,Instruct,-,10,"Please study each of the following word pairs. Remember that your memory will be tested! When finished, press Enter to move to the next pair.",Initial_Instruct,Instruct1,12317,,,-1,-1,,,,1
5d0a90bb7c5110001acaa336,erfrv1t955,Nick_Dissertation_EX1,1,2,2020-10-24T10:23:10-07:00,4.3546578884125,1,versionA_stim.csv,READVersionA.csv,"Read Version A","Dissertation, read only version A",SPACE,JAM,BUFFER1,Buffer,5,3,Study,User,-,,Study/JOL,BUFFER,3902,,,-1,-1,,,,1
5d0a90bb7c5110001acaa336,erfrv1t955,Nick_Dissertation_EX1,1,3,2020-10-24T10:23:13-07:00,2.6508159637451,1,versionA_stim.csv,READVersionA.csv,"Read Version A","Dissertation, read only version A",PEANUT,BUTTER,BUFFER1,Buffer,3,5,Study,User,-,,Study/JOL,BUFFER,2180,,,-1,-1,,,,1
5d0a90bb7c5110001acaa336,erfrv1t955,Nick_Dissertation_EX1,1,4,2020-10-24T10:23:16-07:00,3.2653739452362,1,versionA_stim.csv,READVersionA.csv,"Read Version A","Dissertation, read only version A",TREES,GREEN,BUFFER1,Buffer,1,2,Study,User,-,,Study/JOL,BUFFER,2827,,,-1,-1,,,,1
5d0a90bb7c5110001acaa336,erfrv1t955,Nick_Dissertation_EX1,1,5,2020-10-24T10:23:18-07:00,2.3573651313782,1,versionA_stim.csv,READVersionA.csv,"Read Version A","Dissertation, read only version A",BASEBALL,CATCHER,BUFFER1,Buffer,2,6,Study,User,-,,Study/JOL,BUFFER,1817,,,-1,-1,,,,1
5d0a90bb7c5110001acaa336,erfrv1t955,Nick_Dissertation_EX1,1,6,2020-10-24T10:23:23-07:00,4.7795939445496,1,versionA_stim.csv,READVersionA.csv,"Read Version A","Dissertation, read only version A",SCARE,HIDE,BUFFER1,Buffer,4,4,Study,User,-,,Study/JOL,BUFFER,4354,,,-1,-1,,,,1
5d0a90bb7c5110001acaa336,erfrv1t955,Nick_Dissertation_EX1,1,7,2020-10-24T10:23:26-07:00,2.6733479499817,1,versionA_stim.csv,READVersionA.csv,"Read Version A","Dissertation, read only version A",HONEY,BEE,Study1,S,63,11,Study,User,-,,Study/JOL,"Study Phase",2265,,,-1,-1,,,,1
5d0a90bb7c5110001acaa336,erfrv1t955,Nick_Dissertation_EX1,1,8,2020-10-24T10:23:28-07:00,2.5768940448761,1,versionA_stim.csv,READVersionA.csv,"Read Version A","Dissertation, read only version A",BITTER,COLD,Study1,F,12,25,Study,User,-,,Study/JOL,"Study Phase",2156,,,-1,-1,,,,1
5d0a90bb7c5110001acaa336,erfrv1t955,Nick_Dissertation_EX1,1,9,2020-10-24T10:23:31-07:00,2.8122780323029,1,versionA_stim.csv,READVersionA.csv,"Read Version A","Dissertation, read only version A",BLOW,WIND,Study1,S,55,81,Study,User,-,,Study/JOL,"Study Phase",2412,,,-1,-1,,,,1
5d0a90bb7c5110001acaa336,erfrv1t955,Nick_Dissertation_EX1,1,10,2020-10-24T10:23:34-07:00,2.4812300205231,1,versionA_stim.csv,READVersionA.csv,"Read Version A","Dissertation, read only version A",BEGIN,END,Study1,S,54,44,Study,User,-,,Study/JOL,"Study Phase",2079,,,-1,-1,,,,1
5d0a90bb7c5110001acaa336,erfrv1t955,Nick_Dissertation_EX1,1,11,2020-10-24T10:23:37-07:00,3.6975240707397,1,versionA_stim.csv,READVersionA.csv,"Read Version A","Dissertation, read only version A",GEOLOGY,ROCK,Study1,F,19,56,Study,User,-,,Study/JOL,"Study Phase",3265,,,-1,-1,,,,1
5d0a90bb7c5110001acaa336,erfrv1t955,Nick_Dissertation_EX1,1,12,2020-10-24T10:23:40-07:00,3.0321938991547,1,versionA_stim.csv,READVersionA.csv,"Read Version A","Dissertation, read only version A",BRIDGE,WATER,Study1,F,18,49,Study,User,-,,Study/JOL,"Study Phase",2530,,,-1,-1,,,,1
5d0a90bb7c5110001acaa336,erfrv1t955,Nick_Dissertation_EX1,1,13,2020-10-24T10:23:43-07:00,2.6186339855194,1,versionA_stim.csv,READVersionA.csv,"Read Version A","Dissertation, read only version A",DIGESTION,STOMACH,Study1,F,7,19,Study,User,-,,Study/JOL,"Study Phase",2205,,,-1,-1,,,,1
5d0a90bb7c5110001acaa336,erfrv1t955,Nick_Dissertation_EX1,1,14,2020-10-24T10:23:45-07:00,2.478884935379,1,versionA_stim.csv,READVersionA.csv,"Read Version A","Dissertation, read only version A",HYGIENE,CLEAN,Study1,F,17,55,Study,User,-,,Study/JOL,"Study Phase",2070,,,-1,-1,,,,1
5d0a90bb7c5110001acaa336,erfrv1t955,Nick_Dissertation_EX1,1,15,2020-10-24T10:23:49-07:00,3.2364211082458,1,versionA_stim.csv,READVersionA.csv,"Read Version A","Dissertation, read only version A",ROOT,PLANT,Study1,F,13,33,Study,User,-,,Study/JOL,"Study Phase",2795,,,-1,-1,,,,1
5d0a90bb7c5110001acaa336,erfrv1t955,Nick_Dissertation_EX1,1,16,2020-10-24T10:23:51-07:00,1.9345738887787,1,versionA_stim.csv,READVersionA.csv,"Read Version A","Dissertation, read only version A",DISCOVER,FLOOR,Study1,U,71,8,Study,User,-,,Study/JOL,"Study Phase",1640,,,-1,-1,,,,1
5d0a90bb7c5110001acaa336,erfrv1t955,Nick_Dissertation_EX1,1,17,2020-10-24T10:23:55-07:00,4.3825871944427,1,versionA_stim.csv,READVersionA.csv,"Read Version A","Dissertation, read only version A",LIFT,WOMAN,Study1,U,69,62,Study,User,-,,Study/JOL,"Study Phase",3994,,,-1,-1,,,,1
5d0a90bb7c5110001acaa336,erfrv1t955,Nick_Dissertation_EX1,1,18,2020-10-24T10:23:58-07:00,3.4896368980408,1,versionA_stim.csv,READVersionA.csv,"Read Version A","Dissertation, read only version A",DRINK,SIP,Study1,B,27,48,Study,User,-,,Study/JOL,"Study Phase",3026,,,-1,-1,,,,1
5d0a90bb7c5110001acaa336,erfrv1t955,Nick_Dissertation_EX1,1,19,2020-10-24T10:24:02-07:00,3.0519170761108,1,versionA_stim.csv,READVersionA.csv,"Read Version A","Dissertation, read only version A",FIRE,BLAZE,Study1,B,45,14,Study,User,-,,Study/JOL,"Study Phase",2600,,,-1,-1,,,,1
5d0a90bb7c5110001acaa336,erfrv1t955,Nick_Dissertation_EX1,1,20,2020-10-24T10:24:04-07:00,2.3191919326782,1,versionA_stim.csv,READVersionA.csv,"Read Version A","Dissertation, read only version A",FULL,ENOUGH,Study1,B,26,20,Study,User,-,,Study/JOL,"Study Phase",1905,,,-1,-1,,,,1
5d0a90bb7c5110001acaa336,erfrv1t955,Nick_Dissertation_EX1,1,21,2020-10-24T10:24:06-07:00,2.0862200260162,1,versionA_stim.csv,READVersionA.csv,"Read Version A","Dissertation, read only version A",CREDIT,CARD,Study1,F,23,37,Study,User,-,,Study/JOL,"Study Phase",1716,,,-1,-1,,,,1
5d0a90bb7c5110001acaa336,erfrv1t955,Nick_Dissertation_EX1,1,22,2020-10-24T10:24:08-07:00,2.2201528549194,1,versionA_stim.csv,READVersionA.csv,"Read Version A","Dissertation, read only version A",KIDNEY,LIVER,Study1,S,53,40,Study,User,-,,Study/JOL,"Study Phase",1766,,,-1,-1,,,,1
5d0a90bb7c5110001acaa336,erfrv1t955,Nick_Dissertation_EX1,1,23,2020-10-24T10:24:10-07:00,2.3088541030884,1,versionA_stim.csv,READVersionA.csv,"Read Version A","Dissertation, read only version A",HUNGER,FAMINE,Study1,B,40,66,Study,User,-,,Study/JOL,"Study Phase",1857,,,-1,-1,,,,1
5d0a90bb7c5110001acaa336,erfrv1t955,Nick_Dissertation_EX1,1,24,2020-10-24T10:24:13-07:00,2.421168088913,1,versionA_stim.csv,READVersionA.csv,"Read Version A","Dissertation, read only version A",WORK,CHORE,Study1,B,39,15,Study,User,-,,Study/JOL,"Study Phase",2001,,,-1,-1,,,,1
5d0a90bb7c5110001acaa336,erfrv1t955,Nick_Dissertation_EX1,1,25,2020-10-24T10:24:15-07:00,1.8260858058929,1,versionA_stim.csv,READVersionA.csv,"Read Version A","Dissertation, read only version A",ARCHITECTURE,DESIGN,Study1,S,51,9,Study,User,-,,Study/JOL,"Study Phase",1483,,,-1,-1,,,,1
5d0a90bb7c5110001acaa336,erfrv1t955,Nick_Dissertation_EX1,1,26,2020-10-24T10:24:18-07:00,3.3601360321045,1,versionA_stim.csv,READVersionA.csv,"Read Version A","Dissertation, read only version A",DEATH,BUSINESS,Study1,U,72,54,Study,User,-,,Study/JOL,"Study Phase",2913,,,-1,-1,,,,1
5d0a90bb7c5110001acaa336,erfrv1t955,Nick_Dissertation_EX1,1,27,2020-10-24T10:24:22-07:00,4.1394209861755,1,versionA_stim.csv,READVersionA.csv,"Read Version A","Dissertation, read only version A",TRIAL,JURY,Study1,S,50,69,Study,User,-,,Study/JOL,"Study Phase",3674,,,-1,-1,,,,1
5d0a90bb7c5110001acaa336,erfrv1t955,Nick_Dissertation_EX1,1,28,2020-10-24T10:24:26-07:00,3.5595641136169,1,versionA_stim.csv,READVersionA.csv,"Read Version A","Dissertation, read only version A",SOON,BELT,Study1,U,70,29,Study,User,-,,Study/JOL,"Study Phase",3067,,,-1,-1,,,,1
5d0a90bb7c5110001acaa336,erfrv1t955,Nick_Dissertation_EX1,1,29,2020-10-24T10:24:30-07:00,3.8191418647766,1,versionA_stim.csv,READVersionA.csv,"Read Version A","Dissertation, read only version A",DUMP,WASTE,Study1,S,49,83,Study,User,-,,Study/JOL,"Study Phase",3330,,,-1,-1,,,,1
5d0a90bb7c5110001acaa336,erfrv1t955,Nick_Dissertation_EX1,1,30,2020-10-24T10:24:32-07:00,2.6133761405945,1,versionA_stim.csv,READVersionA.csv,"Read Version A","Dissertation, read only version A",BABY,CHILD,Study1,S,64,79,Study,User,-,,Study/JOL,"Study Phase",2191,,,-1,-1,,,,1
5d0a90bb7c5110001acaa336,erfrv1t955,Nick_Dissertation_EX1,1,31,2020-10-24T10:24:34-07:00,2.0619659423828,1,versionA_stim.csv,READVersionA.csv,"Read Version A","Dissertation, read only version A",CHISEL,HAMMER,Study1,F,9,67,Study,User,-,,Study/JOL,"Study Phase",1762,,,-1,-1,,,,1
5d0a90bb7c5110001acaa336,erfrv1t955,Nick_Dissertation_EX1,1,32,2020-10-24T10:24:37-07:00,2.3295090198517,1,versionA_stim.csv,READVersionA.csv,"Read Version A","Dissertation, read only version A",MATH,DIVISION,Study1,B,33,52,Study,User,-,,Study/JOL,"Study Phase",1928,,,-1,-1,,,,1
5d0a90bb7c5110001acaa336,erfrv1t955,Nick_Dissertation_EX1,1,33,2020-10-24T10:24:39-07:00,2.3886590003967,1,versionA_stim.csv,READVersionA.csv,"Read Version A","Dissertation, read only version A",STRONG,ACCIDENT,Study1,U,80,27,Study,User,-,,Study/JOL,"Study Phase",1982,,,-1,-1,,,,1
5d0a90bb7c5110001acaa336,erfrv1t955,Nick_Dissertation_EX1,1,34,2020-10-24T10:24:42-07:00,3.3009970188141,1,versionA_stim.csv,READVersionA.csv,"Read Version A","Dissertation, read only version A",SMELL,STENCH,Study1,B,42,23,Study,User,-,,Study/JOL,"Study Phase",1878,,,-1,-1,,,,1
5d0a90bb7c5110001acaa336,erfrv1t955,Nick_Dissertation_EX1,1,35,2020-10-24T10:24:45-07:00,2.63884806633,1,versionA_stim.csv,READVersionA.csv,"Read Version A","Dissertation, read only version A",HEIGHT,GROWTH,Study1,B,30,59,Study,User,-,,Study/JOL,"Study Phase",2247,,,-1,-1,,,,1
5d0a90bb7c5110001acaa336,erfrv1t955,Nick_Dissertation_EX1,1,36,2020-10-24T10:24:48-07:00,2.8461599349976,1,versionA_stim.csv,READVersionA.csv,"Read Version A","Dissertation, read only version A",REVOLUTION,WAR,Study1,F,20,65,Study,User,-,,Study/JOL,"Study Phase",2450,,,-1,-1,,,,1
5d0a90bb7c5110001acaa336,erfrv1t955,Nick_Dissertation_EX1,1,37,2020-10-24T10:24:51-07:00,2.7287409305573,1,versionA_stim.csv,READVersionA.csv,"Read Version A","Dissertation, read only version A",HORNET,STING,Study1,F,11,18,Study,User,-,,Study/JOL,"Study Phase",2328,,,-1,-1,,,,1
5d0a90bb7c5110001acaa336,erfrv1t955,Nick_Dissertation_EX1,1,38,2020-10-24T10:24:53-07:00,2.700248003006,1,versionA_stim.csv,READVersionA.csv,"Read Version A","Dissertation, read only version A",CLOTHES,ATTIRE,Study1,B,43,46,Study,User,-,,Study/JOL,"Study Phase",2270,,,-1,-1,,,,1
5d0a90bb7c5110001acaa336,erfrv1t955,Nick_Dissertation_EX1,1,39,2020-10-24T10:24:56-07:00,3.0290379524231,1,versionA_stim.csv,READVersionA.csv,"Read Version A","Dissertation, read only version A",PARK,HUNGRY,Study1,U,68,68,Study,User,-,,Study/JOL,"Study Phase",2611,,,-1,-1,,,,1
5d0a90bb7c5110001acaa336,erfrv1t955,Nick_Dissertation_EX1,1,40,2020-10-24T10:24:59-07:00,2.6298241615295,1,versionA_stim.csv,READVersionA.csv,"Read Version A","Dissertation, read only version A",WAGE,MONEY,Study1,F,8,26,Study,User,-,,Study/JOL,"Study Phase",2223,,,-1,-1,,,,1
5d0a90bb7c5110001acaa336,erfrv1t955,Nick_Dissertation_EX1,1,41,2020-10-24T10:25:02-07:00,3.6007068157196,1,versionA_stim.csv,READVersionA.csv,"Read Version A","Dissertation, read only version A",KEY,LATCH,Study1,B,36,77,Study,User,-,,Study/JOL,"Study Phase",3151,,,-1,-1,,,,1
5d0a90bb7c5110001acaa336,erfrv1t955,Nick_Dissertation_EX1,1,42,2020-10-24T10:25:04-07:00,1.9754412174225,1,versionA_stim.csv,READVersionA.csv,"Read Version A","Dissertation, read only version A",NUMBER,AMOUNT,Study1,S,47,32,Study,User,-,,Study/JOL,"Study Phase",1655,,,-1,-1,,,,1
5d0a90bb7c5110001acaa336,erfrv1t955,Nick_Dissertation_EX1,1,43,2020-10-24T10:25:06-07:00,1.6779248714447,1,versionA_stim.csv,READVersionA.csv,"Read Version A","Dissertation, read only version A",SLEEP,DROWSY,Study1,B,41,30,Study,User,-,,Study/JOL,"Study Phase",1372,,,-1,-1,,,,1
5d0a90bb7c5110001acaa336,erfrv1t955,Nick_Dissertation_EX1,1,44,2020-10-24T10:25:09-07:00,2.5400581359863,1,versionA_stim.csv,READVersionA.csv,"Read Version A","Dissertation, read only version A",HOT,CHILI,Study1,B,37,80,Study,User,-,,Study/JOL,"Study Phase",2122,,,-1,-1,,,,1
5d0a90bb7c5110001acaa336,erfrv1t955,Nick_Dissertation_EX1,1,45,2020-10-24T10:25:12-07:00,2.9307618141174,1,versionA_stim.csv,READVersionA.csv,"Read Version A","Dissertation, read only version A",GRILL,BAR,Study1,S,52,73,Study,User,-,,Study/JOL,"Study Phase",2544,,,-1,-1,,,,1
5d0a90bb7c5110001acaa336,erfrv1t955,Nick_Dissertation_EX1,1,46,2020-10-24T10:25:16-07:00,4.2854750156403,1,versionA_stim.csv,READVersionA.csv,"Read Version A","Dissertation, read only version A",LOCATION,SITE,Study1,S,48,35,Study,User,-,,Study/JOL,"Study Phase",3887,,,-1,-1,,,,1
5d0a90bb7c5110001acaa336,erfrv1t955,Nick_Dissertation_EX1,1,47,2020-10-24T10:25:19-07:00,3.4632420539856,1,versionA_stim.csv,READVersionA.csv,"Read Version A","Dissertation, read only version A",SWAN,BIRD,Study1,F,14,72,Study,User,-,,Study/JOL,"Study Phase",3063,,,-1,-1,,,,1
5d0a90bb7c5110001acaa336,erfrv1t955,Nick_Dissertation_EX1,1,48,2020-10-24T10:25:24-07:00,4.4552929401398,1,versionA_stim.csv,READVersionA.csv,"Read Version A","Dissertation, read only version A",VALLEY,ADD,Study1,U,82,45,Study,User,-,,Study/JOL,"Study Phase",4023,,,-1,-1,,,,1
5d0a90bb7c5110001acaa336,erfrv1t955,Nick_Dissertation_EX1,1,49,2020-10-24T10:25:26-07:00,2.1280431747437,1,versionA_stim.csv,READVersionA.csv,"Read Version A","Dissertation, read only version A",MEANING,DEFINITION,Study1,S,62,71,Study,User,-,,Study/JOL,"Study Phase",1790,,,-1,-1,,,,1
5d0a90bb7c5110001acaa336,erfrv1t955,Nick_Dissertation_EX1,1,50,2020-10-24T10:25:29-07:00,2.6561858654022,1,versionA_stim.csv,READVersionA.csv,"Read Version A","Dissertation, read only version A",POP,SODA,Study1,S,56,41,Study,User,-,,Study/JOL,"Study Phase",1356,,,-1,-1,,,,1
5d0a90bb7c5110001acaa336,erfrv1t955,Nick_Dissertation_EX1,1,51,2020-10-24T10:25:32-07:00,3.373960018158,1,versionA_stim.csv,READVersionA.csv,"Read Version A","Dissertation, read only version A",DELINQUENT,BAD,Study1,F,6,82,Study,User,-,,Study/JOL,"Study Phase",2862,,,-1,-1,,,,1
5d0a90bb7c5110001acaa336,erfrv1t955,Nick_Dissertation_EX1,1,52,2020-10-24T10:25:35-07:00,2.9958848953247,1,versionA_stim.csv,READVersionA.csv,"Read Version A","Dissertation, read only version A",MACHINE,POSITION,Study1,U,76,38,Study,User,-,,Study/JOL,"Study Phase",2551,,,-1,-1,,,,1
5d0a90bb7c5110001acaa336,erfrv1t955,Nick_Dissertation_EX1,1,53,2020-10-24T10:25:37-07:00,2.4023201465607,1,versionA_stim.csv,READVersionA.csv,"Read Version A","Dissertation, read only version A",EDITOR,NEWS,Study1,F,10,58,Study,User,-,,Study/JOL,"Study Phase",1992,,,-1,-1,,,,1
5d0a90bb7c5110001acaa336,erfrv1t955,Nick_Dissertation_EX1,1,54,2020-10-24T10:25:41-07:00,3.8499739170074,1,versionA_stim.csv,READVersionA.csv,"Read Version A","Dissertation, read only version A",BALL,RACKET,Study1,B,38,53,Study,User,-,,Study/JOL,"Study Phase",3418,,,-1,-1,,,,1
5d0a90bb7c5110001acaa336,erfrv1t955,Nick_Dissertation_EX1,1,55,2020-10-24T10:25:45-07:00,3.5934131145477,1,versionA_stim.csv,READVersionA.csv,"Read Version A","Dissertation, read only version A",DEBATE,SIGHT,Study1,U,73,21,Study,User,-,,Study/JOL,"Study Phase",3202,,,-1,-1,,,,1
5d0a90bb7c5110001acaa336,erfrv1t955,Nick_Dissertation_EX1,1,56,2020-10-24T10:25:48-07:00,2.9143240451813,1,versionA_stim.csv,READVersionA.csv,"Read Version A","Dissertation, read only version A",ORCHID,FLOWER,Study1,F,24,43,Study,User,-,,Study/JOL,"Study Phase",2453,,,-1,-1,,,,1
5d0a90bb7c5110001acaa336,erfrv1t955,Nick_Dissertation_EX1,1,57,2020-10-24T10:25:52-07:00,3.9979028701782,1,versionA_stim.csv,READVersionA.csv,"Read Version A","Dissertation, read only version A",KING,VASE,Study1,U,85,39,Study,User,-,,Study/JOL,"Study Phase",3545,,,-1,-1,,,,1
5d0a90bb7c5110001acaa336,erfrv1t955,Nick_Dissertation_EX1,1,58,2020-10-24T10:25:54-07:00,1.9567210674286,1,versionA_stim.csv,READVersionA.csv,"Read Version A","Dissertation, read only version A",SHOE,FOOT,Study1,S,60,51,Study,User,-,,Study/JOL,"Study Phase",1663,,,-1,-1,,,,1
5d0a90bb7c5110001acaa336,erfrv1t955,Nick_Dissertation_EX1,1,59,2020-10-24T10:25:57-07:00,3.1975140571594,1,versionA_stim.csv,READVersionA.csv,"Read Version A","Dissertation, read only version A",LETTUCE,SALAD,Study1,S,59,64,Study,User,-,,Study/JOL,"Study Phase",2786,,,-1,-1,,,,1
5d0a90bb7c5110001acaa336,erfrv1t955,Nick_Dissertation_EX1,1,60,2020-10-24T10:26:05-07:00,7.8751718997955,1,versionA_stim.csv,READVersionA.csv,"Read Version A","Dissertation, read only version A",SENTENCE,WORD,Study1,B,31,7,Study,User,-,,Study/JOL,"Study Phase",6457,,,-1,-1,,,,1
5d0a90bb7c5110001acaa336,erfrv1t955,Nick_Dissertation_EX1,1,61,2020-10-24T10:26:13-07:00,8.7090330123901,1,versionA_stim.csv,READVersionA.csv,"Read Version A","Dissertation, read only version A",PUSHER,CLUTTER,Study1,U,66,57,Study,User,-,,Study/JOL,"Study Phase",8303,,,-1,-1,,,,1
5d0a90bb7c5110001acaa336,erfrv1t955,Nick_Dissertation_EX1,1,62,2020-10-24T10:26:18-07:00,4.4510929584503,1,versionA_stim.csv,READVersionA.csv,"Read Version A","Dissertation, read only version A",HAPPY,CAR,Study1,U,77,10,Study,User,-,,Study/JOL,"Study Phase",4050,,,-1,-1,,,,1
5d0a90bb7c5110001acaa336,erfrv1t955,Nick_Dissertation_EX1,1,63,2020-10-24T10:26:25-07:00,6.6985750198364,1,versionA_stim.csv,READVersionA.csv,"Read Version A","Dissertation, read only version A",HIDE,SICK,Study1,U,84,47,Study,User,-,,Study/JOL,"Study Phase",6265,,,-1,-1,,,,1
5d0a90bb7c5110001acaa336,erfrv1t955,Nick_Dissertation_EX1,1,64,2020-10-24T10:26:28-07:00,3.3721690177917,1,versionA_stim.csv,READVersionA.csv,"Read Version A","Dissertation, read only version A",BUG,WASP,Study1,B,32,13,Study,User,-,,Study/JOL,"Study Phase",2915,,,-1,-1,,,,1
5d0a90bb7c5110001acaa336,erfrv1t955,Nick_Dissertation_EX1,1,65,2020-10-24T10:26:32-07:00,3.9762799739838,1,versionA_stim.csv,READVersionA.csv,"Read Version A","Dissertation, read only version A",PAST,FUTURE,Study1,S,61,42,Study,User,-,,Study/JOL,"Study Phase",3532,,,-1,-1,,,,1
5d0a90bb7c5110001acaa336,erfrv1t955,Nick_Dissertation_EX1,1,66,2020-10-24T10:26:39-07:00,6.8814899921417,1,versionA_stim.csv,READVersionA.csv,"Read Version A","Dissertation, read only version A",ARTERY,BRONZE,Study1,U,74,75,Study,User,-,,Study/JOL,"Study Phase",6475,,,-1,-1,,,,1
5d0a90bb7c5110001acaa336,erfrv1t955,Nick_Dissertation_EX1,1,67,2020-10-24T10:26:40-07:00,1.6550109386444,1,versionA_stim.csv,READVersionA.csv,"Read Version A","Dissertation, read only version A",TUNA,FISH,Study1,F,25,36,Study,User,-,,Study/JOL,"Study Phase",1253,,,-1,-1,,,,1
5d0a90bb7c5110001acaa336,erfrv1t955,Nick_Dissertation_EX1,1,68,2020-10-24T10:26:42-07:00,1.4430921077728,1,versionA_stim.csv,READVersionA.csv,"Read Version A","Dissertation, read only version A",CIRCLE,ROUND,Study1,S,65,76,Study,User,-,,Study/JOL,"Study Phase",1140,,,-1,-1,,,,1
5d0a90bb7c5110001acaa336,erfrv1t955,Nick_Dissertation_EX1,1,69,2020-10-24T10:26:45-07:00,3.4605538845062,1,versionA_stim.csv,READVersionA.csv,"Read Version A","Dissertation, read only version A",CASH,WOULD,Study1,U,83,24,Study,User,-,,Study/JOL,"Study Phase",3063,,,-1,-1,,,,1
5d0a90bb7c5110001acaa336,erfrv1t955,Nick_Dissertation_EX1,1,70,2020-10-24T10:26:49-07:00,3.7520861625671,1,versionA_stim.csv,READVersionA.csv,"Read Version A","Dissertation, read only version A",DISCUSSION,TALK,Study1,F,21,74,Study,User,-,,Study/JOL,"Study Phase",3338,,,-1,-1,,,,1
5d0a90bb7c5110001acaa336,erfrv1t955,Nick_Dissertation_EX1,1,71,2020-10-24T10:26:53-07:00,3.9740250110626,1,versionA_stim.csv,READVersionA.csv,"Read Version A","Dissertation, read only version A",PLANE,PILOT,Study1,B,44,22,Study,User,-,,Study/JOL,"Study Phase",3535,,,-1,-1,,,,1
5d0a90bb7c5110001acaa336,erfrv1t955,Nick_Dissertation_EX1,1,72,2020-10-24T10:26:56-07:00,2.7212779521942,1,versionA_stim.csv,READVersionA.csv,"Read Version A","Dissertation, read only version A",BATHROOM,TOILET,Study1,S,58,61,Study,User,-,,Study/JOL,"Study Phase",2327,,,-1,-1,,,,1
5d0a90bb7c5110001acaa336,erfrv1t955,Nick_Dissertation_EX1,1,73,2020-10-24T10:26:59-07:00,3.6024248600006,1,versionA_stim.csv,READVersionA.csv,"Read Version A","Dissertation, read only version A",GREAT,FANTASTIC,Study1,B,35,50,Study,User,-,,Study/JOL,"Study Phase",3218,,,-1,-1,,,,1
5d0a90bb7c5110001acaa336,erfrv1t955,Nick_Dissertation_EX1,1,74,2020-10-24T10:27:08-07:00,8.9600319862366,1,versionA_stim.csv,READVersionA.csv,"Read Version A","Dissertation, read only version A",DIETARY,SACKING,Study1,U,67,34,Study,User,-,,Study/JOL,"Study Phase",8579,,,-1,-1,,,,1
5d0a90bb7c5110001acaa336,erfrv1t955,Nick_Dissertation_EX1,1,75,2020-10-24T10:27:14-07:00,6.0566940307617,1,versionA_stim.csv,READVersionA.csv,"Read Version A","Dissertation, read only version A",SUGAR,RIDDLE,Study1,U,81,31,Study,User,-,,Study/JOL,"Study Phase",5656,,,-1,-1,,,,1
5d0a90bb7c5110001acaa336,erfrv1t955,Nick_Dissertation_EX1,1,76,2020-10-24T10:27:17-07:00,2.3417770862579,1,versionA_stim.csv,READVersionA.csv,"Read Version A","Dissertation, read only version A",WAY,OUT,Study1,F,16,17,Study,User,-,,Study/JOL,"Study Phase",1933,,,-1,-1,,,,1
5d0a90bb7c5110001acaa336,erfrv1t955,Nick_Dissertation_EX1,1,77,2020-10-24T10:27:20-07:00,3.6245090961456,1,versionA_stim.csv,READVersionA.csv,"Read Version A","Dissertation, read only version A",DARK,CAVE,Study1,B,28,60,Study,User,-,,Study/JOL,"Study Phase",3229,,,-1,-1,,,,1
5d0a90bb7c5110001acaa336,erfrv1t955,Nick_Dissertation_EX1,1,78,2020-10-24T10:27:23-07:00,2.4431908130646,1,versionA_stim.csv,READVersionA.csv,"Read Version A","Dissertation, read only version A",PAW,DOG,Study1,F,15,12,Study,User,-,,Study/JOL,"Study Phase",2034,,,-1,-1,,,,1
5d0a90bb7c5110001acaa336,erfrv1t955,Nick_Dissertation_EX1,1,79,2020-10-24T10:27:25-07:00,2.1043272018433,1,versionA_stim.csv,READVersionA.csv,"Read Version A","Dissertation, read only version A",DUE,ASSIGNMENT,Study1,S,46,84,Study,User,-,,Study/JOL,"Study Phase",1809,,,-1,-1,,,,1
5d0a90bb7c5110001acaa336,erfrv1t955,Nick_Dissertation_EX1,1,80,2020-10-24T10:27:27-07:00,2.301796913147,1,versionA_stim.csv,READVersionA.csv,"Read Version A","Dissertation, read only version A",LAW,ATTORNEY,Study1,B,34,78,Study,User,-,,Study/JOL,"Study Phase",1854,,,-1,-1,,,,1
5d0a90bb7c5110001acaa336,erfrv1t955,Nick_Dissertation_EX1,1,81,2020-10-24T10:27:29-07:00,1.9300889968872,1,versionA_stim.csv,READVersionA.csv,"Read Version A","Dissertation, read only version A",HERD,COW,Study1,F,22,63,Study,User,-,,Study/JOL,"Study Phase",1633,,,-1,-1,,,,1
5d0a90bb7c5110001acaa336,erfrv1t955,Nick_Dissertation_EX1,1,82,2020-10-24T10:27:35-07:00,5.5480918884277,1,versionA_stim.csv,READVersionA.csv,"Read Version A","Dissertation, read only version A",ALLOW,TUCK,Study1,U,78,70,Study,User,-,,Study/JOL,"Study Phase",5162,,,-1,-1,,,,1
5d0a90bb7c5110001acaa336,erfrv1t955,Nick_Dissertation_EX1,1,83,2020-10-24T10:27:41-07:00,6.7093191146851,1,versionA_stim.csv,READVersionA.csv,"Read Version A","Dissertation, read only version A",ART,LION,Study1,U,79,85,Study,User,-,,Study/JOL,"Study Phase",6294,,,-1,-1,,,,1
5d0a90bb7c5110001acaa336,erfrv1t955,Nick_Dissertation_EX1,1,84,2020-10-24T10:27:44-07:00,2.5906529426575,1,versionA_stim.csv,READVersionA.csv,"Read Version A","Dissertation, read only version A",WINE,CHEESE,Study1,S,57,28,Study,User,-,,Study/JOL,"Study Phase",2193,,,-1,-1,,,,1
5d0a90bb7c5110001acaa336,erfrv1t955,Nick_Dissertation_EX1,1,85,2020-10-24T10:27:48-07:00,3.7686939239502,1,versionA_stim.csv,READVersionA.csv,"Read Version A","Dissertation, read only version A",FIX,HAND,Study1,U,75,16,Study,User,-,,Study/JOL,"Study Phase",3365,,,-1,-1,,,,1
5d0a90bb7c5110001acaa336,erfrv1t955,Nick_Dissertation_EX1,1,86,2020-10-24T10:27:51-07:00,3.0418071746826,1,versionA_stim.csv,READVersionA.csv,"Read Version A","Dissertation, read only version A",TAKE,SEIZE,Study1,B,29,86,Study,User,-,,Study/JOL,"Study Phase",2626,,,-1,-1,,,,1
5d0a90bb7c5110001acaa336,erfrv1t955,Nick_Dissertation_EX1,1,87,2020-10-24T10:27:55-07:00,4.1023659706116,1,versionA_stim.csv,READVersionA.csv,"Read Version A","Dissertation, read only version A",MALT,CHOCOLATE,BUFFER2,Buffer,88,88,Study,User,-,,Study/JOL,BUFFER2,3698,,,-1,-1,,,,1
5d0a90bb7c5110001acaa336,erfrv1t955,Nick_Dissertation_EX1,1,88,2020-10-24T10:27:58-07:00,2.7919988632202,1,versionA_stim.csv,READVersionA.csv,"Read Version A","Dissertation, read only version A",GEESE,GOOSE,BUFFER2,Buffer,86,90,Study,User,-,,Study/JOL,BUFFER2,2394,,,-1,-1,,,,1
5d0a90bb7c5110001acaa336,erfrv1t955,Nick_Dissertation_EX1,1,89,2020-10-24T10:28:00-07:00,1.7828559875488,1,versionA_stim.csv,READVersionA.csv,"Read Version A","Dissertation, read only version A",MOON,SPACE,BUFFER2,Buffer,89,89,Study,User,-,,Study/JOL,BUFFER2,1463,,,-1,-1,,,,1
5d0a90bb7c5110001acaa336,erfrv1t955,Nick_Dissertation_EX1,1,90,2020-10-24T10:28:04-07:00,4.7581551074982,1,versionA_stim.csv,READVersionA.csv,"Read Version A","Dissertation, read only version A",THING,STUFF,BUFFER2,Buffer,90,91,Study,User,-,,Study/JOL,BUFFER2,4305,,,-1,-1,,,,1
5d0a90bb7c5110001acaa336,erfrv1t955,Nick_Dissertation_EX1,1,91,2020-10-24T10:28:07-07:00,2.6891510486603,1,versionA_stim.csv,READVersionA.csv,"Read Version A","Dissertation, read only version A",SHERRIF,POLICE,BUFFER2,Buffer,87,87,Study,User,-,,Study/JOL,BUFFER2,2189,,,-1,-1,,,,1
5d0a90bb7c5110001acaa336,erfrv1t955,Nick_Dissertation_EX1,1,92,2020-10-24T10:28:10-07:00,3.1090738773346,1,versionA_stim.csv,READVersionA.csv,"Read Version A","Dissertation, read only version A",,,,,,0,Instruct,User,-,"You have completed this section. Please press Enter.",Filler_Instruction,Instruct2,1977,,,-1,-1,,,,1
5d0a90bb7c5110001acaa336,erfrv1t955,Nick_Dissertation_EX1,1,93,2020-10-24T10:30:10-07:00,120.41036105156,1,versionA_stim.csv,READVersionA.csv,"Read Version A","Dissertation, read only version A",,,,,,0,FreeRecall,120,120,"Please list the 50 US states in alphabetical order. The task will automatically advance to the next screen after two minutes.",,Filler1,120008,"Florida Massachusetts Montana New Jersey New York Ohio Oklahoma Texas Vermont Virginia Washington West Virginia",0,8845,119990,0,0,,0.991
5d0a90bb7c5110001acaa336,erfrv1t955,Nick_Dissertation_EX1,1,94,2020-10-24T10:30:23-07:00,12.369616031647,1,versionA_stim.csv,READVersionA.csv,"Read Version A","Dissertation, read only version A",,,,,,0,Instruct,-,10,"You will now be presented with the first word from each of the previously studied item pairs. Please type the missing word. If you do not know the word, you may guess or press Enter to skip forward to the next pair.",,Instruct3,11930,,,-1,-1,,,,1
5d0a90bb7c5110001acaa336,erfrv1t955,Nick_Dissertation_EX1,1,95,2020-10-24T10:30:30-07:00,7.159049987793,1,versionA_stim.csv,READVersionA.csv,"Read Version A","Dissertation, read only version A",PLANE,PILOT,Study1,B,44,22,Test,User,-,,Recall,Recall1,6726,PILOT,100,2194,5708,1,1,,1
5d0a90bb7c5110001acaa336,erfrv1t955,Nick_Dissertation_EX1,1,96,2020-10-24T10:30:36-07:00,5.9806890487671,1,versionA_stim.csv,READVersionA.csv,"Read Version A","Dissertation, read only version A",HUNGER,FAMINE,Study1,B,40,66,Test,User,-,,Recall,Recall1,5557,FAMINE,100,4458,5147,1,1,,1
5d0a90bb7c5110001acaa336,erfrv1t955,Nick_Dissertation_EX1,1,97,2020-10-24T10:30:39-07:00,2.7172598838806,1,versionA_stim.csv,READVersionA.csv,"Read Version A","Dissertation, read only version A",BRIDGE,WATER,Study1,F,18,49,Test,User,-,,Recall,Recall1,2279,WATER,100,1588,2128,1,1,,1
5d0a90bb7c5110001acaa336,erfrv1t955,Nick_Dissertation_EX1,1,98,2020-10-24T10:30:41-07:00,2.6594061851501,1,versionA_stim.csv,READVersionA.csv,"Read Version A","Dissertation, read only version A",HYGIENE,CLEAN,Study1,F,17,55,Test,User,-,,Recall,Recall1,2221,CLEAN,100,1483,1896,1,1,,1
5d0a90bb7c5110001acaa336,erfrv1t955,Nick_Dissertation_EX1,1,99,2020-10-24T10:30:46-07:00,4.5212438106537,1,versionA_stim.csv,READVersionA.csv,"Read Version A","Dissertation, read only version A",SENTENCE,WORD,Study1,B,31,7,Test,User,-,,Recall,Recall1,4130,WORD,100,1496,1971,1,1,,1
5d0a90bb7c5110001acaa336,erfrv1t955,Nick_Dissertation_EX1,1,100,2020-10-24T10:30:50-07:00,3.6932811737061,1,versionA_stim.csv,READVersionA.csv,"Read Version A","Dissertation, read only version A",PUSHER,CLUTTER,Study1,U,66,57,Test,User,-,,Recall,Recall1,3283,CLUTTER,100,2167,3072,1,1,,1
5d0a90bb7c5110001acaa336,erfrv1t955,Nick_Dissertation_EX1,1,101,2020-10-24T10:30:55-07:00,5.5400710105896,1,versionA_stim.csv,READVersionA.csv,"Read Version A","Dissertation, read only version A",HIDE,SICK,Study1,U,84,47,Test,User,-,,Recall,Recall1,5067,SICK,100,1264,4231,1,1,,1
5d0a90bb7c5110001acaa336,erfrv1t955,Nick_Dissertation_EX1,1,102,2020-10-24T10:30:58-07:00,2.635312795639,1,versionA_stim.csv,READVersionA.csv,"Read Version A","Dissertation, read only version A",LOCATION,SITE,Study1,S,48,35,Test,User,-,,Recall,Recall1,2242,PLACE,22.222222222222,1501,2035,0,0,,1
5d0a90bb7c5110001acaa336,erfrv1t955,Nick_Dissertation_EX1,1,103,2020-10-24T10:31:01-07:00,3.5620541572571,1,versionA_stim.csv,READVersionA.csv,"Read Version A","Dissertation, read only version A",ARCHITECTURE,DESIGN,Study1,S,51,9,Test,User,-,,Recall,Recall1,3160,DESIGN,100,2023,2709,1,1,,1
5d0a90bb7c5110001acaa336,erfrv1t955,Nick_Dissertation_EX1,1,104,2020-10-24T10:31:06-07:00,4.741269826889,1,versionA_stim.csv,READVersionA.csv,"Read Version A","Dissertation, read only version A",DUMP,WASTE,Study1,S,49,83,Test,User,-,,Recall,Recall1,4320,WASTE,100,3374,4206,1,1,,1
5d0a90bb7c5110001acaa336,erfrv1t955,Nick_Dissertation_EX1,1,105,2020-10-24T10:31:10-07:00,4.3310561180115,1,versionA_stim.csv,READVersionA.csv,"Read Version A","Dissertation, read only version A",STRONG,ACCIDENT,Study1,U,80,27,Test,User,-,,Recall,Recall1,3901,WEAK,16.666666666667,1215,1794,0,0,,1
5d0a90bb7c5110001acaa336,erfrv1t955,Nick_Dissertation_EX1,1,106,2020-10-24T10:31:15-07:00,4.6692669391632,1,versionA_stim.csv,READVersionA.csv,"Read Version A","Dissertation, read only version A",CASH,WOULD,Study1,U,83,24,Test,User,-,,Recall,Recall1,4262,WOULD,100,3237,3810,1,1,,1
5d0a90bb7c5110001acaa336,erfrv1t955,Nick_Dissertation_EX1,1,107,2020-10-24T10:31:28-07:00,12.634411096573,1,versionA_stim.csv,READVersionA.csv,"Read Version A","Dissertation, read only version A",DIGESTION,STOMACH,Study1,F,7,19,Test,User,-,,Recall,Recall1,12181,STOMACH,100,9824,11725,1,1,,1
5d0a90bb7c5110001acaa336,erfrv1t955,Nick_Dissertation_EX1,1,108,2020-10-24T10:31:29-07:00,1.6373858451843,1,versionA_stim.csv,READVersionA.csv,"Read Version A","Dissertation, read only version A",HONEY,BEE,Study1,S,63,11,Test,User,-,,Recall,Recall1,1273,BEE,100,907,1170,1,1,,1
5d0a90bb7c5110001acaa336,erfrv1t955,Nick_Dissertation_EX1,1,109,2020-10-24T10:31:32-07:00,2.3514392375946,1,versionA_stim.csv,READVersionA.csv,"Read Version A","Dissertation, read only version A",GEOLOGY,ROCK,Study1,F,19,56,Test,User,-,,Recall,Recall1,1943,ROCK,100,1194,1478,1,1,,1
5d0a90bb7c5110001acaa336,erfrv1t955,Nick_Dissertation_EX1,1,110,2020-10-24T10:31:35-07:00,3.4114317893982,1,versionA_stim.csv,READVersionA.csv,"Read Version A","Dissertation, read only version A",DEATH,BUSINESS,Study1,U,72,54,Test,User,-,,Recall,Recall1,2993,BUSINESS,100,1795,2849,1,1,,1
5d0a90bb7c5110001acaa336,erfrv1t955,Nick_Dissertation_EX1,1,111,2020-10-24T10:31:43-07:00,8.2089610099792,1,versionA_stim.csv,READVersionA.csv,"Read Version A","Dissertation, read only version A",HAPPY,CAR,Study1,U,77,10,Test,User,-,,Recall,Recall1,7798,PLACE,25,7113,7673,0,0,,1
5d0a90bb7c5110001acaa336,erfrv1t955,Nick_Dissertation_EX1,1,112,2020-10-24T10:31:45-07:00,2.0020051002502,1,versionA_stim.csv,READVersionA.csv,"Read Version A","Dissertation, read only version A",PAW,DOG,Study1,F,15,12,Test,User,-,,Recall,Recall1,1670,DOG,100,1061,1365,1,1,,1
5d0a90bb7c5110001acaa336,erfrv1t955,Nick_Dissertation_EX1,1,113,2020-10-24T10:31:57-07:00,11.614722013474,1,versionA_stim.csv,READVersionA.csv,"Read Version A","Dissertation, read only version A",SOON,BELT,Study1,U,70,29,Test,User,-,,Recall,Recall1,11221,NEAR,25,10784,11111,0,0,,1
5d0a90bb7c5110001acaa336,erfrv1t955,Nick_Dissertation_EX1,1,114,2020-10-24T10:32:00-07:00,2.6759719848633,1,versionA_stim.csv,READVersionA.csv,"Read Version A","Dissertation, read only version A",BALL,RACKET,Study1,B,38,53,Test,User,-,,Recall,Recall1,2261,PARK,40,1213,1528,0,0,,1
5d0a90bb7c5110001acaa336,erfrv1t955,Nick_Dissertation_EX1,1,115,2020-10-24T10:32:05-07:00,5.6081938743591,1,versionA_stim.csv,READVersionA.csv,"Read Version A","Dissertation, read only version A",CLOTHES,ATTIRE,Study1,B,43,46,Test,User,-,,Recall,Recall1,5168,WEAR,20,1992,2898,0,0,,1
5d0a90bb7c5110001acaa336,erfrv1t955,Nick_Dissertation_EX1,1,116,2020-10-24T10:32:09-07:00,3.4564850330353,1,versionA_stim.csv,READVersionA.csv,"Read Version A","Dissertation, read only version A",TAKE,SEIZE,Study1,B,29,86,Test,User,-,,Recall,Recall1,3024,SEIZE,100,2023,2848,1,1,,1
5d0a90bb7c5110001acaa336,erfrv1t955,Nick_Dissertation_EX1,1,117,2020-10-24T10:32:20-07:00,11.220839977264,1,versionA_stim.csv,READVersionA.csv,"Read Version A","Dissertation, read only version A",DRINK,SIP,Study1,B,27,48,Test,User,-,,Recall,Recall1,10765,,0,1292,9203,0,0,,1
5d0a90bb7c5110001acaa336,erfrv1t955,Nick_Dissertation_EX1,1,118,2020-10-24T10:32:28-07:00,7.8286650180817,1,versionA_stim.csv,READVersionA.csv,"Read Version A","Dissertation, read only version A",EDITOR,NEWS,Study1,F,10,58,Test,User,-,,Recall,Recall1,7391,NEWS,100,1842,7163,1,1,,1
5d0a90bb7c5110001acaa336,erfrv1t955,Nick_Dissertation_EX1,1,119,2020-10-24T10:32:36-07:00,8.31924700737,1,versionA_stim.csv,READVersionA.csv,"Read Version A","Dissertation, read only version A",BABY,CHILD,Study1,S,64,79,Test,User,-,,Recall,Recall1,7874,INFANT,18.181818181818,2407,3068,0,0,,1
5d0a90bb7c5110001acaa336,erfrv1t955,Nick_Dissertation_EX1,1,120,2020-10-24T10:32:38-07:00,2.3310360908508,1,versionA_stim.csv,READVersionA.csv,"Read Version A","Dissertation, read only version A",TUNA,FISH,Study1,F,25,36,Test,User,-,,Recall,Recall1,1920,FISH,100,1042,1320,1,1,,1
5d0a90bb7c5110001acaa336,erfrv1t955,Nick_Dissertation_EX1,1,121,2020-10-24T10:32:58-07:00,19.963068008423,1,versionA_stim.csv,READVersionA.csv,"Read Version A","Dissertation, read only version A",DIETARY,SACKING,Study1,U,67,34,Test,User,-,,Recall,Recall1,19542,,0,-1,-1,0,0,,1
5d0a90bb7c5110001acaa336,erfrv1t955,Nick_Dissertation_EX1,1,122,2020-10-24T10:33:02-07:00,3.2434470653534,1,versionA_stim.csv,READVersionA.csv,"Read Version A","Dissertation, read only version A",SWAN,BIRD,Study1,F,14,72,Test,User,-,,Recall,Recall1,2835,BIRD,100,2179,2716,1,1,,1
5d0a90bb7c5110001acaa336,erfrv1t955,Nick_Dissertation_EX1,1,123,2020-10-24T10:33:06-07:00,4.0874898433685,1,versionA_stim.csv,READVersionA.csv,"Read Version A","Dissertation, read only version A",ALLOW,TUCK,Study1,U,78,70,Test,User,-,,Recall,Recall1,3683,,0,2808,2808,0,0,,1
5d0a90bb7c5110001acaa336,erfrv1t955,Nick_Dissertation_EX1,1,124,2020-10-24T10:33:09-07:00,2.9609730243683,1,versionA_stim.csv,READVersionA.csv,"Read Version A","Dissertation, read only version A",LIFT,WOMAN,Study1,U,69,62,Test,User,-,,Recall,Recall1,2525,WOMAN,100,1137,2274,1,1,,1
5d0a90bb7c5110001acaa336,erfrv1t955,Nick_Dissertation_EX1,1,125,2020-10-24T10:33:13-07:00,4.8236639499664,1,versionA_stim.csv,READVersionA.csv,"Read Version A","Dissertation, read only version A",DUE,ASSIGNMENT,Study1,S,46,84,Test,User,-,,Recall,Recall1,3370,ASSIGNMENT,100,1322,2658,1,1,,1
5d0a90bb7c5110001acaa336,erfrv1t955,Nick_Dissertation_EX1,1,126,2020-10-24T10:33:16-07:00,2.8647520542145,1,versionA_stim.csv,READVersionA.csv,"Read Version A","Dissertation, read only version A",BUG,WASP,Study1,B,32,13,Test,User,-,,Recall,Recall1,2424,WASP,100,1618,2122,1,1,,1
5d0a90bb7c5110001acaa336,erfrv1t955,Nick_Dissertation_EX1,1,127,2020-10-24T10:33:19-07:00,2.3276650905609,1,versionA_stim.csv,READVersionA.csv,"Read Version A","Dissertation, read only version A",REVOLUTION,WAR,Study1,F,20,65,Test,User,-,,Recall,Recall1,1794,WAR,100,1193,1556,1,1,,1
5d0a90bb7c5110001acaa336,erfrv1t955,Nick_Dissertation_EX1,1,128,2020-10-24T10:33:22-07:00,3.24205493927,1,versionA_stim.csv,READVersionA.csv,"Read Version A","Dissertation, read only version A",KING,VASE,Study1,U,85,39,Test,User,-,,Recall,Recall1,2822,WINE,25,2218,2526,0,0,,1
5d0a90bb7c5110001acaa336,erfrv1t955,Nick_Dissertation_EX1,1,129,2020-10-24T10:33:25-07:00,3.5238080024719,1,versionA_stim.csv,READVersionA.csv,"Read Version A","Dissertation, read only version A",HORNET,STING,Study1,F,11,18,Test,User,-,,Recall,Recall1,3080,STING,100,2249,2793,1,1,,1
5d0a90bb7c5110001acaa336,erfrv1t955,Nick_Dissertation_EX1,1,130,2020-10-24T10:33:30-07:00,4.4014849662781,1,versionA_stim.csv,READVersionA.csv,"Read Version A","Dissertation, read only version A",WINE,CHEESE,Study1,S,57,28,Test,User,-,,Recall,Recall1,3922,CHEESE,100,3116,3747,1,1,,1
5d0a90bb7c5110001acaa336,erfrv1t955,Nick_Dissertation_EX1,1,131,2020-10-24T10:33:36-07:00,5.9113280773163,1,versionA_stim.csv,READVersionA.csv,"Read Version A","Dissertation, read only version A",HEIGHT,GROWTH,Study1,B,30,59,Test,User,-,,Recall,Recall1,5340,AGE,22.222222222222,2375,5030,0,0,,1
5d0a90bb7c5110001acaa336,erfrv1t955,Nick_Dissertation_EX1,1,132,2020-10-24T10:33:39-07:00,2.8304169178009,1,versionA_stim.csv,READVersionA.csv,"Read Version A","Dissertation, read only version A",DELINQUENT,BAD,Study1,F,6,82,Test,User,-,,Recall,Recall1,1471,BAD,100,1061,1334,1,1,,1
5d0a90bb7c5110001acaa336,erfrv1t955,Nick_Dissertation_EX1,1,133,2020-10-24T10:33:42-07:00,2.9435451030731,1,versionA_stim.csv,READVersionA.csv,"Read Version A","Dissertation, read only version A",DISCUSSION,TALK,Study1,F,21,74,Test,User,-,,Recall,Recall1,2531,TALK,100,1789,2207,1,1,,1
5d0a90bb7c5110001acaa336,erfrv1t955,Nick_Dissertation_EX1,1,134,2020-10-24T10:33:46-07:00,4.5428259372711,1,versionA_stim.csv,READVersionA.csv,"Read Version A","Dissertation, read only version A",CHISEL,HAMMER,Study1,F,9,67,Test,User,-,,Recall,Recall1,4025,STATUE,33.333333333333,3036,3732,0,0,,1
5d0a90bb7c5110001acaa336,erfrv1t955,Nick_Dissertation_EX1,1,135,2020-10-24T10:33:48-07:00,2.447958946228,1,versionA_stim.csv,READVersionA.csv,"Read Version A","Dissertation, read only version A",BITTER,COLD,Study1,F,12,25,Test,User,-,,Recall,Recall1,2016,SWEET,0,1098,1876,0,0,,1
5d0a90bb7c5110001acaa336,erfrv1t955,Nick_Dissertation_EX1,1,136,2020-10-24T10:33:55-07:00,6.5354330539703,1,versionA_stim.csv,READVersionA.csv,"Read Version A","Dissertation, read only version A",FULL,ENOUGH,Study1,B,26,20,Test,User,-,,Recall,Recall1,6128,ENOUGH,100,4623,5729,1,1,,1
5d0a90bb7c5110001acaa336,erfrv1t955,Nick_Dissertation_EX1,1,137,2020-10-24T10:33:59-07:00,3.8763699531555,1,versionA_stim.csv,READVersionA.csv,"Read Version A","Dissertation, read only version A",MACHINE,POSITION,Study1,U,76,38,Test,User,-,,Recall,Recall1,3438,POSITION,100,2201,3148,1,1,,1
5d0a90bb7c5110001acaa336,erfrv1t955,Nick_Dissertation_EX1,1,138,2020-10-24T10:34:08-07:00,9.2942931652069,1,versionA_stim.csv,READVersionA.csv,"Read Version A","Dissertation, read only version A",SLEEP,DROWSY,Study1,B,41,30,Test,User,-,,Recall,Recall1,8849,,0,3134,3760,0,0,,1
5d0a90bb7c5110001acaa336,erfrv1t955,Nick_Dissertation_EX1,1,139,2020-10-24T10:34:26-07:00,17.940805912018,1,versionA_stim.csv,READVersionA.csv,"Read Version A","Dissertation, read only version A",ART,LION,Study1,U,79,85,Test,User,-,,Recall,Recall1,17454,BRONZE,40,4641,17321,0,0,,1
5d0a90bb7c5110001acaa336,erfrv1t955,Nick_Dissertation_EX1,1,140,2020-10-24T10:34:33-07:00,7.1546869277954,1,versionA_stim.csv,READVersionA.csv,"Read Version A","Dissertation, read only version A",SUGAR,RIDDLE,Study1,U,81,31,Test,User,-,,Recall,Recall1,6643,SWEET,18.181818181818,3418,6229,0,0,,1
5d0a90bb7c5110001acaa336,erfrv1t955,Nick_Dissertation_EX1,1,141,2020-10-24T10:34:37-07:00,3.5156970024109,1,versionA_stim.csv,READVersionA.csv,"Read Version A","Dissertation, read only version A",FIRE,BLAZE,Study1,B,45,14,Test,User,-,,Recall,Recall1,2983,HEAT,22.222222222222,1573,1990,0,0,,1
5d0a90bb7c5110001acaa336,erfrv1t955,Nick_Dissertation_EX1,1,142,2020-10-24T10:34:43-07:00,6.6547880172729,1,versionA_stim.csv,READVersionA.csv,"Read Version A","Dissertation, read only version A",KEY,LATCH,Study1,B,36,77,Test,User,-,,Recall,Recall1,5259,LOCK,44.444444444444,4196,4659,0,0,,1
5d0a90bb7c5110001acaa336,erfrv1t955,Nick_Dissertation_EX1,1,143,2020-10-24T10:34:46-07:00,2.4463341236115,1,versionA_stim.csv,READVersionA.csv,"Read Version A","Dissertation, read only version A",WAGE,MONEY,Study1,F,8,26,Test,User,-,,Recall,Recall1,2024,EARN,22.222222222222,1293,1743,0,0,,1
5d0a90bb7c5110001acaa336,erfrv1t955,Nick_Dissertation_EX1,1,144,2020-10-24T10:34:51-07:00,4.8564620018005,1,versionA_stim.csv,READVersionA.csv,"Read Version A","Dissertation, read only version A",PARK,HUNGRY,Study1,U,68,68,Test,User,-,,Recall,Recall1,4452,,0,-1,-1,0,0,,1
5d0a90bb7c5110001acaa336,erfrv1t955,Nick_Dissertation_EX1,1,145,2020-10-24T10:34:56-07:00,5.0654189586639,1,versionA_stim.csv,READVersionA.csv,"Read Version A","Dissertation, read only version A",MATH,DIVISION,Study1,B,33,52,Test,User,-,,Recall,Recall1,4616,,0,-1,-1,0,0,,1
5d0a90bb7c5110001acaa336,erfrv1t955,Nick_Dissertation_EX1,1,146,2020-10-24T10:35:00-07:00,4.5188870429993,1,versionA_stim.csv,READVersionA.csv,"Read Version A","Dissertation, read only version A",GREAT,FANTASTIC,Study1,B,35,50,Test,User,-,,Recall,Recall1,3998,FANTASTIC,100,2265,3825,1,1,,1
5d0a90bb7c5110001acaa336,erfrv1t955,Nick_Dissertation_EX1,1,147,2020-10-24T10:35:08-07:00,7.2786238193512,1,versionA_stim.csv,READVersionA.csv,"Read Version A","Dissertation, read only version A",BLOW,WIND,Study1,S,55,81,Test,User,-,,Recall,Recall1,6810,,0,1717,5437,0,0,,1
5d0a90bb7c5110001acaa336,erfrv1t955,Nick_Dissertation_EX1,1,148,2020-10-24T10:35:12-07:00,4.4602200984955,1,versionA_stim.csv,READVersionA.csv,"Read Version A","Dissertation, read only version A",WORK,CHORE,Study1,B,39,15,Test,User,-,,Recall,Recall1,4046,,0,-1,-1,0,0,,1
5d0a90bb7c5110001acaa336,erfrv1t955,Nick_Dissertation_EX1,1,149,2020-10-24T10:35:15-07:00,2.5768740177155,1,versionA_stim.csv,READVersionA.csv,"Read Version A","Dissertation, read only version A",HERD,COW,Study1,F,22,63,Test,User,-,,Recall,Recall1,2143,COW,100,1190,1407,1,1,,1
5d0a90bb7c5110001acaa336,erfrv1t955,Nick_Dissertation_EX1,1,150,2020-10-24T10:35:30-07:00,15.420732975006,1,versionA_stim.csv,READVersionA.csv,"Read Version A","Dissertation, read only version A",ARTERY,BRONZE,Study1,U,74,75,Test,User,-,,Recall,Recall1,14970,BLOOD,36.363636363636,8653,14332,0,0,,1
5d0a90bb7c5110001acaa336,erfrv1t955,Nick_Dissertation_EX1,1,151,2020-10-24T10:35:35-07:00,4.6626069545746,1,versionA_stim.csv,READVersionA.csv,"Read Version A","Dissertation, read only version A",WAY,OUT,Study1,F,16,17,Test,User,-,,Recall,Recall1,4162,PATH,28.571428571429,2962,3351,0,0,,1
5d0a90bb7c5110001acaa336,erfrv1t955,Nick_Dissertation_EX1,1,152,2020-10-24T10:35:36-07:00,1.5291090011597,1,versionA_stim.csv,READVersionA.csv,"Read Version A","Dissertation, read only version A",NUMBER,AMOUNT,Study1,S,47,32,Test,User,-,,Recall,Recall1,1200,,0,-1,-1,0,0,,1
5d0a90bb7c5110001acaa336,erfrv1t955,Nick_Dissertation_EX1,1,153,2020-10-24T10:35:53-07:00,17.064383983612,1,versionA_stim.csv,READVersionA.csv,"Read Version A","Dissertation, read only version A",VALLEY,ADD,Study1,U,82,45,Test,User,-,,Recall,Recall1,16651,,0,3488,15702,0,0,,1
5d0a90bb7c5110001acaa336,erfrv1t955,Nick_Dissertation_EX1,1,154,2020-10-24T10:35:55-07:00,1.9524431228638,1,versionA_stim.csv,READVersionA.csv,"Read Version A","Dissertation, read only version A",BEGIN,END,Study1,S,54,44,Test,User,-,,Recall,Recall1,1588,END,100,1175,1435,1,1,,1
5d0a90bb7c5110001acaa336,erfrv1t955,Nick_Dissertation_EX1,1,155,2020-10-24T10:35:59-07:00,3.6241159439087,1,versionA_stim.csv,READVersionA.csv,"Read Version A","Dissertation, read only version A",KIDNEY,LIVER,Study1,S,53,40,Test,User,-,,Recall,Recall1,3209,LIVER,100,1817,2378,1,1,,1
5d0a90bb7c5110001acaa336,erfrv1t955,Nick_Dissertation_EX1,1,156,2020-10-24T10:36:01-07:00,2.1234729290009,1,versionA_stim.csv,READVersionA.csv,"Read Version A","Dissertation, read only version A",CREDIT,CARD,Study1,F,23,37,Test,User,-,,Recall,Recall1,1783,CARD,100,1104,1683,1,1,,1
5d0a90bb7c5110001acaa336,erfrv1t955,Nick_Dissertation_EX1,1,157,2020-10-24T10:36:03-07:00,2.006325006485,1,versionA_stim.csv,READVersionA.csv,"Read Version A","Dissertation, read only version A",GRILL,BAR,Study1,S,52,73,Test,User,-,,Recall,Recall1,1697,BAR,100,1345,1534,1,1,,1
5d0a90bb7c5110001acaa336,erfrv1t955,Nick_Dissertation_EX1,1,158,2020-10-24T10:36:10-07:00,7.4384200572968,1,versionA_stim.csv,READVersionA.csv,"Read Version A","Dissertation, read only version A",MEANING,DEFINITION,Study1,S,62,71,Test,User,-,,Recall,Recall1,7038,DEFINITION,100,2355,5893,1,1,,1
5d0a90bb7c5110001acaa336,erfrv1t955,Nick_Dissertation_EX1,1,159,2020-10-24T10:36:13-07:00,2.0101959705353,1,versionA_stim.csv,READVersionA.csv,"Read Version A","Dissertation, read only version A",ORCHID,FLOWER,Study1,F,24,43,Test,User,-,,Recall,Recall1,1700,FLOWER,100,1026,1585,1,1,,1
5d0a90bb7c5110001acaa336,erfrv1t955,Nick_Dissertation_EX1,1,160,2020-10-24T10:36:15-07:00,2.4850361347198,1,versionA_stim.csv,READVersionA.csv,"Read Version A","Dissertation, read only version A",DARK,CAVE,Study1,B,28,60,Test,User,-,,Recall,Recall1,2024,CAVE,100,1292,1757,1,1,,1
5d0a90bb7c5110001acaa336,erfrv1t955,Nick_Dissertation_EX1,1,161,2020-10-24T10:36:18-07:00,2.6476218700409,1,versionA_stim.csv,READVersionA.csv,"Read Version A","Dissertation, read only version A",CIRCLE,ROUND,Study1,S,65,76,Test,User,-,,Recall,Recall1,2110,ROUND,100,1422,1928,1,1,,1
5d0a90bb7c5110001acaa336,erfrv1t955,Nick_Dissertation_EX1,1,162,2020-10-24T10:36:20-07:00,1.9968559741974,1,versionA_stim.csv,READVersionA.csv,"Read Version A","Dissertation, read only version A",LETTUCE,SALAD,Study1,S,59,64,Test,User,-,,Recall,Recall1,1667,SALAD,100,976,1493,1,1,,1
5d0a90bb7c5110001acaa336,erfrv1t955,Nick_Dissertation_EX1,1,163,2020-10-24T10:36:22-07:00,2.3373620510101,1,versionA_stim.csv,READVersionA.csv,"Read Version A","Dissertation, read only version A",PAST,FUTURE,Study1,S,61,42,Test,User,-,,Recall,Recall1,1923,FUTURE,100,1009,1714,1,1,,1
5d0a90bb7c5110001acaa336,erfrv1t955,Nick_Dissertation_EX1,1,164,2020-10-24T10:36:25-07:00,3.2366259098053,1,versionA_stim.csv,READVersionA.csv,"Read Version A","Dissertation, read only version A",SHOE,FOOT,Study1,S,60,51,Test,User,-,,Recall,Recall1,2801,FOOT,100,1953,2272,1,1,,1
5d0a90bb7c5110001acaa336,erfrv1t955,Nick_Dissertation_EX1,1,165,2020-10-24T10:36:28-07:00,2.8736209869385,1,versionA_stim.csv,READVersionA.csv,"Read Version A","Dissertation, read only version A",BATHROOM,TOILET,Study1,S,58,61,Test,User,-,,Recall,Recall1,2395,TOILET,100,1355,2007,1,1,,1
5d0a90bb7c5110001acaa336,erfrv1t955,Nick_Dissertation_EX1,1,166,2020-10-24T10:36:32-07:00,3.8787820339203,1,versionA_stim.csv,READVersionA.csv,"Read Version A","Dissertation, read only version A",LAW,ATTORNEY,Study1,B,34,78,Test,User,-,,Recall,Recall1,3428,SHERIFF,13.333333333333,1988,2970,0,0,,1
5d0a90bb7c5110001acaa336,erfrv1t955,Nick_Dissertation_EX1,1,167,2020-10-24T10:36:35-07:00,3.3623549938202,1,versionA_stim.csv,READVersionA.csv,"Read Version A","Dissertation, read only version A",ROOT,PLANT,Study1,F,13,33,Test,User,-,,Recall,Recall1,2964,TREE,22.222222222222,2128,2773,0,0,,1
5d0a90bb7c5110001acaa336,erfrv1t955,Nick_Dissertation_EX1,1,168,2020-10-24T10:36:40-07:00,5.0123810768127,1,versionA_stim.csv,READVersionA.csv,"Read Version A","Dissertation, read only version A",HOT,CHILI,Study1,B,37,80,Test,User,-,,Recall,Recall1,4601,CHILI,100,1532,4268,1,1,,1
5d0a90bb7c5110001acaa336,erfrv1t955,Nick_Dissertation_EX1,1,169,2020-10-24T10:36:44-07:00,3.503830909729,1,versionA_stim.csv,READVersionA.csv,"Read Version A","Dissertation, read only version A",DEBATE,SIGHT,Study1,U,73,21,Test,User,-,,Recall,Recall1,3064,,0,-1,-1,0,0,,1
5d0a90bb7c5110001acaa336,erfrv1t955,Nick_Dissertation_EX1,1,170,2020-10-24T10:36:47-07:00,3.4418170452118,1,versionA_stim.csv,READVersionA.csv,"Read Version A","Dissertation, read only version A",SMELL,STENCH,Study1,B,42,23,Test,User,-,,Recall,Recall1,3045,TASTE,54.545454545455,1906,2656,0,0,,1
5d0a90bb7c5110001acaa336,erfrv1t955,Nick_Dissertation_EX1,1,171,2020-10-24T10:36:50-07:00,2.3164720535278,1,versionA_stim.csv,READVersionA.csv,"Read Version A","Dissertation, read only version A",FIX,HAND,Study1,U,75,16,Test,User,-,,Recall,Recall1,1902,HAND,100,1354,1657,1,1,,1
5d0a90bb7c5110001acaa336,erfrv1t955,Nick_Dissertation_EX1,1,172,2020-10-24T10:36:53-07:00,3.4496359825134,1,versionA_stim.csv,READVersionA.csv,"Read Version A","Dissertation, read only version A",TRIAL,JURY,Study1,S,50,69,Test,User,-,,Recall,Recall1,3014,JURY,100,1713,2147,1,1,,1
5d0a90bb7c5110001acaa336,erfrv1t955,Nick_Dissertation_EX1,1,173,2020-10-24T10:36:55-07:00,2.4494059085846,1,versionA_stim.csv,READVersionA.csv,"Read Version A","Dissertation, read only version A",DISCOVER,FLOOR,Study1,U,71,8,Test,User,-,,Recall,Recall1,2002,FIND,22.222222222222,1363,1812,0,0,,1
5d0a90bb7c5110001acaa336,erfrv1t955,Nick_Dissertation_EX1,1,174,2020-10-24T10:37:00-07:00,4.2615602016449,1,versionA_stim.csv,READVersionA.csv,"Read Version A","Dissertation, read only version A",POP,SODA,Study1,S,56,41,Test,User,-,,Recall,Recall1,3783,MUSIC,22.222222222222,2064,3545,0,0,,1
5d0a90bb7c5110001acaa336,erfrv1t955,Nick_Dissertation_EX1,1,175,2020-10-24T10:37:11-07:00,11.308297872543,1,versionA_stim.csv,READVersionA.csv,"Read Version A","Dissertation, read only version A",,,,,,0,Instruct,-,10,"You will now be presented with a new set of word pairs. Please study each pair. Remember that your memory will be tested! When finished, press Enter to move to the next pair.",Initial_Instruct,Instruct4,10887,,,-1,-1,,,,1
5d0a90bb7c5110001acaa336,erfrv1t955,Nick_Dissertation_EX1,1,176,2020-10-24T10:37:16-07:00,4.8158800601959,1,versionA_stim.csv,READVersionA.csv,"Read Version A","Dissertation, read only version A",CARROT,POTATO,BUFFER3,Buffer,91,95,Study,User,-,,Study/JOL,BUFFER3,4398,,,-1,-1,,,,1
5d0a90bb7c5110001acaa336,erfrv1t955,Nick_Dissertation_EX1,1,177,2020-10-24T10:37:19-07:00,2.7091319561005,1,versionA_stim.csv,READVersionA.csv,"Read Version A","Dissertation, read only version A",ICE,FROZEN,BUFFER3,Buffer,94,96,Study,User,-,,Study/JOL,BUFFER3,2279,,,-1,-1,,,,1
5d0a90bb7c5110001acaa336,erfrv1t955,Nick_Dissertation_EX1,1,178,2020-10-24T10:37:22-07:00,3.2906370162964,1,versionA_stim.csv,READVersionA.csv,"Read Version A","Dissertation, read only version A",CAMP,ADVENTURE,BUFFER3,Buffer,95,92,Study,User,-,,Study/JOL,BUFFER3,2886,,,-1,-1,,,,1
5d0a90bb7c5110001acaa336,erfrv1t955,Nick_Dissertation_EX1,1,179,2020-10-24T10:37:25-07:00,3.5762190818787,1,versionA_stim.csv,READVersionA.csv,"Read Version A","Dissertation, read only version A",NOODLE,STRING,BUFFER3,Buffer,92,93,Study,User,-,,Study/JOL,BUFFER3,3161,,,-1,-1,,,,1
5d0a90bb7c5110001acaa336,erfrv1t955,Nick_Dissertation_EX1,1,180,2020-10-24T10:37:29-07:00,3.6717658042908,1,versionA_stim.csv,READVersionA.csv,"Read Version A","Dissertation, read only version A",SHRIMP,FISH,BUFFER3,Buffer,93,94,Study,User,-,,Study/JOL,BUFFER3,3267,,,-1,-1,,,,1
5d0a90bb7c5110001acaa336,erfrv1t955,Nick_Dissertation_EX1,1,181,2020-10-24T10:37:34-07:00,4.4752671718597,1,versionA_stim.csv,READVersionA.csv,"Read Version A","Dissertation, read only version A",LISTEN,FICTION,Study2,U,164,101,Study,User,-,,Study/JOL,"Study Phase2",3971,,,-1,-1,,,,1
5d0a90bb7c5110001acaa336,erfrv1t955,Nick_Dissertation_EX1,1,182,2020-10-24T10:37:38-07:00,4.0852379798889,1,versionA_stim.csv,READVersionA.csv,"Read Version A","Dissertation, read only version A",ALONE,LONELY,Study2,S,145,113,Study,User,-,,Study/JOL,"Study Phase2",3653,,,-1,-1,,,,1
5d0a90bb7c5110001acaa336,erfrv1t955,Nick_Dissertation_EX1,1,183,2020-10-24T10:37:42-07:00,3.8285269737244,1,versionA_stim.csv,READVersionA.csv,"Read Version A","Dissertation, read only version A",ELEMENT,CARBON,Study2,S,141,171,Study,User,-,,Study/JOL,"Study Phase2",3394,,,-1,-1,,,,1
5d0a90bb7c5110001acaa336,erfrv1t955,Nick_Dissertation_EX1,1,184,2020-10-24T10:37:47-07:00,5.1910610198975,1,versionA_stim.csv,READVersionA.csv,"Read Version A","Dissertation, read only version A",DETECTIVE,MYSTERY,Study2,F,100,131,Study,User,-,,Study/JOL,"Study Phase2",4745,,,-1,-1,,,,1
5d0a90bb7c5110001acaa336,erfrv1t955,Nick_Dissertation_EX1,1,185,2020-10-24T10:37:50-07:00,3.0785398483276,1,versionA_stim.csv,READVersionA.csv,"Read Version A","Dissertation, read only version A",SHOELACE,TIE,Study2,F,99,132,Study,User,-,,Study/JOL,"Study Phase2",2641,,,-1,-1,,,,1
5d0a90bb7c5110001acaa336,erfrv1t955,Nick_Dissertation_EX1,1,186,2020-10-24T10:37:56-07:00,6.5672280788422,1,versionA_stim.csv,READVersionA.csv,"Read Version A","Dissertation, read only version A",ROD,REEL,Study2,S,150,151,Study,User,-,,Study/JOL,"Study Phase2",6153,,,-1,-1,,,,1
5d0a90bb7c5110001acaa336,erfrv1t955,Nick_Dissertation_EX1,1,187,2020-10-24T10:38:00-07:00,3.4221730232239,1,versionA_stim.csv,READVersionA.csv,"Read Version A","Dissertation, read only version A",CAT,PANTHER,Study2,B,126,100,Study,User,-,,Study/JOL,"Study Phase2",2926,,,-1,-1,,,,1
5d0a90bb7c5110001acaa336,erfrv1t955,Nick_Dissertation_EX1,1,188,2020-10-24T10:38:09-07:00,9.5840311050415,1,versionA_stim.csv,READVersionA.csv,"Read Version A","Dissertation, read only version A",Shell,SHAKE,Study2,U,163,134,Study,User,-,,Study/JOL,"Study Phase2",9164,,,-1,-1,,,,1
5d0a90bb7c5110001acaa336,erfrv1t955,Nick_Dissertation_EX1,1,189,2020-10-24T10:38:12-07:00,2.5748648643494,1,versionA_stim.csv,READVersionA.csv,"Read Version A","Dissertation, read only version A",GIVE,STEAK,Study2,U,158,112,Study,User,-,,Study/JOL,"Study Phase2",2168,,,-1,-1,,,,1
5d0a90bb7c5110001acaa336,erfrv1t955,Nick_Dissertation_EX1,1,190,2020-10-24T10:38:19-07:00,7.0754151344299,1,versionA_stim.csv,READVersionA.csv,"Read Version A","Dissertation, read only version A",CRACKLE,ABLE,Study2,U,162,165,Study,User,-,,Study/JOL,"Study Phase2",6576,,,-1,-1,,,,1
5d0a90bb7c5110001acaa336,erfrv1t955,Nick_Dissertation_EX1,1,191,2020-10-24T10:38:22-07:00,3.2312939167023,1,versionA_stim.csv,READVersionA.csv,"Read Version A","Dissertation, read only version A",LOUD,NOISE,Study2,S,152,164,Study,User,-,,Study/JOL,"Study Phase2",2806,,,-1,-1,,,,1
5d0a90bb7c5110001acaa336,erfrv1t955,Nick_Dissertation_EX1,1,192,2020-10-24T10:38:26-07:00,3.8352670669556,1,versionA_stim.csv,READVersionA.csv,"Read Version A","Dissertation, read only version A",MULE,DONKEY,Study2,F,108,120,Study,User,-,,Study/JOL,"Study Phase2",3406,,,-1,-1,,,,1
5d0a90bb7c5110001acaa336,erfrv1t955,Nick_Dissertation_EX1,1,193,2020-10-24T10:38:30-07:00,4.1474459171295,1,versionA_stim.csv,READVersionA.csv,"Read Version A","Dissertation, read only version A",SAFETY,SEATBELT,Study2,S,147,115,Study,User,-,,Study/JOL,"Study Phase2",3742,,,-1,-1,,,,1
5d0a90bb7c5110001acaa336,erfrv1t955,Nick_Dissertation_EX1,1,194,2020-10-24T10:38:35-07:00,4.3201770782471,1,versionA_stim.csv,READVersionA.csv,"Read Version A","Dissertation, read only version A",CLUE,GAME,Study2,F,97,152,Study,User,-,,Study/JOL,"Study Phase2",3902,,,-1,-1,,,,1
5d0a90bb7c5110001acaa336,erfrv1t955,Nick_Dissertation_EX1,1,195,2020-10-24T10:38:39-07:00,4.5653538703918,1,versionA_stim.csv,READVersionA.csv,"Read Version A","Dissertation, read only version A",MOAT,CLEAR,Study2,U,169,139,Study,User,-,,Study/JOL,"Study Phase2",4151,,,-1,-1,,,,1
5d0a90bb7c5110001acaa336,erfrv1t955,Nick_Dissertation_EX1,1,196,2020-10-24T10:38:42-07:00,2.9328391551971,1,versionA_stim.csv,READVersionA.csv,"Read Version A","Dissertation, read only version A",TANTRUM,TEMPER,Study2,S,154,140,Study,User,-,,Study/JOL,"Study Phase2",2494,,,-1,-1,,,,1
5d0a90bb7c5110001acaa336,erfrv1t955,Nick_Dissertation_EX1,1,197,2020-10-24T10:38:51-07:00,8.8687069416046,1,versionA_stim.csv,READVersionA.csv,"Read Version A","Dissertation, read only version A",MAZE,ELECTION,Study2,U,159,141,Study,User,-,,Study/JOL,"Study Phase2",8457,,,-1,-1,,,,1
5d0a90bb7c5110001acaa336,erfrv1t955,Nick_Dissertation_EX1,1,198,2020-10-24T10:38:53-07:00,2.4064328670502,1,versionA_stim.csv,READVersionA.csv,"Read Version A","Dissertation, read only version A",TRUTH,LIE,Study2,S,148,149,Study,User,-,,Study/JOL,"Study Phase2",1982,,,-1,-1,,,,1
5d0a90bb7c5110001acaa336,erfrv1t955,Nick_Dissertation_EX1,1,199,2020-10-24T10:38:57-07:00,3.9032781124115,1,versionA_stim.csv,READVersionA.csv,"Read Version A","Dissertation, read only version A",INCENSE,SMELL,Study2,F,110,128,Study,User,-,,Study/JOL,"Study Phase2",3486,,,-1,-1,,,,1
5d0a90bb7c5110001acaa336,erfrv1t955,Nick_Dissertation_EX1,1,200,2020-10-24T10:39:05-07:00,7.7604179382324,1,versionA_stim.csv,READVersionA.csv,"Read Version A","Dissertation, read only version A",THREAD,THIMBLE,Study2,B,121,136,Study,User,-,,Study/JOL,"Study Phase2",7291,,,-1,-1,,,,1
5d0a90bb7c5110001acaa336,erfrv1t955,Nick_Dissertation_EX1,1,201,2020-10-24T10:39:08-07:00,3.25044298172,1,versionA_stim.csv,READVersionA.csv,"Read Version A","Dissertation, read only version A",DRY,WET,Study2,S,146,163,Study,User,-,,Study/JOL,"Study Phase2",2823,,,-1,-1,,,,1
5d0a90bb7c5110001acaa336,erfrv1t955,Nick_Dissertation_EX1,1,202,2020-10-24T10:39:13-07:00,4.6256890296936,1,versionA_stim.csv,READVersionA.csv,"Read Version A","Dissertation, read only version A",LOAN,SIGN,Study2,U,171,156,Study,User,-,,Study/JOL,"Study Phase2",4225,,,-1,-1,,,,1
5d0a90bb7c5110001acaa336,erfrv1t955,Nick_Dissertation_EX1,1,203,2020-10-24T10:39:16-07:00,2.7401049137115,1,versionA_stim.csv,READVersionA.csv,"Read Version A","Dissertation, read only version A",GLASS,BREAKABLE,Study2,B,127,144,Study,User,-,,Study/JOL,"Study Phase2",2344,,,-1,-1,,,,1
5d0a90bb7c5110001acaa336,erfrv1t955,Nick_Dissertation_EX1,1,204,2020-10-24T10:39:22-07:00,6.3582711219788,1,versionA_stim.csv,READVersionA.csv,"Read Version A","Dissertation, read only version A",HONEST,TRUTHFUL,Study2,B,133,117,Study,User,-,,Study/JOL,"Study Phase2",5924,,,-1,-1,,,,1
5d0a90bb7c5110001acaa336,erfrv1t955,Nick_Dissertation_EX1,1,205,2020-10-24T10:39:26-07:00,3.7027909755707,1,versionA_stim.csv,READVersionA.csv,"Read Version A","Dissertation, read only version A",VEHICLE,CHARM,Study2,U,160,167,Study,User,-,,Study/JOL,"Study Phase2",3261,,,-1,-1,,,,1
5d0a90bb7c5110001acaa336,erfrv1t955,Nick_Dissertation_EX1,1,206,2020-10-24T10:39:30-07:00,4.8305599689484,1,versionA_stim.csv,READVersionA.csv,"Read Version A","Dissertation, read only version A",ADJOURN,END,Study2,F,101,103,Study,User,-,,Study/JOL,"Study Phase2",4429,,,-1,-1,,,,1
5d0a90bb7c5110001acaa336,erfrv1t955,Nick_Dissertation_EX1,1,207,2020-10-24T10:39:34-07:00,3.75026512146,1,versionA_stim.csv,READVersionA.csv,"Read Version A","Dissertation, read only version A",TURN,FLIP,Study2,B,116,169,Study,User,-,,Study/JOL,"Study Phase2",3337,,,-1,-1,,,,1
5d0a90bb7c5110001acaa336,erfrv1t955,Nick_Dissertation_EX1,1,208,2020-10-24T10:39:38-07:00,4.1673958301544,1,versionA_stim.csv,READVersionA.csv,"Read Version A","Dissertation, read only version A",CHOP,CUT,Study2,F,107,114,Study,User,-,,Study/JOL,"Study Phase2",3751,,,-1,-1,,,,1
5d0a90bb7c5110001acaa336,erfrv1t955,Nick_Dissertation_EX1,1,209,2020-10-24T10:39:41-07:00,2.253317117691,1,versionA_stim.csv,READVersionA.csv,"Read Version A","Dissertation, read only version A",WATER,DRINK,Study2,S,143,148,Study,User,-,,Study/JOL,"Study Phase2",1791,,,-1,-1,,,,1
5d0a90bb7c5110001acaa336,erfrv1t955,Nick_Dissertation_EX1,1,210,2020-10-24T10:39:43-07:00,2.7501230239868,1,versionA_stim.csv,READVersionA.csv,"Read Version A","Dissertation, read only version A",NAME,HATE,Study2,U,167,129,Study,User,-,,Study/JOL,"Study Phase2",2335,,,-1,-1,,,,1
5d0a90bb7c5110001acaa336,erfrv1t955,Nick_Dissertation_EX1,1,211,2020-10-24T10:39:46-07:00,2.5805740356445,1,versionA_stim.csv,READVersionA.csv,"Read Version A","Dissertation, read only version A",BIRD,PENGUIN,Study2,B,119,159,Study,User,-,,Study/JOL,"Study Phase2",2084,,,-1,-1,,,,1
5d0a90bb7c5110001acaa336,erfrv1t955,Nick_Dissertation_EX1,1,212,2020-10-24T10:39:49-07:00,2.8440268039703,1,versionA_stim.csv,READVersionA.csv,"Read Version A","Dissertation, read only version A",SLEEP,NAP,Study2,B,134,119,Study,User,-,,Study/JOL,"Study Phase2",2422,,,-1,-1,,,,1
5d0a90bb7c5110001acaa336,erfrv1t955,Nick_Dissertation_EX1,1,213,2020-10-24T10:39:51-07:00,2.4359641075134,1,versionA_stim.csv,READVersionA.csv,"Read Version A","Dissertation, read only version A",BAD,VILLAIN,Study2,B,118,155,Study,User,-,,Study/JOL,"Study Phase2",1992,,,-1,-1,,,,1
5d0a90bb7c5110001acaa336,erfrv1t955,Nick_Dissertation_EX1,1,214,2020-10-24T10:39:55-07:00,3.2538480758667,1,versionA_stim.csv,READVersionA.csv,"Read Version A","Dissertation, read only version A",EARTH,GROUND,Study2,S,144,130,Study,User,-,,Study/JOL,"Study Phase2",2846,,,-1,-1,,,,1
5d0a90bb7c5110001acaa336,erfrv1t955,Nick_Dissertation_EX1,1,215,2020-10-24T10:39:57-07:00,2.6165158748627,1,versionA_stim.csv,READVersionA.csv,"Read Version A","Dissertation, read only version A",PHONE,COMMUNICATION,Study2,S,149,174,Study,User,-,,Study/JOL,"Study Phase2",2180,,,-1,-1,,,,1
5d0a90bb7c5110001acaa336,erfrv1t955,Nick_Dissertation_EX1,1,216,2020-10-24T10:40:00-07:00,2.6367089748383,1,versionA_stim.csv,READVersionA.csv,"Read Version A","Dissertation, read only version A",CHILL,COLD,Study2,F,114,108,Study,User,-,,Study/JOL,"Study Phase2",2195,,,-1,-1,,,,1
5d0a90bb7c5110001acaa336,erfrv1t955,Nick_Dissertation_EX1,1,217,2020-10-24T10:40:06-07:00,5.9309921264648,1,versionA_stim.csv,READVersionA.csv,"Read Version A","Dissertation, read only version A",EVEN,REVENGE,Study2,B,122,170,Study,User,-,,Study/JOL,"Study Phase2",5393,,,-1,-1,,,,1
5d0a90bb7c5110001acaa336,erfrv1t955,Nick_Dissertation_EX1,1,218,2020-10-24T10:40:09-07:00,2.9748518466949,1,versionA_stim.csv,READVersionA.csv,"Read Version A","Dissertation, read only version A",SUN,TAN,Study2,S,155,161,Study,User,-,,Study/JOL,"Study Phase2",2485,,,-1,-1,,,,1
5d0a90bb7c5110001acaa336,erfrv1t955,Nick_Dissertation_EX1,1,219,2020-10-24T10:40:11-07:00,2.6779851913452,1,versionA_stim.csv,READVersionA.csv,"Read Version A","Dissertation, read only version A",AFFECTION,LOVE,Study2,F,115,126,Study,User,-,,Study/JOL,"Study Phase2",2239,,,-1,-1,,,,1
5d0a90bb7c5110001acaa336,erfrv1t955,Nick_Dissertation_EX1,1,220,2020-10-24T10:40:15-07:00,3.4781877994537,1,versionA_stim.csv,READVersionA.csv,"Read Version A","Dissertation, read only version A",FURRY,DOG,Study2,F,102,97,Study,User,-,,Study/JOL,"Study Phase2",3061,,,-1,-1,,,,1
5d0a90bb7c5110001acaa336,erfrv1t955,Nick_Dissertation_EX1,1,221,2020-10-24T10:40:18-07:00,3.633935213089,1,versionA_stim.csv,READVersionA.csv,"Read Version A","Dissertation, read only version A",DRIVER,CAR,Study2,F,106,138,Study,User,-,,Study/JOL,"Study Phase2",3175,,,-1,-1,,,,1
5d0a90bb7c5110001acaa336,erfrv1t955,Nick_Dissertation_EX1,1,222,2020-10-24T10:40:22-07:00,3.9837579727173,1,versionA_stim.csv,READVersionA.csv,"Read Version A","Dissertation, read only version A",SHEARS,SCISSORS,Study2,F,112,135,Study,User,-,,Study/JOL,"Study Phase2",3524,,,-1,-1,,,,1
5d0a90bb7c5110001acaa336,erfrv1t955,Nick_Dissertation_EX1,1,223,2020-10-24T10:40:25-07:00,2.5365519523621,1,versionA_stim.csv,READVersionA.csv,"Read Version A","Dissertation, read only version A",FRUIT,STRAWBERRY,Study2,B,124,147,Study,User,-,,Study/JOL,"Study Phase2",2131,,,-1,-1,,,,1
5d0a90bb7c5110001acaa336,erfrv1t955,Nick_Dissertation_EX1,1,224,2020-10-24T10:40:32-07:00,6.7552928924561,1,versionA_stim.csv,READVersionA.csv,"Read Version A","Dissertation, read only version A",FUZZY,BANG,Study2,U,168,154,Study,User,-,,Study/JOL,"Study Phase2",6348,,,-1,-1,,,,1
5d0a90bb7c5110001acaa336,erfrv1t955,Nick_Dissertation_EX1,1,225,2020-10-24T10:40:35-07:00,2.7531011104584,1,versionA_stim.csv,READVersionA.csv,"Read Version A","Dissertation, read only version A",FISH,SARDINE,Study2,B,130,157,Study,User,-,,Study/JOL,"Study Phase2",2341,,,-1,-1,,,,1
5d0a90bb7c5110001acaa336,erfrv1t955,Nick_Dissertation_EX1,1,226,2020-10-24T10:40:41-07:00,6.3588650226593,1,versionA_stim.csv,READVersionA.csv,"Read Version A","Dissertation, read only version A",KEYS,JOKE,Study2,U,165,98,Study,User,-,,Study/JOL,"Study Phase2",5887,,,-1,-1,,,,1
5d0a90bb7c5110001acaa336,erfrv1t955,Nick_Dissertation_EX1,1,227,2020-10-24T10:40:44-07:00,3.2640900611877,1,versionA_stim.csv,READVersionA.csv,"Read Version A","Dissertation, read only version A",POP,BALLOON,Study2,B,123,99,Study,User,-,,Study/JOL,"Study Phase2",2808,,,-1,-1,,,,1
5d0a90bb7c5110001acaa336,erfrv1t955,Nick_Dissertation_EX1,1,228,2020-10-24T10:40:49-07:00,4.4547410011292,1,versionA_stim.csv,READVersionA.csv,"Read Version A","Dissertation, read only version A",BASEBALL,LEAGUE,Study2,B,131,173,Study,User,-,,Study/JOL,"Study Phase2",4038,,,-1,-1,,,,1
5d0a90bb7c5110001acaa336,erfrv1t955,Nick_Dissertation_EX1,1,229,2020-10-24T10:40:52-07:00,3.288724899292,1,versionA_stim.csv,READVersionA.csv,"Read Version A","Dissertation, read only version A",STRETCH,CLOTH,Study2,U,157,150,Study,User,-,,Study/JOL,"Study Phase2",2881,,,-1,-1,,,,1
5d0a90bb7c5110001acaa336,erfrv1t955,Nick_Dissertation_EX1,1,230,2020-10-24T10:40:55-07:00,2.948695898056,1,versionA_stim.csv,READVersionA.csv,"Read Version A","Dissertation, read only version A",LITTER,TRASH,Study2,F,103,142,Study,User,-,,Study/JOL,"Study Phase2",2552,,,-1,-1,,,,1
5d0a90bb7c5110001acaa336,erfrv1t955,Nick_Dissertation_EX1,1,231,2020-10-24T10:40:58-07:00,3.1024210453033,1,versionA_stim.csv,READVersionA.csv,"Read Version A","Dissertation, read only version A",CANDLE,WAX,Study2,S,139,105,Study,User,-,,Study/JOL,"Study Phase2",2678,,,-1,-1,,,,1
5d0a90bb7c5110001acaa336,erfrv1t955,Nick_Dissertation_EX1,1,232,2020-10-24T10:41:01-07:00,3.1494081020355,1,versionA_stim.csv,READVersionA.csv,"Read Version A","Dissertation, read only version A",FEUD,FIGHT,Study2,F,113,125,Study,User,-,,Study/JOL,"Study Phase2",2650,,,-1,-1,,,,1
5d0a90bb7c5110001acaa336,erfrv1t955,Nick_Dissertation_EX1,1,233,2020-10-24T10:41:07-07:00,5.6178350448608,1,versionA_stim.csv,READVersionA.csv,"Read Version A","Dissertation, read only version A",LEASE,TOIL,Study2,U,170,102,Study,User,-,,Study/JOL,"Study Phase2",5151,,,-1,-1,,,,1
5d0a90bb7c5110001acaa336,erfrv1t955,Nick_Dissertation_EX1,1,234,2020-10-24T10:41:11-07:00,4.0817539691925,1,versionA_stim.csv,READVersionA.csv,"Read Version A","Dissertation, read only version A",MAIN,SCAR,Study2,U,175,106,Study,User,-,,Study/JOL,"Study Phase2",3640,,,-1,-1,,,,1
5d0a90bb7c5110001acaa336,erfrv1t955,Nick_Dissertation_EX1,1,235,2020-10-24T10:41:15-07:00,4.5555009841919,1,versionA_stim.csv,READVersionA.csv,"Read Version A","Dissertation, read only version A",RIGHTS,EQUAL,Study2,S,137,116,Study,User,-,,Study/JOL,"Study Phase2",4139,,,-1,-1,,,,1
5d0a90bb7c5110001acaa336,erfrv1t955,Nick_Dissertation_EX1,1,236,2020-10-24T10:41:18-07:00,2.6498248577118,1,versionA_stim.csv,READVersionA.csv,"Read Version A","Dissertation, read only version A",WRIST,BRACELET,Study2,S,140,172,Study,User,-,,Study/JOL,"Study Phase2",2254,,,-1,-1,,,,1
5d0a90bb7c5110001acaa336,erfrv1t955,Nick_Dissertation_EX1,1,237,2020-10-24T10:41:22-07:00,3.716078042984,1,versionA_stim.csv,READVersionA.csv,"Read Version A","Dissertation, read only version A",BOTH,OUNCE,Study2,U,172,123,Study,User,-,,Study/JOL,"Study Phase2",3316,,,-1,-1,,,,1
5d0a90bb7c5110001acaa336,erfrv1t955,Nick_Dissertation_EX1,1,238,2020-10-24T10:41:27-07:00,5.2009110450745,1,versionA_stim.csv,READVersionA.csv,"Read Version A","Dissertation, read only version A",TEMPERATURE,Morning,Study2,U,173,109,Study,User,-,,Study/JOL,"Study Phase2",4785,,,-1,-1,,,,1
5d0a90bb7c5110001acaa336,erfrv1t955,Nick_Dissertation_EX1,1,239,2020-10-24T10:41:31-07:00,4.5190119743347,1,versionA_stim.csv,READVersionA.csv,"Read Version A","Dissertation, read only version A",STAR,ACTRESS,Study2,B,120,158,Study,User,-,,Study/JOL,"Study Phase2",4114,,,-1,-1,,,,1
5d0a90bb7c5110001acaa336,erfrv1t955,Nick_Dissertation_EX1,1,240,2020-10-24T10:41:33-07:00,1.9063889980316,1,versionA_stim.csv,READVersionA.csv,"Read Version A","Dissertation, read only version A",CACTUS,PLANT,Study2,F,98,146,Study,User,-,,Study/JOL,"Study Phase2",1596,,,-1,-1,,,,1
5d0a90bb7c5110001acaa336,erfrv1t955,Nick_Dissertation_EX1,1,241,2020-10-24T10:41:35-07:00,2.0655760765076,1,versionA_stim.csv,READVersionA.csv,"Read Version A","Dissertation, read only version A",RAZOR,SHAVE,Study2,S,136,121,Study,User,-,,Study/JOL,"Study Phase2",1646,,,-1,-1,,,,1
5d0a90bb7c5110001acaa336,erfrv1t955,Nick_Dissertation_EX1,1,242,2020-10-24T10:41:39-07:00,3.7794919013977,1,versionA_stim.csv,READVersionA.csv,"Read Version A","Dissertation, read only version A",MIRROR,CHILDREN,Study2,U,174,110,Study,User,-,,Study/JOL,"Study Phase2",3355,,,-1,-1,,,,1
5d0a90bb7c5110001acaa336,erfrv1t955,Nick_Dissertation_EX1,1,243,2020-10-24T10:41:42-07:00,2.7411601543427,1,versionA_stim.csv,READVersionA.csv,"Read Version A","Dissertation, read only version A",DEAD,COFFIN,Study2,B,128,127,Study,User,-,,Study/JOL,"Study Phase2",2335,,,-1,-1,,,,1
5d0a90bb7c5110001acaa336,erfrv1t955,Nick_Dissertation_EX1,1,244,2020-10-24T10:41:45-07:00,2.9898347854614,1,versionA_stim.csv,READVersionA.csv,"Read Version A","Dissertation, read only version A",OWN,HAVE,Study2,S,153,153,Study,User,-,,Study/JOL,"Study Phase2",2577,,,-1,-1,,,,1
5d0a90bb7c5110001acaa336,erfrv1t955,Nick_Dissertation_EX1,1,245,2020-10-24T10:41:47-07:00,2.5372660160065,1,versionA_stim.csv,READVersionA.csv,"Read Version A","Dissertation, read only version A",SCALP,HEAD,Study2,F,105,137,Study,User,-,,Study/JOL,"Study Phase2",2085,,,-1,-1,,,,1
5d0a90bb7c5110001acaa336,erfrv1t955,Nick_Dissertation_EX1,1,246,2020-10-24T10:41:49-07:00,1.8574161529541,1,versionA_stim.csv,READVersionA.csv,"Read Version A","Dissertation, read only version A",CAR,WINDSHIELD,Study2,B,117,122,Study,User,-,,Study/JOL,"Study Phase2",1550,,,-1,-1,,,,1
5d0a90bb7c5110001acaa336,erfrv1t955,Nick_Dissertation_EX1,1,247,2020-10-24T10:41:52-07:00,3.0140578746796,1,versionA_stim.csv,READVersionA.csv,"Read Version A","Dissertation, read only version A",EXTENSION,LONG,Study2,F,96,145,Study,User,-,,Study/JOL,"Study Phase2",2625,,,-1,-1,,,,1
5d0a90bb7c5110001acaa336,erfrv1t955,Nick_Dissertation_EX1,1,248,2020-10-24T10:41:54-07:00,1.8834750652313,1,versionA_stim.csv,READVersionA.csv,"Read Version A","Dissertation, read only version A",CHERRY,RED,Study2,F,104,166,Study,User,-,,Study/JOL,"Study Phase2",1578,,,-1,-1,,,,1
5d0a90bb7c5110001acaa336,erfrv1t955,Nick_Dissertation_EX1,1,249,2020-10-24T10:41:59-07:00,4.461816072464,1,versionA_stim.csv,READVersionA.csv,"Read Version A","Dissertation, read only version A",FLEA,TICK,Study2,S,151,133,Study,User,-,,Study/JOL,"Study Phase2",4045,,,-1,-1,,,,1
5d0a90bb7c5110001acaa336,erfrv1t955,Nick_Dissertation_EX1,1,250,2020-10-24T10:42:02-07:00,3.5657279491425,1,versionA_stim.csv,READVersionA.csv,"Read Version A","Dissertation, read only version A",CAKE,CLOTHES,Study2,U,166,175,Study,User,-,,Study/JOL,"Study Phase2",3153,,,-1,-1,,,,1
5d0a90bb7c5110001acaa336,erfrv1t955,Nick_Dissertation_EX1,1,251,2020-10-24T10:42:06-07:00,4.1907448768616,1,versionA_stim.csv,READVersionA.csv,"Read Version A","Dissertation, read only version A",MONEY,BANKER,Study2,B,132,143,Study,User,-,,Study/JOL,"Study Phase2",3752,,,-1,-1,,,,1
5d0a90bb7c5110001acaa336,erfrv1t955,Nick_Dissertation_EX1,1,252,2020-10-24T10:42:11-07:00,4.6963441371918,1,versionA_stim.csv,READVersionA.csv,"Read Version A","Dissertation, read only version A",BEST,FAVORITE,Study2,B,125,176,Study,User,-,,Study/JOL,"Study Phase2",4274,,,-1,-1,,,,1
5d0a90bb7c5110001acaa336,erfrv1t955,Nick_Dissertation_EX1,1,253,2020-10-24T10:42:14-07:00,3.2175240516663,1,versionA_stim.csv,READVersionA.csv,"Read Version A","Dissertation, read only version A",MEAT,OBTAIN,Study2,U,161,107,Study,User,-,,Study/JOL,"Study Phase2",2817,,,-1,-1,,,,1
5d0a90bb7c5110001acaa336,erfrv1t955,Nick_Dissertation_EX1,1,254,2020-10-24T10:42:21-07:00,6.6735279560089,1,versionA_stim.csv,READVersionA.csv,"Read Version A","Dissertation, read only version A",DINE,EAT,Study2,F,111,162,Study,User,-,,Study/JOL,"Study Phase2",6273,,,-1,-1,,,,1
5d0a90bb7c5110001acaa336,erfrv1t955,Nick_Dissertation_EX1,1,255,2020-10-24T10:42:24-07:00,2.9188640117645,1,versionA_stim.csv,READVersionA.csv,"Read Version A","Dissertation, read only version A",FIGHT,BRAWL,Study2,B,135,104,Study,User,-,,Study/JOL,"Study Phase2",2490,,,-1,-1,,,,1
5d0a90bb7c5110001acaa336,erfrv1t955,Nick_Dissertation_EX1,1,256,2020-10-24T10:42:27-07:00,3.0382540225983,1,versionA_stim.csv,READVersionA.csv,"Read Version A","Dissertation, read only version A",GONE,AWAY,Study2,S,142,118,Study,User,-,,Study/JOL,"Study Phase2",2598,,,-1,-1,,,,1
5d0a90bb7c5110001acaa336,erfrv1t955,Nick_Dissertation_EX1,1,257,2020-10-24T10:42:32-07:00,4.7232608795166,1,versionA_stim.csv,READVersionA.csv,"Read Version A","Dissertation, read only version A",DOCUMENT,PAPER,Study2,F,109,168,Study,User,-,,Study/JOL,"Study Phase2",4242,,,-1,-1,,,,1
5d0a90bb7c5110001acaa336,erfrv1t955,Nick_Dissertation_EX1,1,258,2020-10-24T10:42:36-07:00,4.0090980529785,1,versionA_stim.csv,READVersionA.csv,"Read Version A","Dissertation, read only version A",PLANE,AIRCRAFT,Study2,B,129,124,Study,User,-,,Study/JOL,"Study Phase2",3592,,,-1,-1,,,,1
5d0a90bb7c5110001acaa336,erfrv1t955,Nick_Dissertation_EX1,1,259,2020-10-24T10:42:37-07:00,1.4804730415344,1,versionA_stim.csv,READVersionA.csv,"Read Version A","Dissertation, read only version A",MASON,JAR,Study2,S,138,111,Study,User,-,,Study/JOL,"Study Phase2",1140,,,-1,-1,,,,1
5d0a90bb7c5110001acaa336,erfrv1t955,Nick_Dissertation_EX1,1,260,2020-10-24T10:42:41-07:00,3.7960300445557,1,versionA_stim.csv,READVersionA.csv,"Read Version A","Dissertation, read only version A",JUSTICE,MAROON,Study2,U,156,160,Study,User,-,,Study/JOL,"Study Phase2",3380,,,-1,-1,,,,1
5d0a90bb7c5110001acaa336,erfrv1t955,Nick_Dissertation_EX1,1,261,2020-10-24T10:42:45-07:00,3.9011969566345,1,versionA_stim.csv,READVersionA.csv,"Read Version A","Dissertation, read only version A",OCTOBER,SPOOKY,BUFFER4,Buffer,180,180,Study,User,-,,Study/JOL,BUFFER4,3439,,,-1,-1,,,,1
5d0a90bb7c5110001acaa336,erfrv1t955,Nick_Dissertation_EX1,1,262,2020-10-24T10:42:51-07:00,5.8803508281708,1,versionA_stim.csv,READVersionA.csv,"Read Version A","Dissertation, read only version A",DAYS,WEAKS,BUFFER4,Buffer,176,177,Study,User,-,,Study/JOL,BUFFER4,5360,,,-1,-1,,,,1
5d0a90bb7c5110001acaa336,erfrv1t955,Nick_Dissertation_EX1,1,263,2020-10-24T10:42:53-07:00,2.6861610412598,1,versionA_stim.csv,READVersionA.csv,"Read Version A","Dissertation, read only version A",SPRING,MARCH,BUFFER4,Buffer,179,178,Study,User,-,,Study/JOL,BUFFER4,2291,,,-1,-1,,,,1
5d0a90bb7c5110001acaa336,erfrv1t955,Nick_Dissertation_EX1,1,264,2020-10-24T10:42:55-07:00,1.5774359703064,1,versionA_stim.csv,READVersionA.csv,"Read Version A","Dissertation, read only version A",MONTH,YEAR,BUFFER4,Buffer,177,179,Study,User,-,,Study/JOL,BUFFER4,1265,,,-1,-1,,,,1
5d0a90bb7c5110001acaa336,erfrv1t955,Nick_Dissertation_EX1,1,265,2020-10-24T10:42:57-07:00,1.6826000213623,1,versionA_stim.csv,READVersionA.csv,"Read Version A","Dissertation, read only version A",TOOL,SHED,BUFFER4,Buffer,178,181,Study,User,-,,Study/JOL,BUFFER4,1347,,,-1,-1,,,,1
5d0a90bb7c5110001acaa336,erfrv1t955,Nick_Dissertation_EX1,1,266,2020-10-24T10:42:58-07:00,0.90998315811157,1,versionA_stim.csv,READVersionA.csv,"Read Version A","Dissertation, read only version A",,,,,,0,Instruct,User,-,"You have completed this section. Please press Enter.",Filler_Instruction,Instruct5,587,,,-1,-1,,,,1
5d0a90bb7c5110001acaa336,erfrv1t955,Nick_Dissertation_EX1,1,267,2020-10-24T10:44:58-07:00,120.40606594086,1,versionA_stim.csv,READVersionA.csv,"Read Version A","Dissertation, read only version A",,,,,,0,FreeRecall,120,120,"Please list the 50 US states in reverse alphabetical order (z - a). The task will automatically advance to the next screen after two minutes.",,Filler2,120005,"Wyoming Washington New York New Jersey Texas Oklahoma Ohio New Mexico New Hampshire Montana Maryland Florida",0,8093,109360,0,0,,1
5d0a90bb7c5110001acaa336,erfrv1t955,Nick_Dissertation_EX1,1,268,2020-10-24T10:45:09-07:00,11.226049900055,1,versionA_stim.csv,READVersionA.csv,"Read Version A","Dissertation, read only version A",,,,,,0,Instruct,-,10,"You will now be presented with the first word from each of the previously studied item pairs. Please type the missing word. If you do not know the word, you may guess or press Enter to skip forward to the next pair.",,Instruct6,10777,,,-1,-1,,,,1
5d0a90bb7c5110001acaa336,erfrv1t955,Nick_Dissertation_EX1,1,269,2020-10-24T10:45:16-07:00,7.042857170105,1,versionA_stim.csv,READVersionA.csv,"Read Version A","Dissertation, read only version A",VEHICLE,CHARM,Study2,U,160,167,Test,User,-,,Recall,Recall2,6641,CAR,75,1671,6414,0,1,,1
5d0a90bb7c5110001acaa336,erfrv1t955,Nick_Dissertation_EX1,1,270,2020-10-24T10:45:20-07:00,3.5163118839264,1,versionA_stim.csv,READVersionA.csv,"Read Version A","Dissertation, read only version A",MAIN,SCAR,Study2,U,175,106,Test,User,-,,Recall,Recall2,3061,SCAR,100,2285,2850,1,1,,1
5d0a90bb7c5110001acaa336,erfrv1t955,Nick_Dissertation_EX1,1,271,2020-10-24T10:45:23-07:00,3.4121179580688,1,versionA_stim.csv,READVersionA.csv,"Read Version A","Dissertation, read only version A",LOUD,NOISE,Study2,S,152,164,Test,User,-,,Recall,Recall2,2986,NOISE,100,1199,1855,1,1,,1
5d0a90bb7c5110001acaa336,erfrv1t955,Nick_Dissertation_EX1,1,272,2020-10-24T10:45:25-07:00,1.8137090206146,1,versionA_stim.csv,READVersionA.csv,"Read Version A","Dissertation, read only version A",SCALP,HEAD,Study2,F,105,137,Test,User,-,,Recall,Recall2,1477,HEAD,100,1007,1360,1,1,,1
5d0a90bb7c5110001acaa336,erfrv1t955,Nick_Dissertation_EX1,1,273,2020-10-24T10:45:28-07:00,2.7446291446686,1,versionA_stim.csv,READVersionA.csv,"Read Version A","Dissertation, read only version A",BEST,FAVORITE,Study2,B,125,176,Test,User,-,,Recall,Recall2,2322,FAVORITE,100,1069,2140,1,1,,1
5d0a90bb7c5110001acaa336,erfrv1t955,Nick_Dissertation_EX1,1,274,2020-10-24T10:45:32-07:00,4.233482837677,1,versionA_stim.csv,READVersionA.csv,"Read Version A","Dissertation, read only version A",WRIST,BRACELET,Study2,S,140,172,Test,User,-,,Recall,Recall2,3825,BRACELET,100,2628,3589,1,1,,1
5d0a90bb7c5110001acaa336,erfrv1t955,Nick_Dissertation_EX1,1,275,2020-10-24T10:45:36-07:00,4.1084740161896,1,versionA_stim.csv,READVersionA.csv,"Read Version A","Dissertation, read only version A",CAT,PANTHER,Study2,B,126,100,Test,User,-,,Recall,Recall2,3634,PAW,40,1936,2248,0,0,,1
5d0a90bb7c5110001acaa336,erfrv1t955,Nick_Dissertation_EX1,1,276,2020-10-24T10:45:40-07:00,3.5564270019531,1,versionA_stim.csv,READVersionA.csv,"Read Version A","Dissertation, read only version A",TANTRUM,TEMPER,Study2,S,154,140,Test,User,-,,Recall,Recall2,3150,TEMPER,100,2154,2931,1,1,,1
5d0a90bb7c5110001acaa336,erfrv1t955,Nick_Dissertation_EX1,1,277,2020-10-24T10:45:42-07:00,2.5641851425171,1,versionA_stim.csv,READVersionA.csv,"Read Version A","Dissertation, read only version A",MOAT,CLEAR,Study2,U,169,139,Test,User,-,,Recall,Recall2,2155,CLEAR,100,1556,2027,1,1,,1
5d0a90bb7c5110001acaa336,erfrv1t955,Nick_Dissertation_EX1,1,278,2020-10-24T10:45:48-07:00,5.7034049034119,1,versionA_stim.csv,READVersionA.csv,"Read Version A","Dissertation, read only version A",SUN,TAN,Study2,S,155,161,Test,User,-,,Recall,Recall2,5253,TAN,100,4682,4960,1,1,,1
5d0a90bb7c5110001acaa336,erfrv1t955,Nick_Dissertation_EX1,1,279,2020-10-24T10:45:51-07:00,3.3919050693512,1,versionA_stim.csv,READVersionA.csv,"Read Version A","Dissertation, read only version A",BAD,VILLAIN,Study2,B,118,155,Test,User,-,,Recall,Recall2,2947,VILLAIN,100,1880,2705,1,1,,1
5d0a90bb7c5110001acaa336,erfrv1t955,Nick_Dissertation_EX1,1,280,2020-10-24T10:45:54-07:00,2.3333179950714,1,versionA_stim.csv,READVersionA.csv,"Read Version A","Dissertation, read only version A",ROD,REEL,Study2,S,150,151,Test,User,-,,Recall,Recall2,1741,REEL,100,1007,1477,1,1,,1
5d0a90bb7c5110001acaa336,erfrv1t955,Nick_Dissertation_EX1,1,281,2020-10-24T10:45:56-07:00,2.7385969161987,1,versionA_stim.csv,READVersionA.csv,"Read Version A","Dissertation, read only version A",CANDLE,WAX,Study2,S,139,105,Test,User,-,,Recall,Recall2,2247,WAX,100,1183,1970,1,1,,1
5d0a90bb7c5110001acaa336,erfrv1t955,Nick_Dissertation_EX1,1,282,2020-10-24T10:45:59-07:00,2.316556930542,1,versionA_stim.csv,READVersionA.csv,"Read Version A","Dissertation, read only version A",CHILL,COLD,Study2,F,114,108,Test,User,-,,Recall,Recall2,1913,COLD,100,1272,1669,1,1,,1
5d0a90bb7c5110001acaa336,erfrv1t955,Nick_Dissertation_EX1,1,283,2020-10-24T10:46:01-07:00,2.3111381530762,1,versionA_stim.csv,READVersionA.csv,"Read Version A","Dissertation, read only version A",WATER,DRINK,Study2,S,143,148,Test,User,-,,Recall,Recall2,1882,DRINK,100,950,1533,1,1,,1
5d0a90bb7c5110001acaa336,erfrv1t955,Nick_Dissertation_EX1,1,284,2020-10-24T10:46:13-07:00,12.221153020859,1,versionA_stim.csv,READVersionA.csv,"Read Version A","Dissertation, read only version A",LISTEN,FICTION,Study2,U,164,101,Test,User,-,,Recall,Recall2,11758,TALK,18.181818181818,6016,11393,0,0,,1
5d0a90bb7c5110001acaa336,erfrv1t955,Nick_Dissertation_EX1,1,285,2020-10-24T10:46:16-07:00,2.3308508396149,1,versionA_stim.csv,READVersionA.csv,"Read Version A","Dissertation, read only version A",MASON,JAR,Study2,S,138,111,Test,User,-,,Recall,Recall2,1832,JAR,100,1411,1690,1,1,,1
5d0a90bb7c5110001acaa336,erfrv1t955,Nick_Dissertation_EX1,1,286,2020-10-24T10:46:22-07:00,6.492635011673,1,versionA_stim.csv,READVersionA.csv,"Read Version A","Dissertation, read only version A",TRUTH,LIE,Study2,S,148,149,Test,User,-,,Recall,Recall2,6082,LIES,85.714285714286,1759,5948,0,1,,1
5d0a90bb7c5110001acaa336,erfrv1t955,Nick_Dissertation_EX1,1,287,2020-10-24T10:46:24-07:00,2.0233001708984,1,versionA_stim.csv,READVersionA.csv,"Read Version A","Dissertation, read only version A",ADJOURN,END,Study2,F,101,103,Test,User,-,,Recall,Recall2,1668,END,100,1260,1541,1,1,,1
5d0a90bb7c5110001acaa336,erfrv1t955,Nick_Dissertation_EX1,1,288,2020-10-24T10:46:26-07:00,2.0628499984741,1,versionA_stim.csv,READVersionA.csv,"Read Version A","Dissertation, read only version A",FLEA,TICK,Study2,S,151,133,Test,User,-,,Recall,Recall2,1735,TICK,100,1110,1429,1,1,,1
5d0a90bb7c5110001acaa336,erfrv1t955,Nick_Dissertation_EX1,1,289,2020-10-24T10:46:29-07:00,3.0084569454193,1,versionA_stim.csv,READVersionA.csv,"Read Version A","Dissertation, read only version A",DEAD,COFFIN,Study2,B,128,127,Test,User,-,,Recall,Recall2,2533,COFFIN,100,1624,2288,1,1,,1
5d0a90bb7c5110001acaa336,erfrv1t955,Nick_Dissertation_EX1,1,290,2020-10-24T10:46:37-07:00,8.3127989768982,1,versionA_stim.csv,READVersionA.csv,"Read Version A","Dissertation, read only version A",RIGHTS,EQUAL,Study2,S,137,116,Test,User,-,,Recall,Recall2,7869,HUMAN,40,5938,7063,0,0,,1
5d0a90bb7c5110001acaa336,erfrv1t955,Nick_Dissertation_EX1,1,291,2020-10-24T10:46:40-07:00,2.5826759338379,1,versionA_stim.csv,READVersionA.csv,"Read Version A","Dissertation, read only version A",LITTER,TRASH,Study2,F,103,142,Test,User,-,,Recall,Recall2,2174,TRASH,100,1237,1875,1,1,,1
5d0a90bb7c5110001acaa336,erfrv1t955,Nick_Dissertation_EX1,1,292,2020-10-24T10:46:43-07:00,3.4534771442413,1,versionA_stim.csv,READVersionA.csv,"Read Version A","Dissertation, read only version A",MAZE,ELECTION,Study2,U,159,141,Test,User,-,,Recall,Recall2,3039,ELECTION,100,1703,2732,1,1,,1
5d0a90bb7c5110001acaa336,erfrv1t955,Nick_Dissertation_EX1,1,293,2020-10-24T10:46:48-07:00,4.1351230144501,1,versionA_stim.csv,READVersionA.csv,"Read Version A","Dissertation, read only version A",GIVE,STEAK,Study2,U,158,112,Test,User,-,,Recall,Recall2,3715,TAKE,66.666666666667,1248,1746,0,0,,1
5d0a90bb7c5110001acaa336,erfrv1t955,Nick_Dissertation_EX1,1,294,2020-10-24T10:46:54-07:00,5.9064469337463,1,versionA_stim.csv,READVersionA.csv,"Read Version A","Dissertation, read only version A",SAFETY,SEATBELT,Study2,S,147,115,Test,User,-,,Recall,Recall2,5467,SEATBELT,100,3552,5195,1,1,,1
5d0a90bb7c5110001acaa336,erfrv1t955,Nick_Dissertation_EX1,1,295,2020-10-24T10:46:57-07:00,3.9576909542084,1,versionA_stim.csv,READVersionA.csv,"Read Version A","Dissertation, read only version A",BASEBALL,LEAGUE,Study2,B,131,173,Test,User,-,,Recall,Recall2,3552,LEAGUE,100,2017,3377,1,1,,1
5d0a90bb7c5110001acaa336,erfrv1t955,Nick_Dissertation_EX1,1,296,2020-10-24T10:47:09-07:00,11.22811794281,1,versionA_stim.csv,READVersionA.csv,"Read Version A","Dissertation, read only version A",LOAN,SIGN,Study2,U,171,156,Test,User,-,,Recall,Recall2,10805,TOIL,25,3625,7583,0,0,,1
5d0a90bb7c5110001acaa336,erfrv1t955,Nick_Dissertation_EX1,1,297,2020-10-24T10:47:12-07:00,2.8961501121521,1,versionA_stim.csv,READVersionA.csv,"Read Version A","Dissertation, read only version A",CLUE,GAME,Study2,F,97,152,Test,User,-,,Recall,Recall2,2464,GAME,100,1738,2157,1,1,,1
5d0a90bb7c5110001acaa336,erfrv1t955,Nick_Dissertation_EX1,1,298,2020-10-24T10:47:15-07:00,3.1108129024506,1,versionA_stim.csv,READVersionA.csv,"Read Version A","Dissertation, read only version A",DINE,EAT,Study2,F,111,162,Test,User,-,,Recall,Recall2,2642,EAT,100,1349,1672,1,1,,1
5d0a90bb7c5110001acaa336,erfrv1t955,Nick_Dissertation_EX1,1,299,2020-10-24T10:47:18-07:00,3.6476290225983,1,versionA_stim.csv,READVersionA.csv,"Read Version A","Dissertation, read only version A",LEASE,TOIL,Study2,U,170,102,Test,User,-,,Recall,Recall2,3207,TOIL,100,2218,2697,1,1,,1
5d0a90bb7c5110001acaa336,erfrv1t955,Nick_Dissertation_EX1,1,300,2020-10-24T10:47:27-07:00,8.5520079135895,1,versionA_stim.csv,READVersionA.csv,"Read Version A","Dissertation, read only version A",MEAT,OBTAIN,Study2,U,161,107,Test,User,-,,Recall,Recall2,7149,STEAK,36.363636363636,2131,6788,0,0,,1
5d0a90bb7c5110001acaa336,erfrv1t955,Nick_Dissertation_EX1,1,301,2020-10-24T10:47:29-07:00,1.6098480224609,1,versionA_stim.csv,READVersionA.csv,"Read Version A","Dissertation, read only version A",CHERRY,RED,Study2,F,104,166,Test,User,-,,Recall,Recall2,1293,RED,100,913,1227,1,1,,1
5d0a90bb7c5110001acaa336,erfrv1t955,Nick_Dissertation_EX1,1,302,2020-10-24T10:47:32-07:00,3.144296169281,1,versionA_stim.csv,READVersionA.csv,"Read Version A","Dissertation, read only version A",ELEMENT,CARBON,Study2,S,141,171,Test,User,-,,Recall,Recall2,2749,CARBON,100,1162,2422,1,1,,1
5d0a90bb7c5110001acaa336,erfrv1t955,Nick_Dissertation_EX1,1,303,2020-10-24T10:47:35-07:00,3.4783267974854,1,versionA_stim.csv,READVersionA.csv,"Read Version A","Dissertation, read only version A",Shell,SHAKE,Study2,U,163,134,Test,User,-,,Recall,Recall2,3078,SHOCK,60,1167,1890,0,0,,1
5d0a90bb7c5110001acaa336,erfrv1t955,Nick_Dissertation_EX1,1,304,2020-10-24T10:47:43-07:00,7.6586611270905,1,versionA_stim.csv,READVersionA.csv,"Read Version A","Dissertation, read only version A",STAR,ACTRESS,Study2,B,120,158,Test,User,-,,Recall,Recall2,7256,SPACE,50,5343,6950,0,0,,1
5d0a90bb7c5110001acaa336,erfrv1t955,Nick_Dissertation_EX1,1,305,2020-10-24T10:47:46-07:00,3.0854470729828,1,versionA_stim.csv,READVersionA.csv,"Read Version A","Dissertation, read only version A",FISH,SARDINE,Study2,B,130,157,Test,User,-,,Recall,Recall2,2636,SARDINE,100,1438,2457,1,1,,1
5d0a90bb7c5110001acaa336,erfrv1t955,Nick_Dissertation_EX1,1,306,2020-10-24T10:47:57-07:00,11.18630695343,1,versionA_stim.csv,READVersionA.csv,"Read Version A","Dissertation, read only version A",SLEEP,NAP,Study2,B,134,119,Test,User,-,,Recall,Recall2,10773,,0,-1,-1,0,0,,1
5d0a90bb7c5110001acaa336,erfrv1t955,Nick_Dissertation_EX1,1,307,2020-10-24T10:48:00-07:00,3.1574928760529,1,versionA_stim.csv,READVersionA.csv,"Read Version A","Dissertation, read only version A",TURN,FLIP,Study2,B,116,169,Test,User,-,,Recall,Recall2,2678,FLIP,100,1495,2293,1,1,,1
5d0a90bb7c5110001acaa336,erfrv1t955,Nick_Dissertation_EX1,1,308,2020-10-24T10:48:11-07:00,11.078832149506,1,versionA_stim.csv,READVersionA.csv,"Read Version A","Dissertation, read only version A",HONEST,TRUTHFUL,Study2,B,133,117,Test,User,-,,Recall,Recall2,10539,TRUTHFUL,100,1044,10149,1,1,,1
5d0a90bb7c5110001acaa336,erfrv1t955,Nick_Dissertation_EX1,1,309,2020-10-24T10:48:15-07:00,3.2330589294434,1,versionA_stim.csv,READVersionA.csv,"Read Version A","Dissertation, read only version A",OWN,HAVE,Study2,S,153,153,Test,User,-,,Recall,Recall2,2797,HAVE,100,2359,2699,1,1,,1
5d0a90bb7c5110001acaa336,erfrv1t955,Nick_Dissertation_EX1,1,310,2020-10-24T10:48:26-07:00,11.748893022537,1,versionA_stim.csv,READVersionA.csv,"Read Version A","Dissertation, read only version A",BOTH,OUNCE,Study2,U,172,123,Test,User,-,,Recall,Recall2,11339,,0,4595,4842,0,0,,1
5d0a90bb7c5110001acaa336,erfrv1t955,Nick_Dissertation_EX1,1,311,2020-10-24T10:48:32-07:00,5.4307010173798,1,versionA_stim.csv,READVersionA.csv,"Read Version A","Dissertation, read only version A",TEMPERATURE,Morning,Study2,U,173,109,Test,User,-,,Recall,Recall2,4966,,0,3728,3995,0,0,,1
5d0a90bb7c5110001acaa336,erfrv1t955,Nick_Dissertation_EX1,1,312,2020-10-24T10:48:35-07:00,3.5684859752655,1,versionA_stim.csv,READVersionA.csv,"Read Version A","Dissertation, read only version A",NAME,HATE,Study2,U,167,129,Test,User,-,,Recall,Recall2,3093,,0,-1,-1,0,0,,1
5d0a90bb7c5110001acaa336,erfrv1t955,Nick_Dissertation_EX1,1,313,2020-10-24T10:48:37-07:00,1.9261510372162,1,versionA_stim.csv,READVersionA.csv,"Read Version A","Dissertation, read only version A",SHOELACE,TIE,Study2,F,99,132,Test,User,-,,Recall,Recall2,1611,TIE,100,1200,1395,1,1,,1
5d0a90bb7c5110001acaa336,erfrv1t955,Nick_Dissertation_EX1,1,314,2020-10-24T10:48:40-07:00,3.0475208759308,1,versionA_stim.csv,READVersionA.csv,"Read Version A","Dissertation, read only version A",EXTENSION,LONG,Study2,F,96,145,Test,User,-,,Recall,Recall2,1671,LONG,100,1012,1471,1,1,,1
5d0a90bb7c5110001acaa336,erfrv1t955,Nick_Dissertation_EX1,1,315,2020-10-24T10:48:48-07:00,7.8281450271606,1,versionA_stim.csv,READVersionA.csv,"Read Version A","Dissertation, read only version A",DRIVER,CAR,Study2,F,106,138,Test,User,-,,Recall,Recall2,6417,CAR,100,2412,2986,1,1,,1
5d0a90bb7c5110001acaa336,erfrv1t955,Nick_Dissertation_EX1,1,316,2020-10-24T10:48:51-07:00,2.8525450229645,1,versionA_stim.csv,READVersionA.csv,"Read Version A","Dissertation, read only version A",MONEY,BANKER,Study2,B,132,143,Test,User,-,,Recall,Recall2,2450,BANKER,100,1630,2286,1,1,,1
5d0a90bb7c5110001acaa336,erfrv1t955,Nick_Dissertation_EX1,1,317,2020-10-24T10:49:05-07:00,14.151708126068,1,versionA_stim.csv,READVersionA.csv,"Read Version A","Dissertation, read only version A",THREAD,THIMBLE,Study2,B,121,136,Test,User,-,,Recall,Recall2,13763,THIMBLE,100,6318,7520,1,1,,0.951
5d0a90bb7c5110001acaa336,erfrv1t955,Nick_Dissertation_EX1,1,318,2020-10-24T10:49:08-07:00,2.7898149490356,1,versionA_stim.csv,READVersionA.csv,"Read Version A","Dissertation, read only version A",SHEARS,SCISSORS,Study2,F,112,135,Test,User,-,,Recall,Recall2,2379,SCISSORS,100,1114,2259,1,1,,1
5d0a90bb7c5110001acaa336,erfrv1t955,Nick_Dissertation_EX1,1,319,2020-10-24T10:49:10-07:00,2.511885881424,1,versionA_stim.csv,READVersionA.csv,"Read Version A","Dissertation, read only version A",ALONE,LONELY,Study2,S,145,113,Test,User,-,,Recall,Recall2,2056,LONELY,100,1036,1767,1,1,,1
5d0a90bb7c5110001acaa336,erfrv1t955,Nick_Dissertation_EX1,1,320,2020-10-24T10:49:14-07:00,3.2171270847321,1,versionA_stim.csv,READVersionA.csv,"Read Version A","Dissertation, read only version A",FIGHT,BRAWL,Study2,B,135,104,Test,User,-,,Recall,Recall2,2801,FLIGHT,18.181818181818,1403,1936,0,0,,1
5d0a90bb7c5110001acaa336,erfrv1t955,Nick_Dissertation_EX1,1,321,2020-10-24T10:49:25-07:00,10.989947080612,1,versionA_stim.csv,READVersionA.csv,"Read Version A","Dissertation, read only version A",PHONE,COMMUNICATION,Study2,S,149,174,Test,User,-,,Recall,Recall2,10570,CALL,23.529411764706,7150,10325,0,0,,1
5d0a90bb7c5110001acaa336,erfrv1t955,Nick_Dissertation_EX1,1,322,2020-10-24T10:49:30-07:00,4.9298279285431,1,versionA_stim.csv,READVersionA.csv,"Read Version A","Dissertation, read only version A",GLASS,BREAKABLE,Study2,B,127,144,Test,User,-,,Recall,Recall2,4516,BREAKABLE,100,2161,3342,1,1,,1
5d0a90bb7c5110001acaa336,erfrv1t955,Nick_Dissertation_EX1,1,323,2020-10-24T10:49:32-07:00,2.8986959457397,1,versionA_stim.csv,READVersionA.csv,"Read Version A","Dissertation, read only version A",EARTH,GROUND,Study2,S,144,130,Test,User,-,,Recall,Recall2,2494,GROUND,100,1615,2319,1,1,,1
5d0a90bb7c5110001acaa336,erfrv1t955,Nick_Dissertation_EX1,1,324,2020-10-24T10:49:35-07:00,2.8200800418854,1,versionA_stim.csv,READVersionA.csv,"Read Version A","Dissertation, read only version A",STRETCH,CLOTH,Study2,U,157,150,Test,User,-,,Recall,Recall2,2390,CLOTH,100,1692,2159,1,1,,1
5d0a90bb7c5110001acaa336,erfrv1t955,Nick_Dissertation_EX1,1,325,2020-10-24T10:49:47-07:00,11.324485063553,1,versionA_stim.csv,READVersionA.csv,"Read Version A","Dissertation, read only version A",FRUIT,STRAWBERRY,Study2,B,124,147,Test,User,-,,Recall,Recall2,10827,ORANGE,37.5,4664,9389,0,0,,1
5d0a90bb7c5110001acaa336,erfrv1t955,Nick_Dissertation_EX1,1,326,2020-10-24T10:49:50-07:00,3.8864979743958,1,versionA_stim.csv,READVersionA.csv,"Read Version A","Dissertation, read only version A",MIRROR,CHILDREN,Study2,U,174,110,Test,User,-,,Recall,Recall2,3477,CHILDREN,100,2213,3207,1,1,,1
5d0a90bb7c5110001acaa336,erfrv1t955,Nick_Dissertation_EX1,1,327,2020-10-24T10:49:57-07:00,6.5924649238586,1,versionA_stim.csv,READVersionA.csv,"Read Version A","Dissertation, read only version A",JUSTICE,MAROON,Study2,U,156,160,Test,User,-,,Recall,Recall2,6184,LAWYER,33.333333333333,1974,5917,0,0,,1
5d0a90bb7c5110001acaa336,erfrv1t955,Nick_Dissertation_EX1,1,328,2020-10-24T10:49:59-07:00,2.0627009868622,1,versionA_stim.csv,READVersionA.csv,"Read Version A","Dissertation, read only version A",AFFECTION,LOVE,Study2,F,115,126,Test,User,-,,Recall,Recall2,1667,LOVE,100,1098,1502,1,1,,1
5d0a90bb7c5110001acaa336,erfrv1t955,Nick_Dissertation_EX1,1,329,2020-10-24T10:50:03-07:00,4.3277039527893,1,versionA_stim.csv,READVersionA.csv,"Read Version A","Dissertation, read only version A",BIRD,PENGUIN,Study2,B,119,159,Test,User,-,,Recall,Recall2,3871,PENGUIN,100,2092,3605,1,1,,1
5d0a90bb7c5110001acaa336,erfrv1t955,Nick_Dissertation_EX1,1,330,2020-10-24T10:50:05-07:00,2.0098919868469,1,versionA_stim.csv,READVersionA.csv,"Read Version A","Dissertation, read only version A",CHOP,CUT,Study2,F,107,114,Test,User,-,,Recall,Recall2,1698,CUT,100,1242,1495,1,1,,1
5d0a90bb7c5110001acaa336,erfrv1t955,Nick_Dissertation_EX1,1,331,2020-10-24T10:50:12-07:00,6.7862219810486,1,versionA_stim.csv,READVersionA.csv,"Read Version A","Dissertation, read only version A",RAZOR,SHAVE,Study2,S,136,121,Test,User,-,,Recall,Recall2,6369,SHAVE,100,2656,6219,1,1,,1
5d0a90bb7c5110001acaa336,erfrv1t955,Nick_Dissertation_EX1,1,332,2020-10-24T10:50:18-07:00,6.017685174942,1,versionA_stim.csv,READVersionA.csv,"Read Version A","Dissertation, read only version A",DETECTIVE,MYSTERY,Study2,F,100,131,Test,User,-,,Recall,Recall2,5558,MYSTERY,100,3194,5263,1,1,,1
5d0a90bb7c5110001acaa336,erfrv1t955,Nick_Dissertation_EX1,1,333,2020-10-24T10:50:22-07:00,4.0548188686371,1,versionA_stim.csv,READVersionA.csv,"Read Version A","Dissertation, read only version A",FEUD,FIGHT,Study2,F,113,125,Test,User,-,,Recall,Recall2,3570,FIGHT,100,1635,2062,1,1,,1
5d0a90bb7c5110001acaa336,erfrv1t955,Nick_Dissertation_EX1,1,334,2020-10-24T10:50:30-07:00,7.4595370292664,1,versionA_stim.csv,READVersionA.csv,"Read Version A","Dissertation, read only version A",FURRY,DOG,Study2,F,102,97,Test,User,-,,Recall,Recall2,6994,ANGER,25,3652,4987,0,0,,1
5d0a90bb7c5110001acaa336,erfrv1t955,Nick_Dissertation_EX1,1,335,2020-10-24T10:50:38-07:00,7.9599990844727,1,versionA_stim.csv,READVersionA.csv,"Read Version A","Dissertation, read only version A",CRACKLE,ABLE,Study2,U,162,165,Test,User,-,,Recall,Recall2,7495,,0,6595,6595,0,0,,1
5d0a90bb7c5110001acaa336,erfrv1t955,Nick_Dissertation_EX1,1,336,2020-10-24T10:50:40-07:00,2.4576420783997,1,versionA_stim.csv,READVersionA.csv,"Read Version A","Dissertation, read only version A",INCENSE,SMELL,Study2,F,110,128,Test,User,-,,Recall,Recall2,2006,SMELL,100,1162,1661,1,1,,1
5d0a90bb7c5110001acaa336,erfrv1t955,Nick_Dissertation_EX1,1,337,2020-10-24T10:50:45-07:00,4.6405289173126,1,versionA_stim.csv,READVersionA.csv,"Read Version A","Dissertation, read only version A",EVEN,REVENGE,Study2,B,122,170,Test,User,-,,Recall,Recall2,4133,,0,-1,-1,0,0,,1
5d0a90bb7c5110001acaa336,erfrv1t955,Nick_Dissertation_EX1,1,338,2020-10-24T10:50:49-07:00,4.5944230556488,1,versionA_stim.csv,READVersionA.csv,"Read Version A","Dissertation, read only version A",CAKE,CLOTHES,Study2,U,166,175,Test,User,-,,Recall,Recall2,4151,SWEET,16.666666666667,1851,2737,0,0,,1
5d0a90bb7c5110001acaa336,erfrv1t955,Nick_Dissertation_EX1,1,339,2020-10-24T10:50:52-07:00,2.0897378921509,1,versionA_stim.csv,READVersionA.csv,"Read Version A","Dissertation, read only version A",DRY,WET,Study2,S,146,163,Test,User,-,,Recall,Recall2,1764,WET,100,1142,1528,1,1,,1
5d0a90bb7c5110001acaa336,erfrv1t955,Nick_Dissertation_EX1,1,340,2020-10-24T10:50:57-07:00,5.1873531341553,1,versionA_stim.csv,READVersionA.csv,"Read Version A","Dissertation, read only version A",FUZZY,BANG,Study2,U,168,154,Test,User,-,,Recall,Recall2,4744,,0,2655,3039,0,0,,1
5d0a90bb7c5110001acaa336,erfrv1t955,Nick_Dissertation_EX1,1,341,2020-10-24T10:50:59-07:00,2.6239769458771,1,versionA_stim.csv,READVersionA.csv,"Read Version A","Dissertation, read only version A",CACTUS,PLANT,Study2,F,98,146,Test,User,-,,Recall,Recall2,2216,PLANT,100,1279,1968,1,1,,1
5d0a90bb7c5110001acaa336,erfrv1t955,Nick_Dissertation_EX1,1,342,2020-10-24T10:51:06-07:00,6.6625759601593,1,versionA_stim.csv,READVersionA.csv,"Read Version A","Dissertation, read only version A",GONE,AWAY,Study2,S,142,118,Test,User,-,,Recall,Recall2,6242,,0,-1,-1,0,0,,1
5d0a90bb7c5110001acaa336,erfrv1t955,Nick_Dissertation_EX1,1,343,2020-10-24T10:51:13-07:00,7.0177810192108,1,versionA_stim.csv,READVersionA.csv,"Read Version A","Dissertation, read only version A",CAR,WINDSHIELD,Study2,B,117,122,Test,User,-,,Recall,Recall2,5577,WINDSHIELD,100,1158,4844,1,1,,1
5d0a90bb7c5110001acaa336,erfrv1t955,Nick_Dissertation_EX1,1,344,2020-10-24T10:51:15-07:00,2.3217730522156,1,versionA_stim.csv,READVersionA.csv,"Read Version A","Dissertation, read only version A",DOCUMENT,PAPER,Study2,F,109,168,Test,User,-,,Recall,Recall2,1861,PAPER,100,1237,1716,1,1,,1
5d0a90bb7c5110001acaa336,erfrv1t955,Nick_Dissertation_EX1,1,345,2020-10-24T10:51:20-07:00,4.5656998157501,1,versionA_stim.csv,READVersionA.csv,"Read Version A","Dissertation, read only version A",KEYS,JOKE,Study2,U,165,98,Test,User,-,,Recall,Recall2,4158,,0,-1,-1,0,0,,1
5d0a90bb7c5110001acaa336,erfrv1t955,Nick_Dissertation_EX1,1,346,2020-10-24T10:51:27-07:00,6.7650330066681,1,versionA_stim.csv,READVersionA.csv,"Read Version A","Dissertation, read only version A",PLANE,AIRCRAFT,Study2,B,129,124,Test,User,-,,Recall,Recall2,6327,AIRCRAFT,100,1433,5481,1,1,,1
5d0a90bb7c5110001acaa336,erfrv1t955,Nick_Dissertation_EX1,1,347,2020-10-24T10:51:30-07:00,3.0484001636505,1,versionA_stim.csv,READVersionA.csv,"Read Version A","Dissertation, read only version A",POP,BALLOON,Study2,B,123,99,Test,User,-,,Recall,Recall2,2528,BALLOON,100,1304,2293,1,1,,1
5d0a90bb7c5110001acaa336,erfrv1t955,Nick_Dissertation_EX1,1,348,2020-10-24T10:51:32-07:00,2.3996438980103,1,versionA_stim.csv,READVersionA.csv,"Read Version A","Dissertation, read only version A",MULE,DONKEY,Study2,F,108,120,Test,User,-,,Recall,Recall2,1922,DONKEY,100,1035,1739,1,1,,1
