Username,ID,ExperimentName,Session,Trial,Date,TimeDif,"Condition Number","Stimuli File","Order File","Condition Description","Condition Notes",Stimuli*Cue,Stimuli*Answer,Stimuli*Shuffle,"Stimuli*Stimuli Notes",Stimuli*Value,Procedure*Item,"Procedure*Trial Type","Procedure*Max Time","Procedure*Min Time",Procedure*Text,"Procedure*Procedure Notes",Procedure*Shuffle,Response*RT,Response*Response,Response*Accuracy,Response*RTfirst,Response*RTlast,Response*strictAcc,Response*lenientAcc,Response*focus,Response*JOL,Response*Focus
w10008086,1pluic4f7q,Nick_Dissertation_EX1b,1,1,2020-05-07T14:06:51-07:00,20.94291806221,1,versionA_stim.csv,VC_VersionA.csv,"Version A","Version A",,,,,,0,Instruct,-,5,"In this section, you will be presented with a series of word pairs.",Initial_Instruct,Instruct1,20671,,,-1,-1,,,,,1
w10008086,1pluic4f7q,Nick_Dissertation_EX1b,1,2,2020-05-07T14:06:59-07:00,8.745353937149,1,versionA_stim.csv,VC_VersionA.csv,"Version A","Version A",,,,,,0,Instruct,-,5,"As you study, you will be asked to count the total number of vowels (a, e, i, o, u) within the two words. Please note that y is not considered a vowel.",,Instruct13,8445,,,-1,-1,,,,,1
w10008086,1pluic4f7q,Nick_Dissertation_EX1b,1,3,2020-05-07T14:07:11-07:00,12.224153995514,1,versionA_stim.csv,VC_VersionA.csv,"Version A","Version A",,,,,,0,Instruct,-,10,"For example, if you are given the pair CAT - DOG, CAT has one vowel and DOG has one vowel. The correct response would be 2 (1 + 1 = 2). After typing the number, you will press ENTER to move to the next pair.",,Instruct14,11905,,,-1,-1,,,,,1
w10008086,1pluic4f7q,Nick_Dissertation_EX1b,1,4,2020-05-07T14:07:13-07:00,1.4593069553375,1,versionA_stim.csv,VC_VersionA.csv,"Version A","Version A",,,,,,0,Instruct,User,-,"You will now begin the study. Press Enter when you are ready to begin.",,Instruct16,1187,,,-1,-1,,,,,1
w10008086,1pluic4f7q,Nick_Dissertation_EX1b,1,5,2020-05-07T14:07:24-07:00,10.997939109802,1,versionA_stim.csv,VC_VersionA.csv,"Version A","Version A",BASEBALL,CATCHER,BUFFER1,Buffer,2,6,VC,User,-,"How many vowels are the two words combined?|Type your response below and then press Enter.",Study/JOL,BUFFER,10660,,,10095,10095,,,,5,1
w10008086,1pluic4f7q,Nick_Dissertation_EX1b,1,6,2020-05-07T14:07:29-07:00,5.2719368934631,1,versionA_stim.csv,VC_VersionA.csv,"Version A","Version A",SCARE,HIDE,BUFFER1,Buffer,4,5,VC,User,-,"How many vowels are the two words combined?|Type your response below and then press Enter.",Study/JOL,BUFFER,4963,,,4462,4462,,,,4,1
w10008086,1pluic4f7q,Nick_Dissertation_EX1b,1,7,2020-05-07T14:07:37-07:00,8.0148460865021,1,versionA_stim.csv,VC_VersionA.csv,"Version A","Version A",PEANUT,BUTTER,BUFFER1,Buffer,3,3,VC,User,-,"How many vowels are the two words combined?|Type your response below and then press Enter.",Study/JOL,BUFFER,7725,,,7234,7234,,,,5,1
w10008086,1pluic4f7q,Nick_Dissertation_EX1b,1,8,2020-05-07T14:07:41-07:00,3.6990110874176,1,versionA_stim.csv,VC_VersionA.csv,"Version A","Version A",TREES,GREEN,BUFFER1,Buffer,1,4,VC,User,-,"How many vowels are the two words combined?|Type your response below and then press Enter.",Study/JOL,BUFFER,3388,,,2904,2904,,,,4,1
w10008086,1pluic4f7q,Nick_Dissertation_EX1b,1,9,2020-05-07T14:07:44-07:00,3.327987909317,1,versionA_stim.csv,VC_VersionA.csv,"Version A","Version A",SPACE,JAM,BUFFER1,Buffer,5,2,VC,User,-,"How many vowels are the two words combined?|Type your response below and then press Enter.",Study/JOL,BUFFER,3000,,,2473,2473,,,,3,1
w10008086,1pluic4f7q,Nick_Dissertation_EX1b,1,10,2020-05-07T14:07:48-07:00,4.0088310241699,1,versionA_stim.csv,VC_VersionA.csv,"Version A","Version A",HIDE,SICK,Study1,U,84,21,VC,User,-,"How many vowels are the two words combined?|Type your response below and then press Enter.",Study/JOL,"Study Phase",3724,,,2474,2474,,,,3,1
w10008086,1pluic4f7q,Nick_Dissertation_EX1b,1,11,2020-05-07T14:07:52-07:00,3.9949550628662,1,versionA_stim.csv,VC_VersionA.csv,"Version A","Version A",BUG,WASP,Study1,B,32,40,VC,User,-,"How many vowels are the two words combined?|Type your response below and then press Enter.",Study/JOL,"Study Phase",3668,,,3117,3117,,,,2,1
w10008086,1pluic4f7q,Nick_Dissertation_EX1b,1,12,2020-05-07T14:07:56-07:00,3.5538809299469,1,versionA_stim.csv,VC_VersionA.csv,"Version A","Version A",LIFT,WOMAN,Study1,U,69,50,VC,User,-,"How many vowels are the two words combined?|Type your response below and then press Enter.",Study/JOL,"Study Phase",3221,,,2574,2574,,,,3,1
w10008086,1pluic4f7q,Nick_Dissertation_EX1b,1,13,2020-05-07T14:08:02-07:00,5.8643319606781,1,versionA_stim.csv,VC_VersionA.csv,"Version A","Version A",DEATH,BUSINESS,Study1,U,72,69,VC,User,-,"How many vowels are the two words combined?|Type your response below and then press Enter.",Study/JOL,"Study Phase",-25137,,,-25684,-25684,,,,5,1
w10008086,1pluic4f7q,Nick_Dissertation_EX1b,1,14,2020-05-07T14:08:05-07:00,3.5274820327759,1,versionA_stim.csv,VC_VersionA.csv,"Version A","Version A",SHOE,FOOT,Study1,S,60,60,VC,User,-,"How many vowels are the two words combined?|Type your response below and then press Enter.",Study/JOL,"Study Phase",3242,,,2763,2763,,,,4,1
w10008086,1pluic4f7q,Nick_Dissertation_EX1b,1,15,2020-05-07T14:08:10-07:00,4.4967129230499,1,versionA_stim.csv,VC_VersionA.csv,"Version A","Version A",SOON,BELT,Study1,U,70,38,VC,User,-,"How many vowels are the two words combined?|Type your response below and then press Enter.",Study/JOL,"Study Phase",4157,,,3515,3515,,,,3,1
w10008086,1pluic4f7q,Nick_Dissertation_EX1b,1,16,2020-05-07T14:08:13-07:00,3.3060510158539,1,versionA_stim.csv,VC_VersionA.csv,"Version A","Version A",SWAN,BIRD,Study1,F,14,74,VC,User,-,"How many vowels are the two words combined?|Type your response below and then press Enter.",Study/JOL,"Study Phase",2971,,,2204,2204,,,,2,1
w10008086,1pluic4f7q,Nick_Dissertation_EX1b,1,17,2020-05-07T14:08:19-07:00,6.0484809875488,1,versionA_stim.csv,VC_VersionA.csv,"Version A","Version A",LETTUCE,SALAD,Study1,S,59,64,VC,User,-,"How many vowels are the two words combined?|Type your response below and then press Enter.",Study/JOL,"Study Phase",5759,,,5145,5146,,,,5,1
w10008086,1pluic4f7q,Nick_Dissertation_EX1b,1,18,2020-05-07T14:08:22-07:00,3.1042809486389,1,versionA_stim.csv,VC_VersionA.csv,"Version A","Version A",HERD,COW,Study1,F,22,8,VC,User,-,"How many vowels are the two words combined?|Type your response below and then press Enter.",Study/JOL,"Study Phase",2823,,,2310,2310,,,,2,1
w10008086,1pluic4f7q,Nick_Dissertation_EX1b,1,19,2020-05-07T14:10:58-07:00,155.60181212425,1,versionA_stim.csv,VC_VersionA.csv,"Version A","Version A",TAKE,SEIZE,Study1,B,29,36,VC,User,-,"How many vowels are the two words combined?|Type your response below and then press Enter.",Study/JOL,"Study Phase",155261,,,152709,154662,,,,5,1
w10008086,1pluic4f7q,Nick_Dissertation_EX1b,1,20,2020-05-07T14:11:15-07:00,16.830703020096,1,versionA_stim.csv,VC_VersionA.csv,"Version A","Version A",LAW,ATTORNEY,Study1,B,34,46,VC,User,-,"How many vowels are the two words combined?|Type your response below and then press Enter.",Study/JOL,"Study Phase",16509,,,15968,15969,,,,4,1
w10008086,1pluic4f7q,Nick_Dissertation_EX1b,1,21,2020-05-07T14:12:16-07:00,61.066967010498,1,versionA_stim.csv,VC_VersionA.csv,"Version A","Version A",POP,SODA,Study1,S,56,29,VC,User,-,"How many vowels are the two words combined?|Type your response below and then press Enter.",Study/JOL,"Study Phase",60715,,,60597,60597,,,,3,1
w10008086,1pluic4f7q,Nick_Dissertation_EX1b,1,22,2020-05-07T14:12:18-07:00,2.8161809444427,1,versionA_stim.csv,VC_VersionA.csv,"Version A","Version A",DRINK,SIP,Study1,B,27,41,VC,User,-,"How many vowels are the two words combined?|Type your response below and then press Enter.",Study/JOL,"Study Phase",2522,,,2380,2380,,,,2,1
w10008086,1pluic4f7q,Nick_Dissertation_EX1b,1,23,2020-05-07T14:12:25-07:00,6.6047229766846,1,versionA_stim.csv,VC_VersionA.csv,"Version A","Version A",ARCHITECTURE,DESIGN,Study1,S,51,73,VC,User,-,"How many vowels are the two words combined?|Type your response below and then press Enter.",Study/JOL,"Study Phase",6234,,,6095,6095,,,,7,1
w10008086,1pluic4f7q,Nick_Dissertation_EX1b,1,24,2020-05-07T14:12:30-07:00,4.6414389610291,1,versionA_stim.csv,VC_VersionA.csv,"Version A","Version A",STRONG,ACCIDENT,Study1,U,80,66,VC,User,-,"How many vowels are the two words combined?|Type your response below and then press Enter.",Study/JOL,"Study Phase",4324,,,4198,4198,,,,4,1
w10008086,1pluic4f7q,Nick_Dissertation_EX1b,1,25,2020-05-07T14:12:34-07:00,4.2690410614014,1,versionA_stim.csv,VC_VersionA.csv,"Version A","Version A",CREDIT,CARD,Study1,F,23,11,VC,User,-,"How many vowels are the two words combined?|Type your response below and then press Enter.",Study/JOL,"Study Phase",3966,,,3867,3867,,,,3,1
w10008086,1pluic4f7q,Nick_Dissertation_EX1b,1,26,2020-05-07T14:12:38-07:00,3.5913140773773,1,versionA_stim.csv,VC_VersionA.csv,"Version A","Version A",NUMBER,AMOUNT,Study1,S,47,33,VC,User,-,"How many vowels are the two words combined?|Type your response below and then press Enter.",Study/JOL,"Study Phase",3268,,,3062,3062,,,,4,1
w10008086,1pluic4f7q,Nick_Dissertation_EX1b,1,27,2020-05-07T14:12:40-07:00,2.6910998821259,1,versionA_stim.csv,VC_VersionA.csv,"Version A","Version A",DUMP,WASTE,Study1,S,49,28,VC,User,-,"How many vowels are the two words combined?|Type your response below and then press Enter.",Study/JOL,"Study Phase",2418,,,2277,2277,,,,3,1
w10008086,1pluic4f7q,Nick_Dissertation_EX1b,1,28,2020-05-07T14:12:44-07:00,3.7849631309509,1,versionA_stim.csv,VC_VersionA.csv,"Version A","Version A",WINE,CHEESE,Study1,S,57,48,VC,User,-,"How many vowels are the two words combined?|Type your response below and then press Enter.",Study/JOL,"Study Phase",2848,,,2704,2704,,,,5,1
w10008086,1pluic4f7q,Nick_Dissertation_EX1b,1,29,2020-05-07T14:12:48-07:00,4.1711378097534,1,versionA_stim.csv,VC_VersionA.csv,"Version A","Version A",HYGIENE,CLEAN,Study1,F,17,52,VC,User,-,"How many vowels are the two words combined?|Type your response below and then press Enter.",Study/JOL,"Study Phase",3866,,,3762,3762,,,,5,1
w10008086,1pluic4f7q,Nick_Dissertation_EX1b,1,30,2020-05-07T14:12:51-07:00,3.0749220848083,1,versionA_stim.csv,VC_VersionA.csv,"Version A","Version A",TUNA,FISH,Study1,F,25,58,VC,User,-,"How many vowels are the two words combined?|Type your response below and then press Enter.",Study/JOL,"Study Phase",2770,,,2633,2633,,,,3,1
w10008086,1pluic4f7q,Nick_Dissertation_EX1b,1,31,2020-05-07T14:12:54-07:00,2.948215007782,1,versionA_stim.csv,VC_VersionA.csv,"Version A","Version A",VALLEY,ADD,Study1,U,82,14,VC,User,-,"How many vowels are the two words combined?|Type your response below and then press Enter.",Study/JOL,"Study Phase",2629,,,2504,2505,,,,3,1
w10008086,1pluic4f7q,Nick_Dissertation_EX1b,1,32,2020-05-07T14:12:59-07:00,4.7066090106964,1,versionA_stim.csv,VC_VersionA.csv,"Version A","Version A",HAPPY,CAR,Study1,U,77,67,VC,User,-,"How many vowels are the two words combined?|Type your response below and then press Enter.",Study/JOL,"Study Phase",4380,,,4277,4277,,,,2,1
w10008086,1pluic4f7q,Nick_Dissertation_EX1b,1,33,2020-05-07T14:13:04-07:00,4.7770900726318,1,versionA_stim.csv,VC_VersionA.csv,"Version A","Version A",EDITOR,NEWS,Study1,F,10,35,VC,User,-,"How many vowels are the two words combined?|Type your response below and then press Enter.",Study/JOL,"Study Phase",4454,,,4237,4237,,,,4,1
w10008086,1pluic4f7q,Nick_Dissertation_EX1b,1,34,2020-05-07T14:13:08-07:00,4.1710209846497,1,versionA_stim.csv,VC_VersionA.csv,"Version A","Version A",CIRCLE,ROUND,Study1,S,65,47,VC,User,-,"How many vowels are the two words combined?|Type your response below and then press Enter.",Study/JOL,"Study Phase",3837,,,3700,3701,,,,4,1
w10008086,1pluic4f7q,Nick_Dissertation_EX1b,1,35,2020-05-07T14:13:12-07:00,4.0235078334808,1,versionA_stim.csv,VC_VersionA.csv,"Version A","Version A",MATH,DIVISION,Study1,B,33,42,VC,User,-,"How many vowels are the two words combined?|Type your response below and then press Enter.",Study/JOL,"Study Phase",3718,,,3567,3567,,,,5,1
w10008086,1pluic4f7q,Nick_Dissertation_EX1b,1,36,2020-05-07T14:13:15-07:00,3.212601184845,1,versionA_stim.csv,VC_VersionA.csv,"Version A","Version A",ROOT,PLANT,Study1,F,13,39,VC,User,-,"How many vowels are the two words combined?|Type your response below and then press Enter.",Study/JOL,"Study Phase",2876,,,2723,2723,,,,3,1
w10008086,1pluic4f7q,Nick_Dissertation_EX1b,1,37,2020-05-07T14:13:27-07:00,12.311944961548,1,versionA_stim.csv,VC_VersionA.csv,"Version A","Version A",LOCATION,SITE,Study1,S,48,34,VC,User,-,"How many vowels are the two words combined?|Type your response below and then press Enter.",Study/JOL,"Study Phase",11963,,,11808,11809,,,,5,1
w10008086,1pluic4f7q,Nick_Dissertation_EX1b,1,38,2020-05-07T14:13:35-07:00,7.198399066925,1,versionA_stim.csv,VC_VersionA.csv,"Version A","Version A",MACHINE,POSITION,Study1,U,76,79,VC,User,-,"How many vowels are the two words combined?|Type your response below and then press Enter.",Study/JOL,"Study Phase",6918,,,6364,6364,,,,6,1
w10008086,1pluic4f7q,Nick_Dissertation_EX1b,1,39,2020-05-07T14:13:37-07:00,2.8405168056488,1,versionA_stim.csv,VC_VersionA.csv,"Version A","Version A",SMELL,STENCH,Study1,B,42,27,VC,User,-,"How many vowels are the two words combined?|Type your response below and then press Enter.",Study/JOL,"Study Phase",2556,,,2409,2409,,,,2,1
w10008086,1pluic4f7q,Nick_Dissertation_EX1b,1,40,2020-05-07T14:13:42-07:00,4.4362261295319,1,versionA_stim.csv,VC_VersionA.csv,"Version A","Version A",DISCOVER,FLOOR,Study1,U,71,43,VC,User,-,"How many vowels are the two words combined?|Type your response below and then press Enter.",Study/JOL,"Study Phase",4120,,,3193,3193,,,,5,1
w10008086,1pluic4f7q,Nick_Dissertation_EX1b,1,41,2020-05-07T14:13:49-07:00,6.762631893158,1,versionA_stim.csv,VC_VersionA.csv,"Version A","Version A",MEANING,DEFINITION,Study1,S,62,68,VC,User,-,"How many vowels are the two words combined?|Type your response below and then press Enter.",Study/JOL,"Study Phase",6442,,,6331,6331,,,,7,1
w10008086,1pluic4f7q,Nick_Dissertation_EX1b,1,42,2020-05-07T14:13:52-07:00,2.8214089870453,1,versionA_stim.csv,VC_VersionA.csv,"Version A","Version A",BABY,CHILD,Study1,S,64,86,VC,User,-,"How many vowels are the two words combined?|Type your response below and then press Enter.",Study/JOL,"Study Phase",2508,,,2368,2368,,,,2,1
w10008086,1pluic4f7q,Nick_Dissertation_EX1b,1,43,2020-05-07T14:13:55-07:00,3.4921271800995,1,versionA_stim.csv,VC_VersionA.csv,"Version A","Version A",DIETARY,SACKING,Study1,U,67,19,VC,User,-,"How many vowels are the two words combined?|Type your response below and then press Enter.",Study/JOL,"Study Phase",3152,,,3010,3010,,,,4,1
w10008086,1pluic4f7q,Nick_Dissertation_EX1b,1,44,2020-05-07T14:14:00-07:00,4.686970949173,1,versionA_stim.csv,VC_VersionA.csv,"Version A","Version A",WORK,CHORE,Study1,B,39,78,VC,User,-,"How many vowels are the two words combined?|Type your response below and then press Enter.",Study/JOL,"Study Phase",4384,,,2788,4042,,,,3,1
w10008086,1pluic4f7q,Nick_Dissertation_EX1b,1,45,2020-05-07T14:14:03-07:00,3.3430950641632,1,versionA_stim.csv,VC_VersionA.csv,"Version A","Version A",HEIGHT,GROWTH,Study1,B,30,32,VC,User,-,"How many vowels are the two words combined?|Type your response below and then press Enter.",Study/JOL,"Study Phase",3032,,,2869,2869,,,,3,1
w10008086,1pluic4f7q,Nick_Dissertation_EX1b,1,46,2020-05-07T14:14:05-07:00,1.8929188251495,1,versionA_stim.csv,VC_VersionA.csv,"Version A","Version A",KEY,LATCH,Study1,B,36,12,VC,User,-,"How many vowels are the two words combined?|Type your response below and then press Enter.",Study/JOL,"Study Phase",1608,,,1473,1473,,,,2,1
w10008086,1pluic4f7q,Nick_Dissertation_EX1b,1,47,2020-05-07T14:14:08-07:00,2.6681430339813,1,versionA_stim.csv,VC_VersionA.csv,"Version A","Version A",PARK,HUNGRY,Study1,U,68,71,VC,User,-,"How many vowels are the two words combined?|Type your response below and then press Enter.",Study/JOL,"Study Phase",2390,,,2249,2249,,,,2,1
w10008086,1pluic4f7q,Nick_Dissertation_EX1b,1,48,2020-05-07T14:14:10-07:00,2.2789070606232,1,versionA_stim.csv,VC_VersionA.csv,"Version A","Version A",HOT,CHILI,Study1,B,37,72,VC,User,-,"How many vowels are the two words combined?|Type your response below and then press Enter.",Study/JOL,"Study Phase",1951,,,1802,1802,,,,3,1
w10008086,1pluic4f7q,Nick_Dissertation_EX1b,1,49,2020-05-07T14:14:15-07:00,5.1349239349365,1,versionA_stim.csv,VC_VersionA.csv,"Version A","Version A",GREAT,FANTASTIC,Study1,B,35,70,VC,User,-,"How many vowels are the two words combined?|Type your response below and then press Enter.",Study/JOL,"Study Phase",4808,,,4693,4693,,,,5,1
w10008086,1pluic4f7q,Nick_Dissertation_EX1b,1,50,2020-05-07T14:14:18-07:00,2.8582329750061,1,versionA_stim.csv,VC_VersionA.csv,"Version A","Version A",SLEEP,DROWSY,Study1,B,41,57,VC,User,-,"How many vowels are the two words combined?|Type your response below and then press Enter.",Study/JOL,"Study Phase",2579,,,2424,2424,,,,3,1
w10008086,1pluic4f7q,Nick_Dissertation_EX1b,1,51,2020-05-07T14:14:21-07:00,3.2031991481781,1,versionA_stim.csv,VC_VersionA.csv,"Version A","Version A",PLANE,PILOT,Study1,B,44,65,VC,User,-,"How many vowels are the two words combined?|Type your response below and then press Enter.",Study/JOL,"Study Phase",2857,,,2749,2749,,,,4,1
w10008086,1pluic4f7q,Nick_Dissertation_EX1b,1,52,2020-05-07T14:14:25-07:00,3.9142549037933,1,versionA_stim.csv,VC_VersionA.csv,"Version A","Version A",HORNET,STING,Study1,F,11,55,VC,User,-,"How many vowels are the two words combined?|Type your response below and then press Enter.",Study/JOL,"Study Phase",3568,,,3481,3481,,,,3,1
w10008086,1pluic4f7q,Nick_Dissertation_EX1b,1,53,2020-05-07T14:14:30-07:00,5.0850760936737,1,versionA_stim.csv,VC_VersionA.csv,"Version A","Version A",PUSHER,CLUTTER,Study1,U,66,18,VC,User,-,"How many vowels are the two words combined?|Type your response below and then press Enter.",Study/JOL,"Study Phase",4769,,,4621,4621,,,,4,1
w10008086,1pluic4f7q,Nick_Dissertation_EX1b,1,54,2020-05-07T14:14:34-07:00,4.379410982132,1,versionA_stim.csv,VC_VersionA.csv,"Version A","Version A",CHISEL,HAMMER,Study1,F,9,45,VC,User,-,"How many vowels are the two words combined?|Type your response below and then press Enter.",Study/JOL,"Study Phase",4099,,,3984,3984,,,,4,1
w10008086,1pluic4f7q,Nick_Dissertation_EX1b,1,55,2020-05-07T14:14:39-07:00,4.7054460048676,1,versionA_stim.csv,VC_VersionA.csv,"Version A","Version A",DEBATE,SIGHT,Study1,U,73,16,VC,User,-,"How many vowels are the two words combined?|Type your response below and then press Enter.",Study/JOL,"Study Phase",4377,,,4143,4144,,,,4,1
w10008086,1pluic4f7q,Nick_Dissertation_EX1b,1,56,2020-05-07T14:14:46-07:00,6.5782828330994,1,versionA_stim.csv,VC_VersionA.csv,"Version A","Version A",WAGE,MONEY,Study1,F,8,10,VC,User,-,"How many vowels are the two words combined?|Type your response below and then press Enter.",Study/JOL,"Study Phase",6282,,,6155,6155,,,,4,1
w10008086,1pluic4f7q,Nick_Dissertation_EX1b,1,57,2020-05-07T14:14:48-07:00,2.6610860824585,1,versionA_stim.csv,VC_VersionA.csv,"Version A","Version A",DARK,CAVE,Study1,B,28,51,VC,User,-,"How many vowels are the two words combined?|Type your response below and then press Enter.",Study/JOL,"Study Phase",2364,,,2224,2224,,,,3,1
w10008086,1pluic4f7q,Nick_Dissertation_EX1b,1,58,2020-05-07T14:14:55-07:00,6.625335931778,1,versionA_stim.csv,VC_VersionA.csv,"Version A","Version A",BATHROOM,TOILET,Study1,S,58,15,VC,User,-,"How many vowels are the two words combined?|Type your response below and then press Enter.",Study/JOL,"Study Phase",6293,,,6182,6182,,,,6,1
w10008086,1pluic4f7q,Nick_Dissertation_EX1b,1,59,2020-05-07T14:14:57-07:00,2.2240760326385,1,versionA_stim.csv,VC_VersionA.csv,"Version A","Version A",PAW,DOG,Study1,F,15,49,VC,User,-,"How many vowels are the two words combined?|Type your response below and then press Enter.",Study/JOL,"Study Phase",1913,,,1785,1785,,,,2,1
w10008086,1pluic4f7q,Nick_Dissertation_EX1b,1,60,2020-05-07T14:15:00-07:00,3.1509521007538,1,versionA_stim.csv,VC_VersionA.csv,"Version A","Version A",WAY,OUT,Study1,F,16,83,VC,User,-,"How many vowels are the two words combined?|Type your response below and then press Enter.",Study/JOL,"Study Phase",2818,,,2754,2754,,,,3,1
w10008086,1pluic4f7q,Nick_Dissertation_EX1b,1,61,2020-05-07T14:15:03-07:00,2.2257869243622,1,versionA_stim.csv,VC_VersionA.csv,"Version A","Version A",ART,LION,Study1,U,79,37,VC,User,-,"How many vowels are the two words combined?|Type your response below and then press Enter.",Study/JOL,"Study Phase",1889,,,1766,1766,,,,3,1
w10008086,1pluic4f7q,Nick_Dissertation_EX1b,1,62,2020-05-07T14:15:05-07:00,2.5388391017914,1,versionA_stim.csv,VC_VersionA.csv,"Version A","Version A",BEGIN,END,Study1,S,54,81,VC,User,-,"How many vowels are the two words combined?|Type your response below and then press Enter.",Study/JOL,"Study Phase",2217,,,2144,2144,,,,3,1
w10008086,1pluic4f7q,Nick_Dissertation_EX1b,1,63,2020-05-07T14:16:06-07:00,60.565145015717,1,versionA_stim.csv,VC_VersionA.csv,"Version A","Version A",DELINQUENT,BAD,Study1,F,6,75,VC,User,-,"How many vowels are the two words combined?|Type your response below and then press Enter.",Study/JOL,"Study Phase",60237,,,60137,60137,,,,5,1
w10008086,1pluic4f7q,Nick_Dissertation_EX1b,1,64,2020-05-07T14:16:08-07:00,2.4913799762726,1,versionA_stim.csv,VC_VersionA.csv,"Version A","Version A",HONEY,BEE,Study1,S,63,7,VC,User,-,"How many vowels are the two words combined?|Type your response below and then press Enter.",Study/JOL,"Study Phase",2190,,,2070,2070,,,,4,1
w10008086,1pluic4f7q,Nick_Dissertation_EX1b,1,65,2020-05-07T14:16:11-07:00,3.1303658485413,1,versionA_stim.csv,VC_VersionA.csv,"Version A","Version A",SUGAR,RIDDLE,Study1,U,81,13,VC,User,-,"How many vowels are the two words combined?|Type your response below and then press Enter.",Study/JOL,"Study Phase",2792,,,2671,2672,,,,4,1
w10008086,1pluic4f7q,Nick_Dissertation_EX1b,1,66,2020-05-07T14:16:14-07:00,2.9518091678619,1,versionA_stim.csv,VC_VersionA.csv,"Version A","Version A",FIRE,BLAZE,Study1,B,45,30,VC,User,-,"How many vowels are the two words combined?|Type your response below and then press Enter.",Study/JOL,"Study Phase",2621,,,2489,2489,,,,4,1
w10008086,1pluic4f7q,Nick_Dissertation_EX1b,1,67,2020-05-07T14:16:17-07:00,2.6157808303833,1,versionA_stim.csv,VC_VersionA.csv,"Version A","Version A",BRIDGE,WATER,Study1,F,18,62,VC,User,-,"How many vowels are the two words combined?|Type your response below and then press Enter.",Study/JOL,"Study Phase",2267,,,2163,2163,,,,4,1
w10008086,1pluic4f7q,Nick_Dissertation_EX1b,1,68,2020-05-07T14:16:21-07:00,3.6017751693726,1,versionA_stim.csv,VC_VersionA.csv,"Version A","Version A",DIGESTION,STOMACH,Study1,F,7,53,VC,User,-,"How many vowels are the two words combined?|Type your response below and then press Enter.",Study/JOL,"Study Phase",3227,,,3122,3122,,,,6,1
w10008086,1pluic4f7q,Nick_Dissertation_EX1b,1,69,2020-05-07T14:16:23-07:00,2.8637068271637,1,versionA_stim.csv,VC_VersionA.csv,"Version A","Version A",GRILL,BAR,Study1,S,52,26,VC,User,-,"How many vowels are the two words combined?|Type your response below and then press Enter.",Study/JOL,"Study Phase",2515,,,1680,2442,,,,2,1
w10008086,1pluic4f7q,Nick_Dissertation_EX1b,1,70,2020-05-07T14:16:27-07:00,4.1262640953064,1,versionA_stim.csv,VC_VersionA.csv,"Version A","Version A",DISCUSSION,TALK,Study1,F,21,82,VC,User,-,"How many vowels are the two words combined?|Type your response below and then press Enter.",Study/JOL,"Study Phase",3789,,,3689,3689,,,,5,1
w10008086,1pluic4f7q,Nick_Dissertation_EX1b,1,71,2020-05-07T14:16:33-07:00,5.4813270568848,1,versionA_stim.csv,VC_VersionA.csv,"Version A","Version A",DUE,ASSIGNMENT,Study1,S,46,56,VC,User,-,"How many vowels are the two words combined?|Type your response below and then press Enter.",Study/JOL,"Study Phase",5128,,,5031,5031,,,,5,1
w10008086,1pluic4f7q,Nick_Dissertation_EX1b,1,72,2020-05-07T14:16:35-07:00,2.3461518287659,1,versionA_stim.csv,VC_VersionA.csv,"Version A","Version A",BLOW,WIND,Study1,S,55,44,VC,User,-,"How many vowels are the two words combined?|Type your response below and then press Enter.",Study/JOL,"Study Phase",2009,,,1892,1892,,,,2,1
w10008086,1pluic4f7q,Nick_Dissertation_EX1b,1,73,2020-05-07T14:16:39-07:00,3.2684721946716,1,versionA_stim.csv,VC_VersionA.csv,"Version A","Version A",BALL,RACKET,Study1,B,38,59,VC,User,-,"How many vowels are the two words combined?|Type your response below and then press Enter.",Study/JOL,"Study Phase",2940,,,2818,2818,,,,3,1
w10008086,1pluic4f7q,Nick_Dissertation_EX1b,1,74,2020-05-07T14:16:42-07:00,3.395555973053,1,versionA_stim.csv,VC_VersionA.csv,"Version A","Version A",CASH,WOULD,Study1,U,83,22,VC,User,-,"How many vowels are the two words combined?|Type your response below and then press Enter.",Study/JOL,"Study Phase",3106,,,2973,2974,,,,3,1
w10008086,1pluic4f7q,Nick_Dissertation_EX1b,1,75,2020-05-07T14:16:54-07:00,11.518254995346,1,versionA_stim.csv,VC_VersionA.csv,"Version A","Version A",ORCHID,FLOWER,Study1,F,24,84,VC,User,-,"How many vowels are the two words combined?|Type your response below and then press Enter.",Study/JOL,"Study Phase",11190,,,10659,10660,,,,4,1
w10008086,1pluic4f7q,Nick_Dissertation_EX1b,1,76,2020-05-07T14:17:04-07:00,10.151974916458,1,versionA_stim.csv,VC_VersionA.csv,"Version A","Version A",ARTERY,BRONZE,Study1,U,74,25,VC,User,-,"How many vowels are the two words combined?|Type your response below and then press Enter.",Study/JOL,"Study Phase",9821,,,9643,9643,,,,4,1
w10008086,1pluic4f7q,Nick_Dissertation_EX1b,1,77,2020-05-07T14:17:08-07:00,4.150032043457,1,versionA_stim.csv,VC_VersionA.csv,"Version A","Version A",SENTENCE,WORD,Study1,B,31,61,VC,User,-,"How many vowels are the two words combined?|Type your response below and then press Enter.",Study/JOL,"Study Phase",3815,,,3614,3614,,,,4,1
w10008086,1pluic4f7q,Nick_Dissertation_EX1b,1,78,2020-05-07T14:17:12-07:00,4.6812889575958,1,versionA_stim.csv,VC_VersionA.csv,"Version A","Version A",KIDNEY,LIVER,Study1,S,53,85,VC,User,-,"How many vowels are the two words combined?|Type your response below and then press Enter.",Study/JOL,"Study Phase",4336,,,4165,4165,,,,4,1
w10008086,1pluic4f7q,Nick_Dissertation_EX1b,1,79,2020-05-07T14:17:30-07:00,17.288877010345,1,versionA_stim.csv,VC_VersionA.csv,"Version A","Version A",REVOLUTION,WAR,Study1,F,20,31,VC,User,-,"How many vowels are the two words combined?|Type your response below and then press Enter.",Study/JOL,"Study Phase",16933,,,16364,16364,,,,6,1
w10008086,1pluic4f7q,Nick_Dissertation_EX1b,1,80,2020-05-07T14:17:33-07:00,3.1484351158142,1,versionA_stim.csv,VC_VersionA.csv,"Version A","Version A",KING,VASE,Study1,U,85,17,VC,User,-,"How many vowels are the two words combined?|Type your response below and then press Enter.",Study/JOL,"Study Phase",2844,,,2690,2690,,,,3,1
w10008086,1pluic4f7q,Nick_Dissertation_EX1b,1,81,2020-05-07T14:17:36-07:00,2.948383808136,1,versionA_stim.csv,VC_VersionA.csv,"Version A","Version A",FIX,HAND,Study1,U,75,63,VC,User,-,"How many vowels are the two words combined?|Type your response below and then press Enter.",Study/JOL,"Study Phase",2630,,,2477,2477,,,,2,1
w10008086,1pluic4f7q,Nick_Dissertation_EX1b,1,82,2020-05-07T14:17:39-07:00,3.0794551372528,1,versionA_stim.csv,VC_VersionA.csv,"Version A","Version A",BITTER,COLD,Study1,F,12,23,VC,User,-,"How many vowels are the two words combined?|Type your response below and then press Enter.",Study/JOL,"Study Phase",2771,,,2624,2624,,,,3,1
w10008086,1pluic4f7q,Nick_Dissertation_EX1b,1,83,2020-05-07T14:17:45-07:00,6.1870138645172,1,versionA_stim.csv,VC_VersionA.csv,"Version A","Version A",ALLOW,TUCK,Study1,U,78,80,VC,User,-,"How many vowels are the two words combined?|Type your response below and then press Enter.",Study/JOL,"Study Phase",5855,,,5616,5616,,,,3,1
w10008086,1pluic4f7q,Nick_Dissertation_EX1b,1,84,2020-05-07T14:17:53-07:00,7.6613659858704,1,versionA_stim.csv,VC_VersionA.csv,"Version A","Version A",PAST,FUTURE,Study1,S,61,20,VC,User,-,"How many vowels are the two words combined?|Type your response below and then press Enter.",Study/JOL,"Study Phase",7359,,,6998,6999,,,,4,1
w10008086,1pluic4f7q,Nick_Dissertation_EX1b,1,85,2020-05-07T14:17:58-07:00,4.9200100898743,1,versionA_stim.csv,VC_VersionA.csv,"Version A","Version A",HUNGER,FAMINE,Study1,B,40,77,VC,User,-,"How many vowels are the two words combined?|Type your response below and then press Enter.",Study/JOL,"Study Phase",4599,,,4339,4339,,,,5,1
w10008086,1pluic4f7q,Nick_Dissertation_EX1b,1,86,2020-05-07T14:18:14-07:00,16.290734052658,1,versionA_stim.csv,VC_VersionA.csv,"Version A","Version A",CLOTHES,ATTIRE,Study1,B,43,9,VC,User,-,"How many vowels are the two words combined?|Type your response below and then press Enter.",Study/JOL,"Study Phase",15956,,,15032,15032,,,,5,1
w10008086,1pluic4f7q,Nick_Dissertation_EX1b,1,87,2020-05-07T14:18:19-07:00,5.3017978668213,1,versionA_stim.csv,VC_VersionA.csv,"Version A","Version A",FULL,ENOUGH,Study1,B,26,24,VC,User,-,"How many vowels are the two words combined?|Type your response below and then press Enter.",Study/JOL,"Study Phase",4977,,,4269,4269,,,,4,1
w10008086,1pluic4f7q,Nick_Dissertation_EX1b,1,88,2020-05-07T14:18:24-07:00,4.7684240341187,1,versionA_stim.csv,VC_VersionA.csv,"Version A","Version A",TRIAL,JURY,Study1,S,50,76,VC,User,-,"How many vowels are the two words combined?|Type your response below and then press Enter.",Study/JOL,"Study Phase",4458,,,3730,3730,,,,3,1
w10008086,1pluic4f7q,Nick_Dissertation_EX1b,1,89,2020-05-07T14:18:29-07:00,4.532114982605,1,versionA_stim.csv,VC_VersionA.csv,"Version A","Version A",GEOLOGY,ROCK,Study1,F,19,54,VC,User,-,"How many vowels are the two words combined?|Type your response below and then press Enter.",Study/JOL,"Study Phase",4241,,,3704,3704,,,,4,1
w10008086,1pluic4f7q,Nick_Dissertation_EX1b,1,90,2020-05-07T14:19:56-07:00,87.052445173264,1,versionA_stim.csv,VC_VersionA.csv,"Version A","Version A",SHERRIF,POLICE,BUFFER2,Buffer,87,87,VC,User,-,"How many vowels are the two words combined?|Type your response below and then press Enter.",Study/JOL,BUFFER2,86723,,,85930,85930,,,,5,1
w10008086,1pluic4f7q,Nick_Dissertation_EX1b,1,91,2020-05-07T14:20:01-07:00,4.9425909519196,1,versionA_stim.csv,VC_VersionA.csv,"Version A","Version A",MALT,CHOCOLATE,BUFFER2,Buffer,88,88,VC,User,-,"How many vowels are the two words combined?|Type your response below and then press Enter.",Study/JOL,BUFFER2,4621,,,3912,3912,,,,5,1
w10008086,1pluic4f7q,Nick_Dissertation_EX1b,1,92,2020-05-07T14:20:08-07:00,7.3095998764038,1,versionA_stim.csv,VC_VersionA.csv,"Version A","Version A",MOON,SPACE,BUFFER2,Buffer,89,89,VC,User,-,"How many vowels are the two words combined?|Type your response below and then press Enter.",Study/JOL,BUFFER2,6991,,,6347,6347,,,,4,1
w10008086,1pluic4f7q,Nick_Dissertation_EX1b,1,93,2020-05-07T14:20:14-07:00,6.387552022934,1,versionA_stim.csv,VC_VersionA.csv,"Version A","Version A",GEESE,GOOSE,BUFFER2,Buffer,86,90,VC,User,-,"How many vowels are the two words combined?|Type your response below and then press Enter.",Study/JOL,BUFFER2,6069,,,5412,5412,,,,6,1
w10008086,1pluic4f7q,Nick_Dissertation_EX1b,1,94,2020-05-07T14:20:20-07:00,5.4397139549255,1,versionA_stim.csv,VC_VersionA.csv,"Version A","Version A",THING,STUFF,BUFFER2,Buffer,90,91,VC,User,-,"How many vowels are the two words combined?|Type your response below and then press Enter.",Study/JOL,BUFFER2,5146,,,4374,4375,,,,2,1
w10008086,1pluic4f7q,Nick_Dissertation_EX1b,1,95,2020-05-07T14:20:40-07:00,20.489006996155,1,versionA_stim.csv,VC_VersionA.csv,"Version A","Version A",,,,,,0,Instruct,User,-,"You have completed this section. Please press Enter.",Filler_Instruction,Instruct2,20100,,,-1,-1,,,,,1
w10008086,1pluic4f7q,Nick_Dissertation_EX1b,1,96,2020-05-07T14:22:41-07:00,120.38680720329,1,versionA_stim.csv,VC_VersionA.csv,"Version A","Version A",,,,,,0,FreeRecall,120,120,"Please list the 50 US states in alphabetical order. The task will automatically advance to the next screen after two minutes.",,Filler1,120004,"Alabama Alaska Arkansa",0,4969,69688,0,0,,,1
w10008086,1pluic4f7q,Nick_Dissertation_EX1b,1,97,2020-05-07T14:25:47-07:00,185.9162209034,1,versionA_stim.csv,VC_VersionA.csv,"Version A","Version A",,,,,,0,Instruct,-,10,"You will now be presented with the first word from each of the previously studied item pairs. Please type the missing word. If you do not know the word, you may guess or press Enter to skip forward to the next pair.",,Instruct3,185486,,,-1,-1,,,,,1
w10008086,1pluic4f7q,Nick_Dissertation_EX1b,1,98,2020-05-07T14:25:57-07:00,10.633665084839,1,versionA_stim.csv,VC_VersionA.csv,"Version A","Version A",WINE,CHEESE,Study1,S,57,48,Test,User,-,,Recall,Recall1,10272,,0,-1,-1,0,0,,,1
w10008086,1pluic4f7q,Nick_Dissertation_EX1b,1,99,2020-05-07T14:26:01-07:00,3.7713680267334,1,versionA_stim.csv,VC_VersionA.csv,"Version A","Version A",SMELL,STENCH,Study1,B,42,27,Test,User,-,,Recall,Recall1,3462,cologne,15.384615384615,1845,3261,0,0,,,1
w10008086,1pluic4f7q,Nick_Dissertation_EX1b,1,100,2020-05-07T14:26:05-07:00,3.6547868251801,1,versionA_stim.csv,VC_VersionA.csv,"Version A","Version A",SUGAR,RIDDLE,Study1,U,81,13,Test,User,-,,Recall,Recall1,3367,sweet,18.181818181818,2435,3220,0,0,,,1
w10008086,1pluic4f7q,Nick_Dissertation_EX1b,1,101,2020-05-07T14:26:07-07:00,2.5480799674988,1,versionA_stim.csv,VC_VersionA.csv,"Version A","Version A",DRINK,SIP,Study1,B,27,41,Test,User,-,,Recall,Recall1,2206,,0,-1,-1,0,0,,,1
w10008086,1pluic4f7q,Nick_Dissertation_EX1b,1,102,2020-05-07T14:26:14-07:00,7.2941269874573,1,versionA_stim.csv,VC_VersionA.csv,"Version A","Version A",HUNGER,FAMINE,Study1,B,40,77,Test,User,-,,Recall,Recall1,6958,eat,22.222222222222,1085,6722,0,0,,,1
w10008086,1pluic4f7q,Nick_Dissertation_EX1b,1,103,2020-05-07T14:26:17-07:00,2.2254002094269,1,versionA_stim.csv,VC_VersionA.csv,"Version A","Version A",HIDE,SICK,Study1,U,84,21,Test,User,-,,Recall,Recall1,1905,seek,50,1068,1606,0,0,,,1
w10008086,1pluic4f7q,Nick_Dissertation_EX1b,1,104,2020-05-07T14:26:21-07:00,4.7369778156281,1,versionA_stim.csv,VC_VersionA.csv,"Version A","Version A",DELINQUENT,BAD,Study1,F,6,75,Test,User,-,,Recall,Recall1,4378,child,25,1929,4012,0,0,,,1
w10008086,1pluic4f7q,Nick_Dissertation_EX1b,1,105,2020-05-07T14:31:47-07:00,325.41774201393,1,versionA_stim.csv,VC_VersionA.csv,"Version A","Version A",FIX,HAND,Study1,U,75,63,Test,User,-,,Recall,Recall1,324870,hammer,40,323575,324454,0,0,,,0.975
w10008086,1pluic4f7q,Nick_Dissertation_EX1b,1,106,2020-05-07T14:31:49-07:00,2.0426471233368,1,versionA_stim.csv,VC_VersionA.csv,"Version A","Version A",HOT,CHILI,Study1,B,37,72,Test,User,-,,Recall,Recall1,1744,cold,44.444444444444,1187,1574,0,0,,,1
w10008086,1pluic4f7q,Nick_Dissertation_EX1b,1,107,2020-05-07T14:31:55-07:00,5.6652719974518,1,versionA_stim.csv,VC_VersionA.csv,"Version A","Version A",CIRCLE,ROUND,Study1,S,65,47,Test,User,-,,Recall,Recall1,5374,round,100,1183,5207,1,1,,,1
w10008086,1pluic4f7q,Nick_Dissertation_EX1b,1,108,2020-05-07T14:31:59-07:00,4.9506349563599,1,versionA_stim.csv,VC_VersionA.csv,"Version A","Version A",DIGESTION,STOMACH,Study1,F,7,53,Test,User,-,,Recall,Recall1,4650,hungry,15.384615384615,2617,4431,0,0,,,1
w10008086,1pluic4f7q,Nick_Dissertation_EX1b,1,109,2020-05-07T14:32:03-07:00,3.2682840824127,1,versionA_stim.csv,VC_VersionA.csv,"Version A","Version A",ROOT,PLANT,Study1,F,13,39,Test,User,-,,Recall,Recall1,2979,tree,22.222222222222,1311,2835,0,0,,,1
w10008086,1pluic4f7q,Nick_Dissertation_EX1b,1,110,2020-05-07T14:32:08-07:00,5.346846818924,1,versionA_stim.csv,VC_VersionA.csv,"Version A","Version A",LAW,ATTORNEY,Study1,B,34,46,Test,User,-,,Recall,Recall1,4979,order,46.153846153846,3366,4808,0,0,,,1
w10008086,1pluic4f7q,Nick_Dissertation_EX1b,1,111,2020-05-07T14:32:11-07:00,2.7285010814667,1,versionA_stim.csv,VC_VersionA.csv,"Version A","Version A",BATHROOM,TOILET,Study1,S,58,15,Test,User,-,,Recall,Recall1,2439,sink,20,1702,2205,0,0,,,1
w10008086,1pluic4f7q,Nick_Dissertation_EX1b,1,112,2020-05-07T14:34:32-07:00,141.21906709671,1,versionA_stim.csv,VC_VersionA.csv,"Version A","Version A",ARTERY,BRONZE,Study1,U,74,25,Test,User,-,,Recall,Recall1,140861,,0,-1,-1,0,0,,,1
w10008086,1pluic4f7q,Nick_Dissertation_EX1b,1,113,2020-05-07T14:34:36-07:00,4.2847678661346,1,versionA_stim.csv,VC_VersionA.csv,"Version A","Version A",PUSHER,CLUTTER,Study1,U,66,18,Test,User,-,,Recall,Recall1,3936,,0,-1,-1,0,0,,,1
w10008086,1pluic4f7q,Nick_Dissertation_EX1b,1,114,2020-05-07T14:34:39-07:00,2.8894181251526,1,versionA_stim.csv,VC_VersionA.csv,"Version A","Version A",SOON,BELT,Study1,U,70,38,Test,User,-,,Recall,Recall1,2531,late,50,1454,2173,0,0,,,1
w10008086,1pluic4f7q,Nick_Dissertation_EX1b,1,115,2020-05-07T14:34:43-07:00,3.433709859848,1,versionA_stim.csv,VC_VersionA.csv,"Version A","Version A",BLOW,WIND,Study1,S,55,44,Test,User,-,,Recall,Recall1,3043,kiss,25,2263,2809,0,0,,,1
w10008086,1pluic4f7q,Nick_Dissertation_EX1b,1,116,2020-05-07T14:34:46-07:00,3.6761269569397,1,versionA_stim.csv,VC_VersionA.csv,"Version A","Version A",PARK,HUNGRY,Study1,U,68,71,Test,User,-,,Recall,Recall1,3312,ride,20,1973,2703,0,0,,,1
w10008086,1pluic4f7q,Nick_Dissertation_EX1b,1,117,2020-05-07T14:34:51-07:00,4.4407961368561,1,versionA_stim.csv,VC_VersionA.csv,"Version A","Version A",PAST,FUTURE,Study1,S,61,20,Test,User,-,,Recall,Recall1,3979,future,100,2261,3628,1,1,,,1
w10008086,1pluic4f7q,Nick_Dissertation_EX1b,1,118,2020-05-07T14:36:07-07:00,75.833256959915,1,versionA_stim.csv,VC_VersionA.csv,"Version A","Version A",EDITOR,NEWS,Study1,F,10,35,Test,User,-,,Recall,Recall1,75421,book,0,74431,74892,0,0,,,1
w10008086,1pluic4f7q,Nick_Dissertation_EX1b,1,119,2020-05-07T14:36:10-07:00,3.5835320949554,1,versionA_stim.csv,VC_VersionA.csv,"Version A","Version A",PAW,DOG,Study1,F,15,49,Test,User,-,,Recall,Recall1,3269,tail,0,2165,2815,0,0,,,1
w10008086,1pluic4f7q,Nick_Dissertation_EX1b,1,120,2020-05-07T14:36:13-07:00,3.3008978366852,1,versionA_stim.csv,VC_VersionA.csv,"Version A","Version A",WAGE,MONEY,Study1,F,8,10,Test,User,-,,Recall,Recall1,2941,money,100,1213,2195,1,1,,,1
w10008086,1pluic4f7q,Nick_Dissertation_EX1b,1,121,2020-05-07T14:36:35-07:00,21.638720989227,1,versionA_stim.csv,VC_VersionA.csv,"Version A","Version A",SLEEP,DROWSY,Study1,B,41,57,Test,User,-,,Recall,Recall1,21200,,0,-1,-1,0,0,,,1
w10008086,1pluic4f7q,Nick_Dissertation_EX1b,1,122,2020-05-07T14:36:38-07:00,2.6619591712952,1,versionA_stim.csv,VC_VersionA.csv,"Version A","Version A",CASH,WOULD,Study1,U,83,22,Test,User,-,,Recall,Recall1,2135,money,20,971,1954,0,0,,,1
w10008086,1pluic4f7q,Nick_Dissertation_EX1b,1,123,2020-05-07T14:36:44-07:00,6.1984429359436,1,versionA_stim.csv,VC_VersionA.csv,"Version A","Version A",HYGIENE,CLEAN,Study1,F,17,52,Test,User,-,,Recall,Recall1,5758,clean,100,4383,5336,1,1,,,1
w10008086,1pluic4f7q,Nick_Dissertation_EX1b,1,124,2020-05-07T14:38:39-07:00,115.08260297775,1,versionA_stim.csv,VC_VersionA.csv,"Version A","Version A",HEIGHT,GROWTH,Study1,B,30,32,Test,User,-,,Recall,Recall1,114666,growth,100,110244,114120,1,1,,,0.429
w10008086,1pluic4f7q,Nick_Dissertation_EX1b,1,125,2020-05-07T14:38:42-07:00,2.4725780487061,1,versionA_stim.csv,VC_VersionA.csv,"Version A","Version A",HONEY,BEE,Study1,S,63,7,Test,User,-,,Recall,Recall1,2098,bees,85.714285714286,1313,1928,0,1,,,1
w10008086,1pluic4f7q,Nick_Dissertation_EX1b,1,126,2020-05-07T14:38:46-07:00,4.0292148590088,1,versionA_stim.csv,VC_VersionA.csv,"Version A","Version A",STRONG,ACCIDENT,Study1,U,80,66,Test,User,-,,Recall,Recall1,3678,weak,16.666666666667,1923,3437,0,0,,,1
w10008086,1pluic4f7q,Nick_Dissertation_EX1b,1,127,2020-05-07T14:38:50-07:00,4.6372799873352,1,versionA_stim.csv,VC_VersionA.csv,"Version A","Version A",DISCUSSION,TALK,Study1,F,21,82,Test,User,-,,Recall,Recall1,4341,talk,100,2829,3665,1,1,,,1
w10008086,1pluic4f7q,Nick_Dissertation_EX1b,1,128,2020-05-07T14:38:55-07:00,5.1107661724091,1,versionA_stim.csv,VC_VersionA.csv,"Version A","Version A",ORCHID,FLOWER,Study1,F,24,84,Test,User,-,,Recall,Recall1,4747,plant,18.181818181818,2646,4522,0,0,,,1
w10008086,1pluic4f7q,Nick_Dissertation_EX1b,1,129,2020-05-07T14:39:07-07:00,11.22599697113,1,versionA_stim.csv,VC_VersionA.csv,"Version A","Version A",KING,VASE,Study1,U,85,17,Test,User,-,,Recall,Recall1,10868,queen,22.222222222222,9678,10555,0,0,,,1
w10008086,1pluic4f7q,Nick_Dissertation_EX1b,1,130,2020-05-07T14:39:10-07:00,3.8056058883667,1,versionA_stim.csv,VC_VersionA.csv,"Version A","Version A",MACHINE,POSITION,Study1,U,76,79,Test,User,-,,Recall,Recall1,3429,,0,-1,-1,0,0,,,1
w10008086,1pluic4f7q,Nick_Dissertation_EX1b,1,131,2020-05-07T14:39:13-07:00,2.2864801883698,1,versionA_stim.csv,VC_VersionA.csv,"Version A","Version A",KEY,LATCH,Study1,B,36,12,Test,User,-,,Recall,Recall1,1947,lock,44.444444444444,1144,1643,0,0,,,1
w10008086,1pluic4f7q,Nick_Dissertation_EX1b,1,132,2020-05-07T14:39:16-07:00,3.5480289459229,1,versionA_stim.csv,VC_VersionA.csv,"Version A","Version A",TAKE,SEIZE,Study1,B,29,36,Test,User,-,,Recall,Recall1,3170,give,44.444444444444,1434,2945,0,0,,,1
w10008086,1pluic4f7q,Nick_Dissertation_EX1b,1,133,2020-05-07T14:39:23-07:00,6.6858868598938,1,versionA_stim.csv,VC_VersionA.csv,"Version A","Version A",FULL,ENOUGH,Study1,B,26,24,Test,User,-,,Recall,Recall1,6352,empty,18.181818181818,4788,5863,0,0,,,1
w10008086,1pluic4f7q,Nick_Dissertation_EX1b,1,134,2020-05-07T14:39:28-07:00,5.3176810741425,1,versionA_stim.csv,VC_VersionA.csv,"Version A","Version A",DEATH,BUSINESS,Study1,U,72,69,Test,User,-,,Recall,Recall1,4925,alive,30.769230769231,3409,4490,0,0,,,1
w10008086,1pluic4f7q,Nick_Dissertation_EX1b,1,135,2020-05-07T14:43:31-07:00,242.53654789925,1,versionA_stim.csv,VC_VersionA.csv,"Version A","Version A",BALL,RACKET,Study1,B,38,59,Test,User,-,,Recall,Recall1,242115,catch,36.363636363636,239837,241376,0,0,,,1
w10008086,1pluic4f7q,Nick_Dissertation_EX1b,1,136,2020-05-07T14:44:35-07:00,64.675240039825,1,versionA_stim.csv,VC_VersionA.csv,"Version A","Version A",CLOTHES,ATTIRE,Study1,B,43,9,Test,User,-,,Recall,Recall1,64201,wash,20,63020,64013,0,0,,,1
w10008086,1pluic4f7q,Nick_Dissertation_EX1b,1,137,2020-05-07T14:44:40-07:00,4.4095220565796,1,versionA_stim.csv,VC_VersionA.csv,"Version A","Version A",DUE,ASSIGNMENT,Study1,S,46,56,Test,User,-,,Recall,Recall1,4047,late,28.571428571429,2921,3822,0,0,,,1
w10008086,1pluic4f7q,Nick_Dissertation_EX1b,1,138,2020-05-07T14:44:44-07:00,4.1035420894623,1,versionA_stim.csv,VC_VersionA.csv,"Version A","Version A",MATH,DIVISION,Study1,B,33,42,Test,User,-,,Recall,Recall1,3783,,0,-1,-1,0,0,,,1
w10008086,1pluic4f7q,Nick_Dissertation_EX1b,1,139,2020-05-07T14:44:47-07:00,2.7456858158112,1,versionA_stim.csv,VC_VersionA.csv,"Version A","Version A",HORNET,STING,Study1,F,11,55,Test,User,-,,Recall,Recall1,2370,sting,100,1242,2140,1,1,,,1
w10008086,1pluic4f7q,Nick_Dissertation_EX1b,1,140,2020-05-07T14:44:51-07:00,4.6821491718292,1,versionA_stim.csv,VC_VersionA.csv,"Version A","Version A",WAY,OUT,Study1,F,16,83,Test,User,-,,Recall,Recall1,4276,drive,0,3243,4029,0,0,,,1
w10008086,1pluic4f7q,Nick_Dissertation_EX1b,1,141,2020-05-07T14:44:54-07:00,2.516373872757,1,versionA_stim.csv,VC_VersionA.csv,"Version A","Version A",TUNA,FISH,Study1,F,25,58,Test,User,-,,Recall,Recall1,2153,fish,100,1249,1806,1,1,,,1
w10008086,1pluic4f7q,Nick_Dissertation_EX1b,1,142,2020-05-07T14:44:56-07:00,2.5755531787872,1,versionA_stim.csv,VC_VersionA.csv,"Version A","Version A",GEOLOGY,ROCK,Study1,F,19,54,Test,User,-,,Recall,Recall1,2195,rock,100,1265,1860,1,1,,,1
w10008086,1pluic4f7q,Nick_Dissertation_EX1b,1,143,2020-05-07T14:45:00-07:00,3.892324924469,1,versionA_stim.csv,VC_VersionA.csv,"Version A","Version A",DEBATE,SIGHT,Study1,U,73,16,Test,User,-,,Recall,Recall1,3505,discussion,26.666666666667,1534,3246,0,0,,,1
w10008086,1pluic4f7q,Nick_Dissertation_EX1b,1,144,2020-05-07T14:45:04-07:00,3.5134670734406,1,versionA_stim.csv,VC_VersionA.csv,"Version A","Version A",REVOLUTION,WAR,Study1,F,20,31,Test,User,-,,Recall,Recall1,3166,,0,-1,-1,0,0,,,1
w10008086,1pluic4f7q,Nick_Dissertation_EX1b,1,145,2020-05-07T14:45:06-07:00,2.5840129852295,1,versionA_stim.csv,VC_VersionA.csv,"Version A","Version A",SWAN,BIRD,Study1,F,14,74,Test,User,-,,Recall,Recall1,2194,dive,25,1261,2044,0,0,,,1
w10008086,1pluic4f7q,Nick_Dissertation_EX1b,1,146,2020-05-07T14:45:10-07:00,3.6246438026428,1,versionA_stim.csv,VC_VersionA.csv,"Version A","Version A",DIETARY,SACKING,Study1,U,67,19,Test,User,-,,Recall,Recall1,3199,pill,18.181818181818,2106,2777,0,0,,,1
w10008086,1pluic4f7q,Nick_Dissertation_EX1b,1,147,2020-05-07T14:45:13-07:00,2.693510055542,1,versionA_stim.csv,VC_VersionA.csv,"Version A","Version A",HERD,COW,Study1,F,22,8,Test,User,-,,Recall,Recall1,2398,,0,-1,-1,0,0,,,1
w10008086,1pluic4f7q,Nick_Dissertation_EX1b,1,148,2020-05-07T14:45:17-07:00,4.3428959846497,1,versionA_stim.csv,VC_VersionA.csv,"Version A","Version A",SENTENCE,WORD,Study1,B,31,61,Test,User,-,,Recall,Recall1,3968,period,40,2480,3468,0,0,,,1
w10008086,1pluic4f7q,Nick_Dissertation_EX1b,1,149,2020-05-07T14:45:19-07:00,1.9431290626526,1,versionA_stim.csv,VC_VersionA.csv,"Version A","Version A",GRILL,BAR,Study1,S,52,26,Test,User,-,,Recall,Recall1,1616,,0,-1,-1,0,0,,,1
w10008086,1pluic4f7q,Nick_Dissertation_EX1b,1,150,2020-05-07T14:45:22-07:00,2.5730710029602,1,versionA_stim.csv,VC_VersionA.csv,"Version A","Version A",ARCHITECTURE,DESIGN,Study1,S,51,73,Test,User,-,,Recall,Recall1,2279,rocks,18.181818181818,1230,2094,0,0,,,1
w10008086,1pluic4f7q,Nick_Dissertation_EX1b,1,151,2020-05-07T14:45:27-07:00,5.1148200035095,1,versionA_stim.csv,VC_VersionA.csv,"Version A","Version A",LIFT,WOMAN,Study1,U,69,50,Test,User,-,,Recall,Recall1,4689,,0,-1,-1,0,0,,,1
w10008086,1pluic4f7q,Nick_Dissertation_EX1b,1,152,2020-05-07T14:45:30-07:00,3.3336360454559,1,versionA_stim.csv,VC_VersionA.csv,"Version A","Version A",HAPPY,CAR,Study1,U,77,67,Test,User,-,,Recall,Recall1,3020,day,33.333333333333,1177,2810,0,0,,,1
w10008086,1pluic4f7q,Nick_Dissertation_EX1b,1,153,2020-05-07T14:45:33-07:00,2.5823550224304,1,versionA_stim.csv,VC_VersionA.csv,"Version A","Version A",BUG,WASP,Study1,B,32,40,Test,User,-,,Recall,Recall1,2266,life,0,1414,2125,0,0,,,1
w10008086,1pluic4f7q,Nick_Dissertation_EX1b,1,154,2020-05-07T14:45:36-07:00,3.8216938972473,1,versionA_stim.csv,VC_VersionA.csv,"Version A","Version A",MEANING,DEFINITION,Study1,S,62,68,Test,User,-,,Recall,Recall1,3445,sentence,44.444444444444,1794,3275,0,0,,,1
w10008086,1pluic4f7q,Nick_Dissertation_EX1b,1,155,2020-05-07T14:45:40-07:00,3.3789339065552,1,versionA_stim.csv,VC_VersionA.csv,"Version A","Version A",DARK,CAVE,Study1,B,28,51,Test,User,-,,Recall,Recall1,3010,light,0,2041,2807,0,0,,,1
w10008086,1pluic4f7q,Nick_Dissertation_EX1b,1,156,2020-05-07T14:45:41-07:00,1.2563831806183,1,versionA_stim.csv,VC_VersionA.csv,"Version A","Version A",BRIDGE,WATER,Study1,F,18,62,Test,User,-,,Recall,Recall1,962,,0,-1,-1,0,0,,,1
w10008086,1pluic4f7q,Nick_Dissertation_EX1b,1,157,2020-05-07T14:45:44-07:00,3.0422070026398,1,versionA_stim.csv,VC_VersionA.csv,"Version A","Version A",GREAT,FANTASTIC,Study1,B,35,70,Test,User,-,,Recall,Recall1,2749,good,0,1972,2535,0,0,,,1
w10008086,1pluic4f7q,Nick_Dissertation_EX1b,1,158,2020-05-07T14:45:46-07:00,1.3857109546661,1,versionA_stim.csv,VC_VersionA.csv,"Version A","Version A",NUMBER,AMOUNT,Study1,S,47,33,Test,User,-,,Recall,Recall1,1080,,0,-1,-1,0,0,,,1
w10008086,1pluic4f7q,Nick_Dissertation_EX1b,1,159,2020-05-07T14:45:47-07:00,1.4726340770721,1,versionA_stim.csv,VC_VersionA.csv,"Version A","Version A",LETTUCE,SALAD,Study1,S,59,64,Test,User,-,,Recall,Recall1,1152,,0,-1,-1,0,0,,,1
w10008086,1pluic4f7q,Nick_Dissertation_EX1b,1,160,2020-05-07T14:45:48-07:00,1.2085049152374,1,versionA_stim.csv,VC_VersionA.csv,"Version A","Version A",WORK,CHORE,Study1,B,39,78,Test,User,-,,Recall,Recall1,931,,0,-1,-1,0,0,,,1
w10008086,1pluic4f7q,Nick_Dissertation_EX1b,1,161,2020-05-07T14:45:58-07:00,10.152380943298,1,versionA_stim.csv,VC_VersionA.csv,"Version A","Version A",BITTER,COLD,Study1,F,12,23,Test,User,-,,Recall,Recall1,9816,,0,-1,-1,0,0,,,1
w10008086,1pluic4f7q,Nick_Dissertation_EX1b,1,162,2020-05-07T14:46:04-07:00,5.1911640167236,1,versionA_stim.csv,VC_VersionA.csv,"Version A","Version A",DUMP,WASTE,Study1,S,49,28,Test,User,-,,Recall,Recall1,4867,truck,20,3497,4502,0,0,,,1
w10008086,1pluic4f7q,Nick_Dissertation_EX1b,1,163,2020-05-07T14:46:39-07:00,35.572319030762,1,versionA_stim.csv,VC_VersionA.csv,"Version A","Version A",VALLEY,ADD,Study1,U,82,14,Test,User,-,,Recall,Recall1,35208,hills,0,34319,34999,0,0,,,1
w10008086,1pluic4f7q,Nick_Dissertation_EX1b,1,164,2020-05-07T14:46:41-07:00,1.5383820533752,1,versionA_stim.csv,VC_VersionA.csv,"Version A","Version A",LOCATION,SITE,Study1,S,48,34,Test,User,-,,Recall,Recall1,1206,,0,-1,-1,0,0,,,1
w10008086,1pluic4f7q,Nick_Dissertation_EX1b,1,165,2020-05-07T14:46:42-07:00,1.0118708610535,1,versionA_stim.csv,VC_VersionA.csv,"Version A","Version A",BEGIN,END,Study1,S,54,81,Test,User,-,,Recall,Recall1,709,,0,-1,-1,0,0,,,1
w10008086,1pluic4f7q,Nick_Dissertation_EX1b,1,166,2020-05-07T14:46:44-07:00,2.2422831058502,1,versionA_stim.csv,VC_VersionA.csv,"Version A","Version A",PLANE,PILOT,Study1,B,44,65,Test,User,-,,Recall,Recall1,1953,fly,25,1290,1771,0,0,,,1
w10008086,1pluic4f7q,Nick_Dissertation_EX1b,1,167,2020-05-07T14:46:47-07:00,2.6877830028534,1,versionA_stim.csv,VC_VersionA.csv,"Version A","Version A",SHOE,FOOT,Study1,S,60,60,Test,User,-,,Recall,Recall1,2361,lace,0,1231,2119,0,0,,,1
w10008086,1pluic4f7q,Nick_Dissertation_EX1b,1,168,2020-05-07T14:46:48-07:00,1.4268529415131,1,versionA_stim.csv,VC_VersionA.csv,"Version A","Version A",DISCOVER,FLOOR,Study1,U,71,43,Test,User,-,,Recall,Recall1,1100,,0,-1,-1,0,0,,,1
w10008086,1pluic4f7q,Nick_Dissertation_EX1b,1,169,2020-05-07T14:46:49-07:00,1.1900990009308,1,versionA_stim.csv,VC_VersionA.csv,"Version A","Version A",KIDNEY,LIVER,Study1,S,53,85,Test,User,-,,Recall,Recall1,872,,0,-1,-1,0,0,,,1
w10008086,1pluic4f7q,Nick_Dissertation_EX1b,1,170,2020-05-07T14:46:56-07:00,6.7200701236725,1,versionA_stim.csv,VC_VersionA.csv,"Version A","Version A",FIRE,BLAZE,Study1,B,45,30,Test,User,-,,Recall,Recall1,6373,,0,4570,4570,0,0,,,1
w10008086,1pluic4f7q,Nick_Dissertation_EX1b,1,171,2020-05-07T14:47:08-07:00,11.902333021164,1,versionA_stim.csv,VC_VersionA.csv,"Version A","Version A",POP,SODA,Study1,S,56,29,Test,User,-,,Recall,Recall1,11535,soda,100,10740,11378,1,1,,,1
w10008086,1pluic4f7q,Nick_Dissertation_EX1b,1,172,2020-05-07T14:47:09-07:00,1.3376557826996,1,versionA_stim.csv,VC_VersionA.csv,"Version A","Version A",BABY,CHILD,Study1,S,64,86,Test,User,-,,Recall,Recall1,958,,0,-1,-1,0,0,,,1
w10008086,1pluic4f7q,Nick_Dissertation_EX1b,1,173,2020-05-07T14:47:13-07:00,3.3340241909027,1,versionA_stim.csv,VC_VersionA.csv,"Version A","Version A",CREDIT,CARD,Study1,F,23,11,Test,User,-,,Recall,Recall1,3041,card,100,2019,2915,1,1,,,1
w10008086,1pluic4f7q,Nick_Dissertation_EX1b,1,174,2020-05-07T14:47:14-07:00,1.887521982193,1,versionA_stim.csv,VC_VersionA.csv,"Version A","Version A",ALLOW,TUCK,Study1,U,78,80,Test,User,-,,Recall,Recall1,1571,,0,-1,-1,0,0,,,1
w10008086,1pluic4f7q,Nick_Dissertation_EX1b,1,175,2020-05-07T14:47:19-07:00,4.2007899284363,1,versionA_stim.csv,VC_VersionA.csv,"Version A","Version A",CHISEL,HAMMER,Study1,F,9,45,Test,User,-,,Recall,Recall1,3925,,0,-1,-1,0,0,,,1
w10008086,1pluic4f7q,Nick_Dissertation_EX1b,1,176,2020-05-07T14:47:20-07:00,1.5799860954285,1,versionA_stim.csv,VC_VersionA.csv,"Version A","Version A",ART,LION,Study1,U,79,37,Test,User,-,,Recall,Recall1,1250,,0,-1,-1,0,0,,,1
w10008086,1pluic4f7q,Nick_Dissertation_EX1b,1,177,2020-05-07T14:47:22-07:00,2.1347270011902,1,versionA_stim.csv,VC_VersionA.csv,"Version A","Version A",TRIAL,JURY,Study1,S,50,76,Test,User,-,,Recall,Recall1,1801,law,0,1247,1612,0,0,,,1
w10008086,1pluic4f7q,Nick_Dissertation_EX1b,1,178,2020-05-07T14:47:33-07:00,11.057662010193,1,versionA_stim.csv,VC_VersionA.csv,"Version A","Version A",,,,,,0,Instruct,-,10,"You will now be presented with a new set of word pairs. Please study each pair. Remember that your memory will be tested! When finished, press Enter to move to the next pair.",Initial_Instruct,Instruct4,10701,,,-1,-1,,,,,1
w10008086,1pluic4f7q,Nick_Dissertation_EX1b,1,179,2020-05-07T14:47:48-07:00,14.267479896545,1,versionA_stim.csv,VC_VersionA.csv,"Version A","Version A",,,,,,0,Instruct,,10,"You will again be asked to count how many vowels the two words contain. Please remember to type this number in the space below each pair.",,Instruct10,13871,,,-1,-1,,,,,1
w10008086,1pluic4f7q,Nick_Dissertation_EX1b,1,180,2020-05-07T14:47:50-07:00,2.5111289024353,1,versionA_stim.csv,VC_VersionA.csv,"Version A","Version A",,,,,,0,Instruct,User,-,"Press Enter when you are readty to begin",,Instruct11,2146,,,-1,-1,,,,,1
w10008086,1pluic4f7q,Nick_Dissertation_EX1b,1,181,2020-05-07T14:47:57-07:00,7.0960841178894,1,versionA_stim.csv,VC_VersionA.csv,"Version A","Version A",CAMP,ADVENTURE,BUFFER3,Buffer,95,93,VC,User,-,"How many vowels are the two words combined?|Type your response below and then press Enter.",Study/JOL,BUFFER3,6695,,,6553,6553,,,,4,1
w10008086,1pluic4f7q,Nick_Dissertation_EX1b,1,182,2020-05-07T14:48:15-07:00,17.942326068878,1,versionA_stim.csv,VC_VersionA.csv,"Version A","Version A",CARROT,POTATO,BUFFER3,Buffer,91,94,VC,User,-,"How many vowels are the two words combined?|Type your response below and then press Enter.",Study/JOL,BUFFER3,17519,,,17356,17357,,,,4,1
w10008086,1pluic4f7q,Nick_Dissertation_EX1b,1,183,2020-05-07T14:48:18-07:00,2.5434558391571,1,versionA_stim.csv,VC_VersionA.csv,"Version A","Version A",NOODLE,STRING,BUFFER3,Buffer,92,92,VC,User,-,"How many vowels are the two words combined?|Type your response below and then press Enter.",Study/JOL,BUFFER3,2232,,,-1,-1,,,,,1
w10008086,1pluic4f7q,Nick_Dissertation_EX1b,1,184,2020-05-07T14:48:19-07:00,0.80520105361938,1,versionA_stim.csv,VC_VersionA.csv,"Version A","Version A",ICE,FROZEN,BUFFER3,Buffer,94,95,VC,User,-,"How many vowels are the two words combined?|Type your response below and then press Enter.",Study/JOL,BUFFER3,494,,,-1,-1,,,,,1
w10008086,1pluic4f7q,Nick_Dissertation_EX1b,1,185,2020-05-07T14:48:19-07:00,0.72793006896973,1,versionA_stim.csv,VC_VersionA.csv,"Version A","Version A",SHRIMP,FISH,BUFFER3,Buffer,93,96,VC,User,-,"How many vowels are the two words combined?|Type your response below and then press Enter.",Study/JOL,BUFFER3,448,,,-1,-1,,,,,1
w10008086,1pluic4f7q,Nick_Dissertation_EX1b,1,186,2020-05-07T14:48:21-07:00,1.4977738857269,1,versionA_stim.csv,VC_VersionA.csv,"Version A","Version A",SAFETY,SEATBELT,Study2,S,147,103,VC,User,-,"How many vowels are the two words combined?|Type your response below and then press Enter.",Study/JOL,"Study Phase2",1214,,,1093,1093,,,,4,1
w10008086,1pluic4f7q,Nick_Dissertation_EX1b,1,187,2020-05-07T14:48:22-07:00,1.6246471405029,1,versionA_stim.csv,VC_VersionA.csv,"Version A","Version A",TRUTH,LIE,Study2,S,148,107,VC,User,-,"How many vowels are the two words combined?|Type your response below and then press Enter.",Study/JOL,"Study Phase2",1333,,,1121,1121,,,,3,1
w10008086,1pluic4f7q,Nick_Dissertation_EX1b,1,188,2020-05-07T14:48:29-07:00,6.4622888565063,1,versionA_stim.csv,VC_VersionA.csv,"Version A","Version A",SHEARS,SCISSORS,Study2,F,112,161,VC,User,-,"How many vowels are the two words combined?|Type your response below and then press Enter.",Study/JOL,"Study Phase2",6128,,,5948,5948,,,,4,1
w10008086,1pluic4f7q,Nick_Dissertation_EX1b,1,189,2020-05-07T14:48:32-07:00,3.1410551071167,1,versionA_stim.csv,VC_VersionA.csv,"Version A","Version A",ADJOURN,END,Study2,F,101,133,VC,User,-,"How many vowels are the two words combined?|Type your response below and then press Enter.",Study/JOL,"Study Phase2",2846,,,2734,2735,,,,3,1
w10008086,1pluic4f7q,Nick_Dissertation_EX1b,1,190,2020-05-07T14:48:34-07:00,2.1063768863678,1,versionA_stim.csv,VC_VersionA.csv,"Version A","Version A",MAIN,SCAR,Study2,U,175,142,VC,User,-,"How many vowels are the two words combined?|Type your response below and then press Enter.",Study/JOL,"Study Phase2",1793,,,1649,1649,,,,2,1
w10008086,1pluic4f7q,Nick_Dissertation_EX1b,1,191,2020-05-07T14:48:37-07:00,2.8227140903473,1,versionA_stim.csv,VC_VersionA.csv,"Version A","Version A",LISTEN,FICTION,Study2,U,164,119,VC,User,-,"How many vowels are the two words combined?|Type your response below and then press Enter.",Study/JOL,"Study Phase2",2536,,,2436,2436,,,,5,1
w10008086,1pluic4f7q,Nick_Dissertation_EX1b,1,192,2020-05-07T14:48:39-07:00,2.1546559333801,1,versionA_stim.csv,VC_VersionA.csv,"Version A","Version A",PHONE,COMMUNICATION,Study2,S,149,98,VC,User,-,"How many vowels are the two words combined?|Type your response below and then press Enter.",Study/JOL,"Study Phase2",1837,,,1704,1704,,,,5,1
w10008086,1pluic4f7q,Nick_Dissertation_EX1b,1,193,2020-05-07T14:48:49-07:00,9.558030128479,1,versionA_stim.csv,VC_VersionA.csv,"Version A","Version A",MASON,JAR,Study2,S,138,140,VC,User,-,"How many vowels are the two words combined?|Type your response below and then press Enter.",Study/JOL,"Study Phase2",9212,,,9042,9042,,,,4,1
w10008086,1pluic4f7q,Nick_Dissertation_EX1b,1,194,2020-05-07T14:48:51-07:00,2.0252017974854,1,versionA_stim.csv,VC_VersionA.csv,"Version A","Version A",MULE,DONKEY,Study2,F,108,163,VC,User,-,"How many vowels are the two words combined?|Type your response below and then press Enter.",Study/JOL,"Study Phase2",1689,,,1565,1565,,,,3,1
w10008086,1pluic4f7q,Nick_Dissertation_EX1b,1,195,2020-05-07T14:48:53-07:00,2.2915530204773,1,versionA_stim.csv,VC_VersionA.csv,"Version A","Version A",NAME,HATE,Study2,U,167,164,VC,User,-,"How many vowels are the two words combined?|Type your response below and then press Enter.",Study/JOL,"Study Phase2",1885,,,1795,1795,,,,4,1
w10008086,1pluic4f7q,Nick_Dissertation_EX1b,1,196,2020-05-07T14:48:55-07:00,2.1099030971527,1,versionA_stim.csv,VC_VersionA.csv,"Version A","Version A",CAR,WINDSHIELD,Study2,B,117,148,VC,User,-,"How many vowels are the two words combined?|Type your response below and then press Enter.",Study/JOL,"Study Phase2",1739,,,1618,1618,,,,5,1
w10008086,1pluic4f7q,Nick_Dissertation_EX1b,1,197,2020-05-07T14:49:01-07:00,5.7951090335846,1,versionA_stim.csv,VC_VersionA.csv,"Version A","Version A",POP,BALLOON,Study2,B,123,100,VC,User,-,"How many vowels are the two words combined?|Type your response below and then press Enter.",Study/JOL,"Study Phase2",5437,,,5321,5321,,,,4,1
w10008086,1pluic4f7q,Nick_Dissertation_EX1b,1,198,2020-05-07T14:49:16-07:00,15.632340908051,1,versionA_stim.csv,VC_VersionA.csv,"Version A","Version A",CANDLE,WAX,Study2,S,139,172,VC,User,-,"How many vowels are the two words combined?|Type your response below and then press Enter.",Study/JOL,"Study Phase2",15258,,,15033,15033,,,,4,0.958
w10008086,1pluic4f7q,Nick_Dissertation_EX1b,1,199,2020-05-07T14:49:22-07:00,5.1667370796204,1,versionA_stim.csv,VC_VersionA.csv,"Version A","Version A",FURRY,DOG,Study2,F,102,165,VC,User,-,"How many vowels are the two words combined?|Type your response below and then press Enter.",Study/JOL,"Study Phase2",4777,,,4682,4682,,,,2,1
w10008086,1pluic4f7q,Nick_Dissertation_EX1b,1,200,2020-05-07T14:49:25-07:00,3.1993570327759,1,versionA_stim.csv,VC_VersionA.csv,"Version A","Version A",BASEBALL,LEAGUE,Study2,B,131,109,VC,User,-,"How many vowels are the two words combined?|Type your response below and then press Enter.",Study/JOL,"Study Phase2",2733,,,2628,2628,,,,4,1
w10008086,1pluic4f7q,Nick_Dissertation_EX1b,1,201,2020-05-07T14:49:31-07:00,6.0172939300537,1,versionA_stim.csv,VC_VersionA.csv,"Version A","Version A",RIGHTS,EQUAL,Study2,S,137,123,VC,User,-,"How many vowels are the two words combined?|Type your response below and then press Enter.",Study/JOL,"Study Phase2",5583,,,5479,5480,,,,5,1
w10008086,1pluic4f7q,Nick_Dissertation_EX1b,1,202,2020-05-07T14:49:34-07:00,2.8454439640045,1,versionA_stim.csv,VC_VersionA.csv,"Version A","Version A",WRIST,BRACELET,Study2,S,140,99,VC,User,-,"How many vowels are the two words combined?|Type your response below and then press Enter.",Study/JOL,"Study Phase2",2495,,,2395,2395,,,,5,1
w10008086,1pluic4f7q,Nick_Dissertation_EX1b,1,203,2020-05-07T14:49:35-07:00,1.0935549736023,1,versionA_stim.csv,VC_VersionA.csv,"Version A","Version A",THREAD,THIMBLE,Study2,B,121,174,VC,User,-,"How many vowels are the two words combined?|Type your response below and then press Enter.",Study/JOL,"Study Phase2",785,,,633,633,,,,4,1
w10008086,1pluic4f7q,Nick_Dissertation_EX1b,1,204,2020-05-07T14:49:37-07:00,2.3030431270599,1,versionA_stim.csv,VC_VersionA.csv,"Version A","Version A",ROD,REEL,Study2,S,150,122,VC,User,-,"How many vowels are the two words combined?|Type your response below and then press Enter.",Study/JOL,"Study Phase2",1994,,,1894,1894,,,,4,1
w10008086,1pluic4f7q,Nick_Dissertation_EX1b,1,205,2020-05-07T14:49:39-07:00,2.1699149608612,1,versionA_stim.csv,VC_VersionA.csv,"Version A","Version A",DETECTIVE,MYSTERY,Study2,F,100,104,VC,User,-,"How many vowels are the two words combined?|Type your response below and then press Enter.",Study/JOL,"Study Phase2",1845,,,1713,1713,,,,4,1
w10008086,1pluic4f7q,Nick_Dissertation_EX1b,1,206,2020-05-07T14:49:41-07:00,1.5960218906403,1,versionA_stim.csv,VC_VersionA.csv,"Version A","Version A",CAKE,CLOTHES,Study2,U,166,169,VC,User,-,"How many vowels are the two words combined?|Type your response below and then press Enter.",Study/JOL,"Study Phase2",1302,,,832,832,,,,5,1
w10008086,1pluic4f7q,Nick_Dissertation_EX1b,1,207,2020-05-07T14:49:43-07:00,1.9386839866638,1,versionA_stim.csv,VC_VersionA.csv,"Version A","Version A",DRIVER,CAR,Study2,F,106,149,VC,User,-,"How many vowels are the two words combined?|Type your response below and then press Enter.",Study/JOL,"Study Phase2",1598,,,1465,1465,,,,4,1
w10008086,1pluic4f7q,Nick_Dissertation_EX1b,1,208,2020-05-07T14:49:45-07:00,1.716007232666,1,versionA_stim.csv,VC_VersionA.csv,"Version A","Version A",MIRROR,CHILDREN,Study2,U,174,141,VC,User,-,"How many vowels are the two words combined?|Type your response below and then press Enter.",Study/JOL,"Study Phase2",1414,,,1210,1210,,,,4,1
w10008086,1pluic4f7q,Nick_Dissertation_EX1b,1,209,2020-05-07T14:49:48-07:00,3.2244927883148,1,versionA_stim.csv,VC_VersionA.csv,"Version A","Version A",GLASS,BREAKABLE,Study2,B,127,127,VC,User,-,"How many vowels are the two words combined?|Type your response below and then press Enter.",Study/JOL,"Study Phase2",2939,,,2814,2815,,,,5,1
w10008086,1pluic4f7q,Nick_Dissertation_EX1b,1,210,2020-05-07T14:49:50-07:00,2.1744441986084,1,versionA_stim.csv,VC_VersionA.csv,"Version A","Version A",MEAT,OBTAIN,Study2,U,161,147,VC,User,-,"How many vowels are the two words combined?|Type your response below and then press Enter.",Study/JOL,"Study Phase2",1800,,,1680,1680,,,,4,1
w10008086,1pluic4f7q,Nick_Dissertation_EX1b,1,211,2020-05-07T14:49:53-07:00,3.4334988594055,1,versionA_stim.csv,VC_VersionA.csv,"Version A","Version A",CACTUS,PLANT,Study2,F,98,111,VC,User,-,"How many vowels are the two words combined?|Type your response below and then press Enter.",Study/JOL,"Study Phase2",3027,,,2905,2906,,,,3,1
w10008086,1pluic4f7q,Nick_Dissertation_EX1b,1,212,2020-05-07T14:49:57-07:00,3.2846689224243,1,versionA_stim.csv,VC_VersionA.csv,"Version A","Version A",LOAN,SIGN,Study2,U,171,124,VC,User,-,"How many vowels are the two words combined?|Type your response below and then press Enter.",Study/JOL,"Study Phase2",2876,,,2775,2775,,,,3,1
w10008086,1pluic4f7q,Nick_Dissertation_EX1b,1,213,2020-05-07T14:49:59-07:00,2.2310690879822,1,versionA_stim.csv,VC_VersionA.csv,"Version A","Version A",CHERRY,RED,Study2,F,104,176,VC,User,-,"How many vowels are the two words combined?|Type your response below and then press Enter.",Study/JOL,"Study Phase2",1791,,,1678,1678,,,,2,1
w10008086,1pluic4f7q,Nick_Dissertation_EX1b,1,214,2020-05-07T14:50:02-07:00,3.0499119758606,1,versionA_stim.csv,VC_VersionA.csv,"Version A","Version A",SLEEP,NAP,Study2,B,134,150,VC,User,-,"How many vowels are the two words combined?|Type your response below and then press Enter.",Study/JOL,"Study Phase2",2696,,,2478,2478,,,,3,1
w10008086,1pluic4f7q,Nick_Dissertation_EX1b,1,215,2020-05-07T14:50:11-07:00,8.6960301399231,1,versionA_stim.csv,VC_VersionA.csv,"Version A","Version A",EARTH,GROUND,Study2,S,144,118,VC,User,-,"How many vowels are the two words combined?|Type your response below and then press Enter.",Study/JOL,"Study Phase2",3701,,,2999,2999,,,,4,1
w10008086,1pluic4f7q,Nick_Dissertation_EX1b,1,216,2020-05-07T14:50:13-07:00,2.177619934082,1,versionA_stim.csv,VC_VersionA.csv,"Version A","Version A",LOUD,NOISE,Study2,S,152,101,VC,User,-,"How many vowels are the two words combined?|Type your response below and then press Enter.",Study/JOL,"Study Phase2",1803,,,1693,1693,,,,5,1
w10008086,1pluic4f7q,Nick_Dissertation_EX1b,1,217,2020-05-07T14:50:16-07:00,3.3992290496826,1,versionA_stim.csv,VC_VersionA.csv,"Version A","Version A",FEUD,FIGHT,Study2,F,113,167,VC,User,-,"How many vowels are the two words combined?|Type your response below and then press Enter.",Study/JOL,"Study Phase2",3099,,,3007,3007,,,,5,1
w10008086,1pluic4f7q,Nick_Dissertation_EX1b,1,218,2020-05-07T14:50:19-07:00,3.127434015274,1,versionA_stim.csv,VC_VersionA.csv,"Version A","Version A",TANTRUM,TEMPER,Study2,S,154,151,VC,User,-,"How many vowels are the two words combined?|Type your response below and then press Enter.",Study/JOL,"Study Phase2",2685,,,2585,2585,,,,4,1
w10008086,1pluic4f7q,Nick_Dissertation_EX1b,1,219,2020-05-07T14:50:22-07:00,2.8064908981323,1,versionA_stim.csv,VC_VersionA.csv,"Version A","Version A",BOTH,OUNCE,Study2,U,172,157,VC,User,-,"How many vowels are the two words combined?|Type your response below and then press Enter.",Study/JOL,"Study Phase2",2479,,,2364,2364,,,,3,1
w10008086,1pluic4f7q,Nick_Dissertation_EX1b,1,220,2020-05-07T14:50:24-07:00,1.5541210174561,1,versionA_stim.csv,VC_VersionA.csv,"Version A","Version A",DOCUMENT,PAPER,Study2,F,109,137,VC,User,-,"How many vowels are the two words combined?|Type your response below and then press Enter.",Study/JOL,"Study Phase2",1231,,,-1,-1,,,,,1
w10008086,1pluic4f7q,Nick_Dissertation_EX1b,1,221,2020-05-07T14:50:24-07:00,0.55589890480042,1,versionA_stim.csv,VC_VersionA.csv,"Version A","Version A",BIRD,PENGUIN,Study2,B,119,97,VC,User,-,"How many vowels are the two words combined?|Type your response below and then press Enter.",Study/JOL,"Study Phase2",250,,,-1,-1,,,,,1
w10008086,1pluic4f7q,Nick_Dissertation_EX1b,1,222,2020-05-07T14:50:25-07:00,0.36448097229004,1,versionA_stim.csv,VC_VersionA.csv,"Version A","Version A",FIGHT,BRAWL,Study2,B,135,160,VC,User,-,"How many vowels are the two words combined?|Type your response below and then press Enter.",Study/JOL,"Study Phase2",92,,,-1,-1,,,,,1
w10008086,1pluic4f7q,Nick_Dissertation_EX1b,1,223,2020-05-07T14:50:25-07:00,0.32429313659668,1,versionA_stim.csv,VC_VersionA.csv,"Version A","Version A",PLANE,AIRCRAFT,Study2,B,129,153,VC,User,-,"How many vowels are the two words combined?|Type your response below and then press Enter.",Study/JOL,"Study Phase2",58,,,-1,-1,,,,,1
w10008086,1pluic4f7q,Nick_Dissertation_EX1b,1,224,2020-05-07T14:50:25-07:00,0.32776403427124,1,versionA_stim.csv,VC_VersionA.csv,"Version A","Version A",GONE,AWAY,Study2,S,142,136,VC,User,-,"How many vowels are the two words combined?|Type your response below and then press Enter.",Study/JOL,"Study Phase2",66,,,-1,-1,,,,,1
w10008086,1pluic4f7q,Nick_Dissertation_EX1b,1,225,2020-05-07T14:50:26-07:00,0.43795490264893,1,versionA_stim.csv,VC_VersionA.csv,"Version A","Version A",WATER,DRINK,Study2,S,143,108,VC,User,-,"How many vowels are the two words combined?|Type your response below and then press Enter.",Study/JOL,"Study Phase2",134,,,-1,-1,,,,,1
w10008086,1pluic4f7q,Nick_Dissertation_EX1b,1,226,2020-05-07T14:50:26-07:00,0.28105306625366,1,versionA_stim.csv,VC_VersionA.csv,"Version A","Version A",MONEY,BANKER,Study2,B,132,156,VC,User,-,"How many vowels are the two words combined?|Type your response below and then press Enter.",Study/JOL,"Study Phase2",9,,,-1,-1,,,,,1
w10008086,1pluic4f7q,Nick_Dissertation_EX1b,1,227,2020-05-07T14:50:26-07:00,0.30973386764526,1,versionA_stim.csv,VC_VersionA.csv,"Version A","Version A",BEST,FAVORITE,Study2,B,125,132,VC,User,-,"How many vowels are the two words combined?|Type your response below and then press Enter.",Study/JOL,"Study Phase2",6,,,-1,-1,,,,,1
w10008086,1pluic4f7q,Nick_Dissertation_EX1b,1,228,2020-05-07T14:50:27-07:00,0.86249899864197,1,versionA_stim.csv,VC_VersionA.csv,"Version A","Version A",SCALP,HEAD,Study2,F,105,117,VC,User,-,"How many vowels are the two words combined?|Type your response below and then press Enter.",Study/JOL,"Study Phase2",552,,,-1,-1,,,,,1
w10008086,1pluic4f7q,Nick_Dissertation_EX1b,1,229,2020-05-07T14:50:27-07:00,0.31128811836243,1,versionA_stim.csv,VC_VersionA.csv,"Version A","Version A",SHOELACE,TIE,Study2,F,99,105,VC,User,-,"How many vowels are the two words combined?|Type your response below and then press Enter.",Study/JOL,"Study Phase2",32,,,-1,-1,,,,,1
w10008086,1pluic4f7q,Nick_Dissertation_EX1b,1,230,2020-05-07T14:50:28-07:00,0.92622709274292,1,versionA_stim.csv,VC_VersionA.csv,"Version A","Version A",HONEST,TRUTHFUL,Study2,B,133,175,VC,User,-,"How many vowels are the two words combined?|Type your response below and then press Enter.",Study/JOL,"Study Phase2",660,,,-1,-1,,,,,1
w10008086,1pluic4f7q,Nick_Dissertation_EX1b,1,231,2020-05-07T14:50:29-07:00,0.30011796951294,1,versionA_stim.csv,VC_VersionA.csv,"Version A","Version A",DRY,WET,Study2,S,146,173,VC,User,-,"How many vowels are the two words combined?|Type your response below and then press Enter.",Study/JOL,"Study Phase2",23,,,-1,-1,,,,,1
w10008086,1pluic4f7q,Nick_Dissertation_EX1b,1,232,2020-05-07T14:50:29-07:00,0.2642970085144,1,versionA_stim.csv,VC_VersionA.csv,"Version A","Version A",ALONE,LONELY,Study2,S,145,106,VC,User,-,"How many vowels are the two words combined?|Type your response below and then press Enter.",Study/JOL,"Study Phase2",11,,,-1,-1,,,,,1
w10008086,1pluic4f7q,Nick_Dissertation_EX1b,1,233,2020-05-07T14:50:29-07:00,0.33751201629639,1,versionA_stim.csv,VC_VersionA.csv,"Version A","Version A",VEHICLE,CHARM,Study2,U,160,134,VC,User,-,"How many vowels are the two words combined?|Type your response below and then press Enter.",Study/JOL,"Study Phase2",73,,,-1,-1,,,,,1
w10008086,1pluic4f7q,Nick_Dissertation_EX1b,1,234,2020-05-07T14:50:30-07:00,0.52267789840698,1,versionA_stim.csv,VC_VersionA.csv,"Version A","Version A",FLEA,TICK,Study2,S,151,113,VC,User,-,"How many vowels are the two words combined?|Type your response below and then press Enter.",Study/JOL,"Study Phase2",235,,,-1,-1,,,,,1
w10008086,1pluic4f7q,Nick_Dissertation_EX1b,1,235,2020-05-07T14:50:30-07:00,0.33337593078613,1,versionA_stim.csv,VC_VersionA.csv,"Version A","Version A",FUZZY,BANG,Study2,U,168,114,VC,User,-,"How many vowels are the two words combined?|Type your response below and then press Enter.",Study/JOL,"Study Phase2",71,,,-1,-1,,,,,1
w10008086,1pluic4f7q,Nick_Dissertation_EX1b,1,236,2020-05-07T14:50:31-07:00,1.2026550769806,1,versionA_stim.csv,VC_VersionA.csv,"Version A","Version A",FRUIT,STRAWBERRY,Study2,B,124,125,VC,User,-,"How many vowels are the two words combined?|Type your response below and then press Enter.",Study/JOL,"Study Phase2",892,,,-1,-1,,,,,1
w10008086,1pluic4f7q,Nick_Dissertation_EX1b,1,237,2020-05-07T14:50:32-07:00,0.31417798995972,1,versionA_stim.csv,VC_VersionA.csv,"Version A","Version A",EXTENSION,LONG,Study2,F,96,120,VC,User,-,"How many vowels are the two words combined?|Type your response below and then press Enter.",Study/JOL,"Study Phase2",26,,,-1,-1,,,,,1
w10008086,1pluic4f7q,Nick_Dissertation_EX1b,1,238,2020-05-07T14:50:32-07:00,0.31111192703247,1,versionA_stim.csv,VC_VersionA.csv,"Version A","Version A",STRETCH,CLOTH,Study2,U,157,159,VC,User,-,"How many vowels are the two words combined?|Type your response below and then press Enter.",Study/JOL,"Study Phase2",19,,,-1,-1,,,,,1
w10008086,1pluic4f7q,Nick_Dissertation_EX1b,1,239,2020-05-07T14:50:32-07:00,0.31761503219604,1,versionA_stim.csv,VC_VersionA.csv,"Version A","Version A",AFFECTION,LOVE,Study2,F,115,110,VC,User,-,"How many vowels are the two words combined?|Type your response below and then press Enter.",Study/JOL,"Study Phase2",50,,,-1,-1,,,,,1
w10008086,1pluic4f7q,Nick_Dissertation_EX1b,1,240,2020-05-07T14:50:33-07:00,0.32101511955261,1,versionA_stim.csv,VC_VersionA.csv,"Version A","Version A",FISH,SARDINE,Study2,B,130,130,VC,User,-,"How many vowels are the two words combined?|Type your response below and then press Enter.",Study/JOL,"Study Phase2",44,,,-1,-1,,,,,1
w10008086,1pluic4f7q,Nick_Dissertation_EX1b,1,241,2020-05-07T14:50:33-07:00,0.38227891921997,1,versionA_stim.csv,VC_VersionA.csv,"Version A","Version A",GIVE,STEAK,Study2,U,158,152,VC,User,-,"How many vowels are the two words combined?|Type your response below and then press Enter.",Study/JOL,"Study Phase2",119,,,-1,-1,,,,,1
w10008086,1pluic4f7q,Nick_Dissertation_EX1b,1,242,2020-05-07T14:50:33-07:00,0.34684896469116,1,versionA_stim.csv,VC_VersionA.csv,"Version A","Version A",ELEMENT,CARBON,Study2,S,141,102,VC,User,-,"How many vowels are the two words combined?|Type your response below and then press Enter.",Study/JOL,"Study Phase2",86,,,-1,-1,,,,,1
w10008086,1pluic4f7q,Nick_Dissertation_EX1b,1,243,2020-05-07T14:50:34-07:00,0.38197207450867,1,versionA_stim.csv,VC_VersionA.csv,"Version A","Version A",EVEN,REVENGE,Study2,B,122,168,VC,User,-,"How many vowels are the two words combined?|Type your response below and then press Enter.",Study/JOL,"Study Phase2",93,,,-1,-1,,,,,1
w10008086,1pluic4f7q,Nick_Dissertation_EX1b,1,244,2020-05-07T14:50:34-07:00,0.31954097747803,1,versionA_stim.csv,VC_VersionA.csv,"Version A","Version A",JUSTICE,MAROON,Study2,U,156,121,VC,User,-,"How many vowels are the two words combined?|Type your response below and then press Enter.",Study/JOL,"Study Phase2",58,,,-1,-1,,,,,1
w10008086,1pluic4f7q,Nick_Dissertation_EX1b,1,245,2020-05-07T14:50:34-07:00,0.32909989356995,1,versionA_stim.csv,VC_VersionA.csv,"Version A","Version A",KEYS,JOKE,Study2,U,165,158,VC,User,-,"How many vowels are the two words combined?|Type your response below and then press Enter.",Study/JOL,"Study Phase2",40,,,-1,-1,,,,,1
w10008086,1pluic4f7q,Nick_Dissertation_EX1b,1,246,2020-05-07T14:50:35-07:00,0.43341398239136,1,versionA_stim.csv,VC_VersionA.csv,"Version A","Version A",TURN,FLIP,Study2,B,116,112,VC,User,-,"How many vowels are the two words combined?|Type your response below and then press Enter.",Study/JOL,"Study Phase2",111,,,-1,-1,,,,,1
w10008086,1pluic4f7q,Nick_Dissertation_EX1b,1,247,2020-05-07T14:50:36-07:00,1.681930065155,1,versionA_stim.csv,VC_VersionA.csv,"Version A","Version A",DEAD,COFFIN,Study2,B,128,138,VC,User,-,"How many vowels are the two words combined?|Type your response below and then press Enter.",Study/JOL,"Study Phase2",1419,,,1039,1269,,,,54,1
w10008086,1pluic4f7q,Nick_Dissertation_EX1b,1,248,2020-05-07T14:50:37-07:00,0.80839800834656,1,versionA_stim.csv,VC_VersionA.csv,"Version A","Version A",CAT,PANTHER,Study2,B,126,143,VC,User,-,"How many vowels are the two words combined?|Type your response below and then press Enter.",Study/JOL,"Study Phase2",528,,,-1,-1,,,,,1
w10008086,1pluic4f7q,Nick_Dissertation_EX1b,1,249,2020-05-07T14:50:38-07:00,0.50128102302551,1,versionA_stim.csv,VC_VersionA.csv,"Version A","Version A",LITTER,TRASH,Study2,F,103,126,VC,User,-,"How many vowels are the two words combined?|Type your response below and then press Enter.",Study/JOL,"Study Phase2",232,,,-1,-1,,,,,1
w10008086,1pluic4f7q,Nick_Dissertation_EX1b,1,250,2020-05-07T14:50:38-07:00,0.36124992370605,1,versionA_stim.csv,VC_VersionA.csv,"Version A","Version A",BAD,VILLAIN,Study2,B,118,139,VC,User,-,"How many vowels are the two words combined?|Type your response below and then press Enter.",Study/JOL,"Study Phase2",101,,,-1,-1,,,,,1
w10008086,1pluic4f7q,Nick_Dissertation_EX1b,1,251,2020-05-07T14:50:39-07:00,0.35254311561584,1,versionA_stim.csv,VC_VersionA.csv,"Version A","Version A",DINE,EAT,Study2,F,111,154,VC,User,-,"How many vowels are the two words combined?|Type your response below and then press Enter.",Study/JOL,"Study Phase2",86,,,-1,-1,,,,,1
w10008086,1pluic4f7q,Nick_Dissertation_EX1b,1,252,2020-05-07T14:50:39-07:00,0.33799004554749,1,versionA_stim.csv,VC_VersionA.csv,"Version A","Version A",LEASE,TOIL,Study2,U,170,170,VC,User,-,"How many vowels are the two words combined?|Type your response below and then press Enter.",Study/JOL,"Study Phase2",65,,,-1,-1,,,,,1
w10008086,1pluic4f7q,Nick_Dissertation_EX1b,1,253,2020-05-07T14:50:39-07:00,0.33077692985535,1,versionA_stim.csv,VC_VersionA.csv,"Version A","Version A",RAZOR,SHAVE,Study2,S,136,131,VC,User,-,"How many vowels are the two words combined?|Type your response below and then press Enter.",Study/JOL,"Study Phase2",7,,,-1,-1,,,,,1
w10008086,1pluic4f7q,Nick_Dissertation_EX1b,1,254,2020-05-07T14:50:40-07:00,0.32477402687073,1,versionA_stim.csv,VC_VersionA.csv,"Version A","Version A",CLUE,GAME,Study2,F,97,116,VC,User,-,"How many vowels are the two words combined?|Type your response below and then press Enter.",Study/JOL,"Study Phase2",66,,,-1,-1,,,,,1
w10008086,1pluic4f7q,Nick_Dissertation_EX1b,1,255,2020-05-07T14:50:40-07:00,0.3083438873291,1,versionA_stim.csv,VC_VersionA.csv,"Version A","Version A",INCENSE,SMELL,Study2,F,110,129,VC,User,-,"How many vowels are the two words combined?|Type your response below and then press Enter.",Study/JOL,"Study Phase2",50,,,-1,-1,,,,,1
w10008086,1pluic4f7q,Nick_Dissertation_EX1b,1,256,2020-05-07T14:50:40-07:00,0.33136415481567,1,versionA_stim.csv,VC_VersionA.csv,"Version A","Version A",Shell,SHAKE,Study2,U,163,155,VC,User,-,"How many vowels are the two words combined?|Type your response below and then press Enter.",Study/JOL,"Study Phase2",59,,,-1,-1,,,,,1
w10008086,1pluic4f7q,Nick_Dissertation_EX1b,1,257,2020-05-07T14:50:40-07:00,0.33876895904541,1,versionA_stim.csv,VC_VersionA.csv,"Version A","Version A",OWN,HAVE,Study2,S,153,146,VC,User,-,"How many vowels are the two words combined?|Type your response below and then press Enter.",Study/JOL,"Study Phase2",64,,,-1,-1,,,,,1
w10008086,1pluic4f7q,Nick_Dissertation_EX1b,1,258,2020-05-07T14:50:41-07:00,0.32076096534729,1,versionA_stim.csv,VC_VersionA.csv,"Version A","Version A",CHOP,CUT,Study2,F,107,128,VC,User,-,"How many vowels are the two words combined?|Type your response below and then press Enter.",Study/JOL,"Study Phase2",40,,,-1,-1,,,,,1
w10008086,1pluic4f7q,Nick_Dissertation_EX1b,1,259,2020-05-07T14:50:42-07:00,0.7929790019989,1,versionA_stim.csv,VC_VersionA.csv,"Version A","Version A",CRACKLE,ABLE,Study2,U,162,144,VC,User,-,"How many vowels are the two words combined?|Type your response below and then press Enter.",Study/JOL,"Study Phase2",332,,,-1,-1,,,,,1
w10008086,1pluic4f7q,Nick_Dissertation_EX1b,1,260,2020-05-07T14:50:42-07:00,0.61545705795288,1,versionA_stim.csv,VC_VersionA.csv,"Version A","Version A",STAR,ACTRESS,Study2,B,120,171,VC,User,-,"How many vowels are the two words combined?|Type your response below and then press Enter.",Study/JOL,"Study Phase2",333,,,-1,-1,,,,,1
w10008086,1pluic4f7q,Nick_Dissertation_EX1b,1,261,2020-05-07T14:50:43-07:00,0.33382606506348,1,versionA_stim.csv,VC_VersionA.csv,"Version A","Version A",TEMPERATURE,Morning,Study2,U,173,145,VC,User,-,"How many vowels are the two words combined?|Type your response below and then press Enter.",Study/JOL,"Study Phase2",50,,,-1,-1,,,,,1
w10008086,1pluic4f7q,Nick_Dissertation_EX1b,1,262,2020-05-07T14:50:43-07:00,0.70972490310669,1,versionA_stim.csv,VC_VersionA.csv,"Version A","Version A",MOAT,CLEAR,Study2,U,169,135,VC,User,-,"How many vowels are the two words combined?|Type your response below and then press Enter.",Study/JOL,"Study Phase2",433,,,-1,-1,,,,,1
w10008086,1pluic4f7q,Nick_Dissertation_EX1b,1,263,2020-05-07T14:50:44-07:00,0.31615304946899,1,versionA_stim.csv,VC_VersionA.csv,"Version A","Version A",MAZE,ELECTION,Study2,U,159,162,VC,User,-,"How many vowels are the two words combined?|Type your response below and then press Enter.",Study/JOL,"Study Phase2",54,,,-1,-1,,,,,1
w10008086,1pluic4f7q,Nick_Dissertation_EX1b,1,264,2020-05-07T14:50:45-07:00,1.3122968673706,1,versionA_stim.csv,VC_VersionA.csv,"Version A","Version A",CHILL,COLD,Study2,F,114,115,VC,User,-,"How many vowels are the two words combined?|Type your response below and then press Enter.",Study/JOL,"Study Phase2",1026,,,-1,-1,,,,,1
w10008086,1pluic4f7q,Nick_Dissertation_EX1b,1,265,2020-05-07T14:50:45-07:00,0.41219902038574,1,versionA_stim.csv,VC_VersionA.csv,"Version A","Version A",SUN,TAN,Study2,S,155,166,VC,User,-,"How many vowels are the two words combined?|Type your response below and then press Enter.",Study/JOL,"Study Phase2",141,,,-1,-1,,,,,1
w10008086,1pluic4f7q,Nick_Dissertation_EX1b,1,266,2020-05-07T14:50:46-07:00,0.30562400817871,1,versionA_stim.csv,VC_VersionA.csv,"Version A","Version A",TOOL,SHED,BUFFER4,Buffer,178,178,VC,User,-,"How many vowels are the two words combined?|Type your response below and then press Enter.",Study/JOL,BUFFER4,24,,,-1,-1,,,,,1
w10008086,1pluic4f7q,Nick_Dissertation_EX1b,1,267,2020-05-07T14:50:46-07:00,0.74732494354248,1,versionA_stim.csv,VC_VersionA.csv,"Version A","Version A",SPRING,MARCH,BUFFER4,Buffer,179,177,VC,User,-,"How many vowels are the two words combined?|Type your response below and then press Enter.",Study/JOL,BUFFER4,474,,,-1,-1,,,,,1
w10008086,1pluic4f7q,Nick_Dissertation_EX1b,1,268,2020-05-07T14:50:47-07:00,0.29662919044495,1,versionA_stim.csv,VC_VersionA.csv,"Version A","Version A",OCTOBER,SPOOKY,BUFFER4,Buffer,180,179,VC,User,-,"How many vowels are the two words combined?|Type your response below and then press Enter.",Study/JOL,BUFFER4,16,,,-1,-1,,,,,1
w10008086,1pluic4f7q,Nick_Dissertation_EX1b,1,269,2020-05-07T14:50:48-07:00,1.0412309169769,1,versionA_stim.csv,VC_VersionA.csv,"Version A","Version A",MONTH,YEAR,BUFFER4,Buffer,177,180,VC,User,-,"How many vowels are the two words combined?|Type your response below and then press Enter.",Study/JOL,BUFFER4,747,,,-1,-1,,,,,1
w10008086,1pluic4f7q,Nick_Dissertation_EX1b,1,270,2020-05-07T14:50:48-07:00,0.48100399971008,1,versionA_stim.csv,VC_VersionA.csv,"Version A","Version A",DAYS,WEAKS,BUFFER4,Buffer,176,181,VC,User,-,"How many vowels are the two words combined?|Type your response below and then press Enter.",Study/JOL,BUFFER4,191,,,-1,-1,,,,,1
w10008086,1pluic4f7q,Nick_Dissertation_EX1b,1,271,2020-05-07T14:50:48-07:00,0.32350993156433,1,versionA_stim.csv,VC_VersionA.csv,"Version A","Version A",,,,,,0,Instruct,User,-,"You have completed this section. Please press Enter.",Filler_Instruction,Instruct5,29,,,-1,-1,,,,,1
w10008086,1pluic4f7q,Nick_Dissertation_EX1b,1,272,2020-05-07T14:52:49-07:00,120.35058498383,1,versionA_stim.csv,VC_VersionA.csv,"Version A","Version A",,,,,,0,FreeRecall,120,120,"Please list the 50 US states in reverse alphabetical order (z - a). The task will automatically advance to the next screen after two minutes.",,Filler2,120005,"wyoming wisconsin virginia",0,53738,119801,0,0,,,1
w10008086,1pluic4f7q,Nick_Dissertation_EX1b,1,273,2020-05-07T14:53:00-07:00,11.345987081528,1,versionA_stim.csv,VC_VersionA.csv,"Version A","Version A",,,,,,0,Instruct,-,10,"You will now be presented with the first word from each of the previously studied item pairs. Please type the missing word. If you do not know the word, you may guess or press Enter to skip forward to the next pair.",,Instruct6,10987,,,-1,-1,,,,,1
w10008086,1pluic4f7q,Nick_Dissertation_EX1b,1,274,2020-05-07T14:53:04-07:00,3.6577460765839,1,versionA_stim.csv,VC_VersionA.csv,"Version A","Version A",FRUIT,STRAWBERRY,Study2,B,124,125,Test,User,-,,Recall,Recall2,3304,fly,15.384615384615,2130,2908,0,0,,,1
w10008086,1pluic4f7q,Nick_Dissertation_EX1b,1,275,2020-05-07T14:53:07-07:00,2.9180629253387,1,versionA_stim.csv,VC_VersionA.csv,"Version A","Version A",LEASE,TOIL,Study2,U,170,170,Test,User,-,,Recall,Recall2,2563,paper,0,1731,2476,0,0,,,1
w10008086,1pluic4f7q,Nick_Dissertation_EX1b,1,276,2020-05-07T14:53:08-07:00,1.0071859359741,1,versionA_stim.csv,VC_VersionA.csv,"Version A","Version A",INCENSE,SMELL,Study2,F,110,129,Test,User,-,,Recall,Recall2,703,,0,-1,-1,0,0,,,1
w10008086,1pluic4f7q,Nick_Dissertation_EX1b,1,277,2020-05-07T14:53:08-07:00,0.27787899971008,1,versionA_stim.csv,VC_VersionA.csv,"Version A","Version A",CHERRY,RED,Study2,F,104,176,Test,User,-,,Recall,Recall2,11,,0,-1,-1,0,0,,,1
w10008086,1pluic4f7q,Nick_Dissertation_EX1b,1,278,2020-05-07T14:53:08-07:00,0.28252100944519,1,versionA_stim.csv,VC_VersionA.csv,"Version A","Version A",SLEEP,NAP,Study2,B,134,150,Test,User,-,,Recall,Recall2,20,,0,-1,-1,0,0,,,1
w10008086,1pluic4f7q,Nick_Dissertation_EX1b,1,279,2020-05-07T14:53:09-07:00,0.41226506233215,1,versionA_stim.csv,VC_VersionA.csv,"Version A","Version A",KEYS,JOKE,Study2,U,165,158,Test,User,-,,Recall,Recall2,133,,0,-1,-1,0,0,,,1
w10008086,1pluic4f7q,Nick_Dissertation_EX1b,1,280,2020-05-07T14:53:09-07:00,0.42657709121704,1,versionA_stim.csv,VC_VersionA.csv,"Version A","Version A",GIVE,STEAK,Study2,U,158,152,Test,User,-,,Recall,Recall2,127,,0,-1,-1,0,0,,,1
w10008086,1pluic4f7q,Nick_Dissertation_EX1b,1,281,2020-05-07T14:53:10-07:00,0.41744589805603,1,versionA_stim.csv,VC_VersionA.csv,"Version A","Version A",ADJOURN,END,Study2,F,101,133,Test,User,-,,Recall,Recall2,137,,0,-1,-1,0,0,,,1
w10008086,1pluic4f7q,Nick_Dissertation_EX1b,1,282,2020-05-07T14:53:10-07:00,0.43747210502625,1,versionA_stim.csv,VC_VersionA.csv,"Version A","Version A",GLASS,BREAKABLE,Study2,B,127,127,Test,User,-,,Recall,Recall2,161,,0,-1,-1,0,0,,,1
w10008086,1pluic4f7q,Nick_Dissertation_EX1b,1,283,2020-05-07T14:53:10-07:00,0.30061888694763,1,versionA_stim.csv,VC_VersionA.csv,"Version A","Version A",DINE,EAT,Study2,F,111,154,Test,User,-,,Recall,Recall2,28,,0,-1,-1,0,0,,,1
w10008086,1pluic4f7q,Nick_Dissertation_EX1b,1,284,2020-05-07T14:53:11-07:00,0.296147108078,1,versionA_stim.csv,VC_VersionA.csv,"Version A","Version A",PHONE,COMMUNICATION,Study2,S,149,98,Test,User,-,,Recall,Recall2,14,,0,-1,-1,0,0,,,1
w10008086,1pluic4f7q,Nick_Dissertation_EX1b,1,285,2020-05-07T14:53:11-07:00,0.32992386817932,1,versionA_stim.csv,VC_VersionA.csv,"Version A","Version A",SAFETY,SEATBELT,Study2,S,147,103,Test,User,-,,Recall,Recall2,48,,0,-1,-1,0,0,,,1
w10008086,1pluic4f7q,Nick_Dissertation_EX1b,1,286,2020-05-07T14:53:11-07:00,0.29709100723267,1,versionA_stim.csv,VC_VersionA.csv,"Version A","Version A",BOTH,OUNCE,Study2,U,172,157,Test,User,-,,Recall,Recall2,13,,0,-1,-1,0,0,,,1
w10008086,1pluic4f7q,Nick_Dissertation_EX1b,1,287,2020-05-07T14:53:12-07:00,0.3017909526825,1,versionA_stim.csv,VC_VersionA.csv,"Version A","Version A",MEAT,OBTAIN,Study2,U,161,147,Test,User,-,,Recall,Recall2,30,,0,-1,-1,0,0,,,1
w10008086,1pluic4f7q,Nick_Dissertation_EX1b,1,288,2020-05-07T14:53:12-07:00,0.49263501167297,1,versionA_stim.csv,VC_VersionA.csv,"Version A","Version A",LITTER,TRASH,Study2,F,103,126,Test,User,-,,Recall,Recall2,68,,0,-1,-1,0,0,,,1
w10008086,1pluic4f7q,Nick_Dissertation_EX1b,1,289,2020-05-07T14:53:12-07:00,0.34916114807129,1,versionA_stim.csv,VC_VersionA.csv,"Version A","Version A",BIRD,PENGUIN,Study2,B,119,97,Test,User,-,,Recall,Recall2,66,,0,-1,-1,0,0,,,1
w10008086,1pluic4f7q,Nick_Dissertation_EX1b,1,290,2020-05-07T14:53:13-07:00,0.31328296661377,1,versionA_stim.csv,VC_VersionA.csv,"Version A","Version A",EARTH,GROUND,Study2,S,144,118,Test,User,-,,Recall,Recall2,21,,0,-1,-1,0,0,,,1
w10008086,1pluic4f7q,Nick_Dissertation_EX1b,1,291,2020-05-07T14:53:13-07:00,0.32424592971802,1,versionA_stim.csv,VC_VersionA.csv,"Version A","Version A",OWN,HAVE,Study2,S,153,146,Test,User,-,,Recall,Recall2,37,,0,-1,-1,0,0,,,1
w10008086,1pluic4f7q,Nick_Dissertation_EX1b,1,292,2020-05-07T14:53:14-07:00,1.3027720451355,1,versionA_stim.csv,VC_VersionA.csv,"Version A","Version A",EXTENSION,LONG,Study2,F,96,120,Test,User,-,,Recall,Recall2,1025,,0,-1,-1,0,0,,,1
w10008086,1pluic4f7q,Nick_Dissertation_EX1b,1,293,2020-05-07T14:53:15-07:00,0.40461587905884,1,versionA_stim.csv,VC_VersionA.csv,"Version A","Version A",CHOP,CUT,Study2,F,107,128,Test,User,-,,Recall,Recall2,132,,0,-1,-1,0,0,,,1
w10008086,1pluic4f7q,Nick_Dissertation_EX1b,1,294,2020-05-07T14:53:16-07:00,1.2572700977325,1,versionA_stim.csv,VC_VersionA.csv,"Version A","Version A",FUZZY,BANG,Study2,U,168,114,Test,User,-,,Recall,Recall2,834,,0,-1,-1,0,0,,,1
w10008086,1pluic4f7q,Nick_Dissertation_EX1b,1,295,2020-05-07T14:53:16-07:00,0.33502292633057,1,versionA_stim.csv,VC_VersionA.csv,"Version A","Version A",STRETCH,CLOTH,Study2,U,157,159,Test,User,-,,Recall,Recall2,52,,0,-1,-1,0,0,,,1
w10008086,1pluic4f7q,Nick_Dissertation_EX1b,1,296,2020-05-07T14:53:17-07:00,0.46043515205383,1,versionA_stim.csv,VC_VersionA.csv,"Version A","Version A",FURRY,DOG,Study2,F,102,165,Test,User,-,,Recall,Recall2,192,,0,-1,-1,0,0,,,1
w10008086,1pluic4f7q,Nick_Dissertation_EX1b,1,297,2020-05-07T14:53:17-07:00,0.48686790466309,1,versionA_stim.csv,VC_VersionA.csv,"Version A","Version A",FLEA,TICK,Study2,S,151,113,Test,User,-,,Recall,Recall2,217,,0,-1,-1,0,0,,,1
w10008086,1pluic4f7q,Nick_Dissertation_EX1b,1,298,2020-05-07T14:53:18-07:00,0.3299241065979,1,versionA_stim.csv,VC_VersionA.csv,"Version A","Version A",SUN,TAN,Study2,S,155,166,Test,User,-,,Recall,Recall2,58,,0,-1,-1,0,0,,,1
w10008086,1pluic4f7q,Nick_Dissertation_EX1b,1,299,2020-05-07T14:53:18-07:00,0.32682585716248,1,versionA_stim.csv,VC_VersionA.csv,"Version A","Version A",MOAT,CLEAR,Study2,U,169,135,Test,User,-,,Recall,Recall2,31,,0,-1,-1,0,0,,,1
w10008086,1pluic4f7q,Nick_Dissertation_EX1b,1,300,2020-05-07T14:53:18-07:00,0.47088098526001,1,versionA_stim.csv,VC_VersionA.csv,"Version A","Version A",DEAD,COFFIN,Study2,B,128,138,Test,User,-,,Recall,Recall2,169,,0,-1,-1,0,0,,,1
w10008086,1pluic4f7q,Nick_Dissertation_EX1b,1,301,2020-05-07T14:53:19-07:00,0.45199608802795,1,versionA_stim.csv,VC_VersionA.csv,"Version A","Version A",TEMPERATURE,Morning,Study2,U,173,145,Test,User,-,,Recall,Recall2,171,,0,-1,-1,0,0,,,1
w10008086,1pluic4f7q,Nick_Dissertation_EX1b,1,302,2020-05-07T14:53:20-07:00,0.65393400192261,1,versionA_stim.csv,VC_VersionA.csv,"Version A","Version A",CAR,WINDSHIELD,Study2,B,117,148,Test,User,-,,Recall,Recall2,383,,0,-1,-1,0,0,,,1
w10008086,1pluic4f7q,Nick_Dissertation_EX1b,1,303,2020-05-07T14:53:20-07:00,0.30471706390381,1,versionA_stim.csv,VC_VersionA.csv,"Version A","Version A",MAIN,SCAR,Study2,U,175,142,Test,User,-,,Recall,Recall2,32,,0,-1,-1,0,0,,,1
w10008086,1pluic4f7q,Nick_Dissertation_EX1b,1,304,2020-05-07T14:53:20-07:00,0.32912683486938,1,versionA_stim.csv,VC_VersionA.csv,"Version A","Version A",NAME,HATE,Study2,U,167,164,Test,User,-,,Recall,Recall2,46,,0,-1,-1,0,0,,,1
w10008086,1pluic4f7q,Nick_Dissertation_EX1b,1,305,2020-05-07T14:53:20-07:00,0.29652714729309,1,versionA_stim.csv,VC_VersionA.csv,"Version A","Version A",WATER,DRINK,Study2,S,143,108,Test,User,-,,Recall,Recall2,28,,0,-1,-1,0,0,,,1
w10008086,1pluic4f7q,Nick_Dissertation_EX1b,1,306,2020-05-07T14:53:21-07:00,0.30820894241333,1,versionA_stim.csv,VC_VersionA.csv,"Version A","Version A",DRY,WET,Study2,S,146,173,Test,User,-,,Recall,Recall2,31,,0,-1,-1,0,0,,,1
w10008086,1pluic4f7q,Nick_Dissertation_EX1b,1,307,2020-05-07T14:53:21-07:00,0.36488509178162,1,versionA_stim.csv,VC_VersionA.csv,"Version A","Version A",POP,BALLOON,Study2,B,123,100,Test,User,-,,Recall,Recall2,88,,0,-1,-1,0,0,,,1
w10008086,1pluic4f7q,Nick_Dissertation_EX1b,1,308,2020-05-07T14:53:26-07:00,5.0189847946167,1,versionA_stim.csv,VC_VersionA.csv,"Version A","Version A",LOUD,NOISE,Study2,S,152,101,Test,User,-,,Recall,Recall2,3368,slow,22.222222222222,2502,3005,0,0,,,1
w10008086,1pluic4f7q,Nick_Dissertation_EX1b,1,309,2020-05-07T14:53:34-07:00,7.8727700710297,1,versionA_stim.csv,VC_VersionA.csv,"Version A","Version A",LOAN,SIGN,Study2,U,171,124,Test,User,-,,Recall,Recall2,7499,money,22.222222222222,6209,7313,0,0,,,1
w10008086,1pluic4f7q,Nick_Dissertation_EX1b,1,310,2020-05-07T14:53:37-07:00,2.8925371170044,1,versionA_stim.csv,VC_VersionA.csv,"Version A","Version A",FIGHT,BRAWL,Study2,B,135,160,Test,User,-,,Recall,Recall2,2594,hard,22.222222222222,1695,2452,0,0,,,1
w10008086,1pluic4f7q,Nick_Dissertation_EX1b,1,311,2020-05-07T14:53:40-07:00,3.1107800006866,1,versionA_stim.csv,VC_VersionA.csv,"Version A","Version A",BASEBALL,LEAGUE,Study2,B,131,109,Test,User,-,,Recall,Recall2,2761,game,40,2087,2559,0,0,,,1
w10008086,1pluic4f7q,Nick_Dissertation_EX1b,1,312,2020-05-07T14:53:42-07:00,2.319620847702,1,versionA_stim.csv,VC_VersionA.csv,"Version A","Version A",SHEARS,SCISSORS,Study2,F,112,161,Test,User,-,,Recall,Recall2,1966,,0,-1,-1,0,0,,,1
w10008086,1pluic4f7q,Nick_Dissertation_EX1b,1,313,2020-05-07T14:53:45-07:00,2.9710941314697,1,versionA_stim.csv,VC_VersionA.csv,"Version A","Version A",CLUE,GAME,Study2,F,97,116,Test,User,-,,Recall,Recall2,2652,',0,1763,1763,0,0,,,1
w10008086,1pluic4f7q,Nick_Dissertation_EX1b,1,314,2020-05-07T14:53:48-07:00,2.4555180072784,1,versionA_stim.csv,VC_VersionA.csv,"Version A","Version A",WRIST,BRACELET,Study2,S,140,99,Test,User,-,,Recall,Recall2,2136,lock,16.666666666667,1275,1843,0,0,,,1
w10008086,1pluic4f7q,Nick_Dissertation_EX1b,1,315,2020-05-07T14:53:50-07:00,2.1572070121765,1,versionA_stim.csv,VC_VersionA.csv,"Version A","Version A",CRACKLE,ABLE,Study2,U,162,144,Test,User,-,,Recall,Recall2,1833,pop,0,1163,1547,0,0,,,1
w10008086,1pluic4f7q,Nick_Dissertation_EX1b,1,316,2020-05-07T14:53:53-07:00,3.1530048847198,1,versionA_stim.csv,VC_VersionA.csv,"Version A","Version A",MAZE,ELECTION,Study2,U,159,162,Test,User,-,,Recall,Recall2,2857,runner,14.285714285714,1593,2641,0,0,,,1
w10008086,1pluic4f7q,Nick_Dissertation_EX1b,1,317,2020-05-07T14:53:56-07:00,2.717579126358,1,versionA_stim.csv,VC_VersionA.csv,"Version A","Version A",THREAD,THIMBLE,Study2,B,121,174,Test,User,-,,Recall,Recall2,2366,needle,30.769230769231,1364,2174,0,0,,,1
w10008086,1pluic4f7q,Nick_Dissertation_EX1b,1,318,2020-05-07T14:53:59-07:00,3.0127038955688,1,versionA_stim.csv,VC_VersionA.csv,"Version A","Version A",MASON,JAR,Study2,S,138,140,Test,User,-,,Recall,Recall2,2691,jar,100,2129,2579,1,1,,,1
w10008086,1pluic4f7q,Nick_Dissertation_EX1b,1,319,2020-05-07T14:54:00-07:00,1.6777460575104,1,versionA_stim.csv,VC_VersionA.csv,"Version A","Version A",STAR,ACTRESS,Study2,B,120,171,Test,User,-,,Recall,Recall2,1349,,0,-1,-1,0,0,,,1
w10008086,1pluic4f7q,Nick_Dissertation_EX1b,1,320,2020-05-07T14:54:02-07:00,1.8835499286652,1,versionA_stim.csv,VC_VersionA.csv,"Version A","Version A",DETECTIVE,MYSTERY,Study2,F,100,104,Test,User,-,,Recall,Recall2,1604,,0,-1,-1,0,0,,,1
w10008086,1pluic4f7q,Nick_Dissertation_EX1b,1,321,2020-05-07T14:54:05-07:00,2.3874990940094,1,versionA_stim.csv,VC_VersionA.csv,"Version A","Version A",AFFECTION,LOVE,Study2,F,115,110,Test,User,-,,Recall,Recall2,2105,love,100,1258,1935,1,1,,,1
w10008086,1pluic4f7q,Nick_Dissertation_EX1b,1,322,2020-05-07T14:54:06-07:00,1.2008209228516,1,versionA_stim.csv,VC_VersionA.csv,"Version A","Version A",FISH,SARDINE,Study2,B,130,130,Test,User,-,,Recall,Recall2,910,,0,-1,-1,0,0,,,1
w10008086,1pluic4f7q,Nick_Dissertation_EX1b,1,323,2020-05-07T14:54:07-07:00,1.1664249897003,1,versionA_stim.csv,VC_VersionA.csv,"Version A","Version A",EVEN,REVENGE,Study2,B,122,168,Test,User,-,,Recall,Recall2,884,,0,-1,-1,0,0,,,1
w10008086,1pluic4f7q,Nick_Dissertation_EX1b,1,324,2020-05-07T14:54:08-07:00,0.45040702819824,1,versionA_stim.csv,VC_VersionA.csv,"Version A","Version A",HONEST,TRUTHFUL,Study2,B,133,175,Test,User,-,,Recall,Recall2,159,,0,-1,-1,0,0,,,1
w10008086,1pluic4f7q,Nick_Dissertation_EX1b,1,325,2020-05-07T14:54:09-07:00,1.7343399524689,1,versionA_stim.csv,VC_VersionA.csv,"Version A","Version A",MULE,DONKEY,Study2,F,108,163,Test,User,-,,Recall,Recall2,1427,,0,-1,-1,0,0,,,1
w10008086,1pluic4f7q,Nick_Dissertation_EX1b,1,326,2020-05-07T14:54:10-07:00,0.66705203056335,1,versionA_stim.csv,VC_VersionA.csv,"Version A","Version A",DOCUMENT,PAPER,Study2,F,109,137,Test,User,-,,Recall,Recall2,379,,0,-1,-1,0,0,,,1
w10008086,1pluic4f7q,Nick_Dissertation_EX1b,1,327,2020-05-07T14:54:11-07:00,0.99660491943359,1,versionA_stim.csv,VC_VersionA.csv,"Version A","Version A",CAT,PANTHER,Study2,B,126,143,Test,User,-,,Recall,Recall2,720,,0,-1,-1,0,0,,,1
w10008086,1pluic4f7q,Nick_Dissertation_EX1b,1,328,2020-05-07T14:54:12-07:00,0.84084701538086,1,versionA_stim.csv,VC_VersionA.csv,"Version A","Version A",TRUTH,LIE,Study2,S,148,107,Test,User,-,,Recall,Recall2,550,,0,-1,-1,0,0,,,1
w10008086,1pluic4f7q,Nick_Dissertation_EX1b,1,329,2020-05-07T14:54:12-07:00,0.3779661655426,1,versionA_stim.csv,VC_VersionA.csv,"Version A","Version A",MIRROR,CHILDREN,Study2,U,174,141,Test,User,-,,Recall,Recall2,105,,0,-1,-1,0,0,,,1
w10008086,1pluic4f7q,Nick_Dissertation_EX1b,1,330,2020-05-07T14:54:13-07:00,0.35207486152649,1,versionA_stim.csv,VC_VersionA.csv,"Version A","Version A",VEHICLE,CHARM,Study2,U,160,134,Test,User,-,,Recall,Recall2,51,,0,-1,-1,0,0,,,1
w10008086,1pluic4f7q,Nick_Dissertation_EX1b,1,331,2020-05-07T14:54:13-07:00,0.35637402534485,1,versionA_stim.csv,VC_VersionA.csv,"Version A","Version A",SCALP,HEAD,Study2,F,105,117,Test,User,-,,Recall,Recall2,62,,0,-1,-1,0,0,,,1
w10008086,1pluic4f7q,Nick_Dissertation_EX1b,1,332,2020-05-07T14:54:13-07:00,0.31176805496216,1,versionA_stim.csv,VC_VersionA.csv,"Version A","Version A",RAZOR,SHAVE,Study2,S,136,131,Test,User,-,,Recall,Recall2,36,,0,-1,-1,0,0,,,1
w10008086,1pluic4f7q,Nick_Dissertation_EX1b,1,333,2020-05-07T14:54:14-07:00,0.31298398971558,1,versionA_stim.csv,VC_VersionA.csv,"Version A","Version A",PLANE,AIRCRAFT,Study2,B,129,153,Test,User,-,,Recall,Recall2,43,,0,-1,-1,0,0,,,1
w10008086,1pluic4f7q,Nick_Dissertation_EX1b,1,334,2020-05-07T14:54:14-07:00,0.39829397201538,1,versionA_stim.csv,VC_VersionA.csv,"Version A","Version A",MONEY,BANKER,Study2,B,132,156,Test,User,-,,Recall,Recall2,107,,0,-1,-1,0,0,,,1
w10008086,1pluic4f7q,Nick_Dissertation_EX1b,1,335,2020-05-07T14:54:17-07:00,2.8520801067352,1,versionA_stim.csv,VC_VersionA.csv,"Version A","Version A",CAKE,CLOTHES,Study2,U,166,169,Test,User,-,,Recall,Recall2,2526,eat,20,1811,2179,0,0,,,1
w10008086,1pluic4f7q,Nick_Dissertation_EX1b,1,336,2020-05-07T14:54:19-07:00,2.6989479064941,1,versionA_stim.csv,VC_VersionA.csv,"Version A","Version A",CACTUS,PLANT,Study2,F,98,111,Test,User,-,,Recall,Recall2,2330,tree,22.222222222222,1709,2214,0,0,,,1
w10008086,1pluic4f7q,Nick_Dissertation_EX1b,1,337,2020-05-07T14:54:21-07:00,1.0870730876923,1,versionA_stim.csv,VC_VersionA.csv,"Version A","Version A",RIGHTS,EQUAL,Study2,S,137,123,Test,User,-,,Recall,Recall2,792,,0,-1,-1,0,0,,,1
w10008086,1pluic4f7q,Nick_Dissertation_EX1b,1,338,2020-05-07T14:54:21-07:00,0.33697295188904,1,versionA_stim.csv,VC_VersionA.csv,"Version A","Version A",JUSTICE,MAROON,Study2,U,156,121,Test,User,-,,Recall,Recall2,59,,0,-1,-1,0,0,,,1
w10008086,1pluic4f7q,Nick_Dissertation_EX1b,1,339,2020-05-07T14:54:21-07:00,0.43421697616577,1,versionA_stim.csv,VC_VersionA.csv,"Version A","Version A",TANTRUM,TEMPER,Study2,S,154,151,Test,User,-,,Recall,Recall2,158,,0,-1,-1,0,0,,,1
w10008086,1pluic4f7q,Nick_Dissertation_EX1b,1,340,2020-05-07T14:54:22-07:00,0.46174192428589,1,versionA_stim.csv,VC_VersionA.csv,"Version A","Version A",SHOELACE,TIE,Study2,F,99,105,Test,User,-,,Recall,Recall2,161,,0,-1,-1,0,0,,,1
w10008086,1pluic4f7q,Nick_Dissertation_EX1b,1,341,2020-05-07T14:54:25-07:00,2.8322830200195,1,versionA_stim.csv,VC_VersionA.csv,"Version A","Version A",TURN,FLIP,Study2,B,116,112,Test,User,-,,Recall,Recall2,2503,up,33.333333333333,1982,2242,0,0,,,1
w10008086,1pluic4f7q,Nick_Dissertation_EX1b,1,342,2020-05-07T14:54:27-07:00,2.6288290023804,1,versionA_stim.csv,VC_VersionA.csv,"Version A","Version A",FEUD,FIGHT,Study2,F,113,167,Test,User,-,,Recall,Recall2,2287,fight,100,1270,2065,1,1,,,1
