Username,ID,ExperimentName,Session,Trial,Date,TimeDif,"Condition Number","Stimuli File","Order File","Condition Description","Condition Notes",Stimuli*Cue,Stimuli*Answer,Stimuli*Shuffle,"Stimuli*Stimuli Notes",Stimuli*Value,Procedure*Item,"Procedure*Trial Type","Procedure*Max Time","Procedure*Min Time",Procedure*Text,"Procedure*Procedure Notes",Procedure*Shuffle,Response*RT,Response*Response,Response*Accuracy,Response*RTfirst,Response*RTlast,Response*strictAcc,Response*lenientAcc,Response*focus,Response*JOL,Response*Focus
5a5f7c21ac56240001543340,tiomsn2om3,"Deep vs Shallow",1,1,2020-07-08T14:44:11-07:00,841.60333704948,8,versionC_stim.csv,VC_VersionD.csv,"Version D","VC Version D",,,,,,0,Instruct,-,5,"In this section, you will be presented with a series of word pairs.",Initial_Instruct,Instruct1,841111,,,-1,-1,,,,,0.049
5a5f7c21ac56240001543340,tiomsn2om3,"Deep vs Shallow",1,2,2020-07-08T14:50:13-07:00,362.0492579937,8,versionC_stim.csv,VC_VersionD.csv,"Version D","VC Version D",,,,,,0,Instruct,-,5,"As you study, you will be asked to count the total number of vowels (a, e, i, o, u) within the two words. Please note that y is not considered a vowel.",,Instruct13,360663,,,-1,-1,,,,,0.104
5a5f7c21ac56240001543340,tiomsn2om3,"Deep vs Shallow",1,3,2020-07-08T14:50:26-07:00,13.035889148712,8,versionC_stim.csv,VC_VersionD.csv,"Version D","VC Version D",,,,,,0,Instruct,-,10,"For example, if you are given the pair CAT - DOG, CAT has one vowel and DOG has one vowel. The correct response would be 2 (1 + 1 = 2). After typing the number, you will press ENTER to move to the next pair.",,Instruct14,11331,,,-1,-1,,,,,1
5a5f7c21ac56240001543340,tiomsn2om3,"Deep vs Shallow",1,4,2020-07-08T14:50:28-07:00,1.8928549289703,8,versionC_stim.csv,VC_VersionD.csv,"Version D","VC Version D",,,,,,0,Instruct,User,-,"You will now begin the study. Press Enter when you are ready to begin.",,Instruct16,1349,,,-1,-1,,,,,1
5a5f7c21ac56240001543340,tiomsn2om3,"Deep vs Shallow",1,5,2020-07-08T14:50:46-07:00,17.957016944885,8,versionC_stim.csv,VC_VersionD.csv,"Version D","VC Version D",ADVENTURE,CAMP,BUFFER3,Buffer,95,92,VC,User,-,"How many vowels are the two words combined?|Type your response below and then press Enter.",Study/JOL,BUFFER,17334,,,15653,16737,,,,5,1
5a5f7c21ac56240001543340,tiomsn2om3,"Deep vs Shallow",1,6,2020-07-08T14:50:53-07:00,7.2256639003754,8,versionC_stim.csv,VC_VersionD.csv,"Version D","VC Version D",FROZEN,ICE,BUFFER3,Buffer,94,96,VC,User,-,"How many vowels are the two words combined?|Type your response below and then press Enter.",Study/JOL,BUFFER,6579,,,5965,5965,,,,4,1
5a5f7c21ac56240001543340,tiomsn2om3,"Deep vs Shallow",1,7,2020-07-08T14:50:59-07:00,6.0301940441132,8,versionC_stim.csv,VC_VersionD.csv,"Version D","VC Version D",FISH,SHRIMP,BUFFER3,Buffer,93,93,VC,User,-,"How many vowels are the two words combined?|Type your response below and then press Enter.",Study/JOL,BUFFER,5419,,,4850,4850,,,,2,1
5a5f7c21ac56240001543340,tiomsn2om3,"Deep vs Shallow",1,8,2020-07-08T14:51:04-07:00,4.7559561729431,8,versionC_stim.csv,VC_VersionD.csv,"Version D","VC Version D",POTATO,CARROT,BUFFER3,Buffer,91,94,VC,User,-,"How many vowels are the two words combined?|Type your response below and then press Enter.",Study/JOL,BUFFER,4102,,,3727,3727,,,,5,1
5a5f7c21ac56240001543340,tiomsn2om3,"Deep vs Shallow",1,9,2020-07-08T14:51:10-07:00,5.5308618545532,8,versionC_stim.csv,VC_VersionD.csv,"Version D","VC Version D",STRING,NOODLE,BUFFER3,Buffer,92,95,VC,User,-,"How many vowels are the two words combined?|Type your response below and then press Enter.",Study/JOL,BUFFER,4929,,,4487,4487,,,,4,1
5a5f7c21ac56240001543340,tiomsn2om3,"Deep vs Shallow",1,10,2020-07-08T14:51:14-07:00,4.6747779846191,8,versionC_stim.csv,VC_VersionD.csv,"Version D","VC Version D",VILLAIN,BAD,Study2,F,118,136,VC,User,-,"How many vowels are the two words combined?|Type your response below and then press Enter.",Study/JOL,"Study Phase",4050,,,3690,3690,,,,4,1
5a5f7c21ac56240001543340,tiomsn2om3,"Deep vs Shallow",1,11,2020-07-08T14:51:18-07:00,3.4309360980988,8,versionC_stim.csv,VC_VersionD.csv,"Version D","VC Version D",SIGN,LOAN,Study2,U,171,155,VC,User,-,"How many vowels are the two words combined?|Type your response below and then press Enter.",Study/JOL,"Study Phase",2847,,,2371,2371,,,,3,1
5a5f7c21ac56240001543340,tiomsn2om3,"Deep vs Shallow",1,12,2020-07-08T14:51:22-07:00,4.1436359882355,8,versionC_stim.csv,VC_VersionD.csv,"Version D","VC Version D",TOIL,LEASE,Study2,U,170,175,VC,User,-,"How many vowels are the two words combined?|Type your response below and then press Enter.",Study/JOL,"Study Phase",3499,,,3129,3129,,,,5,1
5a5f7c21ac56240001543340,tiomsn2om3,"Deep vs Shallow",1,13,2020-07-08T14:51:26-07:00,3.9318518638611,8,versionC_stim.csv,VC_VersionD.csv,"Version D","VC Version D",FIGHT,FEUD,Study2,B,113,105,VC,User,-,"How many vowels are the two words combined?|Type your response below and then press Enter.",Study/JOL,"Study Phase",3309,,,2924,2924,,,,3,1
5a5f7c21ac56240001543340,tiomsn2om3,"Deep vs Shallow",1,14,2020-07-08T14:51:32-07:00,5.8159561157227,8,versionC_stim.csv,VC_VersionD.csv,"Version D","VC Version D",CHARM,VEHICLE,Study2,U,160,122,VC,User,-,"How many vowels are the two words combined?|Type your response below and then press Enter.",Study/JOL,"Study Phase",5187,,,4491,4491,,,,4,1
5a5f7c21ac56240001543340,tiomsn2om3,"Deep vs Shallow",1,15,2020-07-08T14:51:37-07:00,5.0810260772705,8,versionC_stim.csv,VC_VersionD.csv,"Version D","VC Version D",END,ADJOURN,Study2,B,101,161,VC,User,-,"How many vowels are the two words combined?|Type your response below and then press Enter.",Study/JOL,"Study Phase",4448,,,3988,3988,,,,4,1
5a5f7c21ac56240001543340,tiomsn2om3,"Deep vs Shallow",1,16,2020-07-08T14:51:41-07:00,3.9707398414612,8,versionC_stim.csv,VC_VersionD.csv,"Version D","VC Version D",WET,DRY,Study2,S,146,143,VC,User,-,"How many vowels are the two words combined?|Type your response below and then press Enter.",Study/JOL,"Study Phase",3342,,,2852,2852,,,,1,1
5a5f7c21ac56240001543340,tiomsn2om3,"Deep vs Shallow",1,17,2020-07-08T14:51:46-07:00,5.3981289863586,8,versionC_stim.csv,VC_VersionD.csv,"Version D","VC Version D",EQUAL,RIGHTS,Study2,S,137,149,VC,User,-,"How many vowels are the two words combined?|Type your response below and then press Enter.",Study/JOL,"Study Phase",4811,,,4355,4355,,,,4,1
5a5f7c21ac56240001543340,tiomsn2om3,"Deep vs Shallow",1,18,2020-07-08T14:51:55-07:00,8.7936551570892,8,versionC_stim.csv,VC_VersionD.csv,"Version D","VC Version D",OBTAIN,MEAT,Study2,U,161,118,VC,User,-,"How many vowels are the two words combined?|Type your response below and then press Enter.",Study/JOL,"Study Phase",7147,,,6670,6670,,,,5,1
5a5f7c21ac56240001543340,tiomsn2om3,"Deep vs Shallow",1,19,2020-07-08T14:54:11-07:00,136.16796994209,8,versionC_stim.csv,VC_VersionD.csv,"Version D","VC Version D",SARDINE,FISH,Study2,F,130,130,VC,User,-,"How many vowels are the two words combined?|Type your response below and then press Enter.",Study/JOL,"Study Phase",135546,,,134876,134877,,,,4,1
5a5f7c21ac56240001543340,tiomsn2om3,"Deep vs Shallow",1,20,2020-07-08T14:54:32-07:00,21.286047935486,8,versionC_stim.csv,VC_VersionD.csv,"Version D","VC Version D",ACTRESS,STAR,Study2,F,120,125,VC,User,-,"How many vowels are the two words combined?|Type your response below and then press Enter.",Study/JOL,"Study Phase",20620,,,20012,20012,,,,3,1
5a5f7c21ac56240001543340,tiomsn2om3,"Deep vs Shallow",1,21,2020-07-08T14:54:36-07:00,3.9828879833221,8,versionC_stim.csv,VC_VersionD.csv,"Version D","VC Version D",REVENGE,EVEN,Study2,F,122,144,VC,User,-,"How many vowels are the two words combined?|Type your response below and then press Enter.",Study/JOL,"Study Phase",3002,,,2611,2611,,,,5,1
5a5f7c21ac56240001543340,tiomsn2om3,"Deep vs Shallow",1,22,2020-07-08T14:54:43-07:00,6.5411930084229,8,versionC_stim.csv,VC_VersionD.csv,"Version D","VC Version D",CUT,CHOP,Study2,B,107,157,VC,User,-,"How many vowels are the two words combined?|Type your response below and then press Enter.",Study/JOL,"Study Phase",5916,,,5361,5361,,,,2,1
5a5f7c21ac56240001543340,tiomsn2om3,"Deep vs Shallow",1,23,2020-07-08T14:54:53-07:00,10.072347164154,8,versionC_stim.csv,VC_VersionD.csv,"Version D","VC Version D",COFFIN,DEAD,Study2,F,128,169,VC,User,-,"How many vowels are the two words combined?|Type your response below and then press Enter.",Study/JOL,"Study Phase",9424,,,8797,8797,,,,4,1
5a5f7c21ac56240001543340,tiomsn2om3,"Deep vs Shallow",1,24,2020-07-08T14:54:57-07:00,4.3500227928162,8,versionC_stim.csv,VC_VersionD.csv,"Version D","VC Version D",ELECTION,MAZE,Study2,U,159,174,VC,User,-,"How many vowels are the two words combined?|Type your response below and then press Enter.",Study/JOL,"Study Phase",3643,,,3077,3077,,,,6,1
5a5f7c21ac56240001543340,tiomsn2om3,"Deep vs Shallow",1,25,2020-07-08T14:55:03-07:00,6.0896360874176,8,versionC_stim.csv,VC_VersionD.csv,"Version D","VC Version D",SMELL,INCENSE,Study2,B,110,107,VC,User,-,"How many vowels are the two words combined?|Type your response below and then press Enter.",Study/JOL,"Study Phase",5299,,,4376,4376,,,,4,1
5a5f7c21ac56240001543340,tiomsn2om3,"Deep vs Shallow",1,26,2020-07-08T14:55:08-07:00,4.6889770030975,8,versionC_stim.csv,VC_VersionD.csv,"Version D","VC Version D",CAR,DRIVER,Study2,B,106,133,VC,User,-,"How many vowels are the two words combined?|Type your response below and then press Enter.",Study/JOL,"Study Phase",3864,,,3504,3504,,,,3,1
5a5f7c21ac56240001543340,tiomsn2om3,"Deep vs Shallow",1,27,2020-07-08T14:55:12-07:00,4.0985810756683,8,versionC_stim.csv,VC_VersionD.csv,"Version D","VC Version D",GAME,CLUE,Study2,B,97,106,VC,User,-,"How many vowels are the two words combined?|Type your response below and then press Enter.",Study/JOL,"Study Phase",3370,,,3012,3012,,,,4,1
5a5f7c21ac56240001543340,tiomsn2om3,"Deep vs Shallow",1,28,2020-07-08T14:55:17-07:00,4.5022430419922,8,versionC_stim.csv,VC_VersionD.csv,"Version D","VC Version D",SEATBELT,SAFETY,Study2,S,147,119,VC,User,-,"How many vowels are the two words combined?|Type your response below and then press Enter.",Study/JOL,"Study Phase",3868,,,3470,3470,,,,5,1
5a5f7c21ac56240001543340,tiomsn2om3,"Deep vs Shallow",1,29,2020-07-08T14:55:21-07:00,4.1400189399719,8,versionC_stim.csv,VC_VersionD.csv,"Version D","VC Version D",CHILDREN,MIRROR,Study2,U,174,166,VC,User,-,"How many vowels are the two words combined?|Type your response below and then press Enter.",Study/JOL,"Study Phase",3455,,,3135,3135,,,,4,1
5a5f7c21ac56240001543340,tiomsn2om3,"Deep vs Shallow",1,30,2020-07-08T14:55:26-07:00,4.672926902771,8,versionC_stim.csv,VC_VersionD.csv,"Version D","VC Version D",AWAY,GONE,Study2,S,142,138,VC,User,-,"How many vowels are the two words combined?|Type your response below and then press Enter.",Study/JOL,"Study Phase",4058,,,3625,3625,,,,4,1
5a5f7c21ac56240001543340,tiomsn2om3,"Deep vs Shallow",1,31,2020-07-08T14:55:30-07:00,4.1659090518951,8,versionC_stim.csv,VC_VersionD.csv,"Version D","VC Version D",PANTHER,CAT,Study2,F,126,101,VC,User,-,"How many vowels are the two words combined?|Type your response below and then press Enter.",Study/JOL,"Study Phase",3466,,,3005,3005,,,,3,1
5a5f7c21ac56240001543340,tiomsn2om3,"Deep vs Shallow",1,32,2020-07-08T14:55:35-07:00,4.8733780384064,8,versionC_stim.csv,VC_VersionD.csv,"Version D","VC Version D",GROUND,EARTH,Study2,S,144,114,VC,User,-,"How many vowels are the two words combined?|Type your response below and then press Enter.",Study/JOL,"Study Phase",4228,,,3685,3685,,,,4,1
5a5f7c21ac56240001543340,tiomsn2om3,"Deep vs Shallow",1,33,2020-07-08T14:55:38-07:00,3.3253860473633,8,versionC_stim.csv,VC_VersionD.csv,"Version D","VC Version D",BALLOON,POP,Study2,F,123,126,VC,User,-,"How many vowels are the two words combined?|Type your response below and then press Enter.",Study/JOL,"Study Phase",2691,,,2357,2357,,,,4,1
5a5f7c21ac56240001543340,tiomsn2om3,"Deep vs Shallow",1,34,2020-07-08T14:55:42-07:00,3.8196358680725,8,versionC_stim.csv,VC_VersionD.csv,"Version D","VC Version D",LIE,TRUTH,Study2,S,148,108,VC,User,-,"How many vowels are the two words combined?|Type your response below and then press Enter.",Study/JOL,"Study Phase",3191,,,2869,2869,,,,3,1
5a5f7c21ac56240001543340,tiomsn2om3,"Deep vs Shallow",1,35,2020-07-08T14:55:47-07:00,5.0312769412994,8,versionC_stim.csv,VC_VersionD.csv,"Version D","VC Version D",LOVE,AFFECTION,Study2,B,115,173,VC,User,-,"How many vowels are the two words combined?|Type your response below and then press Enter.",Study/JOL,"Study Phase",4408,,,4067,4068,,,,6,1
5a5f7c21ac56240001543340,tiomsn2om3,"Deep vs Shallow",1,36,2020-07-08T14:55:49-07:00,2.6782381534576,8,versionC_stim.csv,VC_VersionD.csv,"Version D","VC Version D",JOKE,KEYS,Study2,U,165,103,VC,User,-,"How many vowels are the two words combined?|Type your response below and then press Enter.",Study/JOL,"Study Phase",2011,,,1752,1752,,,,3,1
5a5f7c21ac56240001543340,tiomsn2om3,"Deep vs Shallow",1,37,2020-07-08T14:55:55-07:00,5.7476689815521,8,versionC_stim.csv,VC_VersionD.csv,"Version D","VC Version D",SCISSORS,SHEARS,Study2,B,112,159,VC,User,-,"How many vowels are the two words combined?|Type your response below and then press Enter.",Study/JOL,"Study Phase",5144,,,4759,4759,,,,4,1
5a5f7c21ac56240001543340,tiomsn2om3,"Deep vs Shallow",1,38,2020-07-08T14:55:58-07:00,2.5928740501404,8,versionC_stim.csv,VC_VersionD.csv,"Version D","VC Version D",RED,CHERRY,Study2,B,104,152,VC,User,-,"How many vowels are the two words combined?|Type your response below and then press Enter.",Study/JOL,"Study Phase",1954,,,1723,1723,,,,2,1
5a5f7c21ac56240001543340,tiomsn2om3,"Deep vs Shallow",1,39,2020-07-08T14:56:03-07:00,5.6602568626404,8,versionC_stim.csv,VC_VersionD.csv,"Version D","VC Version D",PENGUIN,BIRD,Study2,F,119,129,VC,User,-,"How many vowels are the two words combined?|Type your response below and then press Enter.",Study/JOL,"Study Phase",3845,,,3484,3484,,,,4,1
5a5f7c21ac56240001543340,tiomsn2om3,"Deep vs Shallow",1,40,2020-07-08T14:56:11-07:00,7.0894241333008,8,versionC_stim.csv,VC_VersionD.csv,"Version D","VC Version D",Morning,TEMPERATURE,Study2,U,173,176,VC,User,-,"How many vowels are the two words combined?|Type your response below and then press Enter.",Study/JOL,"Study Phase",6470,,,6180,6180,,,,7,1
5a5f7c21ac56240001543340,tiomsn2om3,"Deep vs Shallow",1,41,2020-07-08T14:56:14-07:00,3.2840118408203,8,versionC_stim.csv,VC_VersionD.csv,"Version D","VC Version D",STEAK,GIVE,Study2,U,158,140,VC,User,-,"How many vowels are the two words combined?|Type your response below and then press Enter.",Study/JOL,"Study Phase",2669,,,2365,2365,,,,4,1
5a5f7c21ac56240001543340,tiomsn2om3,"Deep vs Shallow",1,42,2020-07-08T14:56:18-07:00,4.6549301147461,8,versionC_stim.csv,VC_VersionD.csv,"Version D","VC Version D",TRUTHFUL,HONEST,Study2,F,133,111,VC,User,-,"How many vowels are the two words combined?|Type your response below and then press Enter.",Study/JOL,"Study Phase",4019,,,3764,3764,,,,4,1
5a5f7c21ac56240001543340,tiomsn2om3,"Deep vs Shallow",1,43,2020-07-08T14:56:21-07:00,2.5393340587616,8,versionC_stim.csv,VC_VersionD.csv,"Version D","VC Version D",REEL,ROD,Study2,S,150,147,VC,User,-,"How many vowels are the two words combined?|Type your response below and then press Enter.",Study/JOL,"Study Phase",1944,,,1626,1626,,,,3,1
5a5f7c21ac56240001543340,tiomsn2om3,"Deep vs Shallow",1,44,2020-07-08T14:56:24-07:00,2.797914981842,8,versionC_stim.csv,VC_VersionD.csv,"Version D","VC Version D",SCAR,MAIN,Study2,U,175,162,VC,User,-,"How many vowels are the two words combined?|Type your response below and then press Enter.",Study/JOL,"Study Phase",2152,,,1851,1851,,,,3,1
5a5f7c21ac56240001543340,tiomsn2om3,"Deep vs Shallow",1,45,2020-07-08T14:56:28-07:00,4.5150418281555,8,versionC_stim.csv,VC_VersionD.csv,"Version D","VC Version D",WINDSHIELD,CAR,Study2,F,117,110,VC,User,-,"How many vowels are the two words combined?|Type your response below and then press Enter.",Study/JOL,"Study Phase",3912,,,3621,3622,,,,4,1
5a5f7c21ac56240001543340,tiomsn2om3,"Deep vs Shallow",1,46,2020-07-08T14:56:33-07:00,4.6120870113373,8,versionC_stim.csv,VC_VersionD.csv,"Version D","VC Version D",LEAGUE,BASEBALL,Study2,F,131,123,VC,User,-,"How many vowels are the two words combined?|Type your response below and then press Enter.",Study/JOL,"Study Phase",3963,,,3677,3677,,,,7,1
5a5f7c21ac56240001543340,tiomsn2om3,"Deep vs Shallow",1,47,2020-07-08T14:56:39-07:00,5.5692281723022,8,versionC_stim.csv,VC_VersionD.csv,"Version D","VC Version D",SHAVE,RAZOR,Study2,S,136,112,VC,User,-,"How many vowels are the two words combined?|Type your response below and then press Enter.",Study/JOL,"Study Phase",4942,,,4572,4572,,,,4,0.88
5a5f7c21ac56240001543340,tiomsn2om3,"Deep vs Shallow",1,48,2020-07-08T14:56:43-07:00,4.3513829708099,8,versionC_stim.csv,VC_VersionD.csv,"Version D","VC Version D",PAPER,DOCUMENT,Study2,B,109,165,VC,User,-,"How many vowels are the two words combined?|Type your response below and then press Enter.",Study/JOL,"Study Phase",3734,,,3350,3350,,,,5,1
5a5f7c21ac56240001543340,tiomsn2om3,"Deep vs Shallow",1,49,2020-07-08T14:56:46-07:00,3.130343914032,8,versionC_stim.csv,VC_VersionD.csv,"Version D","VC Version D",JAR,MASON,Study2,S,138,170,VC,User,-,"How many vowels are the two words combined?|Type your response below and then press Enter.",Study/JOL,"Study Phase",2520,,,2161,2161,,,,3,1
5a5f7c21ac56240001543340,tiomsn2om3,"Deep vs Shallow",1,50,2020-07-08T14:56:50-07:00,4.3581280708313,8,versionC_stim.csv,VC_VersionD.csv,"Version D","VC Version D",TEMPER,TANTRUM,Study2,S,154,99,VC,User,-,"How many vowels are the two words combined?|Type your response below and then press Enter.",Study/JOL,"Study Phase",3721,,,3435,3436,,,,4,1
5a5f7c21ac56240001543340,tiomsn2om3,"Deep vs Shallow",1,51,2020-07-08T14:56:53-07:00,3.1047070026398,8,versionC_stim.csv,VC_VersionD.csv,"Version D","VC Version D",TRASH,LITTER,Study2,B,103,142,VC,User,-,"How many vowels are the two words combined?|Type your response below and then press Enter.",Study/JOL,"Study Phase",2489,,,2234,2234,,,,3,1
5a5f7c21ac56240001543340,tiomsn2om3,"Deep vs Shallow",1,52,2020-07-08T14:56:57-07:00,3.3847329616547,8,versionC_stim.csv,VC_VersionD.csv,"Version D","VC Version D",NOISE,LOUD,Study2,S,152,172,VC,User,-,"How many vowels are the two words combined?|Type your response below and then press Enter.",Study/JOL,"Study Phase",2754,,,2393,2393,,,,5,1
5a5f7c21ac56240001543340,tiomsn2om3,"Deep vs Shallow",1,53,2020-07-08T14:57:00-07:00,3.2634389400482,8,versionC_stim.csv,VC_VersionD.csv,"Version D","VC Version D",PLANT,CACTUS,Study2,B,98,154,VC,User,-,"How many vowels are the two words combined?|Type your response below and then press Enter.",Study/JOL,"Study Phase",2657,,,2332,2332,,,,3,1
5a5f7c21ac56240001543340,tiomsn2om3,"Deep vs Shallow",1,54,2020-07-08T14:57:04-07:00,3.3914589881897,8,versionC_stim.csv,VC_VersionD.csv,"Version D","VC Version D",CLOTHES,CAKE,Study2,U,166,124,VC,User,-,"How many vowels are the two words combined?|Type your response below and then press Enter.",Study/JOL,"Study Phase",2747,,,2413,2413,,,,4,1
5a5f7c21ac56240001543340,tiomsn2om3,"Deep vs Shallow",1,55,2020-07-08T14:57:06-07:00,2.6992249488831,8,versionC_stim.csv,VC_VersionD.csv,"Version D","VC Version D",DOG,FURRY,Study2,B,102,121,VC,User,-,"How many vowels are the two words combined?|Type your response below and then press Enter.",Study/JOL,"Study Phase",2109,,,1669,1669,,,,2,1
5a5f7c21ac56240001543340,tiomsn2om3,"Deep vs Shallow",1,56,2020-07-08T14:57:09-07:00,3.2217500209808,8,versionC_stim.csv,VC_VersionD.csv,"Version D","VC Version D",HAVE,OWN,Study2,S,153,167,VC,User,-,"How many vowels are the two words combined?|Type your response below and then press Enter.",Study/JOL,"Study Phase",2597,,,2193,2193,,,,3,1
5a5f7c21ac56240001543340,tiomsn2om3,"Deep vs Shallow",1,57,2020-07-08T14:57:13-07:00,4.0678441524506,8,versionC_stim.csv,VC_VersionD.csv,"Version D","VC Version D",BRAWL,FIGHT,Study2,F,135,113,VC,User,-,"How many vowels are the two words combined?|Type your response below and then press Enter.",Study/JOL,"Study Phase",3449,,,3143,3143,,,,2,1
5a5f7c21ac56240001543340,tiomsn2om3,"Deep vs Shallow",1,58,2020-07-08T14:57:18-07:00,4.672572851181,8,versionC_stim.csv,VC_VersionD.csv,"Version D","VC Version D",ABLE,CRACKLE,Study2,U,162,156,VC,User,-,"How many vowels are the two words combined?|Type your response below and then press Enter.",Study/JOL,"Study Phase",4063,,,3714,3714,,,,4,1
5a5f7c21ac56240001543340,tiomsn2om3,"Deep vs Shallow",1,59,2020-07-08T14:57:24-07:00,5.8004240989685,8,versionC_stim.csv,VC_VersionD.csv,"Version D","VC Version D",THIMBLE,THREAD,Study2,F,121,132,VC,User,-,"How many vowels are the two words combined?|Type your response below and then press Enter.",Study/JOL,"Study Phase",4170,,,3795,3795,,,,4,1
5a5f7c21ac56240001543340,tiomsn2om3,"Deep vs Shallow",1,60,2020-07-08T14:57:29-07:00,4.6123850345612,8,versionC_stim.csv,VC_VersionD.csv,"Version D","VC Version D",MAROON,JUSTICE,Study2,U,156,109,VC,User,-,"How many vowels are the two words combined?|Type your response below and then press Enter.",Study/JOL,"Study Phase",3963,,,3670,3670,,,,5,1
5a5f7c21ac56240001543340,tiomsn2om3,"Deep vs Shallow",1,61,2020-07-08T14:57:34-07:00,5.1866340637207,8,versionC_stim.csv,VC_VersionD.csv,"Version D","VC Version D",CARBON,ELEMENT,Study2,S,141,145,VC,User,-,"How many vowels are the two words combined?|Type your response below and then press Enter.",Study/JOL,"Study Phase",4240,,,3522,3522,,,,5,1
5a5f7c21ac56240001543340,tiomsn2om3,"Deep vs Shallow",1,62,2020-07-08T14:57:38-07:00,3.9052767753601,8,versionC_stim.csv,VC_VersionD.csv,"Version D","VC Version D",OUNCE,BOTH,Study2,U,172,135,VC,User,-,"How many vowels are the two words combined?|Type your response below and then press Enter.",Study/JOL,"Study Phase",3276,,,2540,2540,,,,3,1
5a5f7c21ac56240001543340,tiomsn2om3,"Deep vs Shallow",1,63,2020-07-08T14:57:42-07:00,3.9284372329712,8,versionC_stim.csv,VC_VersionD.csv,"Version D","VC Version D",EAT,DINE,Study2,B,111,134,VC,User,-,"How many vowels are the two words combined?|Type your response below and then press Enter.",Study/JOL,"Study Phase",3316,,,2915,2916,,,,4,1
5a5f7c21ac56240001543340,tiomsn2om3,"Deep vs Shallow",1,64,2020-07-08T14:57:46-07:00,4.4676218032837,8,versionC_stim.csv,VC_VersionD.csv,"Version D","VC Version D",FLIP,TURN,Study2,F,116,153,VC,User,-,"How many vowels are the two words combined?|Type your response below and then press Enter.",Study/JOL,"Study Phase",3821,,,2865,2865,,,,2,1
5a5f7c21ac56240001543340,tiomsn2om3,"Deep vs Shallow",1,65,2020-07-08T14:57:52-07:00,6.0413241386414,8,versionC_stim.csv,VC_VersionD.csv,"Version D","VC Version D",BREAKABLE,GLASS,Study2,F,127,151,VC,User,-,"How many vowels are the two words combined?|Type your response below and then press Enter.",Study/JOL,"Study Phase",5409,,,4847,4847,,,,5,1
5a5f7c21ac56240001543340,tiomsn2om3,"Deep vs Shallow",1,66,2020-07-08T14:57:55-07:00,3.3615298271179,8,versionC_stim.csv,VC_VersionD.csv,"Version D","VC Version D",HEAD,SCALP,Study2,B,105,117,VC,User,-,"How many vowels are the two words combined?|Type your response below and then press Enter.",Study/JOL,"Study Phase",2641,,,2023,2023,,,,3,1
5a5f7c21ac56240001543340,tiomsn2om3,"Deep vs Shallow",1,67,2020-07-08T14:57:59-07:00,3.3584592342377,8,versionC_stim.csv,VC_VersionD.csv,"Version D","VC Version D",HATE,NAME,Study2,U,167,141,VC,User,-,"How many vowels are the two words combined?|Type your response below and then press Enter.",Study/JOL,"Study Phase",2728,,,2138,2138,,,,4,1
5a5f7c21ac56240001543340,tiomsn2om3,"Deep vs Shallow",1,68,2020-07-08T14:58:02-07:00,3.5645568370819,8,versionC_stim.csv,VC_VersionD.csv,"Version D","VC Version D",WAX,CANDLE,Study2,S,139,115,VC,User,-,"How many vowels are the two words combined?|Type your response below and then press Enter.",Study/JOL,"Study Phase",2903,,,2374,2374,,,,3,1
5a5f7c21ac56240001543340,tiomsn2om3,"Deep vs Shallow",1,69,2020-07-08T14:58:06-07:00,4.0374119281769,8,versionC_stim.csv,VC_VersionD.csv,"Version D","VC Version D",FICTION,LISTEN,Study2,U,164,163,VC,User,-,"How many vowels are the two words combined?|Type your response below and then press Enter.",Study/JOL,"Study Phase",3439,,,2871,2871,,,,4,1
5a5f7c21ac56240001543340,tiomsn2om3,"Deep vs Shallow",1,70,2020-07-08T14:58:13-07:00,6.6645081043243,8,versionC_stim.csv,VC_VersionD.csv,"Version D","VC Version D",LONG,EXTENSION,Study2,B,96,160,VC,User,-,"How many vowels are the two words combined?|Type your response below and then press Enter.",Study/JOL,"Study Phase",6023,,,5482,5482,,,,5,1
5a5f7c21ac56240001543340,tiomsn2om3,"Deep vs Shallow",1,71,2020-07-08T14:58:17-07:00,3.5364990234375,8,versionC_stim.csv,VC_VersionD.csv,"Version D","VC Version D",CLEAR,MOAT,Study2,U,169,146,VC,User,-,"How many vowels are the two words combined?|Type your response below and then press Enter.",Study/JOL,"Study Phase",2919,,,2719,2719,,,,4,1
5a5f7c21ac56240001543340,tiomsn2om3,"Deep vs Shallow",1,72,2020-07-08T14:58:21-07:00,3.9309570789337,8,versionC_stim.csv,VC_VersionD.csv,"Version D","VC Version D",DRINK,WATER,Study2,S,143,158,VC,User,-,"How many vowels are the two words combined?|Type your response below and then press Enter.",Study/JOL,"Study Phase",3301,,,2970,2970,,,,3,1
5a5f7c21ac56240001543340,tiomsn2om3,"Deep vs Shallow",1,73,2020-07-08T14:58:27-07:00,6.277979850769,8,versionC_stim.csv,VC_VersionD.csv,"Version D","VC Version D",STRAWBERRY,FRUIT,Study2,F,124,100,VC,User,-,"How many vowels are the two words combined?|Type your response below and then press Enter.",Study/JOL,"Study Phase",5665,,,5352,5352,,,,4,1
5a5f7c21ac56240001543340,tiomsn2om3,"Deep vs Shallow",1,74,2020-07-08T14:58:30-07:00,3.0940699577332,8,versionC_stim.csv,VC_VersionD.csv,"Version D","VC Version D",BANG,FUZZY,Study2,U,168,139,VC,User,-,"How many vowels are the two words combined?|Type your response below and then press Enter.",Study/JOL,"Study Phase",2370,,,2073,2073,,,,2,1
5a5f7c21ac56240001543340,tiomsn2om3,"Deep vs Shallow",1,75,2020-07-08T14:58:35-07:00,5.4948120117188,8,versionC_stim.csv,VC_VersionD.csv,"Version D","VC Version D",MYSTERY,DETECTIVE,Study2,B,100,127,VC,User,-,"How many vowels are the two words combined?|Type your response below and then press Enter.",Study/JOL,"Study Phase",4882,,,4552,4552,,,,5,1
5a5f7c21ac56240001543340,tiomsn2om3,"Deep vs Shallow",1,76,2020-07-08T14:58:40-07:00,4.8061800003052,8,versionC_stim.csv,VC_VersionD.csv,"Version D","VC Version D",SHAKE,Shell,Study2,U,163,148,VC,User,-,"How many vowels are the two words combined?|Type your response below and then press Enter.",Study/JOL,"Study Phase",4171,,,3296,3296,,,,3,1
5a5f7c21ac56240001543340,tiomsn2om3,"Deep vs Shallow",1,77,2020-07-08T14:58:47-07:00,6.5766730308533,8,versionC_stim.csv,VC_VersionD.csv,"Version D","VC Version D",COLD,CHILL,Study2,B,114,150,VC,User,-,"How many vowels are the two words combined?|Type your response below and then press Enter.",Study/JOL,"Study Phase",5951,,,5111,5111,,,,2,1
5a5f7c21ac56240001543340,tiomsn2om3,"Deep vs Shallow",1,78,2020-07-08T14:58:53-07:00,6.0898590087891,8,versionC_stim.csv,VC_VersionD.csv,"Version D","VC Version D",AIRCRAFT,PLANE,Study2,F,129,120,VC,User,-,"How many vowels are the two words combined?|Type your response below and then press Enter.",Study/JOL,"Study Phase",5463,,,4825,4825,,,,4,1
5a5f7c21ac56240001543340,tiomsn2om3,"Deep vs Shallow",1,79,2020-07-08T14:58:58-07:00,5.1811060905457,8,versionC_stim.csv,VC_VersionD.csv,"Version D","VC Version D",CLOTH,STRETCH,Study2,U,157,97,VC,User,-,"How many vowels are the two words combined?|Type your response below and then press Enter.",Study/JOL,"Study Phase",4540,,,3819,3819,,,,2,1
5a5f7c21ac56240001543340,tiomsn2om3,"Deep vs Shallow",1,80,2020-07-08T14:59:02-07:00,4.1001858711243,8,versionC_stim.csv,VC_VersionD.csv,"Version D","VC Version D",DONKEY,MULE,Study2,B,108,131,VC,User,-,"How many vowels are the two words combined?|Type your response below and then press Enter.",Study/JOL,"Study Phase",3411,,,2722,2722,,,,4,1
5a5f7c21ac56240001543340,tiomsn2om3,"Deep vs Shallow",1,81,2020-07-08T14:59:05-07:00,3.1966731548309,8,versionC_stim.csv,VC_VersionD.csv,"Version D","VC Version D",NAP,SLEEP,Study2,F,134,128,VC,User,-,"How many vowels are the two words combined?|Type your response below and then press Enter.",Study/JOL,"Study Phase",2582,,,2020,2020,,,,3,1
5a5f7c21ac56240001543340,tiomsn2om3,"Deep vs Shallow",1,82,2020-07-08T14:59:08-07:00,2.3819558620453,8,versionC_stim.csv,VC_VersionD.csv,"Version D","VC Version D",TAN,SUN,Study2,S,155,168,VC,User,-,"How many vowels are the two words combined?|Type your response below and then press Enter.",Study/JOL,"Study Phase",1733,,,1306,1306,,,,2,1
5a5f7c21ac56240001543340,tiomsn2om3,"Deep vs Shallow",1,83,2020-07-08T14:59:15-07:00,7.2381629943848,8,versionC_stim.csv,VC_VersionD.csv,"Version D","VC Version D",COMMUNICATION,PHONE,Study2,S,149,171,VC,User,-,"How many vowels are the two words combined?|Type your response below and then press Enter.",Study/JOL,"Study Phase",6632,,,6188,6188,,,,8,1
5a5f7c21ac56240001543340,tiomsn2om3,"Deep vs Shallow",1,84,2020-07-08T14:59:24-07:00,8.6854801177979,8,versionC_stim.csv,VC_VersionD.csv,"Version D","VC Version D",LONELY,ALONE,Study2,S,145,164,VC,User,-,"How many vowels are the two words combined?|Type your response below and then press Enter.",Study/JOL,"Study Phase",8058,,,7614,7614,,,,5,1
5a5f7c21ac56240001543340,tiomsn2om3,"Deep vs Shallow",1,85,2020-07-08T14:59:29-07:00,5.1113388538361,8,versionC_stim.csv,VC_VersionD.csv,"Version D","VC Version D",TIE,SHOELACE,Study2,B,99,116,VC,User,-,"How many vowels are the two words combined?|Type your response below and then press Enter.",Study/JOL,"Study Phase",4401,,,3923,3923,,,,6,1
5a5f7c21ac56240001543340,tiomsn2om3,"Deep vs Shallow",1,86,2020-07-08T14:59:32-07:00,3.3946380615234,8,versionC_stim.csv,VC_VersionD.csv,"Version D","VC Version D",TICK,FLEA,Study2,S,151,137,VC,User,-,"How many vowels are the two words combined?|Type your response below and then press Enter.",Study/JOL,"Study Phase",2777,,,2293,2293,,,,3,1
5a5f7c21ac56240001543340,tiomsn2om3,"Deep vs Shallow",1,87,2020-07-08T14:59:36-07:00,4.1306920051575,8,versionC_stim.csv,VC_VersionD.csv,"Version D","VC Version D",BANKER,MONEY,Study2,F,132,98,VC,User,-,"How many vowels are the two words combined?|Type your response below and then press Enter.",Study/JOL,"Study Phase",3528,,,2907,2907,,,,4,1
5a5f7c21ac56240001543340,tiomsn2om3,"Deep vs Shallow",1,88,2020-07-08T14:59:42-07:00,5.965539932251,8,versionC_stim.csv,VC_VersionD.csv,"Version D","VC Version D",FAVORITE,BEST,Study2,F,125,104,VC,User,-,"How many vowels are the two words combined?|Type your response below and then press Enter.",Study/JOL,"Study Phase",5335,,,4848,4848,,,,5,1
5a5f7c21ac56240001543340,tiomsn2om3,"Deep vs Shallow",1,89,2020-07-08T14:59:48-07:00,5.9764401912689,8,versionC_stim.csv,VC_VersionD.csv,"Version D","VC Version D",BRACELET,WRIST,Study2,S,140,102,VC,User,-,"How many vowels are the two words combined?|Type your response below and then press Enter.",Study/JOL,"Study Phase",5361,,,3981,3981,,,,4,1
5a5f7c21ac56240001543340,tiomsn2om3,"Deep vs Shallow",1,90,2020-07-08T14:59:54-07:00,5.3109579086304,8,versionC_stim.csv,VC_VersionD.csv,"Version D","VC Version D",SPOOKY,OCTOBER,BUFFER4,Buffer,180,180,VC,User,-,"How many vowels are the two words combined?|Type your response below and then press Enter.",Study/JOL,BUFFER2,4574,,,4100,4101,,,,5,1
5a5f7c21ac56240001543340,tiomsn2om3,"Deep vs Shallow",1,91,2020-07-08T14:59:59-07:00,5.5103349685669,8,versionC_stim.csv,VC_VersionD.csv,"Version D","VC Version D",MARCH,SPRING,BUFFER4,Buffer,179,177,VC,User,-,"How many vowels are the two words combined?|Type your response below and then press Enter.",Study/JOL,BUFFER2,3907,,,3409,3409,,,,2,1
5a5f7c21ac56240001543340,tiomsn2om3,"Deep vs Shallow",1,92,2020-07-08T15:00:04-07:00,5.2215149402618,8,versionC_stim.csv,VC_VersionD.csv,"Version D","VC Version D",WEAKS,DAYS,BUFFER4,Buffer,176,178,VC,User,-,"How many vowels are the two words combined?|Type your response below and then press Enter.",Study/JOL,BUFFER2,4577,,,3770,3771,,,,3,1
5a5f7c21ac56240001543340,tiomsn2om3,"Deep vs Shallow",1,93,2020-07-08T15:00:08-07:00,4.0966200828552,8,versionC_stim.csv,VC_VersionD.csv,"Version D","VC Version D",SHED,TOOL,BUFFER4,Buffer,178,181,VC,User,-,"How many vowels are the two words combined?|Type your response below and then press Enter.",Study/JOL,BUFFER2,3485,,,2190,2190,,,,3,1
5a5f7c21ac56240001543340,tiomsn2om3,"Deep vs Shallow",1,94,2020-07-08T15:00:11-07:00,2.9562349319458,8,versionC_stim.csv,VC_VersionD.csv,"Version D","VC Version D",YEAR,MONTH,BUFFER4,Buffer,177,179,VC,User,-,"How many vowels are the two words combined?|Type your response below and then press Enter.",Study/JOL,BUFFER2,2324,,,1976,1976,,,,3,1
5a5f7c21ac56240001543340,tiomsn2om3,"Deep vs Shallow",1,95,2020-07-08T15:00:13-07:00,1.6688780784607,8,versionC_stim.csv,VC_VersionD.csv,"Version D","VC Version D",,,,,,0,Instruct,User,-,"You have completed this section. Please press Enter.",Filler_Instruction,Instruct2,1160,,,-1,-1,,,,,1
5a5f7c21ac56240001543340,tiomsn2om3,"Deep vs Shallow",1,96,2020-07-08T15:02:14-07:00,120.71872496605,8,versionC_stim.csv,VC_VersionD.csv,"Version D","VC Version D",,,,,,0,FreeRecall,120,120,"Please list the 50 US states in alphabetical order. The task will automatically advance to the next screen after two minutes.",,Filler1,120004,"Gosh I have no idea... I'm from the UK. I'll do my best... Alabama Arkansas Chicago Detroit Florida Georgia Milwaukee New York New Jersey New Mexico Texas Utah Virginia Washington",0,7886,117639,0,0,,,1
5a5f7c21ac56240001543340,tiomsn2om3,"Deep vs Shallow",1,97,2020-07-08T15:02:31-07:00,17.674524068832,8,versionC_stim.csv,VC_VersionD.csv,"Version D","VC Version D",,,,,,0,Instruct,-,10,"You will now be presented with the first word from each of the previously studied item pairs. Please type the missing word. If you do not know the word, you may guess or press Enter to skip forward to the next pair.",,Instruct3,17036,,,-1,-1,,,,,1
5a5f7c21ac56240001543340,tiomsn2om3,"Deep vs Shallow",1,98,2020-07-08T15:02:37-07:00,5.2943539619446,8,versionC_stim.csv,VC_VersionD.csv,"Version D","VC Version D",TICK,FLEA,Study2,S,151,137,Test,User,-,,Recall,Recall1,4637,Flea,100,3230,3956,1,1,,,1
5a5f7c21ac56240001543340,tiomsn2om3,"Deep vs Shallow",1,99,2020-07-08T15:02:41-07:00,4.1222450733185,8,versionC_stim.csv,VC_VersionD.csv,"Version D","VC Version D",JAR,MASON,Study2,S,138,170,Test,User,-,,Recall,Recall1,3509,pass,44.444444444444,2359,3158,0,0,,,1
5a5f7c21ac56240001543340,tiomsn2om3,"Deep vs Shallow",1,100,2020-07-08T15:02:46-07:00,4.8796589374542,8,versionC_stim.csv,VC_VersionD.csv,"Version D","VC Version D",VILLAIN,BAD,Study2,F,118,136,Test,User,-,,Recall,Recall1,4219,pass,28.571428571429,3307,3805,0,0,,,1
5a5f7c21ac56240001543340,tiomsn2om3,"Deep vs Shallow",1,101,2020-07-08T15:02:49-07:00,3.7146410942078,8,versionC_stim.csv,VC_VersionD.csv,"Version D","VC Version D",SMELL,INCENSE,Study2,B,110,107,Test,User,-,,Recall,Recall1,3080,pass,18.181818181818,2258,2722,0,0,,,1
5a5f7c21ac56240001543340,tiomsn2om3,"Deep vs Shallow",1,102,2020-07-08T15:02:53-07:00,3.1638758182526,8,versionC_stim.csv,VC_VersionD.csv,"Version D","VC Version D",BANG,FUZZY,Study2,U,168,139,Test,User,-,,Recall,Recall1,2526,pass,0,1702,2143,0,0,,,1
5a5f7c21ac56240001543340,tiomsn2om3,"Deep vs Shallow",1,103,2020-07-08T15:02:57-07:00,4.2938079833984,8,versionC_stim.csv,VC_VersionD.csv,"Version D","VC Version D",GAME,CLUE,Study2,B,97,106,Test,User,-,,Recall,Recall1,3681,pass,0,1806,2230,0,0,,,1
5a5f7c21ac56240001543340,tiomsn2om3,"Deep vs Shallow",1,104,2020-07-08T15:03:02-07:00,4.7747139930725,8,versionC_stim.csv,VC_VersionD.csv,"Version D","VC Version D",LIE,TRUTH,Study2,S,148,108,Test,User,-,,Recall,Recall1,4130,Truth,100,1797,3402,1,1,,,1
5a5f7c21ac56240001543340,tiomsn2om3,"Deep vs Shallow",1,105,2020-07-08T15:03:09-07:00,7.3384091854095,8,versionC_stim.csv,VC_VersionD.csv,"Version D","VC Version D",COMMUNICATION,PHONE,Study2,S,149,171,Test,User,-,,Recall,Recall1,6710,Silence,16.666666666667,2797,5387,0,0,,,1
5a5f7c21ac56240001543340,tiomsn2om3,"Deep vs Shallow",1,106,2020-07-08T15:03:14-07:00,4.5895450115204,8,versionC_stim.csv,VC_VersionD.csv,"Version D","VC Version D",BRAWL,FIGHT,Study2,F,135,113,Test,User,-,,Recall,Recall1,2933,pass,0,2197,2581,0,0,,,1
5a5f7c21ac56240001543340,tiomsn2om3,"Deep vs Shallow",1,107,2020-07-08T15:03:19-07:00,5.1446678638458,8,versionC_stim.csv,VC_VersionD.csv,"Version D","VC Version D",AIRCRAFT,PLANE,Study2,F,129,120,Test,User,-,,Recall,Recall1,4509,flight,18.181818181818,2614,4062,0,0,,,1
5a5f7c21ac56240001543340,tiomsn2om3,"Deep vs Shallow",1,108,2020-07-08T15:03:22-07:00,2.9660890102386,8,versionC_stim.csv,VC_VersionD.csv,"Version D","VC Version D",WAX,CANDLE,Study2,S,139,115,Test,User,-,,Recall,Recall1,2319,pass,20,1576,1971,0,0,,,1
5a5f7c21ac56240001543340,tiomsn2om3,"Deep vs Shallow",1,109,2020-07-08T15:03:26-07:00,4.3708970546722,8,versionC_stim.csv,VC_VersionD.csv,"Version D","VC Version D",TAN,SUN,Study2,S,155,168,Test,User,-,,Recall,Recall1,3758,SUN,100,1886,2370,1,1,,,1
5a5f7c21ac56240001543340,tiomsn2om3,"Deep vs Shallow",1,110,2020-07-08T15:03:29-07:00,3.1446669101715,8,versionC_stim.csv,VC_VersionD.csv,"Version D","VC Version D",LOVE,AFFECTION,Study2,B,115,173,Test,User,-,,Recall,Recall1,2472,HATE,30.769230769231,1446,1863,0,0,,,1
5a5f7c21ac56240001543340,tiomsn2om3,"Deep vs Shallow",1,111,2020-07-08T15:03:33-07:00,3.8390510082245,8,versionC_stim.csv,VC_VersionD.csv,"Version D","VC Version D",CUT,CHOP,Study2,B,107,157,Test,User,-,,Recall,Recall1,3242,Paste,22.222222222222,1419,1996,0,0,,,1
5a5f7c21ac56240001543340,tiomsn2om3,"Deep vs Shallow",1,112,2020-07-08T15:03:38-07:00,5.2675831317902,8,versionC_stim.csv,VC_VersionD.csv,"Version D","VC Version D",COFFIN,DEAD,Study2,F,128,169,Test,User,-,,Recall,Recall1,4613,Death,66.666666666667,2880,3876,0,0,,,1
5a5f7c21ac56240001543340,tiomsn2om3,"Deep vs Shallow",1,113,2020-07-08T15:03:44-07:00,5.3732059001923,8,versionC_stim.csv,VC_VersionD.csv,"Version D","VC Version D",SIGN,LOAN,Study2,U,171,155,Test,User,-,,Recall,Recall1,4748,Post,25,2520,4182,0,0,,,1
5a5f7c21ac56240001543340,tiomsn2om3,"Deep vs Shallow",1,114,2020-07-08T15:03:47-07:00,3.0429520606995,8,versionC_stim.csv,VC_VersionD.csv,"Version D","VC Version D",COLD,CHILL,Study2,B,114,150,Test,User,-,,Recall,Recall1,2424,HOT,25,1492,1811,0,0,,,1
5a5f7c21ac56240001543340,tiomsn2om3,"Deep vs Shallow",1,115,2020-07-08T15:03:51-07:00,4.465705871582,8,versionC_stim.csv,VC_VersionD.csv,"Version D","VC Version D",EAT,DINE,Study2,B,111,134,Test,User,-,,Recall,Recall1,3882,pass,0,2986,3478,0,0,,,1
5a5f7c21ac56240001543340,tiomsn2om3,"Deep vs Shallow",1,116,2020-07-08T15:03:55-07:00,3.6444401741028,8,versionC_stim.csv,VC_VersionD.csv,"Version D","VC Version D",CAR,DRIVER,Study2,B,106,133,Test,User,-,,Recall,Recall1,2995,wash,0,1902,2345,0,0,,,1
5a5f7c21ac56240001543340,tiomsn2om3,"Deep vs Shallow",1,117,2020-07-08T15:04:00-07:00,5.4693138599396,8,versionC_stim.csv,VC_VersionD.csv,"Version D","VC Version D",LONELY,ALONE,Study2,S,145,164,Test,User,-,,Recall,Recall1,4826,pass,22.222222222222,2992,4492,0,0,,,1
5a5f7c21ac56240001543340,tiomsn2om3,"Deep vs Shallow",1,118,2020-07-08T15:04:05-07:00,4.540137052536,8,versionC_stim.csv,VC_VersionD.csv,"Version D","VC Version D",TEMPER,TANTRUM,Study2,S,154,99,Test,User,-,,Recall,Recall1,3882,pass,18.181818181818,3076,3483,0,0,,,1
5a5f7c21ac56240001543340,tiomsn2om3,"Deep vs Shallow",1,119,2020-07-08T15:04:09-07:00,4.6113059520721,8,versionC_stim.csv,VC_VersionD.csv,"Version D","VC Version D",MYSTERY,DETECTIVE,Study2,B,100,127,Test,User,-,,Recall,Recall1,2762,pass,0,1639,2329,0,0,,,1
5a5f7c21ac56240001543340,tiomsn2om3,"Deep vs Shallow",1,120,2020-07-08T15:04:14-07:00,4.1579260826111,8,versionC_stim.csv,VC_VersionD.csv,"Version D","VC Version D",HATE,NAME,Study2,U,167,141,Test,User,-,,Recall,Recall1,3522,love,25,1826,2414,0,0,,,1
5a5f7c21ac56240001543340,tiomsn2om3,"Deep vs Shallow",1,121,2020-07-08T15:04:18-07:00,4.4759888648987,8,versionC_stim.csv,VC_VersionD.csv,"Version D","VC Version D",AWAY,GONE,Study2,S,142,138,Test,User,-,,Recall,Recall1,3841,home,50,2737,3270,0,0,,,1
5a5f7c21ac56240001543340,tiomsn2om3,"Deep vs Shallow",1,122,2020-07-08T15:04:23-07:00,4.9727861881256,8,versionC_stim.csv,VC_VersionD.csv,"Version D","VC Version D",NOISE,LOUD,Study2,S,152,172,Test,User,-,,Recall,Recall1,4325,pass,0,2246,3932,0,0,,,1
5a5f7c21ac56240001543340,tiomsn2om3,"Deep vs Shallow",1,123,2020-07-08T15:04:28-07:00,5.0476410388947,8,versionC_stim.csv,VC_VersionD.csv,"Version D","VC Version D",TIE,SHOELACE,Study2,B,99,116,Test,User,-,,Recall,Recall1,3295,pass,16.666666666667,1978,2476,0,0,,,1
5a5f7c21ac56240001543340,tiomsn2om3,"Deep vs Shallow",1,124,2020-07-08T15:04:32-07:00,4.1990439891815,8,versionC_stim.csv,VC_VersionD.csv,"Version D","VC Version D",STRAWBERRY,FRUIT,Study2,F,124,100,Test,User,-,,Recall,Recall1,3578,pass,0,1990,2578,0,0,,,1
5a5f7c21ac56240001543340,tiomsn2om3,"Deep vs Shallow",1,125,2020-07-08T15:04:38-07:00,5.84392786026,8,versionC_stim.csv,VC_VersionD.csv,"Version D","VC Version D",TRUTHFUL,HONEST,Study2,F,133,111,Test,User,-,,Recall,Recall1,5228,deceit,33.333333333333,3054,4759,0,0,,,1
5a5f7c21ac56240001543340,tiomsn2om3,"Deep vs Shallow",1,126,2020-07-08T15:04:44-07:00,5.6686811447144,8,versionC_stim.csv,VC_VersionD.csv,"Version D","VC Version D",HAVE,OWN,Study2,S,153,167,Test,User,-,,Recall,Recall1,4952,pass,0,3843,4471,0,0,,,1
5a5f7c21ac56240001543340,tiomsn2om3,"Deep vs Shallow",1,127,2020-07-08T15:04:48-07:00,4.1986219882965,8,versionC_stim.csv,VC_VersionD.csv,"Version D","VC Version D",ABLE,CRACKLE,Study2,U,162,156,Test,User,-,,Recall,Recall1,3573,unable,46.153846153846,2293,3062,0,0,,,1
5a5f7c21ac56240001543340,tiomsn2om3,"Deep vs Shallow",1,128,2020-07-08T15:04:51-07:00,3.2723858356476,8,versionC_stim.csv,VC_VersionD.csv,"Version D","VC Version D",PAPER,DOCUMENT,Study2,B,109,165,Test,User,-,,Recall,Recall1,2632,pass,0,1825,2285,0,0,,,1
5a5f7c21ac56240001543340,tiomsn2om3,"Deep vs Shallow",1,129,2020-07-08T15:04:54-07:00,2.5563759803772,8,versionC_stim.csv,VC_VersionD.csv,"Version D","VC Version D",OUNCE,BOTH,Study2,U,172,135,Test,User,-,,Recall,Recall1,1953,pass,0,1197,1644,0,0,,,1
5a5f7c21ac56240001543340,tiomsn2om3,"Deep vs Shallow",1,130,2020-07-08T15:04:56-07:00,2.4184820652008,8,versionC_stim.csv,VC_VersionD.csv,"Version D","VC Version D",SHAKE,Shell,Study2,U,163,148,Test,User,-,,Recall,Recall1,1786,pass,22.222222222222,1013,1508,0,0,,,1
5a5f7c21ac56240001543340,tiomsn2om3,"Deep vs Shallow",1,131,2020-07-08T15:04:59-07:00,3.1924340724945,8,versionC_stim.csv,VC_VersionD.csv,"Version D","VC Version D",DONKEY,MULE,Study2,B,108,131,Test,User,-,,Recall,Recall1,2600,pass,0,1727,2197,0,0,,,1
5a5f7c21ac56240001543340,tiomsn2om3,"Deep vs Shallow",1,132,2020-07-08T15:05:03-07:00,3.6565878391266,8,versionC_stim.csv,VC_VersionD.csv,"Version D","VC Version D",HEAD,SCALP,Study2,B,105,117,Test,User,-,,Recall,Recall1,3022,pass,22.222222222222,1417,2665,0,0,,,1
5a5f7c21ac56240001543340,tiomsn2om3,"Deep vs Shallow",1,133,2020-07-08T15:05:08-07:00,4.3775610923767,8,versionC_stim.csv,VC_VersionD.csv,"Version D","VC Version D",BANKER,MONEY,Study2,F,132,98,Test,User,-,,Recall,Recall1,3694,pass,0,1144,1594,0,0,,,1
5a5f7c21ac56240001543340,tiomsn2om3,"Deep vs Shallow",1,134,2020-07-08T15:05:12-07:00,4.1624479293823,8,versionC_stim.csv,VC_VersionD.csv,"Version D","VC Version D",FICTION,LISTEN,Study2,U,164,163,Test,User,-,,Recall,Recall1,3499,fact,20,2452,2881,0,0,,,1
5a5f7c21ac56240001543340,tiomsn2om3,"Deep vs Shallow",1,135,2020-07-08T15:05:16-07:00,3.8318510055542,8,versionC_stim.csv,VC_VersionD.csv,"Version D","VC Version D",CARBON,ELEMENT,Study2,S,141,145,Test,User,-,,Recall,Recall1,3220,pass,0,2040,2934,0,0,,,1
5a5f7c21ac56240001543340,tiomsn2om3,"Deep vs Shallow",1,136,2020-07-08T15:05:24-07:00,8.5856850147247,8,versionC_stim.csv,VC_VersionD.csv,"Version D","VC Version D",REVENGE,EVEN,Study2,F,122,144,Test,User,-,,Recall,Recall1,7944,pass,0,6727,7208,0,0,,,0.84
5a5f7c21ac56240001543340,tiomsn2om3,"Deep vs Shallow",1,137,2020-07-08T15:05:28-07:00,3.5002291202545,8,versionC_stim.csv,VC_VersionD.csv,"Version D","VC Version D",Morning,TEMPERATURE,Study2,U,173,176,Test,User,-,,Recall,Recall1,2834,night,12.5,1766,2267,0,0,,,1
5a5f7c21ac56240001543340,tiomsn2om3,"Deep vs Shallow",1,138,2020-07-08T15:05:32-07:00,4.2606379985809,8,versionC_stim.csv,VC_VersionD.csv,"Version D","VC Version D",CHARM,VEHICLE,Study2,U,160,122,Test,User,-,,Recall,Recall1,3574,pass,0,2827,3260,0,0,,,1
5a5f7c21ac56240001543340,tiomsn2om3,"Deep vs Shallow",1,139,2020-07-08T15:05:37-07:00,5.5240950584412,8,versionC_stim.csv,VC_VersionD.csv,"Version D","VC Version D",JOKE,KEYS,Study2,U,165,103,Test,User,-,,Recall,Recall1,4912,pass,25,2580,4564,0,0,,,1
5a5f7c21ac56240001543340,tiomsn2om3,"Deep vs Shallow",1,140,2020-07-08T15:05:41-07:00,3.8724708557129,8,versionC_stim.csv,VC_VersionD.csv,"Version D","VC Version D",CHILDREN,MIRROR,Study2,U,174,166,Test,User,-,,Recall,Recall1,3242,adults,0,1721,2690,0,0,,,1
5a5f7c21ac56240001543340,tiomsn2om3,"Deep vs Shallow",1,141,2020-07-08T15:05:44-07:00,3.0603809356689,8,versionC_stim.csv,VC_VersionD.csv,"Version D","VC Version D",ELECTION,MAZE,Study2,U,159,174,Test,User,-,,Recall,Recall1,2439,pass,25,1664,2122,0,0,,,1
5a5f7c21ac56240001543340,tiomsn2om3,"Deep vs Shallow",1,142,2020-07-08T15:05:49-07:00,4.2080240249634,8,versionC_stim.csv,VC_VersionD.csv,"Version D","VC Version D",MAROON,JUSTICE,Study2,U,156,109,Test,User,-,,Recall,Recall1,3583,pass,18.181818181818,2770,3231,0,0,,,1
5a5f7c21ac56240001543340,tiomsn2om3,"Deep vs Shallow",1,143,2020-07-08T15:05:52-07:00,3.9328110218048,8,versionC_stim.csv,VC_VersionD.csv,"Version D","VC Version D",PLANT,CACTUS,Study2,B,98,154,Test,User,-,,Recall,Recall1,3327,animal,16.666666666667,1933,2755,0,0,,,1
5a5f7c21ac56240001543340,tiomsn2om3,"Deep vs Shallow",1,144,2020-07-08T15:05:57-07:00,4.6584639549255,8,versionC_stim.csv,VC_VersionD.csv,"Version D","VC Version D",OBTAIN,MEAT,Study2,U,161,118,Test,User,-,,Recall,Recall1,4043,pass,25,3158,3823,0,0,,,1
5a5f7c21ac56240001543340,tiomsn2om3,"Deep vs Shallow",1,145,2020-07-08T15:06:00-07:00,2.5938651561737,8,versionC_stim.csv,VC_VersionD.csv,"Version D","VC Version D",FLIP,TURN,Study2,F,116,153,Test,User,-,,Recall,Recall1,1984,pass,0,1213,1655,0,0,,,1
5a5f7c21ac56240001543340,tiomsn2om3,"Deep vs Shallow",1,146,2020-07-08T15:06:03-07:00,3.2205410003662,8,versionC_stim.csv,VC_VersionD.csv,"Version D","VC Version D",DRINK,WATER,Study2,S,143,158,Test,User,-,,Recall,Recall1,2480,food,0,1593,1968,0,0,,,1
5a5f7c21ac56240001543340,tiomsn2om3,"Deep vs Shallow",1,147,2020-07-08T15:06:06-07:00,3.4803729057312,8,versionC_stim.csv,VC_VersionD.csv,"Version D","VC Version D",BREAKABLE,GLASS,Study2,F,127,151,Test,User,-,,Recall,Recall1,2863,pass,66.666666666667,2066,2505,0,0,,,1
5a5f7c21ac56240001543340,tiomsn2om3,"Deep vs Shallow",1,148,2020-07-08T15:06:10-07:00,3.7139420509338,8,versionC_stim.csv,VC_VersionD.csv,"Version D","VC Version D",WINDSHIELD,CAR,Study2,F,117,110,Test,User,-,,Recall,Recall1,3090,car,100,1984,2442,1,1,,,1
5a5f7c21ac56240001543340,tiomsn2om3,"Deep vs Shallow",1,149,2020-07-08T15:06:20-07:00,9.571790933609,8,versionC_stim.csv,VC_VersionD.csv,"Version D","VC Version D",TRASH,LITTER,Study2,B,103,142,Test,User,-,,Recall,Recall1,8854,pass,0,7245,7727,0,0,,,1
5a5f7c21ac56240001543340,tiomsn2om3,"Deep vs Shallow",1,150,2020-07-08T15:06:24-07:00,4.1269290447235,8,versionC_stim.csv,VC_VersionD.csv,"Version D","VC Version D",REEL,ROD,Study2,S,150,147,Test,User,-,,Recall,Recall1,3389,movie,25,1468,2907,0,0,,,1
5a5f7c21ac56240001543340,tiomsn2om3,"Deep vs Shallow",1,151,2020-07-08T15:06:27-07:00,3.001394033432,8,versionC_stim.csv,VC_VersionD.csv,"Version D","VC Version D",STEAK,GIVE,Study2,U,158,140,Test,User,-,,Recall,Recall1,2391,pass,0,1426,1935,0,0,,,1
5a5f7c21ac56240001543340,tiomsn2om3,"Deep vs Shallow",1,152,2020-07-08T15:06:30-07:00,3.414717912674,8,versionC_stim.csv,VC_VersionD.csv,"Version D","VC Version D",FIGHT,FEUD,Study2,B,113,105,Test,User,-,,Recall,Recall1,2787,flight,20,1729,2293,0,0,,,1
5a5f7c21ac56240001543340,tiomsn2om3,"Deep vs Shallow",1,153,2020-07-08T15:06:35-07:00,4.6181039810181,8,versionC_stim.csv,VC_VersionD.csv,"Version D","VC Version D",LEAGUE,BASEBALL,Study2,F,131,123,Test,User,-,,Recall,Recall1,3009,football,50,768,2463,0,0,,,1
5a5f7c21ac56240001543340,tiomsn2om3,"Deep vs Shallow",1,154,2020-07-08T15:06:38-07:00,3.4523231983185,8,versionC_stim.csv,VC_VersionD.csv,"Version D","VC Version D",END,ADJOURN,Study2,B,101,161,Test,User,-,,Recall,Recall1,2813,begin,16.666666666667,1607,2227,0,0,,,1
5a5f7c21ac56240001543340,tiomsn2om3,"Deep vs Shallow",1,155,2020-07-08T15:06:42-07:00,3.3271048069,8,versionC_stim.csv,VC_VersionD.csv,"Version D","VC Version D",THIMBLE,THREAD,Study2,F,121,132,Test,User,-,,Recall,Recall1,2715,pass,20,790,2360,0,0,,,1
5a5f7c21ac56240001543340,tiomsn2om3,"Deep vs Shallow",1,156,2020-07-08T15:06:45-07:00,3.1216781139374,8,versionC_stim.csv,VC_VersionD.csv,"Version D","VC Version D",CLEAR,MOAT,Study2,U,169,146,Test,User,-,,Recall,Recall1,2496,pass,25,1075,1481,0,0,,,1
5a5f7c21ac56240001543340,tiomsn2om3,"Deep vs Shallow",1,157,2020-07-08T15:06:48-07:00,3.4211418628693,8,versionC_stim.csv,VC_VersionD.csv,"Version D","VC Version D",SHAVE,RAZOR,Study2,S,136,112,Test,User,-,,Recall,Recall1,2832,pass,22.222222222222,1887,2328,0,0,,,1
5a5f7c21ac56240001543340,tiomsn2om3,"Deep vs Shallow",1,158,2020-07-08T15:06:51-07:00,3.0694150924683,8,versionC_stim.csv,VC_VersionD.csv,"Version D","VC Version D",CLOTHES,CAKE,Study2,U,166,124,Test,User,-,,Recall,Recall1,2438,pass,25,1216,1629,0,0,,,1
5a5f7c21ac56240001543340,tiomsn2om3,"Deep vs Shallow",1,159,2020-07-08T15:06:55-07:00,3.4313108921051,8,versionC_stim.csv,VC_VersionD.csv,"Version D","VC Version D",SCISSORS,SHEARS,Study2,B,112,159,Test,User,-,,Recall,Recall1,2829,pass,40,1837,2429,0,0,,,1
5a5f7c21ac56240001543340,tiomsn2om3,"Deep vs Shallow",1,160,2020-07-08T15:07:01-07:00,6.6532371044159,8,versionC_stim.csv,VC_VersionD.csv,"Version D","VC Version D",PANTHER,CAT,Study2,F,126,101,Test,User,-,,Recall,Recall1,6023,pass,28.571428571429,4843,5382,0,0,,,1
5a5f7c21ac56240001543340,tiomsn2om3,"Deep vs Shallow",1,161,2020-07-08T15:07:04-07:00,2.8048748970032,8,versionC_stim.csv,VC_VersionD.csv,"Version D","VC Version D",CLOTH,STRETCH,Study2,U,157,97,Test,User,-,,Recall,Recall1,2165,pass,18.181818181818,1263,1651,0,0,,,1
5a5f7c21ac56240001543340,tiomsn2om3,"Deep vs Shallow",1,162,2020-07-08T15:07:07-07:00,2.8381690979004,8,versionC_stim.csv,VC_VersionD.csv,"Version D","VC Version D",WET,DRY,Study2,S,146,143,Test,User,-,,Recall,Recall1,2196,dry,100,1231,1563,1,1,,,1
5a5f7c21ac56240001543340,tiomsn2om3,"Deep vs Shallow",1,163,2020-07-08T15:07:31-07:00,24.25087594986,8,versionC_stim.csv,VC_VersionD.csv,"Version D","VC Version D",NAP,SLEEP,Study2,F,134,128,Test,User,-,,Recall,Recall1,22613,sleep,100,21357,21874,1,1,,,1
5a5f7c21ac56240001543340,tiomsn2om3,"Deep vs Shallow",1,164,2020-07-08T15:07:37-07:00,6.198979139328,8,versionC_stim.csv,VC_VersionD.csv,"Version D","VC Version D",PENGUIN,BIRD,Study2,F,119,129,Test,User,-,,Recall,Recall1,5552,pass,0,3716,4990,0,0,,,1
5a5f7c21ac56240001543340,tiomsn2om3,"Deep vs Shallow",1,165,2020-07-08T15:07:42-07:00,4.4428098201752,8,versionC_stim.csv,VC_VersionD.csv,"Version D","VC Version D",BALLOON,POP,Study2,F,123,126,Test,User,-,,Recall,Recall1,3842,pass,28.571428571429,2935,3392,0,0,,,1
5a5f7c21ac56240001543340,tiomsn2om3,"Deep vs Shallow",1,166,2020-07-08T15:08:15-07:00,32.875027179718,8,versionC_stim.csv,VC_VersionD.csv,"Version D","VC Version D",SARDINE,FISH,Study2,F,130,130,Test,User,-,,Recall,Recall1,32231,fish,100,19167,19513,1,1,,,1
5a5f7c21ac56240001543340,tiomsn2om3,"Deep vs Shallow",1,167,2020-07-08T15:08:26-07:00,11.224366903305,8,versionC_stim.csv,VC_VersionD.csv,"Version D","VC Version D",ACTRESS,STAR,Study2,F,120,125,Test,User,-,,Recall,Recall1,10520,actor,44.444444444444,9304,9992,0,0,,,1
5a5f7c21ac56240001543340,tiomsn2om3,"Deep vs Shallow",1,168,2020-07-08T15:08:29-07:00,3.4754951000214,8,versionC_stim.csv,VC_VersionD.csv,"Version D","VC Version D",TOIL,LEASE,Study2,U,170,175,Test,User,-,,Recall,Recall1,2782,,0,-1,-1,0,0,,,1
5a5f7c21ac56240001543340,tiomsn2om3,"Deep vs Shallow",1,169,2020-07-08T15:08:34-07:00,4.4265418052673,8,versionC_stim.csv,VC_VersionD.csv,"Version D","VC Version D",FAVORITE,BEST,Study2,F,125,104,Test,User,-,,Recall,Recall1,3809,pass,25,2784,3233,0,0,,,1
5a5f7c21ac56240001543340,tiomsn2om3,"Deep vs Shallow",1,170,2020-07-08T15:08:37-07:00,3.4289610385895,8,versionC_stim.csv,VC_VersionD.csv,"Version D","VC Version D",LONG,EXTENSION,Study2,B,96,160,Test,User,-,,Recall,Recall1,2795,short,28.571428571429,1688,2398,0,0,,,1
5a5f7c21ac56240001543340,tiomsn2om3,"Deep vs Shallow",1,171,2020-07-08T15:08:41-07:00,3.9286460876465,8,versionC_stim.csv,VC_VersionD.csv,"Version D","VC Version D",SCAR,MAIN,Study2,U,175,162,Test,User,-,,Recall,Recall1,3322,tissue,20,1259,2893,0,0,,,1
5a5f7c21ac56240001543340,tiomsn2om3,"Deep vs Shallow",1,172,2020-07-08T15:08:44-07:00,2.6096119880676,8,versionC_stim.csv,VC_VersionD.csv,"Version D","VC Version D",BRACELET,WRIST,Study2,S,140,102,Test,User,-,,Recall,Recall1,1988,pass,22.222222222222,1036,1490,0,0,,,1
5a5f7c21ac56240001543340,tiomsn2om3,"Deep vs Shallow",1,173,2020-07-08T15:08:47-07:00,3.4113609790802,8,versionC_stim.csv,VC_VersionD.csv,"Version D","VC Version D",DOG,FURRY,Study2,B,102,121,Test,User,-,,Recall,Recall1,2804,cat,0,1038,2310,0,0,,,1
5a5f7c21ac56240001543340,tiomsn2om3,"Deep vs Shallow",1,174,2020-07-08T15:08:58-07:00,10.272304058075,8,versionC_stim.csv,VC_VersionD.csv,"Version D","VC Version D",EQUAL,RIGHTS,Study2,S,137,149,Test,User,-,,Recall,Recall1,9609,pass,20,7981,8882,0,0,,,1
5a5f7c21ac56240001543340,tiomsn2om3,"Deep vs Shallow",1,175,2020-07-08T15:09:32-07:00,34.889217853546,8,versionC_stim.csv,VC_VersionD.csv,"Version D","VC Version D",SEATBELT,SAFETY,Study2,S,147,119,Test,User,-,,Recall,Recall1,34290,car,22.222222222222,33069,33647,0,0,,,1
5a5f7c21ac56240001543340,tiomsn2om3,"Deep vs Shallow",1,176,2020-07-08T15:10:36-07:00,63.378882169724,8,versionC_stim.csv,VC_VersionD.csv,"Version D","VC Version D",RED,CHERRY,Study2,B,104,152,Test,User,-,,Recall,Recall1,61696,blue,20,59097,61139,0,0,,,1
5a5f7c21ac56240001543340,tiomsn2om3,"Deep vs Shallow",1,177,2020-07-08T15:12:46-07:00,130.15425801277,8,versionC_stim.csv,VC_VersionD.csv,"Version D","VC Version D",GROUND,EARTH,Study2,S,144,114,Test,User,-,,Recall,Recall1,129524,cover,40,125960,129104,0,0,,,1
5a5f7c21ac56240001543340,tiomsn2om3,"Deep vs Shallow",1,178,2020-07-08T15:13:02-07:00,16.216857910156,8,versionC_stim.csv,VC_VersionD.csv,"Version D","VC Version D",,,,,,0,Instruct,-,10,"You will now be presented with a new set of word pairs. Please study each pair. Remember that your memory will be tested! When finished, press Enter to move to the next pair.",Initial_Instruct,Instruct4,15522,,,-1,-1,,,,,1
5a5f7c21ac56240001543340,tiomsn2om3,"Deep vs Shallow",1,179,2020-07-08T15:13:23-07:00,20.893618106842,8,versionC_stim.csv,VC_VersionD.csv,"Version D","VC Version D",,,,,,0,Instruct,,10,"You will again be asked to count how many vowels the two words contain. Please remember to type this number in the space below each pair.",,Instruct10,20273,,,-1,-1,,,,,1
5a5f7c21ac56240001543340,tiomsn2om3,"Deep vs Shallow",1,180,2020-07-08T15:13:25-07:00,1.5535929203033,8,versionC_stim.csv,VC_VersionD.csv,"Version D","VC Version D",,,,,,0,Instruct,User,-,"Press Enter when you are readty to begin",,Instruct11,1027,,,-1,-1,,,,,1
5a5f7c21ac56240001543340,tiomsn2om3,"Deep vs Shallow",1,181,2020-07-08T15:13:31-07:00,6.5878601074219,8,versionC_stim.csv,VC_VersionD.csv,"Version D","VC Version D",BUTTER,PEANUT,BUFFER1,Buffer,3,4,VC,User,-,"How many vowels are the two words combined?|Type your response below and then press Enter.",Study/JOL,BUFFER3,5988,,,4254,4255,,,,5,1
5a5f7c21ac56240001543340,tiomsn2om3,"Deep vs Shallow",1,182,2020-07-08T15:13:37-07:00,5.8092308044434,8,versionC_stim.csv,VC_VersionD.csv,"Version D","VC Version D",JAM,SPACE,BUFFER1,Buffer,5,3,VC,User,-,"How many vowels are the two words combined?|Type your response below and then press Enter.",Study/JOL,BUFFER3,5176,,,3163,3163,,,,3,1
5a5f7c21ac56240001543340,tiomsn2om3,"Deep vs Shallow",1,183,2020-07-08T15:13:43-07:00,6.1356811523438,8,versionC_stim.csv,VC_VersionD.csv,"Version D","VC Version D",HIDE,SCARE,BUFFER1,Buffer,4,5,VC,User,-,"How many vowels are the two words combined?|Type your response below and then press Enter.",Study/JOL,BUFFER3,5434,,,3870,3870,,,,4,1
5a5f7c21ac56240001543340,tiomsn2om3,"Deep vs Shallow",1,184,2020-07-08T15:13:50-07:00,6.4078450202942,8,versionC_stim.csv,VC_VersionD.csv,"Version D","VC Version D",CATCHER,BASEBALL,BUFFER1,Buffer,2,6,VC,User,-,"How many vowels are the two words combined?|Type your response below and then press Enter.",Study/JOL,BUFFER3,5771,,,3928,3928,,,,5,1
5a5f7c21ac56240001543340,tiomsn2om3,"Deep vs Shallow",1,185,2020-07-08T15:13:55-07:00,5.1537978649139,8,versionC_stim.csv,VC_VersionD.csv,"Version D","VC Version D",GREEN,TREES,BUFFER1,Buffer,1,2,VC,User,-,"How many vowels are the two words combined?|Type your response below and then press Enter.",Study/JOL,BUFFER3,4550,,,2659,2659,,,,4,1
5a5f7c21ac56240001543340,tiomsn2om3,"Deep vs Shallow",1,186,2020-07-08T15:14:04-07:00,8.8683259487152,8,versionC_stim.csv,VC_VersionD.csv,"Version D","VC Version D",GROWTH,HEIGHT,Study1,F,30,63,VC,User,-,"How many vowels are the two words combined?|Type your response below and then press Enter.",Study/JOL,"Study Phase2",7142,,,5679,5679,,,,3,1
5a5f7c21ac56240001543340,tiomsn2om3,"Deep vs Shallow",1,187,2020-07-08T15:14:11-07:00,7.5578219890594,8,versionC_stim.csv,VC_VersionD.csv,"Version D","VC Version D",WASP,BUG,Study1,F,32,19,VC,User,-,"How many vowels are the two words combined?|Type your response below and then press Enter.",Study/JOL,"Study Phase2",6904,,,5358,5358,,,,2,1
5a5f7c21ac56240001543340,tiomsn2om3,"Deep vs Shallow",1,188,2020-07-08T15:14:28-07:00,16.992249011993,8,versionC_stim.csv,VC_VersionD.csv,"Version D","VC Version D",WORD,SENTENCE,Study1,F,31,65,VC,User,-,"How many vowels are the two words combined?|Type your response below and then press Enter.",Study/JOL,"Study Phase2",16353,,,15114,15114,,,,4,1
5a5f7c21ac56240001543340,tiomsn2om3,"Deep vs Shallow",1,189,2020-07-08T15:14:40-07:00,11.57098698616,8,versionC_stim.csv,VC_VersionD.csv,"Version D","VC Version D",STING,HORNET,Study1,B,11,57,VC,User,-,"How many vowels are the two words combined?|Type your response below and then press Enter.",Study/JOL,"Study Phase2",10941,,,9045,9045,,,,3,1
5a5f7c21ac56240001543340,tiomsn2om3,"Deep vs Shallow",1,190,2020-07-08T15:14:44-07:00,4.2399010658264,8,versionC_stim.csv,VC_VersionD.csv,"Version D","VC Version D",LION,ART,Study1,U,79,37,VC,User,-,"How many vowels are the two words combined?|Type your response below and then press Enter.",Study/JOL,"Study Phase2",3550,,,2147,2147,,,,3,1
5a5f7c21ac56240001543340,tiomsn2om3,"Deep vs Shallow",1,191,2020-07-08T15:14:52-07:00,7.9317150115967,8,versionC_stim.csv,VC_VersionD.csv,"Version D","VC Version D",BUSINESS,DEATH,Study1,U,72,22,VC,User,-,"How many vowels are the two words combined?|Type your response below and then press Enter.",Study/JOL,"Study Phase2",7304,,,5778,5778,,,,5,1
5a5f7c21ac56240001543340,tiomsn2om3,"Deep vs Shallow",1,192,2020-07-08T15:14:57-07:00,5.4787950515747,8,versionC_stim.csv,VC_VersionD.csv,"Version D","VC Version D",SEIZE,TAKE,Study1,F,29,41,VC,User,-,"How many vowels are the two words combined?|Type your response below and then press Enter.",Study/JOL,"Study Phase2",4853,,,3300,3300,,,,5,1
5a5f7c21ac56240001543340,tiomsn2om3,"Deep vs Shallow",1,193,2020-07-08T15:15:08-07:00,11.083961963654,8,versionC_stim.csv,VC_VersionD.csv,"Version D","VC Version D",WOMAN,LIFT,Study1,U,69,46,VC,User,-,"How many vowels are the two words combined?|Type your response below and then press Enter.",Study/JOL,"Study Phase2",10382,,,8068,8068,,,,3,1
5a5f7c21ac56240001543340,tiomsn2om3,"Deep vs Shallow",1,194,2020-07-08T15:15:15-07:00,6.1694149971008,8,versionC_stim.csv,VC_VersionD.csv,"Version D","VC Version D",COLD,BITTER,Study1,B,12,14,VC,User,-,"How many vowels are the two words combined?|Type your response below and then press Enter.",Study/JOL,"Study Phase2",5544,,,4024,4024,,,,3,1
5a5f7c21ac56240001543340,tiomsn2om3,"Deep vs Shallow",1,195,2020-07-08T15:15:20-07:00,5.192948102951,8,versionC_stim.csv,VC_VersionD.csv,"Version D","VC Version D",BEE,HONEY,Study1,S,63,74,VC,User,-,"How many vowels are the two words combined?|Type your response below and then press Enter.",Study/JOL,"Study Phase2",4560,,,3215,3215,,,,4,1
5a5f7c21ac56240001543340,tiomsn2om3,"Deep vs Shallow",1,196,2020-07-08T15:15:24-07:00,4.3212599754333,8,versionC_stim.csv,VC_VersionD.csv,"Version D","VC Version D",CAR,HAPPY,Study1,U,77,7,VC,User,-,"How many vowels are the two words combined?|Type your response below and then press Enter.",Study/JOL,"Study Phase2",3600,,,2355,2355,,,,2,1
5a5f7c21ac56240001543340,tiomsn2om3,"Deep vs Shallow",1,197,2020-07-08T15:15:30-07:00,6.0002779960632,8,versionC_stim.csv,VC_VersionD.csv,"Version D","VC Version D",WAR,REVOLUTION,Study1,B,20,45,VC,User,-,"How many vowels are the two words combined?|Type your response below and then press Enter.",Study/JOL,"Study Phase2",5375,,,3966,3966,,,,6,1
5a5f7c21ac56240001543340,tiomsn2om3,"Deep vs Shallow",1,198,2020-07-08T15:15:38-07:00,7.6988458633423,8,versionC_stim.csv,VC_VersionD.csv,"Version D","VC Version D",ASSIGNMENT,DUE,Study1,S,46,29,VC,User,-,"How many vowels are the two words combined?|Type your response below and then press Enter.",Study/JOL,"Study Phase2",6074,,,4781,4781,,,,5,1
5a5f7c21ac56240001543340,tiomsn2om3,"Deep vs Shallow",1,199,2020-07-08T15:15:43-07:00,5.6943650245667,8,versionC_stim.csv,VC_VersionD.csv,"Version D","VC Version D",VASE,KING,Study1,U,85,51,VC,User,-,"How many vowels are the two words combined?|Type your response below and then press Enter.",Study/JOL,"Study Phase2",5074,,,3097,3097,,,,3,1
5a5f7c21ac56240001543340,tiomsn2om3,"Deep vs Shallow",1,200,2020-07-08T15:15:47-07:00,3.4500000476837,8,versionC_stim.csv,VC_VersionD.csv,"Version D","VC Version D",CHORE,WORK,Study1,F,39,25,VC,User,-,"How many vowels are the two words combined?|Type your response below and then press Enter.",Study/JOL,"Study Phase2",2824,,,2490,2490,,,,3,1
5a5f7c21ac56240001543340,tiomsn2om3,"Deep vs Shallow",1,201,2020-07-08T15:15:50-07:00,2.9943289756775,8,versionC_stim.csv,VC_VersionD.csv,"Version D","VC Version D",SODA,POP,Study1,S,56,48,VC,User,-,"How many vowels are the two words combined?|Type your response below and then press Enter.",Study/JOL,"Study Phase2",2369,,,2006,2006,,,,3,1
5a5f7c21ac56240001543340,tiomsn2om3,"Deep vs Shallow",1,202,2020-07-08T15:15:55-07:00,4.8549380302429,8,versionC_stim.csv,VC_VersionD.csv,"Version D","VC Version D",LIVER,KIDNEY,Study1,S,53,43,VC,User,-,"How many vowels are the two words combined?|Type your response below and then press Enter.",Study/JOL,"Study Phase2",4221,,,3727,3727,,,,4,1
5a5f7c21ac56240001543340,tiomsn2om3,"Deep vs Shallow",1,203,2020-07-08T15:15:58-07:00,3.0395510196686,8,versionC_stim.csv,VC_VersionD.csv,"Version D","VC Version D",STENCH,SMELL,Study1,F,42,79,VC,User,-,"How many vowels are the two words combined?|Type your response below and then press Enter.",Study/JOL,"Study Phase2",2431,,,2093,2093,,,,2,1
5a5f7c21ac56240001543340,tiomsn2om3,"Deep vs Shallow",1,204,2020-07-08T15:16:02-07:00,4.1947848796844,8,versionC_stim.csv,VC_VersionD.csv,"Version D","VC Version D",MONEY,WAGE,Study1,B,8,55,VC,User,-,"How many vowels are the two words combined?|Type your response below and then press Enter.",Study/JOL,"Study Phase2",3569,,,3115,3115,,,,4,1
5a5f7c21ac56240001543340,tiomsn2om3,"Deep vs Shallow",1,205,2020-07-08T15:16:27-07:00,25.343280076981,8,versionC_stim.csv,VC_VersionD.csv,"Version D","VC Version D",ATTORNEY,LAW,Study1,F,34,49,VC,User,-,"How many vowels are the two words combined?|Type your response below and then press Enter.",Study/JOL,"Study Phase2",24737,,,24264,24264,,,,4,1
5a5f7c21ac56240001543340,tiomsn2om3,"Deep vs Shallow",1,206,2020-07-08T15:16:30-07:00,3.0782330036163,8,versionC_stim.csv,VC_VersionD.csv,"Version D","VC Version D",ADD,VALLEY,Study1,U,82,53,VC,User,-,"How many vowels are the two words combined?|Type your response below and then press Enter.",Study/JOL,"Study Phase2",2442,,,1941,1941,,,,3,1
5a5f7c21ac56240001543340,tiomsn2om3,"Deep vs Shallow",1,207,2020-07-08T15:16:34-07:00,3.9234120845795,8,versionC_stim.csv,VC_VersionD.csv,"Version D","VC Version D",SIGHT,DEBATE,Study1,U,73,83,VC,User,-,"How many vowels are the two words combined?|Type your response below and then press Enter.",Study/JOL,"Study Phase2",3307,,,2705,2705,,,,4,1
5a5f7c21ac56240001543340,tiomsn2om3,"Deep vs Shallow",1,208,2020-07-08T15:16:40-07:00,5.6174778938293,8,versionC_stim.csv,VC_VersionD.csv,"Version D","VC Version D",BRONZE,ARTERY,Study1,U,74,64,VC,User,-,"How many vowels are the two words combined?|Type your response below and then press Enter.",Study/JOL,"Study Phase2",4996,,,4404,4404,,,,5,1
5a5f7c21ac56240001543340,tiomsn2om3,"Deep vs Shallow",1,209,2020-07-08T15:16:45-07:00,5.0187571048737,8,versionC_stim.csv,VC_VersionD.csv,"Version D","VC Version D",PLANT,ROOT,Study1,B,13,56,VC,User,-,"How many vowels are the two words combined?|Type your response below and then press Enter.",Study/JOL,"Study Phase2",4406,,,3763,3763,,,,3,1
5a5f7c21ac56240001543340,tiomsn2om3,"Deep vs Shallow",1,210,2020-07-08T15:16:49-07:00,4.4008729457855,8,versionC_stim.csv,VC_VersionD.csv,"Version D","VC Version D",PILOT,PLANE,Study1,F,44,15,VC,User,-,"How many vowels are the two words combined?|Type your response below and then press Enter.",Study/JOL,"Study Phase2",3745,,,3054,3054,,,,4,1
5a5f7c21ac56240001543340,tiomsn2om3,"Deep vs Shallow",1,211,2020-07-08T15:16:53-07:00,3.2213571071625,8,versionC_stim.csv,VC_VersionD.csv,"Version D","VC Version D",FOOT,SHOE,Study1,S,60,82,VC,User,-,"How many vowels are the two words combined?|Type your response below and then press Enter.",Study/JOL,"Study Phase2",2627,,,2025,2025,,,,4,1
5a5f7c21ac56240001543340,tiomsn2om3,"Deep vs Shallow",1,212,2020-07-08T15:16:57-07:00,3.9922528266907,8,versionC_stim.csv,VC_VersionD.csv,"Version D","VC Version D",SICK,HIDE,Study1,U,84,68,VC,User,-,"How many vowels are the two words combined?|Type your response below and then press Enter.",Study/JOL,"Study Phase2",3370,,,2769,2769,,,,3,1
5a5f7c21ac56240001543340,tiomsn2om3,"Deep vs Shallow",1,213,2020-07-08T15:17:02-07:00,5.3082950115204,8,versionC_stim.csv,VC_VersionD.csv,"Version D","VC Version D",RIDDLE,SUGAR,Study1,U,81,9,VC,User,-,"How many vowels are the two words combined?|Type your response below and then press Enter.",Study/JOL,"Study Phase2",4707,,,4150,4150,,,,4,1
5a5f7c21ac56240001543340,tiomsn2om3,"Deep vs Shallow",1,214,2020-07-08T15:17:06-07:00,4.543555021286,8,versionC_stim.csv,VC_VersionD.csv,"Version D","VC Version D",BAR,GRILL,Study1,S,52,18,VC,User,-,"How many vowels are the two words combined?|Type your response below and then press Enter.",Study/JOL,"Study Phase2",2903,,,2510,2510,,,,2,1
5a5f7c21ac56240001543340,tiomsn2om3,"Deep vs Shallow",1,215,2020-07-08T15:17:11-07:00,4.5221030712128,8,versionC_stim.csv,VC_VersionD.csv,"Version D","VC Version D",JURY,TRIAL,Study1,S,50,17,VC,User,-,"How many vowels are the two words combined?|Type your response below and then press Enter.",Study/JOL,"Study Phase2",3874,,,3329,3329,,,,3,1
5a5f7c21ac56240001543340,tiomsn2om3,"Deep vs Shallow",1,216,2020-07-08T15:17:14-07:00,2.5235018730164,8,versionC_stim.csv,VC_VersionD.csv,"Version D","VC Version D",COW,HERD,Study1,B,22,76,VC,User,-,"How many vowels are the two words combined?|Type your response below and then press Enter.",Study/JOL,"Study Phase2",1884,,,1534,1534,,,,2,1
5a5f7c21ac56240001543340,tiomsn2om3,"Deep vs Shallow",1,217,2020-07-08T15:17:18-07:00,4.2106940746307,8,versionC_stim.csv,VC_VersionD.csv,"Version D","VC Version D",DROWSY,SLEEP,Study1,F,41,30,VC,User,-,"How many vowels are the two words combined?|Type your response below and then press Enter.",Study/JOL,"Study Phase2",3608,,,3240,3240,,,,3,1
5a5f7c21ac56240001543340,tiomsn2om3,"Deep vs Shallow",1,218,2020-07-08T15:17:20-07:00,2.6801569461823,8,versionC_stim.csv,VC_VersionD.csv,"Version D","VC Version D",OUT,WAY,Study1,B,16,75,VC,User,-,"How many vowels are the two words combined?|Type your response below and then press Enter.",Study/JOL,"Study Phase2",2056,,,1679,1679,,,,2,1
5a5f7c21ac56240001543340,tiomsn2om3,"Deep vs Shallow",1,219,2020-07-08T15:17:27-07:00,6.6130700111389,8,versionC_stim.csv,VC_VersionD.csv,"Version D","VC Version D",STOMACH,DIGESTION,Study1,B,7,73,VC,User,-,"How many vowels are the two words combined?|Type your response below and then press Enter.",Study/JOL,"Study Phase2",5939,,,5480,5480,,,,6,1
5a5f7c21ac56240001543340,tiomsn2om3,"Deep vs Shallow",1,220,2020-07-08T15:17:34-07:00,7.0018899440765,8,versionC_stim.csv,VC_VersionD.csv,"Version D","VC Version D",HUNGRY,PARK,Study1,U,68,85,VC,User,-,"How many vowels are the two words combined?|Type your response below and then press Enter.",Study/JOL,"Study Phase2",6342,,,6034,6034,,,,2,1
5a5f7c21ac56240001543340,tiomsn2om3,"Deep vs Shallow",1,221,2020-07-08T15:17:37-07:00,3.2915830612183,8,versionC_stim.csv,VC_VersionD.csv,"Version D","VC Version D",WATER,BRIDGE,Study1,B,18,34,VC,User,-,"How many vowels are the two words combined?|Type your response below and then press Enter.",Study/JOL,"Study Phase2",2667,,,2334,2334,,,,4,1
5a5f7c21ac56240001543340,tiomsn2om3,"Deep vs Shallow",1,222,2020-07-08T15:17:44-07:00,6.2583501338959,8,versionC_stim.csv,VC_VersionD.csv,"Version D","VC Version D",POSITION,MACHINE,Study1,U,76,35,VC,User,-,"How many vowels are the two words combined?|Type your response below and then press Enter.",Study/JOL,"Study Phase2",5636,,,4961,4961,,,,7,1
5a5f7c21ac56240001543340,tiomsn2om3,"Deep vs Shallow",1,223,2020-07-08T15:17:52-07:00,8.0565049648285,8,versionC_stim.csv,VC_VersionD.csv,"Version D","VC Version D",ENOUGH,FULL,Study1,F,26,44,VC,User,-,"How many vowels are the two words combined?|Type your response below and then press Enter.",Study/JOL,"Study Phase2",6407,,,4196,5876,,,,4,1
5a5f7c21ac56240001543340,tiomsn2om3,"Deep vs Shallow",1,224,2020-07-08T15:17:56-07:00,4.5720179080963,8,versionC_stim.csv,VC_VersionD.csv,"Version D","VC Version D",FAMINE,HUNGER,Study1,F,40,33,VC,User,-,"How many vowels are the two words combined?|Type your response below and then press Enter.",Study/JOL,"Study Phase2",3935,,,3384,3384,,,,5,1
5a5f7c21ac56240001543340,tiomsn2om3,"Deep vs Shallow",1,225,2020-07-08T15:17:59-07:00,3.1299669742584,8,versionC_stim.csv,VC_VersionD.csv,"Version D","VC Version D",RACKET,BALL,Study1,F,38,26,VC,User,-,"How many vowels are the two words combined?|Type your response below and then press Enter.",Study/JOL,"Study Phase2",2532,,,1972,1973,,,,3,1
5a5f7c21ac56240001543340,tiomsn2om3,"Deep vs Shallow",1,226,2020-07-08T15:18:05-07:00,6.1565589904785,8,versionC_stim.csv,VC_VersionD.csv,"Version D","VC Version D",CLEAN,HYGIENE,Study1,B,17,50,VC,User,-,"How many vowels are the two words combined?|Type your response below and then press Enter.",Study/JOL,"Study Phase2",5527,,,3947,3947,,,,5,1
5a5f7c21ac56240001543340,tiomsn2om3,"Deep vs Shallow",1,227,2020-07-08T15:18:09-07:00,3.4158940315247,8,versionC_stim.csv,VC_VersionD.csv,"Version D","VC Version D",WIND,BLOW,Study1,S,55,32,VC,User,-,"How many vowels are the two words combined?|Type your response below and then press Enter.",Study/JOL,"Study Phase2",2795,,,2109,2110,,,,2,1
5a5f7c21ac56240001543340,tiomsn2om3,"Deep vs Shallow",1,228,2020-07-08T15:18:15-07:00,5.8275389671326,8,versionC_stim.csv,VC_VersionD.csv,"Version D","VC Version D",ROUND,CIRCLE,Study1,S,65,38,VC,User,-,"How many vowels are the two words combined?|Type your response below and then press Enter.",Study/JOL,"Study Phase2",5200,,,3189,4577,,,,4,1
5a5f7c21ac56240001543340,tiomsn2om3,"Deep vs Shallow",1,229,2020-07-08T15:18:19-07:00,4.2469291687012,8,versionC_stim.csv,VC_VersionD.csv,"Version D","VC Version D",CHILD,BABY,Study1,S,64,16,VC,User,-,"How many vowels are the two words combined?|Type your response below and then press Enter.",Study/JOL,"Study Phase2",2655,,,2310,2310,,,,2,1
5a5f7c21ac56240001543340,tiomsn2om3,"Deep vs Shallow",1,230,2020-07-08T15:18:22-07:00,3.4620258808136,8,versionC_stim.csv,VC_VersionD.csv,"Version D","VC Version D",CARD,CREDIT,Study1,B,23,40,VC,User,-,"How many vowels are the two words combined?|Type your response below and then press Enter.",Study/JOL,"Study Phase2",2827,,,2475,2475,,,,3,1
5a5f7c21ac56240001543340,tiomsn2om3,"Deep vs Shallow",1,231,2020-07-08T15:18:27-07:00,4.2313940525055,8,versionC_stim.csv,VC_VersionD.csv,"Version D","VC Version D",FLOOR,DISCOVER,Study1,U,71,10,VC,User,-,"How many vowels are the two words combined?|Type your response below and then press Enter.",Study/JOL,"Study Phase2",3639,,,3283,3283,,,,5,1
5a5f7c21ac56240001543340,tiomsn2om3,"Deep vs Shallow",1,232,2020-07-08T15:18:30-07:00,3.6991059780121,8,versionC_stim.csv,VC_VersionD.csv,"Version D","VC Version D",SITE,LOCATION,Study1,S,48,52,VC,User,-,"How many vowels are the two words combined?|Type your response below and then press Enter.",Study/JOL,"Study Phase2",3006,,,2646,2646,,,,5,1
5a5f7c21ac56240001543340,tiomsn2om3,"Deep vs Shallow",1,233,2020-07-08T15:18:33-07:00,2.7013669013977,8,versionC_stim.csv,VC_VersionD.csv,"Version D","VC Version D",DOG,PAW,Study1,B,15,78,VC,User,-,"How many vowels are the two words combined?|Type your response below and then press Enter.",Study/JOL,"Study Phase2",2087,,,1740,1740,,,,2,1
5a5f7c21ac56240001543340,tiomsn2om3,"Deep vs Shallow",1,234,2020-07-08T15:18:37-07:00,3.8309412002563,8,versionC_stim.csv,VC_VersionD.csv,"Version D","VC Version D",HAMMER,CHISEL,Study1,B,9,81,VC,User,-,"How many vowels are the two words combined?|Type your response below and then press Enter.",Study/JOL,"Study Phase2",3117,,,2709,2709,,,,4,1
5a5f7c21ac56240001543340,tiomsn2om3,"Deep vs Shallow",1,235,2020-07-08T15:18:43-07:00,6.4483139514923,8,versionC_stim.csv,VC_VersionD.csv,"Version D","VC Version D",DEFINITION,MEANING,Study1,S,62,77,VC,User,-,"How many vowels are the two words combined?|Type your response below and then press Enter.",Study/JOL,"Study Phase2",5823,,,5424,5424,,,,8,1
5a5f7c21ac56240001543340,tiomsn2om3,"Deep vs Shallow",1,236,2020-07-08T15:18:49-07:00,5.3509819507599,8,versionC_stim.csv,VC_VersionD.csv,"Version D","VC Version D",ATTIRE,CLOTHES,Study1,F,43,36,VC,User,-,"How many vowels are the two words combined?|Type your response below and then press Enter.",Study/JOL,"Study Phase2",4727,,,4338,4338,,,,5,1
5a5f7c21ac56240001543340,tiomsn2om3,"Deep vs Shallow",1,237,2020-07-08T15:18:52-07:00,3.206337928772,8,versionC_stim.csv,VC_VersionD.csv,"Version D","VC Version D",CAVE,DARK,Study1,F,28,39,VC,User,-,"How many vowels are the two words combined?|Type your response below and then press Enter.",Study/JOL,"Study Phase2",2601,,,2251,2251,,,,3,1
5a5f7c21ac56240001543340,tiomsn2om3,"Deep vs Shallow",1,238,2020-07-08T15:18:59-07:00,7.0461740493774,8,versionC_stim.csv,VC_VersionD.csv,"Version D","VC Version D",DESIGN,ARCHITECTURE,Study1,S,51,23,VC,User,-,"How many vowels are the two words combined?|Type your response below and then press Enter.",Study/JOL,"Study Phase2",6419,,,5872,5872,,,,7,1
5a5f7c21ac56240001543340,tiomsn2om3,"Deep vs Shallow",1,239,2020-07-08T15:19:03-07:00,4.2577269077301,8,versionC_stim.csv,VC_VersionD.csv,"Version D","VC Version D",WOULD,CASH,Study1,U,83,20,VC,User,-,"How many vowels are the two words combined?|Type your response below and then press Enter.",Study/JOL,"Study Phase2",3638,,,3144,3144,,,,3,1
5a5f7c21ac56240001543340,tiomsn2om3,"Deep vs Shallow",1,240,2020-07-08T15:19:09-07:00,5.5831911563873,8,versionC_stim.csv,VC_VersionD.csv,"Version D","VC Version D",TOILET,BATHROOM,Study1,S,58,28,VC,User,-,"How many vowels are the two words combined?|Type your response below and then press Enter.",Study/JOL,"Study Phase2",3937,,,3554,3554,,,,6,1
5a5f7c21ac56240001543340,tiomsn2om3,"Deep vs Shallow",1,241,2020-07-08T15:19:14-07:00,5.1307530403137,8,versionC_stim.csv,VC_VersionD.csv,"Version D","VC Version D",ACCIDENT,STRONG,Study1,U,80,21,VC,User,-,"How many vowels are the two words combined?|Type your response below and then press Enter.",Study/JOL,"Study Phase2",4511,,,4054,4054,,,,4,1
5a5f7c21ac56240001543340,tiomsn2om3,"Deep vs Shallow",1,242,2020-07-08T15:19:18-07:00,4.2038168907166,8,versionC_stim.csv,VC_VersionD.csv,"Version D","VC Version D",ROCK,GEOLOGY,Study1,B,19,71,VC,User,-,"How many vowels are the two words combined?|Type your response below and then press Enter.",Study/JOL,"Study Phase2",3556,,,3193,3193,,,,4,1
5a5f7c21ac56240001543340,tiomsn2om3,"Deep vs Shallow",1,243,2020-07-08T15:19:23-07:00,4.6575479507446,8,versionC_stim.csv,VC_VersionD.csv,"Version D","VC Version D",FLOWER,ORCHID,Study1,B,24,70,VC,User,-,"How many vowels are the two words combined?|Type your response below and then press Enter.",Study/JOL,"Study Phase2",4044,,,3415,3415,,,,4,1
5a5f7c21ac56240001543340,tiomsn2om3,"Deep vs Shallow",1,244,2020-07-08T15:19:28-07:00,5.0780370235443,8,versionC_stim.csv,VC_VersionD.csv,"Version D","VC Version D",BAD,DELINQUENT,Study1,B,6,67,VC,User,-,"How many vowels are the two words combined?|Type your response below and then press Enter.",Study/JOL,"Study Phase2",4445,,,4022,4022,,,,5,1
5a5f7c21ac56240001543340,tiomsn2om3,"Deep vs Shallow",1,245,2020-07-08T15:19:33-07:00,4.7535569667816,8,versionC_stim.csv,VC_VersionD.csv,"Version D","VC Version D",TALK,DISCUSSION,Study1,B,21,47,VC,User,-,"How many vowels are the two words combined?|Type your response below and then press Enter.",Study/JOL,"Study Phase2",4141,,,3520,3520,,,,5,1
5a5f7c21ac56240001543340,tiomsn2om3,"Deep vs Shallow",1,246,2020-07-08T15:19:36-07:00,2.9118890762329,8,versionC_stim.csv,VC_VersionD.csv,"Version D","VC Version D",BIRD,SWAN,Study1,B,14,72,VC,User,-,"How many vowels are the two words combined?|Type your response below and then press Enter.",Study/JOL,"Study Phase2",2270,,,1692,1692,,,,2,1
5a5f7c21ac56240001543340,tiomsn2om3,"Deep vs Shallow",1,247,2020-07-08T15:19:41-07:00,5.9004149436951,8,versionC_stim.csv,VC_VersionD.csv,"Version D","VC Version D",SACKING,DIETARY,Study1,U,67,11,VC,User,-,"How many vowels are the two words combined?|Type your response below and then press Enter.",Study/JOL,"Study Phase2",5278,,,4718,4718,,,,5,1
5a5f7c21ac56240001543340,tiomsn2om3,"Deep vs Shallow",1,248,2020-07-08T15:19:47-07:00,5.1589050292969,8,versionC_stim.csv,VC_VersionD.csv,"Version D","VC Version D",DIVISION,MATH,Study1,F,33,86,VC,User,-,"How many vowels are the two words combined?|Type your response below and then press Enter.",Study/JOL,"Study Phase2",3521,,,2934,2934,,,,5,1
5a5f7c21ac56240001543340,tiomsn2om3,"Deep vs Shallow",1,249,2020-07-08T15:19:52-07:00,5.8370139598846,8,versionC_stim.csv,VC_VersionD.csv,"Version D","VC Version D",FUTURE,PAST,Study1,S,61,80,VC,User,-,"How many vowels are the two words combined?|Type your response below and then press Enter.",Study/JOL,"Study Phase2",4233,,,3093,3093,,,,4,1
5a5f7c21ac56240001543340,tiomsn2om3,"Deep vs Shallow",1,250,2020-07-08T15:19:59-07:00,6.8679339885712,8,versionC_stim.csv,VC_VersionD.csv,"Version D","VC Version D",CHEESE,WINE,Study1,S,57,31,VC,User,-,"How many vowels are the two words combined?|Type your response below and then press Enter.",Study/JOL,"Study Phase2",6242,,,5506,5506,,,,5,1
5a5f7c21ac56240001543340,tiomsn2om3,"Deep vs Shallow",1,251,2020-07-08T15:20:03-07:00,3.6638960838318,8,versionC_stim.csv,VC_VersionD.csv,"Version D","VC Version D",TUCK,ALLOW,Study1,U,78,58,VC,User,-,"How many vowels are the two words combined?|Type your response below and then press Enter.",Study/JOL,"Study Phase2",3020,,,2481,2481,,,,3,1
5a5f7c21ac56240001543340,tiomsn2om3,"Deep vs Shallow",1,252,2020-07-08T15:20:07-07:00,4.3738040924072,8,versionC_stim.csv,VC_VersionD.csv,"Version D","VC Version D",SALAD,LETTUCE,Study1,S,59,12,VC,User,-,"How many vowels are the two words combined?|Type your response below and then press Enter.",Study/JOL,"Study Phase2",3573,,,3063,3063,,,,5,1
5a5f7c21ac56240001543340,tiomsn2om3,"Deep vs Shallow",1,253,2020-07-08T15:20:12-07:00,4.4339048862457,8,versionC_stim.csv,VC_VersionD.csv,"Version D","VC Version D",CHILI,HOT,Study1,F,37,27,VC,User,-,"How many vowels are the two words combined?|Type your response below and then press Enter.",Study/JOL,"Study Phase2",3669,,,2300,2300,,,,3,1
5a5f7c21ac56240001543340,tiomsn2om3,"Deep vs Shallow",1,254,2020-07-08T15:20:15-07:00,2.8385829925537,8,versionC_stim.csv,VC_VersionD.csv,"Version D","VC Version D",HAND,FIX,Study1,U,75,59,VC,User,-,"How many vowels are the two words combined?|Type your response below and then press Enter.",Study/JOL,"Study Phase2",2212,,,1706,1706,,,,2,1
5a5f7c21ac56240001543340,tiomsn2om3,"Deep vs Shallow",1,255,2020-07-08T15:20:18-07:00,3.3702459335327,8,versionC_stim.csv,VC_VersionD.csv,"Version D","VC Version D",END,BEGIN,Study1,S,54,13,VC,User,-,"How many vowels are the two words combined?|Type your response below and then press Enter.",Study/JOL,"Study Phase2",2759,,,2245,2245,,,,3,1
5a5f7c21ac56240001543340,tiomsn2om3,"Deep vs Shallow",1,256,2020-07-08T15:20:21-07:00,3.0294840335846,8,versionC_stim.csv,VC_VersionD.csv,"Version D","VC Version D",SIP,DRINK,Study1,F,27,60,VC,User,-,"How many vowels are the two words combined?|Type your response below and then press Enter.",Study/JOL,"Study Phase2",2393,,,1889,1889,,,,2,1
5a5f7c21ac56240001543340,tiomsn2om3,"Deep vs Shallow",1,257,2020-07-08T15:20:24-07:00,3.1639440059662,8,versionC_stim.csv,VC_VersionD.csv,"Version D","VC Version D",FISH,TUNA,Study1,B,25,8,VC,User,-,"How many vowels are the two words combined?|Type your response below and then press Enter.",Study/JOL,"Study Phase2",2554,,,1882,1882,,,,3,1
5a5f7c21ac56240001543340,tiomsn2om3,"Deep vs Shallow",1,258,2020-07-08T15:20:28-07:00,4.1281869411469,8,versionC_stim.csv,VC_VersionD.csv,"Version D","VC Version D",LATCH,KEY,Study1,F,36,69,VC,User,-,"How many vowels are the two words combined?|Type your response below and then press Enter.",Study/JOL,"Study Phase2",3473,,,2882,2882,,,,2,1
5a5f7c21ac56240001543340,tiomsn2om3,"Deep vs Shallow",1,259,2020-07-08T15:20:32-07:00,3.2356750965118,8,versionC_stim.csv,VC_VersionD.csv,"Version D","VC Version D",WASTE,DUMP,Study1,S,49,54,VC,User,-,"How many vowels are the two words combined?|Type your response below and then press Enter.",Study/JOL,"Study Phase2",2625,,,1984,1984,,,,3,1
5a5f7c21ac56240001543340,tiomsn2om3,"Deep vs Shallow",1,260,2020-07-08T15:20:36-07:00,4.2992639541626,8,versionC_stim.csv,VC_VersionD.csv,"Version D","VC Version D",FANTASTIC,GREAT,Study1,F,35,24,VC,User,-,"How many vowels are the two words combined?|Type your response below and then press Enter.",Study/JOL,"Study Phase2",3668,,,3081,3081,,,,5,1
5a5f7c21ac56240001543340,tiomsn2om3,"Deep vs Shallow",1,261,2020-07-08T15:20:40-07:00,4.1492760181427,8,versionC_stim.csv,VC_VersionD.csv,"Version D","VC Version D",NEWS,EDITOR,Study1,B,10,84,VC,User,-,"How many vowels are the two words combined?|Type your response below and then press Enter.",Study/JOL,"Study Phase2",3543,,,2965,2965,,,,4,1
5a5f7c21ac56240001543340,tiomsn2om3,"Deep vs Shallow",1,262,2020-07-08T15:20:45-07:00,5.1674399375916,8,versionC_stim.csv,VC_VersionD.csv,"Version D","VC Version D",CLUTTER,PUSHER,Study1,U,66,62,VC,User,-,"How many vowels are the two words combined?|Type your response below and then press Enter.",Study/JOL,"Study Phase2",4500,,,3928,3928,,,,4,1
5a5f7c21ac56240001543340,tiomsn2om3,"Deep vs Shallow",1,263,2020-07-08T15:20:50-07:00,5.1961090564728,8,versionC_stim.csv,VC_VersionD.csv,"Version D","VC Version D",BLAZE,FIRE,Study1,F,45,61,VC,User,-,"How many vowels are the two words combined?|Type your response below and then press Enter.",Study/JOL,"Study Phase2",4487,,,3967,3967,,,,4,1
5a5f7c21ac56240001543340,tiomsn2om3,"Deep vs Shallow",1,264,2020-07-08T15:20:54-07:00,3.1798851490021,8,versionC_stim.csv,VC_VersionD.csv,"Version D","VC Version D",BELT,SOON,Study1,U,70,42,VC,User,-,"How many vowels are the two words combined?|Type your response below and then press Enter.",Study/JOL,"Study Phase2",2544,,,1970,1970,,,,3,1
5a5f7c21ac56240001543340,tiomsn2om3,"Deep vs Shallow",1,265,2020-07-08T15:20:58-07:00,4.5330929756165,8,versionC_stim.csv,VC_VersionD.csv,"Version D","VC Version D",AMOUNT,NUMBER,Study1,S,47,66,VC,User,-,"How many vowels are the two words combined?|Type your response below and then press Enter.",Study/JOL,"Study Phase2",3937,,,3383,3383,,,,5,1
5a5f7c21ac56240001543340,tiomsn2om3,"Deep vs Shallow",1,266,2020-07-08T15:21:03-07:00,5.3677008152008,8,versionC_stim.csv,VC_VersionD.csv,"Version D","VC Version D",POLICE,SHERRIF,BUFFER2,Buffer,87,89,VC,User,-,"How many vowels are the two words combined?|Type your response below and then press Enter.",Study/JOL,BUFFER4,4728,,,4087,4087,,,,5,1
5a5f7c21ac56240001543340,tiomsn2om3,"Deep vs Shallow",1,267,2020-07-08T15:21:07-07:00,3.9426550865173,8,versionC_stim.csv,VC_VersionD.csv,"Version D","VC Version D",SPACE,MOON,BUFFER2,Buffer,89,87,VC,User,-,"How many vowels are the two words combined?|Type your response below and then press Enter.",Study/JOL,BUFFER4,3323,,,2749,2749,,,,4,1
5a5f7c21ac56240001543340,tiomsn2om3,"Deep vs Shallow",1,268,2020-07-08T15:21:13-07:00,5.1468899250031,8,versionC_stim.csv,VC_VersionD.csv,"Version D","VC Version D",CHOCOLATE,MALT,BUFFER2,Buffer,88,88,VC,User,-,"How many vowels are the two words combined?|Type your response below and then press Enter.",Study/JOL,BUFFER4,4513,,,3975,3975,,,,5,1
5a5f7c21ac56240001543340,tiomsn2om3,"Deep vs Shallow",1,269,2020-07-08T15:21:17-07:00,4.7382969856262,8,versionC_stim.csv,VC_VersionD.csv,"Version D","VC Version D",STUFF,THING,BUFFER2,Buffer,90,90,VC,User,-,"How many vowels are the two words combined?|Type your response below and then press Enter.",Study/JOL,BUFFER4,4113,,,3594,3594,,,,2,1
5a5f7c21ac56240001543340,tiomsn2om3,"Deep vs Shallow",1,270,2020-07-08T15:21:21-07:00,3.5245070457458,8,versionC_stim.csv,VC_VersionD.csv,"Version D","VC Version D",GOOSE,GEESE,BUFFER2,Buffer,86,91,VC,User,-,"How many vowels are the two words combined?|Type your response below and then press Enter.",Study/JOL,BUFFER4,2902,,,2404,2404,,,,6,1
5a5f7c21ac56240001543340,tiomsn2om3,"Deep vs Shallow",1,271,2020-07-08T15:21:23-07:00,1.7676520347595,8,versionC_stim.csv,VC_VersionD.csv,"Version D","VC Version D",,,,,,0,Instruct,User,-,"You have completed this section. Please press Enter.",Filler_Instruction,Instruct5,1259,,,-1,-1,,,,,1
5a5f7c21ac56240001543340,tiomsn2om3,"Deep vs Shallow",1,272,2020-07-08T15:23:23-07:00,120.65486001968,8,versionC_stim.csv,VC_VersionD.csv,"Version D","VC Version D",,,,,,0,FreeRecall,120,120,"Please list the 50 US states in reverse alphabetical order (z - a). The task will automatically advance to the next screen after two minutes.",,Filler2,120002,"I am going to have the same problem here... but I will do my best to try to recollect some. Wisconsin Virginia Texas Philladelphia New York New Mexico New Jersey Milkwaukee Georgia Florida Chicago Arkansas Alabama",0,4631,102959,0,0,,,1
5a5f7c21ac56240001543340,tiomsn2om3,"Deep vs Shallow",1,273,2020-07-08T15:23:38-07:00,14.626679897308,8,versionC_stim.csv,VC_VersionD.csv,"Version D","VC Version D",,,,,,0,Instruct,-,10,"You will now be presented with the first word from each of the previously studied item pairs. Please type the missing word. If you do not know the word, you may guess or press Enter to skip forward to the next pair.",,Instruct6,13838,,,-1,-1,,,,,0.969
5a5f7c21ac56240001543340,tiomsn2om3,"Deep vs Shallow",1,274,2020-07-08T15:23:44-07:00,5.6970970630646,8,versionC_stim.csv,VC_VersionD.csv,"Version D","VC Version D",ENOUGH,FULL,Study1,F,26,44,Test,User,-,,Recall,Recall2,5038," ",0,2971,2971,0,0,,,1
5a5f7c21ac56240001543340,tiomsn2om3,"Deep vs Shallow",1,275,2020-07-08T15:23:55-07:00,11.103825092316,8,versionC_stim.csv,VC_VersionD.csv,"Version D","VC Version D",MONEY,WAGE,Study1,B,8,55,Test,User,-,,Recall,Recall2,10476,Wage,100,3743,8487,1,1,,,1
5a5f7c21ac56240001543340,tiomsn2om3,"Deep vs Shallow",1,276,2020-07-08T15:23:58-07:00,3.8164000511169,8,versionC_stim.csv,VC_VersionD.csv,"Version D","VC Version D",LATCH,KEY,Study1,F,36,69,Test,User,-,,Recall,Recall2,3106,Key,100,1227,1647,1,1,,,1
5a5f7c21ac56240001543340,tiomsn2om3,"Deep vs Shallow",1,277,2020-07-08T15:24:03-07:00,4.2215049266815,8,versionC_stim.csv,VC_VersionD.csv,"Version D","VC Version D",HAMMER,CHISEL,Study1,B,9,81,Test,User,-,,Recall,Recall2,3596,,0,-1,-1,0,0,,,1
5a5f7c21ac56240001543340,tiomsn2om3,"Deep vs Shallow",1,278,2020-07-08T15:24:05-07:00,1.9267308712006,8,versionC_stim.csv,VC_VersionD.csv,"Version D","VC Version D",TUCK,ALLOW,Study1,U,78,58,Test,User,-,,Recall,Recall2,1354,,0,-1,-1,0,0,,,1
5a5f7c21ac56240001543340,tiomsn2om3,"Deep vs Shallow",1,279,2020-07-08T15:24:11-07:00,6.2488811016083,8,versionC_stim.csv,VC_VersionD.csv,"Version D","VC Version D",END,BEGIN,Study1,S,54,13,Test,User,-,,Recall,Recall2,5640,Start,0,2947,4460,0,0,,,1
5a5f7c21ac56240001543340,tiomsn2om3,"Deep vs Shallow",1,280,2020-07-08T15:24:16-07:00,4.7330949306488,8,versionC_stim.csv,VC_VersionD.csv,"Version D","VC Version D",STENCH,SMELL,Study1,F,42,79,Test,User,-,,Recall,Recall2,4085,Smell,100,1810,2346,1,1,,,1
5a5f7c21ac56240001543340,tiomsn2om3,"Deep vs Shallow",1,281,2020-07-08T15:24:21-07:00,5.141163110733,8,versionC_stim.csv,VC_VersionD.csv,"Version D","VC Version D",ATTIRE,CLOTHES,Study1,F,43,36,Test,User,-,,Recall,Recall2,4438,Clothes,100,1550,3148,1,1,,,1
5a5f7c21ac56240001543340,tiomsn2om3,"Deep vs Shallow",1,282,2020-07-08T15:24:23-07:00,1.9986989498138,8,versionC_stim.csv,VC_VersionD.csv,"Version D","VC Version D",TOILET,BATHROOM,Study1,S,58,28,Test,User,-,,Recall,Recall2,1461,,0,-1,-1,0,0,,,1
5a5f7c21ac56240001543340,tiomsn2om3,"Deep vs Shallow",1,283,2020-07-08T15:24:27-07:00,4.4123439788818,8,versionC_stim.csv,VC_VersionD.csv,"Version D","VC Version D",CHORE,WORK,Study1,F,39,25,Test,User,-,,Recall,Recall2,3793,Work,100,1607,2041,1,1,,,1
5a5f7c21ac56240001543340,tiomsn2om3,"Deep vs Shallow",1,284,2020-07-08T15:24:33-07:00,6.1933410167694,8,versionC_stim.csv,VC_VersionD.csv,"Version D","VC Version D",STING,HORNET,Study1,B,11,57,Test,User,-,,Recall,Recall2,5547,Hornet,100,3769,4447,1,1,,,1
5a5f7c21ac56240001543340,tiomsn2om3,"Deep vs Shallow",1,285,2020-07-08T15:24:35-07:00,2.0074820518494,8,versionC_stim.csv,VC_VersionD.csv,"Version D","VC Version D",WATER,BRIDGE,Study1,B,18,34,Test,User,-,,Recall,Recall2,1495,,0,-1,-1,0,0,,,1
5a5f7c21ac56240001543340,tiomsn2om3,"Deep vs Shallow",1,286,2020-07-08T15:24:37-07:00,1.5899429321289,8,versionC_stim.csv,VC_VersionD.csv,"Version D","VC Version D",SALAD,LETTUCE,Study1,S,59,12,Test,User,-,,Recall,Recall2,1050,,0,-1,-1,0,0,,,1
5a5f7c21ac56240001543340,tiomsn2om3,"Deep vs Shallow",1,287,2020-07-08T15:24:40-07:00,2.74094414711,8,versionC_stim.csv,VC_VersionD.csv,"Version D","VC Version D",FLOWER,ORCHID,Study1,B,24,70,Test,User,-,,Recall,Recall2,2120,,0,-1,-1,0,0,,,1
5a5f7c21ac56240001543340,tiomsn2om3,"Deep vs Shallow",1,288,2020-07-08T15:24:43-07:00,3.515457868576,8,versionC_stim.csv,VC_VersionD.csv,"Version D","VC Version D",TALK,DISCUSSION,Study1,B,21,47,Test,User,-,,Recall,Recall2,1885,,0,-1,-1,0,0,,,1
5a5f7c21ac56240001543340,tiomsn2om3,"Deep vs Shallow",1,289,2020-07-08T15:24:48-07:00,5.0421249866486,8,versionC_stim.csv,VC_VersionD.csv,"Version D","VC Version D",LION,ART,Study1,U,79,37,Test,User,-,,Recall,Recall2,4444,Panther,40,2130,3016,0,0,,,1
5a5f7c21ac56240001543340,tiomsn2om3,"Deep vs Shallow",1,290,2020-07-08T15:24:53-07:00,4.5547909736633,8,versionC_stim.csv,VC_VersionD.csv,"Version D","VC Version D",DROWSY,SLEEP,Study1,F,41,30,Test,User,-,,Recall,Recall2,3911,Sleep,100,1825,2779,1,1,,,1
5a5f7c21ac56240001543340,tiomsn2om3,"Deep vs Shallow",1,291,2020-07-08T15:25:06-07:00,13.020961999893,8,versionC_stim.csv,VC_VersionD.csv,"Version D","VC Version D",SODA,POP,Study1,S,56,48,Test,User,-,,Recall,Recall2,12405,beverage,0,3642,11329,0,0,,,1
5a5f7c21ac56240001543340,tiomsn2om3,"Deep vs Shallow",1,292,2020-07-08T15:25:10-07:00,4.6598839759827,8,versionC_stim.csv,VC_VersionD.csv,"Version D","VC Version D",ASSIGNMENT,DUE,Study1,S,46,29,Test,User,-,,Recall,Recall2,4020,Due,100,2455,2848,1,1,,,1
5a5f7c21ac56240001543340,tiomsn2om3,"Deep vs Shallow",1,293,2020-07-08T15:25:15-07:00,5.0415489673615,8,versionC_stim.csv,VC_VersionD.csv,"Version D","VC Version D",SEIZE,TAKE,Study1,F,29,41,Test,User,-,,Recall,Recall2,4413,Take,100,1936,3335,1,1,,,1
5a5f7c21ac56240001543340,tiomsn2om3,"Deep vs Shallow",1,294,2020-07-08T15:25:22-07:00,6.9811820983887,8,versionC_stim.csv,VC_VersionD.csv,"Version D","VC Version D",JURY,TRIAL,Study1,S,50,17,Test,User,-,,Recall,Recall2,6354,Duty,22.222222222222,4509,5111,0,0,,,1
5a5f7c21ac56240001543340,tiomsn2om3,"Deep vs Shallow",1,295,2020-07-08T15:25:26-07:00,3.2383089065552,8,versionC_stim.csv,VC_VersionD.csv,"Version D","VC Version D",OUT,WAY,Study1,B,16,75,Test,User,-,,Recall,Recall2,2524,,0,-1,-1,0,0,,,1
5a5f7c21ac56240001543340,tiomsn2om3,"Deep vs Shallow",1,296,2020-07-08T15:25:31-07:00,5.3451931476593,8,versionC_stim.csv,VC_VersionD.csv,"Version D","VC Version D",DEFINITION,MEANING,Study1,S,62,77,Test,User,-,,Recall,Recall2,4678,Meaning,100,2213,3319,1,1,,,1
5a5f7c21ac56240001543340,tiomsn2om3,"Deep vs Shallow",1,297,2020-07-08T15:25:41-07:00,10.414598941803,8,versionC_stim.csv,VC_VersionD.csv,"Version D","VC Version D",BUSINESS,DEATH,Study1,U,72,22,Test,User,-,,Recall,Recall2,9797,Death,100,7373,8141,1,1,,,1
5a5f7c21ac56240001543340,tiomsn2om3,"Deep vs Shallow",1,298,2020-07-08T15:25:44-07:00,2.5430710315704,8,versionC_stim.csv,VC_VersionD.csv,"Version D","VC Version D",WOULD,CASH,Study1,U,83,20,Test,User,-,,Recall,Recall2,1809,,0,-1,-1,0,0,,,1
5a5f7c21ac56240001543340,tiomsn2om3,"Deep vs Shallow",1,299,2020-07-08T15:25:46-07:00,2.0346961021423,8,versionC_stim.csv,VC_VersionD.csv,"Version D","VC Version D",ROUND,CIRCLE,Study1,S,65,38,Test,User,-,,Recall,Recall2,1514,,0,-1,-1,0,0,,,1
5a5f7c21ac56240001543340,tiomsn2om3,"Deep vs Shallow",1,300,2020-07-08T15:25:52-07:00,5.8579168319702,8,versionC_stim.csv,VC_VersionD.csv,"Version D","VC Version D",CHILI,HOT,Study1,F,37,27,Test,User,-,,Recall,Recall2,5233,Pepper,0,2965,3822,0,0,,,1
5a5f7c21ac56240001543340,tiomsn2om3,"Deep vs Shallow",1,301,2020-07-08T15:25:54-07:00,1.6196990013123,8,versionC_stim.csv,VC_VersionD.csv,"Version D","VC Version D",CHEESE,WINE,Study1,S,57,31,Test,User,-,,Recall,Recall2,1088,,0,-1,-1,0,0,,,1
5a5f7c21ac56240001543340,tiomsn2om3,"Deep vs Shallow",1,302,2020-07-08T15:25:55-07:00,1.9636731147766,8,versionC_stim.csv,VC_VersionD.csv,"Version D","VC Version D",ACCIDENT,STRONG,Study1,U,80,21,Test,User,-,,Recall,Recall2,1443,,0,-1,-1,0,0,,,1
5a5f7c21ac56240001543340,tiomsn2om3,"Deep vs Shallow",1,303,2020-07-08T15:25:59-07:00,3.8760569095612,8,versionC_stim.csv,VC_VersionD.csv,"Version D","VC Version D",ROCK,GEOLOGY,Study1,B,19,71,Test,User,-,,Recall,Recall2,3278,Salt,18.181818181818,1766,2239,0,0,,,1
5a5f7c21ac56240001543340,tiomsn2om3,"Deep vs Shallow",1,304,2020-07-08T15:26:02-07:00,2.7676000595093,8,versionC_stim.csv,VC_VersionD.csv,"Version D","VC Version D",HUNGRY,PARK,Study1,U,68,85,Test,User,-,,Recall,Recall2,1217,,0,-1,-1,0,0,,,1
5a5f7c21ac56240001543340,tiomsn2om3,"Deep vs Shallow",1,305,2020-07-08T15:26:07-07:00,4.912929058075,8,versionC_stim.csv,VC_VersionD.csv,"Version D","VC Version D",SIGHT,DEBATE,Study1,U,73,83,Test,User,-,,Recall,Recall2,4222,Sound,18.181818181818,2315,3101,0,0,,,1
5a5f7c21ac56240001543340,tiomsn2om3,"Deep vs Shallow",1,306,2020-07-08T15:26:12-07:00,4.6323800086975,8,versionC_stim.csv,VC_VersionD.csv,"Version D","VC Version D",FUTURE,PAST,Study1,S,61,80,Test,User,-,,Recall,Recall2,3977,Past,100,2076,2550,1,1,,,1
5a5f7c21ac56240001543340,tiomsn2om3,"Deep vs Shallow",1,307,2020-07-08T15:26:15-07:00,3.0898909568787,8,versionC_stim.csv,VC_VersionD.csv,"Version D","VC Version D",BAD,DELINQUENT,Study1,B,6,67,Test,User,-,,Recall,Recall2,2466,,0,-1,-1,0,0,,,1
5a5f7c21ac56240001543340,tiomsn2om3,"Deep vs Shallow",1,308,2020-07-08T15:26:23-07:00,7.8043069839478,8,versionC_stim.csv,VC_VersionD.csv,"Version D","VC Version D",CAR,HAPPY,Study1,U,77,7,Test,User,-,,Recall,Recall2,7162,Vehicle,16.666666666667,3965,5800,0,0,,,1
5a5f7c21ac56240001543340,tiomsn2om3,"Deep vs Shallow",1,309,2020-07-08T15:26:32-07:00,9.5292160511017,8,versionC_stim.csv,VC_VersionD.csv,"Version D","VC Version D",BAR,GRILL,Study1,S,52,18,Test,User,-,,Recall,Recall2,4072,Stool,20,2634,3449,0,0,,,1
5a5f7c21ac56240001543340,tiomsn2om3,"Deep vs Shallow",1,310,2020-07-08T15:26:36-07:00,4.3477919101715,8,versionC_stim.csv,VC_VersionD.csv,"Version D","VC Version D",COW,HERD,Study1,B,22,76,Test,User,-,,Recall,Recall2,3713,Milk,0,2116,2737,0,0,,,1
5a5f7c21ac56240001543340,tiomsn2om3,"Deep vs Shallow",1,311,2020-07-08T15:26:38-07:00,1.9425580501556,8,versionC_stim.csv,VC_VersionD.csv,"Version D","VC Version D",FOOT,SHOE,Study1,S,60,82,Test,User,-,,Recall,Recall2,1403,,0,-1,-1,0,0,,,1
5a5f7c21ac56240001543340,tiomsn2om3,"Deep vs Shallow",1,312,2020-07-08T15:26:43-07:00,4.1866519451141,8,versionC_stim.csv,VC_VersionD.csv,"Version D","VC Version D",LIVER,KIDNEY,Study1,S,53,43,Test,User,-,,Recall,Recall2,2552,Kidney,100,1356,1960,1,1,,,1
5a5f7c21ac56240001543340,tiomsn2om3,"Deep vs Shallow",1,313,2020-07-08T15:26:51-07:00,8.1177821159363,8,versionC_stim.csv,VC_VersionD.csv,"Version D","VC Version D",BRONZE,ARTERY,Study1,U,74,64,Test,User,-,,Recall,Recall2,7494,Artillery,80,4704,6824,0,1,,,1
5a5f7c21ac56240001543340,tiomsn2om3,"Deep vs Shallow",1,314,2020-07-08T15:26:55-07:00,4.6590638160706,8,versionC_stim.csv,VC_VersionD.csv,"Version D","VC Version D",HAND,FIX,Study1,U,75,59,Test,User,-,,Recall,Recall2,4013,Foot,28.571428571429,1936,3516,0,0,,,1
5a5f7c21ac56240001543340,tiomsn2om3,"Deep vs Shallow",1,315,2020-07-08T15:26:59-07:00,3.2020001411438,8,versionC_stim.csv,VC_VersionD.csv,"Version D","VC Version D",COLD,BITTER,Study1,B,12,14,Test,User,-,,Recall,Recall2,2509,Hot,22.222222222222,1627,2036,0,0,,,1
5a5f7c21ac56240001543340,tiomsn2om3,"Deep vs Shallow",1,316,2020-07-08T15:27:01-07:00,2.4196619987488,8,versionC_stim.csv,VC_VersionD.csv,"Version D","VC Version D",SITE,LOCATION,Study1,S,48,52,Test,User,-,,Recall,Recall2,1760,,0,-1,-1,0,0,,,1
5a5f7c21ac56240001543340,tiomsn2om3,"Deep vs Shallow",1,317,2020-07-08T15:27:03-07:00,1.6253499984741,8,versionC_stim.csv,VC_VersionD.csv,"Version D","VC Version D",CLUTTER,PUSHER,Study1,U,66,62,Test,User,-,,Recall,Recall2,1095,,0,-1,-1,0,0,,,1
5a5f7c21ac56240001543340,tiomsn2om3,"Deep vs Shallow",1,318,2020-07-08T15:27:05-07:00,2.1729788780212,8,versionC_stim.csv,VC_VersionD.csv,"Version D","VC Version D",WASTE,DUMP,Study1,S,49,54,Test,User,-,,Recall,Recall2,1640,,0,-1,-1,0,0,,,1
5a5f7c21ac56240001543340,tiomsn2om3,"Deep vs Shallow",1,319,2020-07-08T15:27:09-07:00,3.9039211273193,8,versionC_stim.csv,VC_VersionD.csv,"Version D","VC Version D",WASP,BUG,Study1,F,32,19,Test,User,-,,Recall,Recall2,3280,Hornet,0,1834,2629,0,0,,,1
5a5f7c21ac56240001543340,tiomsn2om3,"Deep vs Shallow",1,320,2020-07-08T15:27:14-07:00,5.1511869430542,8,versionC_stim.csv,VC_VersionD.csv,"Version D","VC Version D",BLAZE,FIRE,Study1,F,45,61,Test,User,-,,Recall,Recall2,4505,,0,-1,-1,0,0,,,1
