Username,ID,ExperimentName,Session,Trial,Date,TimeDif,"Condition Number","Stimuli File","Order File","Condition Description","Condition Notes",Stimuli*Cue,Stimuli*Answer,Stimuli*Shuffle,"Stimuli*Stimuli Notes",Stimuli*Value,Procedure*Item,"Procedure*Trial Type","Procedure*Max Time","Procedure*Min Time",Procedure*Text,"Procedure*Procedure Notes",Procedure*Shuffle,Response*RT,Response*Response,Response*Accuracy,Response*RTfirst,Response*RTlast,Response*strictAcc,Response*lenientAcc,Response*focus,Response*JOL,Response*Focus
w927437,iay7d2wekj,Nick_Dissertation_EX1b,1,1,2020-07-06T12:01:53-07:00,6.790219783783,1,versionA_stim.csv,VC_VersionA.csv,"Version A","Version A",,,,,,0,Instruct,-,5,"In this section, you will be presented with a series of word pairs.",Initial_Instruct,Instruct1,5645,,,-1,-1,,,,,1
w927437,iay7d2wekj,Nick_Dissertation_EX1b,1,2,2020-07-06T12:02:03-07:00,10.038670063019,1,versionA_stim.csv,VC_VersionA.csv,"Version A","Version A",,,,,,0,Instruct,-,5,"As you study, you will be asked to count the total number of vowels (a, e, i, o, u) within the two words. Please note that y is not considered a vowel.",,Instruct13,8369,,,-1,-1,,,,,1
w927437,iay7d2wekj,Nick_Dissertation_EX1b,1,3,2020-07-06T12:02:16-07:00,12.72138094902,1,versionA_stim.csv,VC_VersionA.csv,"Version A","Version A",,,,,,0,Instruct,-,10,"For example, if you are given the pair CAT - DOG, CAT has one vowel and DOG has one vowel. The correct response would be 2 (1 + 1 = 2). After typing the number, you will press ENTER to move to the next pair.",,Instruct14,10876,,,-1,-1,,,,,1
w927437,iay7d2wekj,Nick_Dissertation_EX1b,1,4,2020-07-06T12:02:19-07:00,3.5680451393127,1,versionA_stim.csv,VC_VersionA.csv,"Version A","Version A",,,,,,0,Instruct,User,-,"You will now begin the study. Press Enter when you are ready to begin.",,Instruct16,1828,,,-1,-1,,,,,1
w927437,iay7d2wekj,Nick_Dissertation_EX1b,1,5,2020-07-06T12:02:25-07:00,5.8883199691772,1,versionA_stim.csv,VC_VersionA.csv,"Version A","Version A",TREES,GREEN,BUFFER1,Buffer,1,5,VC,User,-,"How many vowels are the two words combined?|Type your response below and then press Enter.",Study/JOL,BUFFER,4340,,,3705,3705,,,,4,1
w927437,iay7d2wekj,Nick_Dissertation_EX1b,1,6,2020-07-06T12:02:31-07:00,5.9607179164886,1,versionA_stim.csv,VC_VersionA.csv,"Version A","Version A",SCARE,HIDE,BUFFER1,Buffer,4,3,VC,User,-,"How many vowels are the two words combined?|Type your response below and then press Enter.",Study/JOL,BUFFER,4288,,,3463,3463,,,,4,1
w927437,iay7d2wekj,Nick_Dissertation_EX1b,1,7,2020-07-06T12:02:35-07:00,4.4297080039978,1,versionA_stim.csv,VC_VersionA.csv,"Version A","Version A",SPACE,JAM,BUFFER1,Buffer,5,4,VC,User,-,"How many vowels are the two words combined?|Type your response below and then press Enter.",Study/JOL,BUFFER,2833,,,2317,2317,,,,3,1
w927437,iay7d2wekj,Nick_Dissertation_EX1b,1,8,2020-07-06T12:02:42-07:00,6.8174951076508,1,versionA_stim.csv,VC_VersionA.csv,"Version A","Version A",BASEBALL,CATCHER,BUFFER1,Buffer,2,2,VC,User,-,"How many vowels are the two words combined?|Type your response below and then press Enter.",Study/JOL,BUFFER,4979,,,4375,4375,,,,5,1
w927437,iay7d2wekj,Nick_Dissertation_EX1b,1,9,2020-07-06T12:02:49-07:00,7.1709978580475,1,versionA_stim.csv,VC_VersionA.csv,"Version A","Version A",PEANUT,BUTTER,BUFFER1,Buffer,3,6,VC,User,-,"How many vowels are the two words combined?|Type your response below and then press Enter.",Study/JOL,BUFFER,5399,,,4795,4795,,,,5,1
w927437,iay7d2wekj,Nick_Dissertation_EX1b,1,10,2020-07-06T12:04:14-07:00,84.598014116287,1,versionA_stim.csv,VC_VersionA.csv,"Version A","Version A",DISCOVER,FLOOR,Study1,U,71,27,VC,User,-,"How many vowels are the two words combined?|Type your response below and then press Enter.",Study/JOL,"Study Phase",83044,,,82441,82441,,,,5,1
w927437,iay7d2wekj,Nick_Dissertation_EX1b,1,11,2020-07-06T12:04:23-07:00,8.5538060665131,1,versionA_stim.csv,VC_VersionA.csv,"Version A","Version A",BABY,CHILD,Study1,S,64,75,VC,User,-,"How many vowels are the two words combined?|Type your response below and then press Enter.",Study/JOL,"Study Phase",5836,,,5209,5209,,,,2,1
w927437,iay7d2wekj,Nick_Dissertation_EX1b,1,12,2020-07-06T12:04:36-07:00,13.340443849564,1,versionA_stim.csv,VC_VersionA.csv,"Version A","Version A",NUMBER,AMOUNT,Study1,S,47,86,VC,User,-,"How many vowels are the two words combined?|Type your response below and then press Enter.",Study/JOL,"Study Phase",10421,,,9738,9738,,,,5,1
w927437,iay7d2wekj,Nick_Dissertation_EX1b,1,13,2020-07-06T12:04:55-07:00,18.746943950653,1,versionA_stim.csv,VC_VersionA.csv,"Version A","Version A",HONEY,BEE,Study1,S,63,30,VC,User,-,"How many vowels are the two words combined?|Type your response below and then press Enter.",Study/JOL,"Study Phase",17063,,,15316,15316,,,,4,1
w927437,iay7d2wekj,Nick_Dissertation_EX1b,1,14,2020-07-06T12:05:01-07:00,6.484452009201,1,versionA_stim.csv,VC_VersionA.csv,"Version A","Version A",PAST,FUTURE,Study1,S,61,70,VC,User,-,"How many vowels are the two words combined?|Type your response below and then press Enter.",Study/JOL,"Study Phase",4735,,,4091,4091,,,,4,1
w927437,iay7d2wekj,Nick_Dissertation_EX1b,1,15,2020-07-06T12:05:08-07:00,6.4722211360931,1,versionA_stim.csv,VC_VersionA.csv,"Version A","Version A",DELINQUENT,BAD,Study1,F,6,35,VC,User,-,"How many vowels are the two words combined?|Type your response below and then press Enter.",Study/JOL,"Study Phase",4858,,,4263,4263,,,,5,1
w927437,iay7d2wekj,Nick_Dissertation_EX1b,1,16,2020-07-06T12:05:13-07:00,5.0945479869843,1,versionA_stim.csv,VC_VersionA.csv,"Version A","Version A",BUG,WASP,Study1,B,32,78,VC,User,-,"How many vowels are the two words combined?|Type your response below and then press Enter.",Study/JOL,"Study Phase",3189,,,2682,2682,,,,2,1
w927437,iay7d2wekj,Nick_Dissertation_EX1b,1,17,2020-07-06T12:05:18-07:00,5.037034034729,1,versionA_stim.csv,VC_VersionA.csv,"Version A","Version A",PAW,DOG,Study1,F,15,69,VC,User,-,"How many vowels are the two words combined?|Type your response below and then press Enter.",Study/JOL,"Study Phase",2908,,,2328,2329,,,,2,1
w927437,iay7d2wekj,Nick_Dissertation_EX1b,1,18,2020-07-06T12:05:23-07:00,5.7039558887482,1,versionA_stim.csv,VC_VersionA.csv,"Version A","Version A",KING,VASE,Study1,U,85,81,VC,User,-,"How many vowels are the two words combined?|Type your response below and then press Enter.",Study/JOL,"Study Phase",3097,,,2549,2549,,,,3,1
w927437,iay7d2wekj,Nick_Dissertation_EX1b,1,19,2020-07-06T12:05:32-07:00,8.3256161212921,1,versionA_stim.csv,VC_VersionA.csv,"Version A","Version A",WORK,CHORE,Study1,B,39,67,VC,User,-,"How many vowels are the two words combined?|Type your response below and then press Enter.",Study/JOL,"Study Phase",4847,,,4299,4299,,,,3,1
w927437,iay7d2wekj,Nick_Dissertation_EX1b,1,20,2020-07-06T12:05:38-07:00,6.2372529506683,1,versionA_stim.csv,VC_VersionA.csv,"Version A","Version A",GEOLOGY,ROCK,Study1,F,19,71,VC,User,-,"How many vowels are the two words combined?|Type your response below and then press Enter.",Study/JOL,"Study Phase",4198,,,3666,3667,,,,4,1
w927437,iay7d2wekj,Nick_Dissertation_EX1b,1,21,2020-07-06T12:05:45-07:00,7.3310830593109,1,versionA_stim.csv,VC_VersionA.csv,"Version A","Version A",LAW,ATTORNEY,Study1,B,34,25,VC,User,-,"How many vowels are the two words combined?|Type your response below and then press Enter.",Study/JOL,"Study Phase",5734,,,5178,5178,,,,3,1
w927437,iay7d2wekj,Nick_Dissertation_EX1b,1,22,2020-07-06T12:05:51-07:00,6.0649318695068,1,versionA_stim.csv,VC_VersionA.csv,"Version A","Version A",PARK,HUNGRY,Study1,U,68,68,VC,User,-,"How many vowels are the two words combined?|Type your response below and then press Enter.",Study/JOL,"Study Phase",4408,,,3788,3788,,,,2,1
w927437,iay7d2wekj,Nick_Dissertation_EX1b,1,23,2020-07-06T12:05:59-07:00,7.6081221103668,1,versionA_stim.csv,VC_VersionA.csv,"Version A","Version A",BRIDGE,WATER,Study1,F,18,56,VC,User,-,"How many vowels are the two words combined?|Type your response below and then press Enter.",Study/JOL,"Study Phase",5906,,,5310,5310,,,,4,1
w927437,iay7d2wekj,Nick_Dissertation_EX1b,1,24,2020-07-06T12:06:09-07:00,10.364080905914,1,versionA_stim.csv,VC_VersionA.csv,"Version A","Version A",GREAT,FANTASTIC,Study1,B,35,53,VC,User,-,"How many vowels are the two words combined?|Type your response below and then press Enter.",Study/JOL,"Study Phase",8370,,,7815,7815,,,,5,1
w927437,iay7d2wekj,Nick_Dissertation_EX1b,1,25,2020-07-06T12:06:17-07:00,7.3113269805908,1,versionA_stim.csv,VC_VersionA.csv,"Version A","Version A",CIRCLE,ROUND,Study1,S,65,46,VC,User,-,"How many vowels are the two words combined?|Type your response below and then press Enter.",Study/JOL,"Study Phase",5247,,,4660,4660,,,,4,1
w927437,iay7d2wekj,Nick_Dissertation_EX1b,1,26,2020-07-06T12:06:22-07:00,4.968670129776,1,versionA_stim.csv,VC_VersionA.csv,"Version A","Version A",HIDE,SICK,Study1,U,84,61,VC,User,-,"How many vowels are the two words combined?|Type your response below and then press Enter.",Study/JOL,"Study Phase",3171,,,2584,2584,,,,3,1
w927437,iay7d2wekj,Nick_Dissertation_EX1b,1,27,2020-07-06T12:06:29-07:00,7.3133659362793,1,versionA_stim.csv,VC_VersionA.csv,"Version A","Version A",DUMP,WASTE,Study1,S,49,36,VC,User,-,"How many vowels are the two words combined?|Type your response below and then press Enter.",Study/JOL,"Study Phase",5602,,,5070,5070,,,,3,1
w927437,iay7d2wekj,Nick_Dissertation_EX1b,1,28,2020-07-06T12:06:37-07:00,8.0074388980865,1,versionA_stim.csv,VC_VersionA.csv,"Version A","Version A",PLANE,PILOT,Study1,B,44,43,VC,User,-,"How many vowels are the two words combined?|Type your response below and then press Enter.",Study/JOL,"Study Phase",6046,,,5291,5291,,,,4,1
w927437,iay7d2wekj,Nick_Dissertation_EX1b,1,29,2020-07-06T12:06:45-07:00,7.7971930503845,1,versionA_stim.csv,VC_VersionA.csv,"Version A","Version A",TUNA,FISH,Study1,F,25,31,VC,User,-,"How many vowels are the two words combined?|Type your response below and then press Enter.",Study/JOL,"Study Phase",5502,,,3194,3194,,,,3,1
w927437,iay7d2wekj,Nick_Dissertation_EX1b,1,30,2020-07-06T12:06:56-07:00,11.154734134674,1,versionA_stim.csv,VC_VersionA.csv,"Version A","Version A",CLOTHES,ATTIRE,Study1,B,43,64,VC,User,-,"How many vowels are the two words combined?|Type your response below and then press Enter.",Study/JOL,"Study Phase",9350,,,8715,8716,,,,5,1
w927437,iay7d2wekj,Nick_Dissertation_EX1b,1,31,2020-07-06T12:07:06-07:00,10.320693016052,1,versionA_stim.csv,VC_VersionA.csv,"Version A","Version A",FULL,ENOUGH,Study1,B,26,18,VC,User,-,"How many vowels are the two words combined?|Type your response below and then press Enter.",Study/JOL,"Study Phase",8680,,,8197,8197,,,,4,1
w927437,iay7d2wekj,Nick_Dissertation_EX1b,1,32,2020-07-06T12:07:16-07:00,9.3256897926331,1,versionA_stim.csv,VC_VersionA.csv,"Version A","Version A",CHISEL,HAMMER,Study1,F,9,16,VC,User,-,"How many vowels are the two words combined?|Type your response below and then press Enter.",Study/JOL,"Study Phase",7581,,,6953,6953,,,,4,1
w927437,iay7d2wekj,Nick_Dissertation_EX1b,1,33,2020-07-06T12:07:25-07:00,8.9151821136475,1,versionA_stim.csv,VC_VersionA.csv,"Version A","Version A",LETTUCE,SALAD,Study1,S,59,9,VC,User,-,"How many vowels are the two words combined?|Type your response below and then press Enter.",Study/JOL,"Study Phase",7035,,,6359,6359,,,,5,1
w927437,iay7d2wekj,Nick_Dissertation_EX1b,1,34,2020-07-06T12:07:35-07:00,10.082168102264,1,versionA_stim.csv,VC_VersionA.csv,"Version A","Version A",BALL,RACKET,Study1,B,38,49,VC,User,-,"How many vowels are the two words combined?|Type your response below and then press Enter.",Study/JOL,"Study Phase",7518,,,6866,6867,,,,3,1
w927437,iay7d2wekj,Nick_Dissertation_EX1b,1,35,2020-07-06T12:07:48-07:00,13.078553915024,1,versionA_stim.csv,VC_VersionA.csv,"Version A","Version A",HEIGHT,GROWTH,Study1,B,30,63,VC,User,-,"How many vowels are the two words combined?|Type your response below and then press Enter.",Study/JOL,"Study Phase",11593,,,10830,10830,,,,3,1
w927437,iay7d2wekj,Nick_Dissertation_EX1b,1,36,2020-07-06T12:07:53-07:00,5.6713039875031,1,versionA_stim.csv,VC_VersionA.csv,"Version A","Version A",CASH,WOULD,Study1,U,83,45,VC,User,-,"How many vowels are the two words combined?|Type your response below and then press Enter.",Study/JOL,"Study Phase",4052,,,3544,3544,,,,3,1
w927437,iay7d2wekj,Nick_Dissertation_EX1b,1,37,2020-07-06T12:07:59-07:00,5.7994840145111,1,versionA_stim.csv,VC_VersionA.csv,"Version A","Version A",TAKE,SEIZE,Study1,B,29,19,VC,User,-,"How many vowels are the two words combined?|Type your response below and then press Enter.",Study/JOL,"Study Phase",4102,,,3491,3491,,,,4,1
w927437,iay7d2wekj,Nick_Dissertation_EX1b,1,38,2020-07-06T12:08:19-07:00,20.038258075714,1,versionA_stim.csv,VC_VersionA.csv,"Version A","Version A",ARCHITECTURE,DESIGN,Study1,S,51,76,VC,User,-,"How many vowels are the two words combined?|Type your response below and then press Enter.",Study/JOL,"Study Phase",18022,,,17491,17491,,,,7,1
w927437,iay7d2wekj,Nick_Dissertation_EX1b,1,39,2020-07-06T12:08:24-07:00,5.0888338088989,1,versionA_stim.csv,VC_VersionA.csv,"Version A","Version A",FIX,HAND,Study1,U,75,48,VC,User,-,"How many vowels are the two words combined?|Type your response below and then press Enter.",Study/JOL,"Study Phase",3403,,,2776,2776,,,,2,1
w927437,iay7d2wekj,Nick_Dissertation_EX1b,1,40,2020-07-06T12:08:29-07:00,4.7951431274414,1,versionA_stim.csv,VC_VersionA.csv,"Version A","Version A",SOON,BELT,Study1,U,70,29,VC,User,-,"How many vowels are the two words combined?|Type your response below and then press Enter.",Study/JOL,"Study Phase",3083,,,2415,2415,,,,3,1
w927437,iay7d2wekj,Nick_Dissertation_EX1b,1,41,2020-07-06T12:08:36-07:00,6.6801888942719,1,versionA_stim.csv,VC_VersionA.csv,"Version A","Version A",DISCUSSION,TALK,Study1,F,21,44,VC,User,-,"How many vowels are the two words combined?|Type your response below and then press Enter.",Study/JOL,"Study Phase",4829,,,4258,4258,,,,5,1
w927437,iay7d2wekj,Nick_Dissertation_EX1b,1,42,2020-07-06T12:08:41-07:00,5.2902081012726,1,versionA_stim.csv,VC_VersionA.csv,"Version A","Version A",FIRE,BLAZE,Study1,B,45,42,VC,User,-,"How many vowels are the two words combined?|Type your response below and then press Enter.",Study/JOL,"Study Phase",3664,,,3220,3220,,,,4,1
w927437,iay7d2wekj,Nick_Dissertation_EX1b,1,43,2020-07-06T12:08:47-07:00,5.4697189331055,1,versionA_stim.csv,VC_VersionA.csv,"Version A","Version A",WAGE,MONEY,Study1,F,8,74,VC,User,-,"How many vowels are the two words combined?|Type your response below and then press Enter.",Study/JOL,"Study Phase",3840,,,3332,3332,,,,4,1
w927437,iay7d2wekj,Nick_Dissertation_EX1b,1,44,2020-07-06T12:08:57-07:00,10.604799985886,1,versionA_stim.csv,VC_VersionA.csv,"Version A","Version A",DEBATE,SIGHT,Study1,U,73,79,VC,User,-,"How many vowels are the two words combined?|Type your response below and then press Enter.",Study/JOL,"Study Phase",8579,,,8023,8023,,,,4,1
w927437,iay7d2wekj,Nick_Dissertation_EX1b,1,45,2020-07-06T12:09:08-07:00,10.875712156296,1,versionA_stim.csv,VC_VersionA.csv,"Version A","Version A",MEANING,DEFINITION,Study1,S,62,54,VC,User,-,"How many vowels are the two words combined?|Type your response below and then press Enter.",Study/JOL,"Study Phase",8689,,,8230,8230,,,,7,1
w927437,iay7d2wekj,Nick_Dissertation_EX1b,1,46,2020-07-06T12:09:16-07:00,7.679899930954,1,versionA_stim.csv,VC_VersionA.csv,"Version A","Version A",STRONG,ACCIDENT,Study1,U,80,20,VC,User,-,"How many vowels are the two words combined?|Type your response below and then press Enter.",Study/JOL,"Study Phase",5588,,,5153,5153,,,,4,1
w927437,iay7d2wekj,Nick_Dissertation_EX1b,1,47,2020-07-06T12:09:25-07:00,9.0050599575043,1,versionA_stim.csv,VC_VersionA.csv,"Version A","Version A",DIETARY,SACKING,Study1,U,67,34,VC,User,-,"How many vowels are the two words combined?|Type your response below and then press Enter.",Study/JOL,"Study Phase",7302,,,6730,6731,,,,5,1
w927437,iay7d2wekj,Nick_Dissertation_EX1b,1,48,2020-07-06T12:09:30-07:00,5.0794010162354,1,versionA_stim.csv,VC_VersionA.csv,"Version A","Version A",HOT,CHILI,Study1,B,37,66,VC,User,-,"How many vowels are the two words combined?|Type your response below and then press Enter.",Study/JOL,"Study Phase",3391,,,3019,3019,,,,3,1
w927437,iay7d2wekj,Nick_Dissertation_EX1b,1,49,2020-07-06T12:09:49-07:00,19.318243026733,1,versionA_stim.csv,VC_VersionA.csv,"Version A","Version A",DIGESTION,STOMACH,Study1,F,7,77,VC,User,-,"How many vowels are the two words combined?|Type your response below and then press Enter.",Study/JOL,"Study Phase",15385,,,14846,14846,,,,6,1
w927437,iay7d2wekj,Nick_Dissertation_EX1b,1,50,2020-07-06T12:10:01-07:00,11.964167833328,1,versionA_stim.csv,VC_VersionA.csv,"Version A","Version A",SUGAR,RIDDLE,Study1,U,81,59,VC,User,-,"How many vowels are the two words combined?|Type your response below and then press Enter.",Study/JOL,"Study Phase",10242,,,9672,9672,,,,4,1
w927437,iay7d2wekj,Nick_Dissertation_EX1b,1,51,2020-07-06T12:10:15-07:00,13.67351102829,1,versionA_stim.csv,VC_VersionA.csv,"Version A","Version A",WAY,OUT,Study1,F,16,22,VC,User,-,"How many vowels are the two words combined?|Type your response below and then press Enter.",Study/JOL,"Study Phase",11928,,,10038,10038,,,,3,1
w927437,iay7d2wekj,Nick_Dissertation_EX1b,1,52,2020-07-06T12:10:22-07:00,7.1276051998138,1,versionA_stim.csv,VC_VersionA.csv,"Version A","Version A",ART,LION,Study1,U,79,58,VC,User,-,"How many vowels are the two words combined?|Type your response below and then press Enter.",Study/JOL,"Study Phase",5212,,,4459,4459,,,,3,1
w927437,iay7d2wekj,Nick_Dissertation_EX1b,1,53,2020-07-06T12:10:31-07:00,8.9839458465576,1,versionA_stim.csv,VC_VersionA.csv,"Version A","Version A",HYGIENE,CLEAN,Study1,F,17,26,VC,User,-,"How many vowels are the two words combined?|Type your response below and then press Enter.",Study/JOL,"Study Phase",7242,,,6655,6655,,,,5,1
w927437,iay7d2wekj,Nick_Dissertation_EX1b,1,54,2020-07-06T12:10:37-07:00,6.2591469287872,1,versionA_stim.csv,VC_VersionA.csv,"Version A","Version A",LIFT,WOMAN,Study1,U,69,72,VC,User,-,"How many vowels are the two words combined?|Type your response below and then press Enter.",Study/JOL,"Study Phase",4798,,,4233,4233,,,,3,1
w927437,iay7d2wekj,Nick_Dissertation_EX1b,1,55,2020-07-06T12:10:54-07:00,17.238263130188,1,versionA_stim.csv,VC_VersionA.csv,"Version A","Version A",EDITOR,NEWS,Study1,F,10,52,VC,User,-,"How many vowels are the two words combined?|Type your response below and then press Enter.",Study/JOL,"Study Phase",15452,,,14930,14930,,,,4,1
w927437,iay7d2wekj,Nick_Dissertation_EX1b,1,56,2020-07-06T12:11:05-07:00,10.922579050064,1,versionA_stim.csv,VC_VersionA.csv,"Version A","Version A",PUSHER,CLUTTER,Study1,U,66,23,VC,User,-,"How many vowels are the two words combined?|Type your response below and then press Enter.",Study/JOL,"Study Phase",8649,,,8213,8213,,,,4,1
w927437,iay7d2wekj,Nick_Dissertation_EX1b,1,57,2020-07-06T12:11:13-07:00,7.3053159713745,1,versionA_stim.csv,VC_VersionA.csv,"Version A","Version A",VALLEY,ADD,Study1,U,82,57,VC,User,-,"How many vowels are the two words combined?|Type your response below and then press Enter.",Study/JOL,"Study Phase",5609,,,5254,5254,,,,3,1
w927437,iay7d2wekj,Nick_Dissertation_EX1b,1,58,2020-07-06T12:11:18-07:00,5.0044059753418,1,versionA_stim.csv,VC_VersionA.csv,"Version A","Version A",SWAN,BIRD,Study1,F,14,65,VC,User,-,"How many vowels are the two words combined?|Type your response below and then press Enter.",Study/JOL,"Study Phase",3327,,,3043,3043,,,,2,1
w927437,iay7d2wekj,Nick_Dissertation_EX1b,1,59,2020-07-06T12:11:28-07:00,10.246454954147,1,versionA_stim.csv,VC_VersionA.csv,"Version A","Version A",KEY,LATCH,Study1,B,36,84,VC,User,-,"How many vowels are the two words combined?|Type your response below and then press Enter.",Study/JOL,"Study Phase",8264,,,7949,7950,,,,2,1
w927437,iay7d2wekj,Nick_Dissertation_EX1b,1,60,2020-07-06T12:11:40-07:00,12.034722089767,1,versionA_stim.csv,VC_VersionA.csv,"Version A","Version A",KIDNEY,LIVER,Study1,S,53,39,VC,User,-,"How many vowels are the two words combined?|Type your response below and then press Enter.",Study/JOL,"Study Phase",10294,,,9611,9611,,,,4,1
w927437,iay7d2wekj,Nick_Dissertation_EX1b,1,61,2020-07-06T12:12:28-07:00,48.237514972687,1,versionA_stim.csv,VC_VersionA.csv,"Version A","Version A",ARTERY,BRONZE,Study1,U,74,51,VC,User,-,"How many vowels are the two words combined?|Type your response below and then press Enter.",Study/JOL,"Study Phase",46530,,,46087,46087,,,,4,1
w927437,iay7d2wekj,Nick_Dissertation_EX1b,1,62,2020-07-06T12:12:35-07:00,7.3965330123901,1,versionA_stim.csv,VC_VersionA.csv,"Version A","Version A",LOCATION,SITE,Study1,S,48,33,VC,User,-,"How many vowels are the two words combined?|Type your response below and then press Enter.",Study/JOL,"Study Phase",5893,,,5601,5601,,,,6,1
w927437,iay7d2wekj,Nick_Dissertation_EX1b,1,63,2020-07-06T12:12:42-07:00,6.0417349338531,1,versionA_stim.csv,VC_VersionA.csv,"Version A","Version A",DRINK,SIP,Study1,B,27,55,VC,User,-,"How many vowels are the two words combined?|Type your response below and then press Enter.",Study/JOL,"Study Phase",4053,,,2746,2746,,,,2,1
w927437,iay7d2wekj,Nick_Dissertation_EX1b,1,64,2020-07-06T12:12:48-07:00,6.0844299793243,1,versionA_stim.csv,VC_VersionA.csv,"Version A","Version A",BLOW,WIND,Study1,S,55,41,VC,User,-,"How many vowels are the two words combined?|Type your response below and then press Enter.",Study/JOL,"Study Phase",4080,,,3716,3716,,,,2,1
w927437,iay7d2wekj,Nick_Dissertation_EX1b,1,65,2020-07-06T12:13:04-07:00,16.280100107193,1,versionA_stim.csv,VC_VersionA.csv,"Version A","Version A",HERD,COW,Study1,F,22,38,VC,User,-,"How many vowels are the two words combined?|Type your response below and then press Enter.",Study/JOL,"Study Phase",13412,,,12794,12794,,,,2,1
w927437,iay7d2wekj,Nick_Dissertation_EX1b,1,66,2020-07-06T12:13:08-07:00,4.3627140522003,1,versionA_stim.csv,VC_VersionA.csv,"Version A","Version A",DARK,CAVE,Study1,B,28,47,VC,User,-,"How many vowels are the two words combined?|Type your response below and then press Enter.",Study/JOL,"Study Phase",2628,,,2193,2193,,,,3,1
w927437,iay7d2wekj,Nick_Dissertation_EX1b,1,67,2020-07-06T12:13:16-07:00,7.6330409049988,1,versionA_stim.csv,VC_VersionA.csv,"Version A","Version A",ROOT,PLANT,Study1,F,13,60,VC,User,-,"How many vowels are the two words combined?|Type your response below and then press Enter.",Study/JOL,"Study Phase",4076,,,3544,3544,,,,3,1
w927437,iay7d2wekj,Nick_Dissertation_EX1b,1,68,2020-07-06T12:13:22-07:00,5.6404840946198,1,versionA_stim.csv,VC_VersionA.csv,"Version A","Version A",TRIAL,JURY,Study1,S,50,50,VC,User,-,"How many vowels are the two words combined?|Type your response below and then press Enter.",Study/JOL,"Study Phase",3826,,,3471,3471,,,,3,1
w927437,iay7d2wekj,Nick_Dissertation_EX1b,1,69,2020-07-06T12:13:29-07:00,7.0770168304443,1,versionA_stim.csv,VC_VersionA.csv,"Version A","Version A",SENTENCE,WORD,Study1,B,31,62,VC,User,-,"How many vowels are the two words combined?|Type your response below and then press Enter.",Study/JOL,"Study Phase",4902,,,4651,4651,,,,4,1
w927437,iay7d2wekj,Nick_Dissertation_EX1b,1,70,2020-07-06T12:13:38-07:00,9.6843230724335,1,versionA_stim.csv,VC_VersionA.csv,"Version A","Version A",MACHINE,POSITION,Study1,U,76,40,VC,User,-,"How many vowels are the two words combined?|Type your response below and then press Enter.",Study/JOL,"Study Phase",7480,,,7182,7182,,,,7,1
w927437,iay7d2wekj,Nick_Dissertation_EX1b,1,71,2020-07-06T12:13:44-07:00,5.8373439311981,1,versionA_stim.csv,VC_VersionA.csv,"Version A","Version A",BITTER,COLD,Study1,F,12,73,VC,User,-,"How many vowels are the two words combined?|Type your response below and then press Enter.",Study/JOL,"Study Phase",3310,,,2995,2995,,,,3,1
w927437,iay7d2wekj,Nick_Dissertation_EX1b,1,72,2020-07-06T12:13:55-07:00,10.560122966766,1,versionA_stim.csv,VC_VersionA.csv,"Version A","Version A",DEATH,BUSINESS,Study1,U,72,15,VC,User,-,"How many vowels are the two words combined?|Type your response below and then press Enter.",Study/JOL,"Study Phase",7972,,,7661,7661,,,,5,1
w927437,iay7d2wekj,Nick_Dissertation_EX1b,1,73,2020-07-06T12:14:16-07:00,21.722329139709,1,versionA_stim.csv,VC_VersionA.csv,"Version A","Version A",DUE,ASSIGNMENT,Study1,S,46,85,VC,User,-,"How many vowels are the two words combined?|Type your response below and then press Enter.",Study/JOL,"Study Phase",18926,,,18659,18659,,,,5,1
w927437,iay7d2wekj,Nick_Dissertation_EX1b,1,74,2020-07-06T12:14:31-07:00,14.800611019135,1,versionA_stim.csv,VC_VersionA.csv,"Version A","Version A",ORCHID,FLOWER,Study1,F,24,24,VC,User,-,"How many vowels are the two words combined?|Type your response below and then press Enter.",Study/JOL,"Study Phase",10937,,,10614,10615,,,,4,1
w927437,iay7d2wekj,Nick_Dissertation_EX1b,1,75,2020-07-06T12:14:39-07:00,7.314817905426,1,versionA_stim.csv,VC_VersionA.csv,"Version A","Version A",MATH,DIVISION,Study1,B,33,7,VC,User,-,"How many vowels are the two words combined?|Type your response below and then press Enter.",Study/JOL,"Study Phase",5463,,,5211,5211,,,,5,1
w927437,iay7d2wekj,Nick_Dissertation_EX1b,1,76,2020-07-06T12:14:46-07:00,7.3608899116516,1,versionA_stim.csv,VC_VersionA.csv,"Version A","Version A",SMELL,STENCH,Study1,B,42,13,VC,User,-,"How many vowels are the two words combined?|Type your response below and then press Enter.",Study/JOL,"Study Phase",5441,,,5182,5182,,,,2,1
w927437,iay7d2wekj,Nick_Dissertation_EX1b,1,77,2020-07-06T12:14:54-07:00,7.7299160957336,1,versionA_stim.csv,VC_VersionA.csv,"Version A","Version A",CREDIT,CARD,Study1,F,23,28,VC,User,-,"How many vowels are the two words combined?|Type your response below and then press Enter.",Study/JOL,"Study Phase",4400,,,4141,4141,,,,3,1
w927437,iay7d2wekj,Nick_Dissertation_EX1b,1,78,2020-07-06T12:14:59-07:00,5.5162410736084,1,versionA_stim.csv,VC_VersionA.csv,"Version A","Version A",ALLOW,TUCK,Study1,U,78,12,VC,User,-,"How many vowels are the two words combined?|Type your response below and then press Enter.",Study/JOL,"Study Phase",3338,,,3037,3037,,,,3,1
w927437,iay7d2wekj,Nick_Dissertation_EX1b,1,79,2020-07-06T12:17:15-07:00,135.96099185944,1,versionA_stim.csv,VC_VersionA.csv,"Version A","Version A",HORNET,STING,Study1,F,11,37,VC,User,-,"How many vowels are the two words combined?|Type your response below and then press Enter.",Study/JOL,"Study Phase",134109,,,133537,133538,,,,3,1
w927437,iay7d2wekj,Nick_Dissertation_EX1b,1,80,2020-07-06T12:17:25-07:00,9.762423992157,1,versionA_stim.csv,VC_VersionA.csv,"Version A","Version A",BEGIN,END,Study1,S,54,80,VC,User,-,"How many vowels are the two words combined?|Type your response below and then press Enter.",Study/JOL,"Study Phase",7271,,,6509,6509,,,,3,1
w927437,iay7d2wekj,Nick_Dissertation_EX1b,1,81,2020-07-06T12:17:59-07:00,33.686179161072,1,versionA_stim.csv,VC_VersionA.csv,"Version A","Version A",SLEEP,DROWSY,Study1,B,41,21,VC,User,-,"How many vowels are the two words combined?|Type your response below and then press Enter.",Study/JOL,"Study Phase",32112,,,31565,31565,,,,3,1
w927437,iay7d2wekj,Nick_Dissertation_EX1b,1,82,2020-07-06T12:19:30-07:00,91.194972991943,1,versionA_stim.csv,VC_VersionA.csv,"Version A","Version A",BATHROOM,TOILET,Study1,S,58,82,VC,User,-,"How many vowels are the two words combined?|Type your response below and then press Enter.",Study/JOL,"Study Phase",88881,,,88222,88223,,,,6,1
w927437,iay7d2wekj,Nick_Dissertation_EX1b,1,83,2020-07-06T12:19:41-07:00,11.43412899971,1,versionA_stim.csv,VC_VersionA.csv,"Version A","Version A",GRILL,BAR,Study1,S,52,8,VC,User,-,"How many vowels are the two words combined?|Type your response below and then press Enter.",Study/JOL,"Study Phase",9823,,,9093,9093,,,,2,1
w927437,iay7d2wekj,Nick_Dissertation_EX1b,1,84,2020-07-06T12:21:53-07:00,131.72550702095,1,versionA_stim.csv,VC_VersionA.csv,"Version A","Version A",POP,SODA,Study1,S,56,83,VC,User,-,"How many vowels are the two words combined?|Type your response below and then press Enter.",Study/JOL,"Study Phase",129306,,,128655,128655,,,,3,1
w927437,iay7d2wekj,Nick_Dissertation_EX1b,1,85,2020-07-06T12:23:32-07:00,99.109994888306,1,versionA_stim.csv,VC_VersionA.csv,"Version A","Version A",HUNGER,FAMINE,Study1,B,40,32,VC,User,-,"How many vowels are the two words combined?|Type your response below and then press Enter.",Study/JOL,"Study Phase",96806,,,96211,96211,,,,5,1
w927437,iay7d2wekj,Nick_Dissertation_EX1b,1,86,2020-07-06T12:23:42-07:00,10.242181062698,1,versionA_stim.csv,VC_VersionA.csv,"Version A","Version A",REVOLUTION,WAR,Study1,F,20,14,VC,User,-,"How many vowels are the two words combined?|Type your response below and then press Enter.",Study/JOL,"Study Phase",6416,,,5844,5844,,,,6,1
w927437,iay7d2wekj,Nick_Dissertation_EX1b,1,87,2020-07-06T12:23:48-07:00,5.8409938812256,1,versionA_stim.csv,VC_VersionA.csv,"Version A","Version A",SHOE,FOOT,Study1,S,60,17,VC,User,-,"How many vowels are the two words combined?|Type your response below and then press Enter.",Study/JOL,"Study Phase",4003,,,3464,3464,,,,4,1
w927437,iay7d2wekj,Nick_Dissertation_EX1b,1,88,2020-07-06T12:23:56-07:00,7.9196059703827,1,versionA_stim.csv,VC_VersionA.csv,"Version A","Version A",WINE,CHEESE,Study1,S,57,11,VC,User,-,"How many vowels are the two words combined?|Type your response below and then press Enter.",Study/JOL,"Study Phase",6006,,,5146,5147,,,,5,1
w927437,iay7d2wekj,Nick_Dissertation_EX1b,1,89,2020-07-06T12:24:02-07:00,6.4813890457153,1,versionA_stim.csv,VC_VersionA.csv,"Version A","Version A",HAPPY,CAR,Study1,U,77,10,VC,User,-,"How many vowels are the two words combined?|Type your response below and then press Enter.",Study/JOL,"Study Phase",4111,,,3539,3539,,,,2,1
w927437,iay7d2wekj,Nick_Dissertation_EX1b,1,90,2020-07-06T12:24:11-07:00,8.0775210857391,1,versionA_stim.csv,VC_VersionA.csv,"Version A","Version A",SHERRIF,POLICE,BUFFER2,Buffer,87,88,VC,User,-,"How many vowels are the two words combined?|Type your response below and then press Enter.",Study/JOL,BUFFER2,6297,,,5725,5725,,,,5,1
w927437,iay7d2wekj,Nick_Dissertation_EX1b,1,91,2020-07-06T12:24:26-07:00,15.19645690918,1,versionA_stim.csv,VC_VersionA.csv,"Version A","Version A",MALT,CHOCOLATE,BUFFER2,Buffer,88,90,VC,User,-,"How many vowels are the two words combined?|Type your response below and then press Enter.",Study/JOL,BUFFER2,9337,,,8934,8934,,,,5,1
w927437,iay7d2wekj,Nick_Dissertation_EX1b,1,92,2020-07-06T12:24:31-07:00,5.6502251625061,1,versionA_stim.csv,VC_VersionA.csv,"Version A","Version A",THING,STUFF,BUFFER2,Buffer,90,87,VC,User,-,"How many vowels are the two words combined?|Type your response below and then press Enter.",Study/JOL,BUFFER2,4025,,,3854,3854,,,,2,1
w927437,iay7d2wekj,Nick_Dissertation_EX1b,1,93,2020-07-06T12:24:42-07:00,10.915908813477,1,versionA_stim.csv,VC_VersionA.csv,"Version A","Version A",MOON,SPACE,BUFFER2,Buffer,89,91,VC,User,-,"How many vowels are the two words combined?|Type your response below and then press Enter.",Study/JOL,BUFFER2,9275,,,9040,9040,,,,4,1
w927437,iay7d2wekj,Nick_Dissertation_EX1b,1,94,2020-07-06T12:25:18-07:00,35.333092212677,1,versionA_stim.csv,VC_VersionA.csv,"Version A","Version A",GEESE,GOOSE,BUFFER2,Buffer,86,89,VC,User,-,"How many vowels are the two words combined?|Type your response below and then press Enter.",Study/JOL,BUFFER2,33656,,,33331,33331,,,,6,1
w927437,iay7d2wekj,Nick_Dissertation_EX1b,1,95,2020-07-06T12:25:22-07:00,4.0651078224182,1,versionA_stim.csv,VC_VersionA.csv,"Version A","Version A",,,,,,0,Instruct,User,-,"You have completed this section. Please press Enter.",Filler_Instruction,Instruct2,2041,,,-1,-1,,,,,1
w927437,iay7d2wekj,Nick_Dissertation_EX1b,1,96,2020-07-06T12:27:24-07:00,122.48881697655,1,versionA_stim.csv,VC_VersionA.csv,"Version A","Version A",,,,,,0,FreeRecall,120,120,"Please list the 50 US states in alphabetical order. The task will automatically advance to the next screen after two minutes.",,Filler1,120887,"Alabama, Alaska, Arizona, Arkansas, California, Colorado, Connecticut, Deleware, Florida, Georgia, Hawaii, Idaho, Illinois, ",0,5712,118024,0,0,,,0.893
w927437,iay7d2wekj,Nick_Dissertation_EX1b,1,97,2020-07-06T12:27:50-07:00,26.151830196381,1,versionA_stim.csv,VC_VersionA.csv,"Version A","Version A",,,,,,0,Instruct,-,10,"You will now be presented with the first word from each of the previously studied item pairs. Please type the missing word. If you do not know the word, you may guess or press Enter to skip forward to the next pair.",,Instruct3,23086,,,-1,-1,,,,,1
w927437,iay7d2wekj,Nick_Dissertation_EX1b,1,98,2020-07-06T12:27:55-07:00,5.121917963028,1,versionA_stim.csv,VC_VersionA.csv,"Version A","Version A",SLEEP,DROWSY,Study1,B,41,21,Test,User,-,,Recall,Recall1,3460,bed,22.222222222222,2353,3304,0,0,,,1
w927437,iay7d2wekj,Nick_Dissertation_EX1b,1,99,2020-07-06T12:28:00-07:00,4.9999430179596,1,versionA_stim.csv,VC_VersionA.csv,"Version A","Version A",DUE,ASSIGNMENT,Study1,S,46,85,Test,User,-,,Recall,Recall1,2467,assignment,100,1176,2311,1,1,,,1
w927437,iay7d2wekj,Nick_Dissertation_EX1b,1,100,2020-07-06T12:28:05-07:00,4.4366729259491,1,versionA_stim.csv,VC_VersionA.csv,"Version A","Version A",TUNA,FISH,Study1,F,25,31,Test,User,-,,Recall,Recall1,1691,fish,100,1207,1479,1,1,,,1
w927437,iay7d2wekj,Nick_Dissertation_EX1b,1,101,2020-07-06T12:28:09-07:00,4.0035660266876,1,versionA_stim.csv,VC_VersionA.csv,"Version A","Version A",WORK,CHORE,Study1,B,39,67,Test,User,-,,Recall,Recall1,2244,,0,-1,-1,0,0,,,1
w927437,iay7d2wekj,Nick_Dissertation_EX1b,1,102,2020-07-06T12:28:13-07:00,4.1618020534515,1,versionA_stim.csv,VC_VersionA.csv,"Version A","Version A",HORNET,STING,Study1,F,11,37,Test,User,-,,Recall,Recall1,2428,bee,0,1226,1976,0,0,,,1
w927437,iay7d2wekj,Nick_Dissertation_EX1b,1,103,2020-07-06T12:28:34-07:00,20.519504785538,1,versionA_stim.csv,VC_VersionA.csv,"Version A","Version A",ART,LION,Study1,U,79,58,Test,User,-,,Recall,Recall1,18783,,0,-1,-1,0,0,,,0.36
w927437,iay7d2wekj,Nick_Dissertation_EX1b,1,104,2020-07-06T12:28:40-07:00,6.1677980422974,1,versionA_stim.csv,VC_VersionA.csv,"Version A","Version A",BATHROOM,TOILET,Study1,S,58,82,Test,User,-,,Recall,Recall1,4563,Toliet,83.333333333333,2015,3247,0,1,,,1
w927437,iay7d2wekj,Nick_Dissertation_EX1b,1,105,2020-07-06T12:28:48-07:00,8.5483560562134,1,versionA_stim.csv,VC_VersionA.csv,"Version A","Version A",HYGIENE,CLEAN,Study1,F,17,26,Test,User,-,,Recall,Recall1,6842,,0,-1,-1,0,0,,,1
w927437,iay7d2wekj,Nick_Dissertation_EX1b,1,106,2020-07-06T12:28:54-07:00,5.4047980308533,1,versionA_stim.csv,VC_VersionA.csv,"Version A","Version A",HEIGHT,GROWTH,Study1,B,30,63,Test,User,-,,Recall,Recall1,2376,weight,33.333333333333,1622,2200,0,0,,,1
w927437,iay7d2wekj,Nick_Dissertation_EX1b,1,107,2020-07-06T12:28:58-07:00,4.0342168807983,1,versionA_stim.csv,VC_VersionA.csv,"Version A","Version A",MACHINE,POSITION,Study1,U,76,40,Test,User,-,,Recall,Recall1,1359,,0,-1,-1,0,0,,,1
w927437,iay7d2wekj,Nick_Dissertation_EX1b,1,108,2020-07-06T12:29:04-07:00,6.677983045578,1,versionA_stim.csv,VC_VersionA.csv,"Version A","Version A",BRIDGE,WATER,Study1,F,18,56,Test,User,-,,Recall,Recall1,3788,tunnel,36.363636363636,1760,3591,0,0,,,1
w927437,iay7d2wekj,Nick_Dissertation_EX1b,1,109,2020-07-06T12:31:54-07:00,169.4411251545,1,versionA_stim.csv,VC_VersionA.csv,"Version A","Version A",DEATH,BUSINESS,Study1,U,72,15,Test,User,-,,Recall,Recall1,167688,funeral,40,166723,167475,0,0,,,0.118
w927437,iay7d2wekj,Nick_Dissertation_EX1b,1,110,2020-07-06T12:31:58-07:00,4.2244369983673,1,versionA_stim.csv,VC_VersionA.csv,"Version A","Version A",CREDIT,CARD,Study1,F,23,28,Test,User,-,,Recall,Recall1,1847,card,100,1348,1739,1,1,,,1
w927437,iay7d2wekj,Nick_Dissertation_EX1b,1,111,2020-07-06T12:32:02-07:00,3.613942861557,1,versionA_stim.csv,VC_VersionA.csv,"Version A","Version A",DUMP,WASTE,Study1,S,49,36,Test,User,-,,Recall,Recall1,1659,truck,20,976,1447,0,0,,,1
w927437,iay7d2wekj,Nick_Dissertation_EX1b,1,112,2020-07-06T12:32:06-07:00,4.1233420372009,1,versionA_stim.csv,VC_VersionA.csv,"Version A","Version A",CIRCLE,ROUND,Study1,S,65,46,Test,User,-,,Recall,Recall1,1743,round,100,1038,1574,1,1,,,1
w927437,iay7d2wekj,Nick_Dissertation_EX1b,1,113,2020-07-06T12:32:09-07:00,3.0804641246796,1,versionA_stim.csv,VC_VersionA.csv,"Version A","Version A",GREAT,FANTASTIC,Study1,B,35,53,Test,User,-,,Recall,Recall1,1424,,0,-1,-1,0,0,,,1
w927437,iay7d2wekj,Nick_Dissertation_EX1b,1,114,2020-07-06T12:32:13-07:00,3.8408269882202,1,versionA_stim.csv,VC_VersionA.csv,"Version A","Version A",FIX,HAND,Study1,U,75,48,Test,User,-,,Recall,Recall1,1798,,0,-1,-1,0,0,,,1
w927437,iay7d2wekj,Nick_Dissertation_EX1b,1,115,2020-07-06T12:32:17-07:00,4.0834918022156,1,versionA_stim.csv,VC_VersionA.csv,"Version A","Version A",CLOTHES,ATTIRE,Study1,B,43,64,Test,User,-,,Recall,Recall1,1957,hanger,33.333333333333,1194,1810,0,0,,,1
w927437,iay7d2wekj,Nick_Dissertation_EX1b,1,116,2020-07-06T12:32:23-07:00,6.5919661521912,1,versionA_stim.csv,VC_VersionA.csv,"Version A","Version A",MATH,DIVISION,Study1,B,33,7,Test,User,-,,Recall,Recall1,4514,,0,-1,-1,0,0,,,1
w927437,iay7d2wekj,Nick_Dissertation_EX1b,1,117,2020-07-06T12:32:28-07:00,4.3627350330353,1,versionA_stim.csv,VC_VersionA.csv,"Version A","Version A",GEOLOGY,ROCK,Study1,F,19,71,Test,User,-,,Recall,Recall1,2526,science,18.181818181818,1643,2307,0,0,,,1
w927437,iay7d2wekj,Nick_Dissertation_EX1b,1,118,2020-07-06T12:32:35-07:00,7.1344289779663,1,versionA_stim.csv,VC_VersionA.csv,"Version A","Version A",CASH,WOULD,Study1,U,83,45,Test,User,-,,Recall,Recall1,5583,credit,18.181818181818,4723,5443,0,0,,,1
w927437,iay7d2wekj,Nick_Dissertation_EX1b,1,119,2020-07-06T12:32:39-07:00,4.4742858409882,1,versionA_stim.csv,VC_VersionA.csv,"Version A","Version A",ORCHID,FLOWER,Study1,F,24,24,Test,User,-,,Recall,Recall1,1713,flower,100,1094,1557,1,1,,,1
w927437,iay7d2wekj,Nick_Dissertation_EX1b,1,120,2020-07-06T12:32:43-07:00,4.0755000114441,1,versionA_stim.csv,VC_VersionA.csv,"Version A","Version A",WAGE,MONEY,Study1,F,8,74,Test,User,-,,Recall,Recall1,2434,salary,18.181818181818,1519,2151,0,0,,,1
w927437,iay7d2wekj,Nick_Dissertation_EX1b,1,121,2020-07-06T12:32:47-07:00,3.7243070602417,1,versionA_stim.csv,VC_VersionA.csv,"Version A","Version A",PLANE,PILOT,Study1,B,44,43,Test,User,-,,Recall,Recall1,2068,,0,-1,-1,0,0,,,1
w927437,iay7d2wekj,Nick_Dissertation_EX1b,1,122,2020-07-06T12:33:30-07:00,42.839092969894,1,versionA_stim.csv,VC_VersionA.csv,"Version A","Version A",BABY,CHILD,Study1,S,64,75,Test,User,-,,Recall,Recall1,40969,,0,-1,-1,0,0,,,0.444
w927437,iay7d2wekj,Nick_Dissertation_EX1b,1,123,2020-07-06T12:33:36-07:00,5.5009450912476,1,versionA_stim.csv,VC_VersionA.csv,"Version A","Version A",VALLEY,ADD,Study1,U,82,57,Test,User,-,,Recall,Recall1,3787,mountain,18.181818181818,2023,2935,0,0,,,1
w927437,iay7d2wekj,Nick_Dissertation_EX1b,1,124,2020-07-06T12:33:38-07:00,2.707249879837,1,versionA_stim.csv,VC_VersionA.csv,"Version A","Version A",NUMBER,AMOUNT,Study1,S,47,86,Test,User,-,,Recall,Recall1,1047,,0,-1,-1,0,0,,,1
w927437,iay7d2wekj,Nick_Dissertation_EX1b,1,125,2020-07-06T12:33:41-07:00,2.9850289821625,1,versionA_stim.csv,VC_VersionA.csv,"Version A","Version A",ALLOW,TUCK,Study1,U,78,12,Test,User,-,,Recall,Recall1,884,,0,-1,-1,0,0,,,1
w927437,iay7d2wekj,Nick_Dissertation_EX1b,1,126,2020-07-06T12:33:46-07:00,4.3241481781006,1,versionA_stim.csv,VC_VersionA.csv,"Version A","Version A",DISCUSSION,TALK,Study1,F,21,44,Test,User,-,,Recall,Recall1,1827,talk,100,1240,1543,1,1,,,1
w927437,iay7d2wekj,Nick_Dissertation_EX1b,1,127,2020-07-06T12:33:52-07:00,6.5683398246765,1,versionA_stim.csv,VC_VersionA.csv,"Version A","Version A",PAST,FUTURE,Study1,S,61,70,Test,User,-,,Recall,Recall1,1870,future,100,1090,1642,1,1,,,1
w927437,iay7d2wekj,Nick_Dissertation_EX1b,1,128,2020-07-06T12:33:56-07:00,3.9347350597382,1,versionA_stim.csv,VC_VersionA.csv,"Version A","Version A",BEGIN,END,Study1,S,54,80,Test,User,-,,Recall,Recall1,2268,start,0,1352,1993,0,0,,,1
w927437,iay7d2wekj,Nick_Dissertation_EX1b,1,129,2020-07-06T12:35:30-07:00,94.064867973328,1,versionA_stim.csv,VC_VersionA.csv,"Version A","Version A",DIGESTION,STOMACH,Study1,F,7,77,Test,User,-,,Recall,Recall1,91194,,0,-1,-1,0,0,,,0.982
w927437,iay7d2wekj,Nick_Dissertation_EX1b,1,130,2020-07-06T12:35:49-07:00,19.112133026123,1,versionA_stim.csv,VC_VersionA.csv,"Version A","Version A",PUSHER,CLUTTER,Study1,U,66,23,Test,User,-,,Recall,Recall1,4354,cart,36.363636363636,3662,4093,0,0,,,1
w927437,iay7d2wekj,Nick_Dissertation_EX1b,1,131,2020-07-06T12:35:58-07:00,8.6463251113892,1,versionA_stim.csv,VC_VersionA.csv,"Version A","Version A",FIRE,BLAZE,Study1,B,45,42,Test,User,-,,Recall,Recall1,2705,hydrant,16.666666666667,1670,2541,0,0,,,1
w927437,iay7d2wekj,Nick_Dissertation_EX1b,1,132,2020-07-06T12:36:02-07:00,3.6707468032837,1,versionA_stim.csv,VC_VersionA.csv,"Version A","Version A",KIDNEY,LIVER,Study1,S,53,39,Test,User,-,,Recall,Recall1,1656,,0,-1,-1,0,0,,,1
w927437,iay7d2wekj,Nick_Dissertation_EX1b,1,133,2020-07-06T12:36:11-07:00,8.9654791355133,1,versionA_stim.csv,VC_VersionA.csv,"Version A","Version A",SMELL,STENCH,Study1,B,42,13,Test,User,-,,Recall,Recall1,6093,nose,20,5579,5947,0,0,,,1
w927437,iay7d2wekj,Nick_Dissertation_EX1b,1,134,2020-07-06T12:36:17-07:00,6.607892036438,1,versionA_stim.csv,VC_VersionA.csv,"Version A","Version A",CHISEL,HAMMER,Study1,F,9,16,Test,User,-,,Recall,Recall1,3582,,0,-1,-1,0,0,,,1
w927437,iay7d2wekj,Nick_Dissertation_EX1b,1,135,2020-07-06T12:36:21-07:00,3.8569469451904,1,versionA_stim.csv,VC_VersionA.csv,"Version A","Version A",SHOE,FOOT,Study1,S,60,17,Test,User,-,,Recall,Recall1,1714,,0,-1,-1,0,0,,,1
w927437,iay7d2wekj,Nick_Dissertation_EX1b,1,136,2020-07-06T12:36:24-07:00,2.951425075531,1,versionA_stim.csv,VC_VersionA.csv,"Version A","Version A",DIETARY,SACKING,Study1,U,67,34,Test,User,-,,Recall,Recall1,670,,0,-1,-1,0,0,,,1
w927437,iay7d2wekj,Nick_Dissertation_EX1b,1,137,2020-07-06T12:36:27-07:00,2.9652960300446,1,versionA_stim.csv,VC_VersionA.csv,"Version A","Version A",BLOW,WIND,Study1,S,55,41,Test,User,-,,Recall,Recall1,879,,0,-1,-1,0,0,,,1
w927437,iay7d2wekj,Nick_Dissertation_EX1b,1,138,2020-07-06T12:39:51-07:00,203.97392988205,1,versionA_stim.csv,VC_VersionA.csv,"Version A","Version A",ROOT,PLANT,Study1,F,13,60,Test,User,-,,Recall,Recall1,184982,tree,22.222222222222,184219,184778,0,0,,,1
w927437,iay7d2wekj,Nick_Dissertation_EX1b,1,139,2020-07-06T12:48:06-07:00,495.39705896378,1,versionA_stim.csv,VC_VersionA.csv,"Version A","Version A",LETTUCE,SALAD,Study1,S,59,9,Test,User,-,,Recall,Recall1,493495,salad,100,492314,493289,1,1,,,0.322
w927437,iay7d2wekj,Nick_Dissertation_EX1b,1,140,2020-07-06T12:48:11-07:00,5.0032920837402,1,versionA_stim.csv,VC_VersionA.csv,"Version A","Version A",HONEY,BEE,Study1,S,63,30,Test,User,-,,Recall,Recall1,2904,bees,85.714285714286,2196,2676,0,1,,,1
w927437,iay7d2wekj,Nick_Dissertation_EX1b,1,141,2020-07-06T12:48:14-07:00,2.6879029273987,1,versionA_stim.csv,VC_VersionA.csv,"Version A","Version A",REVOLUTION,WAR,Study1,F,20,14,Test,User,-,,Recall,Recall1,889,,0,-1,-1,0,0,,,1
w927437,iay7d2wekj,Nick_Dissertation_EX1b,1,142,2020-07-06T12:48:18-07:00,3.6304581165314,1,versionA_stim.csv,VC_VersionA.csv,"Version A","Version A",KING,VASE,Study1,U,85,81,Test,User,-,,Recall,Recall1,1763,queen,22.222222222222,1007,1567,0,0,,,1
w927437,iay7d2wekj,Nick_Dissertation_EX1b,1,143,2020-07-06T12:48:21-07:00,3.89413189888,1,versionA_stim.csv,VC_VersionA.csv,"Version A","Version A",DRINK,SIP,Study1,B,27,55,Test,User,-,,Recall,Recall1,2190,water,0,1450,2042,0,0,,,1
w927437,iay7d2wekj,Nick_Dissertation_EX1b,1,144,2020-07-06T12:48:26-07:00,4.6710879802704,1,versionA_stim.csv,VC_VersionA.csv,"Version A","Version A",SUGAR,RIDDLE,Study1,U,81,59,Test,User,-,,Recall,Recall1,2513,flour,18.181818181818,1789,2358,0,0,,,1
w927437,iay7d2wekj,Nick_Dissertation_EX1b,1,145,2020-07-06T12:48:35-07:00,9.1627199649811,1,versionA_stim.csv,VC_VersionA.csv,"Version A","Version A",LAW,ATTORNEY,Study1,B,34,25,Test,User,-,,Recall,Recall1,7191,police,28.571428571429,6290,7002,0,0,,,1
w927437,iay7d2wekj,Nick_Dissertation_EX1b,1,146,2020-07-06T12:48:45-07:00,9.3604700565338,1,versionA_stim.csv,VC_VersionA.csv,"Version A","Version A",ARCHITECTURE,DESIGN,Study1,S,51,76,Test,User,-,,Recall,Recall1,7599,,0,-1,-1,0,0,,,1
w927437,iay7d2wekj,Nick_Dissertation_EX1b,1,147,2020-07-06T12:48:48-07:00,3.5152959823608,1,versionA_stim.csv,VC_VersionA.csv,"Version A","Version A",BUG,WASP,Study1,B,32,78,Test,User,-,,Recall,Recall1,1726,,0,-1,-1,0,0,,,1
w927437,iay7d2wekj,Nick_Dissertation_EX1b,1,148,2020-07-06T12:48:54-07:00,5.5588939189911,1,versionA_stim.csv,VC_VersionA.csv,"Version A","Version A",DEBATE,SIGHT,Study1,U,73,79,Test,User,-,,Recall,Recall1,2687,trial,20,1939,2443,0,0,,,1
w927437,iay7d2wekj,Nick_Dissertation_EX1b,1,149,2020-07-06T12:49:00-07:00,5.9246702194214,1,versionA_stim.csv,VC_VersionA.csv,"Version A","Version A",EDITOR,NEWS,Study1,F,10,52,Test,User,-,,Recall,Recall1,3681,newspaper,61.538461538462,2319,3541,0,0,,,1
w927437,iay7d2wekj,Nick_Dissertation_EX1b,1,150,2020-07-06T12:49:02-07:00,2.8033509254456,1,versionA_stim.csv,VC_VersionA.csv,"Version A","Version A",GRILL,BAR,Study1,S,52,8,Test,User,-,,Recall,Recall1,1121,,0,-1,-1,0,0,,,1
w927437,iay7d2wekj,Nick_Dissertation_EX1b,1,151,2020-07-06T12:49:06-07:00,3.1956610679626,1,versionA_stim.csv,VC_VersionA.csv,"Version A","Version A",HIDE,SICK,Study1,U,84,61,Test,User,-,,Recall,Recall1,1655,seek,50,947,1435,0,0,,,1
w927437,iay7d2wekj,Nick_Dissertation_EX1b,1,152,2020-07-06T12:49:08-07:00,2.3952729701996,1,versionA_stim.csv,VC_VersionA.csv,"Version A","Version A",WAY,OUT,Study1,F,16,22,Test,User,-,,Recall,Recall1,846,,0,-1,-1,0,0,,,1
w927437,iay7d2wekj,Nick_Dissertation_EX1b,1,153,2020-07-06T12:53:58-07:00,290.08627891541,1,versionA_stim.csv,VC_VersionA.csv,"Version A","Version A",BITTER,COLD,Study1,F,12,73,Test,User,-,,Recall,Recall1,287163,sour,25,286671,287013,0,0,,,0.759
w927437,iay7d2wekj,Nick_Dissertation_EX1b,1,154,2020-07-06T12:54:04-07:00,5.6180880069733,1,versionA_stim.csv,VC_VersionA.csv,"Version A","Version A",DELINQUENT,BAD,Study1,F,6,35,Test,User,-,,Recall,Recall1,2973,juvenile,0,1658,2801,0,0,,,1
w927437,iay7d2wekj,Nick_Dissertation_EX1b,1,155,2020-07-06T12:54:25-07:00,21.228801012039,1,versionA_stim.csv,VC_VersionA.csv,"Version A","Version A",HUNGER,FAMINE,Study1,B,40,32,Test,User,-,,Recall,Recall1,19051,,0,-1,-1,0,0,,,1
w927437,iay7d2wekj,Nick_Dissertation_EX1b,1,156,2020-07-06T12:58:07-07:00,221.50924301147,1,versionA_stim.csv,VC_VersionA.csv,"Version A","Version A",SENTENCE,WORD,Study1,B,31,62,Test,User,-,,Recall,Recall1,219800,word,100,219228,219675,1,1,,,0.249
w927437,iay7d2wekj,Nick_Dissertation_EX1b,1,157,2020-07-06T13:03:03-07:00,296.03715610504,1,versionA_stim.csv,VC_VersionA.csv,"Version A","Version A",DARK,CAVE,Study1,B,28,47,Test,User,-,,Recall,Recall1,293667,light,0,292928,293495,0,0,,,0.909
w927437,iay7d2wekj,Nick_Dissertation_EX1b,1,158,2020-07-06T13:03:07-07:00,4.6436479091644,1,versionA_stim.csv,VC_VersionA.csv,"Version A","Version A",TAKE,SEIZE,Study1,B,29,19,Test,User,-,,Recall,Recall1,1759,,0,-1,-1,0,0,,,1
w927437,iay7d2wekj,Nick_Dissertation_EX1b,1,159,2020-07-06T13:03:34-07:00,26.5680809021,1,versionA_stim.csv,VC_VersionA.csv,"Version A","Version A",POP,SODA,Study1,S,56,83,Test,User,-,,Recall,Recall1,23773,soda,100,23258,23649,1,1,,,1
w927437,iay7d2wekj,Nick_Dissertation_EX1b,1,160,2020-07-06T13:05:13-07:00,99.676478147507,1,versionA_stim.csv,VC_VersionA.csv,"Version A","Version A",MEANING,DEFINITION,Study1,S,62,54,Test,User,-,,Recall,Recall1,97386,,0,-1,-1,0,0,,,0.037
w927437,iay7d2wekj,Nick_Dissertation_EX1b,1,161,2020-07-06T13:05:18-07:00,4.9159028530121,1,versionA_stim.csv,VC_VersionA.csv,"Version A","Version A",DISCOVER,FLOOR,Study1,U,71,27,Test,User,-,,Recall,Recall1,3347,,0,-1,-1,0,0,,,1
w927437,iay7d2wekj,Nick_Dissertation_EX1b,1,162,2020-07-06T13:05:22-07:00,3.8028881549835,1,versionA_stim.csv,VC_VersionA.csv,"Version A","Version A",HOT,CHILI,Study1,B,37,66,Test,User,-,,Recall,Recall1,2137,cold,44.444444444444,1429,1990,0,0,,,1
w927437,iay7d2wekj,Nick_Dissertation_EX1b,1,163,2020-07-06T13:05:24-07:00,2.3134570121765,1,versionA_stim.csv,VC_VersionA.csv,"Version A","Version A",BALL,RACKET,Study1,B,38,49,Test,User,-,,Recall,Recall1,631,,0,-1,-1,0,0,,,1
w927437,iay7d2wekj,Nick_Dissertation_EX1b,1,164,2020-07-06T13:05:28-07:00,3.0917630195618,1,versionA_stim.csv,VC_VersionA.csv,"Version A","Version A",HERD,COW,Study1,F,22,38,Test,User,-,,Recall,Recall1,1317,,0,-1,-1,0,0,,,1
w927437,iay7d2wekj,Nick_Dissertation_EX1b,1,165,2020-07-06T13:05:30-07:00,2.3083868026733,1,versionA_stim.csv,VC_VersionA.csv,"Version A","Version A",LOCATION,SITE,Study1,S,48,33,Test,User,-,,Recall,Recall1,705,,0,-1,-1,0,0,,,1
w927437,iay7d2wekj,Nick_Dissertation_EX1b,1,166,2020-07-06T13:05:35-07:00,5.1614320278168,1,versionA_stim.csv,VC_VersionA.csv,"Version A","Version A",PAW,DOG,Study1,F,15,69,Test,User,-,,Recall,Recall1,473,,0,-1,-1,0,0,,,1
w927437,iay7d2wekj,Nick_Dissertation_EX1b,1,167,2020-07-06T13:05:42-07:00,7.2425870895386,1,versionA_stim.csv,VC_VersionA.csv,"Version A","Version A",ARTERY,BRONZE,Study1,U,74,51,Test,User,-,,Recall,Recall1,5468,vein,20,3912,4912,0,0,,,1
w927437,iay7d2wekj,Nick_Dissertation_EX1b,1,168,2020-07-06T13:05:45-07:00,3.0744159221649,1,versionA_stim.csv,VC_VersionA.csv,"Version A","Version A",SOON,BELT,Study1,U,70,29,Test,User,-,,Recall,Recall1,1263,,0,-1,-1,0,0,,,1
w927437,iay7d2wekj,Nick_Dissertation_EX1b,1,169,2020-07-06T13:05:48-07:00,2.8840470314026,1,versionA_stim.csv,VC_VersionA.csv,"Version A","Version A",STRONG,ACCIDENT,Study1,U,80,20,Test,User,-,,Recall,Recall1,803,,0,-1,-1,0,0,,,1
w927437,iay7d2wekj,Nick_Dissertation_EX1b,1,170,2020-07-06T13:05:51-07:00,2.5167989730835,1,versionA_stim.csv,VC_VersionA.csv,"Version A","Version A",KEY,LATCH,Study1,B,36,84,Test,User,-,,Recall,Recall1,739,,0,-1,-1,0,0,,,1
w927437,iay7d2wekj,Nick_Dissertation_EX1b,1,171,2020-07-06T13:05:55-07:00,3.9205360412598,1,versionA_stim.csv,VC_VersionA.csv,"Version A","Version A",TRIAL,JURY,Study1,S,50,50,Test,User,-,,Recall,Recall1,1799,jury,100,1107,1571,1,1,,,1
w927437,iay7d2wekj,Nick_Dissertation_EX1b,1,172,2020-07-06T13:05:58-07:00,3.8017709255219,1,versionA_stim.csv,VC_VersionA.csv,"Version A","Version A",FULL,ENOUGH,Study1,B,26,18,Test,User,-,,Recall,Recall1,1248,,0,-1,-1,0,0,,,1
w927437,iay7d2wekj,Nick_Dissertation_EX1b,1,173,2020-07-06T13:06:01-07:00,2.4047141075134,1,versionA_stim.csv,VC_VersionA.csv,"Version A","Version A",LIFT,WOMAN,Study1,U,69,72,Test,User,-,,Recall,Recall1,731,,0,-1,-1,0,0,,,1
w927437,iay7d2wekj,Nick_Dissertation_EX1b,1,174,2020-07-06T13:06:03-07:00,2.5204730033875,1,versionA_stim.csv,VC_VersionA.csv,"Version A","Version A",WINE,CHEESE,Study1,S,57,11,Test,User,-,,Recall,Recall1,763,,0,-1,-1,0,0,,,1
w927437,iay7d2wekj,Nick_Dissertation_EX1b,1,175,2020-07-06T13:06:06-07:00,2.6283090114594,1,versionA_stim.csv,VC_VersionA.csv,"Version A","Version A",SWAN,BIRD,Study1,F,14,65,Test,User,-,,Recall,Recall1,1071,,0,-1,-1,0,0,,,1
w927437,iay7d2wekj,Nick_Dissertation_EX1b,1,176,2020-07-06T13:06:09-07:00,2.4871718883514,1,versionA_stim.csv,VC_VersionA.csv,"Version A","Version A",PARK,HUNGRY,Study1,U,68,68,Test,User,-,,Recall,Recall1,775,,0,-1,-1,0,0,,,1
w927437,iay7d2wekj,Nick_Dissertation_EX1b,1,177,2020-07-06T13:06:11-07:00,2.8365709781647,1,versionA_stim.csv,VC_VersionA.csv,"Version A","Version A",HAPPY,CAR,Study1,U,77,10,Test,User,-,,Recall,Recall1,753,,0,-1,-1,0,0,,,1
w927437,iay7d2wekj,Nick_Dissertation_EX1b,1,178,2020-07-06T13:06:28-07:00,16.161595106125,1,versionA_stim.csv,VC_VersionA.csv,"Version A","Version A",,,,,,0,Instruct,-,10,"You will now be presented with a new set of word pairs. Please study each pair. Remember that your memory will be tested! When finished, press Enter to move to the next pair.",Initial_Instruct,Instruct4,13221,,,-1,-1,,,,,1
w927437,iay7d2wekj,Nick_Dissertation_EX1b,1,179,2020-07-06T13:06:42-07:00,14.725126981735,1,versionA_stim.csv,VC_VersionA.csv,"Version A","Version A",,,,,,0,Instruct,,10,"You will again be asked to count how many vowels the two words contain. Please remember to type this number in the space below each pair.",,Instruct10,12466,,,-1,-1,,,,,1
w927437,iay7d2wekj,Nick_Dissertation_EX1b,1,180,2020-07-06T13:06:46-07:00,3.6320090293884,1,versionA_stim.csv,VC_VersionA.csv,"Version A","Version A",,,,,,0,Instruct,User,-,"Press Enter when you are readty to begin",,Instruct11,1288,,,-1,-1,,,,,1
w927437,iay7d2wekj,Nick_Dissertation_EX1b,1,181,2020-07-06T13:06:53-07:00,7.3088018894196,1,versionA_stim.csv,VC_VersionA.csv,"Version A","Version A",SHRIMP,FISH,BUFFER3,Buffer,93,92,VC,User,-,"How many vowels are the two words combined?|Type your response below and then press Enter.",Study/JOL,BUFFER3,4784,,,4615,4615,,,,2,1
w927437,iay7d2wekj,Nick_Dissertation_EX1b,1,182,2020-07-06T13:06:59-07:00,5.9733200073242,1,versionA_stim.csv,VC_VersionA.csv,"Version A","Version A",CARROT,POTATO,BUFFER3,Buffer,91,96,VC,User,-,"How many vowels are the two words combined?|Type your response below and then press Enter.",Study/JOL,BUFFER3,3757,,,3523,3523,,,,5,1
w927437,iay7d2wekj,Nick_Dissertation_EX1b,1,183,2020-07-06T13:07:08-07:00,8.6427919864655,1,versionA_stim.csv,VC_VersionA.csv,"Version A","Version A",ICE,FROZEN,BUFFER3,Buffer,94,95,VC,User,-,"How many vowels are the two words combined?|Type your response below and then press Enter.",Study/JOL,BUFFER3,2783,,,2627,2628,,,,4,1
w927437,iay7d2wekj,Nick_Dissertation_EX1b,1,184,2020-07-06T13:07:12-07:00,4.6360800266266,1,versionA_stim.csv,VC_VersionA.csv,"Version A","Version A",NOODLE,STRING,BUFFER3,Buffer,92,93,VC,User,-,"How many vowels are the two words combined?|Type your response below and then press Enter.",Study/JOL,BUFFER3,87,,,-1,-1,,,,,1
w927437,iay7d2wekj,Nick_Dissertation_EX1b,1,185,2020-07-06T13:07:21-07:00,8.5261609554291,1,versionA_stim.csv,VC_VersionA.csv,"Version A","Version A",CAMP,ADVENTURE,BUFFER3,Buffer,95,94,VC,User,-,"How many vowels are the two words combined?|Type your response below and then press Enter.",Study/JOL,BUFFER3,6599,,,6331,6332,,,,5,1
w927437,iay7d2wekj,Nick_Dissertation_EX1b,1,186,2020-07-06T13:07:31-07:00,9.639034986496,1,versionA_stim.csv,VC_VersionA.csv,"Version A","Version A",TEMPERATURE,Morning,Study2,U,173,147,VC,User,-,"How many vowels are the two words combined?|Type your response below and then press Enter.",Study/JOL,"Study Phase2",6569,,,6165,6165,,,,7,1
w927437,iay7d2wekj,Nick_Dissertation_EX1b,1,187,2020-07-06T13:07:37-07:00,5.9992830753326,1,versionA_stim.csv,VC_VersionA.csv,"Version A","Version A",MAIN,SCAR,Study2,U,175,136,VC,User,-,"How many vowels are the two words combined?|Type your response below and then press Enter.",Study/JOL,"Study Phase2",3655,,,3343,3344,,,,3,1
w927437,iay7d2wekj,Nick_Dissertation_EX1b,1,188,2020-07-06T13:08:15-07:00,37.958894014359,1,versionA_stim.csv,VC_VersionA.csv,"Version A","Version A",STRETCH,CLOTH,Study2,U,157,115,VC,User,-,"How many vowels are the two words combined?|Type your response below and then press Enter.",Study/JOL,"Study Phase2",36155,,,35760,35760,,,,2,1
w927437,iay7d2wekj,Nick_Dissertation_EX1b,1,189,2020-07-06T13:10:28-07:00,133.24159002304,1,versionA_stim.csv,VC_VersionA.csv,"Version A","Version A",CLUE,GAME,Study2,F,97,117,VC,User,-,"How many vowels are the two words combined?|Type your response below and then press Enter.",Study/JOL,"Study Phase2",131357,,,131177,131177,,,,4,0.801
w927437,iay7d2wekj,Nick_Dissertation_EX1b,1,190,2020-07-06T13:10:37-07:00,8.7220590114594,1,versionA_stim.csv,VC_VersionA.csv,"Version A","Version A",WRIST,BRACELET,Study2,S,140,124,VC,User,-,"How many vowels are the two words combined?|Type your response below and then press Enter.",Study/JOL,"Study Phase2",6839,,,6748,6748,,,,4,1
w927437,iay7d2wekj,Nick_Dissertation_EX1b,1,191,2020-07-06T13:10:43-07:00,6.1600530147552,1,versionA_stim.csv,VC_VersionA.csv,"Version A","Version A",DRIVER,CAR,Study2,F,106,104,VC,User,-,"How many vowels are the two words combined?|Type your response below and then press Enter.",Study/JOL,"Study Phase2",3498,,,3391,3391,,,,3,1
w927437,iay7d2wekj,Nick_Dissertation_EX1b,1,192,2020-07-06T13:10:48-07:00,5.638377904892,1,versionA_stim.csv,VC_VersionA.csv,"Version A","Version A",DEAD,COFFIN,Study2,B,128,133,VC,User,-,"How many vowels are the two words combined?|Type your response below and then press Enter.",Study/JOL,"Study Phase2",3873,,,3765,3766,,,,4,1
w927437,iay7d2wekj,Nick_Dissertation_EX1b,1,193,2020-07-06T13:10:57-07:00,9.1555721759796,1,versionA_stim.csv,VC_VersionA.csv,"Version A","Version A",CHERRY,RED,Study2,F,104,165,VC,User,-,"How many vowels are the two words combined?|Type your response below and then press Enter.",Study/JOL,"Study Phase2",7143,,,6579,6580,,,,2,1
w927437,iay7d2wekj,Nick_Dissertation_EX1b,1,194,2020-07-06T13:11:04-07:00,6.6370828151703,1,versionA_stim.csv,VC_VersionA.csv,"Version A","Version A",ROD,REEL,Study2,S,150,155,VC,User,-,"How many vowels are the two words combined?|Type your response below and then press Enter.",Study/JOL,"Study Phase2",3814,,,3649,3649,,,,3,1
w927437,iay7d2wekj,Nick_Dissertation_EX1b,1,195,2020-07-06T13:11:11-07:00,6.5210859775543,1,versionA_stim.csv,VC_VersionA.csv,"Version A","Version A",TRUTH,LIE,Study2,S,148,118,VC,User,-,"How many vowels are the two words combined?|Type your response below and then press Enter.",Study/JOL,"Study Phase2",4466,,,4311,4311,,,,3,1
w927437,iay7d2wekj,Nick_Dissertation_EX1b,1,196,2020-07-06T13:11:15-07:00,4.7216770648956,1,versionA_stim.csv,VC_VersionA.csv,"Version A","Version A",NAME,HATE,Study2,U,167,112,VC,User,-,"How many vowels are the two words combined?|Type your response below and then press Enter.",Study/JOL,"Study Phase2",2383,,,2259,2259,,,,4,1
w927437,iay7d2wekj,Nick_Dissertation_EX1b,1,197,2020-07-06T13:11:26-07:00,10.881247997284,1,versionA_stim.csv,VC_VersionA.csv,"Version A","Version A",EARTH,GROUND,Study2,S,144,174,VC,User,-,"How many vowels are the two words combined?|Type your response below and then press Enter.",Study/JOL,"Study Phase2",6896,,,6651,6651,,,,4,1
w927437,iay7d2wekj,Nick_Dissertation_EX1b,1,198,2020-07-06T13:11:36-07:00,9.5600569248199,1,versionA_stim.csv,VC_VersionA.csv,"Version A","Version A",RIGHTS,EQUAL,Study2,S,137,131,VC,User,-,"How many vowels are the two words combined?|Type your response below and then press Enter.",Study/JOL,"Study Phase2",6746,,,6606,6606,,,,4,1
w927437,iay7d2wekj,Nick_Dissertation_EX1b,1,199,2020-07-06T13:12:18-07:00,42.360619068146,1,versionA_stim.csv,VC_VersionA.csv,"Version A","Version A",DINE,EAT,Study2,F,111,173,VC,User,-,"How many vowels are the two words combined?|Type your response below and then press Enter.",Study/JOL,"Study Phase2",39980,,,39663,39663,,,,4,1
w927437,iay7d2wekj,Nick_Dissertation_EX1b,1,200,2020-07-06T13:12:24-07:00,5.727352142334,1,versionA_stim.csv,VC_VersionA.csv,"Version A","Version A",CHOP,CUT,Study2,F,107,109,VC,User,-,"How many vowels are the two words combined?|Type your response below and then press Enter.",Study/JOL,"Study Phase2",3958,,,3907,3907,,,,2,1
w927437,iay7d2wekj,Nick_Dissertation_EX1b,1,201,2020-07-06T13:12:33-07:00,8.7513267993927,1,versionA_stim.csv,VC_VersionA.csv,"Version A","Version A",SAFETY,SEATBELT,Study2,S,147,139,VC,User,-,"How many vowels are the two words combined?|Type your response below and then press Enter.",Study/JOL,"Study Phase2",6851,,,6192,6192,,,,5,1
w927437,iay7d2wekj,Nick_Dissertation_EX1b,1,202,2020-07-06T13:12:42-07:00,9.803248167038,1,versionA_stim.csv,VC_VersionA.csv,"Version A","Version A",INCENSE,SMELL,Study2,F,110,123,VC,User,-,"How many vowels are the two words combined?|Type your response below and then press Enter.",Study/JOL,"Study Phase2",7977,,,7774,7774,,,,4,1
w927437,iay7d2wekj,Nick_Dissertation_EX1b,1,203,2020-07-06T13:12:49-07:00,6.5949828624725,1,versionA_stim.csv,VC_VersionA.csv,"Version A","Version A",SCALP,HEAD,Study2,F,105,126,VC,User,-,"How many vowels are the two words combined?|Type your response below and then press Enter.",Study/JOL,"Study Phase2",4099,,,3936,3936,,,,3,1
w927437,iay7d2wekj,Nick_Dissertation_EX1b,1,204,2020-07-06T13:12:58-07:00,8.7985050678253,1,versionA_stim.csv,VC_VersionA.csv,"Version A","Version A",FUZZY,BANG,Study2,U,168,144,VC,User,-,"How many vowels are the two words combined?|Type your response below and then press Enter.",Study/JOL,"Study Phase2",6720,,,6501,6501,,,,2,1
w927437,iay7d2wekj,Nick_Dissertation_EX1b,1,205,2020-07-06T13:13:12-07:00,13.681911945343,1,versionA_stim.csv,VC_VersionA.csv,"Version A","Version A",BAD,VILLAIN,Study2,B,118,107,VC,User,-,"How many vowels are the two words combined?|Type your response below and then press Enter.",Study/JOL,"Study Phase2",11396,,,10890,10890,,,,4,1
w927437,iay7d2wekj,Nick_Dissertation_EX1b,1,206,2020-07-06T13:13:28-07:00,16.28503203392,1,versionA_stim.csv,VC_VersionA.csv,"Version A","Version A",PHONE,COMMUNICATION,Study2,S,149,166,VC,User,-,"How many vowels are the two words combined?|Type your response below and then press Enter.",Study/JOL,"Study Phase2",14305,,,14006,14006,,,,8,0.139
w927437,iay7d2wekj,Nick_Dissertation_EX1b,1,207,2020-07-06T13:13:59-07:00,31.646711111069,1,versionA_stim.csv,VC_VersionA.csv,"Version A","Version A",THREAD,THIMBLE,Study2,B,121,167,VC,User,-,"How many vowels are the two words combined?|Type your response below and then press Enter.",Study/JOL,"Study Phase2",29864,,,29300,29300,,,,4,1
w927437,iay7d2wekj,Nick_Dissertation_EX1b,1,208,2020-07-06T13:14:09-07:00,9.1551268100739,1,versionA_stim.csv,VC_VersionA.csv,"Version A","Version A",BEST,FAVORITE,Study2,B,125,129,VC,User,-,"How many vowels are the two words combined?|Type your response below and then press Enter.",Study/JOL,"Study Phase2",7116,,,6682,6682,,,,5,1
w927437,iay7d2wekj,Nick_Dissertation_EX1b,1,209,2020-07-06T13:14:15-07:00,6.8064200878143,1,versionA_stim.csv,VC_VersionA.csv,"Version A","Version A",MEAT,OBTAIN,Study2,U,161,108,VC,User,-,"How many vowels are the two words combined?|Type your response below and then press Enter.",Study/JOL,"Study Phase2",4471,,,3619,3620,,,,5,1
w927437,iay7d2wekj,Nick_Dissertation_EX1b,1,210,2020-07-06T13:14:24-07:00,8.2245919704437,1,versionA_stim.csv,VC_VersionA.csv,"Version A","Version A",LITTER,TRASH,Study2,F,103,119,VC,User,-,"How many vowels are the two words combined?|Type your response below and then press Enter.",Study/JOL,"Study Phase2",5402,,,4774,4774,,,,3,1
w927437,iay7d2wekj,Nick_Dissertation_EX1b,1,211,2020-07-06T13:14:31-07:00,7.6880991458893,1,versionA_stim.csv,VC_VersionA.csv,"Version A","Version A",CAT,PANTHER,Study2,B,126,98,VC,User,-,"How many vowels are the two words combined?|Type your response below and then press Enter.",Study/JOL,"Study Phase2",5125,,,4569,4569,,,,3,1
w927437,iay7d2wekj,Nick_Dissertation_EX1b,1,212,2020-07-06T13:14:38-07:00,6.5161747932434,1,versionA_stim.csv,VC_VersionA.csv,"Version A","Version A",TURN,FLIP,Study2,B,116,168,VC,User,-,"How many vowels are the two words combined?|Type your response below and then press Enter.",Study/JOL,"Study Phase2",4667,,,3720,3720,,,,2,1
w927437,iay7d2wekj,Nick_Dissertation_EX1b,1,213,2020-07-06T13:14:44-07:00,6.0517420768738,1,versionA_stim.csv,VC_VersionA.csv,"Version A","Version A",RAZOR,SHAVE,Study2,S,136,101,VC,User,-,"How many vowels are the two words combined?|Type your response below and then press Enter.",Study/JOL,"Study Phase2",4051,,,3504,3504,,,,4,1
w927437,iay7d2wekj,Nick_Dissertation_EX1b,1,214,2020-07-06T13:14:49-07:00,5.06471991539,1,versionA_stim.csv,VC_VersionA.csv,"Version A","Version A",MASON,JAR,Study2,S,138,145,VC,User,-,"How many vowels are the two words combined?|Type your response below and then press Enter.",Study/JOL,"Study Phase2",3219,,,2568,2568,,,,3,1
w927437,iay7d2wekj,Nick_Dissertation_EX1b,1,215,2020-07-06T13:14:56-07:00,7.4485130310059,1,versionA_stim.csv,VC_VersionA.csv,"Version A","Version A",SLEEP,NAP,Study2,B,134,125,VC,User,-,"How many vowels are the two words combined?|Type your response below and then press Enter.",Study/JOL,"Study Phase2",4710,,,4003,4003,,,,3,1
w927437,iay7d2wekj,Nick_Dissertation_EX1b,1,216,2020-07-06T13:15:03-07:00,6.5961601734161,1,versionA_stim.csv,VC_VersionA.csv,"Version A","Version A",ALONE,LONELY,Study2,S,145,176,VC,User,-,"How many vowels are the two words combined?|Type your response below and then press Enter.",Study/JOL,"Study Phase2",4460,,,4048,4048,,,,4,1
w927437,iay7d2wekj,Nick_Dissertation_EX1b,1,217,2020-07-06T13:15:09-07:00,6.4469249248505,1,versionA_stim.csv,VC_VersionA.csv,"Version A","Version A",OWN,HAVE,Study2,S,153,148,VC,User,-,"How many vowels are the two words combined?|Type your response below and then press Enter.",Study/JOL,"Study Phase2",4533,,,3995,3995,,,,3,1
w927437,iay7d2wekj,Nick_Dissertation_EX1b,1,218,2020-07-06T13:15:17-07:00,7.4428598880768,1,versionA_stim.csv,VC_VersionA.csv,"Version A","Version A",DETECTIVE,MYSTERY,Study2,F,100,97,VC,User,-,"How many vowels are the two words combined?|Type your response below and then press Enter.",Study/JOL,"Study Phase2",5582,,,5132,5132,,,,5,1
w927437,iay7d2wekj,Nick_Dissertation_EX1b,1,219,2020-07-06T13:15:26-07:00,8.9614601135254,1,versionA_stim.csv,VC_VersionA.csv,"Version A","Version A",CAR,WINDSHIELD,Study2,B,117,106,VC,User,-,"How many vowels are the two words combined?|Type your response below and then press Enter.",Study/JOL,"Study Phase2",6636,,,6105,6105,,,,4,1
w927437,iay7d2wekj,Nick_Dissertation_EX1b,1,220,2020-07-06T13:15:33-07:00,6.985011100769,1,versionA_stim.csv,VC_VersionA.csv,"Version A","Version A",FIGHT,BRAWL,Study2,B,135,111,VC,User,-,"How many vowels are the two words combined?|Type your response below and then press Enter.",Study/JOL,"Study Phase2",5035,,,4466,4466,,,,2,1
w927437,iay7d2wekj,Nick_Dissertation_EX1b,1,221,2020-07-06T13:15:40-07:00,6.7618608474731,1,versionA_stim.csv,VC_VersionA.csv,"Version A","Version A",STAR,ACTRESS,Study2,B,120,160,VC,User,-,"How many vowels are the two words combined?|Type your response below and then press Enter.",Study/JOL,"Study Phase2",4915,,,4376,4376,,,,3,1
w927437,iay7d2wekj,Nick_Dissertation_EX1b,1,222,2020-07-06T13:15:49-07:00,9.7460210323334,1,versionA_stim.csv,VC_VersionA.csv,"Version A","Version A",BOTH,OUNCE,Study2,U,172,151,VC,User,-,"How many vowels are the two words combined?|Type your response below and then press Enter.",Study/JOL,"Study Phase2",6545,,,5893,5894,,,,4,1
w927437,iay7d2wekj,Nick_Dissertation_EX1b,1,223,2020-07-06T13:15:56-07:00,6.5759959220886,1,versionA_stim.csv,VC_VersionA.csv,"Version A","Version A",EVEN,REVENGE,Study2,B,122,157,VC,User,-,"How many vowels are the two words combined?|Type your response below and then press Enter.",Study/JOL,"Study Phase2",4882,,,4406,4406,,,,5,1
w927437,iay7d2wekj,Nick_Dissertation_EX1b,1,224,2020-07-06T13:16:01-07:00,5.4428961277008,1,versionA_stim.csv,VC_VersionA.csv,"Version A","Version A",DRY,WET,Study2,S,146,135,VC,User,-,"How many vowels are the two words combined?|Type your response below and then press Enter.",Study/JOL,"Study Phase2",3383,,,2619,2619,,,,1,1
w927437,iay7d2wekj,Nick_Dissertation_EX1b,1,225,2020-07-06T13:16:09-07:00,7.2023129463196,1,versionA_stim.csv,VC_VersionA.csv,"Version A","Version A",HONEST,TRUTHFUL,Study2,B,133,127,VC,User,-,"How many vowels are the two words combined?|Type your response below and then press Enter.",Study/JOL,"Study Phase2",4728,,,4013,4013,,,,4,1
w927437,iay7d2wekj,Nick_Dissertation_EX1b,1,226,2020-07-06T13:16:18-07:00,9.1165809631348,1,versionA_stim.csv,VC_VersionA.csv,"Version A","Version A",Shell,SHAKE,Study2,U,163,114,VC,User,-,"How many vowels are the two words combined?|Type your response below and then press Enter.",Study/JOL,"Study Phase2",4510,,,3986,3986,,,,3,1
w927437,iay7d2wekj,Nick_Dissertation_EX1b,1,227,2020-07-06T13:16:23-07:00,5.7604880332947,1,versionA_stim.csv,VC_VersionA.csv,"Version A","Version A",LOUD,NOISE,Study2,S,152,116,VC,User,-,"How many vowels are the two words combined?|Type your response below and then press Enter.",Study/JOL,"Study Phase2",3633,,,3078,3078,,,,4,1
w927437,iay7d2wekj,Nick_Dissertation_EX1b,1,228,2020-07-06T13:16:32-07:00,8.4385759830475,1,versionA_stim.csv,VC_VersionA.csv,"Version A","Version A",GLASS,BREAKABLE,Study2,B,127,128,VC,User,-,"How many vowels are the two words combined?|Type your response below and then press Enter.",Study/JOL,"Study Phase2",5924,,,5505,5505,,,,5,1
w927437,iay7d2wekj,Nick_Dissertation_EX1b,1,229,2020-07-06T13:16:40-07:00,7.6340589523315,1,versionA_stim.csv,VC_VersionA.csv,"Version A","Version A",SHOELACE,TIE,Study2,F,99,142,VC,User,-,"How many vowels are the two words combined?|Type your response below and then press Enter.",Study/JOL,"Study Phase2",5180,,,4688,4688,,,,6,1
w927437,iay7d2wekj,Nick_Dissertation_EX1b,1,230,2020-07-06T13:16:47-07:00,7.4001879692078,1,versionA_stim.csv,VC_VersionA.csv,"Version A","Version A",MIRROR,CHILDREN,Study2,U,174,156,VC,User,-,"How many vowels are the two words combined?|Type your response below and then press Enter.",Study/JOL,"Study Phase2",5241,,,4702,4702,,,,4,1
w927437,iay7d2wekj,Nick_Dissertation_EX1b,1,231,2020-07-06T13:16:52-07:00,4.9618470668793,1,versionA_stim.csv,VC_VersionA.csv,"Version A","Version A",LOAN,SIGN,Study2,U,171,130,VC,User,-,"How many vowels are the two words combined?|Type your response below and then press Enter.",Study/JOL,"Study Phase2",2327,,,1890,1891,,,,3,1
w927437,iay7d2wekj,Nick_Dissertation_EX1b,1,232,2020-07-06T13:16:58-07:00,6.1437921524048,1,versionA_stim.csv,VC_VersionA.csv,"Version A","Version A",CHILL,COLD,Study2,F,114,159,VC,User,-,"How many vowels are the two words combined?|Type your response below and then press Enter.",Study/JOL,"Study Phase2",4367,,,3660,3660,,,,2,1
w927437,iay7d2wekj,Nick_Dissertation_EX1b,1,233,2020-07-06T13:17:05-07:00,6.5005238056183,1,versionA_stim.csv,VC_VersionA.csv,"Version A","Version A",KEYS,JOKE,Study2,U,165,102,VC,User,-,"How many vowels are the two words combined?|Type your response below and then press Enter.",Study/JOL,"Study Phase2",4449,,,3729,3729,,,,3,1
w927437,iay7d2wekj,Nick_Dissertation_EX1b,1,234,2020-07-06T13:17:12-07:00,7.7146689891815,1,versionA_stim.csv,VC_VersionA.csv,"Version A","Version A",DOCUMENT,PAPER,Study2,F,109,122,VC,User,-,"How many vowels are the two words combined?|Type your response below and then press Enter.",Study/JOL,"Study Phase2",5396,,,4384,4384,,,,5,1
w927437,iay7d2wekj,Nick_Dissertation_EX1b,1,235,2020-07-06T13:17:45-07:00,33.253194093704,1,versionA_stim.csv,VC_VersionA.csv,"Version A","Version A",FEUD,FIGHT,Study2,F,113,103,VC,User,-,"How many vowels are the two words combined?|Type your response below and then press Enter.",Study/JOL,"Study Phase2",30980,,,30681,30681,,,,3,1
w927437,iay7d2wekj,Nick_Dissertation_EX1b,1,236,2020-07-06T13:17:49-07:00,3.9992780685425,1,versionA_stim.csv,VC_VersionA.csv,"Version A","Version A",SUN,TAN,Study2,S,155,161,VC,User,-,"How many vowels are the two words combined?|Type your response below and then press Enter.",Study/JOL,"Study Phase2",2080,,,1893,1893,,,,2,1
w927437,iay7d2wekj,Nick_Dissertation_EX1b,1,237,2020-07-06T13:17:54-07:00,4.6777439117432,1,versionA_stim.csv,VC_VersionA.csv,"Version A","Version A",POP,BALLOON,Study2,B,123,172,VC,User,-,"How many vowels are the two words combined?|Type your response below and then press Enter.",Study/JOL,"Study Phase2",2986,,,2718,2718,,,,4,1
w927437,iay7d2wekj,Nick_Dissertation_EX1b,1,238,2020-07-06T13:18:01-07:00,6.9148099422455,1,versionA_stim.csv,VC_VersionA.csv,"Version A","Version A",PLANE,AIRCRAFT,Study2,B,129,162,VC,User,-,"How many vowels are the two words combined?|Type your response below and then press Enter.",Study/JOL,"Study Phase2",5015,,,4756,4756,,,,5,1
w927437,iay7d2wekj,Nick_Dissertation_EX1b,1,239,2020-07-06T13:18:07-07:00,5.7978851795197,1,versionA_stim.csv,VC_VersionA.csv,"Version A","Version A",MONEY,BANKER,Study2,B,132,149,VC,User,-,"How many vowels are the two words combined?|Type your response below and then press Enter.",Study/JOL,"Study Phase2",3578,,,3286,3286,,,,4,1
w927437,iay7d2wekj,Nick_Dissertation_EX1b,1,240,2020-07-06T13:18:12-07:00,5.3214709758759,1,versionA_stim.csv,VC_VersionA.csv,"Version A","Version A",LEASE,TOIL,Study2,U,170,140,VC,User,-,"How many vowels are the two words combined?|Type your response below and then press Enter.",Study/JOL,"Study Phase2",3430,,,3202,3202,,,,5,1
w927437,iay7d2wekj,Nick_Dissertation_EX1b,1,241,2020-07-06T13:18:19-07:00,6.3235018253326,1,versionA_stim.csv,VC_VersionA.csv,"Version A","Version A",CACTUS,PLANT,Study2,F,98,137,VC,User,-,"How many vowels are the two words combined?|Type your response below and then press Enter.",Study/JOL,"Study Phase2",3670,,,3418,3418,,,,3,1
w927437,iay7d2wekj,Nick_Dissertation_EX1b,1,242,2020-07-06T13:18:24-07:00,5.5088751316071,1,versionA_stim.csv,VC_VersionA.csv,"Version A","Version A",MOAT,CLEAR,Study2,U,169,164,VC,User,-,"How many vowels are the two words combined?|Type your response below and then press Enter.",Study/JOL,"Study Phase2",3457,,,3166,3166,,,,4,1
w927437,iay7d2wekj,Nick_Dissertation_EX1b,1,243,2020-07-06T13:18:32-07:00,8.2116639614105,1,versionA_stim.csv,VC_VersionA.csv,"Version A","Version A",WATER,DRINK,Study2,S,143,171,VC,User,-,"How many vowels are the two words combined?|Type your response below and then press Enter.",Study/JOL,"Study Phase2",4427,,,3696,3696,,,,3,1
w927437,iay7d2wekj,Nick_Dissertation_EX1b,1,244,2020-07-06T13:18:37-07:00,4.951092004776,1,versionA_stim.csv,VC_VersionA.csv,"Version A","Version A",CANDLE,WAX,Study2,S,139,150,VC,User,-,"How many vowels are the two words combined?|Type your response below and then press Enter.",Study/JOL,"Study Phase2",2858,,,2654,2654,,,,3,1
w927437,iay7d2wekj,Nick_Dissertation_EX1b,1,245,2020-07-06T13:18:46-07:00,8.6066970825195,1,versionA_stim.csv,VC_VersionA.csv,"Version A","Version A",JUSTICE,MAROON,Study2,U,156,175,VC,User,-,"How many vowels are the two words combined?|Type your response below and then press Enter.",Study/JOL,"Study Phase2",6552,,,6365,6365,,,,6,1
w927437,iay7d2wekj,Nick_Dissertation_EX1b,1,246,2020-07-06T13:18:58-07:00,12.557910919189,1,versionA_stim.csv,VC_VersionA.csv,"Version A","Version A",ADJOURN,END,Study2,F,101,153,VC,User,-,"How many vowels are the two words combined?|Type your response below and then press Enter.",Study/JOL,"Study Phase2",8116,,,7897,7897,,,,4,1
w927437,iay7d2wekj,Nick_Dissertation_EX1b,1,247,2020-07-06T13:19:05-07:00,6.4806509017944,1,versionA_stim.csv,VC_VersionA.csv,"Version A","Version A",MAZE,ELECTION,Study2,U,159,158,VC,User,-,"How many vowels are the two words combined?|Type your response below and then press Enter.",Study/JOL,"Study Phase2",4340,,,4112,4112,,,,6,1
w927437,iay7d2wekj,Nick_Dissertation_EX1b,1,248,2020-07-06T13:19:12-07:00,6.8069450855255,1,versionA_stim.csv,VC_VersionA.csv,"Version A","Version A",BIRD,PENGUIN,Study2,B,119,138,VC,User,-,"How many vowels are the two words combined?|Type your response below and then press Enter.",Study/JOL,"Study Phase2",4237,,,4032,4033,,,,4,1
w927437,iay7d2wekj,Nick_Dissertation_EX1b,1,249,2020-07-06T13:19:17-07:00,5.2003889083862,1,versionA_stim.csv,VC_VersionA.csv,"Version A","Version A",FISH,SARDINE,Study2,B,130,169,VC,User,-,"How many vowels are the two words combined?|Type your response below and then press Enter.",Study/JOL,"Study Phase2",3636,,,3456,3456,,,,4,1
w927437,iay7d2wekj,Nick_Dissertation_EX1b,1,250,2020-07-06T13:19:22-07:00,4.7502701282501,1,versionA_stim.csv,VC_VersionA.csv,"Version A","Version A",FLEA,TICK,Study2,S,151,121,VC,User,-,"How many vowels are the two words combined?|Type your response below and then press Enter.",Study/JOL,"Study Phase2",2922,,,2646,2646,,,,3,1
w927437,iay7d2wekj,Nick_Dissertation_EX1b,1,251,2020-07-06T13:19:29-07:00,7.1983079910278,1,versionA_stim.csv,VC_VersionA.csv,"Version A","Version A",TANTRUM,TEMPER,Study2,S,154,110,VC,User,-,"How many vowels are the two words combined?|Type your response below and then press Enter.",Study/JOL,"Study Phase2",4767,,,4525,4525,,,,4,1
w927437,iay7d2wekj,Nick_Dissertation_EX1b,1,252,2020-07-06T13:19:38-07:00,9.4371569156647,1,versionA_stim.csv,VC_VersionA.csv,"Version A","Version A",ELEMENT,CARBON,Study2,S,141,141,VC,User,-,"How many vowels are the two words combined?|Type your response below and then press Enter.",Study/JOL,"Study Phase2",6198,,,5898,5898,,,,5,1
w927437,iay7d2wekj,Nick_Dissertation_EX1b,1,253,2020-07-06T13:19:50-07:00,11.443313121796,1,versionA_stim.csv,VC_VersionA.csv,"Version A","Version A",LISTEN,FICTION,Study2,U,164,105,VC,User,-,"How many vowels are the two words combined?|Type your response below and then press Enter.",Study/JOL,"Study Phase2",9091,,,8880,8880,,,,5,1
w927437,iay7d2wekj,Nick_Dissertation_EX1b,1,254,2020-07-06T13:19:57-07:00,6.9991040229797,1,versionA_stim.csv,VC_VersionA.csv,"Version A","Version A",BASEBALL,LEAGUE,Study2,B,131,152,VC,User,-,"How many vowels are the two words combined?|Type your response below and then press Enter.",Study/JOL,"Study Phase2",4951,,,4708,4708,,,,7,1
w927437,iay7d2wekj,Nick_Dissertation_EX1b,1,255,2020-07-06T13:20:03-07:00,5.8449230194092,1,versionA_stim.csv,VC_VersionA.csv,"Version A","Version A",GIVE,STEAK,Study2,U,158,132,VC,User,-,"How many vowels are the two words combined?|Type your response below and then press Enter.",Study/JOL,"Study Phase2",3327,,,3147,3147,,,,4,1
w927437,iay7d2wekj,Nick_Dissertation_EX1b,1,256,2020-07-06T13:20:10-07:00,7.0342829227448,1,versionA_stim.csv,VC_VersionA.csv,"Version A","Version A",FRUIT,STRAWBERRY,Study2,B,124,100,VC,User,-,"How many vowels are the two words combined?|Type your response below and then press Enter.",Study/JOL,"Study Phase2",3919,,,3692,3692,,,,4,1
w927437,iay7d2wekj,Nick_Dissertation_EX1b,1,257,2020-07-06T13:20:14-07:00,4.9246580600739,1,versionA_stim.csv,VC_VersionA.csv,"Version A","Version A",FURRY,DOG,Study2,F,102,143,VC,User,-,"How many vowels are the two words combined?|Type your response below and then press Enter.",Study/JOL,"Study Phase2",2325,,,2082,2082,,,,2,1
w927437,iay7d2wekj,Nick_Dissertation_EX1b,1,258,2020-07-06T13:20:22-07:00,7.4799828529358,1,versionA_stim.csv,VC_VersionA.csv,"Version A","Version A",AFFECTION,LOVE,Study2,F,115,120,VC,User,-,"How many vowels are the two words combined?|Type your response below and then press Enter.",Study/JOL,"Study Phase2",5305,,,-1,-1,,,,,1
w927437,iay7d2wekj,Nick_Dissertation_EX1b,1,259,2020-07-06T13:20:35-07:00,13.356287002563,1,versionA_stim.csv,VC_VersionA.csv,"Version A","Version A",SHEARS,SCISSORS,Study2,F,112,170,VC,User,-,"How many vowels are the two words combined?|Type your response below and then press Enter.",Study/JOL,"Study Phase2",10983,,,10700,10700,,,,4,1
w927437,iay7d2wekj,Nick_Dissertation_EX1b,1,260,2020-07-06T13:20:43-07:00,7.8765239715576,1,versionA_stim.csv,VC_VersionA.csv,"Version A","Version A",MULE,DONKEY,Study2,F,108,163,VC,User,-,"How many vowels are the two words combined?|Type your response below and then press Enter.",Study/JOL,"Study Phase2",5805,,,5538,5538,,,,4,1
w927437,iay7d2wekj,Nick_Dissertation_EX1b,1,261,2020-07-06T13:20:51-07:00,7.6495440006256,1,versionA_stim.csv,VC_VersionA.csv,"Version A","Version A",CAKE,CLOTHES,Study2,U,166,99,VC,User,-,"How many vowels are the two words combined?|Type your response below and then press Enter.",Study/JOL,"Study Phase2",5397,,,5209,5209,,,,4,1
w927437,iay7d2wekj,Nick_Dissertation_EX1b,1,262,2020-07-06T13:20:57-07:00,6.1596760749817,1,versionA_stim.csv,VC_VersionA.csv,"Version A","Version A",EXTENSION,LONG,Study2,F,96,113,VC,User,-,"How many vowels are the two words combined?|Type your response below and then press Enter.",Study/JOL,"Study Phase2",4334,,,4082,4083,,,,5,1
w927437,iay7d2wekj,Nick_Dissertation_EX1b,1,263,2020-07-06T13:21:06-07:00,8.731409072876,1,versionA_stim.csv,VC_VersionA.csv,"Version A","Version A",CRACKLE,ABLE,Study2,U,162,154,VC,User,-,"How many vowels are the two words combined?|Type your response below and then press Enter.",Study/JOL,"Study Phase2",6987,,,6752,6752,,,,4,1
w927437,iay7d2wekj,Nick_Dissertation_EX1b,1,264,2020-07-06T13:21:17-07:00,11.393621921539,1,versionA_stim.csv,VC_VersionA.csv,"Version A","Version A",VEHICLE,CHARM,Study2,U,160,146,VC,User,-,"How many vowels are the two words combined?|Type your response below and then press Enter.",Study/JOL,"Study Phase2",9458,,,9127,9127,,,,4,1
w927437,iay7d2wekj,Nick_Dissertation_EX1b,1,265,2020-07-06T13:22:42-07:00,85.109071969986,1,versionA_stim.csv,VC_VersionA.csv,"Version A","Version A",GONE,AWAY,Study2,S,142,134,VC,User,-,"How many vowels are the two words combined?|Type your response below and then press Enter.",Study/JOL,"Study Phase2",81457,,,81214,81214,,,,4,1
w927437,iay7d2wekj,Nick_Dissertation_EX1b,1,266,2020-07-06T13:23:01-07:00,18.273187160492,1,versionA_stim.csv,VC_VersionA.csv,"Version A","Version A",SPRING,MARCH,BUFFER4,Buffer,179,181,VC,User,-,"How many vowels are the two words combined?|Type your response below and then press Enter.",Study/JOL,BUFFER4,13982,,,13292,13292,,,,2,1
w927437,iay7d2wekj,Nick_Dissertation_EX1b,1,267,2020-07-06T13:23:08-07:00,7.3414678573608,1,versionA_stim.csv,VC_VersionA.csv,"Version A","Version A",DAYS,WEAKS,BUFFER4,Buffer,176,178,VC,User,-,"How many vowels are the two words combined?|Type your response below and then press Enter.",Study/JOL,BUFFER4,5341,,,4795,4795,,,,3,1
w927437,iay7d2wekj,Nick_Dissertation_EX1b,1,268,2020-07-06T13:23:18-07:00,9.6714010238647,1,versionA_stim.csv,VC_VersionA.csv,"Version A","Version A",OCTOBER,SPOOKY,BUFFER4,Buffer,180,180,VC,User,-,"How many vowels are the two words combined?|Type your response below and then press Enter.",Study/JOL,BUFFER4,5836,,,5393,5393,,,,5,1
w927437,iay7d2wekj,Nick_Dissertation_EX1b,1,269,2020-07-06T13:23:22-07:00,4.4333939552307,1,versionA_stim.csv,VC_VersionA.csv,"Version A","Version A",TOOL,SHED,BUFFER4,Buffer,178,179,VC,User,-,"How many vowels are the two words combined?|Type your response below and then press Enter.",Study/JOL,BUFFER4,2653,,,2193,2193,,,,3,1
w927437,iay7d2wekj,Nick_Dissertation_EX1b,1,270,2020-07-06T13:23:29-07:00,6.9588010311127,1,versionA_stim.csv,VC_VersionA.csv,"Version A","Version A",MONTH,YEAR,BUFFER4,Buffer,177,177,VC,User,-,"How many vowels are the two words combined?|Type your response below and then press Enter.",Study/JOL,BUFFER4,4604,,,4368,4368,,,,3,1
w927437,iay7d2wekj,Nick_Dissertation_EX1b,1,271,2020-07-06T13:23:32-07:00,3.2488191127777,1,versionA_stim.csv,VC_VersionA.csv,"Version A","Version A",,,,,,0,Instruct,User,-,"You have completed this section. Please press Enter.",Filler_Instruction,Instruct5,1381,,,-1,-1,,,,,1
w927437,iay7d2wekj,Nick_Dissertation_EX1b,1,272,2020-07-06T13:25:34-07:00,121.53163695335,1,versionA_stim.csv,VC_VersionA.csv,"Version A","Version A",,,,,,0,FreeRecall,120,120,"Please list the 50 US states in reverse alphabetical order (z - a). The task will automatically advance to the next screen after two minutes.",,Filler2,120001,"Wyoming, Wisconsin, West Virgina, Washington, Virginia, Vermont, Utah, Texas, Tennessee, South Dakota, South Carolina, Oregon, Oklahoma, Ohio, North Dakota, New York, New Mexico, New Jersey, Nevada, Nebraska, Montana, Mississippi, Minnesota, Michigan",0,10481,110464,0,0,,,0.914
w927437,iay7d2wekj,Nick_Dissertation_EX1b,1,273,2020-07-06T13:29:29-07:00,234.86958694458,1,versionA_stim.csv,VC_VersionA.csv,"Version A","Version A",,,,,,0,Instruct,-,10,"You will now be presented with the first word from each of the previously studied item pairs. Please type the missing word. If you do not know the word, you may guess or press Enter to skip forward to the next pair.",,Instruct6,233011,,,-1,-1,,,,,1
w927437,iay7d2wekj,Nick_Dissertation_EX1b,1,274,2020-07-06T13:29:38-07:00,9.5169141292572,1,versionA_stim.csv,VC_VersionA.csv,"Version A","Version A",RAZOR,SHAVE,Study2,S,136,101,Test,User,-,,Recall,Recall2,7767,blade,40,5500,6381,0,0,,,0.351
w927437,iay7d2wekj,Nick_Dissertation_EX1b,1,275,2020-07-06T13:29:49-07:00,10.766016960144,1,versionA_stim.csv,VC_VersionA.csv,"Version A","Version A",DRY,WET,Study2,S,146,135,Test,User,-,,Recall,Recall2,9048,wet,100,8279,8492,1,1,,,1
w927437,iay7d2wekj,Nick_Dissertation_EX1b,1,276,2020-07-06T13:29:54-07:00,4.8324530124664,1,versionA_stim.csv,VC_VersionA.csv,"Version A","Version A",EXTENSION,LONG,Study2,F,96,113,Test,User,-,,Recall,Recall2,2878,cord,25,1416,2761,0,0,,,1
w927437,iay7d2wekj,Nick_Dissertation_EX1b,1,277,2020-07-06T13:29:58-07:00,4.0037088394165,1,versionA_stim.csv,VC_VersionA.csv,"Version A","Version A",RIGHTS,EQUAL,Study2,S,137,131,Test,User,-,,Recall,Recall2,2093,civil,20,1369,1825,0,0,,,1
w927437,iay7d2wekj,Nick_Dissertation_EX1b,1,278,2020-07-06T13:30:04-07:00,6.1131660938263,1,versionA_stim.csv,VC_VersionA.csv,"Version A","Version A",GLASS,BREAKABLE,Study2,B,127,128,Test,User,-,,Recall,Recall2,1841,door,15.384615384615,1318,1709,0,0,,,1
w927437,iay7d2wekj,Nick_Dissertation_EX1b,1,279,2020-07-06T13:30:09-07:00,4.8260080814362,1,versionA_stim.csv,VC_VersionA.csv,"Version A","Version A",NAME,HATE,Study2,U,167,112,Test,User,-,,Recall,Recall2,2307,badge,44.444444444444,1714,2167,0,0,,,1
w927437,iay7d2wekj,Nick_Dissertation_EX1b,1,280,2020-07-06T13:30:12-07:00,3.536985874176,1,versionA_stim.csv,VC_VersionA.csv,"Version A","Version A",CLUE,GAME,Study2,F,97,117,Test,User,-,,Recall,Recall2,1730,,0,-1,-1,0,0,,,1
w927437,iay7d2wekj,Nick_Dissertation_EX1b,1,281,2020-07-06T13:30:15-07:00,2.8087139129639,1,versionA_stim.csv,VC_VersionA.csv,"Version A","Version A",BEST,FAVORITE,Study2,B,125,129,Test,User,-,,Recall,Recall2,1237,,0,-1,-1,0,0,,,1
w927437,iay7d2wekj,Nick_Dissertation_EX1b,1,282,2020-07-06T13:31:18-07:00,62.908760070801,1,versionA_stim.csv,VC_VersionA.csv,"Version A","Version A",BASEBALL,LEAGUE,Study2,B,131,152,Test,User,-,,Recall,Recall2,60851,bat,22.222222222222,59200,59644,0,0,,,1
w927437,iay7d2wekj,Nick_Dissertation_EX1b,1,283,2020-07-06T13:31:23-07:00,4.9657759666443,1,versionA_stim.csv,VC_VersionA.csv,"Version A","Version A",MAZE,ELECTION,Study2,U,159,158,Test,User,-,,Recall,Recall2,2637,,0,-1,-1,0,0,,,1
w927437,iay7d2wekj,Nick_Dissertation_EX1b,1,284,2020-07-06T13:31:27-07:00,3.9524149894714,1,versionA_stim.csv,VC_VersionA.csv,"Version A","Version A",FEUD,FIGHT,Study2,F,113,103,Test,User,-,,Recall,Recall2,1817,,0,-1,-1,0,0,,,1
w927437,iay7d2wekj,Nick_Dissertation_EX1b,1,285,2020-07-06T13:31:32-07:00,5.4081721305847,1,versionA_stim.csv,VC_VersionA.csv,"Version A","Version A",PLANE,AIRCRAFT,Study2,B,129,162,Test,User,-,,Recall,Recall2,2956,,0,-1,-1,0,0,,,1
w927437,iay7d2wekj,Nick_Dissertation_EX1b,1,286,2020-07-06T13:31:55-07:00,22.437816858292,1,versionA_stim.csv,VC_VersionA.csv,"Version A","Version A",KEYS,JOKE,Study2,U,165,102,Test,User,-,,Recall,Recall2,17900,,0,-1,-1,0,0,,,1
w927437,iay7d2wekj,Nick_Dissertation_EX1b,1,287,2020-07-06T13:31:59-07:00,4.518522977829,1,versionA_stim.csv,VC_VersionA.csv,"Version A","Version A",CACTUS,PLANT,Study2,F,98,137,Test,User,-,,Recall,Recall2,2448,plant,100,1571,2123,1,1,,,1
w927437,iay7d2wekj,Nick_Dissertation_EX1b,1,288,2020-07-06T13:32:05-07:00,6.0765221118927,1,versionA_stim.csv,VC_VersionA.csv,"Version A","Version A",LEASE,TOIL,Study2,U,170,140,Test,User,-,,Recall,Recall2,3904,home,25,3083,3563,0,0,,,1
w927437,iay7d2wekj,Nick_Dissertation_EX1b,1,289,2020-07-06T13:34:40-07:00,155.16875910759,1,versionA_stim.csv,VC_VersionA.csv,"Version A","Version A",GONE,AWAY,Study2,S,142,134,Test,User,-,,Recall,Recall2,153072,,0,-1,-1,0,0,,,1
w927437,iay7d2wekj,Nick_Dissertation_EX1b,1,290,2020-07-06T13:34:53-07:00,12.422430992126,1,versionA_stim.csv,VC_VersionA.csv,"Version A","Version A",PHONE,COMMUNICATION,Study2,S,149,166,Test,User,-,,Recall,Recall2,7441,cord,23.529411764706,6293,7067,0,0,,,1
w927437,iay7d2wekj,Nick_Dissertation_EX1b,1,291,2020-07-06T13:35:08-07:00,15.413023948669,1,versionA_stim.csv,VC_VersionA.csv,"Version A","Version A",FISH,SARDINE,Study2,B,130,169,Test,User,-,,Recall,Recall2,12712,,0,-1,-1,0,0,,,1
w927437,iay7d2wekj,Nick_Dissertation_EX1b,1,292,2020-07-06T13:35:18-07:00,9.3648450374603,1,versionA_stim.csv,VC_VersionA.csv,"Version A","Version A",DETECTIVE,MYSTERY,Study2,F,100,97,Test,User,-,,Recall,Recall2,6946,spy,40,5046,6877,0,0,,,1
w927437,iay7d2wekj,Nick_Dissertation_EX1b,1,293,2020-07-06T13:35:27-07:00,9.7504479885101,1,versionA_stim.csv,VC_VersionA.csv,"Version A","Version A",MEAT,OBTAIN,Study2,U,161,108,Test,User,-,,Recall,Recall2,7374,,0,-1,-1,0,0,,,1
w927437,iay7d2wekj,Nick_Dissertation_EX1b,1,294,2020-07-06T13:36:11-07:00,43.649019956589,1,versionA_stim.csv,VC_VersionA.csv,"Version A","Version A",MULE,DONKEY,Study2,F,108,163,Test,User,-,,Recall,Recall2,41769,donkey,100,40926,41525,1,1,,,1
w927437,iay7d2wekj,Nick_Dissertation_EX1b,1,295,2020-07-06T13:36:16-07:00,4.6784970760345,1,versionA_stim.csv,VC_VersionA.csv,"Version A","Version A",THREAD,THIMBLE,Study2,B,121,167,Test,User,-,,Recall,Recall2,2811,needle,30.769230769231,1920,2664,0,0,,,1
w927437,iay7d2wekj,Nick_Dissertation_EX1b,1,296,2020-07-06T13:36:26-07:00,9.9598298072815,1,versionA_stim.csv,VC_VersionA.csv,"Version A","Version A",FLEA,TICK,Study2,S,151,121,Test,User,-,,Recall,Recall2,8234,tick,100,7719,7982,1,1,,,1
w927437,iay7d2wekj,Nick_Dissertation_EX1b,1,297,2020-07-06T13:36:38-07:00,12.422124147415,1,versionA_stim.csv,VC_VersionA.csv,"Version A","Version A",SHOELACE,TIE,Study2,F,99,142,Test,User,-,,Recall,Recall2,10536,tie,100,10006,10212,1,1,,,1
w927437,iay7d2wekj,Nick_Dissertation_EX1b,1,298,2020-07-06T13:36:53-07:00,15.420013904572,1,versionA_stim.csv,VC_VersionA.csv,"Version A","Version A",BOTH,OUNCE,Study2,U,172,151,Test,User,-,,Recall,Recall2,13734,,0,-1,-1,0,0,,,1
w927437,iay7d2wekj,Nick_Dissertation_EX1b,1,299,2020-07-06T13:36:59-07:00,5.5631201267242,1,versionA_stim.csv,VC_VersionA.csv,"Version A","Version A",LOAN,SIGN,Study2,U,171,130,Test,User,-,,Recall,Recall2,3634,,0,-1,-1,0,0,,,1
w927437,iay7d2wekj,Nick_Dissertation_EX1b,1,300,2020-07-06T13:37:10-07:00,10.593655824661,1,versionA_stim.csv,VC_VersionA.csv,"Version A","Version A",FUZZY,BANG,Study2,U,168,144,Test,User,-,,Recall,Recall2,8273,animal,40,7399,8004,0,0,,,1
w927437,iay7d2wekj,Nick_Dissertation_EX1b,1,301,2020-07-06T13:37:31-07:00,20.95863199234,1,versionA_stim.csv,VC_VersionA.csv,"Version A","Version A",STAR,ACTRESS,Study2,B,120,160,Test,User,-,,Recall,Recall2,19173,gaze,36.363636363636,18506,18961,0,0,,,1
w927437,iay7d2wekj,Nick_Dissertation_EX1b,1,302,2020-07-06T13:37:36-07:00,4.9695851802826,1,versionA_stim.csv,VC_VersionA.csv,"Version A","Version A",CANDLE,WAX,Study2,S,139,150,Test,User,-,,Recall,Recall2,3073,burn,0,2461,2860,0,0,,,1
w927437,iay7d2wekj,Nick_Dissertation_EX1b,1,303,2020-07-06T13:37:48-07:00,12.358376979828,1,versionA_stim.csv,VC_VersionA.csv,"Version A","Version A",VEHICLE,CHARM,Study2,U,160,146,Test,User,-,,Recall,Recall2,10740,car,75,10217,10457,0,1,,,1
w927437,iay7d2wekj,Nick_Dissertation_EX1b,1,304,2020-07-06T13:38:00-07:00,12.034359931946,1,versionA_stim.csv,VC_VersionA.csv,"Version A","Version A",GIVE,STEAK,Study2,U,158,132,Test,User,-,,Recall,Recall2,10196,take,66.666666666667,9704,10023,0,0,,,0.706
w927437,iay7d2wekj,Nick_Dissertation_EX1b,1,305,2020-07-06T13:38:30-07:00,29.648497104645,1,versionA_stim.csv,VC_VersionA.csv,"Version A","Version A",WRIST,BRACELET,Study2,S,140,124,Test,User,-,,Recall,Recall2,26084,,0,-1,-1,0,0,,,1
w927437,iay7d2wekj,Nick_Dissertation_EX1b,1,306,2020-07-06T13:38:38-07:00,8.1909809112549,1,versionA_stim.csv,VC_VersionA.csv,"Version A","Version A",OWN,HAVE,Study2,S,153,148,Test,User,-,,Recall,Recall2,6597,lease,22.222222222222,5940,6433,0,0,,,1
w927437,iay7d2wekj,Nick_Dissertation_EX1b,1,307,2020-07-06T13:38:45-07:00,6.834851026535,1,versionA_stim.csv,VC_VersionA.csv,"Version A","Version A",TANTRUM,TEMPER,Study2,S,154,110,Test,User,-,,Recall,Recall2,5377,temper,100,4530,5115,1,1,,,1
w927437,iay7d2wekj,Nick_Dissertation_EX1b,1,308,2020-07-06T13:38:54-07:00,8.9954800605774,1,versionA_stim.csv,VC_VersionA.csv,"Version A","Version A",DOCUMENT,PAPER,Study2,F,109,122,Test,User,-,,Recall,Recall2,7071,file,22.222222222222,6513,6928,0,0,,,1
w927437,iay7d2wekj,Nick_Dissertation_EX1b,1,309,2020-07-06T13:38:58-07:00,3.9507598876953,1,versionA_stim.csv,VC_VersionA.csv,"Version A","Version A",FRUIT,STRAWBERRY,Study2,B,124,100,Test,User,-,,Recall,Recall2,2389,,0,-1,-1,0,0,,,1
w927437,iay7d2wekj,Nick_Dissertation_EX1b,1,310,2020-07-06T13:39:05-07:00,7.593367099762,1,versionA_stim.csv,VC_VersionA.csv,"Version A","Version A",CAKE,CLOTHES,Study2,U,166,99,Test,User,-,,Recall,Recall2,4137,dessert,28.571428571429,2471,4043,0,0,,,1
w927437,iay7d2wekj,Nick_Dissertation_EX1b,1,311,2020-07-06T13:39:24-07:00,18.349578857422,1,versionA_stim.csv,VC_VersionA.csv,"Version A","Version A",TEMPERATURE,Morning,Study2,U,173,147,Test,User,-,,Recall,Recall2,15999,fever,16.666666666667,15258,15803,0,0,,,1
w927437,iay7d2wekj,Nick_Dissertation_EX1b,1,312,2020-07-06T13:39:37-07:00,13.965250015259,1,versionA_stim.csv,VC_VersionA.csv,"Version A","Version A",MAIN,SCAR,Study2,U,175,136,Test,User,-,,Recall,Recall2,12001,,0,-1,-1,0,0,,,1
w927437,iay7d2wekj,Nick_Dissertation_EX1b,1,313,2020-07-06T13:39:45-07:00,7.5782210826874,1,versionA_stim.csv,VC_VersionA.csv,"Version A","Version A",INCENSE,SMELL,Study2,F,110,123,Test,User,-,,Recall,Recall2,5965,candle,18.181818181818,5297,5832,0,0,,,1
w927437,iay7d2wekj,Nick_Dissertation_EX1b,1,314,2020-07-06T13:39:58-07:00,13.421228885651,1,versionA_stim.csv,VC_VersionA.csv,"Version A","Version A",CRACKLE,ABLE,Study2,U,162,154,Test,User,-,,Recall,Recall2,11711,,0,-1,-1,0,0,,,1
w927437,iay7d2wekj,Nick_Dissertation_EX1b,1,315,2020-07-06T13:40:21-07:00,22.13450217247,1,versionA_stim.csv,VC_VersionA.csv,"Version A","Version A",POP,BALLOON,Study2,B,123,172,Test,User,-,,Recall,Recall2,20531,soda,18.181818181818,20123,20375,0,0,,,1
w927437,iay7d2wekj,Nick_Dissertation_EX1b,1,316,2020-07-06T13:40:32-07:00,11.11397600174,1,versionA_stim.csv,VC_VersionA.csv,"Version A","Version A",EVEN,REVENGE,Study2,B,122,157,Test,User,-,,Recall,Recall2,8868,,0,-1,-1,0,0,,,1
w927437,iay7d2wekj,Nick_Dissertation_EX1b,1,317,2020-07-06T13:40:37-07:00,5.2132329940796,1,versionA_stim.csv,VC_VersionA.csv,"Version A","Version A",FURRY,DOG,Study2,F,102,143,Test,User,-,,Recall,Recall2,3043,fuzzy,0,2136,2800,0,0,,,1
w927437,iay7d2wekj,Nick_Dissertation_EX1b,1,318,2020-07-06T13:40:41-07:00,3.5730009078979,1,versionA_stim.csv,VC_VersionA.csv,"Version A","Version A",TRUTH,LIE,Study2,S,148,118,Test,User,-,,Recall,Recall2,1983,lie,100,1429,1813,1,1,,,1
w927437,iay7d2wekj,Nick_Dissertation_EX1b,1,319,2020-07-06T13:40:45-07:00,4.3593308925629,1,versionA_stim.csv,VC_VersionA.csv,"Version A","Version A",LOUD,NOISE,Study2,S,152,116,Test,User,-,,Recall,Recall2,2848,,0,-1,-1,0,0,,,1
w927437,iay7d2wekj,Nick_Dissertation_EX1b,1,320,2020-07-06T13:40:53-07:00,8.233136177063,1,versionA_stim.csv,VC_VersionA.csv,"Version A","Version A",CHERRY,RED,Study2,F,104,165,Test,User,-,,Recall,Recall2,6421,fruit,25,5641,6241,0,0,,,1
w927437,iay7d2wekj,Nick_Dissertation_EX1b,1,321,2020-07-06T13:41:00-07:00,6.517865896225,1,versionA_stim.csv,VC_VersionA.csv,"Version A","Version A",SUN,TAN,Study2,S,155,161,Test,User,-,,Recall,Recall2,4843,moon,28.571428571429,4137,4624,0,0,,,1
w927437,iay7d2wekj,Nick_Dissertation_EX1b,1,322,2020-07-06T13:41:07-07:00,7.4026861190796,1,versionA_stim.csv,VC_VersionA.csv,"Version A","Version A",HONEST,TRUTHFUL,Study2,B,133,127,Test,User,-,,Recall,Recall2,5857,open,0,4387,5323,0,0,,,1
w927437,iay7d2wekj,Nick_Dissertation_EX1b,1,323,2020-07-06T13:41:11-07:00,4.4089839458466,1,versionA_stim.csv,VC_VersionA.csv,"Version A","Version A",BAD,VILLAIN,Study2,B,118,107,Test,User,-,,Recall,Recall2,2927,,0,-1,-1,0,0,,,1
w927437,iay7d2wekj,Nick_Dissertation_EX1b,1,324,2020-07-06T13:41:22-07:00,10.625710964203,1,versionA_stim.csv,VC_VersionA.csv,"Version A","Version A",MASON,JAR,Study2,S,138,145,Test,User,-,,Recall,Recall2,8642,jar,100,8188,8422,1,1,,,1
w927437,iay7d2wekj,Nick_Dissertation_EX1b,1,325,2020-07-06T13:41:57-07:00,35.246572971344,1,versionA_stim.csv,VC_VersionA.csv,"Version A","Version A",ALONE,LONELY,Study2,S,145,176,Test,User,-,,Recall,Recall2,33539,,0,-1,-1,0,0,,,0.357
w927437,iay7d2wekj,Nick_Dissertation_EX1b,1,326,2020-07-06T13:42:05-07:00,7.8453800678253,1,versionA_stim.csv,VC_VersionA.csv,"Version A","Version A",ADJOURN,END,Study2,F,101,153,Test,User,-,,Recall,Recall2,6277,close,25,5659,6122,0,0,,,1
w927437,iay7d2wekj,Nick_Dissertation_EX1b,1,327,2020-07-06T13:42:18-07:00,13.317878961563,1,versionA_stim.csv,VC_VersionA.csv,"Version A","Version A",DRIVER,CAR,Study2,F,106,104,Test,User,-,,Recall,Recall2,11664,car,100,11061,11347,1,1,,,1
w927437,iay7d2wekj,Nick_Dissertation_EX1b,1,328,2020-07-06T13:42:24-07:00,5.7220211029053,1,versionA_stim.csv,VC_VersionA.csv,"Version A","Version A",MONEY,BANKER,Study2,B,132,149,Test,User,-,,Recall,Recall2,3080,,0,-1,-1,0,0,,,1
w927437,iay7d2wekj,Nick_Dissertation_EX1b,1,329,2020-07-06T13:42:29-07:00,4.9885168075562,1,versionA_stim.csv,VC_VersionA.csv,"Version A","Version A",CHOP,CUT,Study2,F,107,109,Test,User,-,,Recall,Recall2,3019,,0,-1,-1,0,0,,,1
w927437,iay7d2wekj,Nick_Dissertation_EX1b,1,330,2020-07-06T13:42:38-07:00,8.6133620738983,1,versionA_stim.csv,VC_VersionA.csv,"Version A","Version A",ROD,REEL,Study2,S,150,155,Test,User,-,,Recall,Recall2,6891,iron,25,3864,6297,0,0,,,1
w927437,iay7d2wekj,Nick_Dissertation_EX1b,1,331,2020-07-06T13:42:53-07:00,15.673188924789,1,versionA_stim.csv,VC_VersionA.csv,"Version A","Version A",MOAT,CLEAR,Study2,U,169,164,Test,User,-,,Recall,Recall2,14104,,0,-1,-1,0,0,,,1
w927437,iay7d2wekj,Nick_Dissertation_EX1b,1,332,2020-07-06T13:42:59-07:00,5.4795789718628,1,versionA_stim.csv,VC_VersionA.csv,"Version A","Version A",FIGHT,BRAWL,Study2,B,135,111,Test,User,-,,Recall,Recall2,3651,brawl,100,1454,3079,1,1,,,1
w927437,iay7d2wekj,Nick_Dissertation_EX1b,1,333,2020-07-06T13:43:05-07:00,6.4835162162781,1,versionA_stim.csv,VC_VersionA.csv,"Version A","Version A",AFFECTION,LOVE,Study2,F,115,120,Test,User,-,,Recall,Recall2,4946,love,100,3207,4258,1,1,,,1
w927437,iay7d2wekj,Nick_Dissertation_EX1b,1,334,2020-07-06T13:43:25-07:00,19.675552845001,1,versionA_stim.csv,VC_VersionA.csv,"Version A","Version A",Shell,SHAKE,Study2,U,163,114,Test,User,-,,Recall,Recall2,17682,,0,-1,-1,0,0,,,1
w927437,iay7d2wekj,Nick_Dissertation_EX1b,1,335,2020-07-06T13:43:33-07:00,8.1965939998627,1,versionA_stim.csv,VC_VersionA.csv,"Version A","Version A",SAFETY,SEATBELT,Study2,S,147,139,Test,User,-,,Recall,Recall2,5463,,0,-1,-1,0,0,,,1
w927437,iay7d2wekj,Nick_Dissertation_EX1b,1,336,2020-07-06T13:43:54-07:00,20.440932035446,1,versionA_stim.csv,VC_VersionA.csv,"Version A","Version A",CAR,WINDSHIELD,Study2,B,117,106,Test,User,-,,Recall,Recall2,16960,,0,-1,-1,0,0,,,1
w927437,iay7d2wekj,Nick_Dissertation_EX1b,1,337,2020-07-06T13:44:00-07:00,6.1983799934387,1,versionA_stim.csv,VC_VersionA.csv,"Version A","Version A",EARTH,GROUND,Study2,S,144,174,Test,User,-,,Recall,Recall2,3832,ground,100,1604,3235,1,1,,,1
w927437,iay7d2wekj,Nick_Dissertation_EX1b,1,338,2020-07-06T13:44:11-07:00,10.930449008942,1,versionA_stim.csv,VC_VersionA.csv,"Version A","Version A",LITTER,TRASH,Study2,F,103,119,Test,User,-,,Recall,Recall2,9032,trash,100,7510,8744,1,1,,,1
w927437,iay7d2wekj,Nick_Dissertation_EX1b,1,339,2020-07-06T13:44:17-07:00,6.4328179359436,1,versionA_stim.csv,VC_VersionA.csv,"Version A","Version A",MIRROR,CHILDREN,Study2,U,174,156,Test,User,-,,Recall,Recall2,4798,,0,-1,-1,0,0,,,1
w927437,iay7d2wekj,Nick_Dissertation_EX1b,1,340,2020-07-06T13:44:28-07:00,10.516376018524,1,versionA_stim.csv,VC_VersionA.csv,"Version A","Version A",SCALP,HEAD,Study2,F,105,126,Test,User,-,,Recall,Recall2,5559,head,100,4299,5058,1,1,,,1
w927437,iay7d2wekj,Nick_Dissertation_EX1b,1,341,2020-07-06T13:44:36-07:00,8.0089290142059,1,versionA_stim.csv,VC_VersionA.csv,"Version A","Version A",SLEEP,NAP,Study2,B,134,125,Test,User,-,,Recall,Recall2,6418,rest,0,5342,5933,0,0,,,1
