"Trial.ID","Sub.ID","Condition.Number","Condition.Description","Stimuli.Cue","Stimuli.Answer","Stimuli.Shuffle","Stimuli.Stimuli.Notes","JOL.RT","Response.JOL","Response.RT.1","Responses","Response.Accuracy","Answer","Scored"
1,"5f26b501dd983441aaaa41a9",5,"JOL Version A","ALLOW","tuck","Study1","U",4504,"31",16554,"",0,"tuck",0
1,"w10046977_ajg",5,"JOL Version A","ALLOW","tuck","Study1","U",2457,"0",1342,"me",0,"tuck",0
1,"w995669_AML",5,"JOL Version A","ALLOW","tuck","Study1","U",4755,"0",1866,"",0,"tuck",0
1,"w10036134AN",5,"JOL Version A","ALLOW","tuck","Study1","U",2451,"10",1226,"",0,"tuck",0
1,"5f50efe49dd63f29776ce8d6",5,"JOL Version A","ALLOW","tuck","Study1","U",3818,"0",2850,"debt",25,"tuck",0
1,"w10045963_lnp",5,"JOL Version A","ALLOW","tuck","Study1","U",3026,"0",11167,"responsibility",11.111111111111,"tuck",0
1,"5f906d9892b0ac120238830b",5,"JOL Version A","ALLOW","tuck","Study1","U",3475,"0",2138,"deny",0,"tuck",0
1,"w10006036_mlh",5,"JOL Version A","ALLOW","tuck","Study1","U",4644,"0",2353,"",0,"tuck",0
2,"w995669_AML",5,"JOL Version A","ARCHITECTURE","design","Study1","S",2493,"90",5389,"design",100,"design",1
2,"w10045963_lnp",5,"JOL Version A","ARCHITECTURE","design","Study1","S",3505,"50",2130,"design",100,"design",1
2,"5f26b501dd983441aaaa41a9",5,"JOL Version A","ARCHITECTURE","design","Study1","S",7172,"77",3639,"design",100,"design",1
2,"w10006036_mlh",5,"JOL Version A","ARCHITECTURE","design","Study1","S",11758,"20",6926,"designer ",85.714285714286,"design",0
2,"w10046977_ajg",5,"JOL Version A","ARCHITECTURE","design","Study1","S",2896,"99",9970,"build",18.181818181818,"design",0
2,"w10036134AN",5,"JOL Version A","ARCHITECTURE","design","Study1","S",2237,"30",3747,"art",0,"design",0
2,"5f50efe49dd63f29776ce8d6",5,"JOL Version A","ARCHITECTURE","design","Study1","S",3770,"100",3544,"building",28.571428571429,"design",0
2,"5f906d9892b0ac120238830b",5,"JOL Version A","ARCHITECTURE","design","Study1","S",4407,"55",2184,"design",100,"design",1
3,"w995669_AML",5,"JOL Version A","ART","lion","Study1","U",1878,"0",2892,"lion",100,"lion",1
3,"w10046977_ajg",5,"JOL Version A","ART","lion","Study1","U",5915,"34",2117,"lion",100,"lion",1
3,"w10045963_lnp",5,"JOL Version A","ART","lion","Study1","U",2738,"0",10568,"museum",0,"lion",0
3,"5f26b501dd983441aaaa41a9",5,"JOL Version A","ART","lion","Study1","U",4406,"21",5730,"house",22.222222222222,"lion",0
3,"w10036134AN",5,"JOL Version A","ART","lion","Study1","U",4908,"10",1719,"",0,"lion",0
3,"5f906d9892b0ac120238830b",5,"JOL Version A","ART","lion","Study1","U",4468,"0",3534,"picture",18.181818181818,"lion",0
3,"w10006036_mlh",5,"JOL Version A","ART","lion","Study1","U",2731,"0",3054,"",0,"lion",0
3,"5f50efe49dd63f29776ce8d6",5,"JOL Version A","ART","lion","Study1","U",8862,"0",3464,"attack",0,"lion",0
4,"w995669_AML",5,"JOL Version A","ARTERY","bronze","Study1","U",3691,"0",3754,"bronze",100,"bronze",1
4,"w10036134AN",5,"JOL Version A","ARTERY","bronze","Study1","U",2722,"5",1692,"",0,"bronze",0
4,"5f906d9892b0ac120238830b",5,"JOL Version A","ARTERY","bronze","Study1","U",4412,"0",2598,"heart",18.181818181818,"bronze",0
4,"w10045963_lnp",5,"JOL Version A","ARTERY","bronze","Study1","U",2281,"0",2423,"bronze",100,"bronze",1
4,"5f26b501dd983441aaaa41a9",5,"JOL Version A","ARTERY","bronze","Study1","U",3719,"12",13974,"heart",18.181818181818,"bronze",0
4,"5f50efe49dd63f29776ce8d6",5,"JOL Version A","ARTERY","bronze","Study1","U",3795,"0",5100,"blood",36.363636363636,"bronze",0
4,"w10006036_mlh",5,"JOL Version A","ARTERY","bronze","Study1","U",3332,"0",5446,"",0,"bronze",0
4,"w10046977_ajg",5,"JOL Version A","ARTERY","bronze","Study1","U",1769,"0",8942,"liver",18.181818181818,"bronze",0
5,"5f906d9892b0ac120238830b",5,"JOL Version A","BABY","child","Study1","S",4220,"55",2191,"child",100,"child",1
5,"5f26b501dd983441aaaa41a9",5,"JOL Version A","BABY","child","Study1","S",5498,"46",5808,"child",100,"child",1
5,"5f50efe49dd63f29776ce8d6",5,"JOL Version A","BABY","child","Study1","S",3711,"100",4749,"food",22.222222222222,"child",0
5,"w10006036_mlh",5,"JOL Version A","BABY","child","Study1","S",5496,"90",7321,"child",100,"child",1
5,"w10036134AN",5,"JOL Version A","BABY","child","Study1","S",1667,"20",1511,"",0,"child",0
5,"w10046977_ajg",5,"JOL Version A","BABY","child","Study1","S",2993,"67",1843,"child",100,"child",1
5,"w995669_AML",5,"JOL Version A","BABY","child","Study1","S",5065,"15",2192,"child",100,"child",1
5,"w10045963_lnp",5,"JOL Version A","BABY","child","Study1","S",4213,"90",2353,"child",100,"child",1
6,"5f50efe49dd63f29776ce8d6",5,"JOL Version A","BALL","racket","Study1","B",3115,"90",4864,"bounce ",33.333333333333,"racket",0
6,"5f906d9892b0ac120238830b",5,"JOL Version A","BALL","racket","Study1","B",3273,"45",2004,"bounce",33.333333333333,"racket",0
6,"w10046977_ajg",5,"JOL Version A","BALL","racket","Study1","B",3731,"56",3083,"game",40,"racket",0
6,"w995669_AML",5,"JOL Version A","BALL","racket","Study1","B",4321,"30",5919,"racket",100,"racket",1
6,"w10006036_mlh",5,"JOL Version A","BALL","racket","Study1","B",6171,"20",6164,"racket ",100,"racket",1
6,"w10036134AN",5,"JOL Version A","BALL","racket","Study1","B",2675,"20",915,"",0,"racket",0
6,"5f26b501dd983441aaaa41a9",5,"JOL Version A","BALL","racket","Study1","B",3333,"51",9084,"round",18.181818181818,"racket",0
6,"w10045963_lnp",5,"JOL Version A","BALL","racket","Study1","B",6450,"75",3083,"bounce",33.333333333333,"racket",0
7,"5f26b501dd983441aaaa41a9",5,"JOL Version A","BATHROOM","toilet","Study1","S",3600,"77",11347,"toilet",100,"toilet",1
7,"5f50efe49dd63f29776ce8d6",5,"JOL Version A","BATHROOM","toilet","Study1","S",3823,"100",2916,"tap",22.222222222222,"toilet",0
7,"5f906d9892b0ac120238830b",5,"JOL Version A","BATHROOM","toilet","Study1","S",4042,"80",1919,"toilet",100,"toilet",1
7,"w995669_AML",5,"JOL Version A","BATHROOM","toilet","Study1","S",2401,"80",3798,"toilet",100,"toilet",1
7,"w10045963_lnp",5,"JOL Version A","BATHROOM","toilet","Study1","S",4023,"80",1851,"toilet",100,"toilet",1
7,"w10006036_mlh",5,"JOL Version A","BATHROOM","toilet","Study1","S",4725,"80",7234,"toilet ",100,"toilet",1
7,"w10036134AN",5,"JOL Version A","BATHROOM","toilet","Study1","S",1815,"50",4213,"",0,"toilet",0
7,"w10046977_ajg",5,"JOL Version A","BATHROOM","toilet","Study1","S",2655,"100",3327,"toilet",100,"toilet",1
8,"w995669_AML",5,"JOL Version A","BEGIN","end","Study1","S",2339,"100",3092,"end",100,"end",1
8,"5f26b501dd983441aaaa41a9",5,"JOL Version A","BEGIN","end","Study1","S",9153,"56",22000,"start",0,"end",0
8,"5f50efe49dd63f29776ce8d6",5,"JOL Version A","BEGIN","end","Study1","S",3397,"85",2706,"end",100,"end",1
8,"5f906d9892b0ac120238830b",5,"JOL Version A","BEGIN","end","Study1","S",3498,"70",1653,"end",100,"end",1
8,"w10036134AN",5,"JOL Version A","BEGIN","end","Study1","S",3628,"100",5601,"",0,"end",0
8,"w10046977_ajg",5,"JOL Version A","BEGIN","end","Study1","S",2833,"100",1982,"start",0,"end",0
8,"w10006036_mlh",5,"JOL Version A","BEGIN","end","Study1","S",5257,"90",2826,"end ",100,"end",1
8,"w10045963_lnp",5,"JOL Version A","BEGIN","end","Study1","S",4626,"80",7564,"finish",22.222222222222,"end",0
9,"5f906d9892b0ac120238830b",5,"JOL Version A","BITTER","cold","Study1","F",1811,"0",2248,"sour",25,"cold",0
9,"5f50efe49dd63f29776ce8d6",5,"JOL Version A","BITTER","cold","Study1","F",3017,"90",3305,"lemon",22.222222222222,"cold",0
9,"w10036134AN",5,"JOL Version A","BITTER","cold","Study1","F",1893,"20",1716,"",0,"cold",0
9,"w10046977_ajg",5,"JOL Version A","BITTER","cold","Study1","F",3985,"25",1974,"cold",100,"cold",1
9,"w10006036_mlh",5,"JOL Version A","BITTER","cold","Study1","F",5303,"10",3901,"sweet",0,"cold",0
9,"w10045963_lnp",5,"JOL Version A","BITTER","cold","Study1","F",5883,"10",1953,"cold",100,"cold",1
9,"5f26b501dd983441aaaa41a9",5,"JOL Version A","BITTER","cold","Study1","F",5375,"12",9005,"",0,"cold",0
9,"w995669_AML",5,"JOL Version A","BITTER","cold","Study1","F",4309,"50",2428,"",0,"cold",0
10,"5f906d9892b0ac120238830b",5,"JOL Version A","BLOW","wind","Study1","S",2956,"45",1588,"wind",100,"wind",1
10,"5f50efe49dd63f29776ce8d6",5,"JOL Version A","BLOW","wind","Study1","S",5393,"100",3918,"suck",0,"wind",0
10,"w10006036_mlh",5,"JOL Version A","BLOW","wind","Study1","S",3959,"40",2514,"winds",88.888888888889,"wind",1
10,"w10036134AN",5,"JOL Version A","BLOW","wind","Study1","S",2008,"30",916,"",0,"wind",0
10,"5f26b501dd983441aaaa41a9",5,"JOL Version A","BLOW","wind","Study1","S",3879,"56",7556,"",0,"wind",0
10,"w995669_AML",5,"JOL Version A","BLOW","wind","Study1","S",3841,"20",2402,"wind",100,"wind",1
10,"w10045963_lnp",5,"JOL Version A","BLOW","wind","Study1","S",3091,"50",2710,"wind",100,"wind",1
10,"w10046977_ajg",5,"JOL Version A","BLOW","wind","Study1","S",3026,"50",2172,"cake",0,"wind",0
11,"w995669_AML",5,"JOL Version A","BRIDGE","water","Study1","F",7851,"70",2258,"water",100,"water",1
11,"5f26b501dd983441aaaa41a9",5,"JOL Version A","BRIDGE","water","Study1","F",12080,"62",7567,"water",100,"water",1
11,"5f50efe49dd63f29776ce8d6",5,"JOL Version A","BRIDGE","water","Study1","F",3392,"100",3088,"water",100,"water",1
11,"5f906d9892b0ac120238830b",5,"JOL Version A","BRIDGE","water","Study1","F",3892,"20",5018,"structure",28.571428571429,"water",0
11,"w10036134AN",5,"JOL Version A","BRIDGE","water","Study1","F",2210,"20",1401,"",0,"water",0
11,"w10046977_ajg",5,"JOL Version A","BRIDGE","water","Study1","F",5098,"70",2198,"water",100,"water",1
11,"w10006036_mlh",5,"JOL Version A","BRIDGE","water","Study1","F",7336,"70",3055,"water",100,"water",1
11,"w10045963_lnp",5,"JOL Version A","BRIDGE","water","Study1","F",5422,"55",2030,"fire",22.222222222222,"water",0
12,"5f26b501dd983441aaaa41a9",5,"JOL Version A","BUG","wasp","Study1","B",4676,"66",3775,"wasp",100,"wasp",1
12,"w10036134AN",5,"JOL Version A","BUG","wasp","Study1","B",3842,"20",2959,"",0,"wasp",0
12,"w10046977_ajg",5,"JOL Version A","BUG","wasp","Study1","B",3739,"50",2638,"wasp",100,"wasp",1
12,"5f50efe49dd63f29776ce8d6",5,"JOL Version A","BUG","wasp","Study1","B",3047,"80",3145,"fly",0,"wasp",0
12,"5f906d9892b0ac120238830b",5,"JOL Version A","BUG","wasp","Study1","B",3215,"15",1752,"bite",0,"wasp",0
12,"w10045963_lnp",5,"JOL Version A","BUG","wasp","Study1","B",4641,"95",2550,"wasp",100,"wasp",1
12,"w995669_AML",5,"JOL Version A","BUG","wasp","Study1","B",2831,"20",3532,"hornet",0,"wasp",0
12,"w10006036_mlh",5,"JOL Version A","BUG","wasp","Study1","B",5439,"10",15921,"",0,"wasp",0
13,"w10046977_ajg",5,"JOL Version A","CASH","would","Study1","U",3363,"14",2718,"money",20,"would",0
13,"5f50efe49dd63f29776ce8d6",5,"JOL Version A","CASH","would","Study1","U",3527,"0",3210,"money",20,"would",0
13,"5f906d9892b0ac120238830b",5,"JOL Version A","CASH","would","Study1","U",1035,NA,1662,"money",20,"would",0
13,"w995669_AML",5,"JOL Version A","CASH","would","Study1","U",2035,"0",3622,"",0,"would",0
13,"5f26b501dd983441aaaa41a9",5,"JOL Version A","CASH","would","Study1","U",6883,"4",10918,"evil",22.222222222222,"would",0
13,"w10006036_mlh",5,"JOL Version A","CASH","would","Study1","U",7439,"20",3294,"",0,"would",0
13,"w10036134AN",5,"JOL Version A","CASH","would","Study1","U",1948,"50",1448,"",0,"would",0
13,"w10045963_lnp",5,"JOL Version A","CASH","would","Study1","U",1580,"0",3208,"wallet",36.363636363636,"would",0
14,"5f906d9892b0ac120238830b",5,"JOL Version A","CHISEL","hammer","Study1","F",1553,"0",4154,"hammer",100,"hammer",1
14,"w10036134AN",5,"JOL Version A","CHISEL","hammer","Study1","F",3227,"11",1865,"",0,"hammer",0
14,"5f26b501dd983441aaaa41a9",5,"JOL Version A","CHISEL","hammer","Study1","F",13211,"36",3168,"hammer",100,"hammer",1
14,"w10006036_mlh",5,"JOL Version A","CHISEL","hammer","Study1","F",5009,"0",2734,"",0,"hammer",0
14,"w10046977_ajg",5,"JOL Version A","CHISEL","hammer","Study1","F",3386,"0",3098,"hammer",100,"hammer",1
14,"5f50efe49dd63f29776ce8d6",5,"JOL Version A","CHISEL","hammer","Study1","F",3338,"60",8800,"hammer",100,"hammer",1
14,"w10045963_lnp",5,"JOL Version A","CHISEL","hammer","Study1","F",10920,"10",2737,"hammer",100,"hammer",1
14,"w995669_AML",5,"JOL Version A","CHISEL","hammer","Study1","F",3871,"5",2304,"hammer",100,"hammer",1
15,"w10036134AN",5,"JOL Version A","CIRCLE","round","Study1","S",1995,"50",1406,"",0,"round",0
15,"w10045963_lnp",5,"JOL Version A","CIRCLE","round","Study1","S",3821,"50",1642,"round",100,"round",1
15,"5f26b501dd983441aaaa41a9",5,"JOL Version A","CIRCLE","round","Study1","S",3173,"88",3424,"round",100,"round",1
15,"5f50efe49dd63f29776ce8d6",5,"JOL Version A","CIRCLE","round","Study1","S",3014,"100",3844,"round ",100,"round",1
15,"5f906d9892b0ac120238830b",5,"JOL Version A","CIRCLE","round","Study1","S",3014,"60",1648,"round",100,"round",1
15,"w995669_AML",5,"JOL Version A","CIRCLE","round","Study1","S",5136,"75",24422,"round",100,"round",1
15,"w10046977_ajg",5,"JOL Version A","CIRCLE","round","Study1","S",4654,"100",3007,"round",100,"round",1
15,"w10006036_mlh",5,"JOL Version A","CIRCLE","round","Study1","S",2549,"100",3298,"round ",100,"round",1
16,"5f906d9892b0ac120238830b",5,"JOL Version A","CLOTHES","attire","Study1","B",2933,"0",3208,"shoes",18.181818181818,"attire",0
16,"5f26b501dd983441aaaa41a9",5,"JOL Version A","CLOTHES","attire","Study1","B",3688,"27",13930,"",0,"attire",0
16,"5f50efe49dd63f29776ce8d6",5,"JOL Version A","CLOTHES","attire","Study1","B",3604,"100",2783,"peg",22.222222222222,"attire",0
16,"w10046977_ajg",5,"JOL Version A","CLOTHES","attire","Study1","B",2470,"70",2610,"attire",100,"attire",1
16,"w10006036_mlh",5,"JOL Version A","CLOTHES","attire","Study1","B",6799,"90",3620,"",0,"attire",0
16,"w10036134AN",5,"JOL Version A","CLOTHES","attire","Study1","B",3262,"20",1284,"",0,"attire",0
16,"w995669_AML",5,"JOL Version A","CLOTHES","attire","Study1","B",4947,"35",2931,"attire",100,"attire",1
16,"w10045963_lnp",5,"JOL Version A","CLOTHES","attire","Study1","B",3912,"90",1907,"attire",100,"attire",1
17,"5f906d9892b0ac120238830b",5,"JOL Version A","CREDIT","card","Study1","F",2481,"80",1464,"card",100,"card",1
17,"w10006036_mlh",5,"JOL Version A","CREDIT","card","Study1","F",8299,"100",2442,"card",100,"card",1
17,"w10036134AN",5,"JOL Version A","CREDIT","card","Study1","F",2278,"30",4185,"card",100,"card",1
17,"5f50efe49dd63f29776ce8d6",5,"JOL Version A","CREDIT","card","Study1","F",5386,"100",3927,"card ",100,"card",1
17,"w10046977_ajg",5,"JOL Version A","CREDIT","card","Study1","F",2656,"100",1783,"card",100,"card",1
17,"5f26b501dd983441aaaa41a9",5,"JOL Version A","CREDIT","card","Study1","F",2493,"90",3080,"card",100,"card",1
17,"w10045963_lnp",5,"JOL Version A","CREDIT","card","Study1","F",3564,"40",5027,"card",100,"card",1
17,"w995669_AML",5,"JOL Version A","CREDIT","card","Study1","F",2182,"100",2190,"card",100,"card",1
18,"5f906d9892b0ac120238830b",5,"JOL Version A","DARK","cave","Study1","B",2633,"15",2004,"light",0,"cave",0
18,"w10006036_mlh",5,"JOL Version A","DARK","cave","Study1","B",4460,"10",2903,"cave ",100,"cave",1
18,"w10036134AN",5,"JOL Version A","DARK","cave","Study1","B",1497,"30",1229,"",0,"cave",0
18,"5f26b501dd983441aaaa41a9",5,"JOL Version A","DARK","cave","Study1","B",4472,"66",6394,"",0,"cave",0
18,"5f50efe49dd63f29776ce8d6",5,"JOL Version A","DARK","cave","Study1","B",3345,"90",3210,"night",0,"cave",0
18,"w995669_AML",5,"JOL Version A","DARK","cave","Study1","B",4868,"75",5030,"hide",25,"cave",0
18,"w10045963_lnp",5,"JOL Version A","DARK","cave","Study1","B",7780,"5",3197,"night",0,"cave",0
18,"w10046977_ajg",5,"JOL Version A","DARK","cave","Study1","B",3031,"50",2737,"cave",100,"cave",1
19,"w10046977_ajg",5,"JOL Version A","DEATH","business","Study1","U",3830,"34",2995,"business",100,"business",1
19,"5f26b501dd983441aaaa41a9",5,"JOL Version A","DEATH","business","Study1","U",17579,"21",7815,"work",0,"business",0
19,"5f50efe49dd63f29776ce8d6",5,"JOL Version A","DEATH","business","Study1","U",24623,"0",5586,"funeral",40,"business",0
19,"5f906d9892b0ac120238830b",5,"JOL Version A","DEATH","business","Study1","U",5389,"0",2193,"life",33.333333333333,"business",0
19,"w995669_AML",5,"JOL Version A","DEATH","business","Study1","U",1769,"0",4928,"",0,"business",0
19,"w10006036_mlh",5,"JOL Version A","DEATH","business","Study1","U",5442,"0",14815,"business ",100,"business",1
19,"w10036134AN",5,"JOL Version A","DEATH","business","Study1","U",1687,"10",4309,"",0,"business",0
19,"w10045963_lnp",5,"JOL Version A","DEATH","business","Study1","U",2314,"0",7062,"funeral",40,"business",0
20,"5f906d9892b0ac120238830b",5,"JOL Version A","DEBATE","sight","Study1","U",2770,"0",4284,"argument",30.769230769231,"sight",0
20,"5f50efe49dd63f29776ce8d6",5,"JOL Version A","DEBATE","sight","Study1","U",2937,"0",3777,"argument ",30.769230769231,"sight",0
20,"w10036134AN",5,"JOL Version A","DEBATE","sight","Study1","U",1816,"10",1193,"",0,"sight",0
20,"w10006036_mlh",5,"JOL Version A","DEBATE","sight","Study1","U",3515,"0",4555,"",0,"sight",0
20,"w10046977_ajg",5,"JOL Version A","DEBATE","sight","Study1","U",5091,"40",7676,"conversation",23.529411764706,"sight",0
20,"5f26b501dd983441aaaa41a9",5,"JOL Version A","DEBATE","sight","Study1","U",2734,"12",3715,"",0,"sight",0
20,"w10045963_lnp",5,"JOL Version A","DEBATE","sight","Study1","U",2734,"0",5169,"discussion",26.666666666667,"sight",0
20,"w995669_AML",5,"JOL Version A","DEBATE","sight","Study1","U",2589,"0",5620,"",0,"sight",0
21,"5f906d9892b0ac120238830b",5,"JOL Version A","DELINQUENT","bad","Study1","F",2441,"90",1452,"ba",80,"bad",1
21,"w10006036_mlh",5,"JOL Version A","DELINQUENT","bad","Study1","F",3814,"0",1867,"",0,"bad",0
21,"w10045963_lnp",5,"JOL Version A","DELINQUENT","bad","Study1","F",5827,"25",1678,"bad",100,"bad",1
21,"w10036134AN",5,"JOL Version A","DELINQUENT","bad","Study1","F",2542,"10",4949,"bad",100,"bad",1
21,"5f26b501dd983441aaaa41a9",5,"JOL Version A","DELINQUENT","bad","Study1","F",3843,"26",3154,"bad",100,"bad",1
21,"5f50efe49dd63f29776ce8d6",5,"JOL Version A","DELINQUENT","bad","Study1","F",3798,"100",3597,"bad",100,"bad",1
21,"w995669_AML",5,"JOL Version A","DELINQUENT","bad","Study1","F",5347,"90",3337,"bad",100,"bad",1
21,"w10046977_ajg",5,"JOL Version A","DELINQUENT","bad","Study1","F",2808,"50",1448,"bad",100,"bad",1
22,"5f50efe49dd63f29776ce8d6",5,"JOL Version A","DIETARY","sacking","Study1","U",3032,"0",9403,"requirement",22.222222222222,"sacking",0
22,"5f906d9892b0ac120238830b",5,"JOL Version A","DIETARY","sacking","Study1","U",2700,"0",4832,"needs",16.666666666667,"sacking",0
22,"5f26b501dd983441aaaa41a9",5,"JOL Version A","DIETARY","sacking","Study1","U",21058,"14",12231,"slimming",53.333333333333,"sacking",0
22,"w10036134AN",5,"JOL Version A","DIETARY","sacking","Study1","U",1977,"10",1288,"",0,"sacking",0
22,"w10046977_ajg",5,"JOL Version A","DIETARY","sacking","Study1","U",2828,"2",13060,"diet",18.181818181818,"sacking",0
22,"w10006036_mlh",5,"JOL Version A","DIETARY","sacking","Study1","U",5080,"10",9174,"snacking ",93.333333333333,"sacking",1
22,"w10045963_lnp",5,"JOL Version A","DIETARY","sacking","Study1","U",2663,"0",6857,"health",15.384615384615,"sacking",0
22,"w995669_AML",5,"JOL Version A","DIETARY","sacking","Study1","U",1894,"0",7110,"food",0,"sacking",0
23,"5f906d9892b0ac120238830b",5,"JOL Version A","DIGESTION","stomach","Study1","F",3439,"40",2863,"stomach",100,"stomach",1
23,"w10006036_mlh",5,"JOL Version A","DIGESTION","stomach","Study1","F",15586,"10",3674,"stomach ",100,"stomach",1
23,"5f50efe49dd63f29776ce8d6",5,"JOL Version A","DIGESTION","stomach","Study1","F",3601,"100",4433,"stomach ",100,"stomach",1
23,"w10046977_ajg",5,"JOL Version A","DIGESTION","stomach","Study1","F",2985,"50",2587,"stomach",100,"stomach",1
23,"w10036134AN",5,"JOL Version A","DIGESTION","stomach","Study1","F",2078,"20",6233,"stomach",100,"stomach",1
23,"w10045963_lnp",5,"JOL Version A","DIGESTION","stomach","Study1","F",3696,"20",1946,"stomach",100,"stomach",1
23,"w995669_AML",5,"JOL Version A","DIGESTION","stomach","Study1","F",6749,"25",3738,"stomach",100,"stomach",1
23,"5f26b501dd983441aaaa41a9",5,"JOL Version A","DIGESTION","stomach","Study1","F",4793,"79",4581,"stomach",100,"stomach",1
24,"5f906d9892b0ac120238830b",5,"JOL Version A","DISCOVER","floor","Study1","U",2054,"0",2835,"search",18.181818181818,"floor",0
24,"5f26b501dd983441aaaa41a9",5,"JOL Version A","DISCOVER","floor","Study1","U",5227,"15",5456,"",0,"floor",0
24,"5f50efe49dd63f29776ce8d6",5,"JOL Version A","DISCOVER","floor","Study1","U",2877,"0",3174,"find",22.222222222222,"floor",0
24,"w10006036_mlh",5,"JOL Version A","DISCOVER","floor","Study1","U",2901,"0",1860,"",0,"floor",0
24,"w10036134AN",5,"JOL Version A","DISCOVER","floor","Study1","U",3582,"10",1188,"",0,"floor",0
24,"w10046977_ajg",5,"JOL Version A","DISCOVER","floor","Study1","U",4018,"0",3897,"find",22.222222222222,"floor",0
24,"w995669_AML",5,"JOL Version A","DISCOVER","floor","Study1","U",3184,"0",3949,"",0,"floor",0
24,"w10045963_lnp",5,"JOL Version A","DISCOVER","floor","Study1","U",2031,"0",19026,"see",0,"floor",0
25,"5f26b501dd983441aaaa41a9",5,"JOL Version A","DISCUSSION","talk","Study1","F",4130,"76",2893,"talk",100,"talk",1
25,"w10036134AN",5,"JOL Version A","DISCUSSION","talk","Study1","F",1821,"20",3495,"",0,"talk",0
25,"w10046977_ajg",5,"JOL Version A","DISCUSSION","talk","Study1","F",3510,"65",2340,"talk",100,"talk",1
25,"5f50efe49dd63f29776ce8d6",5,"JOL Version A","DISCUSSION","talk","Study1","F",3193,"90",3708,"debate",20,"talk",0
25,"5f906d9892b0ac120238830b",5,"JOL Version A","DISCUSSION","talk","Study1","F",5108,"90",6079,"time",25,"talk",0
25,"w10045963_lnp",5,"JOL Version A","DISCUSSION","talk","Study1","F",4462,"30",4247,"talk",100,"talk",1
25,"w995669_AML",5,"JOL Version A","DISCUSSION","talk","Study1","F",3081,"90",7471,"",0,"talk",0
25,"w10006036_mlh",5,"JOL Version A","DISCUSSION","talk","Study1","F",4864,"70",4301,"",0,"talk",0
26,"w10046977_ajg",5,"JOL Version A","DRINK","sip","Study1","B",2763,"55",4105,"sip",100,"sip",1
26,"5f50efe49dd63f29776ce8d6",5,"JOL Version A","DRINK","sip","Study1","B",3297,"100",3054,"sip",100,"sip",1
26,"5f906d9892b0ac120238830b",5,"JOL Version A","DRINK","sip","Study1","B",5379,"40",3292,"water",0,"sip",0
26,"w995669_AML",5,"JOL Version A","DRINK","sip","Study1","B",5882,"65",2840,"",0,"sip",0
26,"5f26b501dd983441aaaa41a9",5,"JOL Version A","DRINK","sip","Study1","B",14035,"48",3656,"",0,"sip",0
26,"w10006036_mlh",5,"JOL Version A","DRINK","sip","Study1","B",6675,"80",2620,"sip",100,"sip",1
26,"w10036134AN",5,"JOL Version A","DRINK","sip","Study1","B",2983,"30",1316,"",0,"sip",0
26,"w10045963_lnp",5,"JOL Version A","DRINK","sip","Study1","B",3222,"60",8641,"beverage",0,"sip",0
27,"5f906d9892b0ac120238830b",5,"JOL Version A","DUE","assignment","Study1","S",3405,"35",2649,"assignment",100,"assignment",1
27,"w10036134AN",5,"JOL Version A","DUE","assignment","Study1","S",1986,"20",1517,"",0,"assignment",0
27,"5f26b501dd983441aaaa41a9",5,"JOL Version A","DUE","assignment","Study1","S",4608,"24",4893,"",0,"assignment",0
27,"w10006036_mlh",5,"JOL Version A","DUE","assignment","Study1","S",3271,"80",4546,"assignments ",95.238095238095,"assignment",1
27,"w10046977_ajg",5,"JOL Version A","DUE","assignment","Study1","S",3224,"100",4199,"assignment",100,"assignment",1
27,"5f50efe49dd63f29776ce8d6",5,"JOL Version A","DUE","assignment","Study1","S",4275,"30",3347,"date",28.571428571429,"assignment",0
27,"w10045963_lnp",5,"JOL Version A","DUE","assignment","Study1","S",3952,"80",8070,"assignment",100,"assignment",1
27,"w995669_AML",5,"JOL Version A","DUE","assignment","Study1","S",5117,"50",3526,"assignment",100,"assignment",1
28,"w10036134AN",5,"JOL Version A","DUMP","waste","Study1","S",1790,"40",1312,"",0,"waste",0
28,"w10045963_lnp",5,"JOL Version A","DUMP","waste","Study1","S",5662,"70",2835,"garbage",33.333333333333,"waste",0
28,"5f26b501dd983441aaaa41a9",5,"JOL Version A","DUMP","waste","Study1","S",8502,"43",10252,"",0,"waste",0
28,"5f50efe49dd63f29776ce8d6",5,"JOL Version A","DUMP","waste","Study1","S",3306,"90",3789,"truck",20,"waste",0
28,"5f906d9892b0ac120238830b",5,"JOL Version A","DUMP","waste","Study1","S",5585,"5",2200,"waste",100,"waste",1
28,"w995669_AML",5,"JOL Version A","DUMP","waste","Study1","S",6261,"0",3203,"rash",44.444444444444,"waste",0
28,"w10046977_ajg",5,"JOL Version A","DUMP","waste","Study1","S",3203,"76",2506,"waste",100,"waste",1
28,"w10006036_mlh",5,"JOL Version A","DUMP","waste","Study1","S",7462,"80",3411,"waste ",100,"waste",1
29,"w10046977_ajg",5,"JOL Version A","EDITOR","news","Study1","F",2356,"88",3872,"news",100,"news",1
29,"5f50efe49dd63f29776ce8d6",5,"JOL Version A","EDITOR","news","Study1","F",3572,"60",3755,"news",100,"news",1
29,"5f906d9892b0ac120238830b",5,"JOL Version A","EDITOR","news","Study1","F",2766,"0",2266,"news",100,"news",1
29,"w995669_AML",5,"JOL Version A","EDITOR","news","Study1","F",4035,"5",2578,"news",100,"news",1
29,"w10006036_mlh",5,"JOL Version A","EDITOR","news","Study1","F",6985,"0",7910,"",0,"news",0
29,"w10036134AN",5,"JOL Version A","EDITOR","news","Study1","F",1947,"20",1195,"",0,"news",0
29,"5f26b501dd983441aaaa41a9",5,"JOL Version A","EDITOR","news","Study1","F",4050,"40",7745,"magazine",33.333333333333,"news",0
29,"w10045963_lnp",5,"JOL Version A","EDITOR","news","Study1","F",4585,"60",1915,"news",100,"news",1
30,"5f26b501dd983441aaaa41a9",5,"JOL Version A","FIRE","blaze","Study1","B",3423,"44",6840,"",0,"blaze",0
30,"5f906d9892b0ac120238830b",5,"JOL Version A","FIRE","blaze","Study1","B",1940,"50",4149,"man",25,"blaze",0
30,"w10036134AN",5,"JOL Version A","FIRE","blaze","Study1","B",1857,"30",1223,"",0,"blaze",0
30,"w10006036_mlh",5,"JOL Version A","FIRE","blaze","Study1","B",6999,"10",7387,"",0,"blaze",0
30,"w10046977_ajg",5,"JOL Version A","FIRE","blaze","Study1","B",5091,"74",3287,"man",25,"blaze",0
30,"5f50efe49dd63f29776ce8d6",5,"JOL Version A","FIRE","blaze","Study1","B",4449,"109",5105,"burn ",22.222222222222,"blaze",0
30,"w10045963_lnp",5,"JOL Version A","FIRE","blaze","Study1","B",3989,"100",7943,"camp",22.222222222222,"blaze",0
30,"w995669_AML",5,"JOL Version A","FIRE","blaze","Study1","B",2706,"90",2499,"",0,"blaze",0
31,"w10036134AN",5,"JOL Version A","FIX","hand","Study1","U",3339,"20",1552,"",0,"hand",0
31,"w10045963_lnp",5,"JOL Version A","FIX","hand","Study1","U",3514,"5",11217,"tool",0,"hand",0
31,"w10046977_ajg",5,"JOL Version A","FIX","hand","Study1","U",4879,"1",2257,"hammer",40,"hand",0
31,"5f50efe49dd63f29776ce8d6",5,"JOL Version A","FIX","hand","Study1","U",2955,"9",3728,"broken",20,"hand",0
31,"5f906d9892b0ac120238830b",5,"JOL Version A","FIX","hand","Study1","U",1407,"0",2491,"broken",20,"hand",0
31,"w995669_AML",5,"JOL Version A","FIX","hand","Study1","U",2189,"0",2365,"",0,"hand",0
31,"w10006036_mlh",5,"JOL Version A","FIX","hand","Study1","U",5076,"0",4572,"",0,"hand",0
31,"5f26b501dd983441aaaa41a9",5,"JOL Version A","FIX","hand","Study1","U",3022,"23",4664,"solve",0,"hand",0
32,"5f906d9892b0ac120238830b",5,"JOL Version A","FULL","enough","Study1","B",3391,"10",1745,"empty",18.181818181818,"enough",0
32,"5f50efe49dd63f29776ce8d6",5,"JOL Version A","FULL","enough","Study1","B",4748,"40",4216,"empty ",18.181818181818,"enough",0
32,"w10006036_mlh",5,"JOL Version A","FULL","enough","Study1","B",4440,"40",3195,"",0,"enough",0
32,"w10036134AN",5,"JOL Version A","FULL","enough","Study1","B",2610,"30",5506,"enough",100,"enough",1
32,"w10046977_ajg",5,"JOL Version A","FULL","enough","Study1","B",4923,"67",3936,"stuffed",15.384615384615,"enough",0
32,"5f26b501dd983441aaaa41a9",5,"JOL Version A","FULL","enough","Study1","B",9081,"18",8986,"",0,"enough",0
32,"w10045963_lnp",5,"JOL Version A","FULL","enough","Study1","B",3547,"45",3505,"enough",100,"enough",1
32,"w995669_AML",5,"JOL Version A","FULL","enough","Study1","B",1983,"0",3065,"",0,"enough",0
33,"w10036134AN",5,"JOL Version A","GEOLOGY","rock","Study1","F",2219,"10",1523,"",0,"rock",0
33,"5f906d9892b0ac120238830b",5,"JOL Version A","GEOLOGY","rock","Study1","F",4273,"50",1538,"rock",100,"rock",1
33,"5f26b501dd983441aaaa41a9",5,"JOL Version A","GEOLOGY","rock","Study1","F",3897,"80",3853,"rocks",88.888888888889,"rock",1
33,"w10006036_mlh",5,"JOL Version A","GEOLOGY","rock","Study1","F",6411,"30",5152,"rocks",88.888888888889,"rock",1
33,"w10046977_ajg",5,"JOL Version A","GEOLOGY","rock","Study1","F",4082,"0",3886,"rock",100,"rock",1
33,"w10045963_lnp",5,"JOL Version A","GEOLOGY","rock","Study1","F",5474,"40",1532,"rocks",88.888888888889,"rock",1
33,"w995669_AML",5,"JOL Version A","GEOLOGY","rock","Study1","F",3688,"100",2315,"rock",100,"rock",1
33,"5f50efe49dd63f29776ce8d6",5,"JOL Version A","GEOLOGY","rock","Study1","F",4190,"100",6277,"rock",100,"rock",1
34,"w10036134AN",5,"JOL Version A","GREAT","fantastic","Study1","B",2968,"50",2050,"",0,"fantastic",0
34,"5f906d9892b0ac120238830b",5,"JOL Version A","GREAT","fantastic","Study1","B",3135,"40",4153,"fantastic",100,"fantastic",1
34,"w10045963_lnp",5,"JOL Version A","GREAT","fantastic","Study1","B",4081,"70",2398,"fantastic",100,"fantastic",1
34,"5f26b501dd983441aaaa41a9",5,"JOL Version A","GREAT","fantastic","Study1","B",4522,"76",6438,"good",0,"fantastic",0
34,"w10006036_mlh",5,"JOL Version A","GREAT","fantastic","Study1","B",5262,"100",9303,"fantastic ",100,"fantastic",1
34,"w995669_AML",5,"JOL Version A","GREAT","fantastic","Study1","B",6444,"60",2633,"",0,"fantastic",0
34,"w10046977_ajg",5,"JOL Version A","GREAT","fantastic","Study1","B",3251,"45",8161,"happy",14.285714285714,"fantastic",0
34,"5f50efe49dd63f29776ce8d6",5,"JOL Version A","GREAT","fantastic","Study1","B",3863,"100",4759,"good",0,"fantastic",0
35,"5f50efe49dd63f29776ce8d6",5,"JOL Version A","GRILL","bar","Study1","S",2863,"0",3230,"bake",57.142857142857,"bar",1
35,"w10006036_mlh",5,"JOL Version A","GRILL","bar","Study1","S",6433,"70",4691,"bar ",100,"bar",1
35,"w10036134AN",5,"JOL Version A","GRILL","bar","Study1","S",2940,"20",1767,"",0,"bar",0
35,"w10046977_ajg",5,"JOL Version A","GRILL","bar","Study1","S",9101,"75",3889,"outside",0,"bar",0
35,"5f906d9892b0ac120238830b",5,"JOL Version A","GRILL","bar","Study1","S",1811,NA,1332,"bar",100,"bar",1
35,"w10045963_lnp",5,"JOL Version A","GRILL","bar","Study1","S",3633,"70",6999,"hot",0,"bar",0
35,"w995669_AML",5,"JOL Version A","GRILL","bar","Study1","S",5367,"70",3268,"bar",100,"bar",1
35,"5f26b501dd983441aaaa41a9",5,"JOL Version A","GRILL","bar","Study1","S",6689,"51",14862,"",0,"bar",0
36,"w10036134AN",5,"JOL Version A","HAPPY","car","Study1","U",2618,"10",1233,"",0,"car",0
36,"w10046977_ajg",5,"JOL Version A","HAPPY","car","Study1","U",2541,"34",5933,"great",25,"car",0
36,"5f906d9892b0ac120238830b",5,"JOL Version A","HAPPY","car","Study1","U",1878,"0",2156,"sad",33.333333333333,"car",1
36,"w10045963_lnp",5,"JOL Version A","HAPPY","car","Study1","U",2250,"0",4776,"glad",28.571428571429,"car",0
36,"w10006036_mlh",5,"JOL Version A","HAPPY","car","Study1","U",3538,"0",4301,"",0,"car",0
36,"5f50efe49dd63f29776ce8d6",5,"JOL Version A","HAPPY","car","Study1","U",3622,"10",2644,"sad",33.333333333333,"car",1
36,"5f26b501dd983441aaaa41a9",5,"JOL Version A","HAPPY","car","Study1","U",3210,"11",15504,"smile",0,"car",0
36,"w995669_AML",5,"JOL Version A","HAPPY","car","Study1","U",3124,"0",3025,"",0,"car",0
37,"w10036134AN",5,"JOL Version A","HEIGHT","growth","Study1","B",3607,"30",1153,"",0,"growth",0
37,"w10045963_lnp",5,"JOL Version A","HEIGHT","growth","Study1","B",4999,"85",3260,"growth",100,"growth",1
37,"w10046977_ajg",5,"JOL Version A","HEIGHT","growth","Study1","B",7836,"63",4927,"length",50,"growth",0
37,"5f906d9892b0ac120238830b",5,"JOL Version A","HEIGHT","growth","Study1","B",3124,"25",1998,"growth",100,"growth",1
37,"5f50efe49dd63f29776ce8d6",5,"JOL Version A","HEIGHT","growth","Study1","B",3407,"70",3515,"inches",16.666666666667,"growth",0
37,"w995669_AML",5,"JOL Version A","HEIGHT","growth","Study1","B",7574,"40",3538,"growth",100,"growth",1
37,"w10006036_mlh",5,"JOL Version A","HEIGHT","growth","Study1","B",3683,"90",2969,"growth ",100,"growth",1
37,"5f26b501dd983441aaaa41a9",5,"JOL Version A","HEIGHT","growth","Study1","B",5124,"37",4658,"growth",100,"growth",1
38,"w10045963_lnp",5,"JOL Version A","HERD","cow","Study1","F",4576,"75",2449,"cow",100,"cow",1
38,"w10006036_mlh",5,"JOL Version A","HERD","cow","Study1","F",4455,"70",2819,"cow",100,"cow",1
38,"w10036134AN",5,"JOL Version A","HERD","cow","Study1","F",1684,"20",1378,"",0,"cow",0
38,"w10046977_ajg",5,"JOL Version A","HERD","cow","Study1","F",3855,"100",1763,"cow",100,"cow",1
38,"5f906d9892b0ac120238830b",5,"JOL Version A","HERD","cow","Study1","F",4759,"30",1310,"cow",100,"cow",1
38,"5f50efe49dd63f29776ce8d6",5,"JOL Version A","HERD","cow","Study1","F",4010,"90",2874,"cow",100,"cow",1
38,"5f26b501dd983441aaaa41a9",5,"JOL Version A","HERD","cow","Study1","F",5322,"76",4571,"cow",100,"cow",1
38,"w995669_AML",5,"JOL Version A","HERD","cow","Study1","F",5743,"80",1864,"cow",100,"cow",1
39,"w10046977_ajg",5,"JOL Version A","HIDE","sick","Study1","U",2856,"2",2333,"scare",44.444444444444,"sick",0
39,"w10045963_lnp",5,"JOL Version A","HIDE","sick","Study1","U",1851,"0",2327,"scared",40,"sick",0
39,"5f50efe49dd63f29776ce8d6",5,"JOL Version A","HIDE","sick","Study1","U",3140,"0",2787,"seek",50,"sick",1
39,"w10006036_mlh",5,"JOL Version A","HIDE","sick","Study1","U",6217,"0",4293,"sick",100,"sick",1
39,"w995669_AML",5,"JOL Version A","HIDE","sick","Study1","U",2651,"0",4792,"",0,"sick",0
39,"5f26b501dd983441aaaa41a9",5,"JOL Version A","HIDE","sick","Study1","U",18164,"26",7218,"",0,"sick",0
39,"w10036134AN",5,"JOL Version A","HIDE","sick","Study1","U",7232,"10",6194,"scar",50,"sick",0
39,"5f906d9892b0ac120238830b",5,"JOL Version A","HIDE","sick","Study1","U",4045,"0",1818,"seek",50,"sick",1
40,"w10036134AN",5,"JOL Version A","HONEY","bee","Study1","S",3409,"100",4034,"bee",100,"bee",1
40,"w10046977_ajg",5,"JOL Version A","HONEY","bee","Study1","S",2392,"100",3333,"sweet",50,"bee",0
40,"w10045963_lnp",5,"JOL Version A","HONEY","bee","Study1","S",4322,"95",5859,"bee",100,"bee",1
40,"5f906d9892b0ac120238830b",5,"JOL Version A","HONEY","bee","Study1","S",2324,"80",1225,"bee",100,"bee",1
40,"5f50efe49dd63f29776ce8d6",5,"JOL Version A","HONEY","bee","Study1","S",6964,"100",2577,"bee",100,"bee",1
40,"w10006036_mlh",5,"JOL Version A","HONEY","bee","Study1","S",3281,"100",2526,"bee",100,"bee",1
40,"5f26b501dd983441aaaa41a9",5,"JOL Version A","HONEY","bee","Study1","S",11523,"58",2950,"bee",100,"bee",1
40,"w995669_AML",5,"JOL Version A","HONEY","bee","Study1","S",2188,"100",1857,"bee",100,"bee",1
41,"5f26b501dd983441aaaa41a9",5,"JOL Version A","HORNET","sting","Study1","F",13215,"50",6221,"sting",100,"sting",1
41,"w10036134AN",5,"JOL Version A","HORNET","sting","Study1","F",2235,"20",7719,"bee",0,"sting",0
41,"5f50efe49dd63f29776ce8d6",5,"JOL Version A","HORNET","sting","Study1","F",5861,"95",7290,"sting",100,"sting",1
41,"w995669_AML",5,"JOL Version A","HORNET","sting","Study1","F",4575,"70",5226,"sting",100,"sting",1
41,"w10045963_lnp",5,"JOL Version A","HORNET","sting","Study1","F",5385,"30",7568,"sting",100,"sting",1
41,"5f906d9892b0ac120238830b",5,"JOL Version A","HORNET","sting","Study1","F",2453,"20",2125,"sting",100,"sting",1
41,"w10046977_ajg",5,"JOL Version A","HORNET","sting","Study1","F",3019,"88",3501,"sting",100,"sting",1
41,"w10006036_mlh",5,"JOL Version A","HORNET","sting","Study1","F",4870,"10",6224,"wasp ",22.222222222222,"sting",0
42,"5f26b501dd983441aaaa41a9",5,"JOL Version A","HOT","chili","Study1","B",9342,"45",9250,"",0,"chili",0
42,"w10045963_lnp",5,"JOL Version A","HOT","chili","Study1","B",3741,"40",16389,"dog",0,"chili",0
42,"w10046977_ajg",5,"JOL Version A","HOT","chili","Study1","B",6347,"42",4051,"outside",16.666666666667,"chili",0
42,"w10036134AN",5,"JOL Version A","HOT","chili","Study1","B",2740,"30",1501,"",0,"chili",0
42,"w995669_AML",5,"JOL Version A","HOT","chili","Study1","B",2680,"0",2633,"chili",100,"chili",1
42,"w10006036_mlh",5,"JOL Version A","HOT","chili","Study1","B",5375,"20",16140,"chilly",72.727272727273,"chili",1
42,"5f906d9892b0ac120238830b",5,"JOL Version A","HOT","chili","Study1","B",1896,"0",1898,"chili",100,"chili",1
42,"5f50efe49dd63f29776ce8d6",5,"JOL Version A","HOT","chili","Study1","B",3431,"98",3961,"cold",44.444444444444,"chili",0
43,"5f26b501dd983441aaaa41a9",5,"JOL Version A","HUNGER","famine","Study1","B",9122,"62",6608,"famine",100,"famine",1
43,"5f50efe49dd63f29776ce8d6",5,"JOL Version A","HUNGER","famine","Study1","B",2936,"100",4943,"food",20,"famine",0
43,"w10045963_lnp",5,"JOL Version A","HUNGER","famine","Study1","B",4052,"100",4026,"famished",71.428571428571,"famine",0
43,"w995669_AML",5,"JOL Version A","HUNGER","famine","Study1","B",3276,"10",2846,"",0,"famine",0
43,"w10006036_mlh",5,"JOL Version A","HUNGER","famine","Study1","B",5765,"70",6017,"famine ",100,"famine",1
43,"w10036134AN",5,"JOL Version A","HUNGER","famine","Study1","B",2086,"30",23779,"famine",100,"famine",1
43,"w10046977_ajg",5,"JOL Version A","HUNGER","famine","Study1","B",8131,"100",4250,"famine",100,"famine",1
43,"5f906d9892b0ac120238830b",5,"JOL Version A","HUNGER","famine","Study1","B",2923,"50",2411,"famine",100,"famine",1
44,"w995669_AML",5,"JOL Version A","HYGIENE","clean","Study1","F",7205,"90",12940,"shower",18.181818181818,"clean",0
44,"5f26b501dd983441aaaa41a9",5,"JOL Version A","HYGIENE","clean","Study1","F",9826,"32",5727,"clean",100,"clean",1
44,"w10045963_lnp",5,"JOL Version A","HYGIENE","clean","Study1","F",2411,"80",2171,"clean",100,"clean",1
44,"w10036134AN",5,"JOL Version A","HYGIENE","clean","Study1","F",4168,"50",8032,"clean",100,"clean",1
44,"w10046977_ajg",5,"JOL Version A","HYGIENE","clean","Study1","F",2386,"100",2559,"clean",100,"clean",1
44,"w10006036_mlh",5,"JOL Version A","HYGIENE","clean","Study1","F",4690,"80",3918,"",0,"clean",0
44,"5f50efe49dd63f29776ce8d6",5,"JOL Version A","HYGIENE","clean","Study1","F",3109,"100",3219,"clean",100,"clean",1
44,"5f906d9892b0ac120238830b",5,"JOL Version A","HYGIENE","clean","Study1","F",3049,"50",4956,"clean",100,"clean",1
45,"5f50efe49dd63f29776ce8d6",5,"JOL Version A","KEY","latch","Study1","B",3485,"90",3355,"pass",22.222222222222,"latch",0
45,"w10006036_mlh",5,"JOL Version A","KEY","latch","Study1","B",3900,"10",2896,"latch ",100,"latch",1
45,"5f26b501dd983441aaaa41a9",5,"JOL Version A","KEY","latch","Study1","B",3729,"20",4501,"",0,"latch",0
45,"w10036134AN",5,"JOL Version A","KEY","latch","Study1","B",1656,"20",6795,"latch",100,"latch",1
45,"w10046977_ajg",5,"JOL Version A","KEY","latch","Study1","B",3628,"15",3535,"latch",100,"latch",1
45,"w995669_AML",5,"JOL Version A","KEY","latch","Study1","B",1720,"0",4504,"lock",44.444444444444,"latch",0
45,"5f906d9892b0ac120238830b",5,"JOL Version A","KEY","latch","Study1","B",3214,"0",1890,"latch",100,"latch",1
45,"w10045963_lnp",5,"JOL Version A","KEY","latch","Study1","B",6302,"40",2758,"latch",100,"latch",1
46,"5f26b501dd983441aaaa41a9",5,"JOL Version A","KIDNEY","liver","Study1","S",7743,"30",3804,"liver",100,"liver",1
46,"w995669_AML",5,"JOL Version A","KIDNEY","liver","Study1","S",3639,"0",2570,"liver",100,"liver",1
46,"w10046977_ajg",5,"JOL Version A","KIDNEY","liver","Study1","S",2649,"50",2115,"liver",100,"liver",1
46,"w10045963_lnp",5,"JOL Version A","KIDNEY","liver","Study1","S",2968,"10",2442,"liver",100,"liver",1
46,"5f50efe49dd63f29776ce8d6",5,"JOL Version A","KIDNEY","liver","Study1","S",4112,"50",3574,"licer",80,"liver",1
46,"w10006036_mlh",5,"JOL Version A","KIDNEY","liver","Study1","S",3216,"40",2937,"liver ",100,"liver",1
46,"w10036134AN",5,"JOL Version A","KIDNEY","liver","Study1","S",3071,"20",3864,"",0,"liver",0
46,"5f906d9892b0ac120238830b",5,"JOL Version A","KIDNEY","liver","Study1","S",2555,"10",1661,"liver",100,"liver",1
47,"5f26b501dd983441aaaa41a9",5,"JOL Version A","KING","vase","Study1","U",9581,"15",12982,"queen",22.222222222222,"vase",0
47,"w10046977_ajg",5,"JOL Version A","KING","vase","Study1","U",3846,"43",3843,"queen",22.222222222222,"vase",0
47,"w995669_AML",5,"JOL Version A","KING","vase","Study1","U",2269,"0",2607,"",0,"vase",0
47,"5f906d9892b0ac120238830b",5,"JOL Version A","KING","vase","Study1","U",1110,"0",2042,"queen",22.222222222222,"vase",0
47,"w10006036_mlh",5,"JOL Version A","KING","vase","Study1","U",2525,"0",3474,"",0,"vase",0
47,"w10036134AN",5,"JOL Version A","KING","vase","Study1","U",50941,"20",1766,"",0,"vase",0
47,"w10045963_lnp",5,"JOL Version A","KING","vase","Study1","U",2168,"0",8685,"throne",20,"vase",0
47,"5f50efe49dd63f29776ce8d6",5,"JOL Version A","KING","vase","Study1","U",2702,"0",3345,"queen",22.222222222222,"vase",0
48,"5f26b501dd983441aaaa41a9",5,"JOL Version A","LAW","attorney","Study1","B",5672,"44",4461,"attorney",100,"attorney",1
48,"w10006036_mlh",5,"JOL Version A","LAW","attorney","Study1","B",5089,"30",14868,"attorney ",100,"attorney",1
48,"5f906d9892b0ac120238830b",5,"JOL Version A","LAW","attorney","Study1","B",2220,"0",2226,"attorney",100,"attorney",1
48,"w995669_AML",5,"JOL Version A","LAW","attorney","Study1","B",2440,"80",5628,"order",46.153846153846,"attorney",0
48,"w10045963_lnp",5,"JOL Version A","LAW","attorney","Study1","B",3551,"80",3575,"attorney",100,"attorney",1
48,"5f50efe49dd63f29776ce8d6",5,"JOL Version A","LAW","attorney","Study1","B",3751,"100",4204,"study",30.769230769231,"attorney",0
48,"w10036134AN",5,"JOL Version A","LAW","attorney","Study1","B",2048,"20",6683,"jury",33.333333333333,"attorney",0
48,"w10046977_ajg",5,"JOL Version A","LAW","attorney","Study1","B",2499,"45",3641,"attorney",100,"attorney",1
49,"w10006036_mlh",5,"JOL Version A","LETTUCE","salad","Study1","S",8332,"80",2876,"salad ",100,"salad",1
49,"w10036134AN",5,"JOL Version A","LETTUCE","salad","Study1","S",3112,"20",4533,"salad",100,"salad",1
49,"5f50efe49dd63f29776ce8d6",5,"JOL Version A","LETTUCE","salad","Study1","S",3181,"90",3161,"salad",100,"salad",1
49,"5f26b501dd983441aaaa41a9",5,"JOL Version A","LETTUCE","salad","Study1","S",4002,"33",9508,"",0,"salad",0
49,"w10045963_lnp",5,"JOL Version A","LETTUCE","salad","Study1","S",4191,"50",1850,"salad",100,"salad",1
49,"w995669_AML",5,"JOL Version A","LETTUCE","salad","Study1","S",3979,"100",4645,"salad",100,"salad",1
49,"5f906d9892b0ac120238830b",5,"JOL Version A","LETTUCE","salad","Study1","S",3670,"30",2179,"slug",44.444444444444,"salad",0
49,"w10046977_ajg",5,"JOL Version A","LETTUCE","salad","Study1","S",2542,"100",2320,"salad",100,"salad",1
50,"w10036134AN",5,"JOL Version A","LIFT","woman","Study1","U",2073,"10",1434,"",0,"woman",0
50,"5f26b501dd983441aaaa41a9",5,"JOL Version A","LIFT","woman","Study1","U",3927,"16",8066,"woman",100,"woman",1
50,"w10045963_lnp",5,"JOL Version A","LIFT","woman","Study1","U",2497,"0",13342,"heavy",20,"woman",0
50,"w10046977_ajg",5,"JOL Version A","LIFT","woman","Study1","U",2885,"10",5374,"scare",20,"woman",0
50,"w10006036_mlh",5,"JOL Version A","LIFT","woman","Study1","U",2335,"0",2812,"women",80,"woman",1
50,"5f50efe49dd63f29776ce8d6",5,"JOL Version A","LIFT","woman","Study1","U",3083,"0",3301,"drop",22.222222222222,"woman",0
50,"5f906d9892b0ac120238830b",5,"JOL Version A","LIFT","woman","Study1","U",2447,"0",3285,"up",0,"woman",0
50,"w995669_AML",5,"JOL Version A","LIFT","woman","Study1","U",2396,"0",1879,"",0,"woman",0
51,"5f26b501dd983441aaaa41a9",5,"JOL Version A","LOCATION","site","Study1","S",5534,"51",5013,"",0,"site",0
51,"5f906d9892b0ac120238830b",5,"JOL Version A","LOCATION","site","Study1","S",3796,"35",3904,"place",22.222222222222,"site",0
51,"w10006036_mlh",5,"JOL Version A","LOCATION","site","Study1","S",74917,"80",3045,"site",100,"site",1
51,"w10036134AN",5,"JOL Version A","LOCATION","site","Study1","S",3263,"20",1266,"",0,"site",0
51,"5f50efe49dd63f29776ce8d6",5,"JOL Version A","LOCATION","site","Study1","S",3282,"100",5364,"map",0,"site",0
51,"w10045963_lnp",5,"JOL Version A","LOCATION","site","Study1","S",10195,"30",5340,"destination",13.333333333333,"site",0
51,"w10046977_ajg",5,"JOL Version A","LOCATION","site","Study1","S",4814,"78",1865,"site",100,"site",1
51,"w995669_AML",5,"JOL Version A","LOCATION","site","Study1","S",6339,"90",11820,"destination",13.333333333333,"site",0
52,"5f26b501dd983441aaaa41a9",5,"JOL Version A","MACHINE","position","Study1","U",9832,"9",2868,"",0,"position",0
52,"w10006036_mlh",5,"JOL Version A","MACHINE","position","Study1","U",2906,"0",6074,"position ",100,"position",1
52,"5f50efe49dd63f29776ce8d6",5,"JOL Version A","MACHINE","position","Study1","U",2944,"0",5502,"learning",12.5,"position",0
52,"5f906d9892b0ac120238830b",5,"JOL Version A","MACHINE","position","Study1","U",1693,"0",3972,"work",16.666666666667,"position",0
52,"w10036134AN",5,"JOL Version A","MACHINE","position","Study1","U",2070,"10",1156,"",0,"position",0
52,"w10046977_ajg",5,"JOL Version A","MACHINE","position","Study1","U",8502,"33",8903,"sight",46.153846153846,"position",0
52,"w995669_AML",5,"JOL Version A","MACHINE","position","Study1","U",4438,"0",2311,"",0,"position",0
52,"w10045963_lnp",5,"JOL Version A","MACHINE","position","Study1","U",4207,"0",7561,"play",16.666666666667,"position",0
53,"w10006036_mlh",5,"JOL Version A","MATH","division","Study1","B",4959,"40",28457,"division",100,"division",1
53,"5f26b501dd983441aaaa41a9",5,"JOL Version A","MATH","division","Study1","B",4637,"43",4943,"division",100,"division",1
53,"w10046977_ajg",5,"JOL Version A","MATH","division","Study1","B",3503,"100",2895,"problem",13.333333333333,"division",0
53,"5f50efe49dd63f29776ce8d6",5,"JOL Version A","MATH","division","Study1","B",3559,"80",4416,"number",14.285714285714,"division",0
53,"5f906d9892b0ac120238830b",5,"JOL Version A","MATH","division","Study1","B",5207,"20",2930,"division",100,"division",1
53,"w10036134AN",5,"JOL Version A","MATH","division","Study1","B",1893,"30",1766,"",0,"division",0
53,"w10045963_lnp",5,"JOL Version A","MATH","division","Study1","B",4468,"90",2363,"division",100,"division",1
53,"w995669_AML",5,"JOL Version A","MATH","division","Study1","B",3099,"80",3664,"division",100,"division",1
54,"w10046977_ajg",5,"JOL Version A","MEANING","definition","Study1","S",3395,"88",9404,"definition",100,"definition",1
54,"5f50efe49dd63f29776ce8d6",5,"JOL Version A","MEANING","definition","Study1","S",3096,"100",4163,"definition ",100,"definition",1
54,"5f26b501dd983441aaaa41a9",5,"JOL Version A","MEANING","definition","Study1","S",4651,"23",5599,"definition",100,"definition",1
54,"w10045963_lnp",5,"JOL Version A","MEANING","definition","Study1","S",2925,"95",2395,"definition",100,"definition",1
54,"w10006036_mlh",5,"JOL Version A","MEANING","definition","Study1","S",4861,"100",4543,"definition ",100,"definition",1
54,"w10036134AN",5,"JOL Version A","MEANING","definition","Study1","S",4696,"30",3483,"",0,"definition",0
54,"w995669_AML",5,"JOL Version A","MEANING","definition","Study1","S",4602,"95",6064,"definition",100,"definition",1
54,"5f906d9892b0ac120238830b",5,"JOL Version A","MEANING","definition","Study1","S",4013,"50",3308,"definition",100,"definition",1
55,"w10036134AN",5,"JOL Version A","NUMBER","amount","Study1","S",1838,"20",4612,"",0,"amount",0
55,"w10045963_lnp",5,"JOL Version A","NUMBER","amount","Study1","S",4756,"75",7618,"phone",36.363636363636,"amount",0
55,"w10006036_mlh",5,"JOL Version A","NUMBER","amount","Study1","S",4277,"40",3573,"",0,"amount",0
55,"5f26b501dd983441aaaa41a9",5,"JOL Version A","NUMBER","amount","Study1","S",6422,"34",5725,"",0,"amount",0
55,"w995669_AML",5,"JOL Version A","NUMBER","amount","Study1","S",3284,"90",3041,"",0,"amount",0
55,"w10046977_ajg",5,"JOL Version A","NUMBER","amount","Study1","S",3732,"17",2717,"amount",100,"amount",1
55,"5f50efe49dd63f29776ce8d6",5,"JOL Version A","NUMBER","amount","Study1","S",5121,"90",10101,"letter",16.666666666667,"amount",0
55,"5f906d9892b0ac120238830b",5,"JOL Version A","NUMBER","amount","Study1","S",2968,"15",5334,"division",28.571428571429,"amount",0
56,"w10006036_mlh",5,"JOL Version A","ORCHID","flower","Study1","F",3975,"30",3165,"flower ",100,"flower",1
56,"5f26b501dd983441aaaa41a9",5,"JOL Version A","ORCHID","flower","Study1","F",4363,"89",3952,"flower",100,"flower",1
56,"w10046977_ajg",5,"JOL Version A","ORCHID","flower","Study1","F",2137,"78",2228,"flower",100,"flower",1
56,"5f50efe49dd63f29776ce8d6",5,"JOL Version A","ORCHID","flower","Study1","F",3287,"100",4357,"plant ",18.181818181818,"flower",0
56,"5f906d9892b0ac120238830b",5,"JOL Version A","ORCHID","flower","Study1","F",4041,"20",1957,"flower",100,"flower",1
56,"w10036134AN",5,"JOL Version A","ORCHID","flower","Study1","F",1596,"10",4575,"flower",100,"flower",1
56,"w10045963_lnp",5,"JOL Version A","ORCHID","flower","Study1","F",9733,"90",1647,"flower",100,"flower",1
56,"w995669_AML",5,"JOL Version A","ORCHID","flower","Study1","F",1912,"80",2852,"flower",100,"flower",1
57,"w10036134AN",5,"JOL Version A","PARK","hungry","Study1","U",4503,"10",1420,"",0,"hungry",0
57,"w10046977_ajg",5,"JOL Version A","PARK","hungry","Study1","U",5910,"3",3081,"hungry",100,"hungry",1
57,"5f26b501dd983441aaaa41a9",5,"JOL Version A","PARK","hungry","Study1","U",3824,"8",9624,"",0,"hungry",0
57,"w10045963_lnp",5,"JOL Version A","PARK","hungry","Study1","U",2917,"0",9919,"eat",0,"hungry",0
57,"5f50efe49dd63f29776ce8d6",5,"JOL Version A","PARK","hungry","Study1","U",3132,"0",10419,"swing ",36.363636363636,"hungry",0
57,"w10006036_mlh",5,"JOL Version A","PARK","hungry","Study1","U",3668,"0",9651,"hungry ",100,"hungry",1
57,"w995669_AML",5,"JOL Version A","PARK","hungry","Study1","U",6280,"0",2634,"",0,"hungry",0
57,"5f906d9892b0ac120238830b",5,"JOL Version A","PARK","hungry","Study1","U",1618,"0",2928,"outside",15.384615384615,"hungry",0
58,"5f26b501dd983441aaaa41a9",5,"JOL Version A","PAST","future","Study1","S",4222,NA,5887,"present",30.769230769231,"future",0
58,"5f906d9892b0ac120238830b",5,"JOL Version A","PAST","future","Study1","S",2775,"30",2076,"present",30.769230769231,"future",0
58,"w10036134AN",5,"JOL Version A","PAST","future","Study1","S",3963,"10",5083,"future",100,"future",1
58,"w10006036_mlh",5,"JOL Version A","PAST","future","Study1","S",5438,"90",3301,"future ",100,"future",1
58,"w995669_AML",5,"JOL Version A","PAST","future","Study1","S",5638,"75",3604,"future",100,"future",1
58,"w10045963_lnp",5,"JOL Version A","PAST","future","Study1","S",2691,"100",1641,"future",100,"future",1
58,"w10046977_ajg",5,"JOL Version A","PAST","future","Study1","S",7721,"100",2418,"future",100,"future",1
58,"5f50efe49dd63f29776ce8d6",5,"JOL Version A","PAST","future","Study1","S",3226,"100",4099,"present",30.769230769231,"future",0
59,"5f50efe49dd63f29776ce8d6",5,"JOL Version A","PAW","dog","Study1","F",1118,NA,3387,"print",0,"dog",0
59,"w10006036_mlh",5,"JOL Version A","PAW","dog","Study1","F",6170,"70",2277,"dog",100,"dog",1
59,"5f26b501dd983441aaaa41a9",5,"JOL Version A","PAW","dog","Study1","F",11814,"43",3662,"dog",100,"dog",1
59,"w10046977_ajg",5,"JOL Version A","PAW","dog","Study1","F",3617,"50",2138,"dog",100,"dog",1
59,"5f906d9892b0ac120238830b",5,"JOL Version A","PAW","dog","Study1","F",3947,"40",2462,"dog",100,"dog",1
59,"w10036134AN",5,"JOL Version A","PAW","dog","Study1","F",1860,"30",4339,"dog",100,"dog",1
59,"w10045963_lnp",5,"JOL Version A","PAW","dog","Study1","F",4095,"30",2692,"dog",100,"dog",1
59,"w995669_AML",5,"JOL Version A","PAW","dog","Study1","F",4088,"80",2121,"dog",100,"dog",1
60,"w10036134AN",5,"JOL Version A","PLANE","pilot","Study1","B",2425,"50",4866,"",0,"pilot",0
60,"w10045963_lnp",5,"JOL Version A","PLANE","pilot","Study1","B",3442,"95",2047,"pilot",100,"pilot",1
60,"w10046977_ajg",5,"JOL Version A","PLANE","pilot","Study1","B",3183,"99",2622,"pilot",100,"pilot",1
60,"5f26b501dd983441aaaa41a9",5,"JOL Version A","PLANE","pilot","Study1","B",28944,"59",4973,"pilot",100,"pilot",1
60,"w995669_AML",5,"JOL Version A","PLANE","pilot","Study1","B",8343,"25",8863,"pilot",100,"pilot",1
60,"5f50efe49dd63f29776ce8d6",5,"JOL Version A","PLANE","pilot","Study1","B",4995,"100",3335,"air",25,"pilot",0
60,"w10006036_mlh",5,"JOL Version A","PLANE","pilot","Study1","B",2435,"80",4167,"pilot ",100,"pilot",1
60,"5f906d9892b0ac120238830b",5,"JOL Version A","PLANE","pilot","Study1","B",3139,"80",2926,"pilot",100,"pilot",1
61,"5f906d9892b0ac120238830b",5,"JOL Version A","POP","soda","Study1","S",3397,"10",2201,"soda",100,"soda",1
61,"5f26b501dd983441aaaa41a9",5,"JOL Version A","POP","soda","Study1","S",6704,"24",7745,"soda",100,"soda",1
61,"w995669_AML",5,"JOL Version A","POP","soda","Study1","S",4328,"75",2086,"soda",100,"soda",1
61,"w10036134AN",5,"JOL Version A","POP","soda","Study1","S",1555,"30",6257,"soda",100,"soda",1
61,"w10006036_mlh",5,"JOL Version A","POP","soda","Study1","S",4810,"20",3458,"soda",100,"soda",1
61,"w10045963_lnp",5,"JOL Version A","POP","soda","Study1","S",3930,"90",1294,"soda",100,"soda",1
61,"w10046977_ajg",5,"JOL Version A","POP","soda","Study1","S",3967,"91",2101,"k",0,"soda",0
61,"5f50efe49dd63f29776ce8d6",5,"JOL Version A","POP","soda","Study1","S",3111,"90",4632,"soda",100,"soda",1
62,"w10006036_mlh",5,"JOL Version A","PUSHER","clutter","Study1","U",262792,"0",7204,"",0,"clutter",0
62,"5f50efe49dd63f29776ce8d6",5,"JOL Version A","PUSHER","clutter","Study1","U",2974,"0",3967,"pull",18.181818181818,"clutter",0
62,"5f906d9892b0ac120238830b",5,"JOL Version A","PUSHER","clutter","Study1","U",2434,"5",4117,"puller",46.153846153846,"clutter",0
62,"5f26b501dd983441aaaa41a9",5,"JOL Version A","PUSHER","clutter","Study1","U",6114,"6",3643,"",0,"clutter",0
62,"w10046977_ajg",5,"JOL Version A","PUSHER","clutter","Study1","U",5175,"2",6274,"stuffer",42.857142857143,"clutter",0
62,"w10036134AN",5,"JOL Version A","PUSHER","clutter","Study1","U",1639,"20",1036,"",0,"clutter",0
62,"w10045963_lnp",5,"JOL Version A","PUSHER","clutter","Study1","U",3479,"0",11262,"puller",46.153846153846,"clutter",0
62,"w995669_AML",5,"JOL Version A","PUSHER","clutter","Study1","U",3015,"0",1579,"",0,"clutter",0
63,"w10046977_ajg",5,"JOL Version A","REVOLUTION","war","Study1","F",2902,"60",2229,"war",100,"war",1
63,"5f50efe49dd63f29776ce8d6",5,"JOL Version A","REVOLUTION","war","Study1","F",3899,"40",2960,"war",100,"war",1
63,"w10045963_lnp",5,"JOL Version A","REVOLUTION","war","Study1","F",4823,"60",1679,"war",100,"war",1
63,"5f26b501dd983441aaaa41a9",5,"JOL Version A","REVOLUTION","war","Study1","F",11005,"21",2766,"war",100,"war",1
63,"w995669_AML",5,"JOL Version A","REVOLUTION","war","Study1","F",3860,"80",2084,"war",100,"war",1
63,"5f906d9892b0ac120238830b",5,"JOL Version A","REVOLUTION","war","Study1","F",2866,"10",1823,"war",100,"war",1
63,"w10006036_mlh",5,"JOL Version A","REVOLUTION","war","Study1","F",6705,"90",2272,"",0,"war",0
63,"w10036134AN",5,"JOL Version A","REVOLUTION","war","Study1","F",1632,"10",3668,"war",100,"war",1
64,"5f906d9892b0ac120238830b",5,"JOL Version A","ROOT","plant","Study1","F",3373,"40",1535,"plant",100,"plant",1
64,"w10045963_lnp",5,"JOL Version A","ROOT","plant","Study1","F",2648,"100",4453,"plant",100,"plant",1
64,"5f26b501dd983441aaaa41a9",5,"JOL Version A","ROOT","plant","Study1","F",5436,"75",2299,"tree",22.222222222222,"plant",0
64,"w995669_AML",5,"JOL Version A","ROOT","plant","Study1","F",5793,"85",4935,"plant",100,"plant",1
64,"w10036134AN",5,"JOL Version A","ROOT","plant","Study1","F",14933,"20",1589,"",0,"plant",0
64,"w10006036_mlh",5,"JOL Version A","ROOT","plant","Study1","F",78296,"70",2922,"tree ",22.222222222222,"plant",0
64,"w10046977_ajg",5,"JOL Version A","ROOT","plant","Study1","F",4619,"61",2190,"plant",100,"plant",1
64,"5f50efe49dd63f29776ce8d6",5,"JOL Version A","ROOT","plant","Study1","F",3277,"90",3776,"plant ",100,"plant",1
65,"5f26b501dd983441aaaa41a9",5,"JOL Version A","SENTENCE","word","Study1","B",5465,"32",6075,"word",100,"word",1
65,"5f906d9892b0ac120238830b",5,"JOL Version A","SENTENCE","word","Study1","B",2041,"0",2173,"word",100,"word",1
65,"w10006036_mlh",5,"JOL Version A","SENTENCE","word","Study1","B",8092,"70",2520,"word",100,"word",1
65,"w995669_AML",5,"JOL Version A","SENTENCE","word","Study1","B",3175,"0",2348,"word",100,"word",1
65,"w10036134AN",5,"JOL Version A","SENTENCE","word","Study1","B",3920,"30",1325,"",0,"word",0
65,"w10046977_ajg",5,"JOL Version A","SENTENCE","word","Study1","B",5108,"98",2058,"word",100,"word",1
65,"5f50efe49dd63f29776ce8d6",5,"JOL Version A","SENTENCE","word","Study1","B",3285,"100",4828,"word ",100,"word",1
65,"w10045963_lnp",5,"JOL Version A","SENTENCE","word","Study1","B",7644,"30",1994,"words",88.888888888889,"word",1
66,"w10006036_mlh",5,"JOL Version A","SHOE","foot","Study1","S",4169,"100",2657,"foot",100,"foot",1
66,"5f26b501dd983441aaaa41a9",5,"JOL Version A","SHOE","foot","Study1","S",4523,"68",7148,"foot",100,"foot",1
66,"w10046977_ajg",5,"JOL Version A","SHOE","foot","Study1","S",9606,"77",2183,"foot",100,"foot",1
66,"5f50efe49dd63f29776ce8d6",5,"JOL Version A","SHOE","foot","Study1","S",3247,"100",3540,"foot",100,"foot",1
66,"5f906d9892b0ac120238830b",5,"JOL Version A","SHOE","foot","Study1","S",4568,"70",2343,"foot",100,"foot",1
66,"w10036134AN",5,"JOL Version A","SHOE","foot","Study1","S",3513,"30",1481,"",0,"foot",0
66,"w10045963_lnp",5,"JOL Version A","SHOE","foot","Study1","S",4449,"60",1631,"foot",100,"foot",1
66,"w995669_AML",5,"JOL Version A","SHOE","foot","Study1","S",3682,"90",3186,"foot",100,"foot",1
67,"w10046977_ajg",5,"JOL Version A","SLEEP","drowsy","Study1","B",3203,"30",6248,"drowsy",100,"drowsy",1
67,"5f50efe49dd63f29776ce8d6",5,"JOL Version A","SLEEP","drowsy","Study1","B",3253,"90",4806,"nap",0,"drowsy",0
67,"5f26b501dd983441aaaa41a9",5,"JOL Version A","SLEEP","drowsy","Study1","B",4855,"56",10364,"",0,"drowsy",0
67,"w10045963_lnp",5,"JOL Version A","SLEEP","drowsy","Study1","B",3779,"95",3541,"drowsy",100,"drowsy",1
67,"w10006036_mlh",5,"JOL Version A","SLEEP","drowsy","Study1","B",4370,"70",4846,"drowsy ",100,"drowsy",1
67,"w10036134AN",5,"JOL Version A","SLEEP","drowsy","Study1","B",1465,"20",1322,"",0,"drowsy",0
67,"w995669_AML",5,"JOL Version A","SLEEP","drowsy","Study1","B",7622,"95",7186,"drowsy",100,"drowsy",1
67,"5f906d9892b0ac120238830b",5,"JOL Version A","SLEEP","drowsy","Study1","B",3045,"30",4736,"bed",22.222222222222,"drowsy",0
68,"w10036134AN",5,"JOL Version A","SMELL","stench","Study1","B",2150,"30",12614,"stench",100,"stench",1
68,"w10045963_lnp",5,"JOL Version A","SMELL","stench","Study1","B",4883,"45",4815,"stench",100,"stench",1
68,"w10006036_mlh",5,"JOL Version A","SMELL","stench","Study1","B",4370,"70",16918,"stench ",100,"stench",1
68,"5f26b501dd983441aaaa41a9",5,"JOL Version A","SMELL","stench","Study1","B",11264,"65",6909,"stench",100,"stench",1
68,"w995669_AML",5,"JOL Version A","SMELL","stench","Study1","B",3766,"10",6210,"",0,"stench",0
68,"w10046977_ajg",5,"JOL Version A","SMELL","stench","Study1","B",3668,"50",2227,"stench",100,"stench",1
68,"5f50efe49dd63f29776ce8d6",5,"JOL Version A","SMELL","stench","Study1","B",3240,"100",3233,"taste",54.545454545455,"stench",0
68,"5f906d9892b0ac120238830b",5,"JOL Version A","SMELL","stench","Study1","B",4456,"40",2412,"stench",100,"stench",1
69,"w10006036_mlh",5,"JOL Version A","SOON","belt","Study1","U",4300,"0",1592,"",0,"belt",0
69,"w10036134AN",5,"JOL Version A","SOON","belt","Study1","U",2382,"10",2142,"",0,"belt",0
69,"5f26b501dd983441aaaa41a9",5,"JOL Version A","SOON","belt","Study1","U",4113,"23",7310,"enough",20,"belt",0
69,"5f50efe49dd63f29776ce8d6",5,"JOL Version A","SOON","belt","Study1","U",2827,"0",2934,"now",0,"belt",0
69,"5f906d9892b0ac120238830b",5,"JOL Version A","SOON","belt","Study1","U",1179,"0",1934,"now",0,"belt",0
69,"w995669_AML",5,"JOL Version A","SOON","belt","Study1","U",3165,"0",4817,"later",44.444444444444,"belt",0
69,"w10046977_ajg",5,"JOL Version A","SOON","belt","Study1","U",2620,"32",4870,"very",25,"belt",0
69,"w10045963_lnp",5,"JOL Version A","SOON","belt","Study1","U",2100,"0",5276,"time",25,"belt",0
70,"w10036134AN",5,"JOL Version A","STRONG","accident","Study1","U",2796,"4",1309,"",0,"accident",0
70,"w10046977_ajg",5,"JOL Version A","STRONG","accident","Study1","U",5426,"5",5061,"man",36.363636363636,"accident",0
70,"w10006036_mlh",5,"JOL Version A","STRONG","accident","Study1","U",3372,"0",3527,"",0,"accident",0
70,"w10045963_lnp",5,"JOL Version A","STRONG","accident","Study1","U",2564,"0",3765,"build",30.769230769231,"accident",0
70,"5f50efe49dd63f29776ce8d6",5,"JOL Version A","STRONG","accident","Study1","U",5750,"10",3004,"weak",16.666666666667,"accident",0
70,"5f906d9892b0ac120238830b",5,"JOL Version A","STRONG","accident","Study1","U",2231,"0",4192,"man",36.363636363636,"accident",0
70,"w995669_AML",5,"JOL Version A","STRONG","accident","Study1","U",5303,"0",1560,"",0,"accident",0
70,"5f26b501dd983441aaaa41a9",5,"JOL Version A","STRONG","accident","Study1","U",8196,"22",12495,"force",30.769230769231,"accident",0
71,"w10036134AN",5,"JOL Version A","SUGAR","riddle","Study1","U",2938,"10",1766,"",0,"riddle",0
71,"w995669_AML",5,"JOL Version A","SUGAR","riddle","Study1","U",2967,"0",3967,"sweet",18.181818181818,"riddle",0
71,"w10046977_ajg",5,"JOL Version A","SUGAR","riddle","Study1","U",2178,"12",2776,"sweet",18.181818181818,"riddle",0
71,"w10006036_mlh",5,"JOL Version A","SUGAR","riddle","Study1","U",5504,"0",5197,"",0,"riddle",0
71,"w10045963_lnp",5,"JOL Version A","SUGAR","riddle","Study1","U",2775,"0",7152,"candy",18.181818181818,"riddle",0
71,"5f50efe49dd63f29776ce8d6",5,"JOL Version A","SUGAR","riddle","Study1","U",6136,"10",5766,"salt ",20,"riddle",0
71,"5f906d9892b0ac120238830b",5,"JOL Version A","SUGAR","riddle","Study1","U",3966,"0",1852,"cube",20,"riddle",0
71,"5f26b501dd983441aaaa41a9",5,"JOL Version A","SUGAR","riddle","Study1","U",4959,"23",7913,"",0,"riddle",0
72,"5f50efe49dd63f29776ce8d6",5,"JOL Version A","SWAN","bird","Study1","F",3778,"70",3138,"song",0,"bird",0
72,"5f906d9892b0ac120238830b",5,"JOL Version A","SWAN","bird","Study1","F",3185,"10",2529,"bird",100,"bird",1
72,"w10006036_mlh",5,"JOL Version A","SWAN","bird","Study1","F",4243,"40",9396,"bird",100,"bird",1
72,"w10046977_ajg",5,"JOL Version A","SWAN","bird","Study1","F",8241,"50",2458,"bird",100,"bird",1
72,"5f26b501dd983441aaaa41a9",5,"JOL Version A","SWAN","bird","Study1","F",5249,"54",12402,"bird",100,"bird",1
72,"w10036134AN",5,"JOL Version A","SWAN","bird","Study1","F",2847,"30",5896,"bird",100,"bird",1
72,"w10045963_lnp",5,"JOL Version A","SWAN","bird","Study1","F",4779,"20",1541,"bird",100,"bird",1
72,"w995669_AML",5,"JOL Version A","SWAN","bird","Study1","F",3355,"15",2351,"bird",100,"bird",1
73,"w10006036_mlh",5,"JOL Version A","TAKE","seize","Study1","B",5793,"70",1748,"",0,"seize",0
73,"5f906d9892b0ac120238830b",5,"JOL Version A","TAKE","seize","Study1","B",1295,"0",2242,"give",44.444444444444,"seize",0
73,"w10046977_ajg",5,"JOL Version A","TAKE","seize","Study1","B",3298,"31",1858,"away",0,"seize",0
73,"w10036134AN",5,"JOL Version A","TAKE","seize","Study1","B",6070,"30",1865,"",0,"seize",0
73,"5f50efe49dd63f29776ce8d6",5,"JOL Version A","TAKE","seize","Study1","B",3627,"100",4121,"give",44.444444444444,"seize",0
73,"5f26b501dd983441aaaa41a9",5,"JOL Version A","TAKE","seize","Study1","B",5416,"33",3958,"",0,"seize",0
73,"w10045963_lnp",5,"JOL Version A","TAKE","seize","Study1","B",3699,"45",5938,"give",44.444444444444,"seize",0
73,"w995669_AML",5,"JOL Version A","TAKE","seize","Study1","B",4692,"10",5541,"give",44.444444444444,"seize",0
74,"w10006036_mlh",5,"JOL Version A","TRIAL","jury","Study1","S",6488,"70",7501,"jury ",100,"jury",1
74,"w10036134AN",5,"JOL Version A","TRIAL","jury","Study1","S",1419,"10",1173,"",0,"jury",0
74,"w10046977_ajg",5,"JOL Version A","TRIAL","jury","Study1","S",4159,"70",2531,"eror",25,"jury",0
74,"5f50efe49dd63f29776ce8d6",5,"JOL Version A","TRIAL","jury","Study1","S",5380,"90",2878,"jury",100,"jury",1
74,"5f906d9892b0ac120238830b",5,"JOL Version A","TRIAL","jury","Study1","S",4949,"20",2023,"error",22.222222222222,"jury",0
74,"w10045963_lnp",5,"JOL Version A","TRIAL","jury","Study1","S",6384,"75",2007,"jury",100,"jury",1
74,"5f26b501dd983441aaaa41a9",5,"JOL Version A","TRIAL","jury","Study1","S",4492,"34",3733,"",0,"jury",0
74,"w995669_AML",5,"JOL Version A","TRIAL","jury","Study1","S",2675,"90",3305,"jury",100,"jury",1
75,"w10046977_ajg",5,"JOL Version A","TUNA","fish","Study1","F",3739,"89",1682,"fish",100,"fish",1
75,"w10036134AN",5,"JOL Version A","TUNA","fish","Study1","F",3175,"30",4008,"fish",100,"fish",1
75,"5f906d9892b0ac120238830b",5,"JOL Version A","TUNA","fish","Study1","F",3677,"60",1611,"fish",100,"fish",1
75,"w10006036_mlh",5,"JOL Version A","TUNA","fish","Study1","F",3987,"40",3159,"fish",100,"fish",1
75,"5f50efe49dd63f29776ce8d6",5,"JOL Version A","TUNA","fish","Study1","F",4385,"100",3112,"fish",100,"fish",1
75,"w10045963_lnp",5,"JOL Version A","TUNA","fish","Study1","F",2405,"95",1279,"fish",100,"fish",1
75,"5f26b501dd983441aaaa41a9",5,"JOL Version A","TUNA","fish","Study1","F",5233,"74",5752,"fish",100,"fish",1
75,"w995669_AML",5,"JOL Version A","TUNA","fish","Study1","F",3163,"90",2450,"fish",100,"fish",1
76,"w10046977_ajg",5,"JOL Version A","VALLEY","add","Study1","U",2315,"0",3126,"p",0,"add",0
76,"5f906d9892b0ac120238830b",5,"JOL Version A","VALLEY","add","Study1","U",1637,"0",2823,"ditch",25,"add",0
76,"w10036134AN",5,"JOL Version A","VALLEY","add","Study1","U",1888,"10",1464,"",0,"add",0
76,"w10045963_lnp",5,"JOL Version A","VALLEY","add","Study1","U",2003,"0",6361,"river",0,"add",0
76,"5f50efe49dd63f29776ce8d6",5,"JOL Version A","VALLEY","add","Study1","U",2802,"0",4494,"low",0,"add",0
76,"5f26b501dd983441aaaa41a9",5,"JOL Version A","VALLEY","add","Study1","U",5894,"11",7933,"",0,"add",0
76,"w10006036_mlh",5,"JOL Version A","VALLEY","add","Study1","U",4536,"0",1457,"",0,"add",0
76,"w995669_AML",5,"JOL Version A","VALLEY","add","Study1","U",2835,"0",1760,"",0,"add",0
77,"w10036134AN",5,"JOL Version A","WAGE","money","Study1","F",22724,"30",1454,"",0,"money",0
77,"w10045963_lnp",5,"JOL Version A","WAGE","money","Study1","F",4363,"75",16786,"income",36.363636363636,"money",0
77,"w10046977_ajg",5,"JOL Version A","WAGE","money","Study1","F",3554,"88",2906,"money",100,"money",1
77,"5f906d9892b0ac120238830b",5,"JOL Version A","WAGE","money","Study1","F",3992,"70",1567,"money",100,"money",1
77,"w10006036_mlh",5,"JOL Version A","WAGE","money","Study1","F",5453,"10",3758,"money",100,"money",1
77,"5f26b501dd983441aaaa41a9",5,"JOL Version A","WAGE","money","Study1","F",8389,"85",14773,"money",100,"money",1
77,"5f50efe49dd63f29776ce8d6",5,"JOL Version A","WAGE","money","Study1","F",3159,"100",2865,"pay",25,"money",0
77,"w995669_AML",5,"JOL Version A","WAGE","money","Study1","F",6491,"90",2459,"money",100,"money",1
78,"w10006036_mlh",5,"JOL Version A","WAY","out","Study1","F",6976,"10",3335,"",0,"out",0
78,"5f26b501dd983441aaaa41a9",5,"JOL Version A","WAY","out","Study1","F",5697,"40",2581,"out",100,"out",1
78,"w10045963_lnp",5,"JOL Version A","WAY","out","Study1","F",5847,"65",6021,"route",75,"out",1
78,"w10046977_ajg",5,"JOL Version A","WAY","out","Study1","F",4321,"100",2904,"part",28.571428571429,"out",0
78,"w10036134AN",5,"JOL Version A","WAY","out","Study1","F",2718,"40",1162,"",0,"out",0
78,"5f50efe49dd63f29776ce8d6",5,"JOL Version A","WAY","out","Study1","F",3226,"100",2821,"out",100,"out",1
78,"5f906d9892b0ac120238830b",5,"JOL Version A","WAY","out","Study1","F",2880,"20",2011,"out",100,"out",1
78,"w995669_AML",5,"JOL Version A","WAY","out","Study1","F",4823,"70",2252,"out",100,"out",1
79,"w10046977_ajg",5,"JOL Version A","WINE","cheese","Study1","S",3034,"21",3308,"glass",18.181818181818,"cheese",0
79,"w10045963_lnp",5,"JOL Version A","WINE","cheese","Study1","S",3196,"10",1947,"cheese",100,"cheese",1
79,"5f50efe49dd63f29776ce8d6",5,"JOL Version A","WINE","cheese","Study1","S",3673,"100",2565,"red",22.222222222222,"cheese",0
79,"w10006036_mlh",5,"JOL Version A","WINE","cheese","Study1","S",6786,"10",3736,"cheese ",100,"cheese",1
79,"w10036134AN",5,"JOL Version A","WINE","cheese","Study1","S",2386,"20",7535,"cheese",100,"cheese",1
79,"5f26b501dd983441aaaa41a9",5,"JOL Version A","WINE","cheese","Study1","S",4381,"67",1804,"",0,"cheese",0
79,"5f906d9892b0ac120238830b",5,"JOL Version A","WINE","cheese","Study1","S",4878,"75",2002,"cheese",100,"cheese",1
79,"w995669_AML",5,"JOL Version A","WINE","cheese","Study1","S",5426,"65",2923,"cheese",100,"cheese",1
80,"w10036134AN",5,"JOL Version A","WORK","chore","Study1","B",2234,"50",1320,"",0,"chore",0
80,"5f50efe49dd63f29776ce8d6",5,"JOL Version A","WORK","chore","Study1","B",7112,"80",3601,"task",0,"chore",0
80,"5f906d9892b0ac120238830b",5,"JOL Version A","WORK","chore","Study1","B",3312,"25",3683,"chore",100,"chore",1
80,"w10046977_ajg",5,"JOL Version A","WORK","chore","Study1","B",9477,"55",3724,"chore",100,"chore",1
80,"w10045963_lnp",5,"JOL Version A","WORK","chore","Study1","B",3391,"5",4458,"chore",100,"chore",1
80,"5f26b501dd983441aaaa41a9",5,"JOL Version A","WORK","chore","Study1","B",7958,"52",5165,"",0,"chore",0
80,"w10006036_mlh",5,"JOL Version A","WORK","chore","Study1","B",6001,"0",5158,"",0,"chore",0
80,"w995669_AML",5,"JOL Version A","WORK","chore","Study1","B",2309,"0",3889,"",0,"chore",0
81,"5f26b501dd983441aaaa41a9",5,"JOL Version A","ADJOURN","end","Study2","F",3417,"8",1282,"",0,"end",0
81,"w10036134AN",5,"JOL Version A","ADJOURN","end","Study2","F",3154,"40",3156,"",0,"end",0
81,"w995669_AML",5,"JOL Version A","ADJOURN","end","Study2","F",3040,"20",2291,"end",100,"end",1
81,"5f906d9892b0ac120238830b",5,"JOL Version A","ADJOURN","end","Study2","F",2574,"90",2101,"end",100,"end",1
81,"5f50efe49dd63f29776ce8d6",5,"JOL Version A","ADJOURN","end","Study2","F",9151,"90",3075,"end",100,"end",1
81,"w10045963_lnp",5,"JOL Version A","ADJOURN","end","Study2","F",2978,"5",2925,"",0,"end",0
81,"w10046977_ajg",5,"JOL Version A","ADJOURN","end","Study2","F",3078,"12",2787,"end",100,"end",1
81,"w10006036_mlh",5,"JOL Version A","ADJOURN","end","Study2","F",3731,"40",3865,"end",100,"end",1
82,"5f26b501dd983441aaaa41a9",5,"JOL Version A","AFFECTION","love","Study2","F",6484,"23",2362,"love",100,"love",1
82,"w10045963_lnp",5,"JOL Version A","AFFECTION","love","Study2","F",2460,"60",2643,"love",100,"love",1
82,"w995669_AML",5,"JOL Version A","AFFECTION","love","Study2","F",2080,"90",4495,"love",100,"love",1
82,"w10006036_mlh",5,"JOL Version A","AFFECTION","love","Study2","F",5736,"80",2226,"love",100,"love",1
82,"w10036134AN",5,"JOL Version A","AFFECTION","love","Study2","F",2992,"60",2042,"love",100,"love",1
82,"w10046977_ajg",5,"JOL Version A","AFFECTION","love","Study2","F",2685,"100",1679,"love",100,"love",1
82,"5f906d9892b0ac120238830b",5,"JOL Version A","AFFECTION","love","Study2","F",3121,"85",1635,"love",100,"love",1
82,"5f50efe49dd63f29776ce8d6",5,"JOL Version A","AFFECTION","love","Study2","F",2959,"90",3147,"love",100,"love",1
83,"5f26b501dd983441aaaa41a9",5,"JOL Version A","ALONE","lonely","Study2","S",18917,"5",4392,"lonely",100,"lonely",1
83,"w10045963_lnp",5,"JOL Version A","ALONE","lonely","Study2","S",3255,"75",1685,"lonely",100,"lonely",1
83,"w10046977_ajg",5,"JOL Version A","ALONE","lonely","Study2","S",2668,"100",2638,"lonely",100,"lonely",1
83,"w10006036_mlh",5,"JOL Version A","ALONE","lonely","Study2","S",5727,"80",2980,"lonely ",100,"lonely",1
83,"5f50efe49dd63f29776ce8d6",5,"JOL Version A","ALONE","lonely","Study2","S",3650,"90",4052,"lonely",100,"lonely",1
83,"5f906d9892b0ac120238830b",5,"JOL Version A","ALONE","lonely","Study2","S",2904,"80",2306,"lonely",100,"lonely",1
83,"w995669_AML",5,"JOL Version A","ALONE","lonely","Study2","S",2576,"80",3948,"lonly",90.909090909091,"lonely",1
83,"w10036134AN",5,"JOL Version A","ALONE","lonely","Study2","S",1492,"50",1219,"",0,"lonely",0
84,"5f26b501dd983441aaaa41a9",5,"JOL Version A","BAD","villain","Study2","B",5315,"32",1796,"",0,"villain",0
84,"w10046977_ajg",5,"JOL Version A","BAD","villain","Study2","B",2461,"75",3929,"delinquent",35.294117647059,"villain",0
84,"w995669_AML",5,"JOL Version A","BAD","villain","Study2","B",2287,"80",1204,"",0,"villain",0
84,"w10036134AN",5,"JOL Version A","BAD","villain","Study2","B",2133,"50",1338,"",0,"villain",0
84,"w10045963_lnp",5,"JOL Version A","BAD","villain","Study2","B",4654,"20",3676,"",0,"villain",0
84,"5f50efe49dd63f29776ce8d6",5,"JOL Version A","BAD","villain","Study2","B",2867,"90",3540,"good",0,"villain",0
84,"5f906d9892b0ac120238830b",5,"JOL Version A","BAD","villain","Study2","B",2890,"45",2743,"good",0,"villain",0
84,"w10006036_mlh",5,"JOL Version A","BAD","villain","Study2","B",13056,"20",7415,"",0,"villain",0
85,"5f26b501dd983441aaaa41a9",5,"JOL Version A","BASEBALL","league","Study2","B",4322,"17",3500,"league",100,"league",1
85,"w10036134AN",5,"JOL Version A","BASEBALL","league","Study2","B",1910,"50",3269,"pitch",0,"league",0
85,"w995669_AML",5,"JOL Version A","BASEBALL","league","Study2","B",4238,"50",4569,"",0,"league",0
85,"w10046977_ajg",5,"JOL Version A","BASEBALL","league","Study2","B",2248,"45",1944,"game",40,"league",0
85,"5f906d9892b0ac120238830b",5,"JOL Version A","BASEBALL","league","Study2","B",2260,"40",2329,"league",100,"league",1
85,"w10006036_mlh",5,"JOL Version A","BASEBALL","league","Study2","B",4146,"20",4317,"league ",100,"league",1
85,"w10045963_lnp",5,"JOL Version A","BASEBALL","league","Study2","B",4479,"75",4556,"catcher",30.769230769231,"league",0
85,"5f50efe49dd63f29776ce8d6",5,"JOL Version A","BASEBALL","league","Study2","B",3137,"90",2785,"bat",22.222222222222,"league",0
86,"5f26b501dd983441aaaa41a9",5,"JOL Version A","BEST","favorite","Study2","B",5540,"31",4182,"",0,"favorite",0
86,"w995669_AML",5,"JOL Version A","BEST","favorite","Study2","B",3313,"30",1970,"",0,"favorite",0
86,"5f906d9892b0ac120238830b",5,"JOL Version A","BEST","favorite","Study2","B",2578,"80",2606,"great",30.769230769231,"favorite",0
86,"w10046977_ajg",5,"JOL Version A","BEST","favorite","Study2","B",2139,"31",3212,"wishes",28.571428571429,"favorite",0
86,"w10036134AN",5,"JOL Version A","BEST","favorite","Study2","B",3049,"50",908,"",0,"favorite",0
86,"w10045963_lnp",5,"JOL Version A","BEST","favorite","Study2","B",12819,"40",3137,"favorite",100,"favorite",1
86,"w10006036_mlh",5,"JOL Version A","BEST","favorite","Study2","B",6536,"40",5393,"favorite ",100,"favorite",1
86,"5f50efe49dd63f29776ce8d6",5,"JOL Version A","BEST","favorite","Study2","B",3154,"70",2932,"show",16.666666666667,"favorite",0
87,"5f26b501dd983441aaaa41a9",5,"JOL Version A","BIRD","penguin","Study2","B",5406,"23",5076,"penguin",100,"penguin",1
87,"w995669_AML",5,"JOL Version A","BIRD","penguin","Study2","B",4449,"70",6945,"penguin",100,"penguin",1
87,"5f906d9892b0ac120238830b",5,"JOL Version A","BIRD","penguin","Study2","B",3064,"65",2392,"penguin",100,"penguin",1
87,"w10045963_lnp",5,"JOL Version A","BIRD","penguin","Study2","B",2373,"50",1894,"swan",18.181818181818,"penguin",0
87,"w10046977_ajg",5,"JOL Version A","BIRD","penguin","Study2","B",1753,"89",3501,"penguin",100,"penguin",1
87,"5f50efe49dd63f29776ce8d6",5,"JOL Version A","BIRD","penguin","Study2","B",3226,"50",4198,"penguin",100,"penguin",1
87,"w10006036_mlh",5,"JOL Version A","BIRD","penguin","Study2","B",7263,"0",7589,"penguin ",100,"penguin",1
87,"w10036134AN",5,"JOL Version A","BIRD","penguin","Study2","B",2046,"50",4120,"swan",18.181818181818,"penguin",0
88,"5f26b501dd983441aaaa41a9",5,"JOL Version A","BOTH","ounce","Study2","U",2829,"8",2760,"",0,"ounce",0
88,"5f906d9892b0ac120238830b",5,"JOL Version A","BOTH","ounce","Study2","U",1922,"0",2929,"one",75,"ounce",1
88,"w995669_AML",5,"JOL Version A","BOTH","ounce","Study2","U",2182,"0",1742,"",0,"ounce",0
88,"w10046977_ajg",5,"JOL Version A","BOTH","ounce","Study2","U",1647,"98",3787,"optional",30.769230769231,"ounce",0
88,"w10006036_mlh",5,"JOL Version A","BOTH","ounce","Study2","U",6512,"20",1785,"",0,"ounce",0
88,"5f50efe49dd63f29776ce8d6",5,"JOL Version A","BOTH","ounce","Study2","U",2674,"0",4240,"together",30.769230769231,"ounce",0
88,"w10045963_lnp",5,"JOL Version A","BOTH","ounce","Study2","U",2694,"0",4103,"",0,"ounce",0
88,"w10036134AN",5,"JOL Version A","BOTH","ounce","Study2","U",2916,"50",3972,"amount",54.545454545455,"ounce",0
89,"5f26b501dd983441aaaa41a9",5,"JOL Version A","CACTUS","plant","Study2","F",5496,"56",2446,"plant",100,"plant",1
89,"5f906d9892b0ac120238830b",5,"JOL Version A","CACTUS","plant","Study2","F",2725,"85",1436,"plant",100,"plant",1
89,"w10006036_mlh",5,"JOL Version A","CACTUS","plant","Study2","F",2883,"40",5591,"plant ",100,"plant",1
89,"w995669_AML",5,"JOL Version A","CACTUS","plant","Study2","F",1763,"90",3509,"plant",100,"plant",1
89,"5f50efe49dd63f29776ce8d6",5,"JOL Version A","CACTUS","plant","Study2","F",3579,"90",3035,"plant",100,"plant",1
89,"w10036134AN",5,"JOL Version A","CACTUS","plant","Study2","F",3899,"50",1275,"",0,"plant",0
89,"w10045963_lnp",5,"JOL Version A","CACTUS","plant","Study2","F",1712,"90",1740,"plant",100,"plant",1
89,"w10046977_ajg",5,"JOL Version A","CACTUS","plant","Study2","F",1886,"72",2513,"plant",100,"plant",1
90,"w995669_AML",5,"JOL Version A","CAKE","clothes","Study2","U",2546,"0",2783,"",0,"clothes",0
90,"w10045963_lnp",5,"JOL Version A","CAKE","clothes","Study2","U",2245,"0",6045,"hair",18.181818181818,"clothes",0
90,"w10046977_ajg",5,"JOL Version A","CAKE","clothes","Study2","U",3533,"63",3679,"sweet",16.666666666667,"clothes",0
90,"5f906d9892b0ac120238830b",5,"JOL Version A","CAKE","clothes","Study2","U",2296,"20",6060,"birthday",26.666666666667,"clothes",0
90,"w10036134AN",5,"JOL Version A","CAKE","clothes","Study2","U",5861,"10",973,"",0,"clothes",0
90,"5f50efe49dd63f29776ce8d6",5,"JOL Version A","CAKE","clothes","Study2","U",2612,"0",3043,"party",16.666666666667,"clothes",0
90,"5f26b501dd983441aaaa41a9",5,"JOL Version A","CAKE","clothes","Study2","U",3848,"18",6674,"",0,"clothes",0
90,"w10006036_mlh",5,"JOL Version A","CAKE","clothes","Study2","U",14014,"10",5741,"cash ",36.363636363636,"clothes",0
91,"w995669_AML",5,"JOL Version A","CANDLE","wax","Study2","S",2158,"80",1976,"wax",100,"wax",1
91,"5f26b501dd983441aaaa41a9",5,"JOL Version A","CANDLE","wax","Study2","S",2040,"45",8341,"",0,"wax",0
91,"w10045963_lnp",5,"JOL Version A","CANDLE","wax","Study2","S",8282,"90",1748,"wax",100,"wax",1
91,"w10046977_ajg",5,"JOL Version A","CANDLE","wax","Study2","S",2777,"67",1745,"wax",100,"wax",1
91,"5f906d9892b0ac120238830b",5,"JOL Version A","CANDLE","wax","Study2","S",1848,"90",1931,"wax",100,"wax",1
91,"w10036134AN",5,"JOL Version A","CANDLE","wax","Study2","S",1596,"20",2070,"wax",100,"wax",1
91,"5f50efe49dd63f29776ce8d6",5,"JOL Version A","CANDLE","wax","Study2","S",4048,"70",3097,"wax",100,"wax",1
91,"w10006036_mlh",5,"JOL Version A","CANDLE","wax","Study2","S",3049,"40",3738,"wax",100,"wax",1
92,"5f906d9892b0ac120238830b",5,"JOL Version A","CAR","windshield","Study2","B",3673,"35",2639,"turn",14.285714285714,"windshield",0
92,"5f50efe49dd63f29776ce8d6",5,"JOL Version A","CAR","windshield","Study2","B",4581,"65",7740,"learn",13.333333333333,"windshield",0
92,"5f26b501dd983441aaaa41a9",5,"JOL Version A","CAR","windshield","Study2","B",10655,"44",7429,"windscreen",60,"windshield",0
92,"w10045963_lnp",5,"JOL Version A","CAR","windshield","Study2","B",1965,"70",2226,"driver",37.5,"windshield",0
92,"w10046977_ajg",5,"JOL Version A","CAR","windshield","Study2","B",1669,"45",2418,"driver",37.5,"windshield",0
92,"w995669_AML",5,"JOL Version A","CAR","windshield","Study2","B",3920,"90",2070,"",0,"windshield",0
92,"w10006036_mlh",5,"JOL Version A","CAR","windshield","Study2","B",5134,"50",3618,"driver ",37.5,"windshield",0
92,"w10036134AN",5,"JOL Version A","CAR","windshield","Study2","B",2150,"50",1030,"",0,"windshield",0
93,"w10045963_lnp",5,"JOL Version A","CAT","panther","Study2","B",4367,"50",6571,"",0,"panther",0
93,"w10046977_ajg",5,"JOL Version A","CAT","panther","Study2","B",2958,"93",2727,"dog",0,"panther",0
93,"5f50efe49dd63f29776ce8d6",5,"JOL Version A","CAT","panther","Study2","B",3235,"70",2871,"dog",0,"panther",0
93,"5f26b501dd983441aaaa41a9",5,"JOL Version A","CAT","panther","Study2","B",5445,"36",5159,"",0,"panther",0
93,"w995669_AML",5,"JOL Version A","CAT","panther","Study2","B",1860,"90",2938,"panter",92.307692307692,"panther",1
93,"w10036134AN",5,"JOL Version A","CAT","panther","Study2","B",2146,"30",928,"",0,"panther",0
93,"5f906d9892b0ac120238830b",5,"JOL Version A","CAT","panther","Study2","B",6307,"45",1984,"dog",0,"panther",0
93,"w10006036_mlh",5,"JOL Version A","CAT","panther","Study2","B",8213,"70",6600,"",0,"panther",0
94,"w10045963_lnp",5,"JOL Version A","CHERRY","red","Study2","F",3819,"75",1207,"red",100,"red",1
94,"5f26b501dd983441aaaa41a9",5,"JOL Version A","CHERRY","red","Study2","F",4949,"45",2048,"red",100,"red",1
94,"w10006036_mlh",5,"JOL Version A","CHERRY","red","Study2","F",8417,"80",2207,"red",100,"red",1
94,"w10036134AN",5,"JOL Version A","CHERRY","red","Study2","F",1418,"50",2357,"red",100,"red",1
94,"5f906d9892b0ac120238830b",5,"JOL Version A","CHERRY","red","Study2","F",2766,"60",1622,"red",100,"red",1
94,"w995669_AML",5,"JOL Version A","CHERRY","red","Study2","F",1792,"100",1735,"red",100,"red",1
94,"w10046977_ajg",5,"JOL Version A","CHERRY","red","Study2","F",5200,"99",1987,"red",100,"red",1
94,"5f50efe49dd63f29776ce8d6",5,"JOL Version A","CHERRY","red","Study2","F",5169,"95",2452,"red",100,"red",1
95,"5f26b501dd983441aaaa41a9",5,"JOL Version A","CHILL","cold","Study2","F",9459,"20",6871,"cold",100,"cold",1
95,"5f906d9892b0ac120238830b",5,"JOL Version A","CHILL","cold","Study2","F",2445,"90",1919,"cold",100,"cold",1
95,"w10006036_mlh",5,"JOL Version A","CHILL","cold","Study2","F",4496,"80",2306,"cold",100,"cold",1
95,"w10045963_lnp",5,"JOL Version A","CHILL","cold","Study2","F",2730,"40",7763,"ice",28.571428571429,"cold",0
95,"w10046977_ajg",5,"JOL Version A","CHILL","cold","Study2","F",1915,"78",1530,"cold",100,"cold",1
95,"5f50efe49dd63f29776ce8d6",5,"JOL Version A","CHILL","cold","Study2","F",3309,"80",3460,"cold",100,"cold",1
95,"w995669_AML",5,"JOL Version A","CHILL","cold","Study2","F",2607,"80",3249,"cold",100,"cold",1
95,"w10036134AN",5,"JOL Version A","CHILL","cold","Study2","F",2591,"50",5994,"cold",100,"cold",1
96,"5f906d9892b0ac120238830b",5,"JOL Version A","CHOP","cut","Study2","F",2237,"85",3516,"chip",28.571428571429,"cut",0
96,"w10046977_ajg",5,"JOL Version A","CHOP","cut","Study2","F",2912,"67",1824,"cut",100,"cut",1
96,"5f50efe49dd63f29776ce8d6",5,"JOL Version A","CHOP","cut","Study2","F",6072,"0",3406,"cut",100,"cut",1
96,"w10006036_mlh",5,"JOL Version A","CHOP","cut","Study2","F",6306,"20",1575,"",0,"cut",0
96,"5f26b501dd983441aaaa41a9",5,"JOL Version A","CHOP","cut","Study2","F",5418,"34",6161,"suey",28.571428571429,"cut",0
96,"w10036134AN",5,"JOL Version A","CHOP","cut","Study2","F",1541,"30",1886,"cut",100,"cut",1
96,"w10045963_lnp",5,"JOL Version A","CHOP","cut","Study2","F",5317,"55",2044,"cut",100,"cut",1
96,"w995669_AML",5,"JOL Version A","CHOP","cut","Study2","F",4637,"30",3470,"cut",100,"cut",1
97,"w10046977_ajg",5,"JOL Version A","CLUE","game","Study2","F",2321,"3",1905,"less",25,"game",0
97,"5f50efe49dd63f29776ce8d6",5,"JOL Version A","CLUE","game","Study2","F",5533,"30",4655,"detective ",15.384615384615,"game",0
97,"w10036134AN",5,"JOL Version A","CLUE","game","Study2","F",1722,"10",2465,"guess",44.444444444444,"game",0
97,"w10006036_mlh",5,"JOL Version A","CLUE","game","Study2","F",3856,"70",3624,"game ",100,"game",1
97,"5f26b501dd983441aaaa41a9",5,"JOL Version A","CLUE","game","Study2","F",3290,"12",7297,"mystery",36.363636363636,"game",0
97,"w995669_AML",5,"JOL Version A","CLUE","game","Study2","F",2792,"100",2411,"",0,"game",0
97,"5f906d9892b0ac120238830b",5,"JOL Version A","CLUE","game","Study2","F",1497,"0",2177,"game",100,"game",1
97,"w10045963_lnp",5,"JOL Version A","CLUE","game","Study2","F",3896,"30",1939,"game",100,"game",1
98,"w10006036_mlh",5,"JOL Version A","CRACKLE","able","Study2","U",5323,"10",2493,"able",100,"able",1
98,"w10036134AN",5,"JOL Version A","CRACKLE","able","Study2","U",2889,"10",2324,"",0,"able",0
98,"w10045963_lnp",5,"JOL Version A","CRACKLE","able","Study2","U",2560,"0",12573,"fire",25,"able",0
98,"5f26b501dd983441aaaa41a9",5,"JOL Version A","CRACKLE","able","Study2","U",4613,"4",3645,"pop",0,"able",0
98,"w995669_AML",5,"JOL Version A","CRACKLE","able","Study2","U",2163,"0",3926,"",0,"able",0
98,"5f906d9892b0ac120238830b",5,"JOL Version A","CRACKLE","able","Study2","U",1228,"0",3231,"break",44.444444444444,"able",0
98,"w10046977_ajg",5,"JOL Version A","CRACKLE","able","Study2","U",4493,"10",3418,"backle",60,"able",0
98,"5f50efe49dd63f29776ce8d6",5,"JOL Version A","CRACKLE","able","Study2","U",1088,NA,2335,"pop",0,"able",0
99,"5f26b501dd983441aaaa41a9",5,"JOL Version A","DEAD","coffin","Study2","B",4744,"20",3658,"coffin",100,"coffin",1
99,"5f906d9892b0ac120238830b",5,"JOL Version A","DEAD","coffin","Study2","B",2267,"90",2029,"coffin",100,"coffin",1
99,"w10006036_mlh",5,"JOL Version A","DEAD","coffin","Study2","B",4916,"70",7276,"coffin ",100,"coffin",1
99,"5f50efe49dd63f29776ce8d6",5,"JOL Version A","DEAD","coffin","Study2","B",3407,"50",3504,"coffin",100,"coffin",1
99,"w995669_AML",5,"JOL Version A","DEAD","coffin","Study2","B",15378,"60",2661,"bury",0,"coffin",0
99,"w10045963_lnp",5,"JOL Version A","DEAD","coffin","Study2","B",1839,"70",2069,"coffin",100,"coffin",1
99,"w10046977_ajg",5,"JOL Version A","DEAD","coffin","Study2","B",2790,"100",3401,"coffin",100,"coffin",1
99,"w10036134AN",5,"JOL Version A","DEAD","coffin","Study2","B",3485,"50",778,"",0,"coffin",0
100,"w10046977_ajg",5,"JOL Version A","DETECTIVE","mystery","Study2","F",2265,"76",2142,"law",0,"mystery",0
100,"5f50efe49dd63f29776ce8d6",5,"JOL Version A","DETECTIVE","mystery","Study2","F",3589,"75",4007,"mystery",100,"mystery",1
100,"5f906d9892b0ac120238830b",5,"JOL Version A","DETECTIVE","mystery","Study2","F",2366,"55",3026,"clues",16.666666666667,"mystery",0
100,"w10036134AN",5,"JOL Version A","DETECTIVE","mystery","Study2","F",2132,"30",2650,"clues",16.666666666667,"mystery",0
100,"w10006036_mlh",5,"JOL Version A","DETECTIVE","mystery","Study2","F",4957,"30",4833,"mystery ",100,"mystery",1
100,"5f26b501dd983441aaaa41a9",5,"JOL Version A","DETECTIVE","mystery","Study2","F",7379,"45",4999,"mystery",100,"mystery",1
100,"w995669_AML",5,"JOL Version A","DETECTIVE","mystery","Study2","F",2130,"100",4567,"mystery",100,"mystery",1
100,"w10045963_lnp",5,"JOL Version A","DETECTIVE","mystery","Study2","F",3202,"30",4794,"mystery",100,"mystery",1
101,"w10045963_lnp",5,"JOL Version A","DINE","eat","Study2","F",3203,"80",1557,"eat",100,"eat",1
101,"w10036134AN",5,"JOL Version A","DINE","eat","Study2","F",4321,"50",906,"",0,"eat",0
101,"w10046977_ajg",5,"JOL Version A","DINE","eat","Study2","F",1840,"45",1612,"eat",100,"eat",1
101,"5f26b501dd983441aaaa41a9",5,"JOL Version A","DINE","eat","Study2","F",4086,"38",7443,"out",33.333333333333,"eat",1
101,"w995669_AML",5,"JOL Version A","DINE","eat","Study2","F",1694,"90",1968,"eat",100,"eat",1
101,"5f50efe49dd63f29776ce8d6",5,"JOL Version A","DINE","eat","Study2","F",2982,"70",3567,"food",0,"eat",0
101,"5f906d9892b0ac120238830b",5,"JOL Version A","DINE","eat","Study2","F",1962,"15",5979,"cheese",22.222222222222,"eat",0
101,"w10006036_mlh",5,"JOL Version A","DINE","eat","Study2","F",12100,"90",4066,"eat ",100,"eat",1
102,"5f26b501dd983441aaaa41a9",5,"JOL Version A","DOCUMENT","paper","Study2","F",7409,"22",5039,"paper",100,"paper",1
102,"5f906d9892b0ac120238830b",5,"JOL Version A","DOCUMENT","paper","Study2","F",1463,"30",2624,"paper",100,"paper",1
102,"w10006036_mlh",5,"JOL Version A","DOCUMENT","paper","Study2","F",6352,"70",3635,"paper",100,"paper",1
102,"w10045963_lnp",5,"JOL Version A","DOCUMENT","paper","Study2","F",2842,"95",2106,"paper",100,"paper",1
102,"5f50efe49dd63f29776ce8d6",5,"JOL Version A","DOCUMENT","paper","Study2","F",3669,"50",5103,"type",44.444444444444,"paper",0
102,"w995669_AML",5,"JOL Version A","DOCUMENT","paper","Study2","F",3286,"80",2437,"paper",100,"paper",1
102,"w10036134AN",5,"JOL Version A","DOCUMENT","paper","Study2","F",2702,"30",7368,"write",20,"paper",0
102,"w10046977_ajg",5,"JOL Version A","DOCUMENT","paper","Study2","F",1997,"2",2071,"paper",100,"paper",1
103,"w10046977_ajg",5,"JOL Version A","DRIVER","car","Study2","F",2394,"100",2053,"car",100,"car",1
103,"5f50efe49dd63f29776ce8d6",5,"JOL Version A","DRIVER","car","Study2","F",3822,"90",4214,"car",100,"car",1
103,"5f906d9892b0ac120238830b",5,"JOL Version A","DRIVER","car","Study2","F",1447,"50",1595,"car",100,"car",1
103,"5f26b501dd983441aaaa41a9",5,"JOL Version A","DRIVER","car","Study2","F",4848,"23",9088,"car",100,"car",1
103,"w10036134AN",5,"JOL Version A","DRIVER","car","Study2","F",53483,"50",1052,"",0,"car",0
103,"w10006036_mlh",5,"JOL Version A","DRIVER","car","Study2","F",3188,"80",5535,"car ",100,"car",1
103,"w10045963_lnp",5,"JOL Version A","DRIVER","car","Study2","F",3902,"80",1341,"car",100,"car",1
103,"w995669_AML",5,"JOL Version A","DRIVER","car","Study2","F",1647,"100",996,"",0,"car",0
104,"w10045963_lnp",5,"JOL Version A","DRY","wet","Study2","S",2712,"40",2007,"wet",100,"wet",1
104,"5f26b501dd983441aaaa41a9",5,"JOL Version A","DRY","wet","Study2","S",6295,"34",3857,"wet",100,"wet",1
104,"w10036134AN",5,"JOL Version A","DRY","wet","Study2","S",3196,"30",2713,"wet",100,"wet",1
104,"w10046977_ajg",5,"JOL Version A","DRY","wet","Study2","S",1939,"100",1826,"wet",100,"wet",1
104,"5f906d9892b0ac120238830b",5,"JOL Version A","DRY","wet","Study2","S",1940,"90",1667,"wet",100,"wet",1
104,"w995669_AML",5,"JOL Version A","DRY","wet","Study2","S",4179,"60",3227,"",0,"wet",0
104,"5f50efe49dd63f29776ce8d6",5,"JOL Version A","DRY","wet","Study2","S",4036,"90",4322,"wet ",100,"wet",1
104,"w10006036_mlh",5,"JOL Version A","DRY","wet","Study2","S",2812,"90",2315,"wet",100,"wet",1
105,"5f26b501dd983441aaaa41a9",5,"JOL Version A","EARTH","ground","Study2","S",4012,"34",3226,"ground",100,"ground",1
105,"5f906d9892b0ac120238830b",5,"JOL Version A","EARTH","ground","Study2","S",3648,"85",2652,"round",90.909090909091,"ground",1
105,"w10006036_mlh",5,"JOL Version A","EARTH","ground","Study2","S",4426,"30",3137,"ground ",100,"ground",1
105,"w10045963_lnp",5,"JOL Version A","EARTH","ground","Study2","S",7538,"50",1926,"ground",100,"ground",1
105,"w10046977_ajg",5,"JOL Version A","EARTH","ground","Study2","S",4722,"18",2355,"round",90.909090909091,"ground",1
105,"5f50efe49dd63f29776ce8d6",5,"JOL Version A","EARTH","ground","Study2","S",4575,"65",4792,"ground",100,"ground",1
105,"w995669_AML",5,"JOL Version A","EARTH","ground","Study2","S",1695,"80",3127,"ground",100,"ground",1
105,"w10036134AN",5,"JOL Version A","EARTH","ground","Study2","S",4372,"50",1756,"",0,"ground",0
106,"w10045963_lnp",5,"JOL Version A","ELEMENT","carbon","Study2","S",17042,"75",2493,"carbon",100,"carbon",1
106,"w10046977_ajg",5,"JOL Version A","ELEMENT","carbon","Study2","S",2998,"100",4056,"carbon",100,"carbon",1
106,"5f50efe49dd63f29776ce8d6",5,"JOL Version A","ELEMENT","carbon","Study2","S",2625,"0",4142,"carbon ",100,"carbon",1
106,"5f26b501dd983441aaaa41a9",5,"JOL Version A","ELEMENT","carbon","Study2","S",6239,"44",5356,"fire",20,"carbon",0
106,"w995669_AML",5,"JOL Version A","ELEMENT","carbon","Study2","S",2652,"40",2972,"carbon",100,"carbon",1
106,"w10036134AN",5,"JOL Version A","ELEMENT","carbon","Study2","S",1471,"50",3568,"carbon",100,"carbon",1
106,"5f906d9892b0ac120238830b",5,"JOL Version A","ELEMENT","carbon","Study2","S",6566,"15",1881,"carbon",100,"carbon",1
106,"w10006036_mlh",5,"JOL Version A","ELEMENT","carbon","Study2","S",10648,"40",3751,"carbon",100,"carbon",1
107,"w10045963_lnp",5,"JOL Version A","EVEN","revenge","Study2","B",16050,"30",8880,"equality",13.333333333333,"revenge",0
107,"5f26b501dd983441aaaa41a9",5,"JOL Version A","EVEN","revenge","Study2","B",4802,"15",1462,"",0,"revenge",0
107,"w10006036_mlh",5,"JOL Version A","EVEN","revenge","Study2","B",3475,"0",4911,"revenge ",100,"revenge",1
107,"w10036134AN",5,"JOL Version A","EVEN","revenge","Study2","B",3643,"40",989,"",0,"revenge",0
107,"5f906d9892b0ac120238830b",5,"JOL Version A","EVEN","revenge","Study2","B",2789,"50",2344,"odd",0,"revenge",0
107,"w995669_AML",5,"JOL Version A","EVEN","revenge","Study2","B",3344,"20",3880,"",0,"revenge",0
107,"w10046977_ajg",5,"JOL Version A","EVEN","revenge","Study2","B",5977,"67",6046,"revenge",100,"revenge",1
107,"5f50efe49dd63f29776ce8d6",5,"JOL Version A","EVEN","revenge","Study2","B",2602,"0",2765,"odd",0,"revenge",0
108,"5f26b501dd983441aaaa41a9",5,"JOL Version A","EXTENSION","long","Study2","F",3735,"35",3864,"",0,"long",0
108,"5f906d9892b0ac120238830b",5,"JOL Version A","EXTENSION","long","Study2","F",15267,"40",3484,"line",50,"long",1
108,"w10006036_mlh",5,"JOL Version A","EXTENSION","long","Study2","F",5603,"70",4421,"long",100,"long",1
108,"w10045963_lnp",5,"JOL Version A","EXTENSION","long","Study2","F",5504,"70",1848,"long",100,"long",1
108,"w10046977_ajg",5,"JOL Version A","EXTENSION","long","Study2","F",2806,"50",2287,"longer",80,"long",1
108,"5f50efe49dd63f29776ce8d6",5,"JOL Version A","EXTENSION","long","Study2","F",3829,"10",7339,"length",60,"long",0
108,"w995669_AML",5,"JOL Version A","EXTENSION","long","Study2","F",5002,"0",1787,"",0,"long",0
108,"w10036134AN",5,"JOL Version A","EXTENSION","long","Study2","F",1400,"50",6143,"long",100,"long",1
109,"5f906d9892b0ac120238830b",5,"JOL Version A","FEUD","fight","Study2","F",2783,"55",2115,"fight",100,"fight",1
109,"5f26b501dd983441aaaa41a9",5,"JOL Version A","FEUD","fight","Study2","F",4914,"11",5127,"brawl",0,"fight",0
109,"5f50efe49dd63f29776ce8d6",5,"JOL Version A","FEUD","fight","Study2","F",6064,"70",3540,"fight",100,"fight",1
109,"w10006036_mlh",5,"JOL Version A","FEUD","fight","Study2","F",3956,"40",1598,"",0,"fight",0
109,"w10045963_lnp",5,"JOL Version A","FEUD","fight","Study2","F",2533,"50",1490,"fight",100,"fight",1
109,"w10046977_ajg",5,"JOL Version A","FEUD","fight","Study2","F",1632,"89",2671,"fight",100,"fight",1
109,"w10036134AN",5,"JOL Version A","FEUD","fight","Study2","F",1891,"50",5448,"fight",100,"fight",1
109,"w995669_AML",5,"JOL Version A","FEUD","fight","Study2","F",4208,"30",4066,"fight",100,"fight",1
110,"5f26b501dd983441aaaa41a9",5,"JOL Version A","FIGHT","brawl","Study2","B",8011,"8",3830,"brawl",100,"brawl",1
110,"5f50efe49dd63f29776ce8d6",5,"JOL Version A","FIGHT","brawl","Study2","B",2891,"50",3595,"fury",22.222222222222,"brawl",0
110,"5f906d9892b0ac120238830b",5,"JOL Version A","FIGHT","brawl","Study2","B",1547,"30",4617,"argument",15.384615384615,"brawl",0
110,"w10046977_ajg",5,"JOL Version A","FIGHT","brawl","Study2","B",2770,"98",1760,"feud",0,"brawl",0
110,"w10006036_mlh",5,"JOL Version A","FIGHT","brawl","Study2","B",3036,"30",1630,"",0,"brawl",0
110,"w10036134AN",5,"JOL Version A","FIGHT","brawl","Study2","B",2155,"50",3632,"fued",0,"brawl",0
110,"w10045963_lnp",5,"JOL Version A","FIGHT","brawl","Study2","B",4484,"60",3362,"feud",0,"brawl",0
110,"w995669_AML",5,"JOL Version A","FIGHT","brawl","Study2","B",3412,"90",5733,"brawl",100,"brawl",1
111,"5f26b501dd983441aaaa41a9",5,"JOL Version A","FISH","sardine","Study2","B",7125,"11",2888,"tuna",18.181818181818,"sardine",0
111,"w10045963_lnp",5,"JOL Version A","FISH","sardine","Study2","B",3472,"80",4413,"shrimp",46.153846153846,"sardine",0
111,"w10046977_ajg",5,"JOL Version A","FISH","sardine","Study2","B",1831,"32",2212,"tuna",18.181818181818,"sardine",0
111,"w10036134AN",5,"JOL Version A","FISH","sardine","Study2","B",1996,"50",2131,"tuna",18.181818181818,"sardine",0
111,"5f50efe49dd63f29776ce8d6",5,"JOL Version A","FISH","sardine","Study2","B",4520,"10",4894,"sardine ",100,"sardine",1
111,"5f906d9892b0ac120238830b",5,"JOL Version A","FISH","sardine","Study2","B",3457,"25",2071,"sardine",100,"sardine",1
111,"w995669_AML",5,"JOL Version A","FISH","sardine","Study2","B",3125,"100",12231,"sardine ",100,"sardine",1
111,"w10006036_mlh",5,"JOL Version A","FISH","sardine","Study2","B",10003,"40",60626,"",0,"sardine",0
112,"5f50efe49dd63f29776ce8d6",5,"JOL Version A","FLEA","tick","Study2","S",3886,"30",3418,"tick",100,"tick",1
112,"w10045963_lnp",5,"JOL Version A","FLEA","tick","Study2","S",2494,"70",2280,"tick",100,"tick",1
112,"5f26b501dd983441aaaa41a9",5,"JOL Version A","FLEA","tick","Study2","S",8717,"17",2516,"tick",100,"tick",1
112,"5f906d9892b0ac120238830b",5,"JOL Version A","FLEA","tick","Study2","S",1656,"50",1488,"tick",100,"tick",1
112,"w995669_AML",5,"JOL Version A","FLEA","tick","Study2","S",3449,"40",2041,"tick",100,"tick",1
112,"w10046977_ajg",5,"JOL Version A","FLEA","tick","Study2","S",1936,"99",1936,"tick",100,"tick",1
112,"w10006036_mlh",5,"JOL Version A","FLEA","tick","Study2","S",33676,"90",2893,"tick ",100,"tick",1
112,"w10036134AN",5,"JOL Version A","FLEA","tick","Study2","S",2609,"30",2408,"tick",100,"tick",1
113,"5f50efe49dd63f29776ce8d6",5,"JOL Version A","FRUIT","strawberry","Study2","B",3130,"50",6384,"strawberry ",100,"strawberry",1
113,"w10006036_mlh",5,"JOL Version A","FRUIT","strawberry","Study2","B",3434,"40",3767,"strawberry",100,"strawberry",1
113,"w10046977_ajg",5,"JOL Version A","FRUIT","strawberry","Study2","B",3020,"93",7603,"strawberry",100,"strawberry",1
113,"5f906d9892b0ac120238830b",5,"JOL Version A","FRUIT","strawberry","Study2","B",2890,"80",2917,"strawberry",100,"strawberry",1
113,"5f26b501dd983441aaaa41a9",5,"JOL Version A","FRUIT","strawberry","Study2","B",7571,"13",8343,"",0,"strawberry",0
113,"w10045963_lnp",5,"JOL Version A","FRUIT","strawberry","Study2","B",2638,"40",3162,"strawberry",100,"strawberry",1
113,"w10036134AN",5,"JOL Version A","FRUIT","strawberry","Study2","B",1232,"50",5583,"strawberry",100,"strawberry",1
113,"w995669_AML",5,"JOL Version A","FRUIT","strawberry","Study2","B",3828,"100",4016,"strawberry",100,"strawberry",1
114,"w10046977_ajg",5,"JOL Version A","FURRY","dog","Study2","F",2234,"77",2406,"dog",100,"dog",1
114,"5f906d9892b0ac120238830b",5,"JOL Version A","FURRY","dog","Study2","F",2773,"50",1676,"dog",100,"dog",1
114,"w10006036_mlh",5,"JOL Version A","FURRY","dog","Study2","F",3874,"80",3841,"dog",100,"dog",1
114,"w10036134AN",5,"JOL Version A","FURRY","dog","Study2","F",1335,"50",3170,"dog",100,"dog",1
114,"w10045963_lnp",5,"JOL Version A","FURRY","dog","Study2","F",1701,"40",2770,"dog",100,"dog",1
114,"5f26b501dd983441aaaa41a9",5,"JOL Version A","FURRY","dog","Study2","F",3851,"33",3020,"dog",100,"dog",1
114,"5f50efe49dd63f29776ce8d6",5,"JOL Version A","FURRY","dog","Study2","F",2522,"0",3519,"dog",100,"dog",1
114,"w995669_AML",5,"JOL Version A","FURRY","dog","Study2","F",2545,"90",3086,"dog",100,"dog",1
115,"w10045963_lnp",5,"JOL Version A","FUZZY","bang","Study2","U",2767,"0",1554,"dog",28.571428571429,"bang",0
115,"w10006036_mlh",5,"JOL Version A","FUZZY","bang","Study2","U",5981,"0",2658,"dog",28.571428571429,"bang",0
115,"w10036134AN",5,"JOL Version A","FUZZY","bang","Study2","U",2047,"2",1533,"",0,"bang",0
115,"w10046977_ajg",5,"JOL Version A","FUZZY","bang","Study2","U",3958,"34",2056,"dog",28.571428571429,"bang",0
115,"5f906d9892b0ac120238830b",5,"JOL Version A","FUZZY","bang","Study2","U",1700,"0",2114,"dog",28.571428571429,"bang",0
115,"5f50efe49dd63f29776ce8d6",5,"JOL Version A","FUZZY","bang","Study2","U",2673,"0",3210,"dog",28.571428571429,"bang",0
115,"5f26b501dd983441aaaa41a9",5,"JOL Version A","FUZZY","bang","Study2","U",3699,"14",3161,"dog",28.571428571429,"bang",0
115,"w995669_AML",5,"JOL Version A","FUZZY","bang","Study2","U",2335,"0",1955,"",0,"bang",0
116,"5f906d9892b0ac120238830b",5,"JOL Version A","GIVE","steak","Study2","U",1159,"0",1389,"take",66.666666666667,"steak",0
116,"w10045963_lnp",5,"JOL Version A","GIVE","steak","Study2","U",6994,"0",2782,"take",66.666666666667,"steak",0
116,"5f26b501dd983441aaaa41a9",5,"JOL Version A","GIVE","steak","Study2","U",6063,"6",2616,"",0,"steak",0
116,"5f50efe49dd63f29776ce8d6",5,"JOL Version A","GIVE","steak","Study2","U",2813,"0",6469,"take",66.666666666667,"steak",0
