"Trial.ID","Sub.ID","Condition.Number","Condition.Description","Stimuli.Cue","Stimuli.Answer","Stimuli.Shuffle","Stimuli.Stimuli.Notes","Study.RT","Response.RT.1","Responses","Response.Accuracy","Answer","Scored"
1,"10097621LS",1,"Read Version A","ALLOW","tuck","Study1","U",2205,14044,"tuck",100,"tuck",1
1,"W10106164HPR",1,"Read Version A","ALLOW","tuck","Study1","U",1167,3819,"let",28.571428571429,"tuck",0
1,"w10096966",1,"Read Version A","ALLOW","tuck","Study1","U",1065,1221,"",0,"tuck",0
1,"w10030757JP",1,"Read Version A","ALLOW","tuck","Study1","U",994,717,"",0,"tuck",0
1,"w10076541_mim",1,"Read Version A","ALLOW","tuck","Study1","U",1526,5286,"",0,"tuck",0
1,"w10067789_JT",1,"Read Version A","ALLOW","tuck","Study1","U",1532,19560,"",0,"tuck",0
1,"5f26ad14db44f940a40c86dd",1,"Read Version A","ALLOW","tuck","Study1","U",9000,5367,"",0,"tuck",0
1,"w980000_lf",1,"Read Version A","ALLOW","tuck","Study1","U",1894,4027,"access",20,"tuck",0
1,"w10022439_mlr",1,"Read Version A","ALLOW","tuck","Study1","U",1635,799,"",0,"tuck",0
1,"5d0a90bb7c5110001acaa336",1,"Read Version A","ALLOW","tuck","Study1","U",5162,3683,"",0,"tuck",0
2,"w10096966",1,"Read Version A","ARCHITECTURE","design","Study1","S",8519,2123,"",0,"design",0
2,"w10067789_JT",1,"Read Version A","ARCHITECTURE","design","Study1","S",1924,4128,"build",18.181818181818,"design",0
2,"w10022439_mlr",1,"Read Version A","ARCHITECTURE","design","Study1","S",1047,1018,"",0,"design",0
2,"W10106164HPR",1,"Read Version A","ARCHITECTURE","design","Study1","S",1544,7389,"sculpture",13.333333333333,"design",0
2,"w10030757JP",1,"Read Version A","ARCHITECTURE","design","Study1","S",946,2189,"",0,"design",0
2,"w980000_lf",1,"Read Version A","ARCHITECTURE","design","Study1","S",1389,6783,"building",28.571428571429,"design",0
2,"w10076541_mim",1,"Read Version A","ARCHITECTURE","design","Study1","S",1597,6850,"design",100,"design",1
2,"10097621LS",1,"Read Version A","ARCHITECTURE","design","Study1","S",1032,4380,"build",18.181818181818,"design",0
2,"5d0a90bb7c5110001acaa336",1,"Read Version A","ARCHITECTURE","design","Study1","S",1483,3160,"design",100,"design",1
2,"5f26ad14db44f940a40c86dd",1,"Read Version A","ARCHITECTURE","design","Study1","S",13249,14556,"design",100,"design",1
3,"W10106164HPR",1,"Read Version A","ART","lion","Study1","U",788,13583,"painter",36.363636363636,"lion",0
3,"w10076541_mim",1,"Read Version A","ART","lion","Study1","U",500,1226,"",0,"lion",0
3,"w10067789_JT",1,"Read Version A","ART","lion","Study1","U",1977,3033,"",0,"lion",0
3,"w10022439_mlr",1,"Read Version A","ART","lion","Study1","U",1184,644,"",0,"lion",0
3,"w10096966",1,"Read Version A","ART","lion","Study1","U",1051,4213,"",0,"lion",0
3,"5d0a90bb7c5110001acaa336",1,"Read Version A","ART","lion","Study1","U",6294,17454,"bronze",40,"lion",0
3,"w980000_lf",1,"Read Version A","ART","lion","Study1","U",1654,5568,"",0,"lion",0
3,"w10030757JP",1,"Read Version A","ART","lion","Study1","U",1735,2229,"",0,"lion",0
3,"5f26ad14db44f940a40c86dd",1,"Read Version A","ART","lion","Study1","U",9085,9332,"lion",100,"lion",1
3,"10097621LS",1,"Read Version A","ART","lion","Study1","U",1129,38208,"lion",100,"lion",1
4,"w10096966",1,"Read Version A","ARTERY","bronze","Study1","U",1455,1676,"",0,"bronze",0
4,"w10030757JP",1,"Read Version A","ARTERY","bronze","Study1","U",2198,2773,"heart",18.181818181818,"bronze",0
4,"w10067789_JT",1,"Read Version A","ARTERY","bronze","Study1","U",3613,6775,"bronze",100,"bronze",1
4,"10097621LS",1,"Read Version A","ARTERY","bronze","Study1","U",1007,4571,"clogged",30.769230769231,"bronze",0
4,"W10106164HPR",1,"Read Version A","ARTERY","bronze","Study1","U",1927,18495,"scultpture",25,"bronze",0
4,"w980000_lf",1,"Read Version A","ARTERY","bronze","Study1","U",4596,4449,"bronze",100,"bronze",1
4,"w10076541_mim",1,"Read Version A","ARTERY","bronze","Study1","U",3436,16306,"blood",36.363636363636,"bronze",0
4,"5d0a90bb7c5110001acaa336",1,"Read Version A","ARTERY","bronze","Study1","U",6475,14970,"blood",36.363636363636,"bronze",0
4,"5f26ad14db44f940a40c86dd",1,"Read Version A","ARTERY","bronze","Study1","U",9364,9638,"",0,"bronze",0
4,"w10022439_mlr",1,"Read Version A","ARTERY","bronze","Study1","U",1120,1315,"",0,"bronze",0
5,"W10106164HPR",1,"Read Version A","BABY","child","Study1","S",919,3011,"mother",18.181818181818,"child",0
5,"w980000_lf",1,"Read Version A","BABY","child","Study1","S",1025,6600,"child",100,"child",1
5,"w10076541_mim",1,"Read Version A","BABY","child","Study1","S",1854,8198,"child",100,"child",1
5,"w10096966",1,"Read Version A","BABY","child","Study1","S",1176,4284,"child",100,"child",1
5,"5d0a90bb7c5110001acaa336",1,"Read Version A","BABY","child","Study1","S",2191,7874,"infant",18.181818181818,"child",0
5,"w10030757JP",1,"Read Version A","BABY","child","Study1","S",694,3436,"child",100,"child",1
5,"w10067789_JT",1,"Read Version A","BABY","child","Study1","S",1513,3060,"",0,"child",0
5,"10097621LS",1,"Read Version A","BABY","child","Study1","S",1018,30009,"child",100,"child",1
5,"w10022439_mlr",1,"Read Version A","BABY","child","Study1","S",771,2534,"",0,"child",0
5,"5f26ad14db44f940a40c86dd",1,"Read Version A","BABY","child","Study1","S",1353,9826,"child",100,"child",1
6,"w10076541_mim",1,"Read Version A","BALL","racket","Study1","B",1097,55188,"sport",36.363636363636,"racket",0
6,"w10096966",1,"Read Version A","BALL","racket","Study1","B",1299,5141,"game",40,"racket",0
6,"10097621LS",1,"Read Version A","BALL","racket","Study1","B",950,56358,"bounce",33.333333333333,"racket",0
6,"W10106164HPR",1,"Read Version A","BALL","racket","Study1","B",1173,4832,"dog",0,"racket",0
6,"5f26ad14db44f940a40c86dd",1,"Read Version A","BALL","racket","Study1","B",12496,15071,"racket",100,"racket",1
6,"w10030757JP",1,"Read Version A","BALL","racket","Study1","B",963,3778,"play",20,"racket",0
6,"w980000_lf",1,"Read Version A","BALL","racket","Study1","B",1551,6058,"play",20,"racket",0
6,"5d0a90bb7c5110001acaa336",1,"Read Version A","BALL","racket","Study1","B",3418,2261,"park",40,"racket",0
6,"w10022439_mlr",1,"Read Version A","BALL","racket","Study1","B",1010,4791,"catcher",30.769230769231,"racket",0
6,"w10067789_JT",1,"Read Version A","BALL","racket","Study1","B",2164,3494,"",0,"racket",0
7,"w10096966",1,"Read Version A","BATHROOM","toilet","Study1","S",1172,4760,"toilett",92.307692307692,"toilet",1
7,"10097621LS",1,"Read Version A","BATHROOM","toilet","Study1","S",1512,32996,"toilet",100,"toilet",1
7,"W10106164HPR",1,"Read Version A","BATHROOM","toilet","Study1","S",923,7552,"toilet",100,"toilet",1
7,"w980000_lf",1,"Read Version A","BATHROOM","toilet","Study1","S",3468,8443,"sink",20,"toilet",0
7,"w10076541_mim",1,"Read Version A","BATHROOM","toilet","Study1","S",133,3103,"",0,"toilet",0
7,"w10067789_JT",1,"Read Version A","BATHROOM","toilet","Study1","S",2017,2612,"",0,"toilet",0
7,"5d0a90bb7c5110001acaa336",1,"Read Version A","BATHROOM","toilet","Study1","S",2327,2395,"toilet",100,"toilet",1
7,"5f26ad14db44f940a40c86dd",1,"Read Version A","BATHROOM","toilet","Study1","S",1714,4854,"toilet",100,"toilet",1
7,"w10030757JP",1,"Read Version A","BATHROOM","toilet","Study1","S",965,2114,"toilet",100,"toilet",1
7,"w10022439_mlr",1,"Read Version A","BATHROOM","toilet","Study1","S",1299,1258,"",0,"toilet",0
8,"w10096966",1,"Read Version A","BEGIN","end","Study1","S",1716,4096,"end",100,"end",1
8,"10097621LS",1,"Read Version A","BEGIN","end","Study1","S",1515,59454,"end",100,"end",1
8,"w980000_lf",1,"Read Version A","BEGIN","end","Study1","S",1669,2549,"end",100,"end",1
8,"w10030757JP",1,"Read Version A","BEGIN","end","Study1","S",1345,1217,"end",100,"end",1
8,"W10106164HPR",1,"Read Version A","BEGIN","end","Study1","S",1163,3338,"end",100,"end",1
8,"5d0a90bb7c5110001acaa336",1,"Read Version A","BEGIN","end","Study1","S",2079,1588,"end",100,"end",1
8,"5f26ad14db44f940a40c86dd",1,"Read Version A","BEGIN","end","Study1","S",2821,44594,"end",100,"end",1
8,"w10067789_JT",1,"Read Version A","BEGIN","end","Study1","S",1529,1876,"end",100,"end",1
8,"w10022439_mlr",1,"Read Version A","BEGIN","end","Study1","S",1323,1612,"end",100,"end",1
8,"w10076541_mim",1,"Read Version A","BEGIN","end","Study1","S",1954,3665,"end",100,"end",1
9,"w10030757JP",1,"Read Version A","BITTER","cold","Study1","F",906,1617,"sour",25,"cold",0
9,"10097621LS",1,"Read Version A","BITTER","cold","Study1","F",1084,3330,"sweet",0,"cold",0
9,"5f26ad14db44f940a40c86dd",1,"Read Version A","BITTER","cold","Study1","F",6926,22347,"",0,"cold",0
9,"w10067789_JT",1,"Read Version A","BITTER","cold","Study1","F",1495,2010,"",0,"cold",0
9,"W10106164HPR",1,"Read Version A","BITTER","cold","Study1","F",893,4619,"sweet",0,"cold",0
9,"w10022439_mlr",1,"Read Version A","BITTER","cold","Study1","F",1463,2059,"",0,"cold",0
9,"w10076541_mim",1,"Read Version A","BITTER","cold","Study1","F",1183,3087,"",0,"cold",0
9,"5d0a90bb7c5110001acaa336",1,"Read Version A","BITTER","cold","Study1","F",2156,2016,"sweet",0,"cold",0
9,"w10096966",1,"Read Version A","BITTER","cold","Study1","F",1608,3785,"cold",100,"cold",1
9,"w980000_lf",1,"Read Version A","BITTER","cold","Study1","F",4844,2804,"cold",100,"cold",1
10,"5d0a90bb7c5110001acaa336",1,"Read Version A","BLOW","wind","Study1","S",2412,6810,"",0,"wind",0
10,"w10022439_mlr",1,"Read Version A","BLOW","wind","Study1","S",950,840,"",0,"wind",0
10,"5f26ad14db44f940a40c86dd",1,"Read Version A","BLOW","wind","Study1","S",6729,7864,"wind",100,"wind",1
10,"10097621LS",1,"Read Version A","BLOW","wind","Study1","S",1188,9606,"wind",100,"wind",1
10,"w10096966",1,"Read Version A","BLOW","wind","Study1","S",1098,1306,"",0,"wind",0
10,"w10030757JP",1,"Read Version A","BLOW","wind","Study1","S",723,1423,"",0,"wind",0
10,"w10076541_mim",1,"Read Version A","BLOW","wind","Study1","S",378,1686,"",0,"wind",0
10,"w980000_lf",1,"Read Version A","BLOW","wind","Study1","S",4812,4437,"fish",25,"wind",0
10,"W10106164HPR",1,"Read Version A","BLOW","wind","Study1","S",1064,2575,"wind",100,"wind",1
10,"w10067789_JT",1,"Read Version A","BLOW","wind","Study1","S",1486,1420,"",0,"wind",0
11,"w10030757JP",1,"Read Version A","BRIDGE","water","Study1","F",1193,1861,"",0,"water",0
11,"5f26ad14db44f940a40c86dd",1,"Read Version A","BRIDGE","water","Study1","F",3271,4370,"water",100,"water",1
11,"W10106164HPR",1,"Read Version A","BRIDGE","water","Study1","F",1009,2780,"water",100,"water",1
11,"10097621LS",1,"Read Version A","BRIDGE","water","Study1","F",940,6368,"cross",20,"water",0
11,"w10022439_mlr",1,"Read Version A","BRIDGE","water","Study1","F",1087,3834,"water",100,"water",1
11,"w10076541_mim",1,"Read Version A","BRIDGE","water","Study1","F",1035,7357,"link",0,"water",0
11,"w10096966",1,"Read Version A","BRIDGE","water","Study1","F",1490,4260,"",0,"water",0
11,"5d0a90bb7c5110001acaa336",1,"Read Version A","BRIDGE","water","Study1","F",2530,2279,"water",100,"water",1
11,"w10067789_JT",1,"Read Version A","BRIDGE","water","Study1","F",1789,1855,"",0,"water",0
11,"w980000_lf",1,"Read Version A","BRIDGE","water","Study1","F",2900,2735,"water",100,"water",1
12,"5d0a90bb7c5110001acaa336",1,"Read Version A","BUG","wasp","Study1","B",2915,2424,"wasp",100,"wasp",1
12,"5f26ad14db44f940a40c86dd",1,"Read Version A","BUG","wasp","Study1","B",1689,11493,"bees",25,"wasp",0
12,"10097621LS",1,"Read Version A","BUG","wasp","Study1","B",968,8802,"wasp",100,"wasp",1
12,"w10022439_mlr",1,"Read Version A","BUG","wasp","Study1","B",4127,737,"",0,"wasp",0
12,"w10030757JP",1,"Read Version A","BUG","wasp","Study1","B",1097,2503,"",0,"wasp",0
12,"w10076541_mim",1,"Read Version A","BUG","wasp","Study1","B",984,5356,"wasp",100,"wasp",1
12,"w980000_lf",1,"Read Version A","BUG","wasp","Study1","B",1462,10495,"wasp",100,"wasp",1
12,"W10106164HPR",1,"Read Version A","BUG","wasp","Study1","B",932,8824,"insect ",20,"wasp",0
12,"w10067789_JT",1,"Read Version A","BUG","wasp","Study1","B",1645,5849,"wasp",100,"wasp",1
12,"w10096966",1,"Read Version A","BUG","wasp","Study1","B",1165,18813,"",0,"wasp",0
13,"5f26ad14db44f940a40c86dd",1,"Read Version A","CASH","would","Study1","U",2279,21964,"money",20,"would",0
13,"w10030757JP",1,"Read Version A","CASH","would","Study1","U",705,2993,"card",22.222222222222,"would",0
13,"10097621LS",1,"Read Version A","CASH","would","Study1","U",1131,2161,"money",20,"would",0
13,"w10022439_mlr",1,"Read Version A","CASH","would","Study1","U",920,1426,"",0,"would",0
13,"w10076541_mim",1,"Read Version A","CASH","would","Study1","U",846,2056,"",0,"would",0
13,"W10106164HPR",1,"Read Version A","CASH","would","Study1","U",943,3502,"value",20,"would",0
13,"5d0a90bb7c5110001acaa336",1,"Read Version A","CASH","would","Study1","U",3063,4262,"would",100,"would",1
13,"w10067789_JT",1,"Read Version A","CASH","would","Study1","U",4468,6529,"",0,"would",0
13,"w10096966",1,"Read Version A","CASH","would","Study1","U",3981,6690,"money",20,"would",0
13,"w980000_lf",1,"Read Version A","CASH","would","Study1","U",1286,4353,"money",20,"would",0
14,"5f26ad14db44f940a40c86dd",1,"Read Version A","CHISEL","hammer","Study1","F",9318,5906,"hammer",100,"hammer",1
14,"w10076541_mim",1,"Read Version A","CHISEL","hammer","Study1","F",1013,6001,"break",18.181818181818,"hammer",0
14,"5d0a90bb7c5110001acaa336",1,"Read Version A","CHISEL","hammer","Study1","F",1762,4025,"statue",33.333333333333,"hammer",0
14,"w10030757JP",1,"Read Version A","CHISEL","hammer","Study1","F",1569,3102,"",0,"hammer",0
14,"W10106164HPR",1,"Read Version A","CHISEL","hammer","Study1","F",2066,29412,"cycle",18.181818181818,"hammer",0
14,"10097621LS",1,"Read Version A","CHISEL","hammer","Study1","F",1029,8508,"hammer",100,"hammer",1
14,"w10022439_mlr",1,"Read Version A","CHISEL","hammer","Study1","F",879,2427,"",0,"hammer",0
14,"w10067789_JT",1,"Read Version A","CHISEL","hammer","Study1","F",1829,2554,"hammer",100,"hammer",1
14,"w980000_lf",1,"Read Version A","CHISEL","hammer","Study1","F",2001,3051,"hammer",100,"hammer",1
14,"w10096966",1,"Read Version A","CHISEL","hammer","Study1","F",1204,1559,"",0,"hammer",0
15,"5d0a90bb7c5110001acaa336",1,"Read Version A","CIRCLE","round","Study1","S",1140,2110,"round",100,"round",1
15,"W10106164HPR",1,"Read Version A","CIRCLE","round","Study1","S",1452,11879,"square",18.181818181818,"round",0
15,"w10022439_mlr",1,"Read Version A","CIRCLE","round","Study1","S",1808,2184,"round",100,"round",1
15,"5f26ad14db44f940a40c86dd",1,"Read Version A","CIRCLE","round","Study1","S",6347,7822,"round",100,"round",1
15,"10097621LS",1,"Read Version A","CIRCLE","round","Study1","S",1008,22316,"round",100,"round",1
15,"w10067789_JT",1,"Read Version A","CIRCLE","round","Study1","S",2014,2524,"round",100,"round",1
15,"w10030757JP",1,"Read Version A","CIRCLE","round","Study1","S",867,1844,"round",100,"round",1
15,"w980000_lf",1,"Read Version A","CIRCLE","round","Study1","S",3091,3346,"shape",0,"round",0
15,"w10076541_mim",1,"Read Version A","CIRCLE","round","Study1","S",5985,1004,"",0,"round",0
15,"w10096966",1,"Read Version A","CIRCLE","round","Study1","S",1271,1116,"",0,"round",0
16,"5d0a90bb7c5110001acaa336",1,"Read Version A","CLOTHES","attire","Study1","B",2270,5168,"wear",20,"attire",0
16,"w10022439_mlr",1,"Read Version A","CLOTHES","attire","Study1","B",1409,2253,"attire",100,"attire",1
16,"w980000_lf",1,"Read Version A","CLOTHES","attire","Study1","B",1536,5453,"shirt",36.363636363636,"attire",0
16,"w10067789_JT",1,"Read Version A","CLOTHES","attire","Study1","B",1886,3873,"attire",100,"attire",1
16,"5f26ad14db44f940a40c86dd",1,"Read Version A","CLOTHES","attire","Study1","B",19601,16027,"attire",100,"attire",1
16,"w10096966",1,"Read Version A","CLOTHES","attire","Study1","B",1159,2335,"",0,"attire",0
16,"w10030757JP",1,"Read Version A","CLOTHES","attire","Study1","B",1447,2383,"attire",100,"attire",1
16,"10097621LS",1,"Read Version A","CLOTHES","attire","Study1","B",1222,16370,"attire",100,"attire",1
16,"w10076541_mim",1,"Read Version A","CLOTHES","attire","Study1","B",645,9439,"cover",18.181818181818,"attire",0
16,"W10106164HPR",1,"Read Version A","CLOTHES","attire","Study1","B",1139,5886,"body",0,"attire",0
17,"5f26ad14db44f940a40c86dd",1,"Read Version A","CREDIT","card","Study1","F",2328,11129,"card",100,"card",1
17,"w10022439_mlr",1,"Read Version A","CREDIT","card","Study1","F",908,1783,"card",100,"card",1
17,"10097621LS",1,"Read Version A","CREDIT","card","Study1","F",1096,53388,"card",100,"card",1
17,"w10067789_JT",1,"Read Version A","CREDIT","card","Study1","F",2176,2452,"card",100,"card",1
17,"w10030757JP",1,"Read Version A","CREDIT","card","Study1","F",1024,1692,"card",100,"card",1
17,"w980000_lf",1,"Read Version A","CREDIT","card","Study1","F",2716,7445,"money",0,"card",0
17,"w10096966",1,"Read Version A","CREDIT","card","Study1","F",4127,2875,"card",100,"card",1
17,"w10076541_mim",1,"Read Version A","CREDIT","card","Study1","F",739,4475,"card",100,"card",1
17,"5d0a90bb7c5110001acaa336",1,"Read Version A","CREDIT","card","Study1","F",1716,1783,"card",100,"card",1
17,"W10106164HPR",1,"Read Version A","CREDIT","card","Study1","F",954,1907,"card",100,"card",1
18,"5f26ad14db44f940a40c86dd",1,"Read Version A","DARK","cave","Study1","B",6311,16077,"cave",100,"cave",1
18,"10097621LS",1,"Read Version A","DARK","cave","Study1","B",965,2185,"light",0,"cave",0
18,"w10030757JP",1,"Read Version A","DARK","cave","Study1","B",1350,3732,"light",0,"cave",0
18,"w10076541_mim",1,"Read Version A","DARK","cave","Study1","B",756,5025,"night",0,"cave",0
18,"w980000_lf",1,"Read Version A","DARK","cave","Study1","B",2482,5953,"night",0,"cave",0
18,"5d0a90bb7c5110001acaa336",1,"Read Version A","DARK","cave","Study1","B",3229,2024,"cave",100,"cave",1
18,"w10067789_JT",1,"Read Version A","DARK","cave","Study1","B",2067,2837,"cave",100,"cave",1
18,"W10106164HPR",1,"Read Version A","DARK","cave","Study1","B",886,7687,"light",0,"cave",0
18,"w10022439_mlr",1,"Read Version A","DARK","cave","Study1","B",1177,879,"",0,"cave",0
18,"w10096966",1,"Read Version A","DARK","cave","Study1","B",1174,3223,"",0,"cave",0
19,"5f26ad14db44f940a40c86dd",1,"Read Version A","DEATH","business","Study1","U",22192,22529,"end",18.181818181818,"business",0
19,"5d0a90bb7c5110001acaa336",1,"Read Version A","DEATH","business","Study1","U",2913,2993,"business",100,"business",1
19,"w10030757JP",1,"Read Version A","DEATH","business","Study1","U",1166,1251,"",0,"business",0
19,"W10106164HPR",1,"Read Version A","DEATH","business","Study1","U",1125,4014,"buisness",87.5,"business",1
19,"10097621LS",1,"Read Version A","DEATH","business","Study1","U",1118,43809,"business",100,"business",1
19,"w10022439_mlr",1,"Read Version A","DEATH","business","Study1","U",2200,1031,"",0,"business",0
19,"w10076541_mim",1,"Read Version A","DEATH","business","Study1","U",730,16189,"coffin",28.571428571429,"business",0
19,"w980000_lf",1,"Read Version A","DEATH","business","Study1","U",2170,13970,"",0,"business",0
19,"w10067789_JT",1,"Read Version A","DEATH","business","Study1","U",3849,6923,"business",100,"business",1
19,"w10096966",1,"Read Version A","DEATH","business","Study1","U",1050,8028,"",0,"business",0
20,"5f26ad14db44f940a40c86dd",1,"Read Version A","DEBATE","sight","Study1","U",3180,3819,"",0,"sight",0
20,"w10022439_mlr",1,"Read Version A","DEBATE","sight","Study1","U",1738,891,"",0,"sight",0
20,"w10030757JP",1,"Read Version A","DEBATE","sight","Study1","U",1630,3198,"team",22.222222222222,"sight",0
20,"10097621LS",1,"Read Version A","DEBATE","sight","Study1","U",1112,30143,"sight",100,"sight",1
20,"5d0a90bb7c5110001acaa336",1,"Read Version A","DEBATE","sight","Study1","U",3202,3064,"",0,"sight",0
20,"w10067789_JT",1,"Read Version A","DEBATE","sight","Study1","U",6367,4938,"",0,"sight",0
20,"w10076541_mim",1,"Read Version A","DEBATE","sight","Study1","U",1327,3272,"",0,"sight",0
20,"w980000_lf",1,"Read Version A","DEBATE","sight","Study1","U",3762,22604,"sight",100,"sight",1
20,"w10096966",1,"Read Version A","DEBATE","sight","Study1","U",1373,1695,"",0,"sight",0
20,"W10106164HPR",1,"Read Version A","DEBATE","sight","Study1","U",1143,10511,"discuse",16.666666666667,"sight",0
21,"10097621LS",1,"Read Version A","DELINQUENT","bad","Study1","F",1237,42089,"bad",100,"bad",1
21,"w10030757JP",1,"Read Version A","DELINQUENT","bad","Study1","F",1782,2042,"bad",100,"bad",1
21,"w10076541_mim",1,"Read Version A","DELINQUENT","bad","Study1","F",705,7636,"crime",0,"bad",0
21,"5d0a90bb7c5110001acaa336",1,"Read Version A","DELINQUENT","bad","Study1","F",2862,1471,"bad",100,"bad",1
21,"5f26ad14db44f940a40c86dd",1,"Read Version A","DELINQUENT","bad","Study1","F",25272,3782,"bad",100,"bad",1
21,"w10067789_JT",1,"Read Version A","DELINQUENT","bad","Study1","F",2333,2013,"bad",100,"bad",1
21,"W10106164HPR",1,"Read Version A","DELINQUENT","bad","Study1","F",1377,3131,"bad",100,"bad",1
21,"w980000_lf",1,"Read Version A","DELINQUENT","bad","Study1","F",1726,3575,"bad",100,"bad",1
21,"w10022439_mlr",1,"Read Version A","DELINQUENT","bad","Study1","F",935,1483,"",0,"bad",0
21,"w10096966",1,"Read Version A","DELINQUENT","bad","Study1","F",2898,6817,"",0,"bad",0
22,"5f26ad14db44f940a40c86dd",1,"Read Version A","DIETARY","sacking","Study1","U",35120,25454,"food",0,"sacking",0
22,"w10076541_mim",1,"Read Version A","DIETARY","sacking","Study1","U",660,5034,"",0,"sacking",0
22,"10097621LS",1,"Read Version A","DIETARY","sacking","Study1","U",1266,24870,"saking",92.307692307692,"sacking",1
22,"5d0a90bb7c5110001acaa336",1,"Read Version A","DIETARY","sacking","Study1","U",8579,19542,"",0,"sacking",0
22,"w10030757JP",1,"Read Version A","DIETARY","sacking","Study1","U",1263,1564,"food",0,"sacking",0
22,"w10096966",1,"Read Version A","DIETARY","sacking","Study1","U",10163,1865,"",0,"sacking",0
22,"W10106164HPR",1,"Read Version A","DIETARY","sacking","Study1","U",1402,7599,"woman",33.333333333333,"sacking",0
22,"w10022439_mlr",1,"Read Version A","DIETARY","sacking","Study1","U",3811,6029,"snacking",93.333333333333,"sacking",1
22,"w10067789_JT",1,"Read Version A","DIETARY","sacking","Study1","U",6065,5423,"",0,"sacking",0
22,"w980000_lf",1,"Read Version A","DIETARY","sacking","Study1","U",3592,2843,"food",0,"sacking",0
23,"5d0a90bb7c5110001acaa336",1,"Read Version A","DIGESTION","stomach","Study1","F",2205,12181,"stomach",100,"stomach",1
23,"5f26ad14db44f940a40c86dd",1,"Read Version A","DIGESTION","stomach","Study1","F",1921,6765,"stomach",100,"stomach",1
23,"10097621LS",1,"Read Version A","DIGESTION","stomach","Study1","F",1187,9245,"stomach ",100,"stomach",1
23,"w10022439_mlr",1,"Read Version A","DIGESTION","stomach","Study1","F",1189,3651,"immune",15.384615384615,"stomach",0
23,"w10030757JP",1,"Read Version A","DIGESTION","stomach","Study1","F",2316,3538,"stomach",100,"stomach",1
23,"W10106164HPR",1,"Read Version A","DIGESTION","stomach","Study1","F",2825,5527,"stomach ",100,"stomach",1
23,"w980000_lf",1,"Read Version A","DIGESTION","stomach","Study1","F",2140,3630,"food",18.181818181818,"stomach",0
23,"w10067789_JT",1,"Read Version A","DIGESTION","stomach","Study1","F",2155,5259,"stomach",100,"stomach",1
23,"w10076541_mim",1,"Read Version A","DIGESTION","stomach","Study1","F",1958,9399,"stomach",100,"stomach",1
23,"w10096966",1,"Read Version A","DIGESTION","stomach","Study1","F",2480,1220,"",0,"stomach",0
24,"5d0a90bb7c5110001acaa336",1,"Read Version A","DISCOVER","floor","Study1","U",1640,2002,"find",22.222222222222,"floor",0
24,"5f26ad14db44f940a40c86dd",1,"Read Version A","DISCOVER","floor","Study1","U",13284,11518,"",0,"floor",0
24,"w980000_lf",1,"Read Version A","DISCOVER","floor","Study1","U",2529,3850,"find",22.222222222222,"floor",0
24,"w10022439_mlr",1,"Read Version A","DISCOVER","floor","Study1","U",989,2484,"",0,"floor",0
24,"w10030757JP",1,"Read Version A","DISCOVER","floor","Study1","U",1743,1684,"find",22.222222222222,"floor",0
24,"10097621LS",1,"Read Version A","DISCOVER","floor","Study1","U",1098,58037,"floor",100,"floor",1
24,"w10067789_JT",1,"Read Version A","DISCOVER","floor","Study1","U",2000,2409,"find",22.222222222222,"floor",0
24,"w10076541_mim",1,"Read Version A","DISCOVER","floor","Study1","U",2148,5169,"seek",0,"floor",0
24,"w10096966",1,"Read Version A","DISCOVER","floor","Study1","U",1899,991,"",0,"floor",0
24,"W10106164HPR",1,"Read Version A","DISCOVER","floor","Study1","U",1099,3953,"search",18.181818181818,"floor",0
25,"5d0a90bb7c5110001acaa336",1,"Read Version A","DISCUSSION","talk","Study1","F",3338,2531,"talk",100,"talk",1
25,"w10022439_mlr",1,"Read Version A","DISCUSSION","talk","Study1","F",1861,1547,"",0,"talk",0
25,"5f26ad14db44f940a40c86dd",1,"Read Version A","DISCUSSION","talk","Study1","F",7663,15734,"talk",100,"talk",1
25,"w10067789_JT",1,"Read Version A","DISCUSSION","talk","Study1","F",1482,5244,"question",16.666666666667,"talk",0
25,"w10030757JP",1,"Read Version A","DISCUSSION","talk","Study1","F",993,1783,"",0,"talk",0
25,"w980000_lf",1,"Read Version A","DISCUSSION","talk","Study1","F",3482,2574,"talk",100,"talk",1
25,"10097621LS",1,"Read Version A","DISCUSSION","talk","Study1","F",1087,43669,"talk",100,"talk",1
25,"w10096966",1,"Read Version A","DISCUSSION","talk","Study1","F",1847,990,"",0,"talk",0
25,"w10076541_mim",1,"Read Version A","DISCUSSION","talk","Study1","F",1303,3301,"",0,"talk",0
25,"W10106164HPR",1,"Read Version A","DISCUSSION","talk","Study1","F",1306,3737,"make",50,"talk",0
26,"5f26ad14db44f940a40c86dd",1,"Read Version A","DRINK","sip","Study1","B",9407,10588,"sip",100,"sip",1
26,"w10030757JP",1,"Read Version A","DRINK","sip","Study1","B",1043,1735,"",0,"sip",0
26,"10097621LS",1,"Read Version A","DRINK","sip","Study1","B",990,42400,"sip",100,"sip",1
26,"w10022439_mlr",1,"Read Version A","DRINK","sip","Study1","B",1517,1590,"",0,"sip",0
26,"w10076541_mim",1,"Read Version A","DRINK","sip","Study1","B",3176,8338,"eat",0,"sip",0
26,"w980000_lf",1,"Read Version A","DRINK","sip","Study1","B",2096,4687,"water",0,"sip",0
26,"5d0a90bb7c5110001acaa336",1,"Read Version A","DRINK","sip","Study1","B",3026,10765,"",0,"sip",0
26,"w10067789_JT",1,"Read Version A","DRINK","sip","Study1","B",1727,3035,"sip",100,"sip",1
26,"W10106164HPR",1,"Read Version A","DRINK","sip","Study1","B",954,6908,"eat",0,"sip",0
26,"w10096966",1,"Read Version A","DRINK","sip","Study1","B",1014,2276,"",0,"sip",0
27,"10097621LS",1,"Read Version A","DUE","assignment","Study1","S",1081,4465,"date",28.571428571429,"assignment",0
27,"w10076541_mim",1,"Read Version A","DUE","assignment","Study1","S",1539,5049,"date",28.571428571429,"assignment",0
27,"5f26ad14db44f940a40c86dd",1,"Read Version A","DUE","assignment","Study1","S",71411,8482,"assignment",100,"assignment",1
27,"w10030757JP",1,"Read Version A","DUE","assignment","Study1","S",1053,2224,"date",28.571428571429,"assignment",0
27,"W10106164HPR",1,"Read Version A","DUE","assignment","Study1","S",1124,16732,"late",28.571428571429,"assignment",0
27,"5d0a90bb7c5110001acaa336",1,"Read Version A","DUE","assignment","Study1","S",1809,3370,"assignment",100,"assignment",1
27,"w10022439_mlr",1,"Read Version A","DUE","assignment","Study1","S",873,2089,"date",28.571428571429,"assignment",0
27,"w10067789_JT",1,"Read Version A","DUE","assignment","Study1","S",1540,4526,"assignment",100,"assignment",1
27,"w980000_lf",1,"Read Version A","DUE","assignment","Study1","S",1894,4073,"date",28.571428571429,"assignment",0
27,"w10096966",1,"Read Version A","DUE","assignment","Study1","S",1043,1049,"",0,"assignment",0
28,"5f26ad14db44f940a40c86dd",1,"Read Version A","DUMP","waste","Study1","S",1511,8703,"waste",100,"waste",1
28,"10097621LS",1,"Read Version A","DUMP","waste","Study1","S",1011,26130,"waste",100,"waste",1
28,"w10030757JP",1,"Read Version A","DUMP","waste","Study1","S",656,2344,"truck",20,"waste",0
28,"5d0a90bb7c5110001acaa336",1,"Read Version A","DUMP","waste","Study1","S",3330,4320,"waste",100,"waste",1
28,"W10106164HPR",1,"Read Version A","DUMP","waste","Study1","S",1336,6394,"trump",20,"waste",0
28,"w10022439_mlr",1,"Read Version A","DUMP","waste","Study1","S",1441,938,"",0,"waste",0
28,"w10067789_JT",1,"Read Version A","DUMP","waste","Study1","S",1481,3268,"truck",20,"waste",0
28,"w10076541_mim",1,"Read Version A","DUMP","waste","Study1","S",1416,12549,"truck",20,"waste",0
28,"w980000_lf",1,"Read Version A","DUMP","waste","Study1","S",2406,5190,"leave",20,"waste",0
28,"w10096966",1,"Read Version A","DUMP","waste","Study1","S",1107,1099,"",0,"waste",0
29,"w10030757JP",1,"Read Version A","EDITOR","news","Study1","F",1192,2060,"",0,"news",0
29,"10097621LS",1,"Read Version A","EDITOR","news","Study1","F",1333,63419,"news",100,"news",1
29,"5f26ad14db44f940a40c86dd",1,"Read Version A","EDITOR","news","Study1","F",7554,6612,"",0,"news",0
29,"5d0a90bb7c5110001acaa336",1,"Read Version A","EDITOR","news","Study1","F",1992,7391,"news",100,"news",1
29,"w980000_lf",1,"Read Version A","EDITOR","news","Study1","F",1740,3253,"news",100,"news",1
29,"w10022439_mlr",1,"Read Version A","EDITOR","news","Study1","F",1386,2385,"news",100,"news",1
29,"w10076541_mim",1,"Read Version A","EDITOR","news","Study1","F",1311,7816,"newspaper",61.538461538462,"news",0
29,"W10106164HPR",1,"Read Version A","EDITOR","news","Study1","F",1337,2942,"writer",20,"news",0
29,"w10067789_JT",1,"Read Version A","EDITOR","news","Study1","F",1514,5850,"news",100,"news",1
29,"w10096966",1,"Read Version A","EDITOR","news","Study1","F",1714,1470,"",0,"news",0
30,"w10076541_mim",1,"Read Version A","FIRE","blaze","Study1","B",1512,17762,"house",20,"blaze",0
30,"w10030757JP",1,"Read Version A","FIRE","blaze","Study1","B",948,4502,"truck",0,"blaze",0
30,"W10106164HPR",1,"Read Version A","FIRE","blaze","Study1","B",1879,4981,"burn",22.222222222222,"blaze",0
30,"5f26ad14db44f940a40c86dd",1,"Read Version A","FIRE","blaze","Study1","B",2947,7252,"blaze",100,"blaze",1
30,"w10022439_mlr",1,"Read Version A","FIRE","blaze","Study1","B",1054,1517,"",0,"blaze",0
30,"w10067789_JT",1,"Read Version A","FIRE","blaze","Study1","B",1690,4299,"hot",0,"blaze",0
30,"w980000_lf",1,"Read Version A","FIRE","blaze","Study1","B",2791,9450,"water",40,"blaze",0
30,"10097621LS",1,"Read Version A","FIRE","blaze","Study1","B",1055,42025,"blaze",100,"blaze",1
30,"w10096966",1,"Read Version A","FIRE","blaze","Study1","B",2222,6201,"",0,"blaze",0
30,"5d0a90bb7c5110001acaa336",1,"Read Version A","FIRE","blaze","Study1","B",2600,2983,"heat",22.222222222222,"blaze",0
31,"w10030757JP",1,"Read Version A","FIX","hand","Study1","U",796,915,"",0,"hand",0
31,"w10067789_JT",1,"Read Version A","FIX","hand","Study1","U",2714,2802,"hand",100,"hand",1
31,"w10076541_mim",1,"Read Version A","FIX","hand","Study1","U",1207,13488,"solve",0,"hand",0
31,"10097621LS",1,"Read Version A","FIX","hand","Study1","U",1091,3716,"solve",0,"hand",0
31,"5d0a90bb7c5110001acaa336",1,"Read Version A","FIX","hand","Study1","U",3365,1902,"hand",100,"hand",1
31,"w10096966",1,"Read Version A","FIX","hand","Study1","U",1210,1449,"",0,"hand",0
31,"W10106164HPR",1,"Read Version A","FIX","hand","Study1","U",1317,3012,"repair",20,"hand",0
31,"w10022439_mlr",1,"Read Version A","FIX","hand","Study1","U",1158,1237,"",0,"hand",0
31,"5f26ad14db44f940a40c86dd",1,"Read Version A","FIX","hand","Study1","U",2047,2833,"",0,"hand",0
31,"w980000_lf",1,"Read Version A","FIX","hand","Study1","U",2145,4270,"repair",20,"hand",0
32,"w10022439_mlr",1,"Read Version A","FULL","enough","Study1","B",3036,1478,"",0,"enough",0
32,"w10076541_mim",1,"Read Version A","FULL","enough","Study1","B",870,8699,"glass",18.181818181818,"enough",0
32,"5d0a90bb7c5110001acaa336",1,"Read Version A","FULL","enough","Study1","B",1905,6128,"enough",100,"enough",1
32,"w10030757JP",1,"Read Version A","FULL","enough","Study1","B",1000,3155,"tank",20,"enough",0
32,"w10096966",1,"Read Version A","FULL","enough","Study1","B",1240,993,"",0,"enough",0
32,"W10106164HPR",1,"Read Version A","FULL","enough","Study1","B",1210,8114,"bottle",16.666666666667,"enough",0
32,"w980000_lf",1,"Read Version A","FULL","enough","Study1","B",2333,4019,"",0,"enough",0
32,"w10067789_JT",1,"Read Version A","FULL","enough","Study1","B",2492,3163,"enough",100,"enough",1
32,"5f26ad14db44f940a40c86dd",1,"Read Version A","FULL","enough","Study1","B",6448,14839,"enough",100,"enough",1
32,"10097621LS",1,"Read Version A","FULL","enough","Study1","B",1157,40970,"enough",100,"enough",1
33,"w10067789_JT",1,"Read Version A","GEOLOGY","rock","Study1","F",2340,3345,"rock",100,"rock",1
33,"w10022439_mlr",1,"Read Version A","GEOLOGY","rock","Study1","F",1154,1870,"rock",100,"rock",1
33,"10097621LS",1,"Read Version A","GEOLOGY","rock","Study1","F",1099,23587,"rock",100,"rock",1
33,"w10030757JP",1,"Read Version A","GEOLOGY","rock","Study1","F",1945,1861,"rock",100,"rock",1
33,"W10106164HPR",1,"Read Version A","GEOLOGY","rock","Study1","F",2528,2027,"rock",100,"rock",1
33,"w980000_lf",1,"Read Version A","GEOLOGY","rock","Study1","F",1931,7925,"rock",100,"rock",1
33,"w10076541_mim",1,"Read Version A","GEOLOGY","rock","Study1","F",1241,12296,"rocks",88.888888888889,"rock",1
33,"5d0a90bb7c5110001acaa336",1,"Read Version A","GEOLOGY","rock","Study1","F",3265,1943,"rock",100,"rock",1
33,"w10096966",1,"Read Version A","GEOLOGY","rock","Study1","F",2572,1595,"",0,"rock",0
33,"5f26ad14db44f940a40c86dd",1,"Read Version A","GEOLOGY","rock","Study1","F",2220,13851,"rocks",88.888888888889,"rock",1
34,"w10030757JP",1,"Read Version A","GREAT","fantastic","Study1","B",638,1454,"big",16.666666666667,"fantastic",0
34,"w10076541_mim",1,"Read Version A","GREAT","fantastic","Study1","B",539,1289,"",0,"fantastic",0
34,"w980000_lf",1,"Read Version A","GREAT","fantastic","Study1","B",2710,5513,"fantastic",100,"fantastic",1
34,"w10067789_JT",1,"Read Version A","GREAT","fantastic","Study1","B",1634,4728,"fantastic",100,"fantastic",1
34,"W10106164HPR",1,"Read Version A","GREAT","fantastic","Study1","B",1092,3959,"end",16.666666666667,"fantastic",0
34,"10097621LS",1,"Read Version A","GREAT","fantastic","Study1","B",1289,73106,"fantastic",100,"fantastic",1
34,"w10096966",1,"Read Version A","GREAT","fantastic","Study1","B",1701,1178,"",0,"fantastic",0
34,"5d0a90bb7c5110001acaa336",1,"Read Version A","GREAT","fantastic","Study1","B",3218,3998,"fantastic",100,"fantastic",1
34,"5f26ad14db44f940a40c86dd",1,"Read Version A","GREAT","fantastic","Study1","B",4960,10692,"",0,"fantastic",0
34,"w10022439_mlr",1,"Read Version A","GREAT","fantastic","Study1","B",1409,3417,"fantastic",100,"fantastic",1
35,"W10106164HPR",1,"Read Version A","GRILL","bar","Study1","S",1464,6224,"",0,"bar",0
35,"w10067789_JT",1,"Read Version A","GRILL","bar","Study1","S",1721,3759,"",0,"bar",0
35,"w10076541_mim",1,"Read Version A","GRILL","bar","Study1","S",1271,7760,"",0,"bar",0
35,"10097621LS",1,"Read Version A","GRILL","bar","Study1","S",1302,48639,"bar",100,"bar",1
35,"w10030757JP",1,"Read Version A","GRILL","bar","Study1","S",966,2661,"",0,"bar",0
35,"w10022439_mlr",1,"Read Version A","GRILL","bar","Study1","S",815,1319,"",0,"bar",0
35,"w10096966",1,"Read Version A","GRILL","bar","Study1","S",1155,5560,"hot",0,"bar",0
35,"5f26ad14db44f940a40c86dd",1,"Read Version A","GRILL","bar","Study1","S",7840,4606,"bar",100,"bar",1
35,"w980000_lf",1,"Read Version A","GRILL","bar","Study1","S",3137,3217,"bar",100,"bar",1
35,"5d0a90bb7c5110001acaa336",1,"Read Version A","GRILL","bar","Study1","S",2544,1697,"bar",100,"bar",1
36,"W10106164HPR",1,"Read Version A","HAPPY","car","Study1","U",860,1949,"sad",33.333333333333,"car",1
36,"w10067789_JT",1,"Read Version A","HAPPY","car","Study1","U",4453,2796,"sad",33.333333333333,"car",1
36,"w10076541_mim",1,"Read Version A","HAPPY","car","Study1","U",755,6548,"glad",28.571428571429,"car",0
36,"5d0a90bb7c5110001acaa336",1,"Read Version A","HAPPY","car","Study1","U",4050,7798,"place",25,"car",0
36,"w10022439_mlr",1,"Read Version A","HAPPY","car","Study1","U",1293,3524,"car",100,"car",1
36,"w10096966",1,"Read Version A","HAPPY","car","Study1","U",972,2461,"",0,"car",0
36,"10097621LS",1,"Read Version A","HAPPY","car","Study1","U",1020,26654,"car",100,"car",1
36,"w980000_lf",1,"Read Version A","HAPPY","car","Study1","U",1851,7794,"car",100,"car",1
36,"w10030757JP",1,"Read Version A","HAPPY","car","Study1","U",724,2074,"sad",33.333333333333,"car",1
36,"5f26ad14db44f940a40c86dd",1,"Read Version A","HAPPY","car","Study1","U",5792,19657,"",0,"car",0
37,"w10076541_mim",1,"Read Version A","HEIGHT","growth","Study1","B",1486,5554,"weight",33.333333333333,"growth",0
37,"w10096966",1,"Read Version A","HEIGHT","growth","Study1","B",1045,854,"",0,"growth",0
37,"10097621LS",1,"Read Version A","HEIGHT","growth","Study1","B",1105,34290,"growth",100,"growth",1
37,"5d0a90bb7c5110001acaa336",1,"Read Version A","HEIGHT","growth","Study1","B",2247,5340,"age",22.222222222222,"growth",0
37,"w10030757JP",1,"Read Version A","HEIGHT","growth","Study1","B",943,1993,"weight",33.333333333333,"growth",0
37,"w10022439_mlr",1,"Read Version A","HEIGHT","growth","Study1","B",1552,1370,"",0,"growth",0
37,"W10106164HPR",1,"Read Version A","HEIGHT","growth","Study1","B",1285,4014,"weight",33.333333333333,"growth",0
37,"5f26ad14db44f940a40c86dd",1,"Read Version A","HEIGHT","growth","Study1","B",2100,19600,"weight",33.333333333333,"growth",0
37,"w980000_lf",1,"Read Version A","HEIGHT","growth","Study1","B",1548,4827,"tall",20,"growth",0
37,"w10067789_JT",1,"Read Version A","HEIGHT","growth","Study1","B",1689,3529,"growth",100,"growth",1
38,"w10076541_mim",1,"Read Version A","HERD","cow","Study1","F",924,5859,"sheep",0,"cow",0
38,"10097621LS",1,"Read Version A","HERD","cow","Study1","F",1167,13530,"cow",100,"cow",1
38,"5f26ad14db44f940a40c86dd",1,"Read Version A","HERD","cow","Study1","F",7661,3893,"cow",100,"cow",1
38,"w10067789_JT",1,"Read Version A","HERD","cow","Study1","F",1728,1977,"cow",100,"cow",1
38,"w10096966",1,"Read Version A","HERD","cow","Study1","F",1216,1406,"",0,"cow",0
38,"W10106164HPR",1,"Read Version A","HERD","cow","Study1","F",1331,6410,"cow",100,"cow",1
38,"5d0a90bb7c5110001acaa336",1,"Read Version A","HERD","cow","Study1","F",1633,2143,"cow",100,"cow",1
38,"w980000_lf",1,"Read Version A","HERD","cow","Study1","F",1659,3922,"sheep",0,"cow",0
38,"w10030757JP",1,"Read Version A","HERD","cow","Study1","F",1136,2311,"",0,"cow",0
38,"w10022439_mlr",1,"Read Version A","HERD","cow","Study1","F",1026,1885,"cows",85.714285714286,"cow",1
39,"5f26ad14db44f940a40c86dd",1,"Read Version A","HIDE","sick","Study1","U",17982,49472,"scare",44.444444444444,"sick",0
39,"w10096966",1,"Read Version A","HIDE","sick","Study1","U",2900,885,"",0,"sick",0
39,"w10067789_JT",1,"Read Version A","HIDE","sick","Study1","U",1632,4043,"find",25,"sick",0
39,"5d0a90bb7c5110001acaa336",1,"Read Version A","HIDE","sick","Study1","U",6265,5067,"sick",100,"sick",1
39,"w10076541_mim",1,"Read Version A","HIDE","sick","Study1","U",833,4334,"seek",50,"sick",1
39,"w10022439_mlr",1,"Read Version A","HIDE","sick","Study1","U",1681,2370,"",0,"sick",0
39,"W10106164HPR",1,"Read Version A","HIDE","sick","Study1","U",903,3500,"scared",40,"sick",0
39,"w10030757JP",1,"Read Version A","HIDE","sick","Study1","U",2419,2427,"seek",50,"sick",1
39,"10097621LS",1,"Read Version A","HIDE","sick","Study1","U",1215,3829,"seek",50,"sick",1
39,"w980000_lf",1,"Read Version A","HIDE","sick","Study1","U",2641,8371,"sick",100,"sick",1
40,"w10096966",1,"Read Version A","HONEY","bee","Study1","S",1074,5558,"bee",100,"bee",1
40,"10097621LS",1,"Read Version A","HONEY","bee","Study1","S",1070,4007,"bee",100,"bee",1
40,"w10076541_mim",1,"Read Version A","HONEY","bee","Study1","S",3001,3824,"bee",100,"bee",1
40,"w10022439_mlr",1,"Read Version A","HONEY","bee","Study1","S",866,1585,"bee",100,"bee",1
40,"w10067789_JT",1,"Read Version A","HONEY","bee","Study1","S",1419,1876,"bee",100,"bee",1
40,"W10106164HPR",1,"Read Version A","HONEY","bee","Study1","S",909,6725,"bees",85.714285714286,"bee",1
40,"w10030757JP",1,"Read Version A","HONEY","bee","Study1","S",980,1980,"bee",100,"bee",1
40,"5f26ad14db44f940a40c86dd",1,"Read Version A","HONEY","bee","Study1","S",6396,13543,"bee",100,"bee",1
40,"5d0a90bb7c5110001acaa336",1,"Read Version A","HONEY","bee","Study1","S",2265,1273,"bee",100,"bee",1
40,"w980000_lf",1,"Read Version A","HONEY","bee","Study1","S",3405,2322,"bee",100,"bee",1
41,"w10076541_mim",1,"Read Version A","HORNET","sting","Study1","F",5244,10110,"wasp",22.222222222222,"sting",0
41,"w980000_lf",1,"Read Version A","HORNET","sting","Study1","F",1825,8013,"bug",25,"sting",0
41,"w10022439_mlr",1,"Read Version A","HORNET","sting","Study1","F",808,2130,"",0,"sting",0
41,"w10096966",1,"Read Version A","HORNET","sting","Study1","F",1337,4361,"sting",100,"sting",1
41,"10097621LS",1,"Read Version A","HORNET","sting","Study1","F",916,24441,"sting",100,"sting",1
41,"w10067789_JT",1,"Read Version A","HORNET","sting","Study1","F",1808,3053,"sting",100,"sting",1
41,"5f26ad14db44f940a40c86dd",1,"Read Version A","HORNET","sting","Study1","F",7828,10387,"sting",100,"sting",1
41,"w10030757JP",1,"Read Version A","HORNET","sting","Study1","F",1404,2255,"wasp",22.222222222222,"sting",0
41,"W10106164HPR",1,"Read Version A","HORNET","sting","Study1","F",1027,2545,"stinger",83.333333333333,"sting",1
41,"5d0a90bb7c5110001acaa336",1,"Read Version A","HORNET","sting","Study1","F",2328,3080,"sting",100,"sting",1
42,"w10096966",1,"Read Version A","HOT","chili","Study1","B",1233,5506,"chili",100,"chili",1
42,"w980000_lf",1,"Read Version A","HOT","chili","Study1","B",3449,5000,"chili",100,"chili",1
42,"w10076541_mim",1,"Read Version A","HOT","chili","Study1","B",1065,1595,"",0,"chili",0
42,"10097621LS",1,"Read Version A","HOT","chili","Study1","B",1064,34751,"chilli ",90.909090909091,"chili",1
42,"w10067789_JT",1,"Read Version A","HOT","chili","Study1","B",1334,2260,"cold",44.444444444444,"chili",0
42,"5d0a90bb7c5110001acaa336",1,"Read Version A","HOT","chili","Study1","B",2122,4601,"chili",100,"chili",1
42,"w10030757JP",1,"Read Version A","HOT","chili","Study1","B",1376,1311,"",0,"chili",0
42,"w10022439_mlr",1,"Read Version A","HOT","chili","Study1","B",967,2320,"chili",100,"chili",1
42,"W10106164HPR",1,"Read Version A","HOT","chili","Study1","B",2371,38658,"summer",0,"chili",0
42,"5f26ad14db44f940a40c86dd",1,"Read Version A","HOT","chili","Study1","B",6074,15101,"chilli",90.909090909091,"chili",1
43,"w10096966",1,"Read Version A","HUNGER","famine","Study1","B",1156,1772,"",0,"famine",0
43,"w10067789_JT",1,"Read Version A","HUNGER","famine","Study1","B",2225,4889,"famine",100,"famine",1
43,"w10022439_mlr",1,"Read Version A","HUNGER","famine","Study1","B",975,2860,"famine",100,"famine",1
43,"10097621LS",1,"Read Version A","HUNGER","famine","Study1","B",1224,35563,"famine",100,"famine",1
43,"W10106164HPR",1,"Read Version A","HUNGER","famine","Study1","B",1229,9739,"eat",22.222222222222,"famine",0
43,"5f26ad14db44f940a40c86dd",1,"Read Version A","HUNGER","famine","Study1","B",3057,24144,"",0,"famine",0
43,"w10076541_mim",1,"Read Version A","HUNGER","famine","Study1","B",3653,5562,"starve",33.333333333333,"famine",0
43,"5d0a90bb7c5110001acaa336",1,"Read Version A","HUNGER","famine","Study1","B",1857,5557,"famine",100,"famine",1
43,"w10030757JP",1,"Read Version A","HUNGER","famine","Study1","B",808,1632,"",0,"famine",0
43,"w980000_lf",1,"Read Version A","HUNGER","famine","Study1","B",1651,3641,"famine",100,"famine",1
44,"w10096966",1,"Read Version A","HYGIENE","clean","Study1","F",1178,6722,"",0,"clean",0
44,"W10106164HPR",1,"Read Version A","HYGIENE","clean","Study1","F",1209,4744,"clean",100,"clean",1
44,"w10067789_JT",1,"Read Version A","HYGIENE","clean","Study1","F",1981,4175,"",0,"clean",0
44,"w10076541_mim",1,"Read Version A","HYGIENE","clean","Study1","F",783,5307,"clear",80,"clean",1
44,"w10022439_mlr",1,"Read Version A","HYGIENE","clean","Study1","F",1231,2748,"teeth",20,"clean",0
44,"5d0a90bb7c5110001acaa336",1,"Read Version A","HYGIENE","clean","Study1","F",2070,2221,"clean",100,"clean",1
44,"w10030757JP",1,"Read Version A","HYGIENE","clean","Study1","F",850,2603,"clean",100,"clean",1
44,"10097621LS",1,"Read Version A","HYGIENE","clean","Study1","F",1217,9375,"clean",100,"clean",1
44,"w980000_lf",1,"Read Version A","HYGIENE","clean","Study1","F",2971,4411,"shower",18.181818181818,"clean",0
44,"5f26ad14db44f940a40c86dd",1,"Read Version A","HYGIENE","clean","Study1","F",3196,4177,"clean",100,"clean",1
45,"w980000_lf",1,"Read Version A","KEY","latch","Study1","B",2950,4661,"lock",44.444444444444,"latch",0
45,"w10076541_mim",1,"Read Version A","KEY","latch","Study1","B",1304,5139,"lock",44.444444444444,"latch",0
45,"10097621LS",1,"Read Version A","KEY","latch","Study1","B",1122,18150,"latch",100,"latch",1
45,"w10096966",1,"Read Version A","KEY","latch","Study1","B",1210,4111,"chain",40,"latch",0
45,"w10067789_JT",1,"Read Version A","KEY","latch","Study1","B",2495,6617,"latch",100,"latch",1
45,"W10106164HPR",1,"Read Version A","KEY","latch","Study1","B",1148,2708,"door",0,"latch",0
45,"5d0a90bb7c5110001acaa336",1,"Read Version A","KEY","latch","Study1","B",3151,5259,"lock",44.444444444444,"latch",0
45,"5f26ad14db44f940a40c86dd",1,"Read Version A","KEY","latch","Study1","B",7596,13963,"",0,"latch",0
45,"w10030757JP",1,"Read Version A","KEY","latch","Study1","B",1282,1250,"",0,"latch",0
45,"w10022439_mlr",1,"Read Version A","KEY","latch","Study1","B",825,3099,"lock",44.444444444444,"latch",0
46,"w980000_lf",1,"Read Version A","KIDNEY","liver","Study1","S",1684,5056,"liver",100,"liver",1
46,"W10106164HPR",1,"Read Version A","KIDNEY","liver","Study1","S",1019,2747,"liver",100,"liver",1
46,"w10076541_mim",1,"Read Version A","KIDNEY","liver","Study1","S",705,2774,"",0,"liver",0
46,"w10067789_JT",1,"Read Version A","KIDNEY","liver","Study1","S",1427,6256,"liver",100,"liver",1
46,"w10030757JP",1,"Read Version A","KIDNEY","liver","Study1","S",945,2120,"",0,"liver",0
46,"10097621LS",1,"Read Version A","KIDNEY","liver","Study1","S",973,2948,"organ",20,"liver",0
46,"w10096966",1,"Read Version A","KIDNEY","liver","Study1","S",3032,2454,"",0,"liver",0
46,"5f26ad14db44f940a40c86dd",1,"Read Version A","KIDNEY","liver","Study1","S",9624,4235,"liver",100,"liver",1
46,"5d0a90bb7c5110001acaa336",1,"Read Version A","KIDNEY","liver","Study1","S",1766,3209,"liver",100,"liver",1
46,"w10022439_mlr",1,"Read Version A","KIDNEY","liver","Study1","S",851,2483,"liver",100,"liver",1
47,"W10106164HPR",1,"Read Version A","KING","vase","Study1","U",1650,4576,"country",0,"vase",0
47,"w10096966",1,"Read Version A","KING","vase","Study1","U",2551,6372,"pawn",25,"vase",0
47,"5d0a90bb7c5110001acaa336",1,"Read Version A","KING","vase","Study1","U",3545,2822,"wine",25,"vase",0
47,"5f26ad14db44f940a40c86dd",1,"Read Version A","KING","vase","Study1","U",9727,6344,"",0,"vase",0
47,"w980000_lf",1,"Read Version A","KING","vase","Study1","U",3873,3142,"vase",100,"vase",1
47,"10097621LS",1,"Read Version A","KING","vase","Study1","U",1063,33230,"vase",100,"vase",1
47,"w10076541_mim",1,"Read Version A","KING","vase","Study1","U",44012,6153,"queen",22.222222222222,"vase",0
47,"w10030757JP",1,"Read Version A","KING","vase","Study1","U",1369,2507,"queen",22.222222222222,"vase",0
47,"w10067789_JT",1,"Read Version A","KING","vase","Study1","U",1879,3168,"vase",100,"vase",1
47,"w10022439_mlr",1,"Read Version A","KING","vase","Study1","U",1541,956,"",0,"vase",0
48,"5f26ad14db44f940a40c86dd",1,"Read Version A","LAW","attorney","Study1","B",1536,7717,"jury",33.333333333333,"attorney",0
48,"5d0a90bb7c5110001acaa336",1,"Read Version A","LAW","attorney","Study1","B",1854,3428,"sheriff",13.333333333333,"attorney",0
48,"w10076541_mim",1,"Read Version A","LAW","attorney","Study1","B",929,4727,"order",46.153846153846,"attorney",0
48,"w10096966",1,"Read Version A","LAW","attorney","Study1","B",1143,7769," police",28.571428571429,"attorney",0
48,"10097621LS",1,"Read Version A","LAW","attorney","Study1","B",1075,36218,"attorney",100,"attorney",1
48,"w980000_lf",1,"Read Version A","LAW","attorney","Study1","B",2069,5004,"jury",33.333333333333,"attorney",0
48,"w10022439_mlr",1,"Read Version A","LAW","attorney","Study1","B",973,3135,"attorney",100,"attorney",1
48,"w10030757JP",1,"Read Version A","LAW","attorney","Study1","B",1112,2724,"attorney",100,"attorney",1
48,"W10106164HPR",1,"Read Version A","LAW","attorney","Study1","B",1080,2638,"order",46.153846153846,"attorney",0
48,"w10067789_JT",1,"Read Version A","LAW","attorney","Study1","B",1521,8435,"attorney",100,"attorney",1
49,"10097621LS",1,"Read Version A","LETTUCE","salad","Study1","S",990,41982,"salad",100,"salad",1
49,"5f26ad14db44f940a40c86dd",1,"Read Version A","LETTUCE","salad","Study1","S",1790,5486,"salad",100,"salad",1
49,"w10030757JP",1,"Read Version A","LETTUCE","salad","Study1","S",1209,1952,"salad",100,"salad",1
49,"W10106164HPR",1,"Read Version A","LETTUCE","salad","Study1","S",1437,2947,"head",44.444444444444,"salad",0
49,"5d0a90bb7c5110001acaa336",1,"Read Version A","LETTUCE","salad","Study1","S",2786,1667,"salad",100,"salad",1
49,"w10022439_mlr",1,"Read Version A","LETTUCE","salad","Study1","S",844,3696,"salad",100,"salad",1
49,"w10067789_JT",1,"Read Version A","LETTUCE","salad","Study1","S",1845,2604,"salad",100,"salad",1
49,"w10076541_mim",1,"Read Version A","LETTUCE","salad","Study1","S",1557,12070,"salad",100,"salad",1
49,"w980000_lf",1,"Read Version A","LETTUCE","salad","Study1","S",3468,5928,"salad",100,"salad",1
49,"w10096966",1,"Read Version A","LETTUCE","salad","Study1","S",1207,5987,"salad",100,"salad",1
50,"5d0a90bb7c5110001acaa336",1,"Read Version A","LIFT","woman","Study1","U",3994,2525,"woman",100,"woman",1
50,"5f26ad14db44f940a40c86dd",1,"Read Version A","LIFT","woman","Study1","U",7612,6222,"",0,"woman",0
50,"W10106164HPR",1,"Read Version A","LIFT","woman","Study1","U",971,7731,"right",0,"woman",0
50,"10097621LS",1,"Read Version A","LIFT","woman","Study1","U",990,31276,"woman",100,"woman",1
50,"w10022439_mlr",1,"Read Version A","LIFT","woman","Study1","U",951,1106,"",0,"woman",0
50,"w10030757JP",1,"Read Version A","LIFT","woman","Study1","U",888,1601,"",0,"woman",0
50,"w10076541_mim",1,"Read Version A","LIFT","woman","Study1","U",717,6313,"woman",100,"woman",1
50,"w10096966",1,"Read Version A","LIFT","woman","Study1","U",1109,2398,"",0,"woman",0
50,"w10067789_JT",1,"Read Version A","LIFT","woman","Study1","U",1683,4082,"raise",20,"woman",0
50,"w980000_lf",1,"Read Version A","LIFT","woman","Study1","U",3512,3173,"raise",20,"woman",0
51,"W10106164HPR",1,"Read Version A","LOCATION","site","Study1","S",1361,6063,"destination ",13.333333333333,"site",0
51,"5f26ad14db44f940a40c86dd",1,"Read Version A","LOCATION","site","Study1","S",1406,11512,"place",22.222222222222,"site",0
51,"w10030757JP",1,"Read Version A","LOCATION","site","Study1","S",1296,1173,"",0,"site",0
51,"5d0a90bb7c5110001acaa336",1,"Read Version A","LOCATION","site","Study1","S",3887,2242,"place",22.222222222222,"site",0
51,"w10022439_mlr",1,"Read Version A","LOCATION","site","Study1","S",1447,3102,"site",100,"site",1
51,"w10076541_mim",1,"Read Version A","LOCATION","site","Study1","S",779,10339,"",0,"site",0
51,"10097621LS",1,"Read Version A","LOCATION","site","Study1","S",1799,41220,"site",100,"site",1
51,"w980000_lf",1,"Read Version A","LOCATION","site","Study1","S",2056,4819,"place",22.222222222222,"site",0
51,"w10067789_JT",1,"Read Version A","LOCATION","site","Study1","S",1963,4250,"",0,"site",0
51,"w10096966",1,"Read Version A","LOCATION","site","Study1","S",1281,7122,"",0,"site",0
52,"5d0a90bb7c5110001acaa336",1,"Read Version A","MACHINE","position","Study1","U",2551,3438,"position",100,"position",1
52,"5f26ad14db44f940a40c86dd",1,"Read Version A","MACHINE","position","Study1","U",8850,8218,"",0,"position",0
52,"10097621LS",1,"Read Version A","MACHINE","position","Study1","U",1251,13097,"position",100,"position",1
52,"w10022439_mlr",1,"Read Version A","MACHINE","position","Study1","U",2895,730,"",0,"position",0
52,"w10030757JP",1,"Read Version A","MACHINE","position","Study1","U",1204,2215,"",0,"position",0
52,"w10076541_mim",1,"Read Version A","MACHINE","position","Study1","U",756,738,"",0,"position",0
52,"W10106164HPR",1,"Read Version A","MACHINE","position","Study1","U",856,3353,"repair",28.571428571429,"position",0
52,"w980000_lf",1,"Read Version A","MACHINE","position","Study1","U",3431,10746,"move",16.666666666667,"position",0
52,"w10067789_JT",1,"Read Version A","MACHINE","position","Study1","U",2139,3830,"",0,"position",0
52,"w10096966",1,"Read Version A","MACHINE","position","Study1","U",1888,4480,"",0,"position",0
53,"w10030757JP",1,"Read Version A","MATH","division","Study1","B",1174,2792,"division",100,"division",1
53,"5f26ad14db44f940a40c86dd",1,"Read Version A","MATH","division","Study1","B",2661,10265,"division",100,"division",1
53,"w980000_lf",1,"Read Version A","MATH","division","Study1","B",1356,3807,"division",100,"division",1
53,"10097621LS",1,"Read Version A","MATH","division","Study1","B",2189,47733,"division",100,"division",1
53,"w10022439_mlr",1,"Read Version A","MATH","division","Study1","B",1143,3568,"division",100,"division",1
53,"w10076541_mim",1,"Read Version A","MATH","division","Study1","B",769,5128,"",0,"division",0
53,"W10106164HPR",1,"Read Version A","MATH","division","Study1","B",1576,5833,"numbers",13.333333333333,"division",0
53,"w10067789_JT",1,"Read Version A","MATH","division","Study1","B",1483,4399,"division",100,"division",1
53,"w10096966",1,"Read Version A","MATH","division","Study1","B",885,1235,"",0,"division",0
53,"5d0a90bb7c5110001acaa336",1,"Read Version A","MATH","division","Study1","B",1928,4616,"",0,"division",0
54,"5f26ad14db44f940a40c86dd",1,"Read Version A","MEANING","definition","Study1","S",14805,7447,"definition",100,"definition",1
54,"10097621LS",1,"Read Version A","MEANING","definition","Study1","S",1785,37244,"definition",100,"definition",1
54,"5d0a90bb7c5110001acaa336",1,"Read Version A","MEANING","definition","Study1","S",1790,7038,"definition",100,"definition",1
54,"w10030757JP",1,"Read Version A","MEANING","definition","Study1","S",1296,10452,"definition",100,"definition",1
54,"w10076541_mim",1,"Read Version A","MEANING","definition","Study1","S",378,1004,"",0,"definition",0
54,"w980000_lf",1,"Read Version A","MEANING","definition","Study1","S",1346,5486,"",0,"definition",0
54,"w10022439_mlr",1,"Read Version A","MEANING","definition","Study1","S",2094,5988,"definition",100,"definition",1
54,"w10067789_JT",1,"Read Version A","MEANING","definition","Study1","S",2071,5002,"definition",100,"definition",1
54,"W10106164HPR",1,"Read Version A","MEANING","definition","Study1","S",2167,2812,"life",14.285714285714,"definition",0
54,"w10096966",1,"Read Version A","MEANING","definition","Study1","S",1256,1071,"",0,"definition",0
55,"w10030757JP",1,"Read Version A","NUMBER","amount","Study1","S",1122,1113,"",0,"amount",0
55,"10097621LS",1,"Read Version A","NUMBER","amount","Study1","S",957,42540,"amount ",100,"amount",1
55,"5f26ad14db44f940a40c86dd",1,"Read Version A","NUMBER","amount","Study1","S",3947,24734,"amount",100,"amount",1
55,"w10076541_mim",1,"Read Version A","NUMBER","amount","Study1","S",20552,1567,"",0,"amount",0
55,"W10106164HPR",1,"Read Version A","NUMBER","amount","Study1","S",1218,5503,"letter",16.666666666667,"amount",0
55,"5d0a90bb7c5110001acaa336",1,"Read Version A","NUMBER","amount","Study1","S",1655,1200,"",0,"amount",0
55,"w10022439_mlr",1,"Read Version A","NUMBER","amount","Study1","S",1177,2084,"",0,"amount",0
55,"w10096966",1,"Read Version A","NUMBER","amount","Study1","S",1378,1133,"",0,"amount",0
55,"w980000_lf",1,"Read Version A","NUMBER","amount","Study1","S",2299,5799,"letter",16.666666666667,"amount",0
55,"w10067789_JT",1,"Read Version A","NUMBER","amount","Study1","S",1644,1657,"",0,"amount",0
56,"5d0a90bb7c5110001acaa336",1,"Read Version A","ORCHID","flower","Study1","F",2453,1700,"flower",100,"flower",1
56,"10097621LS",1,"Read Version A","ORCHID","flower","Study1","F",1076,3703,"flower",100,"flower",1
56,"w10030757JP",1,"Read Version A","ORCHID","flower","Study1","F",1238,2143,"flower",100,"flower",1
56,"5f26ad14db44f940a40c86dd",1,"Read Version A","ORCHID","flower","Study1","F",9684,5235,"flower",100,"flower",1
56,"w980000_lf",1,"Read Version A","ORCHID","flower","Study1","F",2517,3865,"flower",100,"flower",1
56,"w10022439_mlr",1,"Read Version A","ORCHID","flower","Study1","F",1446,3278,"flower",100,"flower",1
56,"w10067789_JT",1,"Read Version A","ORCHID","flower","Study1","F",2265,2989,"flower",100,"flower",1
56,"w10076541_mim",1,"Read Version A","ORCHID","flower","Study1","F",888,9186,"apple",36.363636363636,"flower",0
56,"w10096966",1,"Read Version A","ORCHID","flower","Study1","F",1075,1281,"",0,"flower",0
56,"W10106164HPR",1,"Read Version A","ORCHID","flower","Study1","F",1661,4205,"green",18.181818181818,"flower",0
57,"5f26ad14db44f940a40c86dd",1,"Read Version A","PARK","hungry","Study1","U",8733,7230,"",0,"hungry",0
57,"w10030757JP",1,"Read Version A","PARK","hungry","Study1","U",1216,3126,"",0,"hungry",0
57,"w10022439_mlr",1,"Read Version A","PARK","hungry","Study1","U",1596,1144,"",0,"hungry",0
57,"W10106164HPR",1,"Read Version A","PARK","hungry","Study1","U",1304,2483,"land",20,"hungry",0
57,"10097621LS",1,"Read Version A","PARK","hungry","Study1","U",922,59511,"hungry",100,"hungry",1
57,"5d0a90bb7c5110001acaa336",1,"Read Version A","PARK","hungry","Study1","U",2611,4452,"",0,"hungry",0
57,"w10076541_mim",1,"Read Version A","PARK","hungry","Study1","U",1445,13571,"walk",0,"hungry",0
57,"w980000_lf",1,"Read Version A","PARK","hungry","Study1","U",2798,15252,"walk",0,"hungry",0
57,"w10067789_JT",1,"Read Version A","PARK","hungry","Study1","U",2196,3455,"hungry",100,"hungry",1
57,"w10096966",1,"Read Version A","PARK","hungry","Study1","U",948,6805,"",0,"hungry",0
58,"5f26ad14db44f940a40c86dd",1,"Read Version A","PAST","future","Study1","S",10482,4240,"future",100,"future",1
58,"w10022439_mlr",1,"Read Version A","PAST","future","Study1","S",1496,2245,"future",100,"future",1
58,"w10030757JP",1,"Read Version A","PAST","future","Study1","S",914,2647,"future",100,"future",1
58,"10097621LS",1,"Read Version A","PAST","future","Study1","S",1366,14340,"future",100,"future",1
58,"5d0a90bb7c5110001acaa336",1,"Read Version A","PAST","future","Study1","S",3532,1923,"future",100,"future",1
58,"w10096966",1,"Read Version A","PAST","future","Study1","S",1135,1114,"",0,"future",0
58,"w10067789_JT",1,"Read Version A","PAST","future","Study1","S",2590,3223,"future",100,"future",1
58,"w10076541_mim",1,"Read Version A","PAST","future","Study1","S",785,4696,"life",40,"future",0
58,"W10106164HPR",1,"Read Version A","PAST","future","Study1","S",1208,3201,"present",30.769230769231,"future",0
58,"w980000_lf",1,"Read Version A","PAST","future","Study1","S",1535,4000,"future",100,"future",1
59,"w10076541_mim",1,"Read Version A","PAW","dog","Study1","F",660,13843,"dog",100,"dog",1
59,"10097621LS",1,"Read Version A","PAW","dog","Study1","F",1450,37784,"dog",100,"dog",1
59,"w10096966",1,"Read Version A","PAW","dog","Study1","F",918,1794,"",0,"dog",0
59,"W10106164HPR",1,"Read Version A","PAW","dog","Study1","F",1135,1898,"dog",100,"dog",1
59,"5d0a90bb7c5110001acaa336",1,"Read Version A","PAW","dog","Study1","F",2034,1670,"dog",100,"dog",1
59,"5f26ad14db44f940a40c86dd",1,"Read Version A","PAW","dog","Study1","F",2568,4236,"dog",100,"dog",1
59,"w10022439_mlr",1,"Read Version A","PAW","dog","Study1","F",1231,2766,"print",0,"dog",0
59,"w10030757JP",1,"Read Version A","PAW","dog","Study1","F",941,1709,"dog",100,"dog",1
59,"w980000_lf",1,"Read Version A","PAW","dog","Study1","F",1579,4314,"dog",100,"dog",1
59,"w10067789_JT",1,"Read Version A","PAW","dog","Study1","F",1723,2157,"dog",100,"dog",1
60,"5d0a90bb7c5110001acaa336",1,"Read Version A","PLANE","pilot","Study1","B",3535,6726,"pilot",100,"pilot",1
60,"5f26ad14db44f940a40c86dd",1,"Read Version A","PLANE","pilot","Study1","B",7089,46399,"",0,"pilot",0
60,"w10022439_mlr",1,"Read Version A","PLANE","pilot","Study1","B",3268,3393,"pilot",100,"pilot",1
60,"w10030757JP",1,"Read Version A","PLANE","pilot","Study1","B",1111,2428,"air",25,"pilot",0
60,"w10067789_JT",1,"Read Version A","PLANE","pilot","Study1","B",1490,3483,"pilot",100,"pilot",1
60,"w10076541_mim",1,"Read Version A","PLANE","pilot","Study1","B",1430,4299,"air",25,"pilot",0
60,"W10106164HPR",1,"Read Version A","PLANE","pilot","Study1","B",2489,2854,"pilot",100,"pilot",1
60,"10097621LS",1,"Read Version A","PLANE","pilot","Study1","B",1007,51124,"pilot",100,"pilot",1
60,"w10096966",1,"Read Version A","PLANE","pilot","Study1","B",1536,3087,"",0,"pilot",0
60,"w980000_lf",1,"Read Version A","PLANE","pilot","Study1","B",3766,8873,"pilot",100,"pilot",1
61,"10097621LS",1,"Read Version A","POP","soda","Study1","S",935,3531,"expolde",36.363636363636,"soda",0
61,"5f26ad14db44f940a40c86dd",1,"Read Version A","POP","soda","Study1","S",3549,22063,"star",50,"soda",0
61,"w980000_lf",1,"Read Version A","POP","soda","Study1","S",1219,5448,"soda",100,"soda",1
61,"5d0a90bb7c5110001acaa336",1,"Read Version A","POP","soda","Study1","S",1356,3783,"music",22.222222222222,"soda",0
61,"w10022439_mlr",1,"Read Version A","POP","soda","Study1","S",1132,1160,"",0,"soda",0
61,"w10030757JP",1,"Read Version A","POP","soda","Study1","S",1432,1937,"soda",100,"soda",1
61,"w10067789_JT",1,"Read Version A","POP","soda","Study1","S",1571,3241,"soda",100,"soda",1
61,"w10076541_mim",1,"Read Version A","POP","soda","Study1","S",1227,9634,"soda",100,"soda",1
61,"w10096966",1,"Read Version A","POP","soda","Study1","S",2444,979,"",0,"soda",0
61,"W10106164HPR",1,"Read Version A","POP","soda","Study1","S",905,3982,"rock",25,"soda",0
62,"5f26ad14db44f940a40c86dd",1,"Read Version A","PUSHER","clutter","Study1","U",4422,2355,"",0,"clutter",0
62,"w10076541_mim",1,"Read Version A","PUSHER","clutter","Study1","U",5164,6749,"start",33.333333333333,"clutter",0
62,"w10030757JP",1,"Read Version A","PUSHER","clutter","Study1","U",882,1921,"",0,"clutter",0
62,"W10106164HPR",1,"Read Version A","PUSHER","clutter","Study1","U",2240,10815,"grav",18.181818181818,"clutter",0
62,"w10067789_JT",1,"Read Version A","PUSHER","clutter","Study1","U",2508,10573,"clutter",100,"clutter",1
62,"10097621LS",1,"Read Version A","PUSHER","clutter","Study1","U",1039,33521,"clutter",100,"clutter",1
62,"5d0a90bb7c5110001acaa336",1,"Read Version A","PUSHER","clutter","Study1","U",8303,3283,"clutter",100,"clutter",1
62,"w10096966",1,"Read Version A","PUSHER","clutter","Study1","U",2217,1177,"",0,"clutter",0
62,"w980000_lf",1,"Read Version A","PUSHER","clutter","Study1","U",4773,11959,"up",22.222222222222,"clutter",0
62,"w10022439_mlr",1,"Read Version A","PUSHER","clutter","Study1","U",1753,915,"",0,"clutter",0
63,"5d0a90bb7c5110001acaa336",1,"Read Version A","REVOLUTION","war","Study1","F",2450,1794,"war",100,"war",1
63,"w10022439_mlr",1,"Read Version A","REVOLUTION","war","Study1","F",858,1734,"war",100,"war",1
63,"10097621LS",1,"Read Version A","REVOLUTION","war","Study1","F",1158,30603,"war",100,"war",1
63,"w10067789_JT",1,"Read Version A","REVOLUTION","war","Study1","F",1538,2314,"war",100,"war",1
63,"5f26ad14db44f940a40c86dd",1,"Read Version A","REVOLUTION","war","Study1","F",1770,3769,"war",100,"war",1
63,"W10106164HPR",1,"Read Version A","REVOLUTION","war","Study1","F",1116,2440,"war",100,"war",1
63,"w980000_lf",1,"Read Version A","REVOLUTION","war","Study1","F",2295,19135,"people",0,"war",0
63,"w10030757JP",1,"Read Version A","REVOLUTION","war","Study1","F",994,1526,"war",100,"war",1
63,"w10076541_mim",1,"Read Version A","REVOLUTION","war","Study1","F",1500,932,"",0,"war",0
63,"w10096966",1,"Read Version A","REVOLUTION","war","Study1","F",2257,1306,"",0,"war",0
64,"10097621LS",1,"Read Version A","ROOT","plant","Study1","F",1398,35466,"plant",100,"plant",1
64,"5f26ad14db44f940a40c86dd",1,"Read Version A","ROOT","plant","Study1","F",7011,4857,"plant",100,"plant",1
64,"w10030757JP",1,"Read Version A","ROOT","plant","Study1","F",2024,2236,"",0,"plant",0
64,"w980000_lf",1,"Read Version A","ROOT","plant","Study1","F",2655,3542,"plant",100,"plant",1
64,"w10022439_mlr",1,"Read Version A","ROOT","plant","Study1","F",1751,5499,"tree",22.222222222222,"plant",0
64,"w10076541_mim",1,"Read Version A","ROOT","plant","Study1","F",2715,6106,"plant",100,"plant",1
64,"w10067789_JT",1,"Read Version A","ROOT","plant","Study1","F",1800,2855,"plant",100,"plant",1
64,"W10106164HPR",1,"Read Version A","ROOT","plant","Study1","F",4913,3595,"plant",100,"plant",1
64,"5d0a90bb7c5110001acaa336",1,"Read Version A","ROOT","plant","Study1","F",2795,2964,"tree",22.222222222222,"plant",0
64,"w10096966",1,"Read Version A","ROOT","plant","Study1","F",1706,1380,"",0,"plant",0
65,"5d0a90bb7c5110001acaa336",1,"Read Version A","SENTENCE","word","Study1","B",6457,4130,"word",100,"word",1
65,"w10030757JP",1,"Read Version A","SENTENCE","word","Study1","B",766,2274,"",0,"word",0
65,"10097621LS",1,"Read Version A","SENTENCE","word","Study1","B",1004,32237,"structure",15.384615384615,"word",0
65,"w10067789_JT",1,"Read Version A","SENTENCE","word","Study1","B",2096,2644,"word",100,"word",1
65,"5f26ad14db44f940a40c86dd",1,"Read Version A","SENTENCE","word","Study1","B",14363,9402,"word",100,"word",1
65,"w980000_lf",1,"Read Version A","SENTENCE","word","Study1","B",1492,3423,"word",100,"word",1
65,"w10022439_mlr",1,"Read Version A","SENTENCE","word","Study1","B",1252,3428,"words",88.888888888889,"word",1
65,"w10096966",1,"Read Version A","SENTENCE","word","Study1","B",1399,4240,"",0,"word",0
65,"w10076541_mim",1,"Read Version A","SENTENCE","word","Study1","B",3948,6868,"fragment",16.666666666667,"word",0
65,"W10106164HPR",1,"Read Version A","SENTENCE","word","Study1","B",971,6563,"bool",25,"word",0
66,"5f26ad14db44f940a40c86dd",1,"Read Version A","SHOE","foot","Study1","S",1229,11804,"feet",50,"foot",1
66,"w10030757JP",1,"Read Version A","SHOE","foot","Study1","S",611,2211,"sock",25,"foot",0
66,"10097621LS",1,"Read Version A","SHOE","foot","Study1","S",1094,2477,"foot",100,"foot",1
66,"w10022439_mlr",1,"Read Version A","SHOE","foot","Study1","S",1272,6739,"foot",100,"foot",1
66,"W10106164HPR",1,"Read Version A","SHOE","foot","Study1","S",1205,2130,"feet",50,"foot",1
66,"w980000_lf",1,"Read Version A","SHOE","foot","Study1","S",1215,3547,"foot",100,"foot",1
66,"5d0a90bb7c5110001acaa336",1,"Read Version A","SHOE","foot","Study1","S",1663,2801,"foot",100,"foot",1
66,"w10076541_mim",1,"Read Version A","SHOE","foot","Study1","S",915,5465,"sole",25,"foot",0
66,"w10067789_JT",1,"Read Version A","SHOE","foot","Study1","S",1459,2075,"foot",100,"foot",1
66,"w10096966",1,"Read Version A","SHOE","foot","Study1","S",1344,5439,"foot",100,"foot",1
67,"10097621LS",1,"Read Version A","SLEEP","drowsy","Study1","B",1002,12375,"drowsy",100,"drowsy",1
67,"w10030757JP",1,"Read Version A","SLEEP","drowsy","Study1","B",792,2964,"drowsy",100,"drowsy",1
67,"5f26ad14db44f940a40c86dd",1,"Read Version A","SLEEP","drowsy","Study1","B",12144,27531,"drowsy",100,"drowsy",1
67,"w10067789_JT",1,"Read Version A","SLEEP","drowsy","Study1","B",1704,4003,"",0,"drowsy",0
67,"w10076541_mim",1,"Read Version A","SLEEP","drowsy","Study1","B",775,6178,"wake",20,"drowsy",0
67,"5d0a90bb7c5110001acaa336",1,"Read Version A","SLEEP","drowsy","Study1","B",1372,8849,"",0,"drowsy",0
67,"w10022439_mlr",1,"Read Version A","SLEEP","drowsy","Study1","B",3814,1436,"",0,"drowsy",0
67,"W10106164HPR",1,"Read Version A","SLEEP","drowsy","Study1","B",1030,3194,"bed",22.222222222222,"drowsy",0
67,"w980000_lf",1,"Read Version A","SLEEP","drowsy","Study1","B",2019,5866,"wake",20,"drowsy",0
67,"w10096966",1,"Read Version A","SLEEP","drowsy","Study1","B",2160,2312,"",0,"drowsy",0
68,"w10076541_mim",1,"Read Version A","SMELL","stench","Study1","B",2930,5229,"scent",54.545454545455,"stench",0
68,"5f26ad14db44f940a40c86dd",1,"Read Version A","SMELL","stench","Study1","B",10379,12915,"stench",100,"stench",1
68,"w10030757JP",1,"Read Version A","SMELL","stench","Study1","B",1240,7757,"stench",100,"stench",1
68,"w10096966",1,"Read Version A","SMELL","stench","Study1","B",1394,15116,"scent",54.545454545455,"stench",0
68,"5d0a90bb7c5110001acaa336",1,"Read Version A","SMELL","stench","Study1","B",1878,3045,"taste",54.545454545455,"stench",0
68,"w10022439_mlr",1,"Read Version A","SMELL","stench","Study1","B",800,3229,"stench",100,"stench",1
68,"w10067789_JT",1,"Read Version A","SMELL","stench","Study1","B",2148,3708,"",0,"stench",0
68,"W10106164HPR",1,"Read Version A","SMELL","stench","Study1","B",1139,14034,"oder",20,"stench",0
68,"10097621LS",1,"Read Version A","SMELL","stench","Study1","B",1125,14721,"stench",100,"stench",1
68,"w980000_lf",1,"Read Version A","SMELL","stench","Study1","B",2830,4819,"nose",20,"stench",0
69,"5f26ad14db44f940a40c86dd",1,"Read Version A","SOON","belt","Study1","U",7432,11073,"",0,"belt",0
69,"w10022439_mlr",1,"Read Version A","SOON","belt","Study1","U",3087,1015,"",0,"belt",0
69,"w10030757JP",1,"Read Version A","SOON","belt","Study1","U",1575,3390,"never",22.222222222222,"belt",0
69,"5d0a90bb7c5110001acaa336",1,"Read Version A","SOON","belt","Study1","U",3067,11221,"near",25,"belt",0
69,"w980000_lf",1,"Read Version A","SOON","belt","Study1","U",6644,7383,"time",25,"belt",0
69,"10097621LS",1,"Read Version A","SOON","belt","Study1","U",1034,37379,"to be",44.444444444444,"belt",0
69,"w10076541_mim",1,"Read Version A","SOON","belt","Study1","U",1973,8821,"now.",0,"belt",0
69,"W10106164HPR",1,"Read Version A","SOON","belt","Study1","U",1227,7007,"later",44.444444444444,"belt",0
69,"w10067789_JT",1,"Read Version A","SOON","belt","Study1","U",5039,2432,"",0,"belt",0
69,"w10096966",1,"Read Version A","SOON","belt","Study1","U",1311,5006,"late",50,"belt",0
70,"5f26ad14db44f940a40c86dd",1,"Read Version A","STRONG","accident","Study1","U",2904,9814,"accident",100,"accident",1
70,"w10030757JP",1,"Read Version A","STRONG","accident","Study1","U",642,3490,"",0,"accident",0
70,"10097621LS",1,"Read Version A","STRONG","accident","Study1","U",1042,77042,"tough ",15.384615384615,"accident",0
70,"w980000_lf",1,"Read Version A","STRONG","accident","Study1","U",2637,4161,"accident",100,"accident",1
70,"w10022439_mlr",1,"Read Version A","STRONG","accident","Study1","U",1345,839,"",0,"accident",0
70,"5d0a90bb7c5110001acaa336",1,"Read Version A","STRONG","accident","Study1","U",1982,3901,"weak",16.666666666667,"accident",0
70,"W10106164HPR",1,"Read Version A","STRONG","accident","Study1","U",1215,4985,"child",46.153846153846,"accident",0
70,"w10067789_JT",1,"Read Version A","STRONG","accident","Study1","U",4402,5024,"",0,"accident",0
70,"w10076541_mim",1,"Read Version A","STRONG","accident","Study1","U",1054,1324,"",0,"accident",0
70,"w10096966",1,"Read Version A","STRONG","accident","Study1","U",2138,1721,"",0,"accident",0
71,"w10076541_mim",1,"Read Version A","SUGAR","riddle","Study1","U",3736,7230,"sweet",18.181818181818,"riddle",0
71,"w10030757JP",1,"Read Version A","SUGAR","riddle","Study1","U",1319,37203,"",0,"riddle",0
71,"W10106164HPR",1,"Read Version A","SUGAR","riddle","Study1","U",1924,6020,"drink",36.363636363636,"riddle",0
71,"10097621LS",1,"Read Version A","SUGAR","riddle","Study1","U",1065,32739,"riddle",100,"riddle",1
71,"w10067789_JT",1,"Read Version A","SUGAR","riddle","Study1","U",4703,5605,"valley",33.333333333333,"riddle",0
71,"w980000_lf",1,"Read Version A","SUGAR","riddle","Study1","U",2349,21267,"sweet",18.181818181818,"riddle",0
71,"w10022439_mlr",1,"Read Version A","SUGAR","riddle","Study1","U",1436,1071,"",0,"riddle",0
71,"5f26ad14db44f940a40c86dd",1,"Read Version A","SUGAR","riddle","Study1","U",9045,3136,"",0,"riddle",0
71,"5d0a90bb7c5110001acaa336",1,"Read Version A","SUGAR","riddle","Study1","U",5656,6643,"sweet",18.181818181818,"riddle",0
71,"w10096966",1,"Read Version A","SUGAR","riddle","Study1","U",1074,2264,"",0,"riddle",0
72,"w10030757JP",1,"Read Version A","SWAN","bird","Study1","F",1077,2153,"bird",100,"bird",1
72,"w10067789_JT",1,"Read Version A","SWAN","bird","Study1","F",1337,3698,"bird",100,"bird",1
72,"w10076541_mim",1,"Read Version A","SWAN","bird","Study1","F",14256,3449,"",0,"bird",0
72,"5f26ad14db44f940a40c86dd",1,"Read Version A","SWAN","bird","Study1","F",6376,4584,"",0,"bird",0
72,"w10096966",1,"Read Version A","SWAN","bird","Study1","F",1758,4388,"lake",0,"bird",0
72,"w10022439_mlr",1,"Read Version A","SWAN","bird","Study1","F",960,5539,"lake",0,"bird",0
72,"5d0a90bb7c5110001acaa336",1,"Read Version A","SWAN","bird","Study1","F",3063,2835,"bird",100,"bird",1
72,"10097621LS",1,"Read Version A","SWAN","bird","Study1","F",1063,1829,"bird",100,"bird",1
72,"W10106164HPR",1,"Read Version A","SWAN","bird","Study1","F",1269,16008,"goose",0,"bird",0
72,"w980000_lf",1,"Read Version A","SWAN","bird","Study1","F",2185,4179,"bird",100,"bird",1
73,"w10067789_JT",1,"Read Version A","TAKE","seize","Study1","B",1240,5452,"",0,"seize",0
73,"w10022439_mlr",1,"Read Version A","TAKE","seize","Study1","B",2179,1260,"",0,"seize",0
73,"5d0a90bb7c5110001acaa336",1,"Read Version A","TAKE","seize","Study1","B",2626,3024,"seize",100,"seize",1
73,"w10076541_mim",1,"Read Version A","TAKE","seize","Study1","B",4751,4446,"out",0,"seize",0
73,"w10030757JP",1,"Read Version A","TAKE","seize","Study1","B",1026,1468,"out",0,"seize",0
73,"w980000_lf",1,"Read Version A","TAKE","seize","Study1","B",3177,13259,"hold",0,"seize",0
73,"w10096966",1,"Read Version A","TAKE","seize","Study1","B",1143,5085,"",0,"seize",0
73,"W10106164HPR",1,"Read Version A","TAKE","seize","Study1","B",1453,4027,"recieve",50,"seize",0
73,"10097621LS",1,"Read Version A","TAKE","seize","Study1","B",1957,1745,"give",44.444444444444,"seize",0
73,"5f26ad14db44f940a40c86dd",1,"Read Version A","TAKE","seize","Study1","B",9944,3358,"out",0,"seize",0
74,"w10022439_mlr",1,"Read Version A","TRIAL","jury","Study1","S",1300,740,"",0,"jury",0
74,"w10076541_mim",1,"Read Version A","TRIAL","jury","Study1","S",6319,5034,"error",22.222222222222,"jury",0
74,"w980000_lf",1,"Read Version A","TRIAL","jury","Study1","S",4189,5272,"lawyer",20,"jury",0
74,"W10106164HPR",1,"Read Version A","TRIAL","jury","Study1","S",1316,5989,"error",22.222222222222,"jury",0
74,"10097621LS",1,"Read Version A","TRIAL","jury","Study1","S",1341,50662,"jury",100,"jury",1
74,"w10030757JP",1,"Read Version A","TRIAL","jury","Study1","S",795,2282,"",0,"jury",0
74,"w10067789_JT",1,"Read Version A","TRIAL","jury","Study1","S",1628,3107,"jury",100,"jury",1
74,"5f26ad14db44f940a40c86dd",1,"Read Version A","TRIAL","jury","Study1","S",3265,73789,"court",44.444444444444,"jury",0
74,"w10096966",1,"Read Version A","TRIAL","jury","Study1","S",2254,2698,"",0,"jury",0
74,"5d0a90bb7c5110001acaa336",1,"Read Version A","TRIAL","jury","Study1","S",3674,3014,"jury",100,"jury",1
75,"w10076541_mim",1,"Read Version A","TUNA","fish","Study1","F",16014,1481,"",0,"fish",0
75,"W10106164HPR",1,"Read Version A","TUNA","fish","Study1","F",890,1881,"fish",100,"fish",1
75,"w10096966",1,"Read Version A","TUNA","fish","Study1","F",1210,2701,"",0,"fish",0
75,"10097621LS",1,"Read Version A","TUNA","fish","Study1","F",2008,4320,"fish",100,"fish",1
75,"5f26ad14db44f940a40c86dd",1,"Read Version A","TUNA","fish","Study1","F",1588,3939,"fish",100,"fish",1
75,"w10067789_JT",1,"Read Version A","TUNA","fish","Study1","F",1750,2333,"fish",100,"fish",1
75,"w10022439_mlr",1,"Read Version A","TUNA","fish","Study1","F",1084,2624,"fish",100,"fish",1
75,"w980000_lf",1,"Read Version A","TUNA","fish","Study1","F",2385,2468,"fish",100,"fish",1
75,"w10030757JP",1,"Read Version A","TUNA","fish","Study1","F",1191,1525,"fish",100,"fish",1
75,"5d0a90bb7c5110001acaa336",1,"Read Version A","TUNA","fish","Study1","F",1253,1920,"fish",100,"fish",1
76,"w10076541_mim",1,"Read Version A","VALLEY","add","Study1","U",660,9834,"canyon",22.222222222222,"add",0
76,"w10067789_JT",1,"Read Version A","VALLEY","add","Study1","U",2541,3164,"",0,"add",0
76,"w10096966",1,"Read Version A","VALLEY","add","Study1","U",6767,7433,"",0,"add",0
76,"W10106164HPR",1,"Read Version A","VALLEY","add","Study1","U",1441,4339,"spring",0,"add",0
76,"w980000_lf",1,"Read Version A","VALLEY","add","Study1","U",1925,9234,"meadow",44.444444444444,"add",0
76,"w10022439_mlr",1,"Read Version A","VALLEY","add","Study1","U",1212,2236,"",0,"add",0
76,"10097621LS",1,"Read Version A","VALLEY","add","Study1","U",1075,65037,"hollow",0,"add",0
76,"5d0a90bb7c5110001acaa336",1,"Read Version A","VALLEY","add","Study1","U",4023,16651,"",0,"add",0
76,"5f26ad14db44f940a40c86dd",1,"Read Version A","VALLEY","add","Study1","U",9364,10596,"",0,"add",0
76,"w10030757JP",1,"Read Version A","VALLEY","add","Study1","U",802,1449,"",0,"add",0
77,"w10067789_JT",1,"Read Version A","WAGE","money","Study1","F",1701,3205,"money",100,"money",1
77,"w10076541_mim",1,"Read Version A","WAGE","money","Study1","F",873,4287,"pay",25,"money",0
77,"5d0a90bb7c5110001acaa336",1,"Read Version A","WAGE","money","Study1","F",2223,2024,"earn",22.222222222222,"money",0
77,"w980000_lf",1,"Read Version A","WAGE","money","Study1","F",1294,3175,"pay",25,"money",0
77,"w10096966",1,"Read Version A","WAGE","money","Study1","F",1061,1388,"",0,"money",0
77,"10097621LS",1,"Read Version A","WAGE","money","Study1","F",1043,97119,"money",100,"money",1
77,"W10106164HPR",1,"Read Version A","WAGE","money","Study1","F",1221,5521,"money",100,"money",1
77,"5f26ad14db44f940a40c86dd",1,"Read Version A","WAGE","money","Study1","F",6549,6552,"money",100,"money",1
77,"w10030757JP",1,"Read Version A","WAGE","money","Study1","F",648,2456,"pay",25,"money",0
77,"w10022439_mlr",1,"Read Version A","WAGE","money","Study1","F",946,659,"",0,"money",0
78,"w10076541_mim",1,"Read Version A","WAY","out","Study1","F",1577,7603,"detour",44.444444444444,"out",0
78,"5d0a90bb7c5110001acaa336",1,"Read Version A","WAY","out","Study1","F",1933,4162,"path",28.571428571429,"out",0
78,"W10106164HPR",1,"Read Version A","WAY","out","Study1","F",1217,4011,"stride",22.222222222222,"out",0
78,"10097621LS",1,"Read Version A","WAY","out","Study1","F",1040,35735,"out",100,"out",1
78,"w10067789_JT",1,"Read Version A","WAY","out","Study1","F",1618,1949,"",0,"out",0
78,"w10096966",1,"Read Version A","WAY","out","Study1","F",1429,4459,"out",100,"out",1
78,"5f26ad14db44f940a40c86dd",1,"Read Version A","WAY","out","Study1","F",6448,3496,"out",100,"out",1
78,"w10030757JP",1,"Read Version A","WAY","out","Study1","F",718,1080,"",0,"out",0
78,"w10022439_mlr",1,"Read Version A","WAY","out","Study1","F",1304,691,"",0,"out",0
78,"w980000_lf",1,"Read Version A","WAY","out","Study1","F",1547,6927,"",0,"out",0
79,"w10067789_JT",1,"Read Version A","WINE","cheese","Study1","S",1541,2891,"cheese",100,"cheese",1
79,"w10096966",1,"Read Version A","WINE","cheese","Study1","S",954,4095,"cheese",100,"cheese",1
79,"w980000_lf",1,"Read Version A","WINE","cheese","Study1","S",2725,3342,"cheese",100,"cheese",1
79,"5d0a90bb7c5110001acaa336",1,"Read Version A","WINE","cheese","Study1","S",2193,3922,"cheese",100,"cheese",1
79,"10097621LS",1,"Read Version A","WINE","cheese","Study1","S",1019,36915,"cheese",100,"cheese",1
79,"W10106164HPR",1,"Read Version A","WINE","cheese","Study1","S",1215,3616,"glass",18.181818181818,"cheese",0
79,"5f26ad14db44f940a40c86dd",1,"Read Version A","WINE","cheese","Study1","S",7847,4428,"cheese",100,"cheese",1
79,"w10030757JP",1,"Read Version A","WINE","cheese","Study1","S",1477,2522,"cheese",100,"cheese",1
79,"w10076541_mim",1,"Read Version A","WINE","cheese","Study1","S",788,5216,"cheese",100,"cheese",1
79,"w10022439_mlr",1,"Read Version A","WINE","cheese","Study1","S",1038,2740,"cheese",100,"cheese",1
80,"W10106164HPR",1,"Read Version A","WORK","chore","Study1","B",1781,5767,"value",20,"chore",0
80,"w10076541_mim",1,"Read Version A","WORK","chore","Study1","B",870,7405,"paper",20,"chore",0
80,"w10067789_JT",1,"Read Version A","WORK","chore","Study1","B",1769,8448,"",0,"chore",0
80,"5f26ad14db44f940a40c86dd",1,"Read Version A","WORK","chore","Study1","B",16056,4818,"chore",100,"chore",1
80,"10097621LS",1,"Read Version A","WORK","chore","Study1","B",1320,9294,"hard",44.444444444444,"chore",0
80,"w980000_lf",1,"Read Version A","WORK","chore","Study1","B",2513,6139,"chore",100,"chore",1
80,"w10096966",1,"Read Version A","WORK","chore","Study1","B",973,5888,"",0,"chore",0
80,"w10022439_mlr",1,"Read Version A","WORK","chore","Study1","B",1871,677,"",0,"chore",0
80,"5d0a90bb7c5110001acaa336",1,"Read Version A","WORK","chore","Study1","B",2001,4046,"",0,"chore",0
80,"w10030757JP",1,"Read Version A","WORK","chore","Study1","B",729,3147,"ethic",20,"chore",0
81,"w10067789_JT",1,"Read Version A","ADJOURN","end","Study2","F",2135,2505,"end",100,"end",1
81,"W10106164HPR",1,"Read Version A","ADJOURN","end","Study2","F",4609,7055,"",0,"end",0
81,"w10076541_mim",1,"Read Version A","ADJOURN","end","Study2","F",576,3889,"end",100,"end",1
81,"5f26ad14db44f940a40c86dd",1,"Read Version A","ADJOURN","end","Study2","F",17687,6657,"",0,"end",0
81,"10097621LS",1,"Read Version A","ADJOURN","end","Study2","F",135,3194,"abound",44.444444444444,"end",0
81,"w980000_lf",1,"Read Version A","ADJOURN","end","Study2","F",2134,2402,"end",100,"end",1
81,"w10096966",1,"Read Version A","ADJOURN","end","Study2","F",1324,1653,"",0,"end",0
81,"w10030757JP",1,"Read Version A","ADJOURN","end","Study2","F",787,803,"",0,"end",0
81,"w10022439_mlr",1,"Read Version A","ADJOURN","end","Study2","F",972,2420,"end",100,"end",1
81,"5d0a90bb7c5110001acaa336",1,"Read Version A","ADJOURN","end","Study2","F",4429,1668,"end",100,"end",1
82,"w10076541_mim",1,"Read Version A","AFFECTION","love","Study2","F",283,1476,"",0,"love",0
82,"w10022439_mlr",1,"Read Version A","AFFECTION","love","Study2","F",841,1869,"love",100,"love",1
82,"w10067789_JT",1,"Read Version A","AFFECTION","love","Study2","F",2630,2545,"love",100,"love",1
82,"w10096966",1,"Read Version A","AFFECTION","love","Study2","F",2307,8002,"love",100,"love",1
82,"5d0a90bb7c5110001acaa336",1,"Read Version A","AFFECTION","love","Study2","F",2239,1667,"love",100,"love",1
82,"w980000_lf",1,"Read Version A","AFFECTION","love","Study2","F",3405,1910,"love",100,"love",1
82,"W10106164HPR",1,"Read Version A","AFFECTION","love","Study2","F",1187,4153,"charm",0,"love",0
82,"10097621LS",1,"Read Version A","AFFECTION","love","Study2","F",443,2769,"love",100,"love",1
82,"5f26ad14db44f940a40c86dd",1,"Read Version A","AFFECTION","love","Study2","F",12624,2265,"",0,"love",0
82,"w10030757JP",1,"Read Version A","AFFECTION","love","Study2","F",1004,1348,"",0,"love",0
83,"10097621LS",1,"Read Version A","ALONE","lonely","Study2","S",432,2675,"sad",0,"lonely",0
83,"w10076541_mim",1,"Read Version A","ALONE","lonely","Study2","S",618,11796,"lonely",100,"lonely",1
83,"w10067789_JT",1,"Read Version A","ALONE","lonely","Study2","S",2341,14148,"lonely",100,"lonely",1
83,"w10096966",1,"Read Version A","ALONE","lonely","Study2","S",4567,5598,"lonely",100,"lonely",1
83,"5f26ad14db44f940a40c86dd",1,"Read Version A","ALONE","lonely","Study2","S",1423,4561,"lonely",100,"lonely",1
83,"w10030757JP",1,"Read Version A","ALONE","lonely","Study2","S",881,1371,"",0,"lonely",0
83,"w980000_lf",1,"Read Version A","ALONE","lonely","Study2","S",4270,2693,"",0,"lonely",0
83,"5d0a90bb7c5110001acaa336",1,"Read Version A","ALONE","lonely","Study2","S",3653,2056,"lonely",100,"lonely",1
83,"W10106164HPR",1,"Read Version A","ALONE","lonely","Study2","S",2506,4413,"self",40,"lonely",0
83,"w10022439_mlr",1,"Read Version A","ALONE","lonely","Study2","S",656,896,"",0,"lonely",0
84,"w10076541_mim",1,"Read Version A","BAD","villain","Study2","B",359,4457,"good",0,"villain",0
84,"w10067789_JT",1,"Read Version A","BAD","villain","Study2","B",2055,1771,"",0,"villain",0
84,"w10096966",1,"Read Version A","BAD","villain","Study2","B",1419,5893,"villan",92.307692307692,"villain",1
84,"5d0a90bb7c5110001acaa336",1,"Read Version A","BAD","villain","Study2","B",1992,2947,"villain",100,"villain",1
84,"w980000_lf",1,"Read Version A","BAD","villain","Study2","B",2389,8019,"delinquent",35.294117647059,"villain",0
84,"5f26ad14db44f940a40c86dd",1,"Read Version A","BAD","villain","Study2","B",2214,6590,"",0,"villain",0
84,"10097621LS",1,"Read Version A","BAD","villain","Study2","B",195,2028,"good",0,"villain",0
84,"W10106164HPR",1,"Read Version A","BAD","villain","Study2","B",875,20671,"villain",100,"villain",1
84,"w10022439_mlr",1,"Read Version A","BAD","villain","Study2","B",795,932,"",0,"villain",0
84,"w10030757JP",1,"Read Version A","BAD","villain","Study2","B",758,1405,"good",0,"villain",0
85,"w10067789_JT",1,"Read Version A","BASEBALL","league","Study2","B",2397,3572,"league",100,"league",1
85,"w10096966",1,"Read Version A","BASEBALL","league","Study2","B",1254,7150,"league",100,"league",1
85,"W10106164HPR",1,"Read Version A","BASEBALL","league","Study2","B",1342,3384,"catcher",30.769230769231,"league",0
85,"w980000_lf",1,"Read Version A","BASEBALL","league","Study2","B",1730,3649,"league",100,"league",1
85,"w10076541_mim",1,"Read Version A","BASEBALL","league","Study2","B",1023,5084,"catch",18.181818181818,"league",0
85,"10097621LS",1,"Read Version A","BASEBALL","league","Study2","B",128,2692,"catch",18.181818181818,"league",0
85,"5d0a90bb7c5110001acaa336",1,"Read Version A","BASEBALL","league","Study2","B",4038,3552,"league",100,"league",1
85,"5f26ad14db44f940a40c86dd",1,"Read Version A","BASEBALL","league","Study2","B",13344,10165,"league",100,"league",1
85,"w10030757JP",1,"Read Version A","BASEBALL","league","Study2","B",940,2242,"catcher",30.769230769231,"league",0
85,"w10022439_mlr",1,"Read Version A","BASEBALL","league","Study2","B",879,1509,"",0,"league",0
86,"W10106164HPR",1,"Read Version A","BEST","favorite","Study2","B",1383,4996,"favorite ",100,"favorite",1
86,"w10067789_JT",1,"Read Version A","BEST","favorite","Study2","B",1894,11680,"favorite",100,"favorite",1
86,"10097621LS",1,"Read Version A","BEST","favorite","Study2","B",257,7784,"first",46.153846153846,"favorite",0
86,"w10076541_mim",1,"Read Version A","BEST","favorite","Study2","B",378,5832,"friends",53.333333333333,"favorite",0
86,"w10030757JP",1,"Read Version A","BEST","favorite","Study2","B",391,831,"",0,"favorite",0
86,"w10096966",1,"Read Version A","BEST","favorite","Study2","B",2976,1240,"",0,"favorite",0
86,"w980000_lf",1,"Read Version A","BEST","favorite","Study2","B",4215,8719,"top",18.181818181818,"favorite",0
86,"5f26ad14db44f940a40c86dd",1,"Read Version A","BEST","favorite","Study2","B",1357,1749,"#",0,"favorite",0
86,"5d0a90bb7c5110001acaa336",1,"Read Version A","BEST","favorite","Study2","B",4274,2322,"favorite",100,"favorite",1
86,"w10022439_mlr",1,"Read Version A","BEST","favorite","Study2","B",1057,1101,"",0,"favorite",0
87,"W10106164HPR",1,"Read Version A","BIRD","penguin","Study2","B",1839,3705,"seed",18.181818181818,"penguin",0
87,"5f26ad14db44f940a40c86dd",1,"Read Version A","BIRD","penguin","Study2","B",8503,7196,"penguin",100,"penguin",1
87,"w10096966",1,"Read Version A","BIRD","penguin","Study2","B",1394,4950,"",0,"penguin",0
87,"w10030757JP",1,"Read Version A","BIRD","penguin","Study2","B",641,3046,"swan",18.181818181818,"penguin",0
87,"w10067789_JT",1,"Read Version A","BIRD","penguin","Study2","B",1976,7771,"swan",18.181818181818,"penguin",0
87,"w980000_lf",1,"Read Version A","BIRD","penguin","Study2","B",4254,2985,"fly",0,"penguin",0
87,"5d0a90bb7c5110001acaa336",1,"Read Version A","BIRD","penguin","Study2","B",2084,3871,"penguin",100,"penguin",1
87,"10097621LS",1,"Read Version A","BIRD","penguin","Study2","B",137,4404,"wngs",36.363636363636,"penguin",0
87,"w10022439_mlr",1,"Read Version A","BIRD","penguin","Study2","B",844,1095,"",0,"penguin",0
87,"w10076541_mim",1,"Read Version A","BIRD","penguin","Study2","B",473,1294,"",0,"penguin",0
88,"w10096966",1,"Read Version A","BOTH","ounce","Study2","U",2256,1441,"",0,"ounce",0
88,"w980000_lf",1,"Read Version A","BOTH","ounce","Study2","U",2395,5365,"ounce",100,"ounce",1
88,"5d0a90bb7c5110001acaa336",1,"Read Version A","BOTH","ounce","Study2","U",3316,11339,"",0,"ounce",0
88,"5f26ad14db44f940a40c86dd",1,"Read Version A","BOTH","ounce","Study2","U",2082,1045,"",0,"ounce",0
88,"10097621LS",1,"Read Version A","BOTH","ounce","Study2","U",248,6467,"two",25,"ounce",0
88,"w10067789_JT",1,"Read Version A","BOTH","ounce","Study2","U",3812,3243,"",0,"ounce",0
88,"w10022439_mlr",1,"Read Version A","BOTH","ounce","Study2","U",1955,709,"",0,"ounce",0
88,"W10106164HPR",1,"Read Version A","BOTH","ounce","Study2","U",890,5893,"single",36.363636363636,"ounce",0
88,"w10076541_mim",1,"Read Version A","BOTH","ounce","Study2","U",525,1449,"",0,"ounce",0
88,"w10030757JP",1,"Read Version A","BOTH","ounce","Study2","U",699,959,"",0,"ounce",0
89,"10097621LS",1,"Read Version A","CACTUS","plant","Study2","F",396,2453,"plant",100,"plant",1
89,"5d0a90bb7c5110001acaa336",1,"Read Version A","CACTUS","plant","Study2","F",1596,2216,"plant",100,"plant",1
89,"w980000_lf",1,"Read Version A","CACTUS","plant","Study2","F",4131,2002,"plant",100,"plant",1
89,"W10106164HPR",1,"Read Version A","CACTUS","plant","Study2","F",1401,7062,"plant",100,"plant",1
89,"w10076541_mim",1,"Read Version A","CACTUS","plant","Study2","F",490,4440,"plant",100,"plant",1
89,"5f26ad14db44f940a40c86dd",1,"Read Version A","CACTUS","plant","Study2","F",1325,4706,"plant",100,"plant",1
89,"w10096966",1,"Read Version A","CACTUS","plant","Study2","F",1054,1274,"",0,"plant",0
89,"w10022439_mlr",1,"Read Version A","CACTUS","plant","Study2","F",793,2061,"",0,"plant",0
89,"w10030757JP",1,"Read Version A","CACTUS","plant","Study2","F",755,2627,"plant",100,"plant",1
89,"w10067789_JT",1,"Read Version A","CACTUS","plant","Study2","F",2276,3486,"plant",100,"plant",1
90,"5f26ad14db44f940a40c86dd",1,"Read Version A","CAKE","clothes","Study2","U",8982,4589,"",0,"clothes",0
90,"W10106164HPR",1,"Read Version A","CAKE","clothes","Study2","U",1099,6167,"food",18.181818181818,"clothes",0
90,"w10096966",1,"Read Version A","CAKE","clothes","Study2","U",1062,1961,"",0,"clothes",0
90,"w10076541_mim",1,"Read Version A","CAKE","clothes","Study2","U",317,6383,"bake",18.181818181818,"clothes",0
90,"10097621LS",1,"Read Version A","CAKE","clothes","Study2","U",107,4681,"good",18.181818181818,"clothes",0
90,"w10030757JP",1,"Read Version A","CAKE","clothes","Study2","U",582,1321,"",0,"clothes",0
90,"w980000_lf",1,"Read Version A","CAKE","clothes","Study2","U",3260,3055,"clothes",100,"clothes",1
90,"5d0a90bb7c5110001acaa336",1,"Read Version A","CAKE","clothes","Study2","U",3153,4151,"sweet",16.666666666667,"clothes",0
90,"w10067789_JT",1,"Read Version A","CAKE","clothes","Study2","U",3435,6898,"clothes",100,"clothes",1
90,"w10022439_mlr",1,"Read Version A","CAKE","clothes","Study2","U",2128,925,"",0,"clothes",0
91,"5f26ad14db44f940a40c86dd",1,"Read Version A","CANDLE","wax","Study2","S",1401,3284,"wax",100,"wax",1
91,"w10022439_mlr",1,"Read Version A","CANDLE","wax","Study2","S",849,1585,"",0,"wax",0
91,"w10030757JP",1,"Read Version A","CANDLE","wax","Study2","S",959,1824,"wax",100,"wax",1
91,"5d0a90bb7c5110001acaa336",1,"Read Version A","CANDLE","wax","Study2","S",2678,2247,"wax",100,"wax",1
91,"W10106164HPR",1,"Read Version A","CANDLE","wax","Study2","S",992,2440,"ligth",0,"wax",0
91,"w10076541_mim",1,"Read Version A","CANDLE","wax","Study2","S",385,6650,"light",0,"wax",0
91,"10097621LS",1,"Read Version A","CANDLE","wax","Study2","S",254,3156,"burn",0,"wax",0
91,"w980000_lf",1,"Read Version A","CANDLE","wax","Study2","S",2028,3571,"incense",0,"wax",0
91,"w10067789_JT",1,"Read Version A","CANDLE","wax","Study2","S",2052,2836,"wax",100,"wax",1
91,"w10096966",1,"Read Version A","CANDLE","wax","Study2","S",2939,4304,"wax",100,"wax",1
92,"5f26ad14db44f940a40c86dd",1,"Read Version A","CAR","windshield","Study2","B",9763,17764,"windshield",100,"windshield",1
92,"w10030757JP",1,"Read Version A","CAR","windshield","Study2","B",736,1392,"",0,"windshield",0
92,"5d0a90bb7c5110001acaa336",1,"Read Version A","CAR","windshield","Study2","B",1550,5577,"windshield",100,"windshield",1
92,"w10022439_mlr",1,"Read Version A","CAR","windshield","Study2","B",942,2790,"driver",37.5,"windshield",0
92,"w980000_lf",1,"Read Version A","CAR","windshield","Study2","B",2766,6496,"charm",13.333333333333,"windshield",0
92,"10097621LS",1,"Read Version A","CAR","windshield","Study2","B",130,2904,"engine",37.5,"windshield",0
92,"W10106164HPR",1,"Read Version A","CAR","windshield","Study2","B",1493,3239,"charm",13.333333333333,"windshield",0
92,"w10067789_JT",1,"Read Version A","CAR","windshield","Study2","B",1807,1384,"",0,"windshield",0
92,"w10076541_mim",1,"Read Version A","CAR","windshield","Study2","B",509,934,"",0,"windshield",0
92,"w10096966",1,"Read Version A","CAR","windshield","Study2","B",1348,7471,"",0,"windshield",0
93,"10097621LS",1,"Read Version A","CAT","panther","Study2","B",227,1786,"dog",0,"panther",0
93,"w980000_lf",1,"Read Version A","CAT","panther","Study2","B",2701,6388,"panther",100,"panther",1
93,"5d0a90bb7c5110001acaa336",1,"Read Version A","CAT","panther","Study2","B",2926,3634,"paw",40,"panther",0
93,"w10030757JP",1,"Read Version A","CAT","panther","Study2","B",1434,1881,"dog",0,"panther",0
93,"w10076541_mim",1,"Read Version A","CAT","panther","Study2","B",638,4133,"fur",20,"panther",0
93,"W10106164HPR",1,"Read Version A","CAT","panther","Study2","B",1090,3508,"dog",0,"panther",0
93,"5f26ad14db44f940a40c86dd",1,"Read Version A","CAT","panther","Study2","B",2001,5649,"panther",100,"panther",1
93,"w10067789_JT",1,"Read Version A","CAT","panther","Study2","B",1070,1822,"",0,"panther",0
93,"w10096966",1,"Read Version A","CAT","panther","Study2","B",1205,5770,"panther",100,"panther",1
93,"w10022439_mlr",1,"Read Version A","CAT","panther","Study2","B",1002,1288,"",0,"panther",0
94,"5f26ad14db44f940a40c86dd",1,"Read Version A","CHERRY","red","Study2","F",1115,4603,"red",100,"red",1
94,"10097621LS",1,"Read Version A","CHERRY","red","Study2","F",257,2141,"pie",33.333333333333,"red",0
94,"5d0a90bb7c5110001acaa336",1,"Read Version A","CHERRY","red","Study2","F",1578,1293,"red",100,"red",1
94,"w10076541_mim",1,"Read Version A","CHERRY","red","Study2","F",603,15372,"red",100,"red",1
94,"W10106164HPR",1,"Read Version A","CHERRY","red","Study2","F",824,2800,"tree",57.142857142857,"red",1
94,"w10022439_mlr",1,"Read Version A","CHERRY","red","Study2","F",709,1970,"",0,"red",0
94,"w10030757JP",1,"Read Version A","CHERRY","red","Study2","F",783,1379,"red",100,"red",1
94,"w10096966",1,"Read Version A","CHERRY","red","Study2","F",1240,1987,"",0,"red",0
94,"w10067789_JT",1,"Read Version A","CHERRY","red","Study2","F",1965,2379,"",0,"red",0
94,"w980000_lf",1,"Read Version A","CHERRY","red","Study2","F",2933,1877,"fruit",25,"red",0
95,"5f26ad14db44f940a40c86dd",1,"Read Version A","CHILL","cold","Study2","F",1317,4065,"cold",100,"cold",1
95,"w10030757JP",1,"Read Version A","CHILL","cold","Study2","F",1807,1663,"cold",100,"cold",1
95,"w10022439_mlr",1,"Read Version A","CHILL","cold","Study2","F",759,3061,"cold",100,"cold",1
95,"W10106164HPR",1,"Read Version A","CHILL","cold","Study2","F",1134,9888,"winter",0,"cold",0
95,"10097621LS",1,"Read Version A","CHILL","cold","Study2","F",172,5122,"relax",22.222222222222,"cold",0
95,"5d0a90bb7c5110001acaa336",1,"Read Version A","CHILL","cold","Study2","F",2195,1913,"cold",100,"cold",1
95,"w10076541_mim",1,"Read Version A","CHILL","cold","Study2","F",329,4302,"not",28.571428571429,"cold",0
95,"w980000_lf",1,"Read Version A","CHILL","cold","Study2","F",1836,3564,"cold",100,"cold",1
95,"w10067789_JT",1,"Read Version A","CHILL","cold","Study2","F",2843,2158,"cold",100,"cold",1
95,"w10096966",1,"Read Version A","CHILL","cold","Study2","F",2457,5319,"hot",28.571428571429,"cold",0
96,"5d0a90bb7c5110001acaa336",1,"Read Version A","CHOP","cut","Study2","F",3751,1698,"cut",100,"cut",1
96,"w10022439_mlr",1,"Read Version A","CHOP","cut","Study2","F",1161,4152,"",0,"cut",0
96,"5f26ad14db44f940a40c86dd",1,"Read Version A","CHOP","cut","Study2","F",1560,5990,"cut",100,"cut",1
96,"w10076541_mim",1,"Read Version A","CHOP","cut","Study2","F",1217,18553,"down",0,"cut",0
96,"10097621LS",1,"Read Version A","CHOP","cut","Study2","F",151,3757,"cut",100,"cut",1
96,"w10096966",1,"Read Version A","CHOP","cut","Study2","F",1602,4194,"cut",100,"cut",1
96,"w10030757JP",1,"Read Version A","CHOP","cut","Study2","F",694,2298,"meat",28.571428571429,"cut",0
96,"w980000_lf",1,"Read Version A","CHOP","cut","Study2","F",5675,8079,"knife",0,"cut",0
96,"w10067789_JT",1,"Read Version A","CHOP","cut","Study2","F",2510,2222,"cut",100,"cut",1
96,"W10106164HPR",1,"Read Version A","CHOP","cut","Study2","F",1230,4414,"steak",25,"cut",0
97,"5f26ad14db44f940a40c86dd",1,"Read Version A","CLUE","game","Study2","F",2140,14674,"",0,"game",0
97,"W10106164HPR",1,"Read Version A","CLUE","game","Study2","F",1650,10377,"idea",25,"game",0
97,"5d0a90bb7c5110001acaa336",1,"Read Version A","CLUE","game","Study2","F",3902,2464,"game",100,"game",1
97,"w10030757JP",1,"Read Version A","CLUE","game","Study2","F",1768,1992,"guess",44.444444444444,"game",0
97,"w10022439_mlr",1,"Read Version A","CLUE","game","Study2","F",888,3061,"game",100,"game",1
97,"w10076541_mim",1,"Read Version A","CLUE","game","Study2","F",2592,4574,"game",100,"game",1
97,"10097621LS",1,"Read Version A","CLUE","game","Study2","F",125,1547,"hint",0,"game",0
97,"w10067789_JT",1,"Read Version A","CLUE","game","Study2","F",2119,4255,"game",100,"game",1
97,"w10096966",1,"Read Version A","CLUE","game","Study2","F",1085,1168,"",0,"game",0
97,"w980000_lf",1,"Read Version A","CLUE","game","Study2","F",4402,1862,"game",100,"game",1
98,"5f26ad14db44f940a40c86dd",1,"Read Version A","CRACKLE","able","Study2","U",1931,1729,"",0,"able",0
98,"w10022439_mlr",1,"Read Version A","CRACKLE","able","Study2","U",1095,1314,"",0,"able",0
98,"w10067789_JT",1,"Read Version A","CRACKLE","able","Study2","U",4001,4555,"",0,"able",0
98,"10097621LS",1,"Read Version A","CRACKLE","able","Study2","U",428,2384,"laugh",22.222222222222,"able",0
98,"5d0a90bb7c5110001acaa336",1,"Read Version A","CRACKLE","able","Study2","U",6576,7495,"",0,"able",0
98,"w10096966",1,"Read Version A","CRACKLE","able","Study2","U",2297,1913,"",0,"able",0
98,"w10030757JP",1,"Read Version A","CRACKLE","able","Study2","U",1073,1408,"",0,"able",0
98,"w980000_lf",1,"Read Version A","CRACKLE","able","Study2","U",5843,6667,"pop",0,"able",0
98,"w10076541_mim",1,"Read Version A","CRACKLE","able","Study2","U",608,7918,"laugh",22.222222222222,"able",0
98,"W10106164HPR",1,"Read Version A","CRACKLE","able","Study2","U",1604,6694,"pop",0,"able",0
99,"w10076541_mim",1,"Read Version A","DEAD","coffin","Study2","B",400,4595,"alive",18.181818181818,"coffin",0
99,"10097621LS",1,"Read Version A","DEAD","coffin","Study2","B",283,1891,"alive",18.181818181818,"coffin",0
99,"5f26ad14db44f940a40c86dd",1,"Read Version A","DEAD","coffin","Study2","B",7542,9223,"coffin",100,"coffin",1
99,"W10106164HPR",1,"Read Version A","DEAD","coffin","Study2","B",1766,5209,"buisness",28.571428571429,"coffin",0
99,"w980000_lf",1,"Read Version A","DEAD","coffin","Study2","B",2328,7897,"coffin",100,"coffin",1
99,"w10030757JP",1,"Read Version A","DEAD","coffin","Study2","B",1346,1777,"coffin",100,"coffin",1
99,"5d0a90bb7c5110001acaa336",1,"Read Version A","DEAD","coffin","Study2","B",2335,2533,"coffin",100,"coffin",1
99,"w10067789_JT",1,"Read Version A","DEAD","coffin","Study2","B",2017,1326,"",0,"coffin",0
99,"w10022439_mlr",1,"Read Version A","DEAD","coffin","Study2","B",880,3356,"coffin",100,"coffin",1
99,"w10096966",1,"Read Version A","DEAD","coffin","Study2","B",2013,4436,"coffin",100,"coffin",1
100,"5d0a90bb7c5110001acaa336",1,"Read Version A","DETECTIVE","mystery","Study2","F",4745,5558,"mystery",100,"mystery",1
100,"5f26ad14db44f940a40c86dd",1,"Read Version A","DETECTIVE","mystery","Study2","F",14116,6372,"mystery",100,"mystery",1
100,"w10022439_mlr",1,"Read Version A","DETECTIVE","mystery","Study2","F",910,2080,"",0,"mystery",0
100,"w10030757JP",1,"Read Version A","DETECTIVE","mystery","Study2","F",863,1222,"",0,"mystery",0
100,"w10067789_JT",1,"Read Version A","DETECTIVE","mystery","Study2","F",3504,8500,"",0,"mystery",0
100,"w10076541_mim",1,"Read Version A","DETECTIVE","mystery","Study2","F",7807,948,"",0,"mystery",0
