Username,ID,ExperimentName,Session,Trial,Date,TimeDif,"Condition Number","Stimuli File","Order File","Condition Description","Condition Notes",Stimuli*Cue,Stimuli*Answer,Stimuli*Shuffle,"Stimuli*Stimuli Notes",Stimuli*Value,Procedure*Item,"Procedure*Trial Type","Procedure*Max Time","Procedure*Min Time",Procedure*Text,"Procedure*Procedure Notes",Procedure*Shuffle,Response*RT,Response*Response,Response*Accuracy,Response*RTfirst,Response*RTlast,Response*strictAcc,Response*lenientAcc,Response*focus,Response*Focus
5eac357b37aec507ea7a127f,fhm4hr2u08,Nick_Dissertation_EX1,1,1,2020-07-08T14:44:45-07:00,14.714794158936,4,versionC_stim.csv,READVersionD.csv,"Read Version D","Dissertation, read only version D",,,,,,0,Instruct,-,10,"Please study each of the following word pairs. Remember that your memory will be tested! When finished, press Enter to move to the next pair.",Initial_Instruct,Instruct1,14413,,,-1,-1,,,,1
5eac357b37aec507ea7a127f,fhm4hr2u08,Nick_Dissertation_EX1,1,2,2020-07-08T14:44:49-07:00,4.3039429187775,4,versionC_stim.csv,READVersionD.csv,"Read Version D","Dissertation, read only version D",STRING,NOODLE,BUFFER3,Buffer,92,95,Study,User,-,,Study/JOL,BUFFER,3860,,,-1,-1,,,,1
5eac357b37aec507ea7a127f,fhm4hr2u08,Nick_Dissertation_EX1,1,3,2020-07-08T14:44:52-07:00,2.586699962616,4,versionC_stim.csv,READVersionD.csv,"Read Version D","Dissertation, read only version D",POTATO,CARROT,BUFFER3,Buffer,91,96,Study,User,-,,Study/JOL,BUFFER,2151,,,-1,-1,,,,1
5eac357b37aec507ea7a127f,fhm4hr2u08,Nick_Dissertation_EX1,1,4,2020-07-08T14:44:54-07:00,1.7802250385284,4,versionC_stim.csv,READVersionD.csv,"Read Version D","Dissertation, read only version D",FISH,SHRIMP,BUFFER3,Buffer,93,94,Study,User,-,,Study/JOL,BUFFER,1344,,,-1,-1,,,,1
5eac357b37aec507ea7a127f,fhm4hr2u08,Nick_Dissertation_EX1,1,5,2020-07-08T14:44:55-07:00,1.9148800373077,4,versionC_stim.csv,READVersionD.csv,"Read Version D","Dissertation, read only version D",ADVENTURE,CAMP,BUFFER3,Buffer,95,92,Study,User,-,,Study/JOL,BUFFER,1451,,,-1,-1,,,,1
5eac357b37aec507ea7a127f,fhm4hr2u08,Nick_Dissertation_EX1,1,6,2020-07-08T14:44:57-07:00,1.6430420875549,4,versionC_stim.csv,READVersionD.csv,"Read Version D","Dissertation, read only version D",FROZEN,ICE,BUFFER3,Buffer,94,93,Study,User,-,,Study/JOL,BUFFER,1167,,,-1,-1,,,,1
5eac357b37aec507ea7a127f,fhm4hr2u08,Nick_Dissertation_EX1,1,7,2020-07-08T14:44:59-07:00,1.6212079524994,4,versionC_stim.csv,READVersionD.csv,"Read Version D","Dissertation, read only version D",SMELL,INCENSE,Study2,B,110,168,Study,User,-,,Study/JOL,"Study Phase",1132,,,-1,-1,,,,1
5eac357b37aec507ea7a127f,fhm4hr2u08,Nick_Dissertation_EX1,1,8,2020-07-08T14:45:01-07:00,2.2950398921967,4,versionC_stim.csv,READVersionD.csv,"Read Version D","Dissertation, read only version D",TICK,FLEA,Study2,S,151,154,Study,User,-,,Study/JOL,"Study Phase",1781,,,-1,-1,,,,1
5eac357b37aec507ea7a127f,fhm4hr2u08,Nick_Dissertation_EX1,1,9,2020-07-08T14:45:03-07:00,1.5457870960236,4,versionC_stim.csv,READVersionD.csv,"Read Version D","Dissertation, read only version D",BALLOON,POP,Study2,F,123,129,Study,User,-,,Study/JOL,"Study Phase",1112,,,-1,-1,,,,1
5eac357b37aec507ea7a127f,fhm4hr2u08,Nick_Dissertation_EX1,1,10,2020-07-08T14:45:04-07:00,1.3478729724884,4,versionC_stim.csv,READVersionD.csv,"Read Version D","Dissertation, read only version D",CUT,CHOP,Study2,B,107,137,Study,User,-,,Study/JOL,"Study Phase",903,,,-1,-1,,,,1
5eac357b37aec507ea7a127f,fhm4hr2u08,Nick_Dissertation_EX1,1,11,2020-07-08T14:45:07-07:00,2.8785300254822,4,versionC_stim.csv,READVersionD.csv,"Read Version D","Dissertation, read only version D",SIGN,LOAN,Study2,U,171,103,Study,User,-,,Study/JOL,"Study Phase",2402,,,-1,-1,,,,1
5eac357b37aec507ea7a127f,fhm4hr2u08,Nick_Dissertation_EX1,1,12,2020-07-08T14:45:08-07:00,1.5289528369904,4,versionC_stim.csv,READVersionD.csv,"Read Version D","Dissertation, read only version D",MYSTERY,DETECTIVE,Study2,B,100,106,Study,User,-,,Study/JOL,"Study Phase",1078,,,-1,-1,,,,1
5eac357b37aec507ea7a127f,fhm4hr2u08,Nick_Dissertation_EX1,1,13,2020-07-08T14:45:11-07:00,2.3024840354919,4,versionC_stim.csv,READVersionD.csv,"Read Version D","Dissertation, read only version D",COMMUNICATION,PHONE,Study2,S,149,164,Study,User,-,,Study/JOL,"Study Phase",1849,,,-1,-1,,,,1
5eac357b37aec507ea7a127f,fhm4hr2u08,Nick_Dissertation_EX1,1,14,2020-07-08T14:45:12-07:00,1.5991230010986,4,versionC_stim.csv,READVersionD.csv,"Read Version D","Dissertation, read only version D",TEMPER,TANTRUM,Study2,S,154,110,Study,User,-,,Study/JOL,"Study Phase",1143,,,-1,-1,,,,1
5eac357b37aec507ea7a127f,fhm4hr2u08,Nick_Dissertation_EX1,1,15,2020-07-08T14:45:14-07:00,1.4565880298615,4,versionC_stim.csv,READVersionD.csv,"Read Version D","Dissertation, read only version D",COLD,CHILL,Study2,B,114,117,Study,User,-,,Study/JOL,"Study Phase",1007,,,-1,-1,,,,1
5eac357b37aec507ea7a127f,fhm4hr2u08,Nick_Dissertation_EX1,1,16,2020-07-08T14:45:16-07:00,1.8878440856934,4,versionC_stim.csv,READVersionD.csv,"Read Version D","Dissertation, read only version D",TRASH,LITTER,Study2,B,103,113,Study,User,-,,Study/JOL,"Study Phase",1455,,,-1,-1,,,,1
5eac357b37aec507ea7a127f,fhm4hr2u08,Nick_Dissertation_EX1,1,17,2020-07-08T14:45:17-07:00,1.5035400390625,4,versionC_stim.csv,READVersionD.csv,"Read Version D","Dissertation, read only version D",COFFIN,DEAD,Study2,F,128,105,Study,User,-,,Study/JOL,"Study Phase",1091,,,-1,-1,,,,1
5eac357b37aec507ea7a127f,fhm4hr2u08,Nick_Dissertation_EX1,1,18,2020-07-08T14:45:21-07:00,4.0774488449097,4,versionC_stim.csv,READVersionD.csv,"Read Version D","Dissertation, read only version D",CARBON,ELEMENT,Study2,S,141,98,Study,User,-,,Study/JOL,"Study Phase",1489,,,-1,-1,,,,1
5eac357b37aec507ea7a127f,fhm4hr2u08,Nick_Dissertation_EX1,1,19,2020-07-08T14:45:23-07:00,1.9093821048737,4,versionC_stim.csv,READVersionD.csv,"Read Version D","Dissertation, read only version D",PANTHER,CAT,Study2,F,126,104,Study,User,-,,Study/JOL,"Study Phase",1316,,,-1,-1,,,,1
5eac357b37aec507ea7a127f,fhm4hr2u08,Nick_Dissertation_EX1,1,20,2020-07-08T14:45:25-07:00,1.5334849357605,4,versionC_stim.csv,READVersionD.csv,"Read Version D","Dissertation, read only version D",BANG,FUZZY,Study2,U,168,108,Study,User,-,,Study/JOL,"Study Phase",1068,,,-1,-1,,,,1
5eac357b37aec507ea7a127f,fhm4hr2u08,Nick_Dissertation_EX1,1,21,2020-07-08T14:45:26-07:00,1.3608939647675,4,versionC_stim.csv,READVersionD.csv,"Read Version D","Dissertation, read only version D",AWAY,GONE,Study2,S,142,157,Study,User,-,,Study/JOL,"Study Phase",873,,,-1,-1,,,,1
5eac357b37aec507ea7a127f,fhm4hr2u08,Nick_Dissertation_EX1,1,22,2020-07-08T14:45:28-07:00,1.5931451320648,4,versionC_stim.csv,READVersionD.csv,"Read Version D","Dissertation, read only version D",OBTAIN,MEAT,Study2,U,161,126,Study,User,-,,Study/JOL,"Study Phase",1132,,,-1,-1,,,,1
5eac357b37aec507ea7a127f,fhm4hr2u08,Nick_Dissertation_EX1,1,23,2020-07-08T14:45:29-07:00,1.3467948436737,4,versionC_stim.csv,READVersionD.csv,"Read Version D","Dissertation, read only version D",HEAD,SCALP,Study2,B,105,135,Study,User,-,,Study/JOL,"Study Phase",881,,,-1,-1,,,,1
5eac357b37aec507ea7a127f,fhm4hr2u08,Nick_Dissertation_EX1,1,24,2020-07-08T14:45:30-07:00,1.3606491088867,4,versionC_stim.csv,READVersionD.csv,"Read Version D","Dissertation, read only version D",FLIP,TURN,Study2,F,116,109,Study,User,-,,Study/JOL,"Study Phase",933,,,-1,-1,,,,1
5eac357b37aec507ea7a127f,fhm4hr2u08,Nick_Dissertation_EX1,1,25,2020-07-08T14:45:32-07:00,1.821485042572,4,versionC_stim.csv,READVersionD.csv,"Read Version D","Dissertation, read only version D",CHARM,VEHICLE,Study2,U,160,145,Study,User,-,,Study/JOL,"Study Phase",1375,,,-1,-1,,,,1
5eac357b37aec507ea7a127f,fhm4hr2u08,Nick_Dissertation_EX1,1,26,2020-07-08T14:45:34-07:00,1.4492218494415,4,versionC_stim.csv,READVersionD.csv,"Read Version D","Dissertation, read only version D",NOISE,LOUD,Study2,S,152,140,Study,User,-,,Study/JOL,"Study Phase",1019,,,-1,-1,,,,1
5eac357b37aec507ea7a127f,fhm4hr2u08,Nick_Dissertation_EX1,1,27,2020-07-08T14:45:35-07:00,1.1415610313416,4,versionC_stim.csv,READVersionD.csv,"Read Version D","Dissertation, read only version D",MAROON,JUSTICE,Study2,U,156,175,Study,User,-,,Study/JOL,"Study Phase",708,,,-1,-1,,,,1
5eac357b37aec507ea7a127f,fhm4hr2u08,Nick_Dissertation_EX1,1,28,2020-07-08T14:45:38-07:00,2.9240591526031,4,versionC_stim.csv,READVersionD.csv,"Read Version D","Dissertation, read only version D",SARDINE,FISH,Study2,F,130,122,Study,User,-,,Study/JOL,"Study Phase",1370,,,-1,-1,,,,1
5eac357b37aec507ea7a127f,fhm4hr2u08,Nick_Dissertation_EX1,1,29,2020-07-08T14:45:39-07:00,1.3077228069305,4,versionC_stim.csv,READVersionD.csv,"Read Version D","Dissertation, read only version D",FICTION,LISTEN,Study2,U,164,149,Study,User,-,,Study/JOL,"Study Phase",867,,,-1,-1,,,,1
5eac357b37aec507ea7a127f,fhm4hr2u08,Nick_Dissertation_EX1,1,30,2020-07-08T14:45:42-07:00,2.9986681938171,4,versionC_stim.csv,READVersionD.csv,"Read Version D","Dissertation, read only version D",SEATBELT,SAFETY,Study2,S,147,132,Study,User,-,,Study/JOL,"Study Phase",1552,,,-1,-1,,,,1
5eac357b37aec507ea7a127f,fhm4hr2u08,Nick_Dissertation_EX1,1,31,2020-07-08T14:45:44-07:00,1.6361010074615,4,versionC_stim.csv,READVersionD.csv,"Read Version D","Dissertation, read only version D",RED,CHERRY,Study2,B,104,141,Study,User,-,,Study/JOL,"Study Phase",1088,,,-1,-1,,,,1
5eac357b37aec507ea7a127f,fhm4hr2u08,Nick_Dissertation_EX1,1,32,2020-07-08T14:45:45-07:00,1.664598941803,4,versionC_stim.csv,READVersionD.csv,"Read Version D","Dissertation, read only version D",ACTRESS,STAR,Study2,F,120,133,Study,User,-,,Study/JOL,"Study Phase",1195,,,-1,-1,,,,1
5eac357b37aec507ea7a127f,fhm4hr2u08,Nick_Dissertation_EX1,1,33,2020-07-08T14:45:46-07:00,1.2321078777313,4,versionC_stim.csv,READVersionD.csv,"Read Version D","Dissertation, read only version D",SCAR,MAIN,Study2,U,175,107,Study,User,-,,Study/JOL,"Study Phase",771,,,-1,-1,,,,1
5eac357b37aec507ea7a127f,fhm4hr2u08,Nick_Dissertation_EX1,1,34,2020-07-08T14:45:52-07:00,5.733460187912,4,versionC_stim.csv,READVersionD.csv,"Read Version D","Dissertation, read only version D",LONELY,ALONE,Study2,S,145,173,Study,User,-,,Study/JOL,"Study Phase",5258,,,-1,-1,,,,1
5eac357b37aec507ea7a127f,fhm4hr2u08,Nick_Dissertation_EX1,1,35,2020-07-08T14:45:55-07:00,2.6605968475342,4,versionC_stim.csv,READVersionD.csv,"Read Version D","Dissertation, read only version D",CLOTHES,CAKE,Study2,U,166,166,Study,User,-,,Study/JOL,"Study Phase",2152,,,-1,-1,,,,1
5eac357b37aec507ea7a127f,fhm4hr2u08,Nick_Dissertation_EX1,1,36,2020-07-08T14:46:01-07:00,6.1964240074158,4,versionC_stim.csv,READVersionD.csv,"Read Version D","Dissertation, read only version D",SHAVE,RAZOR,Study2,S,136,138,Study,User,-,,Study/JOL,"Study Phase",5749,,,-1,-1,,,,1
5eac357b37aec507ea7a127f,fhm4hr2u08,Nick_Dissertation_EX1,1,37,2020-07-08T14:46:04-07:00,3.2603180408478,4,versionC_stim.csv,READVersionD.csv,"Read Version D","Dissertation, read only version D",STEAK,GIVE,Study2,U,158,172,Study,User,-,,Study/JOL,"Study Phase",2819,,,-1,-1,,,,1
5eac357b37aec507ea7a127f,fhm4hr2u08,Nick_Dissertation_EX1,1,38,2020-07-08T14:46:06-07:00,1.3401930332184,4,versionC_stim.csv,READVersionD.csv,"Read Version D","Dissertation, read only version D",CHILDREN,MIRROR,Study2,U,174,148,Study,User,-,,Study/JOL,"Study Phase",895,,,-1,-1,,,,1
5eac357b37aec507ea7a127f,fhm4hr2u08,Nick_Dissertation_EX1,1,39,2020-07-08T14:46:07-07:00,1.4759058952332,4,versionC_stim.csv,READVersionD.csv,"Read Version D","Dissertation, read only version D",STRAWBERRY,FRUIT,Study2,F,124,142,Study,User,-,,Study/JOL,"Study Phase",1033,,,-1,-1,,,,1
5eac357b37aec507ea7a127f,fhm4hr2u08,Nick_Dissertation_EX1,1,40,2020-07-08T14:46:09-07:00,1.4347059726715,4,versionC_stim.csv,READVersionD.csv,"Read Version D","Dissertation, read only version D",SHAKE,Shell,Study2,U,163,99,Study,User,-,,Study/JOL,"Study Phase",988,,,-1,-1,,,,1
5eac357b37aec507ea7a127f,fhm4hr2u08,Nick_Dissertation_EX1,1,41,2020-07-08T14:46:11-07:00,2.0058209896088,4,versionC_stim.csv,READVersionD.csv,"Read Version D","Dissertation, read only version D",TAN,SUN,Study2,S,155,134,Study,User,-,,Study/JOL,"Study Phase",1530,,,-1,-1,,,,1
5eac357b37aec507ea7a127f,fhm4hr2u08,Nick_Dissertation_EX1,1,42,2020-07-08T14:46:12-07:00,1.3317861557007,4,versionC_stim.csv,READVersionD.csv,"Read Version D","Dissertation, read only version D",GAME,CLUE,Study2,B,97,116,Study,User,-,,Study/JOL,"Study Phase",889,,,-1,-1,,,,1
5eac357b37aec507ea7a127f,fhm4hr2u08,Nick_Dissertation_EX1,1,43,2020-07-08T14:46:13-07:00,1.3527588844299,4,versionC_stim.csv,READVersionD.csv,"Read Version D","Dissertation, read only version D",CAR,DRIVER,Study2,B,106,171,Study,User,-,,Study/JOL,"Study Phase",881,,,-1,-1,,,,1
5eac357b37aec507ea7a127f,fhm4hr2u08,Nick_Dissertation_EX1,1,44,2020-07-08T14:46:15-07:00,1.3535690307617,4,versionC_stim.csv,READVersionD.csv,"Read Version D","Dissertation, read only version D",JAR,MASON,Study2,S,138,125,Study,User,-,,Study/JOL,"Study Phase",866,,,-1,-1,,,,1
5eac357b37aec507ea7a127f,fhm4hr2u08,Nick_Dissertation_EX1,1,45,2020-07-08T14:46:16-07:00,1.2188529968262,4,versionC_stim.csv,READVersionD.csv,"Read Version D","Dissertation, read only version D",HAVE,OWN,Study2,S,153,169,Study,User,-,,Study/JOL,"Study Phase",775,,,-1,-1,,,,1
5eac357b37aec507ea7a127f,fhm4hr2u08,Nick_Dissertation_EX1,1,46,2020-07-08T14:46:17-07:00,1.2460241317749,4,versionC_stim.csv,READVersionD.csv,"Read Version D","Dissertation, read only version D",FAVORITE,BEST,Study2,F,125,147,Study,User,-,,Study/JOL,"Study Phase",794,,,-1,-1,,,,1
5eac357b37aec507ea7a127f,fhm4hr2u08,Nick_Dissertation_EX1,1,47,2020-07-08T14:46:19-07:00,1.5297698974609,4,versionC_stim.csv,READVersionD.csv,"Read Version D","Dissertation, read only version D",AIRCRAFT,PLANE,Study2,F,129,146,Study,User,-,,Study/JOL,"Study Phase",1093,,,-1,-1,,,,1
5eac357b37aec507ea7a127f,fhm4hr2u08,Nick_Dissertation_EX1,1,48,2020-07-08T14:46:20-07:00,1.3541491031647,4,versionC_stim.csv,READVersionD.csv,"Read Version D","Dissertation, read only version D",LEAGUE,BASEBALL,Study2,F,131,136,Study,User,-,,Study/JOL,"Study Phase",860,,,-1,-1,,,,1
5eac357b37aec507ea7a127f,fhm4hr2u08,Nick_Dissertation_EX1,1,49,2020-07-08T14:46:22-07:00,1.7199919223785,4,versionC_stim.csv,READVersionD.csv,"Read Version D","Dissertation, read only version D",BRAWL,FIGHT,Study2,F,135,155,Study,User,-,,Study/JOL,"Study Phase",1251,,,-1,-1,,,,1
5eac357b37aec507ea7a127f,fhm4hr2u08,Nick_Dissertation_EX1,1,50,2020-07-08T14:46:24-07:00,2.7569119930267,4,versionC_stim.csv,READVersionD.csv,"Read Version D","Dissertation, read only version D",SCISSORS,SHEARS,Study2,B,112,144,Study,User,-,,Study/JOL,"Study Phase",2267,,,-1,-1,,,,1
5eac357b37aec507ea7a127f,fhm4hr2u08,Nick_Dissertation_EX1,1,51,2020-07-08T14:46:26-07:00,1.5313060283661,4,versionC_stim.csv,READVersionD.csv,"Read Version D","Dissertation, read only version D",BREAKABLE,GLASS,Study2,F,127,100,Study,User,-,,Study/JOL,"Study Phase",1068,,,-1,-1,,,,1
5eac357b37aec507ea7a127f,fhm4hr2u08,Nick_Dissertation_EX1,1,52,2020-07-08T14:46:27-07:00,1.2117619514465,4,versionC_stim.csv,READVersionD.csv,"Read Version D","Dissertation, read only version D",BRACELET,WRIST,Study2,S,140,143,Study,User,-,,Study/JOL,"Study Phase",780,,,-1,-1,,,,1
5eac357b37aec507ea7a127f,fhm4hr2u08,Nick_Dissertation_EX1,1,53,2020-07-08T14:46:28-07:00,1.2203409671783,4,versionC_stim.csv,READVersionD.csv,"Read Version D","Dissertation, read only version D",JOKE,KEYS,Study2,U,165,112,Study,User,-,,Study/JOL,"Study Phase",776,,,-1,-1,,,,1
5eac357b37aec507ea7a127f,fhm4hr2u08,Nick_Dissertation_EX1,1,54,2020-07-08T14:46:30-07:00,1.3347189426422,4,versionC_stim.csv,READVersionD.csv,"Read Version D","Dissertation, read only version D",REEL,ROD,Study2,S,150,127,Study,User,-,,Study/JOL,"Study Phase",882,,,-1,-1,,,,1
5eac357b37aec507ea7a127f,fhm4hr2u08,Nick_Dissertation_EX1,1,55,2020-07-08T14:46:31-07:00,1.1236250400543,4,versionC_stim.csv,READVersionD.csv,"Read Version D","Dissertation, read only version D",TOIL,LEASE,Study2,U,170,118,Study,User,-,,Study/JOL,"Study Phase",691,,,-1,-1,,,,1
5eac357b37aec507ea7a127f,fhm4hr2u08,Nick_Dissertation_EX1,1,56,2020-07-08T14:46:32-07:00,1.1522619724274,4,versionC_stim.csv,READVersionD.csv,"Read Version D","Dissertation, read only version D",LONG,EXTENSION,Study2,B,96,163,Study,User,-,,Study/JOL,"Study Phase",736,,,-1,-1,,,,1
5eac357b37aec507ea7a127f,fhm4hr2u08,Nick_Dissertation_EX1,1,57,2020-07-08T14:46:33-07:00,1.0808579921722,4,versionC_stim.csv,READVersionD.csv,"Read Version D","Dissertation, read only version D",DRINK,WATER,Study2,S,143,111,Study,User,-,,Study/JOL,"Study Phase",660,,,-1,-1,,,,1
5eac357b37aec507ea7a127f,fhm4hr2u08,Nick_Dissertation_EX1,1,58,2020-07-08T14:46:34-07:00,1.1541061401367,4,versionC_stim.csv,READVersionD.csv,"Read Version D","Dissertation, read only version D",END,ADJOURN,Study2,B,101,159,Study,User,-,,Study/JOL,"Study Phase",714,,,-1,-1,,,,1
5eac357b37aec507ea7a127f,fhm4hr2u08,Nick_Dissertation_EX1,1,59,2020-07-08T14:46:35-07:00,1.1979918479919,4,versionC_stim.csv,READVersionD.csv,"Read Version D","Dissertation, read only version D",LOVE,AFFECTION,Study2,B,115,167,Study,User,-,,Study/JOL,"Study Phase",763,,,-1,-1,,,,1
5eac357b37aec507ea7a127f,fhm4hr2u08,Nick_Dissertation_EX1,1,60,2020-07-08T14:46:37-07:00,1.1681561470032,4,versionC_stim.csv,READVersionD.csv,"Read Version D","Dissertation, read only version D",CLEAR,MOAT,Study2,U,169,170,Study,User,-,,Study/JOL,"Study Phase",728,,,-1,-1,,,,1
5eac357b37aec507ea7a127f,fhm4hr2u08,Nick_Dissertation_EX1,1,61,2020-07-08T14:46:39-07:00,2.468523979187,4,versionC_stim.csv,READVersionD.csv,"Read Version D","Dissertation, read only version D",GROUND,EARTH,Study2,S,144,161,Study,User,-,,Study/JOL,"Study Phase",1978,,,-1,-1,,,,1
5eac357b37aec507ea7a127f,fhm4hr2u08,Nick_Dissertation_EX1,1,62,2020-07-08T14:46:40-07:00,1.299567937851,4,versionC_stim.csv,READVersionD.csv,"Read Version D","Dissertation, read only version D",CLOTH,STRETCH,Study2,U,157,151,Study,User,-,,Study/JOL,"Study Phase",856,,,-1,-1,,,,1
5eac357b37aec507ea7a127f,fhm4hr2u08,Nick_Dissertation_EX1,1,63,2020-07-08T14:46:42-07:00,1.742439031601,4,versionC_stim.csv,READVersionD.csv,"Read Version D","Dissertation, read only version D",PENGUIN,BIRD,Study2,F,119,120,Study,User,-,,Study/JOL,"Study Phase",1296,,,-1,-1,,,,1
5eac357b37aec507ea7a127f,fhm4hr2u08,Nick_Dissertation_EX1,1,64,2020-07-08T14:46:44-07:00,1.6678709983826,4,versionC_stim.csv,READVersionD.csv,"Read Version D","Dissertation, read only version D",ELECTION,MAZE,Study2,U,159,150,Study,User,-,,Study/JOL,"Study Phase",1185,,,-1,-1,,,,1
5eac357b37aec507ea7a127f,fhm4hr2u08,Nick_Dissertation_EX1,1,65,2020-07-08T14:46:46-07:00,1.7906799316406,4,versionC_stim.csv,READVersionD.csv,"Read Version D","Dissertation, read only version D",FIGHT,FEUD,Study2,B,113,162,Study,User,-,,Study/JOL,"Study Phase",1306,,,-1,-1,,,,1
5eac357b37aec507ea7a127f,fhm4hr2u08,Nick_Dissertation_EX1,1,66,2020-07-08T14:46:47-07:00,1.3518240451813,4,versionC_stim.csv,READVersionD.csv,"Read Version D","Dissertation, read only version D",WINDSHIELD,CAR,Study2,F,117,174,Study,User,-,,Study/JOL,"Study Phase",874,,,-1,-1,,,,1
5eac357b37aec507ea7a127f,fhm4hr2u08,Nick_Dissertation_EX1,1,67,2020-07-08T14:46:49-07:00,1.6023080348969,4,versionC_stim.csv,READVersionD.csv,"Read Version D","Dissertation, read only version D",THIMBLE,THREAD,Study2,F,121,158,Study,User,-,,Study/JOL,"Study Phase",1119,,,-1,-1,,,,1
5eac357b37aec507ea7a127f,fhm4hr2u08,Nick_Dissertation_EX1,1,68,2020-07-08T14:46:50-07:00,1.7411890029907,4,versionC_stim.csv,READVersionD.csv,"Read Version D","Dissertation, read only version D",DOG,FURRY,Study2,B,102,176,Study,User,-,,Study/JOL,"Study Phase",1244,,,-1,-1,,,,1
5eac357b37aec507ea7a127f,fhm4hr2u08,Nick_Dissertation_EX1,1,69,2020-07-08T14:46:52-07:00,1.9999370574951,4,versionC_stim.csv,READVersionD.csv,"Read Version D","Dissertation, read only version D",WET,DRY,Study2,S,146,152,Study,User,-,,Study/JOL,"Study Phase",1552,,,-1,-1,,,,1
5eac357b37aec507ea7a127f,fhm4hr2u08,Nick_Dissertation_EX1,1,70,2020-07-08T14:46:54-07:00,1.3258700370789,4,versionC_stim.csv,READVersionD.csv,"Read Version D","Dissertation, read only version D",DONKEY,MULE,Study2,B,108,156,Study,User,-,,Study/JOL,"Study Phase",869,,,-1,-1,,,,1
5eac357b37aec507ea7a127f,fhm4hr2u08,Nick_Dissertation_EX1,1,71,2020-07-08T14:46:56-07:00,2.6432709693909,4,versionC_stim.csv,READVersionD.csv,"Read Version D","Dissertation, read only version D",EQUAL,RIGHTS,Study2,S,137,119,Study,User,-,,Study/JOL,"Study Phase",1054,,,-1,-1,,,,1
5eac357b37aec507ea7a127f,fhm4hr2u08,Nick_Dissertation_EX1,1,72,2020-07-08T14:46:58-07:00,1.3666059970856,4,versionC_stim.csv,READVersionD.csv,"Read Version D","Dissertation, read only version D",ABLE,CRACKLE,Study2,U,162,101,Study,User,-,,Study/JOL,"Study Phase",847,,,-1,-1,,,,1
5eac357b37aec507ea7a127f,fhm4hr2u08,Nick_Dissertation_EX1,1,73,2020-07-08T14:46:59-07:00,1.469722032547,4,versionC_stim.csv,READVersionD.csv,"Read Version D","Dissertation, read only version D",WAX,CANDLE,Study2,S,139,102,Study,User,-,,Study/JOL,"Study Phase",1017,,,-1,-1,,,,1
5eac357b37aec507ea7a127f,fhm4hr2u08,Nick_Dissertation_EX1,1,74,2020-07-08T14:47:00-07:00,1.2743549346924,4,versionC_stim.csv,READVersionD.csv,"Read Version D","Dissertation, read only version D",NAP,SLEEP,Study2,F,134,121,Study,User,-,,Study/JOL,"Study Phase",781,,,-1,-1,,,,1
5eac357b37aec507ea7a127f,fhm4hr2u08,Nick_Dissertation_EX1,1,75,2020-07-08T14:47:02-07:00,2.0570080280304,4,versionC_stim.csv,READVersionD.csv,"Read Version D","Dissertation, read only version D",REVENGE,EVEN,Study2,F,122,139,Study,User,-,,Study/JOL,"Study Phase",1560,,,-1,-1,,,,1
5eac357b37aec507ea7a127f,fhm4hr2u08,Nick_Dissertation_EX1,1,76,2020-07-08T14:47:04-07:00,1.1042199134827,4,versionC_stim.csv,READVersionD.csv,"Read Version D","Dissertation, read only version D",Morning,TEMPERATURE,Study2,U,173,131,Study,User,-,,Study/JOL,"Study Phase",689,,,-1,-1,,,,1
5eac357b37aec507ea7a127f,fhm4hr2u08,Nick_Dissertation_EX1,1,77,2020-07-08T14:47:05-07:00,1.4678781032562,4,versionC_stim.csv,READVersionD.csv,"Read Version D","Dissertation, read only version D",PLANT,CACTUS,Study2,B,98,115,Study,User,-,,Study/JOL,"Study Phase",1006,,,-1,-1,,,,1
5eac357b37aec507ea7a127f,fhm4hr2u08,Nick_Dissertation_EX1,1,78,2020-07-08T14:47:06-07:00,1.2927198410034,4,versionC_stim.csv,READVersionD.csv,"Read Version D","Dissertation, read only version D",VILLAIN,BAD,Study2,F,118,128,Study,User,-,,Study/JOL,"Study Phase",803,,,-1,-1,,,,1
5eac357b37aec507ea7a127f,fhm4hr2u08,Nick_Dissertation_EX1,1,79,2020-07-08T14:47:09-07:00,2.7151901721954,4,versionC_stim.csv,READVersionD.csv,"Read Version D","Dissertation, read only version D",BANKER,MONEY,Study2,F,132,160,Study,User,-,,Study/JOL,"Study Phase",2267,,,-1,-1,,,,1
5eac357b37aec507ea7a127f,fhm4hr2u08,Nick_Dissertation_EX1,1,80,2020-07-08T14:47:10-07:00,1.231791973114,4,versionC_stim.csv,READVersionD.csv,"Read Version D","Dissertation, read only version D",LIE,TRUTH,Study2,S,148,153,Study,User,-,,Study/JOL,"Study Phase",778,,,-1,-1,,,,1
5eac357b37aec507ea7a127f,fhm4hr2u08,Nick_Dissertation_EX1,1,81,2020-07-08T14:47:11-07:00,1.2713859081268,4,versionC_stim.csv,READVersionD.csv,"Read Version D","Dissertation, read only version D",OUNCE,BOTH,Study2,U,172,123,Study,User,-,,Study/JOL,"Study Phase",801,,,-1,-1,,,,1
5eac357b37aec507ea7a127f,fhm4hr2u08,Nick_Dissertation_EX1,1,82,2020-07-08T14:47:13-07:00,1.1899149417877,4,versionC_stim.csv,READVersionD.csv,"Read Version D","Dissertation, read only version D",HATE,NAME,Study2,U,167,130,Study,User,-,,Study/JOL,"Study Phase",734,,,-1,-1,,,,1
5eac357b37aec507ea7a127f,fhm4hr2u08,Nick_Dissertation_EX1,1,83,2020-07-08T14:47:14-07:00,1.5236530303955,4,versionC_stim.csv,READVersionD.csv,"Read Version D","Dissertation, read only version D",TIE,SHOELACE,Study2,B,99,165,Study,User,-,,Study/JOL,"Study Phase",1024,,,-1,-1,,,,1
5eac357b37aec507ea7a127f,fhm4hr2u08,Nick_Dissertation_EX1,1,84,2020-07-08T14:47:16-07:00,1.3268711566925,4,versionC_stim.csv,READVersionD.csv,"Read Version D","Dissertation, read only version D",EAT,DINE,Study2,B,111,114,Study,User,-,,Study/JOL,"Study Phase",871,,,-1,-1,,,,1
5eac357b37aec507ea7a127f,fhm4hr2u08,Nick_Dissertation_EX1,1,85,2020-07-08T14:47:17-07:00,1.4097118377686,4,versionC_stim.csv,READVersionD.csv,"Read Version D","Dissertation, read only version D",PAPER,DOCUMENT,Study2,B,109,124,Study,User,-,,Study/JOL,"Study Phase",937,,,-1,-1,,,,1
5eac357b37aec507ea7a127f,fhm4hr2u08,Nick_Dissertation_EX1,1,86,2020-07-08T14:47:18-07:00,1.3677861690521,4,versionC_stim.csv,READVersionD.csv,"Read Version D","Dissertation, read only version D",TRUTHFUL,HONEST,Study2,F,133,97,Study,User,-,,Study/JOL,"Study Phase",926,,,-1,-1,,,,1
5eac357b37aec507ea7a127f,fhm4hr2u08,Nick_Dissertation_EX1,1,87,2020-07-08T14:47:19-07:00,1.1412279605865,4,versionC_stim.csv,READVersionD.csv,"Read Version D","Dissertation, read only version D",SHED,TOOL,BUFFER4,Buffer,178,177,Study,User,-,,Study/JOL,BUFFER2,701,,,-1,-1,,,,1
5eac357b37aec507ea7a127f,fhm4hr2u08,Nick_Dissertation_EX1,1,88,2020-07-08T14:47:21-07:00,1.3259649276733,4,versionC_stim.csv,READVersionD.csv,"Read Version D","Dissertation, read only version D",MARCH,SPRING,BUFFER4,Buffer,179,180,Study,User,-,,Study/JOL,BUFFER2,870,,,-1,-1,,,,1
5eac357b37aec507ea7a127f,fhm4hr2u08,Nick_Dissertation_EX1,1,89,2020-07-08T14:47:22-07:00,1.2413280010223,4,versionC_stim.csv,READVersionD.csv,"Read Version D","Dissertation, read only version D",YEAR,MONTH,BUFFER4,Buffer,177,179,Study,User,-,,Study/JOL,BUFFER2,749,,,-1,-1,,,,1
5eac357b37aec507ea7a127f,fhm4hr2u08,Nick_Dissertation_EX1,1,90,2020-07-08T14:47:23-07:00,1.2671449184418,4,versionC_stim.csv,READVersionD.csv,"Read Version D","Dissertation, read only version D",SPOOKY,OCTOBER,BUFFER4,Buffer,180,178,Study,User,-,,Study/JOL,BUFFER2,811,,,-1,-1,,,,1
5eac357b37aec507ea7a127f,fhm4hr2u08,Nick_Dissertation_EX1,1,91,2020-07-08T14:47:26-07:00,2.4253079891205,4,versionC_stim.csv,READVersionD.csv,"Read Version D","Dissertation, read only version D",WEAKS,DAYS,BUFFER4,Buffer,176,181,Study,User,-,,Study/JOL,BUFFER2,1912,,,-1,-1,,,,1
5eac357b37aec507ea7a127f,fhm4hr2u08,Nick_Dissertation_EX1,1,92,2020-07-08T14:47:32-07:00,6.0580070018768,4,versionC_stim.csv,READVersionD.csv,"Read Version D","Dissertation, read only version D",,,,,,0,Instruct,User,-,"You have completed this section. Please press Enter.",Filler_Instruction,Instruct2,5615,,,-1,-1,,,,1
5eac357b37aec507ea7a127f,fhm4hr2u08,Nick_Dissertation_EX1,1,93,2020-07-08T14:49:32-07:00,120.64494514465,4,versionC_stim.csv,READVersionD.csv,"Read Version D","Dissertation, read only version D",,,,,,0,FreeRecall,120,120,"Please list the 50 US states in alphabetical order. The task will automatically advance to the next screen after two minutes.",,Filler1,120004,"Alabama Arkansas Chicago Colorado Detroit Florida Georgia Seattle Texas Washington",0,-1,-1,0,0,,1
5eac357b37aec507ea7a127f,fhm4hr2u08,Nick_Dissertation_EX1,1,94,2020-07-08T14:49:45-07:00,12.770169019699,4,versionC_stim.csv,READVersionD.csv,"Read Version D","Dissertation, read only version D",,,,,,0,Instruct,-,10,"You will now be presented with the first word from each of the previously studied item pairs. Please type the missing word. If you do not know the word, you may guess or press Enter to skip forward to the next pair.",,Instruct3,12257,,,-1,-1,,,,1
5eac357b37aec507ea7a127f,fhm4hr2u08,Nick_Dissertation_EX1,1,95,2020-07-08T14:49:58-07:00,12.753278017044,4,versionC_stim.csv,READVersionD.csv,"Read Version D","Dissertation, read only version D",TRASH,LITTER,Study2,B,103,113,Test,User,-,,Recall,Recall1,12284,ERASE,36.363636363636,-1,-1,0,0,,1
5eac357b37aec507ea7a127f,fhm4hr2u08,Nick_Dissertation_EX1,1,96,2020-07-08T14:50:07-07:00,8.6034610271454,4,versionC_stim.csv,READVersionD.csv,"Read Version D","Dissertation, read only version D",EQUAL,RIGHTS,Study2,S,137,119,Test,User,-,,Recall,Recall1,8107,OPPOSITE,14.285714285714,-1,-1,0,0,,1
5eac357b37aec507ea7a127f,fhm4hr2u08,Nick_Dissertation_EX1,1,97,2020-07-08T14:50:14-07:00,7.1635358333588,4,versionC_stim.csv,READVersionD.csv,"Read Version D","Dissertation, read only version D",STRAWBERRY,FRUIT,Study2,F,124,142,Test,User,-,,Recall,Recall1,6661,CREAM,20,-1,-1,0,0,,1
5eac357b37aec507ea7a127f,fhm4hr2u08,Nick_Dissertation_EX1,1,98,2020-07-08T14:50:23-07:00,8.9497971534729,4,versionC_stim.csv,READVersionD.csv,"Read Version D","Dissertation, read only version D",SIGN,LOAN,Study2,U,171,103,Test,User,-,,Recall,Recall1,8479,CONTRACT,33.333333333333,-1,-1,0,0,,1
5eac357b37aec507ea7a127f,fhm4hr2u08,Nick_Dissertation_EX1,1,99,2020-07-08T14:50:31-07:00,8.3024139404297,4,versionC_stim.csv,READVersionD.csv,"Read Version D","Dissertation, read only version D",THIMBLE,THREAD,Study2,F,121,158,Test,User,-,,Recall,Recall1,7809,THUMB,36.363636363636,-1,-1,0,0,,1
5eac357b37aec507ea7a127f,fhm4hr2u08,Nick_Dissertation_EX1,1,100,2020-07-08T14:50:40-07:00,8.779757976532,4,versionC_stim.csv,READVersionD.csv,"Read Version D","Dissertation, read only version D",CARBON,ELEMENT,Study2,S,141,98,Test,User,-,,Recall,Recall1,8268,ENERGY,30.769230769231,-1,-1,0,0,,1
5eac357b37aec507ea7a127f,fhm4hr2u08,Nick_Dissertation_EX1,1,101,2020-07-08T14:50:47-07:00,6.8455131053925,4,versionC_stim.csv,READVersionD.csv,"Read Version D","Dissertation, read only version D",PLANT,CACTUS,Study2,B,98,115,Test,User,-,,Recall,Recall1,6250,POT,22.222222222222,-1,-1,0,0,,1
5eac357b37aec507ea7a127f,fhm4hr2u08,Nick_Dissertation_EX1,1,102,2020-07-08T14:50:52-07:00,5.8702208995819,4,versionC_stim.csv,READVersionD.csv,"Read Version D","Dissertation, read only version D",NAP,SLEEP,Study2,F,134,121,Test,User,-,,Recall,Recall1,5391,SLEEP,100,-1,-1,1,1,,1
5eac357b37aec507ea7a127f,fhm4hr2u08,Nick_Dissertation_EX1,1,103,2020-07-08T14:50:58-07:00,5.5757761001587,4,versionC_stim.csv,READVersionD.csv,"Read Version D","Dissertation, read only version D",BREAKABLE,GLASS,Study2,F,127,100,Test,User,-,,Recall,Recall1,5088,GLASS,100,-1,-1,1,1,,1
5eac357b37aec507ea7a127f,fhm4hr2u08,Nick_Dissertation_EX1,1,104,2020-07-08T14:51:05-07:00,6.7411170005798,4,versionC_stim.csv,READVersionD.csv,"Read Version D","Dissertation, read only version D",FLIP,TURN,Study2,F,116,109,Test,User,-,,Recall,Recall1,6219,FLOP,0,-1,-1,0,0,,1
5eac357b37aec507ea7a127f,fhm4hr2u08,Nick_Dissertation_EX1,1,105,2020-07-08T14:51:10-07:00,5.2837138175964,4,versionC_stim.csv,READVersionD.csv,"Read Version D","Dissertation, read only version D",SCISSORS,SHEARS,Study2,B,112,144,Test,User,-,,Recall,Recall1,4809,CUT,0,-1,-1,0,0,,1
5eac357b37aec507ea7a127f,fhm4hr2u08,Nick_Dissertation_EX1,1,106,2020-07-08T14:51:15-07:00,4.6056761741638,4,versionC_stim.csv,READVersionD.csv,"Read Version D","Dissertation, read only version D",NOISE,LOUD,Study2,S,152,140,Test,User,-,,Recall,Recall1,4083,LOUD,100,-1,-1,1,1,,1
5eac357b37aec507ea7a127f,fhm4hr2u08,Nick_Dissertation_EX1,1,107,2020-07-08T14:51:20-07:00,5.6538507938385,4,versionC_stim.csv,READVersionD.csv,"Read Version D","Dissertation, read only version D",BANG,FUZZY,Study2,U,168,108,Test,User,-,,Recall,Recall1,5148,BIG,0,-1,-1,0,0,,1
5eac357b37aec507ea7a127f,fhm4hr2u08,Nick_Dissertation_EX1,1,108,2020-07-08T14:51:32-07:00,11.481323003769,4,versionC_stim.csv,READVersionD.csv,"Read Version D","Dissertation, read only version D",TRUTHFUL,HONEST,Study2,F,133,97,Test,User,-,,Recall,Recall1,10962,HONEST,100,-1,-1,1,1,,1
5eac357b37aec507ea7a127f,fhm4hr2u08,Nick_Dissertation_EX1,1,109,2020-07-08T14:51:36-07:00,4.1722500324249,4,versionC_stim.csv,READVersionD.csv,"Read Version D","Dissertation, read only version D",BALLOON,POP,Study2,F,123,129,Test,User,-,,Recall,Recall1,3665,POP,100,-1,-1,1,1,,1
5eac357b37aec507ea7a127f,fhm4hr2u08,Nick_Dissertation_EX1,1,110,2020-07-08T14:51:44-07:00,8.0598530769348,4,versionC_stim.csv,READVersionD.csv,"Read Version D","Dissertation, read only version D",FIGHT,FEUD,Study2,B,113,162,Test,User,-,,Recall,Recall1,7546,FUED,75,-1,-1,0,1,,1
5eac357b37aec507ea7a127f,fhm4hr2u08,Nick_Dissertation_EX1,1,111,2020-07-08T14:51:54-07:00,9.5552299022675,4,versionC_stim.csv,READVersionD.csv,"Read Version D","Dissertation, read only version D",PANTHER,CAT,Study2,F,126,104,Test,User,-,,Recall,Recall1,9090,BLACK,25,-1,-1,0,0,,1
5eac357b37aec507ea7a127f,fhm4hr2u08,Nick_Dissertation_EX1,1,112,2020-07-08T14:52:00-07:00,6.8478829860687,4,versionC_stim.csv,READVersionD.csv,"Read Version D","Dissertation, read only version D",ABLE,CRACKLE,Study2,U,162,101,Test,User,-,,Recall,Recall1,6316,BODY,0,-1,-1,0,0,,1
5eac357b37aec507ea7a127f,fhm4hr2u08,Nick_Dissertation_EX1,1,113,2020-07-08T14:52:07-07:00,6.4534440040588,4,versionC_stim.csv,READVersionD.csv,"Read Version D","Dissertation, read only version D",EAT,DINE,Study2,B,111,114,Test,User,-,,Recall,Recall1,5933,FOOD,25,-1,-1,0,0,,1
5eac357b37aec507ea7a127f,fhm4hr2u08,Nick_Dissertation_EX1,1,114,2020-07-08T14:52:12-07:00,5.6118021011353,4,versionC_stim.csv,READVersionD.csv,"Read Version D","Dissertation, read only version D",JOKE,KEYS,Study2,U,165,112,Test,User,-,,Recall,Recall1,5121,LAUGH,0,-1,-1,0,0,,1
5eac357b37aec507ea7a127f,fhm4hr2u08,Nick_Dissertation_EX1,1,115,2020-07-08T14:52:21-07:00,8.420511007309,4,versionC_stim.csv,READVersionD.csv,"Read Version D","Dissertation, read only version D",RED,CHERRY,Study2,B,104,141,Test,User,-,,Recall,Recall1,7923,COLOUR,33.333333333333,-1,-1,0,0,,1
5eac357b37aec507ea7a127f,fhm4hr2u08,Nick_Dissertation_EX1,1,116,2020-07-08T14:52:28-07:00,6.9303328990936,4,versionC_stim.csv,READVersionD.csv,"Read Version D","Dissertation, read only version D",ELECTION,MAZE,Study2,U,159,150,Test,User,-,,Recall,Recall1,6446,MAZE,100,-1,-1,1,1,,1
5eac357b37aec507ea7a127f,fhm4hr2u08,Nick_Dissertation_EX1,1,117,2020-07-08T14:52:36-07:00,8.5373501777649,4,versionC_stim.csv,READVersionD.csv,"Read Version D","Dissertation, read only version D",REVENGE,EVEN,Study2,F,122,139,Test,User,-,,Recall,Recall1,7977,PATIENT,36.363636363636,-1,-1,0,0,,1
5eac357b37aec507ea7a127f,fhm4hr2u08,Nick_Dissertation_EX1,1,118,2020-07-08T14:52:44-07:00,7.4044559001923,4,versionC_stim.csv,READVersionD.csv,"Read Version D","Dissertation, read only version D",AIRCRAFT,PLANE,Study2,F,129,146,Test,User,-,,Recall,Recall1,6886,FLIGHT,18.181818181818,-1,-1,0,0,,1
5eac357b37aec507ea7a127f,fhm4hr2u08,Nick_Dissertation_EX1,1,119,2020-07-08T14:52:51-07:00,6.7738809585571,4,versionC_stim.csv,READVersionD.csv,"Read Version D","Dissertation, read only version D",SMELL,INCENSE,Study2,B,110,168,Test,User,-,,Recall,Recall1,6245,NOSE,54.545454545455,-1,-1,0,0,,1
5eac357b37aec507ea7a127f,fhm4hr2u08,Nick_Dissertation_EX1,1,120,2020-07-08T14:52:59-07:00,8.1422801017761,4,versionC_stim.csv,READVersionD.csv,"Read Version D","Dissertation, read only version D",END,ADJOURN,Study2,B,101,159,Test,User,-,,Recall,Recall1,7594,FINISH,15.384615384615,-1,-1,0,0,,1
5eac357b37aec507ea7a127f,fhm4hr2u08,Nick_Dissertation_EX1,1,121,2020-07-08T14:53:11-07:00,11.926941871643,4,versionC_stim.csv,READVersionD.csv,"Read Version D","Dissertation, read only version D",LONG,EXTENSION,Study2,B,96,163,Test,User,-,,Recall,Recall1,11428,TIME,30.769230769231,-1,-1,0,0,,1
5eac357b37aec507ea7a127f,fhm4hr2u08,Nick_Dissertation_EX1,1,122,2020-07-08T14:53:21-07:00,9.9645299911499,4,versionC_stim.csv,READVersionD.csv,"Read Version D","Dissertation, read only version D",WAX,CANDLE,Study2,S,139,102,Test,User,-,,Recall,Recall1,9468,EAR,22.222222222222,-1,-1,0,0,,1
5eac357b37aec507ea7a127f,fhm4hr2u08,Nick_Dissertation_EX1,1,123,2020-07-08T14:53:30-07:00,9.8671720027924,4,versionC_stim.csv,READVersionD.csv,"Read Version D","Dissertation, read only version D",ACTRESS,STAR,Study2,F,120,133,Test,User,-,,Recall,Recall1,9320,BISHOP,20,-1,-1,0,0,,1
5eac357b37aec507ea7a127f,fhm4hr2u08,Nick_Dissertation_EX1,1,124,2020-07-08T14:53:40-07:00,9.1421420574188,4,versionC_stim.csv,READVersionD.csv,"Read Version D","Dissertation, read only version D",HEAD,SCALP,Study2,B,105,135,Test,User,-,,Recall,Recall1,8664,GAME,22.222222222222,-1,-1,0,0,,1
5eac357b37aec507ea7a127f,fhm4hr2u08,Nick_Dissertation_EX1,1,125,2020-07-08T14:53:45-07:00,5.6104500293732,4,versionC_stim.csv,READVersionD.csv,"Read Version D","Dissertation, read only version D",OUNCE,BOTH,Study2,U,172,123,Test,User,-,,Recall,Recall1,5123,POUND,22.222222222222,-1,-1,0,0,,1
5eac357b37aec507ea7a127f,fhm4hr2u08,Nick_Dissertation_EX1,1,126,2020-07-08T14:53:58-07:00,13.003834962845,4,versionC_stim.csv,READVersionD.csv,"Read Version D","Dissertation, read only version D",LONELY,ALONE,Study2,S,145,173,Test,User,-,,Recall,Recall1,12490,SECLUDED,15.384615384615,-1,-1,0,0,,1
5eac357b37aec507ea7a127f,fhm4hr2u08,Nick_Dissertation_EX1,1,127,2020-07-08T14:54:05-07:00,6.3100199699402,4,versionC_stim.csv,READVersionD.csv,"Read Version D","Dissertation, read only version D",GROUND,EARTH,Study2,S,144,161,Test,User,-,,Recall,Recall1,5799,ZERO,44.444444444444,-1,-1,0,0,,1
5eac357b37aec507ea7a127f,fhm4hr2u08,Nick_Dissertation_EX1,1,128,2020-07-08T14:54:11-07:00,6.2619571685791,4,versionC_stim.csv,READVersionD.csv,"Read Version D","Dissertation, read only version D",HATE,NAME,Study2,U,167,130,Test,User,-,,Recall,Recall1,5710,LOVE,25,-1,-1,0,0,,1
5eac357b37aec507ea7a127f,fhm4hr2u08,Nick_Dissertation_EX1,1,129,2020-07-08T14:54:28-07:00,17.417634963989,4,versionC_stim.csv,READVersionD.csv,"Read Version D","Dissertation, read only version D",CLEAR,MOAT,Study2,U,169,170,Test,User,-,,Recall,Recall1,16842,CONSCIENCE,14.285714285714,-1,-1,0,0,,1
5eac357b37aec507ea7a127f,fhm4hr2u08,Nick_Dissertation_EX1,1,130,2020-07-08T14:54:38-07:00,10.067905902863,4,versionC_stim.csv,READVersionD.csv,"Read Version D","Dissertation, read only version D",DONKEY,MULE,Study2,B,108,156,Test,User,-,,Recall,Recall1,9600,RABBIT,0,-1,-1,0,0,,1
5eac357b37aec507ea7a127f,fhm4hr2u08,Nick_Dissertation_EX1,1,131,2020-07-08T14:54:46-07:00,7.7277090549469,4,versionC_stim.csv,READVersionD.csv,"Read Version D","Dissertation, read only version D",OBTAIN,MEAT,Study2,U,161,126,Test,User,-,,Recall,Recall1,7220,GAIN,25,-1,-1,0,0,,1
5eac357b37aec507ea7a127f,fhm4hr2u08,Nick_Dissertation_EX1,1,132,2020-07-08T14:55:00-07:00,14.324436903,4,versionC_stim.csv,READVersionD.csv,"Read Version D","Dissertation, read only version D",CUT,CHOP,Study2,B,107,137,Test,User,-,,Recall,Recall1,13845,SLICE,22.222222222222,-1,-1,0,0,,1
5eac357b37aec507ea7a127f,fhm4hr2u08,Nick_Dissertation_EX1,1,133,2020-07-08T14:55:13-07:00,12.866495132446,4,versionC_stim.csv,READVersionD.csv,"Read Version D","Dissertation, read only version D",TOIL,LEASE,Study2,U,170,118,Test,User,-,,Recall,Recall1,12355,STRUGGLE,30.769230769231,-1,-1,0,0,,1
5eac357b37aec507ea7a127f,fhm4hr2u08,Nick_Dissertation_EX1,1,134,2020-07-08T14:55:23-07:00,9.8996179103851,4,versionC_stim.csv,READVersionD.csv,"Read Version D","Dissertation, read only version D",MYSTERY,DETECTIVE,Study2,B,100,106,Test,User,-,,Recall,Recall1,9334,SOLVE,28.571428571429,-1,-1,0,0,,1
5eac357b37aec507ea7a127f,fhm4hr2u08,Nick_Dissertation_EX1,1,135,2020-07-08T14:55:30-07:00,6.6508359909058,4,versionC_stim.csv,READVersionD.csv,"Read Version D","Dissertation, read only version D",DRINK,WATER,Study2,S,143,111,Test,User,-,,Recall,Recall1,6163,DRUNK,20,-1,-1,0,0,,1
5eac357b37aec507ea7a127f,fhm4hr2u08,Nick_Dissertation_EX1,1,136,2020-07-08T14:55:37-07:00,7.2347891330719,4,versionC_stim.csv,READVersionD.csv,"Read Version D","Dissertation, read only version D",REEL,ROD,Study2,S,150,127,Test,User,-,,Recall,Recall1,6675,CATCH,0,-1,-1,0,0,,1
5eac357b37aec507ea7a127f,fhm4hr2u08,Nick_Dissertation_EX1,1,137,2020-07-08T14:55:42-07:00,5.3479759693146,4,versionC_stim.csv,READVersionD.csv,"Read Version D","Dissertation, read only version D",PENGUIN,BIRD,Study2,F,119,120,Test,User,-,,Recall,Recall1,4837,BIRD,100,-1,-1,1,1,,1
5eac357b37aec507ea7a127f,fhm4hr2u08,Nick_Dissertation_EX1,1,138,2020-07-08T14:55:48-07:00,6.1156318187714,4,versionC_stim.csv,READVersionD.csv,"Read Version D","Dissertation, read only version D",TIE,SHOELACE,Study2,B,99,165,Test,User,-,,Recall,Recall1,5618,DRAW,16.666666666667,-1,-1,0,0,,1
5eac357b37aec507ea7a127f,fhm4hr2u08,Nick_Dissertation_EX1,1,139,2020-07-08T14:55:57-07:00,8.7633681297302,4,versionC_stim.csv,READVersionD.csv,"Read Version D","Dissertation, read only version D",BANKER,MONEY,Study2,F,132,160,Test,User,-,,Recall,Recall1,8217,MONEY,100,-1,-1,1,1,,1
5eac357b37aec507ea7a127f,fhm4hr2u08,Nick_Dissertation_EX1,1,140,2020-07-08T14:56:06-07:00,8.7106680870056,4,versionC_stim.csv,READVersionD.csv,"Read Version D","Dissertation, read only version D",BRAWL,FIGHT,Study2,F,135,155,Test,User,-,,Recall,Recall1,8233,FIGHT,100,-1,-1,1,1,,1
5eac357b37aec507ea7a127f,fhm4hr2u08,Nick_Dissertation_EX1,1,141,2020-07-08T14:56:16-07:00,9.7013080120087,4,versionC_stim.csv,READVersionD.csv,"Read Version D","Dissertation, read only version D",DOG,FURRY,Study2,B,102,176,Test,User,-,,Recall,Recall1,9191,BONE,0,-1,-1,0,0,,1
5eac357b37aec507ea7a127f,fhm4hr2u08,Nick_Dissertation_EX1,1,142,2020-07-08T14:56:22-07:00,5.9630479812622,4,versionC_stim.csv,READVersionD.csv,"Read Version D","Dissertation, read only version D",FICTION,LISTEN,Study2,U,164,149,Test,User,-,,Recall,Recall1,5457,FACT,20,-1,-1,0,0,,1
5eac357b37aec507ea7a127f,fhm4hr2u08,Nick_Dissertation_EX1,1,143,2020-07-08T14:56:28-07:00,6.1328799724579,4,versionC_stim.csv,READVersionD.csv,"Read Version D","Dissertation, read only version D",TAN,SUN,Study2,S,155,134,Test,User,-,,Recall,Recall1,5656,PALE,0,-1,-1,0,0,,1
5eac357b37aec507ea7a127f,fhm4hr2u08,Nick_Dissertation_EX1,1,144,2020-07-08T14:56:38-07:00,9.9340829849243,4,versionC_stim.csv,READVersionD.csv,"Read Version D","Dissertation, read only version D",WINDSHIELD,CAR,Study2,F,117,174,Test,User,-,,Recall,Recall1,9461,CAR,100,-1,-1,1,1,,1
5eac357b37aec507ea7a127f,fhm4hr2u08,Nick_Dissertation_EX1,1,145,2020-07-08T14:56:42-07:00,4.7519528865814,4,versionC_stim.csv,READVersionD.csv,"Read Version D","Dissertation, read only version D",JAR,MASON,Study2,S,138,125,Test,User,-,,Recall,Recall1,4264,JAM,25,-1,-1,0,0,,1
5eac357b37aec507ea7a127f,fhm4hr2u08,Nick_Dissertation_EX1,1,146,2020-07-08T14:56:51-07:00,8.2923340797424,4,versionC_stim.csv,READVersionD.csv,"Read Version D","Dissertation, read only version D",CAR,DRIVER,Study2,B,106,171,Test,User,-,,Recall,Recall1,7813,WINDSHIELD,25,-1,-1,0,0,,1
5eac357b37aec507ea7a127f,fhm4hr2u08,Nick_Dissertation_EX1,1,147,2020-07-08T14:57:02-07:00,10.881190061569,4,versionC_stim.csv,READVersionD.csv,"Read Version D","Dissertation, read only version D",VILLAIN,BAD,Study2,F,118,128,Test,User,-,,Recall,Recall1,10390,ENEMY,0,-1,-1,0,0,,1
5eac357b37aec507ea7a127f,fhm4hr2u08,Nick_Dissertation_EX1,1,148,2020-07-08T14:57:08-07:00,6.9278948307037,4,versionC_stim.csv,READVersionD.csv,"Read Version D","Dissertation, read only version D",BRACELET,WRIST,Study2,S,140,143,Test,User,-,,Recall,Recall1,6406,WRIST,100,-1,-1,1,1,,1
5eac357b37aec507ea7a127f,fhm4hr2u08,Nick_Dissertation_EX1,1,149,2020-07-08T14:57:13-07:00,4.6669681072235,4,versionC_stim.csv,READVersionD.csv,"Read Version D","Dissertation, read only version D",LOVE,AFFECTION,Study2,B,115,167,Test,User,-,,Recall,Recall1,4179,HATE,30.769230769231,-1,-1,0,0,,1
5eac357b37aec507ea7a127f,fhm4hr2u08,Nick_Dissertation_EX1,1,150,2020-07-08T14:57:27-07:00,14.200296878815,4,versionC_stim.csv,READVersionD.csv,"Read Version D","Dissertation, read only version D",Morning,TEMPERATURE,Study2,U,173,131,Test,User,-,,Recall,Recall1,13707,THERMOMETER,36.363636363636,-1,-1,0,0,,1
5eac357b37aec507ea7a127f,fhm4hr2u08,Nick_Dissertation_EX1,1,151,2020-07-08T14:57:36-07:00,8.9354450702667,4,versionC_stim.csv,READVersionD.csv,"Read Version D","Dissertation, read only version D",STEAK,GIVE,Study2,U,158,172,Test,User,-,,Recall,Recall1,8474,CUT,0,-1,-1,0,0,,1
5eac357b37aec507ea7a127f,fhm4hr2u08,Nick_Dissertation_EX1,1,152,2020-07-08T14:57:47-07:00,10.33956193924,4,versionC_stim.csv,READVersionD.csv,"Read Version D","Dissertation, read only version D",SEATBELT,SAFETY,Study2,S,147,132,Test,User,-,,Recall,Recall1,9692,CAR,22.222222222222,-1,-1,0,0,,1
5eac357b37aec507ea7a127f,fhm4hr2u08,Nick_Dissertation_EX1,1,153,2020-07-08T14:58:02-07:00,15.08677315712,4,versionC_stim.csv,READVersionD.csv,"Read Version D","Dissertation, read only version D",GAME,CLUE,Study2,B,97,116,Test,User,-,,Recall,Recall1,14569,PLAY,25,-1,-1,0,0,,1
5eac357b37aec507ea7a127f,fhm4hr2u08,Nick_Dissertation_EX1,1,154,2020-07-08T14:58:11-07:00,8.9359140396118,4,versionC_stim.csv,READVersionD.csv,"Read Version D","Dissertation, read only version D",CHILDREN,MIRROR,Study2,U,174,148,Test,User,-,,Recall,Recall1,8314,FAMILY,33.333333333333,-1,-1,0,0,,1
5eac357b37aec507ea7a127f,fhm4hr2u08,Nick_Dissertation_EX1,1,155,2020-07-08T14:58:20-07:00,9.5467658042908,4,versionC_stim.csv,READVersionD.csv,"Read Version D","Dissertation, read only version D",SARDINE,FISH,Study2,F,130,122,Test,User,-,,Recall,Recall1,9071,CAN,0,-1,-1,0,0,,1
5eac357b37aec507ea7a127f,fhm4hr2u08,Nick_Dissertation_EX1,1,156,2020-07-08T14:58:39-07:00,19.282729148865,4,versionC_stim.csv,READVersionD.csv,"Read Version D","Dissertation, read only version D",CLOTH,STRETCH,Study2,U,157,151,Test,User,-,,Recall,Recall1,18734,WEAR,18.181818181818,-1,-1,0,0,,1
5eac357b37aec507ea7a127f,fhm4hr2u08,Nick_Dissertation_EX1,1,157,2020-07-08T14:58:52-07:00,12.364264965057,4,versionC_stim.csv,READVersionD.csv,"Read Version D","Dissertation, read only version D",COMMUNICATION,PHONE,Study2,S,149,164,Test,User,-,,Recall,Recall1,11832,TALK,0,-1,-1,0,0,,1
5eac357b37aec507ea7a127f,fhm4hr2u08,Nick_Dissertation_EX1,1,158,2020-07-08T14:59:10-07:00,18.497888088226,4,versionC_stim.csv,READVersionD.csv,"Read Version D","Dissertation, read only version D",AWAY,GONE,Study2,S,142,157,Test,User,-,,Recall,Recall1,18024,GONE,100,-1,-1,1,1,,1
5eac357b37aec507ea7a127f,fhm4hr2u08,Nick_Dissertation_EX1,1,159,2020-07-08T14:59:27-07:00,16.484565973282,4,versionC_stim.csv,READVersionD.csv,"Read Version D","Dissertation, read only version D",HAVE,OWN,Study2,S,153,169,Test,User,-,,Recall,Recall1,15925,GOT,33.333333333333,-1,-1,0,0,,1
5eac357b37aec507ea7a127f,fhm4hr2u08,Nick_Dissertation_EX1,1,160,2020-07-08T14:59:57-07:00,30.538354873657,4,versionC_stim.csv,READVersionD.csv,"Read Version D","Dissertation, read only version D",LIE,TRUTH,Study2,S,148,153,Test,User,-,,Recall,Recall1,29999,TRUTH,100,-1,-1,1,1,,1
5eac357b37aec507ea7a127f,fhm4hr2u08,Nick_Dissertation_EX1,1,161,2020-07-08T15:00:09-07:00,11.925344944,4,versionC_stim.csv,READVersionD.csv,"Read Version D","Dissertation, read only version D",WET,DRY,Study2,S,146,152,Test,User,-,,Recall,Recall1,11448,WATER,25,-1,-1,0,0,,1
5eac357b37aec507ea7a127f,fhm4hr2u08,Nick_Dissertation_EX1,1,162,2020-07-08T15:00:24-07:00,15.117870092392,4,versionC_stim.csv,READVersionD.csv,"Read Version D","Dissertation, read only version D",LEAGUE,BASEBALL,Study2,F,131,136,Test,User,-,,Recall,Recall1,14628,TEAM,33.333333333333,-1,-1,0,0,,1
5eac357b37aec507ea7a127f,fhm4hr2u08,Nick_Dissertation_EX1,1,163,2020-07-08T15:00:33-07:00,8.3714230060577,4,versionC_stim.csv,READVersionD.csv,"Read Version D","Dissertation, read only version D",SHAKE,Shell,Study2,U,163,99,Test,User,-,,Recall,Recall1,7832,RATTLE,18.181818181818,-1,-1,0,0,,1
5eac357b37aec507ea7a127f,fhm4hr2u08,Nick_Dissertation_EX1,1,164,2020-07-08T15:00:42-07:00,8.9657890796661,4,versionC_stim.csv,READVersionD.csv,"Read Version D","Dissertation, read only version D",TICK,FLEA,Study2,S,151,154,Test,User,-,,Recall,Recall1,8467,FLEA,100,-1,-1,1,1,,1
5eac357b37aec507ea7a127f,fhm4hr2u08,Nick_Dissertation_EX1,1,165,2020-07-08T15:00:50-07:00,8.471195936203,4,versionC_stim.csv,READVersionD.csv,"Read Version D","Dissertation, read only version D",CHARM,VEHICLE,Study2,U,160,145,Test,User,-,,Recall,Recall1,7969,BRACELET,40,-1,-1,0,0,,1
5eac357b37aec507ea7a127f,fhm4hr2u08,Nick_Dissertation_EX1,1,166,2020-07-08T15:00:58-07:00,7.6603009700775,4,versionC_stim.csv,READVersionD.csv,"Read Version D","Dissertation, read only version D",COLD,CHILL,Study2,B,114,117,Test,User,-,,Recall,Recall1,7187,WARM,0,-1,-1,0,0,,1
5eac357b37aec507ea7a127f,fhm4hr2u08,Nick_Dissertation_EX1,1,167,2020-07-08T15:01:09-07:00,11.026449918747,4,versionC_stim.csv,READVersionD.csv,"Read Version D","Dissertation, read only version D",SCAR,MAIN,Study2,U,175,107,Test,User,-,,Recall,Recall1,10529,TISSUE,20,-1,-1,0,0,,1
5eac357b37aec507ea7a127f,fhm4hr2u08,Nick_Dissertation_EX1,1,168,2020-07-08T15:01:20-07:00,11.041283130646,4,versionC_stim.csv,READVersionD.csv,"Read Version D","Dissertation, read only version D",MAROON,JUSTICE,Study2,U,156,175,Test,User,-,,Recall,Recall1,10482,BROWN,0,-1,-1,0,0,,1
5eac357b37aec507ea7a127f,fhm4hr2u08,Nick_Dissertation_EX1,1,169,2020-07-08T15:01:29-07:00,9.0982260704041,4,versionC_stim.csv,READVersionD.csv,"Read Version D","Dissertation, read only version D",TEMPER,TANTRUM,Study2,S,154,110,Test,User,-,,Recall,Recall1,8566,TRY,40,-1,-1,0,0,,1
5eac357b37aec507ea7a127f,fhm4hr2u08,Nick_Dissertation_EX1,1,170,2020-07-08T15:01:38-07:00,9.2699627876282,4,versionC_stim.csv,READVersionD.csv,"Read Version D","Dissertation, read only version D",CLOTHES,CAKE,Study2,U,166,166,Test,User,-,,Recall,Recall1,8752,BODY,0,-1,-1,0,0,,1
5eac357b37aec507ea7a127f,fhm4hr2u08,Nick_Dissertation_EX1,1,171,2020-07-08T15:01:45-07:00,6.6980872154236,4,versionC_stim.csv,READVersionD.csv,"Read Version D","Dissertation, read only version D",FAVORITE,BEST,Study2,F,125,147,Test,User,-,,Recall,Recall1,6206,BEST,100,-1,-1,1,1,,1
5eac357b37aec507ea7a127f,fhm4hr2u08,Nick_Dissertation_EX1,1,172,2020-07-08T15:01:50-07:00,4.9919669628143,4,versionC_stim.csv,READVersionD.csv,"Read Version D","Dissertation, read only version D",PAPER,DOCUMENT,Study2,B,109,124,Test,User,-,,Recall,Recall1,4494,CUT,54.545454545455,-1,-1,0,0,,1
5eac357b37aec507ea7a127f,fhm4hr2u08,Nick_Dissertation_EX1,1,173,2020-07-08T15:01:57-07:00,7.0313589572906,4,versionC_stim.csv,READVersionD.csv,"Read Version D","Dissertation, read only version D",COFFIN,DEAD,Study2,F,128,105,Test,User,-,,Recall,Recall1,6503,DEAD,100,-1,-1,1,1,,1
5eac357b37aec507ea7a127f,fhm4hr2u08,Nick_Dissertation_EX1,1,174,2020-07-08T15:02:06-07:00,8.9106769561768,4,versionC_stim.csv,READVersionD.csv,"Read Version D","Dissertation, read only version D",SHAVE,RAZOR,Study2,S,136,138,Test,User,-,,Recall,Recall1,8440,CLEAR,40,-1,-1,0,0,,1
5eac357b37aec507ea7a127f,fhm4hr2u08,Nick_Dissertation_EX1,1,175,2020-07-08T15:02:18-07:00,11.731261014938,4,versionC_stim.csv,READVersionD.csv,"Read Version D","Dissertation, read only version D",,,,,,0,Instruct,-,10,"You will now be presented with a new set of word pairs. Please study each pair. Remember that your memory will be tested! When finished, press Enter to move to the next pair.",Initial_Instruct,Instruct4,11202,,,-1,-1,,,,1
5eac357b37aec507ea7a127f,fhm4hr2u08,Nick_Dissertation_EX1,1,176,2020-07-08T15:02:25-07:00,7.5797250270844,4,versionC_stim.csv,READVersionD.csv,"Read Version D","Dissertation, read only version D",BUTTER,PEANUT,BUFFER1,Buffer,3,3,Study,User,-,,Study/JOL,BUFFER3,7103,,,-1,-1,,,,1
5eac357b37aec507ea7a127f,fhm4hr2u08,Nick_Dissertation_EX1,1,177,2020-07-08T15:02:27-07:00,2.1948640346527,4,versionC_stim.csv,READVersionD.csv,"Read Version D","Dissertation, read only version D",HIDE,SCARE,BUFFER1,Buffer,4,6,Study,User,-,,Study/JOL,BUFFER3,1742,,,-1,-1,,,,1
5eac357b37aec507ea7a127f,fhm4hr2u08,Nick_Dissertation_EX1,1,178,2020-07-08T15:02:30-07:00,2.440780878067,4,versionC_stim.csv,READVersionD.csv,"Read Version D","Dissertation, read only version D",CATCHER,BASEBALL,BUFFER1,Buffer,2,4,Study,User,-,,Study/JOL,BUFFER3,1930,,,-1,-1,,,,1
5eac357b37aec507ea7a127f,fhm4hr2u08,Nick_Dissertation_EX1,1,179,2020-07-08T15:02:32-07:00,2.1238629817963,4,versionC_stim.csv,READVersionD.csv,"Read Version D","Dissertation, read only version D",JAM,SPACE,BUFFER1,Buffer,5,2,Study,User,-,,Study/JOL,BUFFER3,1667,,,-1,-1,,,,1
5eac357b37aec507ea7a127f,fhm4hr2u08,Nick_Dissertation_EX1,1,180,2020-07-08T15:02:35-07:00,2.7125461101532,4,versionC_stim.csv,READVersionD.csv,"Read Version D","Dissertation, read only version D",GREEN,TREES,BUFFER1,Buffer,1,5,Study,User,-,,Study/JOL,BUFFER3,2157,,,-1,-1,,,,1
5eac357b37aec507ea7a127f,fhm4hr2u08,Nick_Dissertation_EX1,1,181,2020-07-08T15:02:37-07:00,2.1770460605621,4,versionC_stim.csv,READVersionD.csv,"Read Version D","Dissertation, read only version D",GROWTH,HEIGHT,Study1,F,30,68,Study,User,-,,Study/JOL,"Study Phase2",1732,,,-1,-1,,,,1
5eac357b37aec507ea7a127f,fhm4hr2u08,Nick_Dissertation_EX1,1,182,2020-07-08T15:02:39-07:00,2.1298799514771,4,versionC_stim.csv,READVersionD.csv,"Read Version D","Dissertation, read only version D",ROUND,CIRCLE,Study1,S,65,33,Study,User,-,,Study/JOL,"Study Phase2",1601,,,-1,-1,,,,1
5eac357b37aec507ea7a127f,fhm4hr2u08,Nick_Dissertation_EX1,1,183,2020-07-08T15:02:41-07:00,1.9474840164185,4,versionC_stim.csv,READVersionD.csv,"Read Version D","Dissertation, read only version D",TOILET,BATHROOM,Study1,S,58,79,Study,User,-,,Study/JOL,"Study Phase2",1405,,,-1,-1,,,,1
5eac357b37aec507ea7a127f,fhm4hr2u08,Nick_Dissertation_EX1,1,184,2020-07-08T15:02:43-07:00,1.932018995285,4,versionC_stim.csv,READVersionD.csv,"Read Version D","Dissertation, read only version D",WORD,SENTENCE,Study1,F,31,70,Study,User,-,,Study/JOL,"Study Phase2",1440,,,-1,-1,,,,1
5eac357b37aec507ea7a127f,fhm4hr2u08,Nick_Dissertation_EX1,1,185,2020-07-08T15:02:45-07:00,1.651960849762,4,versionC_stim.csv,READVersionD.csv,"Read Version D","Dissertation, read only version D",CHEESE,WINE,Study1,S,57,73,Study,User,-,,Study/JOL,"Study Phase2",1202,,,-1,-1,,,,1
5eac357b37aec507ea7a127f,fhm4hr2u08,Nick_Dissertation_EX1,1,186,2020-07-08T15:02:46-07:00,1.4972841739655,4,versionC_stim.csv,READVersionD.csv,"Read Version D","Dissertation, read only version D",CAR,HAPPY,Study1,U,77,20,Study,User,-,,Study/JOL,"Study Phase2",999,,,-1,-1,,,,1
5eac357b37aec507ea7a127f,fhm4hr2u08,Nick_Dissertation_EX1,1,187,2020-07-08T15:02:48-07:00,2.3146498203278,4,versionC_stim.csv,READVersionD.csv,"Read Version D","Dissertation, read only version D",STING,HORNET,Study1,B,11,13,Study,User,-,,Study/JOL,"Study Phase2",1780,,,-1,-1,,,,1
5eac357b37aec507ea7a127f,fhm4hr2u08,Nick_Dissertation_EX1,1,188,2020-07-08T15:02:52-07:00,3.3276491165161,4,versionC_stim.csv,READVersionD.csv,"Read Version D","Dissertation, read only version D",SEIZE,TAKE,Study1,F,29,51,Study,User,-,,Study/JOL,"Study Phase2",2856,,,-1,-1,,,,1
5eac357b37aec507ea7a127f,fhm4hr2u08,Nick_Dissertation_EX1,1,189,2020-07-08T15:02:54-07:00,2.0497169494629,4,versionC_stim.csv,READVersionD.csv,"Read Version D","Dissertation, read only version D",WAR,REVOLUTION,Study1,B,20,77,Study,User,-,,Study/JOL,"Study Phase2",1614,,,-1,-1,,,,1
5eac357b37aec507ea7a127f,fhm4hr2u08,Nick_Dissertation_EX1,1,190,2020-07-08T15:02:57-07:00,3.6171410083771,4,versionC_stim.csv,READVersionD.csv,"Read Version D","Dissertation, read only version D",SACKING,DIETARY,Study1,U,67,15,Study,User,-,,Study/JOL,"Study Phase2",3110,,,-1,-1,,,,1
5eac357b37aec507ea7a127f,fhm4hr2u08,Nick_Dissertation_EX1,1,191,2020-07-08T15:02:59-07:00,2.0277121067047,4,versionC_stim.csv,READVersionD.csv,"Read Version D","Dissertation, read only version D",CAVE,DARK,Study1,F,28,80,Study,User,-,,Study/JOL,"Study Phase2",1510,,,-1,-1,,,,1
5eac357b37aec507ea7a127f,fhm4hr2u08,Nick_Dissertation_EX1,1,192,2020-07-08T15:03:02-07:00,2.1853549480438,4,versionC_stim.csv,READVersionD.csv,"Read Version D","Dissertation, read only version D",TUCK,ALLOW,Study1,U,78,18,Study,User,-,,Study/JOL,"Study Phase2",1758,,,-1,-1,,,,1
5eac357b37aec507ea7a127f,fhm4hr2u08,Nick_Dissertation_EX1,1,193,2020-07-08T15:03:04-07:00,2.3180539608002,4,versionC_stim.csv,READVersionD.csv,"Read Version D","Dissertation, read only version D",CLUTTER,PUSHER,Study1,U,66,23,Study,User,-,,Study/JOL,"Study Phase2",1708,,,-1,-1,,,,1
5eac357b37aec507ea7a127f,fhm4hr2u08,Nick_Dissertation_EX1,1,194,2020-07-08T15:03:05-07:00,1.5699510574341,4,versionC_stim.csv,READVersionD.csv,"Read Version D","Dissertation, read only version D",DROWSY,SLEEP,Study1,F,41,50,Study,User,-,,Study/JOL,"Study Phase2",1117,,,-1,-1,,,,1
5eac357b37aec507ea7a127f,fhm4hr2u08,Nick_Dissertation_EX1,1,195,2020-07-08T15:03:08-07:00,2.1142308712006,4,versionC_stim.csv,READVersionD.csv,"Read Version D","Dissertation, read only version D",FUTURE,PAST,Study1,S,61,65,Study,User,-,,Study/JOL,"Study Phase2",1625,,,-1,-1,,,,1
5eac357b37aec507ea7a127f,fhm4hr2u08,Nick_Dissertation_EX1,1,196,2020-07-08T15:03:10-07:00,2.3876821994781,4,versionC_stim.csv,READVersionD.csv,"Read Version D","Dissertation, read only version D",NEWS,EDITOR,Study1,B,10,32,Study,User,-,,Study/JOL,"Study Phase2",1924,,,-1,-1,,,,1
5eac357b37aec507ea7a127f,fhm4hr2u08,Nick_Dissertation_EX1,1,197,2020-07-08T15:03:12-07:00,1.9435858726501,4,versionC_stim.csv,READVersionD.csv,"Read Version D","Dissertation, read only version D",FOOT,SHOE,Study1,S,60,85,Study,User,-,,Study/JOL,"Study Phase2",1443,,,-1,-1,,,,1
5eac357b37aec507ea7a127f,fhm4hr2u08,Nick_Dissertation_EX1,1,198,2020-07-08T15:03:14-07:00,1.5944449901581,4,versionC_stim.csv,READVersionD.csv,"Read Version D","Dissertation, read only version D",DESIGN,ARCHITECTURE,Study1,S,51,81,Study,User,-,,Study/JOL,"Study Phase2",1078,,,-1,-1,,,,1
5eac357b37aec507ea7a127f,fhm4hr2u08,Nick_Dissertation_EX1,1,199,2020-07-08T15:03:16-07:00,2.9383580684662,4,versionC_stim.csv,READVersionD.csv,"Read Version D","Dissertation, read only version D",SICK,HIDE,Study1,U,84,55,Study,User,-,,Study/JOL,"Study Phase2",2471,,,-1,-1,,,,1
5eac357b37aec507ea7a127f,fhm4hr2u08,Nick_Dissertation_EX1,1,200,2020-07-08T15:03:18-07:00,1.9329528808594,4,versionC_stim.csv,READVersionD.csv,"Read Version D","Dissertation, read only version D",WASP,BUG,Study1,F,32,43,Study,User,-,,Study/JOL,"Study Phase2",1425,,,-1,-1,,,,1
5eac357b37aec507ea7a127f,fhm4hr2u08,Nick_Dissertation_EX1,1,201,2020-07-08T15:03:20-07:00,1.5335030555725,4,versionC_stim.csv,READVersionD.csv,"Read Version D","Dissertation, read only version D",SALAD,LETTUCE,Study1,S,59,42,Study,User,-,,Study/JOL,"Study Phase2",1093,,,-1,-1,,,,1
5eac357b37aec507ea7a127f,fhm4hr2u08,Nick_Dissertation_EX1,1,202,2020-07-08T15:03:22-07:00,1.7983160018921,4,versionC_stim.csv,READVersionD.csv,"Read Version D","Dissertation, read only version D",FANTASTIC,GREAT,Study1,F,35,8,Study,User,-,,Study/JOL,"Study Phase2",1380,,,-1,-1,,,,1
5eac357b37aec507ea7a127f,fhm4hr2u08,Nick_Dissertation_EX1,1,203,2020-07-08T15:03:23-07:00,1.7128410339355,4,versionC_stim.csv,READVersionD.csv,"Read Version D","Dissertation, read only version D",LIVER,KIDNEY,Study1,S,53,82,Study,User,-,,Study/JOL,"Study Phase2",1299,,,-1,-1,,,,1
5eac357b37aec507ea7a127f,fhm4hr2u08,Nick_Dissertation_EX1,1,204,2020-07-08T15:03:25-07:00,1.7400999069214,4,versionC_stim.csv,READVersionD.csv,"Read Version D","Dissertation, read only version D",MONEY,WAGE,Study1,B,8,16,Study,User,-,,Study/JOL,"Study Phase2",1269,,,-1,-1,,,,1
5eac357b37aec507ea7a127f,fhm4hr2u08,Nick_Dissertation_EX1,1,205,2020-07-08T15:03:27-07:00,2.1413531303406,4,versionC_stim.csv,READVersionD.csv,"Read Version D","Dissertation, read only version D",CHORE,WORK,Study1,F,39,19,Study,User,-,,Study/JOL,"Study Phase2",1656,,,-1,-1,,,,1
5eac357b37aec507ea7a127f,fhm4hr2u08,Nick_Dissertation_EX1,1,206,2020-07-08T15:03:29-07:00,1.7269279956818,4,versionC_stim.csv,READVersionD.csv,"Read Version D","Dissertation, read only version D",JURY,TRIAL,Study1,S,50,28,Study,User,-,,Study/JOL,"Study Phase2",1210,,,-1,-1,,,,1
5eac357b37aec507ea7a127f,fhm4hr2u08,Nick_Dissertation_EX1,1,207,2020-07-08T15:03:31-07:00,1.6938109397888,4,versionC_stim.csv,READVersionD.csv,"Read Version D","Dissertation, read only version D",BELT,SOON,Study1,U,70,34,Study,User,-,,Study/JOL,"Study Phase2",1251,,,-1,-1,,,,1
5eac357b37aec507ea7a127f,fhm4hr2u08,Nick_Dissertation_EX1,1,208,2020-07-08T15:03:33-07:00,2.1528670787811,4,versionC_stim.csv,READVersionD.csv,"Read Version D","Dissertation, read only version D",BRONZE,ARTERY,Study1,U,74,25,Study,User,-,,Study/JOL,"Study Phase2",1700,,,-1,-1,,,,1
5eac357b37aec507ea7a127f,fhm4hr2u08,Nick_Dissertation_EX1,1,209,2020-07-08T15:03:36-07:00,3.0656368732452,4,versionC_stim.csv,READVersionD.csv,"Read Version D","Dissertation, read only version D",ATTIRE,CLOTHES,Study1,F,43,60,Study,User,-,,Study/JOL,"Study Phase2",1473,,,-1,-1,,,,1
5eac357b37aec507ea7a127f,fhm4hr2u08,Nick_Dissertation_EX1,1,210,2020-07-08T15:03:38-07:00,1.6563019752502,4,versionC_stim.csv,READVersionD.csv,"Read Version D","Dissertation, read only version D",BUSINESS,DEATH,Study1,U,72,52,Study,User,-,,Study/JOL,"Study Phase2",1156,,,-1,-1,,,,1
5eac357b37aec507ea7a127f,fhm4hr2u08,Nick_Dissertation_EX1,1,211,2020-07-08T15:03:39-07:00,1.8302340507507,4,versionC_stim.csv,READVersionD.csv,"Read Version D","Dissertation, read only version D",WOMAN,LIFT,Study1,U,69,66,Study,User,-,,Study/JOL,"Study Phase2",1354,,,-1,-1,,,,1
5eac357b37aec507ea7a127f,fhm4hr2u08,Nick_Dissertation_EX1,1,212,2020-07-08T15:03:41-07:00,1.574383020401,4,versionC_stim.csv,READVersionD.csv,"Read Version D","Dissertation, read only version D",BLAZE,FIRE,Study1,F,45,78,Study,User,-,,Study/JOL,"Study Phase2",1122,,,-1,-1,,,,1
5eac357b37aec507ea7a127f,fhm4hr2u08,Nick_Dissertation_EX1,1,213,2020-07-08T15:03:43-07:00,1.6939709186554,4,versionC_stim.csv,READVersionD.csv,"Read Version D","Dissertation, read only version D",DIVISION,MATH,Study1,F,33,62,Study,User,-,,Study/JOL,"Study Phase2",1256,,,-1,-1,,,,1
5eac357b37aec507ea7a127f,fhm4hr2u08,Nick_Dissertation_EX1,1,214,2020-07-08T15:03:44-07:00,1.466117143631,4,versionC_stim.csv,READVersionD.csv,"Read Version D","Dissertation, read only version D",WIND,BLOW,Study1,S,55,17,Study,User,-,,Study/JOL,"Study Phase2",963,,,-1,-1,,,,1
5eac357b37aec507ea7a127f,fhm4hr2u08,Nick_Dissertation_EX1,1,215,2020-07-08T15:03:46-07:00,1.8980898857117,4,versionC_stim.csv,READVersionD.csv,"Read Version D","Dissertation, read only version D",CHILD,BABY,Study1,S,64,21,Study,User,-,,Study/JOL,"Study Phase2",1455,,,-1,-1,,,,1
5eac357b37aec507ea7a127f,fhm4hr2u08,Nick_Dissertation_EX1,1,216,2020-07-08T15:03:48-07:00,1.477077960968,4,versionC_stim.csv,READVersionD.csv,"Read Version D","Dissertation, read only version D",LION,ART,Study1,U,79,44,Study,User,-,,Study/JOL,"Study Phase2",998,,,-1,-1,,,,1
5eac357b37aec507ea7a127f,fhm4hr2u08,Nick_Dissertation_EX1,1,217,2020-07-08T15:03:49-07:00,1.4615271091461,4,versionC_stim.csv,READVersionD.csv,"Read Version D","Dissertation, read only version D",BEE,HONEY,Study1,S,63,71,Study,User,-,,Study/JOL,"Study Phase2",968,,,-1,-1,,,,1
5eac357b37aec507ea7a127f,fhm4hr2u08,Nick_Dissertation_EX1,1,218,2020-07-08T15:03:51-07:00,1.6390810012817,4,versionC_stim.csv,READVersionD.csv,"Read Version D","Dissertation, read only version D",BIRD,SWAN,Study1,B,14,56,Study,User,-,,Study/JOL,"Study Phase2",1173,,,-1,-1,,,,1
5eac357b37aec507ea7a127f,fhm4hr2u08,Nick_Dissertation_EX1,1,219,2020-07-08T15:03:53-07:00,1.9443399906158,4,versionC_stim.csv,READVersionD.csv,"Read Version D","Dissertation, read only version D",WOULD,CASH,Study1,U,83,26,Study,User,-,,Study/JOL,"Study Phase2",1498,,,-1,-1,,,,1
5eac357b37aec507ea7a127f,fhm4hr2u08,Nick_Dissertation_EX1,1,220,2020-07-08T15:03:54-07:00,1.4721159934998,4,versionC_stim.csv,READVersionD.csv,"Read Version D","Dissertation, read only version D",RACKET,BALL,Study1,F,38,45,Study,User,-,,Study/JOL,"Study Phase2",1025,,,-1,-1,,,,1
5eac357b37aec507ea7a127f,fhm4hr2u08,Nick_Dissertation_EX1,1,221,2020-07-08T15:03:56-07:00,1.605917930603,4,versionC_stim.csv,READVersionD.csv,"Read Version D","Dissertation, read only version D",ENOUGH,FULL,Study1,F,26,40,Study,User,-,,Study/JOL,"Study Phase2",1098,,,-1,-1,,,,1
5eac357b37aec507ea7a127f,fhm4hr2u08,Nick_Dissertation_EX1,1,222,2020-07-08T15:03:57-07:00,1.6019921302795,4,versionC_stim.csv,READVersionD.csv,"Read Version D","Dissertation, read only version D",TALK,DISCUSSION,Study1,B,21,30,Study,User,-,,Study/JOL,"Study Phase2",1143,,,-1,-1,,,,1
5eac357b37aec507ea7a127f,fhm4hr2u08,Nick_Dissertation_EX1,1,223,2020-07-08T15:03:59-07:00,1.5111520290375,4,versionC_stim.csv,READVersionD.csv,"Read Version D","Dissertation, read only version D",FAMINE,HUNGER,Study1,F,40,31,Study,User,-,,Study/JOL,"Study Phase2",1058,,,-1,-1,,,,1
5eac357b37aec507ea7a127f,fhm4hr2u08,Nick_Dissertation_EX1,1,224,2020-07-08T15:04:00-07:00,1.5727548599243,4,versionC_stim.csv,READVersionD.csv,"Read Version D","Dissertation, read only version D",DOG,PAW,Study1,B,15,53,Study,User,-,,Study/JOL,"Study Phase2",1079,,,-1,-1,,,,1
5eac357b37aec507ea7a127f,fhm4hr2u08,Nick_Dissertation_EX1,1,225,2020-07-08T15:04:02-07:00,1.3379969596863,4,versionC_stim.csv,READVersionD.csv,"Read Version D","Dissertation, read only version D",PILOT,PLANE,Study1,F,44,61,Study,User,-,,Study/JOL,"Study Phase2",905,,,-1,-1,,,,1
5eac357b37aec507ea7a127f,fhm4hr2u08,Nick_Dissertation_EX1,1,226,2020-07-08T15:04:04-07:00,2.4766461849213,4,versionC_stim.csv,READVersionD.csv,"Read Version D","Dissertation, read only version D",CLEAN,HYGIENE,Study1,B,17,83,Study,User,-,,Study/JOL,"Study Phase2",950,,,-1,-1,,,,1
5eac357b37aec507ea7a127f,fhm4hr2u08,Nick_Dissertation_EX1,1,227,2020-07-08T15:04:06-07:00,1.4779448509216,4,versionC_stim.csv,READVersionD.csv,"Read Version D","Dissertation, read only version D",SODA,POP,Study1,S,56,49,Study,User,-,,Study/JOL,"Study Phase2",967,,,-1,-1,,,,1
5eac357b37aec507ea7a127f,fhm4hr2u08,Nick_Dissertation_EX1,1,228,2020-07-08T15:04:07-07:00,1.4454860687256,4,versionC_stim.csv,READVersionD.csv,"Read Version D","Dissertation, read only version D",LATCH,KEY,Study1,F,36,37,Study,User,-,,Study/JOL,"Study Phase2",940,,,-1,-1,,,,1
5eac357b37aec507ea7a127f,fhm4hr2u08,Nick_Dissertation_EX1,1,229,2020-07-08T15:04:09-07:00,1.3963730335236,4,versionC_stim.csv,READVersionD.csv,"Read Version D","Dissertation, read only version D",WATER,BRIDGE,Study1,B,18,9,Study,User,-,,Study/JOL,"Study Phase2",931,,,-1,-1,,,,1
5eac357b37aec507ea7a127f,fhm4hr2u08,Nick_Dissertation_EX1,1,230,2020-07-08T15:04:10-07:00,1.3822529315948,4,versionC_stim.csv,READVersionD.csv,"Read Version D","Dissertation, read only version D",FISH,TUNA,Study1,B,25,69,Study,User,-,,Study/JOL,"Study Phase2",928,,,-1,-1,,,,1
5eac357b37aec507ea7a127f,fhm4hr2u08,Nick_Dissertation_EX1,1,231,2020-07-08T15:04:12-07:00,1.7298901081085,4,versionC_stim.csv,READVersionD.csv,"Read Version D","Dissertation, read only version D",BAD,DELINQUENT,Study1,B,6,39,Study,User,-,,Study/JOL,"Study Phase2",1278,,,-1,-1,,,,1
5eac357b37aec507ea7a127f,fhm4hr2u08,Nick_Dissertation_EX1,1,232,2020-07-08T15:04:13-07:00,1.3722388744354,4,versionC_stim.csv,READVersionD.csv,"Read Version D","Dissertation, read only version D",SITE,LOCATION,Study1,S,48,48,Study,User,-,,Study/JOL,"Study Phase2",926,,,-1,-1,,,,1
5eac357b37aec507ea7a127f,fhm4hr2u08,Nick_Dissertation_EX1,1,233,2020-07-08T15:04:16-07:00,2.5591859817505,4,versionC_stim.csv,READVersionD.csv,"Read Version D","Dissertation, read only version D",HUNGRY,PARK,Study1,U,68,38,Study,User,-,,Study/JOL,"Study Phase2",950,,,-1,-1,,,,1
5eac357b37aec507ea7a127f,fhm4hr2u08,Nick_Dissertation_EX1,1,234,2020-07-08T15:04:17-07:00,1.8624751567841,4,versionC_stim.csv,READVersionD.csv,"Read Version D","Dissertation, read only version D",RIDDLE,SUGAR,Study1,U,81,58,Study,User,-,,Study/JOL,"Study Phase2",1342,,,-1,-1,,,,1
5eac357b37aec507ea7a127f,fhm4hr2u08,Nick_Dissertation_EX1,1,235,2020-07-08T15:04:19-07:00,1.6204309463501,4,versionC_stim.csv,READVersionD.csv,"Read Version D","Dissertation, read only version D",CARD,CREDIT,Study1,B,23,46,Study,User,-,,Study/JOL,"Study Phase2",1155,,,-1,-1,,,,1
5eac357b37aec507ea7a127f,fhm4hr2u08,Nick_Dissertation_EX1,1,236,2020-07-08T15:04:21-07:00,1.5463130474091,4,versionC_stim.csv,READVersionD.csv,"Read Version D","Dissertation, read only version D",WASTE,DUMP,Study1,S,49,54,Study,User,-,,Study/JOL,"Study Phase2",1044,,,-1,-1,,,,1
5eac357b37aec507ea7a127f,fhm4hr2u08,Nick_Dissertation_EX1,1,237,2020-07-08T15:04:22-07:00,1.55872797966,4,versionC_stim.csv,READVersionD.csv,"Read Version D","Dissertation, read only version D",PLANT,ROOT,Study1,B,13,63,Study,User,-,,Study/JOL,"Study Phase2",1077,,,-1,-1,,,,1
5eac357b37aec507ea7a127f,fhm4hr2u08,Nick_Dissertation_EX1,1,238,2020-07-08T15:04:24-07:00,1.6921269893646,4,versionC_stim.csv,READVersionD.csv,"Read Version D","Dissertation, read only version D",FLOOR,DISCOVER,Study1,U,71,36,Study,User,-,,Study/JOL,"Study Phase2",1254,,,-1,-1,,,,1
5eac357b37aec507ea7a127f,fhm4hr2u08,Nick_Dissertation_EX1,1,239,2020-07-08T15:04:25-07:00,1.6397550106049,4,versionC_stim.csv,READVersionD.csv,"Read Version D","Dissertation, read only version D",STENCH,SMELL,Study1,F,42,64,Study,User,-,,Study/JOL,"Study Phase2",1160,,,-1,-1,,,,1
5eac357b37aec507ea7a127f,fhm4hr2u08,Nick_Dissertation_EX1,1,240,2020-07-08T15:04:27-07:00,1.7548038959503,4,versionC_stim.csv,READVersionD.csv,"Read Version D","Dissertation, read only version D",AMOUNT,NUMBER,Study1,S,47,76,Study,User,-,,Study/JOL,"Study Phase2",1316,,,-1,-1,,,,1
5eac357b37aec507ea7a127f,fhm4hr2u08,Nick_Dissertation_EX1,1,241,2020-07-08T15:04:32-07:00,4.2976660728455,4,versionC_stim.csv,READVersionD.csv,"Read Version D","Dissertation, read only version D",FLOWER,ORCHID,Study1,B,24,74,Study,User,-,,Study/JOL,"Study Phase2",3826,,,-1,-1,,,,1
5eac357b37aec507ea7a127f,fhm4hr2u08,Nick_Dissertation_EX1,1,242,2020-07-08T15:04:33-07:00,1.3564760684967,4,versionC_stim.csv,READVersionD.csv,"Read Version D","Dissertation, read only version D",CHILI,HOT,Study1,F,37,29,Study,User,-,,Study/JOL,"Study Phase2",870,,,-1,-1,,,,1
5eac357b37aec507ea7a127f,fhm4hr2u08,Nick_Dissertation_EX1,1,243,2020-07-08T15:04:35-07:00,1.7848489284515,4,versionC_stim.csv,READVersionD.csv,"Read Version D","Dissertation, read only version D",DEFINITION,MEANING,Study1,S,62,10,Study,User,-,,Study/JOL,"Study Phase2",1315,,,-1,-1,,,,1
5eac357b37aec507ea7a127f,fhm4hr2u08,Nick_Dissertation_EX1,1,244,2020-07-08T15:04:36-07:00,1.3943128585815,4,versionC_stim.csv,READVersionD.csv,"Read Version D","Dissertation, read only version D",ROCK,GEOLOGY,Study1,B,19,59,Study,User,-,,Study/JOL,"Study Phase2",932,,,-1,-1,,,,1
5eac357b37aec507ea7a127f,fhm4hr2u08,Nick_Dissertation_EX1,1,245,2020-07-08T15:04:37-07:00,1.4432470798492,4,versionC_stim.csv,READVersionD.csv,"Read Version D","Dissertation, read only version D",ASSIGNMENT,DUE,Study1,S,46,14,Study,User,-,,Study/JOL,"Study Phase2",1004,,,-1,-1,,,,1
5eac357b37aec507ea7a127f,fhm4hr2u08,Nick_Dissertation_EX1,1,246,2020-07-08T15:04:39-07:00,1.3258759975433,4,versionC_stim.csv,READVersionD.csv,"Read Version D","Dissertation, read only version D",COW,HERD,Study1,B,22,75,Study,User,-,,Study/JOL,"Study Phase2",878,,,-1,-1,,,,1
5eac357b37aec507ea7a127f,fhm4hr2u08,Nick_Dissertation_EX1,1,247,2020-07-08T15:04:40-07:00,1.5252721309662,4,versionC_stim.csv,READVersionD.csv,"Read Version D","Dissertation, read only version D",POSITION,MACHINE,Study1,U,76,47,Study,User,-,,Study/JOL,"Study Phase2",1064,,,-1,-1,,,,1
5eac357b37aec507ea7a127f,fhm4hr2u08,Nick_Dissertation_EX1,1,248,2020-07-08T15:04:42-07:00,1.6600248813629,4,versionC_stim.csv,READVersionD.csv,"Read Version D","Dissertation, read only version D",ATTORNEY,LAW,Study1,F,34,22,Study,User,-,,Study/JOL,"Study Phase2",1154,,,-1,-1,,,,1
5eac357b37aec507ea7a127f,fhm4hr2u08,Nick_Dissertation_EX1,1,249,2020-07-08T15:04:43-07:00,1.4457180500031,4,versionC_stim.csv,READVersionD.csv,"Read Version D","Dissertation, read only version D",HAND,FIX,Study1,U,75,86,Study,User,-,,Study/JOL,"Study Phase2",987,,,-1,-1,,,,1
5eac357b37aec507ea7a127f,fhm4hr2u08,Nick_Dissertation_EX1,1,250,2020-07-08T15:04:45-07:00,1.4295899868011,4,versionC_stim.csv,READVersionD.csv,"Read Version D","Dissertation, read only version D",STOMACH,DIGESTION,Study1,B,7,84,Study,User,-,,Study/JOL,"Study Phase2",918,,,-1,-1,,,,1
5eac357b37aec507ea7a127f,fhm4hr2u08,Nick_Dissertation_EX1,1,251,2020-07-08T15:04:51-07:00,5.8444490432739,4,versionC_stim.csv,READVersionD.csv,"Read Version D","Dissertation, read only version D",END,BEGIN,Study1,S,54,35,Study,User,-,,Study/JOL,"Study Phase2",5398,,,-1,-1,,,,1
5eac357b37aec507ea7a127f,fhm4hr2u08,Nick_Dissertation_EX1,1,252,2020-07-08T15:04:52-07:00,1.5048389434814,4,versionC_stim.csv,READVersionD.csv,"Read Version D","Dissertation, read only version D",SIGHT,DEBATE,Study1,U,73,67,Study,User,-,,Study/JOL,"Study Phase2",1012,,,-1,-1,,,,1
5eac357b37aec507ea7a127f,fhm4hr2u08,Nick_Dissertation_EX1,1,253,2020-07-08T15:04:54-07:00,1.2893888950348,4,versionC_stim.csv,READVersionD.csv,"Read Version D","Dissertation, read only version D",OUT,WAY,Study1,B,16,57,Study,User,-,,Study/JOL,"Study Phase2",866,,,-1,-1,,,,1
5eac357b37aec507ea7a127f,fhm4hr2u08,Nick_Dissertation_EX1,1,254,2020-07-08T15:04:55-07:00,1.8568241596222,4,versionC_stim.csv,READVersionD.csv,"Read Version D","Dissertation, read only version D",VASE,KING,Study1,U,85,41,Study,User,-,,Study/JOL,"Study Phase2",1381,,,-1,-1,,,,1
5eac357b37aec507ea7a127f,fhm4hr2u08,Nick_Dissertation_EX1,1,255,2020-07-08T15:04:58-07:00,2.7553749084473,4,versionC_stim.csv,READVersionD.csv,"Read Version D","Dissertation, read only version D",SIP,DRINK,Study1,F,27,11,Study,User,-,,Study/JOL,"Study Phase2",2303,,,-1,-1,,,,1
5eac357b37aec507ea7a127f,fhm4hr2u08,Nick_Dissertation_EX1,1,256,2020-07-08T15:05:01-07:00,3.2477030754089,4,versionC_stim.csv,READVersionD.csv,"Read Version D","Dissertation, read only version D",COLD,BITTER,Study1,B,12,24,Study,User,-,,Study/JOL,"Study Phase2",2788,,,-1,-1,,,,1
5eac357b37aec507ea7a127f,fhm4hr2u08,Nick_Dissertation_EX1,1,257,2020-07-08T15:05:03-07:00,1.308070898056,4,versionC_stim.csv,READVersionD.csv,"Read Version D","Dissertation, read only version D",HAMMER,CHISEL,Study1,B,9,12,Study,User,-,,Study/JOL,"Study Phase2",848,,,-1,-1,,,,1
5eac357b37aec507ea7a127f,fhm4hr2u08,Nick_Dissertation_EX1,1,258,2020-07-08T15:05:04-07:00,1.2260890007019,4,versionC_stim.csv,READVersionD.csv,"Read Version D","Dissertation, read only version D",BAR,GRILL,Study1,S,52,72,Study,User,-,,Study/JOL,"Study Phase2",729,,,-1,-1,,,,1
5eac357b37aec507ea7a127f,fhm4hr2u08,Nick_Dissertation_EX1,1,259,2020-07-08T15:05:06-07:00,2.4196081161499,4,versionC_stim.csv,READVersionD.csv,"Read Version D","Dissertation, read only version D",ACCIDENT,STRONG,Study1,U,80,7,Study,User,-,,Study/JOL,"Study Phase2",1964,,,-1,-1,,,,1
5eac357b37aec507ea7a127f,fhm4hr2u08,Nick_Dissertation_EX1,1,260,2020-07-08T15:05:13-07:00,6.8203799724579,4,versionC_stim.csv,READVersionD.csv,"Read Version D","Dissertation, read only version D",ADD,VALLEY,Study1,U,82,27,Study,User,-,,Study/JOL,"Study Phase2",5141,,,-1,-1,,,,1
5eac357b37aec507ea7a127f,fhm4hr2u08,Nick_Dissertation_EX1,1,261,2020-07-08T15:05:16-07:00,2.7679660320282,4,versionC_stim.csv,READVersionD.csv,"Read Version D","Dissertation, read only version D",POLICE,SHERRIF,BUFFER2,Buffer,87,89,Study,User,-,,Study/JOL,BUFFER4,2259,,,-1,-1,,,,1
5eac357b37aec507ea7a127f,fhm4hr2u08,Nick_Dissertation_EX1,1,262,2020-07-08T15:05:18-07:00,1.584000825882,4,versionC_stim.csv,READVersionD.csv,"Read Version D","Dissertation, read only version D",CHOCOLATE,MALT,BUFFER2,Buffer,88,88,Study,User,-,,Study/JOL,BUFFER4,1084,,,-1,-1,,,,1
5eac357b37aec507ea7a127f,fhm4hr2u08,Nick_Dissertation_EX1,1,263,2020-07-08T15:05:19-07:00,1.5077431201935,4,versionC_stim.csv,READVersionD.csv,"Read Version D","Dissertation, read only version D",GOOSE,GEESE,BUFFER2,Buffer,86,90,Study,User,-,,Study/JOL,BUFFER4,978,,,-1,-1,,,,1
5eac357b37aec507ea7a127f,fhm4hr2u08,Nick_Dissertation_EX1,1,264,2020-07-08T15:05:20-07:00,1.4735140800476,4,versionC_stim.csv,READVersionD.csv,"Read Version D","Dissertation, read only version D",STUFF,THING,BUFFER2,Buffer,90,87,Study,User,-,,Study/JOL,BUFFER4,981,,,-1,-1,,,,1
5eac357b37aec507ea7a127f,fhm4hr2u08,Nick_Dissertation_EX1,1,265,2020-07-08T15:05:22-07:00,1.5636258125305,4,versionC_stim.csv,READVersionD.csv,"Read Version D","Dissertation, read only version D",SPACE,MOON,BUFFER2,Buffer,89,91,Study,User,-,,Study/JOL,BUFFER4,1106,,,-1,-1,,,,1
5eac357b37aec507ea7a127f,fhm4hr2u08,Nick_Dissertation_EX1,1,266,2020-07-08T15:05:25-07:00,2.5469851493835,4,versionC_stim.csv,READVersionD.csv,"Read Version D","Dissertation, read only version D",,,,,,0,Instruct,User,-,"You have completed this section. Please press Enter.",Filler_Instruction,Instruct5,2108,,,-1,-1,,,,1
5eac357b37aec507ea7a127f,fhm4hr2u08,Nick_Dissertation_EX1,1,267,2020-07-08T15:07:25-07:00,120.6074090004,4,versionC_stim.csv,READVersionD.csv,"Read Version D","Dissertation, read only version D",,,,,,0,FreeRecall,120,120,"Please list the 50 US states in reverse alphabetical order (z - a). The task will automatically advance to the next screen after two minutes.",,Filler2,120004,"Wyoming Vermont Texas Seattle Mississippi Massachusetts Nebraska Ohio Kan",0,-1,-1,0,0,,1
5eac357b37aec507ea7a127f,fhm4hr2u08,Nick_Dissertation_EX1,1,268,2020-07-08T15:07:38-07:00,12.910234928131,4,versionC_stim.csv,READVersionD.csv,"Read Version D","Dissertation, read only version D",,,,,,0,Instruct,-,10,"You will now be presented with the first word from each of the previously studied item pairs. Please type the missing word. If you do not know the word, you may guess or press Enter to skip forward to the next pair.",,Instruct6,12440,,,-1,-1,,,,1
5eac357b37aec507ea7a127f,fhm4hr2u08,Nick_Dissertation_EX1,1,269,2020-07-08T15:07:44-07:00,5.5738120079041,4,versionC_stim.csv,READVersionD.csv,"Read Version D","Dissertation, read only version D",JURY,TRIAL,Study1,S,50,28,Test,User,-,,Recall,Recall2,5049,JUDGE,0,-1,-1,0,0,,1
5eac357b37aec507ea7a127f,fhm4hr2u08,Nick_Dissertation_EX1,1,270,2020-07-08T15:07:50-07:00,6.0849099159241,4,versionC_stim.csv,READVersionD.csv,"Read Version D","Dissertation, read only version D",FUTURE,PAST,Study1,S,61,65,Test,User,-,,Recall,Recall2,5589,PRESENT,54.545454545455,-1,-1,0,0,,1
5eac357b37aec507ea7a127f,fhm4hr2u08,Nick_Dissertation_EX1,1,271,2020-07-08T15:07:55-07:00,5.2307431697845,4,versionC_stim.csv,READVersionD.csv,"Read Version D","Dissertation, read only version D",CHILD,BABY,Study1,S,64,21,Test,User,-,,Recall,Recall2,4734,BABY,100,-1,-1,1,1,,1
5eac357b37aec507ea7a127f,fhm4hr2u08,Nick_Dissertation_EX1,1,272,2020-07-08T15:07:59-07:00,4.2816898822784,4,versionC_stim.csv,READVersionD.csv,"Read Version D","Dissertation, read only version D",OUT,WAY,Study1,B,16,57,Test,User,-,,Recall,Recall2,3755,IN,0,-1,-1,0,0,,1
5eac357b37aec507ea7a127f,fhm4hr2u08,Nick_Dissertation_EX1,1,273,2020-07-08T15:08:06-07:00,7.1766400337219,4,versionC_stim.csv,READVersionD.csv,"Read Version D","Dissertation, read only version D",FOOT,SHOE,Study1,S,60,85,Test,User,-,,Recall,Recall2,5530,SHOE,100,-1,-1,1,1,,1
5eac357b37aec507ea7a127f,fhm4hr2u08,Nick_Dissertation_EX1,1,274,2020-07-08T15:08:17-07:00,10.147792100906,4,versionC_stim.csv,READVersionD.csv,"Read Version D","Dissertation, read only version D",ATTIRE,CLOTHES,Study1,F,43,60,Test,User,-,,Recall,Recall2,8436,CLOTHES,100,-1,-1,1,1,,1
5eac357b37aec507ea7a127f,fhm4hr2u08,Nick_Dissertation_EX1,1,275,2020-07-08T15:08:23-07:00,6.332319021225,4,versionC_stim.csv,READVersionD.csv,"Read Version D","Dissertation, read only version D",ASSIGNMENT,DUE,Study1,S,46,14,Test,User,-,,Recall,Recall2,5763,DUE,100,-1,-1,1,1,,1
5eac357b37aec507ea7a127f,fhm4hr2u08,Nick_Dissertation_EX1,1,276,2020-07-08T15:08:32-07:00,9.2993228435516,4,versionC_stim.csv,READVersionD.csv,"Read Version D","Dissertation, read only version D",ROCK,GEOLOGY,Study1,B,19,59,Test,User,-,,Recall,Recall2,8818,HARD,0,-1,-1,0,0,,1
5eac357b37aec507ea7a127f,fhm4hr2u08,Nick_Dissertation_EX1,1,277,2020-07-08T15:08:38-07:00,5.4345531463623,4,versionC_stim.csv,READVersionD.csv,"Read Version D","Dissertation, read only version D",BELT,SOON,Study1,U,70,34,Test,User,-,,Recall,Recall2,4867,BRACE,0,-1,-1,0,0,,1
5eac357b37aec507ea7a127f,fhm4hr2u08,Nick_Dissertation_EX1,1,278,2020-07-08T15:08:45-07:00,7.6110668182373,4,versionC_stim.csv,READVersionD.csv,"Read Version D","Dissertation, read only version D",WORD,SENTENCE,Study1,F,31,70,Test,User,-,,Recall,Recall2,7076,COUNT,30.769230769231,-1,-1,0,0,,1
5eac357b37aec507ea7a127f,fhm4hr2u08,Nick_Dissertation_EX1,1,279,2020-07-08T15:08:51-07:00,5.2131299972534,4,versionC_stim.csv,READVersionD.csv,"Read Version D","Dissertation, read only version D",LIVER,KIDNEY,Study1,S,53,82,Test,User,-,,Recall,Recall2,4690,KIDNEY,100,-1,-1,1,1,,1
5eac357b37aec507ea7a127f,fhm4hr2u08,Nick_Dissertation_EX1,1,280,2020-07-08T15:08:58-07:00,7.3845710754395,4,versionC_stim.csv,READVersionD.csv,"Read Version D","Dissertation, read only version D",CLUTTER,PUSHER,Study1,U,66,23,Test,User,-,,Recall,Recall2,5710,MESS,20,-1,-1,0,0,,1
5eac357b37aec507ea7a127f,fhm4hr2u08,Nick_Dissertation_EX1,1,281,2020-07-08T15:09:05-07:00,7.2662789821625,4,versionC_stim.csv,READVersionD.csv,"Read Version D","Dissertation, read only version D",SODA,POP,Study1,S,56,49,Test,User,-,,Recall,Recall2,6767,POP,100,-1,-1,1,1,,1
5eac357b37aec507ea7a127f,fhm4hr2u08,Nick_Dissertation_EX1,1,282,2020-07-08T15:09:11-07:00,5.7541511058807,4,versionC_stim.csv,READVersionD.csv,"Read Version D","Dissertation, read only version D",STING,HORNET,Study1,B,11,13,Test,User,-,,Recall,Recall2,5214,HORNET,100,-1,-1,1,1,,1
5eac357b37aec507ea7a127f,fhm4hr2u08,Nick_Dissertation_EX1,1,283,2020-07-08T15:09:17-07:00,5.7451820373535,4,versionC_stim.csv,READVersionD.csv,"Read Version D","Dissertation, read only version D",AMOUNT,NUMBER,Study1,S,47,76,Test,User,-,,Recall,Recall2,5194,CASH,0,-1,-1,0,0,,1
5eac357b37aec507ea7a127f,fhm4hr2u08,Nick_Dissertation_EX1,1,284,2020-07-08T15:09:25-07:00,8.2887349128723,4,versionC_stim.csv,READVersionD.csv,"Read Version D","Dissertation, read only version D",BAD,DELINQUENT,Study1,B,6,39,Test,User,-,,Recall,Recall2,7793,MEDICINE,44.444444444444,-1,-1,0,0,,1
5eac357b37aec507ea7a127f,fhm4hr2u08,Nick_Dissertation_EX1,1,285,2020-07-08T15:09:31-07:00,5.8937878608704,4,versionC_stim.csv,READVersionD.csv,"Read Version D","Dissertation, read only version D",WOULD,CASH,Study1,U,83,26,Test,User,-,,Recall,Recall2,5395,COULD,22.222222222222,-1,-1,0,0,,1
5eac357b37aec507ea7a127f,fhm4hr2u08,Nick_Dissertation_EX1,1,286,2020-07-08T15:09:40-07:00,9.0832471847534,4,versionC_stim.csv,READVersionD.csv,"Read Version D","Dissertation, read only version D",STENCH,SMELL,Study1,F,42,64,Test,User,-,,Recall,Recall2,8594,SMELL,100,-1,-1,1,1,,1
5eac357b37aec507ea7a127f,fhm4hr2u08,Nick_Dissertation_EX1,1,287,2020-07-08T15:09:47-07:00,6.8682849407196,4,versionC_stim.csv,READVersionD.csv,"Read Version D","Dissertation, read only version D",ATTORNEY,LAW,Study1,F,34,22,Test,User,-,,Recall,Recall2,6316,LAW,100,-1,-1,1,1,,1
5eac357b37aec507ea7a127f,fhm4hr2u08,Nick_Dissertation_EX1,1,288,2020-07-08T15:09:54-07:00,7.2104160785675,4,versionC_stim.csv,READVersionD.csv,"Read Version D","Dissertation, read only version D",SIP,DRINK,Study1,F,27,11,Test,User,-,,Recall,Recall2,6721,SODA,22.222222222222,-1,-1,0,0,,1
5eac357b37aec507ea7a127f,fhm4hr2u08,Nick_Dissertation_EX1,1,289,2020-07-08T15:10:01-07:00,7.104211807251,4,versionC_stim.csv,READVersionD.csv,"Read Version D","Dissertation, read only version D",DESIGN,ARCHITECTURE,Study1,S,51,81,Test,User,-,,Recall,Recall2,6560,ARCHITECTURE,100,-1,-1,1,1,,1
5eac357b37aec507ea7a127f,fhm4hr2u08,Nick_Dissertation_EX1,1,290,2020-07-08T15:10:06-07:00,4.8782250881195,4,versionC_stim.csv,READVersionD.csv,"Read Version D","Dissertation, read only version D",SALAD,LETTUCE,Study1,S,59,42,Test,User,-,,Recall,Recall2,4342,LETTUCE,100,-1,-1,1,1,,1
5eac357b37aec507ea7a127f,fhm4hr2u08,Nick_Dissertation_EX1,1,291,2020-07-08T15:10:13-07:00,7.1232039928436,4,versionC_stim.csv,READVersionD.csv,"Read Version D","Dissertation, read only version D",CHEESE,WINE,Study1,S,57,73,Test,User,-,,Recall,Recall2,6588,ROLL,0,-1,-1,0,0,,1
5eac357b37aec507ea7a127f,fhm4hr2u08,Nick_Dissertation_EX1,1,292,2020-07-08T15:10:20-07:00,6.8565139770508,4,versionC_stim.csv,READVersionD.csv,"Read Version D","Dissertation, read only version D",CARD,CREDIT,Study1,B,23,46,Test,User,-,,Recall,Recall2,6325,MONEY,18.181818181818,-1,-1,0,0,,1
5eac357b37aec507ea7a127f,fhm4hr2u08,Nick_Dissertation_EX1,1,293,2020-07-08T15:10:29-07:00,8.992772102356,4,versionC_stim.csv,READVersionD.csv,"Read Version D","Dissertation, read only version D",TALK,DISCUSSION,Study1,B,21,30,Test,User,-,,Recall,Recall2,8498,SENSE,26.666666666667,-1,-1,0,0,,1
5eac357b37aec507ea7a127f,fhm4hr2u08,Nick_Dissertation_EX1,1,294,2020-07-08T15:10:36-07:00,6.7095549106598,4,versionC_stim.csv,READVersionD.csv,"Read Version D","Dissertation, read only version D",COW,HERD,Study1,B,22,75,Test,User,-,,Recall,Recall2,6224,TIP,0,-1,-1,0,0,,1
5eac357b37aec507ea7a127f,fhm4hr2u08,Nick_Dissertation_EX1,1,295,2020-07-08T15:10:45-07:00,9.3816959857941,4,versionC_stim.csv,READVersionD.csv,"Read Version D","Dissertation, read only version D",WASTE,DUMP,Study1,S,49,54,Test,User,-,,Recall,Recall2,7891,RUBBISH,18.181818181818,-1,-1,0,0,,1
5eac357b37aec507ea7a127f,fhm4hr2u08,Nick_Dissertation_EX1,1,296,2020-07-08T15:10:49-07:00,4.2499520778656,4,versionC_stim.csv,READVersionD.csv,"Read Version D","Dissertation, read only version D",HAMMER,CHISEL,Study1,B,9,12,Test,User,-,,Recall,Recall2,3702,NAIL,40,-1,-1,0,0,,1
5eac357b37aec507ea7a127f,fhm4hr2u08,Nick_Dissertation_EX1,1,297,2020-07-08T15:10:54-07:00,5.0391159057617,4,versionC_stim.csv,READVersionD.csv,"Read Version D","Dissertation, read only version D",GROWTH,HEIGHT,Study1,F,30,68,Test,User,-,,Recall,Recall2,4530,HEIGHT,100,-1,-1,1,1,,1
5eac357b37aec507ea7a127f,fhm4hr2u08,Nick_Dissertation_EX1,1,298,2020-07-08T15:11:01-07:00,6.3574409484863,4,versionC_stim.csv,READVersionD.csv,"Read Version D","Dissertation, read only version D",PLANT,ROOT,Study1,B,13,63,Test,User,-,,Recall,Recall2,5832,ROOT,100,-1,-1,1,1,,1
5eac357b37aec507ea7a127f,fhm4hr2u08,Nick_Dissertation_EX1,1,299,2020-07-08T15:11:07-07:00,6.0325171947479,4,versionC_stim.csv,READVersionD.csv,"Read Version D","Dissertation, read only version D",POSITION,MACHINE,Study1,U,76,47,Test,User,-,,Recall,Recall2,5521,PLACE,50,-1,-1,0,0,,1
5eac357b37aec507ea7a127f,fhm4hr2u08,Nick_Dissertation_EX1,1,300,2020-07-08T15:11:13-07:00,6.7183690071106,4,versionC_stim.csv,READVersionD.csv,"Read Version D","Dissertation, read only version D",FLOOR,DISCOVER,Study1,U,71,36,Test,User,-,,Recall,Recall2,6125,GROUND,14.285714285714,-1,-1,0,0,,1
5eac357b37aec507ea7a127f,fhm4hr2u08,Nick_Dissertation_EX1,1,301,2020-07-08T15:11:19-07:00,6.016352891922,4,versionC_stim.csv,READVersionD.csv,"Read Version D","Dissertation, read only version D",SACKING,DIETARY,Study1,U,67,15,Test,User,-,,Recall,Recall2,5518,WORK,18.181818181818,-1,-1,0,0,,1
5eac357b37aec507ea7a127f,fhm4hr2u08,Nick_Dissertation_EX1,1,302,2020-07-08T15:11:26-07:00,6.3708200454712,4,versionC_stim.csv,READVersionD.csv,"Read Version D","Dissertation, read only version D",BIRD,SWAN,Study1,B,14,56,Test,User,-,,Recall,Recall2,5781,FEEDER,0,-1,-1,0,0,,1
5eac357b37aec507ea7a127f,fhm4hr2u08,Nick_Dissertation_EX1,1,303,2020-07-08T15:11:33-07:00,7.3130559921265,4,versionC_stim.csv,READVersionD.csv,"Read Version D","Dissertation, read only version D",WASP,BUG,Study1,F,32,43,Test,User,-,,Recall,Recall2,6753,STING,25,-1,-1,0,0,,1
5eac357b37aec507ea7a127f,fhm4hr2u08,Nick_Dissertation_EX1,1,304,2020-07-08T15:11:39-07:00,6.27698802948,4,versionC_stim.csv,READVersionD.csv,"Read Version D","Dissertation, read only version D",BEE,HONEY,Study1,S,63,71,Test,User,-,,Recall,Recall2,5737,HONEY,100,-1,-1,1,1,,1
5eac357b37aec507ea7a127f,fhm4hr2u08,Nick_Dissertation_EX1,1,305,2020-07-08T15:11:50-07:00,10.710126876831,4,versionC_stim.csv,READVersionD.csv,"Read Version D","Dissertation, read only version D",TOILET,BATHROOM,Study1,S,58,79,Test,User,-,,Recall,Recall2,10200,HUMOUR,28.571428571429,-1,-1,0,0,,1
5eac357b37aec507ea7a127f,fhm4hr2u08,Nick_Dissertation_EX1,1,306,2020-07-08T15:11:56-07:00,5.5202770233154,4,versionC_stim.csv,READVersionD.csv,"Read Version D","Dissertation, read only version D",SEIZE,TAKE,Study1,F,29,51,Test,User,-,,Recall,Recall2,5021,TAKE,100,-1,-1,1,1,,1
5eac357b37aec507ea7a127f,fhm4hr2u08,Nick_Dissertation_EX1,1,307,2020-07-08T15:12:01-07:00,5.2402520179749,4,versionC_stim.csv,READVersionD.csv,"Read Version D","Dissertation, read only version D",CHORE,WORK,Study1,F,39,19,Test,User,-,,Recall,Recall2,4749,WORK,100,-1,-1,1,1,,1
5eac357b37aec507ea7a127f,fhm4hr2u08,Nick_Dissertation_EX1,1,308,2020-07-08T15:12:06-07:00,5.3771710395813,4,versionC_stim.csv,READVersionD.csv,"Read Version D","Dissertation, read only version D",SICK,HIDE,Study1,U,84,55,Test,User,-,,Recall,Recall2,4834,MONEY,22.222222222222,-1,-1,0,0,,1
5eac357b37aec507ea7a127f,fhm4hr2u08,Nick_Dissertation_EX1,1,309,2020-07-08T15:12:11-07:00,4.2761209011078,4,versionC_stim.csv,READVersionD.csv,"Read Version D","Dissertation, read only version D",NEWS,EDITOR,Study1,B,10,32,Test,User,-,,Recall,Recall2,3710,FLASH,0,-1,-1,0,0,,1
5eac357b37aec507ea7a127f,fhm4hr2u08,Nick_Dissertation_EX1,1,310,2020-07-08T15:12:16-07:00,5.3374900817871,4,versionC_stim.csv,READVersionD.csv,"Read Version D","Dissertation, read only version D",END,BEGIN,Study1,S,54,35,Test,User,-,,Recall,Recall2,4793,START,0,-1,-1,0,0,,1
5eac357b37aec507ea7a127f,fhm4hr2u08,Nick_Dissertation_EX1,1,311,2020-07-08T15:12:27-07:00,10.686211109161,4,versionC_stim.csv,READVersionD.csv,"Read Version D","Dissertation, read only version D",ENOUGH,FULL,Study1,F,26,40,Test,User,-,,Recall,Recall2,10196,FULL,100,-1,-1,1,1,,1
5eac357b37aec507ea7a127f,fhm4hr2u08,Nick_Dissertation_EX1,1,312,2020-07-08T15:12:32-07:00,5.313188791275,4,versionC_stim.csv,READVersionD.csv,"Read Version D","Dissertation, read only version D",DROWSY,SLEEP,Study1,F,41,50,Test,User,-,,Recall,Recall2,4809,SLEEP,100,-1,-1,1,1,,1
5eac357b37aec507ea7a127f,fhm4hr2u08,Nick_Dissertation_EX1,1,313,2020-07-08T15:12:39-07:00,6.6677691936493,4,versionC_stim.csv,READVersionD.csv,"Read Version D","Dissertation, read only version D",TUCK,ALLOW,Study1,U,78,18,Test,User,-,,Recall,Recall2,5949,TICK,0,-1,-1,0,0,,1
5eac357b37aec507ea7a127f,fhm4hr2u08,Nick_Dissertation_EX1,1,314,2020-07-08T15:12:40-07:00,1.7390289306641,4,versionC_stim.csv,READVersionD.csv,"Read Version D","Dissertation, read only version D",PILOT,PLANE,Study1,F,44,61,Test,User,-,,Recall,Recall2,1237,,0,-1,-1,0,0,,1
5eac357b37aec507ea7a127f,fhm4hr2u08,Nick_Dissertation_EX1,1,315,2020-07-08T15:12:48-07:00,7.839751958847,4,versionC_stim.csv,READVersionD.csv,"Read Version D","Dissertation, read only version D",WAR,REVOLUTION,Study1,B,20,77,Test,User,-,,Recall,Recall2,7324,DEATH,26.666666666667,-1,-1,0,0,,1
5eac357b37aec507ea7a127f,fhm4hr2u08,Nick_Dissertation_EX1,1,316,2020-07-08T15:12:53-07:00,5.0097060203552,4,versionC_stim.csv,READVersionD.csv,"Read Version D","Dissertation, read only version D",FANTASTIC,GREAT,Study1,F,35,8,Test,User,-,,Recall,Recall2,4499,GREAT,100,-1,-1,1,1,,1
5eac357b37aec507ea7a127f,fhm4hr2u08,Nick_Dissertation_EX1,1,317,2020-07-08T15:12:59-07:00,5.5274360179901,4,versionC_stim.csv,READVersionD.csv,"Read Version D","Dissertation, read only version D",WIND,BLOW,Study1,S,55,17,Test,User,-,,Recall,Recall2,5016,BLOW,100,-1,-1,1,1,,1
5eac357b37aec507ea7a127f,fhm4hr2u08,Nick_Dissertation_EX1,1,318,2020-07-08T15:13:04-07:00,5.8258490562439,4,versionC_stim.csv,READVersionD.csv,"Read Version D","Dissertation, read only version D",CAR,HAPPY,Study1,U,77,20,Test,User,-,,Recall,Recall2,5276,JOY,25,-1,-1,0,0,,1
5eac357b37aec507ea7a127f,fhm4hr2u08,Nick_Dissertation_EX1,1,319,2020-07-08T15:13:09-07:00,4.8424818515778,4,versionC_stim.csv,READVersionD.csv,"Read Version D","Dissertation, read only version D",MONEY,WAGE,Study1,B,8,16,Test,User,-,,Recall,Recall2,4322,DEATH,22.222222222222,-1,-1,0,0,,1
5eac357b37aec507ea7a127f,fhm4hr2u08,Nick_Dissertation_EX1,1,320,2020-07-08T15:13:14-07:00,4.3726761341095,4,versionC_stim.csv,READVersionD.csv,"Read Version D","Dissertation, read only version D",CAVE,DARK,Study1,F,28,80,Test,User,-,,Recall,Recall2,3840,DARK,100,-1,-1,1,1,,1
5eac357b37aec507ea7a127f,fhm4hr2u08,Nick_Dissertation_EX1,1,321,2020-07-08T15:13:23-07:00,9.7658350467682,4,versionC_stim.csv,READVersionD.csv,"Read Version D","Dissertation, read only version D",HUNGRY,PARK,Study1,U,68,38,Test,User,-,,Recall,Recall2,9233,LAW,28.571428571429,-1,-1,0,0,,1
5eac357b37aec507ea7a127f,fhm4hr2u08,Nick_Dissertation_EX1,1,322,2020-07-08T15:13:31-07:00,7.9091749191284,4,versionC_stim.csv,READVersionD.csv,"Read Version D","Dissertation, read only version D",FISH,TUNA,Study1,B,25,69,Test,User,-,,Recall,Recall2,7418,SALMON,20,-1,-1,0,0,,1
5eac357b37aec507ea7a127f,fhm4hr2u08,Nick_Dissertation_EX1,1,323,2020-07-08T15:13:37-07:00,5.764270067215,4,versionC_stim.csv,READVersionD.csv,"Read Version D","Dissertation, read only version D",ADD,VALLEY,Study1,U,82,27,Test,User,-,,Recall,Recall2,5269,TOTAL,36.363636363636,-1,-1,0,0,,1
5eac357b37aec507ea7a127f,fhm4hr2u08,Nick_Dissertation_EX1,1,324,2020-07-08T15:13:52-07:00,14.6106569767,4,versionC_stim.csv,READVersionD.csv,"Read Version D","Dissertation, read only version D",SITE,LOCATION,Study1,S,48,48,Test,User,-,,Recall,Recall2,14086,OFFICE,28.571428571429,-1,-1,0,0,,1
5eac357b37aec507ea7a127f,fhm4hr2u08,Nick_Dissertation_EX1,1,325,2020-07-08T15:13:59-07:00,6.9935820102692,4,versionC_stim.csv,READVersionD.csv,"Read Version D","Dissertation, read only version D",DEFINITION,MEANING,Study1,S,62,10,Test,User,-,,Recall,Recall2,6495,DESCRIPTION,33.333333333333,-1,-1,0,0,,1
5eac357b37aec507ea7a127f,fhm4hr2u08,Nick_Dissertation_EX1,1,326,2020-07-08T15:14:06-07:00,6.7894258499146,4,versionC_stim.csv,READVersionD.csv,"Read Version D","Dissertation, read only version D",DIVISION,MATH,Study1,F,33,62,Test,User,-,,Recall,Recall2,6294,PART,50,-1,-1,0,0,,1
5eac357b37aec507ea7a127f,fhm4hr2u08,Nick_Dissertation_EX1,1,327,2020-07-08T15:14:12-07:00,6.407567024231,4,versionC_stim.csv,READVersionD.csv,"Read Version D","Dissertation, read only version D",CHILI,HOT,Study1,F,37,29,Test,User,-,,Recall,Recall2,5891,HOT,100,-1,-1,1,1,,1
5eac357b37aec507ea7a127f,fhm4hr2u08,Nick_Dissertation_EX1,1,328,2020-07-08T15:14:19-07:00,7.2069721221924,4,versionC_stim.csv,READVersionD.csv,"Read Version D","Dissertation, read only version D",HAND,FIX,Study1,U,75,86,Test,User,-,,Recall,Recall2,6665,HOLD,0,-1,-1,0,0,,1
5eac357b37aec507ea7a127f,fhm4hr2u08,Nick_Dissertation_EX1,1,329,2020-07-08T15:14:33-07:00,13.996620893478,4,versionC_stim.csv,READVersionD.csv,"Read Version D","Dissertation, read only version D",RIDDLE,SUGAR,Study1,U,81,58,Test,User,-,,Recall,Recall2,13483,PUZZLE,18.181818181818,-1,-1,0,0,,0.662
5eac357b37aec507ea7a127f,fhm4hr2u08,Nick_Dissertation_EX1,1,330,2020-07-08T15:14:40-07:00,6.6108961105347,4,versionC_stim.csv,READVersionD.csv,"Read Version D","Dissertation, read only version D",ROUND,CIRCLE,Study1,S,65,33,Test,User,-,,Recall,Recall2,6046,CIRCLE,100,-1,-1,1,1,,1
5eac357b37aec507ea7a127f,fhm4hr2u08,Nick_Dissertation_EX1,1,331,2020-07-08T15:14:46-07:00,5.7624509334564,4,versionC_stim.csv,READVersionD.csv,"Read Version D","Dissertation, read only version D",WATER,BRIDGE,Study1,B,18,9,Test,User,-,,Recall,Recall2,5194,WET,22.222222222222,-1,-1,0,0,,1
5eac357b37aec507ea7a127f,fhm4hr2u08,Nick_Dissertation_EX1,1,332,2020-07-08T15:14:54-07:00,8.6542370319366,4,versionC_stim.csv,READVersionD.csv,"Read Version D","Dissertation, read only version D",SIGHT,DEBATE,Study1,U,73,67,Test,User,-,,Recall,Recall2,8166,SEE,44.444444444444,-1,-1,0,0,,1
5eac357b37aec507ea7a127f,fhm4hr2u08,Nick_Dissertation_EX1,1,333,2020-07-08T15:14:59-07:00,4.9964959621429,4,versionC_stim.csv,READVersionD.csv,"Read Version D","Dissertation, read only version D",FLOWER,ORCHID,Study1,B,24,74,Test,User,-,,Recall,Recall2,4505,POT,22.222222222222,-1,-1,0,0,,1
5eac357b37aec507ea7a127f,fhm4hr2u08,Nick_Dissertation_EX1,1,334,2020-07-08T15:15:07-07:00,7.3846480846405,4,versionC_stim.csv,READVersionD.csv,"Read Version D","Dissertation, read only version D",RACKET,BALL,Study1,F,38,45,Test,User,-,,Recall,Recall2,6907,BALL,100,-1,-1,1,1,,1
5eac357b37aec507ea7a127f,fhm4hr2u08,Nick_Dissertation_EX1,1,335,2020-07-08T15:15:12-07:00,5.5328040122986,4,versionC_stim.csv,READVersionD.csv,"Read Version D","Dissertation, read only version D",ACCIDENT,STRONG,Study1,U,80,7,Test,User,-,,Recall,Recall2,5016,PRONE,54.545454545455,-1,-1,0,0,,1
5eac357b37aec507ea7a127f,fhm4hr2u08,Nick_Dissertation_EX1,1,336,2020-07-08T15:15:18-07:00,6.346531867981,4,versionC_stim.csv,READVersionD.csv,"Read Version D","Dissertation, read only version D",STOMACH,DIGESTION,Study1,B,7,84,Test,User,-,,Recall,Recall2,5762,HURT,15.384615384615,-1,-1,0,0,,1
5eac357b37aec507ea7a127f,fhm4hr2u08,Nick_Dissertation_EX1,1,337,2020-07-08T15:15:26-07:00,7.1604080200195,4,versionC_stim.csv,READVersionD.csv,"Read Version D","Dissertation, read only version D",DOG,PAW,Study1,B,15,53,Test,User,-,,Recall,Recall2,6637,FLEA,28.571428571429,-1,-1,0,0,,1
5eac357b37aec507ea7a127f,fhm4hr2u08,Nick_Dissertation_EX1,1,338,2020-07-08T15:15:35-07:00,9.8528220653534,4,versionC_stim.csv,READVersionD.csv,"Read Version D","Dissertation, read only version D",BLAZE,FIRE,Study1,F,45,78,Test,User,-,,Recall,Recall2,9368,FIRE,100,-1,-1,1,1,,1
5eac357b37aec507ea7a127f,fhm4hr2u08,Nick_Dissertation_EX1,1,339,2020-07-08T15:15:42-07:00,6.5633020401001,4,versionC_stim.csv,READVersionD.csv,"Read Version D","Dissertation, read only version D",VASE,KING,Study1,U,85,41,Test,User,-,,Recall,Recall2,6072,FLOWER,0,-1,-1,0,0,,1
5eac357b37aec507ea7a127f,fhm4hr2u08,Nick_Dissertation_EX1,1,340,2020-07-08T15:15:48-07:00,5.6097509860992,4,versionC_stim.csv,READVersionD.csv,"Read Version D","Dissertation, read only version D",BUSINESS,DEATH,Study1,U,72,52,Test,User,-,,Recall,Recall2,5118,CORPORATE,28.571428571429,-1,-1,0,0,,1
5eac357b37aec507ea7a127f,fhm4hr2u08,Nick_Dissertation_EX1,1,341,2020-07-08T15:15:52-07:00,4.3804988861084,4,versionC_stim.csv,READVersionD.csv,"Read Version D","Dissertation, read only version D",LATCH,KEY,Study1,F,36,37,Test,User,-,,Recall,Recall2,3875,HOLD,0,-1,-1,0,0,,1
5eac357b37aec507ea7a127f,fhm4hr2u08,Nick_Dissertation_EX1,1,342,2020-07-08T15:15:59-07:00,7.0513551235199,4,versionC_stim.csv,READVersionD.csv,"Read Version D","Dissertation, read only version D",FAMINE,HUNGER,Study1,F,40,31,Test,User,-,,Recall,Recall2,6575,HUNGER,100,-1,-1,1,1,,1
5eac357b37aec507ea7a127f,fhm4hr2u08,Nick_Dissertation_EX1,1,343,2020-07-08T15:16:05-07:00,5.9234919548035,4,versionC_stim.csv,READVersionD.csv,"Read Version D","Dissertation, read only version D",CLEAN,HYGIENE,Study1,B,17,83,Test,User,-,,Recall,Recall2,4848,SHIRT,33.333333333333,-1,-1,0,0,,1
5eac357b37aec507ea7a127f,fhm4hr2u08,Nick_Dissertation_EX1,1,344,2020-07-08T15:16:10-07:00,4.7817230224609,4,versionC_stim.csv,READVersionD.csv,"Read Version D","Dissertation, read only version D",COLD,BITTER,Study1,B,12,24,Test,User,-,,Recall,Recall2,4144,ICE,44.444444444444,-1,-1,0,0,,1
5eac357b37aec507ea7a127f,fhm4hr2u08,Nick_Dissertation_EX1,1,345,2020-07-08T15:16:17-07:00,6.8730850219727,4,versionC_stim.csv,READVersionD.csv,"Read Version D","Dissertation, read only version D",BRONZE,ARTERY,Study1,U,74,25,Test,User,-,,Recall,Recall2,6346,GOLD,0,-1,-1,0,0,,1
5eac357b37aec507ea7a127f,fhm4hr2u08,Nick_Dissertation_EX1,1,346,2020-07-08T15:16:22-07:00,5.3779158592224,4,versionC_stim.csv,READVersionD.csv,"Read Version D","Dissertation, read only version D",LION,ART,Study1,U,79,44,Test,User,-,,Recall,Recall2,4877,EAT,66.666666666667,-1,-1,0,0,,1
5eac357b37aec507ea7a127f,fhm4hr2u08,Nick_Dissertation_EX1,1,347,2020-07-08T15:16:28-07:00,6.0265500545502,4,versionC_stim.csv,READVersionD.csv,"Read Version D","Dissertation, read only version D",BAR,GRILL,Study1,S,52,72,Test,User,-,,Recall,Recall2,5477,HOLD,22.222222222222,-1,-1,0,0,,1
5eac357b37aec507ea7a127f,fhm4hr2u08,Nick_Dissertation_EX1,1,348,2020-07-08T15:16:35-07:00,6.8091530799866,4,versionC_stim.csv,READVersionD.csv,"Read Version D","Dissertation, read only version D",WOMAN,LIFT,Study1,U,69,66,Test,User,-,,Recall,Recall2,6268,MAN,0,-1,-1,0,0,,1
