Username,ID,ExperimentName,Session,Trial,Date,TimeDif,"Condition Number","Stimuli File","Order File","Condition Description","Condition Notes",Stimuli*Cue,Stimuli*Answer,Stimuli*Shuffle,"Stimuli*Stimuli Notes",Stimuli*Value,Procedure*Item,"Procedure*Trial Type","Procedure*Max Time","Procedure*Min Time",Procedure*Text,"Procedure*Procedure Notes",Procedure*Shuffle,Response*RT,Response*Response,Response*Accuracy,Response*RTfirst,Response*RTlast,Response*strictAcc,Response*lenientAcc,Response*focus,Response*Focus
5cd801d431d19f0019425e2e,g1qexg2mnv,Nick_Dissertation_EX1,1,1,2020-07-08T14:49:33-07:00,12.777516126633,4,versionC_stim.csv,READVersionD.csv,"Read Version D","Dissertation, read only version D",,,,,,0,Instruct,-,10,"Please study each of the following word pairs. Remember that your memory will be tested! When finished, press Enter to move to the next pair.",Initial_Instruct,Instruct1,12300,,,-1,-1,,,,1
5cd801d431d19f0019425e2e,g1qexg2mnv,Nick_Dissertation_EX1,1,2,2020-07-08T14:49:37-07:00,4.1294949054718,4,versionC_stim.csv,READVersionD.csv,"Read Version D","Dissertation, read only version D",ADVENTURE,CAMP,BUFFER3,Buffer,95,92,Study,User,-,,Study/JOL,BUFFER,3517,,,-1,-1,,,,1
5cd801d431d19f0019425e2e,g1qexg2mnv,Nick_Dissertation_EX1,1,3,2020-07-08T14:49:40-07:00,2.3598370552063,4,versionC_stim.csv,READVersionD.csv,"Read Version D","Dissertation, read only version D",STRING,NOODLE,BUFFER3,Buffer,92,93,Study,User,-,,Study/JOL,BUFFER,1894,,,-1,-1,,,,1
5cd801d431d19f0019425e2e,g1qexg2mnv,Nick_Dissertation_EX1,1,4,2020-07-08T14:49:42-07:00,2.0802419185638,4,versionC_stim.csv,READVersionD.csv,"Read Version D","Dissertation, read only version D",FROZEN,ICE,BUFFER3,Buffer,94,94,Study,User,-,,Study/JOL,BUFFER,1668,,,-1,-1,,,,1
5cd801d431d19f0019425e2e,g1qexg2mnv,Nick_Dissertation_EX1,1,5,2020-07-08T14:49:45-07:00,3.0450131893158,4,versionC_stim.csv,READVersionD.csv,"Read Version D","Dissertation, read only version D",POTATO,CARROT,BUFFER3,Buffer,91,96,Study,User,-,,Study/JOL,BUFFER,2524,,,-1,-1,,,,1
5cd801d431d19f0019425e2e,g1qexg2mnv,Nick_Dissertation_EX1,1,6,2020-07-08T14:49:51-07:00,6.462299823761,4,versionC_stim.csv,READVersionD.csv,"Read Version D","Dissertation, read only version D",FISH,SHRIMP,BUFFER3,Buffer,93,95,Study,User,-,,Study/JOL,BUFFER,5966,,,-1,-1,,,,1
5cd801d431d19f0019425e2e,g1qexg2mnv,Nick_Dissertation_EX1,1,7,2020-07-08T14:49:55-07:00,3.8065831661224,4,versionC_stim.csv,READVersionD.csv,"Read Version D","Dissertation, read only version D",THIMBLE,THREAD,Study2,F,121,156,Study,User,-,,Study/JOL,"Study Phase",3308,,,-1,-1,,,,1
5cd801d431d19f0019425e2e,g1qexg2mnv,Nick_Dissertation_EX1,1,8,2020-07-08T14:49:58-07:00,3.0233728885651,4,versionC_stim.csv,READVersionD.csv,"Read Version D","Dissertation, read only version D",ACTRESS,STAR,Study2,F,120,145,Study,User,-,,Study/JOL,"Study Phase",2494,,,-1,-1,,,,1
5cd801d431d19f0019425e2e,g1qexg2mnv,Nick_Dissertation_EX1,1,9,2020-07-08T14:50:01-07:00,3.1593630313873,4,versionC_stim.csv,READVersionD.csv,"Read Version D","Dissertation, read only version D",Morning,TEMPERATURE,Study2,U,173,146,Study,User,-,,Study/JOL,"Study Phase",2683,,,-1,-1,,,,1
5cd801d431d19f0019425e2e,g1qexg2mnv,Nick_Dissertation_EX1,1,10,2020-07-08T14:50:04-07:00,2.7535130977631,4,versionC_stim.csv,READVersionD.csv,"Read Version D","Dissertation, read only version D",EQUAL,RIGHTS,Study2,S,137,169,Study,User,-,,Study/JOL,"Study Phase",2270,,,-1,-1,,,,1
5cd801d431d19f0019425e2e,g1qexg2mnv,Nick_Dissertation_EX1,1,11,2020-07-08T14:50:06-07:00,2.3346970081329,4,versionC_stim.csv,READVersionD.csv,"Read Version D","Dissertation, read only version D",HAVE,OWN,Study2,S,153,117,Study,User,-,,Study/JOL,"Study Phase",1800,,,-1,-1,,,,1
5cd801d431d19f0019425e2e,g1qexg2mnv,Nick_Dissertation_EX1,1,12,2020-07-08T14:50:10-07:00,3.5896708965302,4,versionC_stim.csv,READVersionD.csv,"Read Version D","Dissertation, read only version D",DONKEY,MULE,Study2,B,108,173,Study,User,-,,Study/JOL,"Study Phase",1999,,,-1,-1,,,,1
5cd801d431d19f0019425e2e,g1qexg2mnv,Nick_Dissertation_EX1,1,13,2020-07-08T14:50:12-07:00,1.6713330745697,4,versionC_stim.csv,READVersionD.csv,"Read Version D","Dissertation, read only version D",COLD,CHILL,Study2,B,114,110,Study,User,-,,Study/JOL,"Study Phase",1305,,,-1,-1,,,,1
5cd801d431d19f0019425e2e,g1qexg2mnv,Nick_Dissertation_EX1,1,14,2020-07-08T14:50:18-07:00,5.9034378528595,4,versionC_stim.csv,READVersionD.csv,"Read Version D","Dissertation, read only version D",SIGN,LOAN,Study2,U,171,111,Study,User,-,,Study/JOL,"Study Phase",5436,,,-1,-1,,,,1
5cd801d431d19f0019425e2e,g1qexg2mnv,Nick_Dissertation_EX1,1,15,2020-07-08T14:50:20-07:00,2.0252780914307,4,versionC_stim.csv,READVersionD.csv,"Read Version D","Dissertation, read only version D",COMMUNICATION,PHONE,Study2,S,149,154,Study,User,-,,Study/JOL,"Study Phase",1635,,,-1,-1,,,,1
5cd801d431d19f0019425e2e,g1qexg2mnv,Nick_Dissertation_EX1,1,16,2020-07-08T14:50:22-07:00,1.9845249652863,4,versionC_stim.csv,READVersionD.csv,"Read Version D","Dissertation, read only version D",CUT,CHOP,Study2,B,107,153,Study,User,-,,Study/JOL,"Study Phase",1577,,,-1,-1,,,,1
5cd801d431d19f0019425e2e,g1qexg2mnv,Nick_Dissertation_EX1,1,17,2020-07-08T14:50:24-07:00,2.3235421180725,4,versionC_stim.csv,READVersionD.csv,"Read Version D","Dissertation, read only version D",BRACELET,WRIST,Study2,S,140,118,Study,User,-,,Study/JOL,"Study Phase",1756,,,-1,-1,,,,1
5cd801d431d19f0019425e2e,g1qexg2mnv,Nick_Dissertation_EX1,1,18,2020-07-08T14:50:26-07:00,2.0824999809265,4,versionC_stim.csv,READVersionD.csv,"Read Version D","Dissertation, read only version D",NAP,SLEEP,Study2,F,134,171,Study,User,-,,Study/JOL,"Study Phase",1687,,,-1,-1,,,,1
5cd801d431d19f0019425e2e,g1qexg2mnv,Nick_Dissertation_EX1,1,19,2020-07-08T14:50:28-07:00,1.8026208877563,4,versionC_stim.csv,READVersionD.csv,"Read Version D","Dissertation, read only version D",TRUTHFUL,HONEST,Study2,F,133,104,Study,User,-,,Study/JOL,"Study Phase",1387,,,-1,-1,,,,1
5cd801d431d19f0019425e2e,g1qexg2mnv,Nick_Dissertation_EX1,1,20,2020-07-08T14:50:30-07:00,2.3194370269775,4,versionC_stim.csv,READVersionD.csv,"Read Version D","Dissertation, read only version D",SHAKE,Shell,Study2,U,163,151,Study,User,-,,Study/JOL,"Study Phase",1838,,,-1,-1,,,,1
5cd801d431d19f0019425e2e,g1qexg2mnv,Nick_Dissertation_EX1,1,21,2020-07-08T14:50:33-07:00,2.7956619262695,4,versionC_stim.csv,READVersionD.csv,"Read Version D","Dissertation, read only version D",RED,CHERRY,Study2,B,104,143,Study,User,-,,Study/JOL,"Study Phase",2312,,,-1,-1,,,,1
5cd801d431d19f0019425e2e,g1qexg2mnv,Nick_Dissertation_EX1,1,22,2020-07-08T14:50:35-07:00,2.3754181861877,4,versionC_stim.csv,READVersionD.csv,"Read Version D","Dissertation, read only version D",BANG,FUZZY,Study2,U,168,131,Study,User,-,,Study/JOL,"Study Phase",1885,,,-1,-1,,,,1
5cd801d431d19f0019425e2e,g1qexg2mnv,Nick_Dissertation_EX1,1,23,2020-07-08T14:50:37-07:00,2.0682919025421,4,versionC_stim.csv,READVersionD.csv,"Read Version D","Dissertation, read only version D",BREAKABLE,GLASS,Study2,F,127,148,Study,User,-,,Study/JOL,"Study Phase",1686,,,-1,-1,,,,1
5cd801d431d19f0019425e2e,g1qexg2mnv,Nick_Dissertation_EX1,1,24,2020-07-08T14:50:39-07:00,1.8427720069885,4,versionC_stim.csv,READVersionD.csv,"Read Version D","Dissertation, read only version D",PLANT,CACTUS,Study2,B,98,98,Study,User,-,,Study/JOL,"Study Phase",1460,,,-1,-1,,,,1
5cd801d431d19f0019425e2e,g1qexg2mnv,Nick_Dissertation_EX1,1,25,2020-07-08T14:50:42-07:00,2.8747210502625,4,versionC_stim.csv,READVersionD.csv,"Read Version D","Dissertation, read only version D",CHARM,VEHICLE,Study2,U,160,103,Study,User,-,,Study/JOL,"Study Phase",2407,,,-1,-1,,,,1
5cd801d431d19f0019425e2e,g1qexg2mnv,Nick_Dissertation_EX1,1,26,2020-07-08T14:50:44-07:00,1.9056339263916,4,versionC_stim.csv,READVersionD.csv,"Read Version D","Dissertation, read only version D",TEMPER,TANTRUM,Study2,S,154,122,Study,User,-,,Study/JOL,"Study Phase",1502,,,-1,-1,,,,1
5cd801d431d19f0019425e2e,g1qexg2mnv,Nick_Dissertation_EX1,1,27,2020-07-08T14:50:46-07:00,2.0638959407806,4,versionC_stim.csv,READVersionD.csv,"Read Version D","Dissertation, read only version D",FLIP,TURN,Study2,F,116,102,Study,User,-,,Study/JOL,"Study Phase",1671,,,-1,-1,,,,1
5cd801d431d19f0019425e2e,g1qexg2mnv,Nick_Dissertation_EX1,1,28,2020-07-08T14:50:49-07:00,2.7297439575195,4,versionC_stim.csv,READVersionD.csv,"Read Version D","Dissertation, read only version D",SARDINE,FISH,Study2,F,130,161,Study,User,-,,Study/JOL,"Study Phase",1960,,,-1,-1,,,,1
5cd801d431d19f0019425e2e,g1qexg2mnv,Nick_Dissertation_EX1,1,29,2020-07-08T14:50:50-07:00,1.6578681468964,4,versionC_stim.csv,READVersionD.csv,"Read Version D","Dissertation, read only version D",SHAVE,RAZOR,Study2,S,136,136,Study,User,-,,Study/JOL,"Study Phase",1263,,,-1,-1,,,,1
5cd801d431d19f0019425e2e,g1qexg2mnv,Nick_Dissertation_EX1,1,30,2020-07-08T14:50:53-07:00,2.5875580310822,4,versionC_stim.csv,READVersionD.csv,"Read Version D","Dissertation, read only version D",LONELY,ALONE,Study2,S,145,132,Study,User,-,,Study/JOL,"Study Phase",2083,,,-1,-1,,,,1
5cd801d431d19f0019425e2e,g1qexg2mnv,Nick_Dissertation_EX1,1,31,2020-07-08T14:50:55-07:00,1.9872210025787,4,versionC_stim.csv,READVersionD.csv,"Read Version D","Dissertation, read only version D",BRAWL,FIGHT,Study2,F,135,128,Study,User,-,,Study/JOL,"Study Phase",1589,,,-1,-1,,,,1
5cd801d431d19f0019425e2e,g1qexg2mnv,Nick_Dissertation_EX1,1,32,2020-07-08T14:50:57-07:00,2.3300409317017,4,versionC_stim.csv,READVersionD.csv,"Read Version D","Dissertation, read only version D",LEAGUE,BASEBALL,Study2,F,131,97,Study,User,-,,Study/JOL,"Study Phase",1821,,,-1,-1,,,,1
5cd801d431d19f0019425e2e,g1qexg2mnv,Nick_Dissertation_EX1,1,33,2020-07-08T14:51:00-07:00,2.3295300006866,4,versionC_stim.csv,READVersionD.csv,"Read Version D","Dissertation, read only version D",OBTAIN,MEAT,Study2,U,161,106,Study,User,-,,Study/JOL,"Study Phase",1836,,,-1,-1,,,,1
5cd801d431d19f0019425e2e,g1qexg2mnv,Nick_Dissertation_EX1,1,34,2020-07-08T14:51:01-07:00,1.5407919883728,4,versionC_stim.csv,READVersionD.csv,"Read Version D","Dissertation, read only version D",VILLAIN,BAD,Study2,F,118,166,Study,User,-,,Study/JOL,"Study Phase",1158,,,-1,-1,,,,1
5cd801d431d19f0019425e2e,g1qexg2mnv,Nick_Dissertation_EX1,1,35,2020-07-08T14:51:03-07:00,1.7693951129913,4,versionC_stim.csv,READVersionD.csv,"Read Version D","Dissertation, read only version D",GAME,CLUE,Study2,B,97,133,Study,User,-,,Study/JOL,"Study Phase",1345,,,-1,-1,,,,1
5cd801d431d19f0019425e2e,g1qexg2mnv,Nick_Dissertation_EX1,1,36,2020-07-08T14:51:04-07:00,1.4757478237152,4,versionC_stim.csv,READVersionD.csv,"Read Version D","Dissertation, read only version D",FICTION,LISTEN,Study2,U,164,127,Study,User,-,,Study/JOL,"Study Phase",1057,,,-1,-1,,,,1
5cd801d431d19f0019425e2e,g1qexg2mnv,Nick_Dissertation_EX1,1,37,2020-07-08T14:51:07-07:00,2.5926930904388,4,versionC_stim.csv,READVersionD.csv,"Read Version D","Dissertation, read only version D",TOIL,LEASE,Study2,U,170,138,Study,User,-,,Study/JOL,"Study Phase",2077,,,-1,-1,,,,1
5cd801d431d19f0019425e2e,g1qexg2mnv,Nick_Dissertation_EX1,1,38,2020-07-08T14:51:10-07:00,2.527242898941,4,versionC_stim.csv,READVersionD.csv,"Read Version D","Dissertation, read only version D",HATE,NAME,Study2,U,167,176,Study,User,-,,Study/JOL,"Study Phase",2037,,,-1,-1,,,,1
5cd801d431d19f0019425e2e,g1qexg2mnv,Nick_Dissertation_EX1,1,39,2020-07-08T14:51:11-07:00,1.7824749946594,4,versionC_stim.csv,READVersionD.csv,"Read Version D","Dissertation, read only version D",JAR,MASON,Study2,S,138,129,Study,User,-,,Study/JOL,"Study Phase",1376,,,-1,-1,,,,1
5cd801d431d19f0019425e2e,g1qexg2mnv,Nick_Dissertation_EX1,1,40,2020-07-08T14:51:14-07:00,2.7744200229645,4,versionC_stim.csv,READVersionD.csv,"Read Version D","Dissertation, read only version D",WINDSHIELD,CAR,Study2,F,117,168,Study,User,-,,Study/JOL,"Study Phase",2300,,,-1,-1,,,,1
5cd801d431d19f0019425e2e,g1qexg2mnv,Nick_Dissertation_EX1,1,41,2020-07-08T14:51:17-07:00,2.6445150375366,4,versionC_stim.csv,READVersionD.csv,"Read Version D","Dissertation, read only version D",DRINK,WATER,Study2,S,143,149,Study,User,-,,Study/JOL,"Study Phase",1808,,,-1,-1,,,,1
5cd801d431d19f0019425e2e,g1qexg2mnv,Nick_Dissertation_EX1,1,42,2020-07-08T14:51:18-07:00,1.4710559844971,4,versionC_stim.csv,READVersionD.csv,"Read Version D","Dissertation, read only version D",TIE,SHOELACE,Study2,B,99,123,Study,User,-,,Study/JOL,"Study Phase",1086,,,-1,-1,,,,1
5cd801d431d19f0019425e2e,g1qexg2mnv,Nick_Dissertation_EX1,1,43,2020-07-08T14:51:20-07:00,1.8817250728607,4,versionC_stim.csv,READVersionD.csv,"Read Version D","Dissertation, read only version D",FAVORITE,BEST,Study2,F,125,147,Study,User,-,,Study/JOL,"Study Phase",1493,,,-1,-1,,,,1
5cd801d431d19f0019425e2e,g1qexg2mnv,Nick_Dissertation_EX1,1,44,2020-07-08T14:51:23-07:00,2.6690299510956,4,versionC_stim.csv,READVersionD.csv,"Read Version D","Dissertation, read only version D",JOKE,KEYS,Study2,U,165,105,Study,User,-,,Study/JOL,"Study Phase",2181,,,-1,-1,,,,1
5cd801d431d19f0019425e2e,g1qexg2mnv,Nick_Dissertation_EX1,1,45,2020-07-08T14:51:25-07:00,2.5707359313965,4,versionC_stim.csv,READVersionD.csv,"Read Version D","Dissertation, read only version D",SMELL,INCENSE,Study2,B,110,101,Study,User,-,,Study/JOL,"Study Phase",2099,,,-1,-1,,,,1
5cd801d431d19f0019425e2e,g1qexg2mnv,Nick_Dissertation_EX1,1,46,2020-07-08T14:51:27-07:00,1.7456340789795,4,versionC_stim.csv,READVersionD.csv,"Read Version D","Dissertation, read only version D",TAN,SUN,Study2,S,155,109,Study,User,-,,Study/JOL,"Study Phase",1303,,,-1,-1,,,,1
5cd801d431d19f0019425e2e,g1qexg2mnv,Nick_Dissertation_EX1,1,47,2020-07-08T14:51:29-07:00,2.1431698799133,4,versionC_stim.csv,READVersionD.csv,"Read Version D","Dissertation, read only version D",OUNCE,BOTH,Study2,U,172,125,Study,User,-,,Study/JOL,"Study Phase",1756,,,-1,-1,,,,1
5cd801d431d19f0019425e2e,g1qexg2mnv,Nick_Dissertation_EX1,1,48,2020-07-08T14:51:31-07:00,1.8302562236786,4,versionC_stim.csv,READVersionD.csv,"Read Version D","Dissertation, read only version D",TICK,FLEA,Study2,S,151,163,Study,User,-,,Study/JOL,"Study Phase",1436,,,-1,-1,,,,1
5cd801d431d19f0019425e2e,g1qexg2mnv,Nick_Dissertation_EX1,1,49,2020-07-08T14:51:33-07:00,1.9678909778595,4,versionC_stim.csv,READVersionD.csv,"Read Version D","Dissertation, read only version D",CARBON,ELEMENT,Study2,S,141,140,Study,User,-,,Study/JOL,"Study Phase",1569,,,-1,-1,,,,1
5cd801d431d19f0019425e2e,g1qexg2mnv,Nick_Dissertation_EX1,1,50,2020-07-08T14:51:36-07:00,3.3329148292542,4,versionC_stim.csv,READVersionD.csv,"Read Version D","Dissertation, read only version D",SEATBELT,SAFETY,Study2,S,147,116,Study,User,-,,Study/JOL,"Study Phase",1777,,,-1,-1,,,,1
5cd801d431d19f0019425e2e,g1qexg2mnv,Nick_Dissertation_EX1,1,51,2020-07-08T14:51:39-07:00,2.9974081516266,4,versionC_stim.csv,READVersionD.csv,"Read Version D","Dissertation, read only version D",HEAD,SCALP,Study2,B,105,112,Study,User,-,,Study/JOL,"Study Phase",2531,,,-1,-1,,,,1
5cd801d431d19f0019425e2e,g1qexg2mnv,Nick_Dissertation_EX1,1,52,2020-07-08T14:51:42-07:00,3.0752530097961,4,versionC_stim.csv,READVersionD.csv,"Read Version D","Dissertation, read only version D",CAR,DRIVER,Study2,B,106,119,Study,User,-,,Study/JOL,"Study Phase",2567,,,-1,-1,,,,1
5cd801d431d19f0019425e2e,g1qexg2mnv,Nick_Dissertation_EX1,1,53,2020-07-08T14:51:46-07:00,3.1872589588165,4,versionC_stim.csv,READVersionD.csv,"Read Version D","Dissertation, read only version D",SCAR,MAIN,Study2,U,175,165,Study,User,-,,Study/JOL,"Study Phase",2718,,,-1,-1,,,,1
5cd801d431d19f0019425e2e,g1qexg2mnv,Nick_Dissertation_EX1,1,54,2020-07-08T14:51:48-07:00,2.347275018692,4,versionC_stim.csv,READVersionD.csv,"Read Version D","Dissertation, read only version D",GROUND,EARTH,Study2,S,144,139,Study,User,-,,Study/JOL,"Study Phase",1868,,,-1,-1,,,,1
5cd801d431d19f0019425e2e,g1qexg2mnv,Nick_Dissertation_EX1,1,55,2020-07-08T14:52:01-07:00,13.240185022354,4,versionC_stim.csv,READVersionD.csv,"Read Version D","Dissertation, read only version D",CLEAR,MOAT,Study2,U,169,135,Study,User,-,,Study/JOL,"Study Phase",12773,,,-1,-1,,,,1
5cd801d431d19f0019425e2e,g1qexg2mnv,Nick_Dissertation_EX1,1,56,2020-07-08T14:52:03-07:00,1.86931681633,4,versionC_stim.csv,READVersionD.csv,"Read Version D","Dissertation, read only version D",STRAWBERRY,FRUIT,Study2,F,124,157,Study,User,-,,Study/JOL,"Study Phase",1352,,,-1,-1,,,,1
5cd801d431d19f0019425e2e,g1qexg2mnv,Nick_Dissertation_EX1,1,57,2020-07-08T14:52:05-07:00,1.9200930595398,4,versionC_stim.csv,READVersionD.csv,"Read Version D","Dissertation, read only version D",DOG,FURRY,Study2,B,102,158,Study,User,-,,Study/JOL,"Study Phase",1530,,,-1,-1,,,,1
5cd801d431d19f0019425e2e,g1qexg2mnv,Nick_Dissertation_EX1,1,58,2020-07-08T14:52:08-07:00,2.7619271278381,4,versionC_stim.csv,READVersionD.csv,"Read Version D","Dissertation, read only version D",EAT,DINE,Study2,B,111,141,Study,User,-,,Study/JOL,"Study Phase",2253,,,-1,-1,,,,1
5cd801d431d19f0019425e2e,g1qexg2mnv,Nick_Dissertation_EX1,1,59,2020-07-08T14:52:10-07:00,2.6797280311584,4,versionC_stim.csv,READVersionD.csv,"Read Version D","Dissertation, read only version D",COFFIN,DEAD,Study2,F,128,99,Study,User,-,,Study/JOL,"Study Phase",2195,,,-1,-1,,,,1
5cd801d431d19f0019425e2e,g1qexg2mnv,Nick_Dissertation_EX1,1,60,2020-07-08T14:52:13-07:00,2.4028167724609,4,versionC_stim.csv,READVersionD.csv,"Read Version D","Dissertation, read only version D",REVENGE,EVEN,Study2,F,122,124,Study,User,-,,Study/JOL,"Study Phase",1830,,,-1,-1,,,,1
5cd801d431d19f0019425e2e,g1qexg2mnv,Nick_Dissertation_EX1,1,61,2020-07-08T14:52:15-07:00,2.1376821994781,4,versionC_stim.csv,READVersionD.csv,"Read Version D","Dissertation, read only version D",STEAK,GIVE,Study2,U,158,100,Study,User,-,,Study/JOL,"Study Phase",1754,,,-1,-1,,,,1
5cd801d431d19f0019425e2e,g1qexg2mnv,Nick_Dissertation_EX1,1,62,2020-07-08T14:52:18-07:00,2.6600608825684,4,versionC_stim.csv,READVersionD.csv,"Read Version D","Dissertation, read only version D",WAX,CANDLE,Study2,S,139,160,Study,User,-,,Study/JOL,"Study Phase",2183,,,-1,-1,,,,1
5cd801d431d19f0019425e2e,g1qexg2mnv,Nick_Dissertation_EX1,1,63,2020-07-08T14:52:20-07:00,2.1182041168213,4,versionC_stim.csv,READVersionD.csv,"Read Version D","Dissertation, read only version D",FIGHT,FEUD,Study2,B,113,107,Study,User,-,,Study/JOL,"Study Phase",1716,,,-1,-1,,,,1
5cd801d431d19f0019425e2e,g1qexg2mnv,Nick_Dissertation_EX1,1,64,2020-07-08T14:52:22-07:00,2.0061678886414,4,versionC_stim.csv,READVersionD.csv,"Read Version D","Dissertation, read only version D",LONG,EXTENSION,Study2,B,96,164,Study,User,-,,Study/JOL,"Study Phase",1595,,,-1,-1,,,,1
5cd801d431d19f0019425e2e,g1qexg2mnv,Nick_Dissertation_EX1,1,65,2020-07-08T14:52:25-07:00,2.7506971359253,4,versionC_stim.csv,READVersionD.csv,"Read Version D","Dissertation, read only version D",ABLE,CRACKLE,Study2,U,162,170,Study,User,-,,Study/JOL,"Study Phase",2287,,,-1,-1,,,,1
5cd801d431d19f0019425e2e,g1qexg2mnv,Nick_Dissertation_EX1,1,66,2020-07-08T14:52:26-07:00,1.9387419223785,4,versionC_stim.csv,READVersionD.csv,"Read Version D","Dissertation, read only version D",LIE,TRUTH,Study2,S,148,115,Study,User,-,,Study/JOL,"Study Phase",1518,,,-1,-1,,,,1
5cd801d431d19f0019425e2e,g1qexg2mnv,Nick_Dissertation_EX1,1,67,2020-07-08T14:52:29-07:00,2.3711159229279,4,versionC_stim.csv,READVersionD.csv,"Read Version D","Dissertation, read only version D",SCISSORS,SHEARS,Study2,B,112,155,Study,User,-,,Study/JOL,"Study Phase",1868,,,-1,-1,,,,1
5cd801d431d19f0019425e2e,g1qexg2mnv,Nick_Dissertation_EX1,1,68,2020-07-08T14:52:32-07:00,2.8846499919891,4,versionC_stim.csv,READVersionD.csv,"Read Version D","Dissertation, read only version D",CLOTHES,CAKE,Study2,U,166,121,Study,User,-,,Study/JOL,"Study Phase",2408,,,-1,-1,,,,1
5cd801d431d19f0019425e2e,g1qexg2mnv,Nick_Dissertation_EX1,1,69,2020-07-08T14:52:35-07:00,2.9544401168823,4,versionC_stim.csv,READVersionD.csv,"Read Version D","Dissertation, read only version D",CLOTH,STRETCH,Study2,U,157,126,Study,User,-,,Study/JOL,"Study Phase",2483,,,-1,-1,,,,1
5cd801d431d19f0019425e2e,g1qexg2mnv,Nick_Dissertation_EX1,1,70,2020-07-08T14:52:37-07:00,2.0720570087433,4,versionC_stim.csv,READVersionD.csv,"Read Version D","Dissertation, read only version D",PENGUIN,BIRD,Study2,F,119,113,Study,User,-,,Study/JOL,"Study Phase",1668,,,-1,-1,,,,1
5cd801d431d19f0019425e2e,g1qexg2mnv,Nick_Dissertation_EX1,1,71,2020-07-08T14:52:41-07:00,3.9762258529663,4,versionC_stim.csv,READVersionD.csv,"Read Version D","Dissertation, read only version D",MAROON,JUSTICE,Study2,U,156,162,Study,User,-,,Study/JOL,"Study Phase",3496,,,-1,-1,,,,1
5cd801d431d19f0019425e2e,g1qexg2mnv,Nick_Dissertation_EX1,1,72,2020-07-08T14:52:44-07:00,2.8734030723572,4,versionC_stim.csv,READVersionD.csv,"Read Version D","Dissertation, read only version D",CHILDREN,MIRROR,Study2,U,174,152,Study,User,-,,Study/JOL,"Study Phase",2357,,,-1,-1,,,,1
5cd801d431d19f0019425e2e,g1qexg2mnv,Nick_Dissertation_EX1,1,73,2020-07-08T14:52:47-07:00,3.672856092453,4,versionC_stim.csv,READVersionD.csv,"Read Version D","Dissertation, read only version D",REEL,ROD,Study2,S,150,137,Study,User,-,,Study/JOL,"Study Phase",3173,,,-1,-1,,,,1
5cd801d431d19f0019425e2e,g1qexg2mnv,Nick_Dissertation_EX1,1,74,2020-07-08T14:52:50-07:00,2.8018209934235,4,versionC_stim.csv,READVersionD.csv,"Read Version D","Dissertation, read only version D",BALLOON,POP,Study2,F,123,120,Study,User,-,,Study/JOL,"Study Phase",2321,,,-1,-1,,,,1
5cd801d431d19f0019425e2e,g1qexg2mnv,Nick_Dissertation_EX1,1,75,2020-07-08T14:52:52-07:00,2.1349768638611,4,versionC_stim.csv,READVersionD.csv,"Read Version D","Dissertation, read only version D",NOISE,LOUD,Study2,S,152,134,Study,User,-,,Study/JOL,"Study Phase",1737,,,-1,-1,,,,1
5cd801d431d19f0019425e2e,g1qexg2mnv,Nick_Dissertation_EX1,1,76,2020-07-08T14:53:18-07:00,25.616425037384,4,versionC_stim.csv,READVersionD.csv,"Read Version D","Dissertation, read only version D",END,ADJOURN,Study2,B,101,108,Study,User,-,,Study/JOL,"Study Phase",25108,,,-1,-1,,,,0.095
5cd801d431d19f0019425e2e,g1qexg2mnv,Nick_Dissertation_EX1,1,77,2020-07-08T14:53:29-07:00,11.234735965729,4,versionC_stim.csv,READVersionD.csv,"Read Version D","Dissertation, read only version D",WET,DRY,Study2,S,146,159,Study,User,-,,Study/JOL,"Study Phase",10634,,,-1,-1,,,,0.185
5cd801d431d19f0019425e2e,g1qexg2mnv,Nick_Dissertation_EX1,1,78,2020-07-08T14:53:31-07:00,1.864953994751,4,versionC_stim.csv,READVersionD.csv,"Read Version D","Dissertation, read only version D",BANKER,MONEY,Study2,F,132,174,Study,User,-,,Study/JOL,"Study Phase",1254,,,-1,-1,,,,1
5cd801d431d19f0019425e2e,g1qexg2mnv,Nick_Dissertation_EX1,1,79,2020-07-08T14:53:33-07:00,2.0921499729156,4,versionC_stim.csv,READVersionD.csv,"Read Version D","Dissertation, read only version D",PANTHER,CAT,Study2,F,126,142,Study,User,-,,Study/JOL,"Study Phase",1697,,,-1,-1,,,,1
5cd801d431d19f0019425e2e,g1qexg2mnv,Nick_Dissertation_EX1,1,80,2020-07-08T14:53:35-07:00,2.3589391708374,4,versionC_stim.csv,READVersionD.csv,"Read Version D","Dissertation, read only version D",AIRCRAFT,PLANE,Study2,F,129,167,Study,User,-,,Study/JOL,"Study Phase",1692,,,-1,-1,,,,1
5cd801d431d19f0019425e2e,g1qexg2mnv,Nick_Dissertation_EX1,1,81,2020-07-08T14:54:08-07:00,32.317650794983,4,versionC_stim.csv,READVersionD.csv,"Read Version D","Dissertation, read only version D",TRASH,LITTER,Study2,B,103,144,Study,User,-,,Study/JOL,"Study Phase",31830,,,-1,-1,,,,1
5cd801d431d19f0019425e2e,g1qexg2mnv,Nick_Dissertation_EX1,1,82,2020-07-08T14:54:09-07:00,1.7655901908875,4,versionC_stim.csv,READVersionD.csv,"Read Version D","Dissertation, read only version D",AWAY,GONE,Study2,S,142,175,Study,User,-,,Study/JOL,"Study Phase",1192,,,-1,-1,,,,1
5cd801d431d19f0019425e2e,g1qexg2mnv,Nick_Dissertation_EX1,1,83,2020-07-08T14:54:14-07:00,4.3086609840393,4,versionC_stim.csv,READVersionD.csv,"Read Version D","Dissertation, read only version D",ELECTION,MAZE,Study2,U,159,150,Study,User,-,,Study/JOL,"Study Phase",3834,,,-1,-1,,,,1
5cd801d431d19f0019425e2e,g1qexg2mnv,Nick_Dissertation_EX1,1,84,2020-07-08T14:54:16-07:00,1.8164329528809,4,versionC_stim.csv,READVersionD.csv,"Read Version D","Dissertation, read only version D",MYSTERY,DETECTIVE,Study2,B,100,114,Study,User,-,,Study/JOL,"Study Phase",1393,,,-1,-1,,,,1
5cd801d431d19f0019425e2e,g1qexg2mnv,Nick_Dissertation_EX1,1,85,2020-07-08T14:54:18-07:00,1.9791939258575,4,versionC_stim.csv,READVersionD.csv,"Read Version D","Dissertation, read only version D",LOVE,AFFECTION,Study2,B,115,130,Study,User,-,,Study/JOL,"Study Phase",1600,,,-1,-1,,,,1
5cd801d431d19f0019425e2e,g1qexg2mnv,Nick_Dissertation_EX1,1,86,2020-07-08T14:54:19-07:00,1.8339660167694,4,versionC_stim.csv,READVersionD.csv,"Read Version D","Dissertation, read only version D",PAPER,DOCUMENT,Study2,B,109,172,Study,User,-,,Study/JOL,"Study Phase",1417,,,-1,-1,,,,1
5cd801d431d19f0019425e2e,g1qexg2mnv,Nick_Dissertation_EX1,1,87,2020-07-08T14:54:21-07:00,1.7875590324402,4,versionC_stim.csv,READVersionD.csv,"Read Version D","Dissertation, read only version D",SPOOKY,OCTOBER,BUFFER4,Buffer,180,181,Study,User,-,,Study/JOL,BUFFER2,1310,,,-1,-1,,,,1
5cd801d431d19f0019425e2e,g1qexg2mnv,Nick_Dissertation_EX1,1,88,2020-07-08T14:54:23-07:00,1.7166659832001,4,versionC_stim.csv,READVersionD.csv,"Read Version D","Dissertation, read only version D",MARCH,SPRING,BUFFER4,Buffer,179,180,Study,User,-,,Study/JOL,BUFFER2,1281,,,-1,-1,,,,1
5cd801d431d19f0019425e2e,g1qexg2mnv,Nick_Dissertation_EX1,1,89,2020-07-08T14:54:34-07:00,11.236428022385,4,versionC_stim.csv,READVersionD.csv,"Read Version D","Dissertation, read only version D",YEAR,MONTH,BUFFER4,Buffer,177,179,Study,User,-,,Study/JOL,BUFFER2,10670,,,-1,-1,,,,1
5cd801d431d19f0019425e2e,g1qexg2mnv,Nick_Dissertation_EX1,1,90,2020-07-08T14:54:36-07:00,2.1393270492554,4,versionC_stim.csv,READVersionD.csv,"Read Version D","Dissertation, read only version D",WEAKS,DAYS,BUFFER4,Buffer,176,178,Study,User,-,,Study/JOL,BUFFER2,1554,,,-1,-1,,,,1
5cd801d431d19f0019425e2e,g1qexg2mnv,Nick_Dissertation_EX1,1,91,2020-07-08T14:54:38-07:00,1.5074939727783,4,versionC_stim.csv,READVersionD.csv,"Read Version D","Dissertation, read only version D",SHED,TOOL,BUFFER4,Buffer,178,177,Study,User,-,,Study/JOL,BUFFER2,1074,,,-1,-1,,,,1
5cd801d431d19f0019425e2e,g1qexg2mnv,Nick_Dissertation_EX1,1,92,2020-07-08T14:54:40-07:00,2.428004026413,4,versionC_stim.csv,READVersionD.csv,"Read Version D","Dissertation, read only version D",,,,,,0,Instruct,User,-,"You have completed this section. Please press Enter.",Filler_Instruction,Instruct2,1885,,,-1,-1,,,,1
5cd801d431d19f0019425e2e,g1qexg2mnv,Nick_Dissertation_EX1,1,93,2020-07-08T14:56:41-07:00,120.55656385422,4,versionC_stim.csv,READVersionD.csv,"Read Version D","Dissertation, read only version D",,,,,,0,FreeRecall,120,120,"Please list the 50 US states in alphabetical order. The task will automatically advance to the next screen after two minutes.",,Filler1,120001,"Not being from the US I have absolutely no idea how I would even begin to accomplish this one, can you list all the UK counties in alphabetical order? I know this is probably just to try and get my brain to dump state and not have any of the word pairs in my short term memory, but a more international example would be good next time :D. I can tell you the last one is probably wyoming and the first one is probably Alaska, but I always get mixed up with the island protectorates. ",0,5407,104262,0,0,,1
5cd801d431d19f0019425e2e,g1qexg2mnv,Nick_Dissertation_EX1,1,94,2020-07-08T14:56:53-07:00,12.658262014389,4,versionC_stim.csv,READVersionD.csv,"Read Version D","Dissertation, read only version D",,,,,,0,Instruct,-,10,"You will now be presented with the first word from each of the previously studied item pairs. Please type the missing word. If you do not know the word, you may guess or press Enter to skip forward to the next pair.",,Instruct3,12071,,,-1,-1,,,,1
5cd801d431d19f0019425e2e,g1qexg2mnv,Nick_Dissertation_EX1,1,95,2020-07-08T14:57:00-07:00,6.2678442001343,4,versionC_stim.csv,READVersionD.csv,"Read Version D","Dissertation, read only version D",ABLE,CRACKLE,Study2,U,162,170,Test,User,-,,Recall,Recall1,5620,Baker,50,3542,4222,0,0,,1
5cd801d431d19f0019425e2e,g1qexg2mnv,Nick_Dissertation_EX1,1,96,2020-07-08T14:57:04-07:00,4.7838788032532,4,versionC_stim.csv,READVersionD.csv,"Read Version D","Dissertation, read only version D",CAR,DRIVER,Study2,B,106,119,Test,User,-,,Recall,Recall1,4298,Driver,100,2480,3336,1,1,,1
5cd801d431d19f0019425e2e,g1qexg2mnv,Nick_Dissertation_EX1,1,97,2020-07-08T14:57:12-07:00,7.1762020587921,4,versionC_stim.csv,READVersionD.csv,"Read Version D","Dissertation, read only version D",STRAWBERRY,FRUIT,Study2,F,124,157,Test,User,-,,Recall,Recall1,6645,Cream,20,4635,5282,0,0,,1
5cd801d431d19f0019425e2e,g1qexg2mnv,Nick_Dissertation_EX1,1,98,2020-07-08T14:57:17-07:00,5.3146810531616,4,versionC_stim.csv,READVersionD.csv,"Read Version D","Dissertation, read only version D",SMELL,INCENSE,Study2,B,110,101,Test,User,-,,Recall,Recall1,4751,Incense,100,2793,3833,1,1,,1
5cd801d431d19f0019425e2e,g1qexg2mnv,Nick_Dissertation_EX1,1,99,2020-07-08T14:57:22-07:00,4.78542304039,4,versionC_stim.csv,READVersionD.csv,"Read Version D","Dissertation, read only version D",LONELY,ALONE,Study2,S,145,132,Test,User,-,,Recall,Recall1,4285,,0,-1,-1,0,0,,1
5cd801d431d19f0019425e2e,g1qexg2mnv,Nick_Dissertation_EX1,1,100,2020-07-08T14:57:27-07:00,5.3590748310089,4,versionC_stim.csv,READVersionD.csv,"Read Version D","Dissertation, read only version D",OBTAIN,MEAT,Study2,U,161,106,Test,User,-,,Recall,Recall1,3865,Hold,0,2319,2847,0,0,,1
5cd801d431d19f0019425e2e,g1qexg2mnv,Nick_Dissertation_EX1,1,101,2020-07-08T14:57:32-07:00,4.4224681854248,4,versionC_stim.csv,READVersionD.csv,"Read Version D","Dissertation, read only version D",HATE,NAME,Study2,U,167,176,Test,User,-,,Recall,Recall1,3852,Love,25,2481,2921,0,0,,1
5cd801d431d19f0019425e2e,g1qexg2mnv,Nick_Dissertation_EX1,1,102,2020-07-08T14:57:38-07:00,6.1977429389954,4,versionC_stim.csv,READVersionD.csv,"Read Version D","Dissertation, read only version D",Morning,TEMPERATURE,Study2,U,173,146,Test,User,-,,Recall,Recall1,5663,Temperature,100,3157,4700,1,1,,1
5cd801d431d19f0019425e2e,g1qexg2mnv,Nick_Dissertation_EX1,1,103,2020-07-08T14:57:43-07:00,5.6180028915405,4,versionC_stim.csv,READVersionD.csv,"Read Version D","Dissertation, read only version D",HAVE,OWN,Study2,S,153,117,Test,User,-,,Recall,Recall1,5126,Obtain,44.444444444444,3157,3949,0,0,,1
5cd801d431d19f0019425e2e,g1qexg2mnv,Nick_Dissertation_EX1,1,104,2020-07-08T14:57:48-07:00,4.9261519908905,4,versionC_stim.csv,READVersionD.csv,"Read Version D","Dissertation, read only version D",MYSTERY,DETECTIVE,Study2,B,100,114,Test,User,-,,Recall,Recall1,4338,Machine,37.5,2615,3431,0,0,,1
5cd801d431d19f0019425e2e,g1qexg2mnv,Nick_Dissertation_EX1,1,105,2020-07-08T14:57:53-07:00,4.5884420871735,4,versionC_stim.csv,READVersionD.csv,"Read Version D","Dissertation, read only version D",LEAGUE,BASEBALL,Study2,F,131,97,Test,User,-,,Recall,Recall1,4122,Baseball,100,1849,2985,1,1,,1
5cd801d431d19f0019425e2e,g1qexg2mnv,Nick_Dissertation_EX1,1,106,2020-07-08T14:57:59-07:00,6.0449709892273,4,versionC_stim.csv,READVersionD.csv,"Read Version D","Dissertation, read only version D",CHARM,VEHICLE,Study2,U,160,103,Test,User,-,,Recall,Recall1,5552,,0,-1,-1,0,0,,1
5cd801d431d19f0019425e2e,g1qexg2mnv,Nick_Dissertation_EX1,1,107,2020-07-08T14:58:04-07:00,5.503536939621,4,versionC_stim.csv,READVersionD.csv,"Read Version D","Dissertation, read only version D",BALLOON,POP,Study2,F,123,120,Test,User,-,,Recall,Recall1,4885,pop,100,2987,3386,1,1,,1
5cd801d431d19f0019425e2e,g1qexg2mnv,Nick_Dissertation_EX1,1,108,2020-07-08T14:58:11-07:00,7.044084072113,4,versionC_stim.csv,READVersionD.csv,"Read Version D","Dissertation, read only version D",SARDINE,FISH,Study2,F,130,161,Test,User,-,,Recall,Recall1,6418,Fish,100,4866,5202,1,1,,0.667
5cd801d431d19f0019425e2e,g1qexg2mnv,Nick_Dissertation_EX1,1,109,2020-07-08T14:58:15-07:00,3.6054260730743,4,versionC_stim.csv,READVersionD.csv,"Read Version D","Dissertation, read only version D",TICK,FLEA,Study2,S,151,163,Test,User,-,,Recall,Recall1,3111,Flea,100,1812,2300,1,1,,1
5cd801d431d19f0019425e2e,g1qexg2mnv,Nick_Dissertation_EX1,1,110,2020-07-08T14:58:19-07:00,3.6075370311737,4,versionC_stim.csv,READVersionD.csv,"Read Version D","Dissertation, read only version D",BREAKABLE,GLASS,Study2,F,127,148,Test,User,-,,Recall,Recall1,3096,Glass,100,1797,2421,1,1,,1
5cd801d431d19f0019425e2e,g1qexg2mnv,Nick_Dissertation_EX1,1,111,2020-07-08T14:58:26-07:00,6.995668888092,4,versionC_stim.csv,READVersionD.csv,"Read Version D","Dissertation, read only version D",JOKE,KEYS,Study2,U,165,105,Test,User,-,,Recall,Recall1,6509,Laugh,0,4691,5179,0,0,,1
5cd801d431d19f0019425e2e,g1qexg2mnv,Nick_Dissertation_EX1,1,112,2020-07-08T14:58:28-07:00,2.8384659290314,4,versionC_stim.csv,READVersionD.csv,"Read Version D","Dissertation, read only version D",COMMUNICATION,PHONE,Study2,S,149,154,Test,User,-,,Recall,Recall1,2319,,0,-1,-1,0,0,,1
5cd801d431d19f0019425e2e,g1qexg2mnv,Nick_Dissertation_EX1,1,113,2020-07-08T14:58:33-07:00,4.0700900554657,4,versionC_stim.csv,READVersionD.csv,"Read Version D","Dissertation, read only version D",LOVE,AFFECTION,Study2,B,115,130,Test,User,-,,Recall,Recall1,3566,Hate,30.769230769231,2261,2846,0,0,,1
5cd801d431d19f0019425e2e,g1qexg2mnv,Nick_Dissertation_EX1,1,114,2020-07-08T14:58:38-07:00,5.6091980934143,4,versionC_stim.csv,READVersionD.csv,"Read Version D","Dissertation, read only version D",JAR,MASON,Study2,S,138,129,Test,User,-,,Recall,Recall1,5053,Mason,100,3225,3817,1,1,,1
5cd801d431d19f0019425e2e,g1qexg2mnv,Nick_Dissertation_EX1,1,115,2020-07-08T14:58:41-07:00,2.7126259803772,4,versionC_stim.csv,READVersionD.csv,"Read Version D","Dissertation, read only version D",WET,DRY,Study2,S,146,159,Test,User,-,,Recall,Recall1,2151,,0,-1,-1,0,0,,1
5cd801d431d19f0019425e2e,g1qexg2mnv,Nick_Dissertation_EX1,1,116,2020-07-08T14:58:46-07:00,4.8795268535614,4,versionC_stim.csv,READVersionD.csv,"Read Version D","Dissertation, read only version D",COFFIN,DEAD,Study2,F,128,99,Test,User,-,,Recall,Recall1,4379,Corpse,20,2751,3511,0,0,,1
5cd801d431d19f0019425e2e,g1qexg2mnv,Nick_Dissertation_EX1,1,117,2020-07-08T14:58:51-07:00,4.7960350513458,4,versionC_stim.csv,READVersionD.csv,"Read Version D","Dissertation, read only version D",BRAWL,FIGHT,Study2,F,135,128,Test,User,-,,Recall,Recall1,4312,Fisticuffs,40,2271,3470,0,0,,1
5cd801d431d19f0019425e2e,g1qexg2mnv,Nick_Dissertation_EX1,1,118,2020-07-08T14:58:54-07:00,3.6868200302124,4,versionC_stim.csv,READVersionD.csv,"Read Version D","Dissertation, read only version D",BRACELET,WRIST,Study2,S,140,118,Test,User,-,,Recall,Recall1,3193,Wrist,100,1774,2415,1,1,,1
5cd801d431d19f0019425e2e,g1qexg2mnv,Nick_Dissertation_EX1,1,119,2020-07-08T14:59:00-07:00,5.8728671073914,4,versionC_stim.csv,READVersionD.csv,"Read Version D","Dissertation, read only version D",GAME,CLUE,Study2,B,97,133,Test,User,-,,Recall,Recall1,5379,Player,40,3738,4609,0,0,,1
5cd801d431d19f0019425e2e,g1qexg2mnv,Nick_Dissertation_EX1,1,120,2020-07-08T14:59:05-07:00,4.4900579452515,4,versionC_stim.csv,READVersionD.csv,"Read Version D","Dissertation, read only version D",FIGHT,FEUD,Study2,B,113,107,Test,User,-,,Recall,Recall1,3986,Brawl,0,2201,2874,0,0,,1
5cd801d431d19f0019425e2e,g1qexg2mnv,Nick_Dissertation_EX1,1,121,2020-07-08T14:59:09-07:00,4.249764919281,4,versionC_stim.csv,READVersionD.csv,"Read Version D","Dissertation, read only version D",SCISSORS,SHEARS,Study2,B,112,155,Test,User,-,,Recall,Recall1,3742,Shears,100,1828,2709,1,1,,1
5cd801d431d19f0019425e2e,g1qexg2mnv,Nick_Dissertation_EX1,1,122,2020-07-08T14:59:13-07:00,4.4436249732971,4,versionC_stim.csv,READVersionD.csv,"Read Version D","Dissertation, read only version D",TOIL,LEASE,Study2,U,170,138,Test,User,-,,Recall,Recall1,3926,Struggle,30.769230769231,2068,3052,0,0,,1
5cd801d431d19f0019425e2e,g1qexg2mnv,Nick_Dissertation_EX1,1,123,2020-07-08T14:59:17-07:00,3.2797741889954,4,versionC_stim.csv,READVersionD.csv,"Read Version D","Dissertation, read only version D",VILLAIN,BAD,Study2,F,118,166,Test,User,-,,Recall,Recall1,2780,Bad,100,1650,2018,1,1,,1
5cd801d431d19f0019425e2e,g1qexg2mnv,Nick_Dissertation_EX1,1,124,2020-07-08T14:59:18-07:00,1.8846228122711,4,versionC_stim.csv,READVersionD.csv,"Read Version D","Dissertation, read only version D",PANTHER,CAT,Study2,F,126,142,Test,User,-,,Recall,Recall1,1438,,0,-1,-1,0,0,,1
5cd801d431d19f0019425e2e,g1qexg2mnv,Nick_Dissertation_EX1,1,125,2020-07-08T14:59:23-07:00,4.3775839805603,4,versionC_stim.csv,READVersionD.csv,"Read Version D","Dissertation, read only version D",TRUTHFUL,HONEST,Study2,F,133,104,Test,User,-,,Recall,Recall1,3904,Honest,100,2485,3333,1,1,,1
5cd801d431d19f0019425e2e,g1qexg2mnv,Nick_Dissertation_EX1,1,126,2020-07-08T14:59:29-07:00,5.9332201480865,4,versionC_stim.csv,READVersionD.csv,"Read Version D","Dissertation, read only version D",CLOTH,STRETCH,Study2,U,157,126,Test,User,-,,Recall,Recall1,5392,Stretch,100,2102,3182,1,1,,1
5cd801d431d19f0019425e2e,g1qexg2mnv,Nick_Dissertation_EX1,1,127,2020-07-08T14:59:33-07:00,4.0564529895782,4,versionC_stim.csv,READVersionD.csv,"Read Version D","Dissertation, read only version D",LIE,TRUTH,Study2,S,148,115,Test,User,-,,Recall,Recall1,3560,Truth,100,1968,2447,1,1,,1
5cd801d431d19f0019425e2e,g1qexg2mnv,Nick_Dissertation_EX1,1,128,2020-07-08T14:59:37-07:00,4.1662118434906,4,versionC_stim.csv,READVersionD.csv,"Read Version D","Dissertation, read only version D",SEATBELT,SAFETY,Study2,S,147,116,Test,User,-,,Recall,Recall1,3644,Safety,100,1722,2482,1,1,,1
5cd801d431d19f0019425e2e,g1qexg2mnv,Nick_Dissertation_EX1,1,129,2020-07-08T14:59:41-07:00,4.2732720375061,4,versionC_stim.csv,READVersionD.csv,"Read Version D","Dissertation, read only version D",PLANT,CACTUS,Study2,B,98,98,Test,User,-,,Recall,Recall1,3763,Cactus,100,1752,2600,1,1,,1
5cd801d431d19f0019425e2e,g1qexg2mnv,Nick_Dissertation_EX1,1,130,2020-07-08T14:59:44-07:00,2.6850411891937,4,versionC_stim.csv,READVersionD.csv,"Read Version D","Dissertation, read only version D",BANG,FUZZY,Study2,U,168,131,Test,User,-,,Recall,Recall1,2162,,0,-1,-1,0,0,,1
5cd801d431d19f0019425e2e,g1qexg2mnv,Nick_Dissertation_EX1,1,131,2020-07-08T14:59:49-07:00,4.8164298534393,4,versionC_stim.csv,READVersionD.csv,"Read Version D","Dissertation, read only version D",FLIP,TURN,Study2,F,116,102,Test,User,-,,Recall,Recall1,4232,Turn,100,2501,2901,1,1,,1
5cd801d431d19f0019425e2e,g1qexg2mnv,Nick_Dissertation_EX1,1,132,2020-07-08T14:59:53-07:00,4.2379951477051,4,versionC_stim.csv,READVersionD.csv,"Read Version D","Dissertation, read only version D",WAX,CANDLE,Study2,S,139,160,Test,User,-,,Recall,Recall1,3730,,0,-1,-1,0,0,,1
5cd801d431d19f0019425e2e,g1qexg2mnv,Nick_Dissertation_EX1,1,133,2020-07-08T14:59:58-07:00,4.7123007774353,4,versionC_stim.csv,READVersionD.csv,"Read Version D","Dissertation, read only version D",RED,CHERRY,Study2,B,104,143,Test,User,-,,Recall,Recall1,4228,Cherry,100,2344,3044,1,1,,1
5cd801d431d19f0019425e2e,g1qexg2mnv,Nick_Dissertation_EX1,1,134,2020-07-08T15:00:03-07:00,5.2503080368042,4,versionC_stim.csv,READVersionD.csv,"Read Version D","Dissertation, read only version D",MAROON,JUSTICE,Study2,U,156,162,Test,User,-,,Recall,Recall1,4758,Justice,100,2907,3899,1,1,,1
5cd801d431d19f0019425e2e,g1qexg2mnv,Nick_Dissertation_EX1,1,135,2020-07-08T15:00:07-07:00,4.2600791454315,4,versionC_stim.csv,READVersionD.csv,"Read Version D","Dissertation, read only version D",ACTRESS,STAR,Study2,F,120,145,Test,User,-,,Recall,Recall1,3735,Star,100,2182,2817,1,1,,1
5cd801d431d19f0019425e2e,g1qexg2mnv,Nick_Dissertation_EX1,1,136,2020-07-08T15:00:33-07:00,25.96705198288,4,versionC_stim.csv,READVersionD.csv,"Read Version D","Dissertation, read only version D",FAVORITE,BEST,Study2,F,125,147,Test,User,-,,Recall,Recall1,25455,,0,-1,-1,0,0,,1
5cd801d431d19f0019425e2e,g1qexg2mnv,Nick_Dissertation_EX1,1,137,2020-07-08T15:00:40-07:00,6.3794920444489,4,versionC_stim.csv,READVersionD.csv,"Read Version D","Dissertation, read only version D",OUNCE,BOTH,Study2,U,172,125,Test,User,-,,Recall,Recall1,5715,Double,20,3655,4423,0,0,,1
5cd801d431d19f0019425e2e,g1qexg2mnv,Nick_Dissertation_EX1,1,138,2020-07-08T15:00:43-07:00,3.6822328567505,4,versionC_stim.csv,READVersionD.csv,"Read Version D","Dissertation, read only version D",PENGUIN,BIRD,Study2,F,119,113,Test,User,-,,Recall,Recall1,3188,Bird,100,1858,2426,1,1,,1
5cd801d431d19f0019425e2e,g1qexg2mnv,Nick_Dissertation_EX1,1,139,2020-07-08T15:00:46-07:00,2.7884471416473,4,versionC_stim.csv,READVersionD.csv,"Read Version D","Dissertation, read only version D",COLD,CHILL,Study2,B,114,110,Test,User,-,,Recall,Recall1,2297,,0,-1,-1,0,0,,1
5cd801d431d19f0019425e2e,g1qexg2mnv,Nick_Dissertation_EX1,1,140,2020-07-08T15:00:51-07:00,5.3426508903503,4,versionC_stim.csv,READVersionD.csv,"Read Version D","Dissertation, read only version D",ELECTION,MAZE,Study2,U,159,150,Test,User,-,,Recall,Recall1,4834,Senator,18.181818181818,2752,3712,0,0,,1
5cd801d431d19f0019425e2e,g1qexg2mnv,Nick_Dissertation_EX1,1,141,2020-07-08T15:00:56-07:00,4.7587900161743,4,versionC_stim.csv,READVersionD.csv,"Read Version D","Dissertation, read only version D",NAP,SLEEP,Study2,F,134,171,Test,User,-,,Recall,Recall1,4269,Sleep,100,2330,2882,1,1,,1
5cd801d431d19f0019425e2e,g1qexg2mnv,Nick_Dissertation_EX1,1,142,2020-07-08T15:01:02-07:00,5.6020240783691,4,versionC_stim.csv,READVersionD.csv,"Read Version D","Dissertation, read only version D",REVENGE,EVEN,Study2,F,122,124,Test,User,-,,Recall,Recall1,5037,,0,-1,-1,0,0,,1
5cd801d431d19f0019425e2e,g1qexg2mnv,Nick_Dissertation_EX1,1,143,2020-07-08T15:01:06-07:00,3.9110748767853,4,versionC_stim.csv,READVersionD.csv,"Read Version D","Dissertation, read only version D",NOISE,LOUD,Study2,S,152,134,Test,User,-,,Recall,Recall1,3401,Loud,100,1871,2439,1,1,,1
5cd801d431d19f0019425e2e,g1qexg2mnv,Nick_Dissertation_EX1,1,144,2020-07-08T15:01:08-07:00,2.3872799873352,4,versionC_stim.csv,READVersionD.csv,"Read Version D","Dissertation, read only version D",DOG,FURRY,Study2,B,102,158,Test,User,-,,Recall,Recall1,1817,,0,-1,-1,0,0,,1
5cd801d431d19f0019425e2e,g1qexg2mnv,Nick_Dissertation_EX1,1,145,2020-07-08T15:01:12-07:00,4.2188861370087,4,versionC_stim.csv,READVersionD.csv,"Read Version D","Dissertation, read only version D",THIMBLE,THREAD,Study2,F,121,156,Test,User,-,,Recall,Recall1,3725,Bucket,16.666666666667,2026,2826,0,0,,1
5cd801d431d19f0019425e2e,g1qexg2mnv,Nick_Dissertation_EX1,1,146,2020-07-08T15:01:16-07:00,3.8033390045166,4,versionC_stim.csv,READVersionD.csv,"Read Version D","Dissertation, read only version D",DRINK,WATER,Study2,S,143,149,Test,User,-,,Recall,Recall1,3300,Eat,50,2234,2610,0,0,,1
5cd801d431d19f0019425e2e,g1qexg2mnv,Nick_Dissertation_EX1,1,147,2020-07-08T15:01:18-07:00,2.0769128799438,4,versionC_stim.csv,READVersionD.csv,"Read Version D","Dissertation, read only version D",AIRCRAFT,PLANE,Study2,F,129,167,Test,User,-,,Recall,Recall1,1666,,0,-1,-1,0,0,,1
5cd801d431d19f0019425e2e,g1qexg2mnv,Nick_Dissertation_EX1,1,148,2020-07-08T15:01:22-07:00,4.061371088028,4,versionC_stim.csv,READVersionD.csv,"Read Version D","Dissertation, read only version D",HEAD,SCALP,Study2,B,105,112,Test,User,-,,Recall,Recall1,3568,Scalp,100,1694,2254,1,1,,1
5cd801d431d19f0019425e2e,g1qexg2mnv,Nick_Dissertation_EX1,1,149,2020-07-08T15:01:24-07:00,1.9535839557648,4,versionC_stim.csv,READVersionD.csv,"Read Version D","Dissertation, read only version D",AWAY,GONE,Study2,S,142,175,Test,User,-,,Recall,Recall1,1549,,0,-1,-1,0,0,,1
5cd801d431d19f0019425e2e,g1qexg2mnv,Nick_Dissertation_EX1,1,150,2020-07-08T15:01:28-07:00,4.2154579162598,4,versionC_stim.csv,READVersionD.csv,"Read Version D","Dissertation, read only version D",CARBON,ELEMENT,Study2,S,141,140,Test,User,-,,Recall,Recall1,3723,Element,100,1712,2576,1,1,,1
5cd801d431d19f0019425e2e,g1qexg2mnv,Nick_Dissertation_EX1,1,151,2020-07-08T15:01:33-07:00,4.3615219593048,4,versionC_stim.csv,READVersionD.csv,"Read Version D","Dissertation, read only version D",SIGN,LOAN,Study2,U,171,111,Test,User,-,,Recall,Recall1,3827,Wonder,40,2424,3264,0,0,,1
5cd801d431d19f0019425e2e,g1qexg2mnv,Nick_Dissertation_EX1,1,152,2020-07-08T15:01:35-07:00,2.7271661758423,4,versionC_stim.csv,READVersionD.csv,"Read Version D","Dissertation, read only version D",SHAKE,Shell,Study2,U,163,151,Test,User,-,,Recall,Recall1,2223,,0,-1,-1,0,0,,1
5cd801d431d19f0019425e2e,g1qexg2mnv,Nick_Dissertation_EX1,1,153,2020-07-08T15:01:40-07:00,4.5085759162903,4,versionC_stim.csv,READVersionD.csv,"Read Version D","Dissertation, read only version D",END,ADJOURN,Study2,B,101,108,Test,User,-,,Recall,Recall1,3952,Finish,15.384615384615,2166,2838,0,0,,1
5cd801d431d19f0019425e2e,g1qexg2mnv,Nick_Dissertation_EX1,1,154,2020-07-08T15:01:46-07:00,5.7368290424347,4,versionC_stim.csv,READVersionD.csv,"Read Version D","Dissertation, read only version D",TAN,SUN,Study2,S,155,109,Test,User,-,,Recall,Recall1,5142,Sun,100,1740,2100,1,1,,1
5cd801d431d19f0019425e2e,g1qexg2mnv,Nick_Dissertation_EX1,1,155,2020-07-08T15:01:54-07:00,8.198282957077,4,versionC_stim.csv,READVersionD.csv,"Read Version D","Dissertation, read only version D",CUT,CHOP,Study2,B,107,153,Test,User,-,,Recall,Recall1,7552,,0,-1,-1,0,0,,1
5cd801d431d19f0019425e2e,g1qexg2mnv,Nick_Dissertation_EX1,1,156,2020-07-08T15:01:59-07:00,5.3394179344177,4,versionC_stim.csv,READVersionD.csv,"Read Version D","Dissertation, read only version D",GROUND,EARTH,Study2,S,144,139,Test,User,-,,Recall,Recall1,3797,Earth,100,2009,2609,1,1,,1
5cd801d431d19f0019425e2e,g1qexg2mnv,Nick_Dissertation_EX1,1,157,2020-07-08T15:02:02-07:00,2.5939881801605,4,versionC_stim.csv,READVersionD.csv,"Read Version D","Dissertation, read only version D",LONG,EXTENSION,Study2,B,96,164,Test,User,-,,Recall,Recall1,2104,,0,-1,-1,0,0,,1
5cd801d431d19f0019425e2e,g1qexg2mnv,Nick_Dissertation_EX1,1,158,2020-07-08T15:02:06-07:00,4.2936170101166,4,versionC_stim.csv,READVersionD.csv,"Read Version D","Dissertation, read only version D",WINDSHIELD,CAR,Study2,F,117,168,Test,User,-,,Recall,Recall1,3787,Glass,25,2505,3129,0,0,,1
5cd801d431d19f0019425e2e,g1qexg2mnv,Nick_Dissertation_EX1,1,159,2020-07-08T15:02:09-07:00,2.6569209098816,4,versionC_stim.csv,READVersionD.csv,"Read Version D","Dissertation, read only version D",TIE,SHOELACE,Study2,B,99,123,Test,User,-,,Recall,Recall1,2132,,0,-1,-1,0,0,,1
5cd801d431d19f0019425e2e,g1qexg2mnv,Nick_Dissertation_EX1,1,160,2020-07-08T15:02:13-07:00,4.1125268936157,4,versionC_stim.csv,READVersionD.csv,"Read Version D","Dissertation, read only version D",DONKEY,MULE,Study2,B,108,173,Test,User,-,,Recall,Recall1,3566,Ass,0,2428,2821,0,0,,1
5cd801d431d19f0019425e2e,g1qexg2mnv,Nick_Dissertation_EX1,1,161,2020-07-08T15:02:17-07:00,3.6752200126648,4,versionC_stim.csv,READVersionD.csv,"Read Version D","Dissertation, read only version D",REEL,ROD,Study2,S,150,137,Test,User,-,,Recall,Recall1,3120,Rod,100,1703,1998,1,1,,1
5cd801d431d19f0019425e2e,g1qexg2mnv,Nick_Dissertation_EX1,1,162,2020-07-08T15:02:19-07:00,1.9574379920959,4,versionC_stim.csv,READVersionD.csv,"Read Version D","Dissertation, read only version D",PAPER,DOCUMENT,Study2,B,109,172,Test,User,-,,Recall,Recall1,1503,,0,-1,-1,0,0,,1
5cd801d431d19f0019425e2e,g1qexg2mnv,Nick_Dissertation_EX1,1,163,2020-07-08T15:02:22-07:00,3.7514400482178,4,versionC_stim.csv,READVersionD.csv,"Read Version D","Dissertation, read only version D",FICTION,LISTEN,Study2,U,164,127,Test,User,-,,Recall,Recall1,3263,Fact,20,2229,2813,0,0,,1
5cd801d431d19f0019425e2e,g1qexg2mnv,Nick_Dissertation_EX1,1,164,2020-07-08T15:02:27-07:00,4.5087249279022,4,versionC_stim.csv,READVersionD.csv,"Read Version D","Dissertation, read only version D",STEAK,GIVE,Study2,U,158,100,Test,User,-,,Recall,Recall1,4014,Chips,22.222222222222,2411,3047,0,0,,1
5cd801d431d19f0019425e2e,g1qexg2mnv,Nick_Dissertation_EX1,1,165,2020-07-08T15:02:29-07:00,2.3394451141357,4,versionC_stim.csv,READVersionD.csv,"Read Version D","Dissertation, read only version D",TRASH,LITTER,Study2,B,103,144,Test,User,-,,Recall,Recall1,1790,,0,-1,-1,0,0,,1
5cd801d431d19f0019425e2e,g1qexg2mnv,Nick_Dissertation_EX1,1,166,2020-07-08T15:02:31-07:00,1.6087129116058,4,versionC_stim.csv,READVersionD.csv,"Read Version D","Dissertation, read only version D",CLEAR,MOAT,Study2,U,169,135,Test,User,-,,Recall,Recall1,1202,,0,-1,-1,0,0,,1
5cd801d431d19f0019425e2e,g1qexg2mnv,Nick_Dissertation_EX1,1,167,2020-07-08T15:02:33-07:00,2.1500151157379,4,versionC_stim.csv,READVersionD.csv,"Read Version D","Dissertation, read only version D",EQUAL,RIGHTS,Study2,S,137,169,Test,User,-,,Recall,Recall1,1757,,0,-1,-1,0,0,,1
5cd801d431d19f0019425e2e,g1qexg2mnv,Nick_Dissertation_EX1,1,168,2020-07-08T15:02:35-07:00,2.1343688964844,4,versionC_stim.csv,READVersionD.csv,"Read Version D","Dissertation, read only version D",CLOTHES,CAKE,Study2,U,166,121,Test,User,-,,Recall,Recall1,1725,,0,-1,-1,0,0,,1
5cd801d431d19f0019425e2e,g1qexg2mnv,Nick_Dissertation_EX1,1,169,2020-07-08T15:02:40-07:00,5.4221811294556,4,versionC_stim.csv,READVersionD.csv,"Read Version D","Dissertation, read only version D",SHAVE,RAZOR,Study2,S,136,136,Test,User,-,,Recall,Recall1,4854,Haircut,33.333333333333,2733,3589,0,0,,1
5cd801d431d19f0019425e2e,g1qexg2mnv,Nick_Dissertation_EX1,1,170,2020-07-08T15:03:01-07:00,20.312370061874,4,versionC_stim.csv,READVersionD.csv,"Read Version D","Dissertation, read only version D",CHILDREN,MIRROR,Study2,U,174,152,Test,User,-,,Recall,Recall1,19789,Adults,0,18043,18778,0,0,,0.202
5cd801d431d19f0019425e2e,g1qexg2mnv,Nick_Dissertation_EX1,1,171,2020-07-08T15:03:05-07:00,3.803820848465,4,versionC_stim.csv,READVersionD.csv,"Read Version D","Dissertation, read only version D",EAT,DINE,Study2,B,111,141,Test,User,-,,Recall,Recall1,3167,Drink,66.666666666667,1494,2126,0,0,,1
5cd801d431d19f0019425e2e,g1qexg2mnv,Nick_Dissertation_EX1,1,172,2020-07-08T15:03:09-07:00,4.7895090579987,4,versionC_stim.csv,READVersionD.csv,"Read Version D","Dissertation, read only version D",BANKER,MONEY,Study2,F,132,174,Test,User,-,,Recall,Recall1,4263,Money,100,2549,3189,1,1,,1
5cd801d431d19f0019425e2e,g1qexg2mnv,Nick_Dissertation_EX1,1,173,2020-07-08T15:03:13-07:00,4.0262229442596,4,versionC_stim.csv,READVersionD.csv,"Read Version D","Dissertation, read only version D",TEMPER,TANTRUM,Study2,S,154,122,Test,User,-,,Recall,Recall1,3491,Tantrum,100,1546,2458,1,1,,1
5cd801d431d19f0019425e2e,g1qexg2mnv,Nick_Dissertation_EX1,1,174,2020-07-08T15:03:16-07:00,2.3506970405579,4,versionC_stim.csv,READVersionD.csv,"Read Version D","Dissertation, read only version D",SCAR,MAIN,Study2,U,175,165,Test,User,-,,Recall,Recall1,1638,,0,-1,-1,0,0,,1
5cd801d431d19f0019425e2e,g1qexg2mnv,Nick_Dissertation_EX1,1,175,2020-07-08T15:03:58-07:00,42.71880698204,4,versionC_stim.csv,READVersionD.csv,"Read Version D","Dissertation, read only version D",,,,,,0,Instruct,-,10,"You will now be presented with a new set of word pairs. Please study each pair. Remember that your memory will be tested! When finished, press Enter to move to the next pair.",Initial_Instruct,Instruct4,42233,,,-1,-1,,,,0.166
5cd801d431d19f0019425e2e,g1qexg2mnv,Nick_Dissertation_EX1,1,176,2020-07-08T15:04:01-07:00,2.9349370002747,4,versionC_stim.csv,READVersionD.csv,"Read Version D","Dissertation, read only version D",BUTTER,PEANUT,BUFFER1,Buffer,3,2,Study,User,-,,Study/JOL,BUFFER3,1362,,,-1,-1,,,,1
5cd801d431d19f0019425e2e,g1qexg2mnv,Nick_Dissertation_EX1,1,177,2020-07-08T15:04:03-07:00,1.557158946991,4,versionC_stim.csv,READVersionD.csv,"Read Version D","Dissertation, read only version D",JAM,SPACE,BUFFER1,Buffer,5,4,Study,User,-,,Study/JOL,BUFFER3,1100,,,-1,-1,,,,1
5cd801d431d19f0019425e2e,g1qexg2mnv,Nick_Dissertation_EX1,1,178,2020-07-08T15:04:05-07:00,1.7961180210114,4,versionC_stim.csv,READVersionD.csv,"Read Version D","Dissertation, read only version D",HIDE,SCARE,BUFFER1,Buffer,4,6,Study,User,-,,Study/JOL,BUFFER3,1342,,,-1,-1,,,,1
5cd801d431d19f0019425e2e,g1qexg2mnv,Nick_Dissertation_EX1,1,179,2020-07-08T15:04:06-07:00,1.4090890884399,4,versionC_stim.csv,READVersionD.csv,"Read Version D","Dissertation, read only version D",GREEN,TREES,BUFFER1,Buffer,1,5,Study,User,-,,Study/JOL,BUFFER3,1011,,,-1,-1,,,,1
5cd801d431d19f0019425e2e,g1qexg2mnv,Nick_Dissertation_EX1,1,180,2020-07-08T15:04:09-07:00,2.4032309055328,4,versionC_stim.csv,READVersionD.csv,"Read Version D","Dissertation, read only version D",CATCHER,BASEBALL,BUFFER1,Buffer,2,3,Study,User,-,,Study/JOL,BUFFER3,879,,,-1,-1,,,,1
5cd801d431d19f0019425e2e,g1qexg2mnv,Nick_Dissertation_EX1,1,181,2020-07-08T15:04:11-07:00,2.1229159832001,4,versionC_stim.csv,READVersionD.csv,"Read Version D","Dissertation, read only version D",SIGHT,DEBATE,Study1,U,73,38,Study,User,-,,Study/JOL,"Study Phase2",1676,,,-1,-1,,,,1
5cd801d431d19f0019425e2e,g1qexg2mnv,Nick_Dissertation_EX1,1,182,2020-07-08T15:04:12-07:00,1.6510720252991,4,versionC_stim.csv,READVersionD.csv,"Read Version D","Dissertation, read only version D",BRONZE,ARTERY,Study1,U,74,20,Study,User,-,,Study/JOL,"Study Phase2",1233,,,-1,-1,,,,1
5cd801d431d19f0019425e2e,g1qexg2mnv,Nick_Dissertation_EX1,1,183,2020-07-08T15:04:15-07:00,2.814131975174,4,versionC_stim.csv,READVersionD.csv,"Read Version D","Dissertation, read only version D",END,BEGIN,Study1,S,54,39,Study,User,-,,Study/JOL,"Study Phase2",1418,,,-1,-1,,,,1
5cd801d431d19f0019425e2e,g1qexg2mnv,Nick_Dissertation_EX1,1,184,2020-07-08T15:04:17-07:00,1.8739199638367,4,versionC_stim.csv,READVersionD.csv,"Read Version D","Dissertation, read only version D",ENOUGH,FULL,Study1,F,26,63,Study,User,-,,Study/JOL,"Study Phase2",1464,,,-1,-1,,,,1
5cd801d431d19f0019425e2e,g1qexg2mnv,Nick_Dissertation_EX1,1,185,2020-07-08T15:04:19-07:00,1.6891582012177,4,versionC_stim.csv,READVersionD.csv,"Read Version D","Dissertation, read only version D",ATTIRE,CLOTHES,Study1,F,43,52,Study,User,-,,Study/JOL,"Study Phase2",1293,,,-1,-1,,,,1
5cd801d431d19f0019425e2e,g1qexg2mnv,Nick_Dissertation_EX1,1,186,2020-07-08T15:04:21-07:00,1.8678297996521,4,versionC_stim.csv,READVersionD.csv,"Read Version D","Dissertation, read only version D",ROCK,GEOLOGY,Study1,B,19,45,Study,User,-,,Study/JOL,"Study Phase2",1423,,,-1,-1,,,,1
5cd801d431d19f0019425e2e,g1qexg2mnv,Nick_Dissertation_EX1,1,187,2020-07-08T15:04:22-07:00,1.7583920955658,4,versionC_stim.csv,READVersionD.csv,"Read Version D","Dissertation, read only version D",SIP,DRINK,Study1,F,27,8,Study,User,-,,Study/JOL,"Study Phase2",1380,,,-1,-1,,,,1
5cd801d431d19f0019425e2e,g1qexg2mnv,Nick_Dissertation_EX1,1,188,2020-07-08T15:04:24-07:00,1.7785251140594,4,versionC_stim.csv,READVersionD.csv,"Read Version D","Dissertation, read only version D",FAMINE,HUNGER,Study1,F,40,53,Study,User,-,,Study/JOL,"Study Phase2",1391,,,-1,-1,,,,1
5cd801d431d19f0019425e2e,g1qexg2mnv,Nick_Dissertation_EX1,1,189,2020-07-08T15:04:27-07:00,3.3107278347015,4,versionC_stim.csv,READVersionD.csv,"Read Version D","Dissertation, read only version D",AMOUNT,NUMBER,Study1,S,47,19,Study,User,-,,Study/JOL,"Study Phase2",2815,,,-1,-1,,,,1
5cd801d431d19f0019425e2e,g1qexg2mnv,Nick_Dissertation_EX1,1,190,2020-07-08T15:04:30-07:00,2.5886080265045,4,versionC_stim.csv,READVersionD.csv,"Read Version D","Dissertation, read only version D",SACKING,DIETARY,Study1,U,67,40,Study,User,-,,Study/JOL,"Study Phase2",2102,,,-1,-1,,,,1
5cd801d431d19f0019425e2e,g1qexg2mnv,Nick_Dissertation_EX1,1,191,2020-07-08T15:04:31-07:00,1.4372510910034,4,versionC_stim.csv,READVersionD.csv,"Read Version D","Dissertation, read only version D",ASSIGNMENT,DUE,Study1,S,46,76,Study,User,-,,Study/JOL,"Study Phase2",1024,,,-1,-1,,,,1
5cd801d431d19f0019425e2e,g1qexg2mnv,Nick_Dissertation_EX1,1,192,2020-07-08T15:04:33-07:00,1.5902128219604,4,versionC_stim.csv,READVersionD.csv,"Read Version D","Dissertation, read only version D",FUTURE,PAST,Study1,S,61,34,Study,User,-,,Study/JOL,"Study Phase2",1141,,,-1,-1,,,,1
5cd801d431d19f0019425e2e,g1qexg2mnv,Nick_Dissertation_EX1,1,193,2020-07-08T15:04:36-07:00,2.952427148819,4,versionC_stim.csv,READVersionD.csv,"Read Version D","Dissertation, read only version D",WAR,REVOLUTION,Study1,B,20,62,Study,User,-,,Study/JOL,"Study Phase2",1535,,,-1,-1,,,,1
5cd801d431d19f0019425e2e,g1qexg2mnv,Nick_Dissertation_EX1,1,194,2020-07-08T15:04:38-07:00,2.3390998840332,4,versionC_stim.csv,READVersionD.csv,"Read Version D","Dissertation, read only version D",COW,HERD,Study1,B,22,51,Study,User,-,,Study/JOL,"Study Phase2",1852,,,-1,-1,,,,1
5cd801d431d19f0019425e2e,g1qexg2mnv,Nick_Dissertation_EX1,1,195,2020-07-08T15:04:45-07:00,6.2168381214142,4,versionC_stim.csv,READVersionD.csv,"Read Version D","Dissertation, read only version D",LIVER,KIDNEY,Study1,S,53,70,Study,User,-,,Study/JOL,"Study Phase2",5716,,,-1,-1,,,,1
5cd801d431d19f0019425e2e,g1qexg2mnv,Nick_Dissertation_EX1,1,196,2020-07-08T15:04:46-07:00,1.3816840648651,4,versionC_stim.csv,READVersionD.csv,"Read Version D","Dissertation, read only version D",COLD,BITTER,Study1,B,12,65,Study,User,-,,Study/JOL,"Study Phase2",968,,,-1,-1,,,,1
5cd801d431d19f0019425e2e,g1qexg2mnv,Nick_Dissertation_EX1,1,197,2020-07-08T15:04:58-07:00,11.696134805679,4,versionC_stim.csv,READVersionD.csv,"Read Version D","Dissertation, read only version D",WOULD,CASH,Study1,U,83,69,Study,User,-,,Study/JOL,"Study Phase2",11231,,,-1,-1,,,,1
5cd801d431d19f0019425e2e,g1qexg2mnv,Nick_Dissertation_EX1,1,198,2020-07-08T15:05:00-07:00,2.1221911907196,4,versionC_stim.csv,READVersionD.csv,"Read Version D","Dissertation, read only version D",BAR,GRILL,Study1,S,52,59,Study,User,-,,Study/JOL,"Study Phase2",1569,,,-1,-1,,,,1
5cd801d431d19f0019425e2e,g1qexg2mnv,Nick_Dissertation_EX1,1,199,2020-07-08T15:05:04-07:00,3.7777938842773,4,versionC_stim.csv,READVersionD.csv,"Read Version D","Dissertation, read only version D",GROWTH,HEIGHT,Study1,F,30,47,Study,User,-,,Study/JOL,"Study Phase2",3253,,,-1,-1,,,,1
5cd801d431d19f0019425e2e,g1qexg2mnv,Nick_Dissertation_EX1,1,200,2020-07-08T15:05:08-07:00,4.5374140739441,4,versionC_stim.csv,READVersionD.csv,"Read Version D","Dissertation, read only version D",FANTASTIC,GREAT,Study1,F,35,29,Study,User,-,,Study/JOL,"Study Phase2",4004,,,-1,-1,,,,1
5cd801d431d19f0019425e2e,g1qexg2mnv,Nick_Dissertation_EX1,1,201,2020-07-08T15:05:10-07:00,1.5599160194397,4,versionC_stim.csv,READVersionD.csv,"Read Version D","Dissertation, read only version D",OUT,WAY,Study1,B,16,44,Study,User,-,,Study/JOL,"Study Phase2",1135,,,-1,-1,,,,1
5cd801d431d19f0019425e2e,g1qexg2mnv,Nick_Dissertation_EX1,1,202,2020-07-08T15:05:12-07:00,1.9254829883575,4,versionC_stim.csv,READVersionD.csv,"Read Version D","Dissertation, read only version D",BELT,SOON,Study1,U,70,60,Study,User,-,,Study/JOL,"Study Phase2",1515,,,-1,-1,,,,1
5cd801d431d19f0019425e2e,g1qexg2mnv,Nick_Dissertation_EX1,1,203,2020-07-08T15:05:13-07:00,1.6644170284271,4,versionC_stim.csv,READVersionD.csv,"Read Version D","Dissertation, read only version D",FLOWER,ORCHID,Study1,B,24,36,Study,User,-,,Study/JOL,"Study Phase2",1239,,,-1,-1,,,,1
5cd801d431d19f0019425e2e,g1qexg2mnv,Nick_Dissertation_EX1,1,204,2020-07-08T15:05:15-07:00,1.8473348617554,4,versionC_stim.csv,READVersionD.csv,"Read Version D","Dissertation, read only version D",TUCK,ALLOW,Study1,U,78,23,Study,User,-,,Study/JOL,"Study Phase2",1428,,,-1,-1,,,,1
5cd801d431d19f0019425e2e,g1qexg2mnv,Nick_Dissertation_EX1,1,205,2020-07-08T15:05:17-07:00,2.3896861076355,4,versionC_stim.csv,READVersionD.csv,"Read Version D","Dissertation, read only version D",STING,HORNET,Study1,B,11,74,Study,User,-,,Study/JOL,"Study Phase2",1815,,,-1,-1,,,,1
5cd801d431d19f0019425e2e,g1qexg2mnv,Nick_Dissertation_EX1,1,206,2020-07-08T15:05:20-07:00,3.0154459476471,4,versionC_stim.csv,READVersionD.csv,"Read Version D","Dissertation, read only version D",TALK,DISCUSSION,Study1,B,21,9,Study,User,-,,Study/JOL,"Study Phase2",2492,,,-1,-1,,,,1
5cd801d431d19f0019425e2e,g1qexg2mnv,Nick_Dissertation_EX1,1,207,2020-07-08T15:05:22-07:00,1.8243808746338,4,versionC_stim.csv,READVersionD.csv,"Read Version D","Dissertation, read only version D",ATTORNEY,LAW,Study1,F,34,79,Study,User,-,,Study/JOL,"Study Phase2",1387,,,-1,-1,,,,1
5cd801d431d19f0019425e2e,g1qexg2mnv,Nick_Dissertation_EX1,1,208,2020-07-08T15:05:24-07:00,1.7756612300873,4,versionC_stim.csv,READVersionD.csv,"Read Version D","Dissertation, read only version D",FISH,TUNA,Study1,B,25,31,Study,User,-,,Study/JOL,"Study Phase2",1362,,,-1,-1,,,,1
5cd801d431d19f0019425e2e,g1qexg2mnv,Nick_Dissertation_EX1,1,209,2020-07-08T15:05:27-07:00,2.4376437664032,4,versionC_stim.csv,READVersionD.csv,"Read Version D","Dissertation, read only version D",JURY,TRIAL,Study1,S,50,18,Study,User,-,,Study/JOL,"Study Phase2",1953,,,-1,-1,,,,1
5cd801d431d19f0019425e2e,g1qexg2mnv,Nick_Dissertation_EX1,1,210,2020-07-08T15:05:28-07:00,1.969663143158,4,versionC_stim.csv,READVersionD.csv,"Read Version D","Dissertation, read only version D",CHEESE,WINE,Study1,S,57,64,Study,User,-,,Study/JOL,"Study Phase2",1550,,,-1,-1,,,,1
5cd801d431d19f0019425e2e,g1qexg2mnv,Nick_Dissertation_EX1,1,211,2020-07-08T15:05:30-07:00,1.8240208625793,4,versionC_stim.csv,READVersionD.csv,"Read Version D","Dissertation, read only version D",NEWS,EDITOR,Study1,B,10,32,Study,User,-,,Study/JOL,"Study Phase2",1399,,,-1,-1,,,,1
5cd801d431d19f0019425e2e,g1qexg2mnv,Nick_Dissertation_EX1,1,212,2020-07-08T15:06:01-07:00,30.930412054062,4,versionC_stim.csv,READVersionD.csv,"Read Version D","Dissertation, read only version D",MONEY,WAGE,Study1,B,8,10,Study,User,-,,Study/JOL,"Study Phase2",30403,,,-1,-1,,,,1
5cd801d431d19f0019425e2e,g1qexg2mnv,Nick_Dissertation_EX1,1,213,2020-07-08T15:06:03-07:00,1.5756630897522,4,versionC_stim.csv,READVersionD.csv,"Read Version D","Dissertation, read only version D",CHILI,HOT,Study1,F,37,72,Study,User,-,,Study/JOL,"Study Phase2",959,,,-1,-1,,,,1
5cd801d431d19f0019425e2e,g1qexg2mnv,Nick_Dissertation_EX1,1,214,2020-07-08T15:06:05-07:00,2.0934989452362,4,versionC_stim.csv,READVersionD.csv,"Read Version D","Dissertation, read only version D",PLANT,ROOT,Study1,B,13,13,Study,User,-,,Study/JOL,"Study Phase2",675,,,-1,-1,,,,1
5cd801d431d19f0019425e2e,g1qexg2mnv,Nick_Dissertation_EX1,1,215,2020-07-08T15:06:07-07:00,2.1713619232178,4,versionC_stim.csv,READVersionD.csv,"Read Version D","Dissertation, read only version D",HUNGRY,PARK,Study1,U,68,15,Study,User,-,,Study/JOL,"Study Phase2",1695,,,-1,-1,,,,1
5cd801d431d19f0019425e2e,g1qexg2mnv,Nick_Dissertation_EX1,1,216,2020-07-08T15:06:09-07:00,1.5788600444794,4,versionC_stim.csv,READVersionD.csv,"Read Version D","Dissertation, read only version D",CAR,HAPPY,Study1,U,77,28,Study,User,-,,Study/JOL,"Study Phase2",1172,,,-1,-1,,,,1
5cd801d431d19f0019425e2e,g1qexg2mnv,Nick_Dissertation_EX1,1,217,2020-07-08T15:06:10-07:00,1.3155760765076,4,versionC_stim.csv,READVersionD.csv,"Read Version D","Dissertation, read only version D",CAVE,DARK,Study1,F,28,55,Study,User,-,,Study/JOL,"Study Phase2",918,,,-1,-1,,,,1
5cd801d431d19f0019425e2e,g1qexg2mnv,Nick_Dissertation_EX1,1,218,2020-07-08T15:06:12-07:00,1.7433369159698,4,versionC_stim.csv,READVersionD.csv,"Read Version D","Dissertation, read only version D",SITE,LOCATION,Study1,S,48,82,Study,User,-,,Study/JOL,"Study Phase2",1319,,,-1,-1,,,,1
5cd801d431d19f0019425e2e,g1qexg2mnv,Nick_Dissertation_EX1,1,219,2020-07-08T15:06:13-07:00,1.5893919467926,4,versionC_stim.csv,READVersionD.csv,"Read Version D","Dissertation, read only version D",FLOOR,DISCOVER,Study1,U,71,27,Study,User,-,,Study/JOL,"Study Phase2",1178,,,-1,-1,,,,1
5cd801d431d19f0019425e2e,g1qexg2mnv,Nick_Dissertation_EX1,1,220,2020-07-08T15:06:15-07:00,1.5842790603638,4,versionC_stim.csv,READVersionD.csv,"Read Version D","Dissertation, read only version D",HAND,FIX,Study1,U,75,16,Study,User,-,,Study/JOL,"Study Phase2",1171,,,-1,-1,,,,1
5cd801d431d19f0019425e2e,g1qexg2mnv,Nick_Dissertation_EX1,1,221,2020-07-08T15:06:16-07:00,1.5653920173645,4,versionC_stim.csv,READVersionD.csv,"Read Version D","Dissertation, read only version D",LION,ART,Study1,U,79,26,Study,User,-,,Study/JOL,"Study Phase2",1122,,,-1,-1,,,,1
5cd801d431d19f0019425e2e,g1qexg2mnv,Nick_Dissertation_EX1,1,222,2020-07-08T15:06:18-07:00,1.4823789596558,4,versionC_stim.csv,READVersionD.csv,"Read Version D","Dissertation, read only version D",LATCH,KEY,Study1,F,36,22,Study,User,-,,Study/JOL,"Study Phase2",1022,,,-1,-1,,,,1
5cd801d431d19f0019425e2e,g1qexg2mnv,Nick_Dissertation_EX1,1,223,2020-07-08T15:06:20-07:00,1.5652229785919,4,versionC_stim.csv,READVersionD.csv,"Read Version D","Dissertation, read only version D",SEIZE,TAKE,Study1,F,29,35,Study,User,-,,Study/JOL,"Study Phase2",1166,,,-1,-1,,,,1
5cd801d431d19f0019425e2e,g1qexg2mnv,Nick_Dissertation_EX1,1,224,2020-07-08T15:06:21-07:00,1.5878260135651,4,versionC_stim.csv,READVersionD.csv,"Read Version D","Dissertation, read only version D",FOOT,SHOE,Study1,S,60,49,Study,User,-,,Study/JOL,"Study Phase2",1149,,,-1,-1,,,,1
5cd801d431d19f0019425e2e,g1qexg2mnv,Nick_Dissertation_EX1,1,225,2020-07-08T15:06:23-07:00,1.4630270004272,4,versionC_stim.csv,READVersionD.csv,"Read Version D","Dissertation, read only version D",DROWSY,SLEEP,Study1,F,41,71,Study,User,-,,Study/JOL,"Study Phase2",1013,,,-1,-1,,,,1
5cd801d431d19f0019425e2e,g1qexg2mnv,Nick_Dissertation_EX1,1,226,2020-07-08T15:06:24-07:00,1.759006023407,4,versionC_stim.csv,READVersionD.csv,"Read Version D","Dissertation, read only version D",ACCIDENT,STRONG,Study1,U,80,7,Study,User,-,,Study/JOL,"Study Phase2",1345,,,-1,-1,,,,1
5cd801d431d19f0019425e2e,g1qexg2mnv,Nick_Dissertation_EX1,1,227,2020-07-08T15:06:27-07:00,2.3435890674591,4,versionC_stim.csv,READVersionD.csv,"Read Version D","Dissertation, read only version D",BAD,DELINQUENT,Study1,B,6,25,Study,User,-,,Study/JOL,"Study Phase2",1849,,,-1,-1,,,,1
5cd801d431d19f0019425e2e,g1qexg2mnv,Nick_Dissertation_EX1,1,228,2020-07-08T15:06:28-07:00,1.8389940261841,4,versionC_stim.csv,READVersionD.csv,"Read Version D","Dissertation, read only version D",CLEAN,HYGIENE,Study1,B,17,80,Study,User,-,,Study/JOL,"Study Phase2",1406,,,-1,-1,,,,1
5cd801d431d19f0019425e2e,g1qexg2mnv,Nick_Dissertation_EX1,1,229,2020-07-08T15:06:31-07:00,2.0953869819641,4,versionC_stim.csv,READVersionD.csv,"Read Version D","Dissertation, read only version D",DEFINITION,MEANING,Study1,S,62,56,Study,User,-,,Study/JOL,"Study Phase2",1652,,,-1,-1,,,,1
5cd801d431d19f0019425e2e,g1qexg2mnv,Nick_Dissertation_EX1,1,230,2020-07-08T15:06:32-07:00,1.5247759819031,4,versionC_stim.csv,READVersionD.csv,"Read Version D","Dissertation, read only version D",CLUTTER,PUSHER,Study1,U,66,30,Study,User,-,,Study/JOL,"Study Phase2",1094,,,-1,-1,,,,1
5cd801d431d19f0019425e2e,g1qexg2mnv,Nick_Dissertation_EX1,1,231,2020-07-08T15:06:34-07:00,1.5286390781403,4,versionC_stim.csv,READVersionD.csv,"Read Version D","Dissertation, read only version D",SICK,HIDE,Study1,U,84,12,Study,User,-,,Study/JOL,"Study Phase2",1135,,,-1,-1,,,,1
5cd801d431d19f0019425e2e,g1qexg2mnv,Nick_Dissertation_EX1,1,232,2020-07-08T15:06:36-07:00,2.4377398490906,4,versionC_stim.csv,READVersionD.csv,"Read Version D","Dissertation, read only version D",WASTE,DUMP,Study1,S,49,14,Study,User,-,,Study/JOL,"Study Phase2",1036,,,-1,-1,,,,1
5cd801d431d19f0019425e2e,g1qexg2mnv,Nick_Dissertation_EX1,1,233,2020-07-08T15:06:38-07:00,1.8178441524506,4,versionC_stim.csv,READVersionD.csv,"Read Version D","Dissertation, read only version D",VASE,KING,Study1,U,85,57,Study,User,-,,Study/JOL,"Study Phase2",1410,,,-1,-1,,,,1
5cd801d431d19f0019425e2e,g1qexg2mnv,Nick_Dissertation_EX1,1,234,2020-07-08T15:06:39-07:00,1.5979850292206,4,versionC_stim.csv,READVersionD.csv,"Read Version D","Dissertation, read only version D",CHILD,BABY,Study1,S,64,67,Study,User,-,,Study/JOL,"Study Phase2",1166,,,-1,-1,,,,1
5cd801d431d19f0019425e2e,g1qexg2mnv,Nick_Dissertation_EX1,1,235,2020-07-08T15:06:41-07:00,1.8324749469757,4,versionC_stim.csv,READVersionD.csv,"Read Version D","Dissertation, read only version D",BIRD,SWAN,Study1,B,14,21,Study,User,-,,Study/JOL,"Study Phase2",1444,,,-1,-1,,,,1
5cd801d431d19f0019425e2e,g1qexg2mnv,Nick_Dissertation_EX1,1,236,2020-07-08T15:06:43-07:00,1.641105890274,4,versionC_stim.csv,READVersionD.csv,"Read Version D","Dissertation, read only version D",WATER,BRIDGE,Study1,B,18,37,Study,User,-,,Study/JOL,"Study Phase2",1170,,,-1,-1,,,,1
5cd801d431d19f0019425e2e,g1qexg2mnv,Nick_Dissertation_EX1,1,237,2020-07-08T15:06:44-07:00,1.44766497612,4,versionC_stim.csv,READVersionD.csv,"Read Version D","Dissertation, read only version D",WIND,BLOW,Study1,S,55,68,Study,User,-,,Study/JOL,"Study Phase2",1038,,,-1,-1,,,,1
5cd801d431d19f0019425e2e,g1qexg2mnv,Nick_Dissertation_EX1,1,238,2020-07-08T15:06:46-07:00,1.6086390018463,4,versionC_stim.csv,READVersionD.csv,"Read Version D","Dissertation, read only version D",WORD,SENTENCE,Study1,F,31,84,Study,User,-,,Study/JOL,"Study Phase2",1194,,,-1,-1,,,,1
5cd801d431d19f0019425e2e,g1qexg2mnv,Nick_Dissertation_EX1,1,239,2020-07-08T15:06:48-07:00,1.6959240436554,4,versionC_stim.csv,READVersionD.csv,"Read Version D","Dissertation, read only version D",BLAZE,FIRE,Study1,F,45,73,Study,User,-,,Study/JOL,"Study Phase2",1170,,,-1,-1,,,,1
5cd801d431d19f0019425e2e,g1qexg2mnv,Nick_Dissertation_EX1,1,240,2020-07-08T15:06:49-07:00,1.6547729969025,4,versionC_stim.csv,READVersionD.csv,"Read Version D","Dissertation, read only version D",TOILET,BATHROOM,Study1,S,58,24,Study,User,-,,Study/JOL,"Study Phase2",1247,,,-1,-1,,,,1
5cd801d431d19f0019425e2e,g1qexg2mnv,Nick_Dissertation_EX1,1,241,2020-07-08T15:06:51-07:00,1.5448110103607,4,versionC_stim.csv,READVersionD.csv,"Read Version D","Dissertation, read only version D",WASP,BUG,Study1,F,32,41,Study,User,-,,Study/JOL,"Study Phase2",1082,,,-1,-1,,,,1
5cd801d431d19f0019425e2e,g1qexg2mnv,Nick_Dissertation_EX1,1,242,2020-07-08T15:06:53-07:00,1.7515540122986,4,versionC_stim.csv,READVersionD.csv,"Read Version D","Dissertation, read only version D",WOMAN,LIFT,Study1,U,69,46,Study,User,-,,Study/JOL,"Study Phase2",1352,,,-1,-1,,,,1
5cd801d431d19f0019425e2e,g1qexg2mnv,Nick_Dissertation_EX1,1,243,2020-07-08T15:06:54-07:00,1.7441029548645,4,versionC_stim.csv,READVersionD.csv,"Read Version D","Dissertation, read only version D",RIDDLE,SUGAR,Study1,U,81,61,Study,User,-,,Study/JOL,"Study Phase2",1355,,,-1,-1,,,,1
5cd801d431d19f0019425e2e,g1qexg2mnv,Nick_Dissertation_EX1,1,244,2020-07-08T15:06:56-07:00,1.5512511730194,4,versionC_stim.csv,READVersionD.csv,"Read Version D","Dissertation, read only version D",HAMMER,CHISEL,Study1,B,9,85,Study,User,-,,Study/JOL,"Study Phase2",1155,,,-1,-1,,,,1
5cd801d431d19f0019425e2e,g1qexg2mnv,Nick_Dissertation_EX1,1,245,2020-07-08T15:06:58-07:00,1.6182408332825,4,versionC_stim.csv,READVersionD.csv,"Read Version D","Dissertation, read only version D",CHORE,WORK,Study1,F,39,42,Study,User,-,,Study/JOL,"Study Phase2",1186,,,-1,-1,,,,1
5cd801d431d19f0019425e2e,g1qexg2mnv,Nick_Dissertation_EX1,1,246,2020-07-08T15:06:59-07:00,1.5032210350037,4,versionC_stim.csv,READVersionD.csv,"Read Version D","Dissertation, read only version D",BEE,HONEY,Study1,S,63,58,Study,User,-,,Study/JOL,"Study Phase2",1085,,,-1,-1,,,,1
5cd801d431d19f0019425e2e,g1qexg2mnv,Nick_Dissertation_EX1,1,247,2020-07-08T15:07:01-07:00,1.5173609256744,4,versionC_stim.csv,READVersionD.csv,"Read Version D","Dissertation, read only version D",CARD,CREDIT,Study1,B,23,11,Study,User,-,,Study/JOL,"Study Phase2",1080,,,-1,-1,,,,1
5cd801d431d19f0019425e2e,g1qexg2mnv,Nick_Dissertation_EX1,1,248,2020-07-08T15:07:03-07:00,2.1473770141602,4,versionC_stim.csv,READVersionD.csv,"Read Version D","Dissertation, read only version D",PILOT,PLANE,Study1,F,44,86,Study,User,-,,Study/JOL,"Study Phase2",1721,,,-1,-1,,,,1
5cd801d431d19f0019425e2e,g1qexg2mnv,Nick_Dissertation_EX1,1,249,2020-07-08T15:07:04-07:00,1.5578169822693,4,versionC_stim.csv,READVersionD.csv,"Read Version D","Dissertation, read only version D",DESIGN,ARCHITECTURE,Study1,S,51,75,Study,User,-,,Study/JOL,"Study Phase2",1177,,,-1,-1,,,,1
5cd801d431d19f0019425e2e,g1qexg2mnv,Nick_Dissertation_EX1,1,250,2020-07-08T15:07:06-07:00,1.5768511295319,4,versionC_stim.csv,READVersionD.csv,"Read Version D","Dissertation, read only version D",SALAD,LETTUCE,Study1,S,59,17,Study,User,-,,Study/JOL,"Study Phase2",1126,,,-1,-1,,,,1
5cd801d431d19f0019425e2e,g1qexg2mnv,Nick_Dissertation_EX1,1,251,2020-07-08T15:07:08-07:00,1.6626300811768,4,versionC_stim.csv,READVersionD.csv,"Read Version D","Dissertation, read only version D",DIVISION,MATH,Study1,F,33,83,Study,User,-,,Study/JOL,"Study Phase2",1211,,,-1,-1,,,,1
5cd801d431d19f0019425e2e,g1qexg2mnv,Nick_Dissertation_EX1,1,252,2020-07-08T15:07:09-07:00,1.8866498470306,4,versionC_stim.csv,READVersionD.csv,"Read Version D","Dissertation, read only version D",STOMACH,DIGESTION,Study1,B,7,43,Study,User,-,,Study/JOL,"Study Phase2",1470,,,-1,-1,,,,1
5cd801d431d19f0019425e2e,g1qexg2mnv,Nick_Dissertation_EX1,1,253,2020-07-08T15:07:11-07:00,1.7232921123505,4,versionC_stim.csv,READVersionD.csv,"Read Version D","Dissertation, read only version D",STENCH,SMELL,Study1,F,42,81,Study,User,-,,Study/JOL,"Study Phase2",1320,,,-1,-1,,,,1
5cd801d431d19f0019425e2e,g1qexg2mnv,Nick_Dissertation_EX1,1,254,2020-07-08T15:07:14-07:00,2.3877499103546,4,versionC_stim.csv,READVersionD.csv,"Read Version D","Dissertation, read only version D",SODA,POP,Study1,S,56,54,Study,User,-,,Study/JOL,"Study Phase2",1863,,,-1,-1,,,,1
5cd801d431d19f0019425e2e,g1qexg2mnv,Nick_Dissertation_EX1,1,255,2020-07-08T15:07:19-07:00,5.1806740760803,4,versionC_stim.csv,READVersionD.csv,"Read Version D","Dissertation, read only version D",DOG,PAW,Study1,B,15,50,Study,User,-,,Study/JOL,"Study Phase2",3651,,,-1,-1,,,,0.632
5cd801d431d19f0019425e2e,g1qexg2mnv,Nick_Dissertation_EX1,1,256,2020-07-08T15:07:21-07:00,1.9284429550171,4,versionC_stim.csv,READVersionD.csv,"Read Version D","Dissertation, read only version D",BUSINESS,DEATH,Study1,U,72,66,Study,User,-,,Study/JOL,"Study Phase2",1481,,,-1,-1,,,,1
5cd801d431d19f0019425e2e,g1qexg2mnv,Nick_Dissertation_EX1,1,257,2020-07-08T15:07:22-07:00,1.2127230167389,4,versionC_stim.csv,READVersionD.csv,"Read Version D","Dissertation, read only version D",RACKET,BALL,Study1,F,38,48,Study,User,-,,Study/JOL,"Study Phase2",831,,,-1,-1,,,,1
5cd801d431d19f0019425e2e,g1qexg2mnv,Nick_Dissertation_EX1,1,258,2020-07-08T15:07:23-07:00,1.5247819423676,4,versionC_stim.csv,READVersionD.csv,"Read Version D","Dissertation, read only version D",ADD,VALLEY,Study1,U,82,78,Study,User,-,,Study/JOL,"Study Phase2",1119,,,-1,-1,,,,1
5cd801d431d19f0019425e2e,g1qexg2mnv,Nick_Dissertation_EX1,1,259,2020-07-08T15:07:25-07:00,1.5741031169891,4,versionC_stim.csv,READVersionD.csv,"Read Version D","Dissertation, read only version D",POSITION,MACHINE,Study1,U,76,77,Study,User,-,,Study/JOL,"Study Phase2",1121,,,-1,-1,,,,1
5cd801d431d19f0019425e2e,g1qexg2mnv,Nick_Dissertation_EX1,1,260,2020-07-08T15:07:27-07:00,1.6492547988892,4,versionC_stim.csv,READVersionD.csv,"Read Version D","Dissertation, read only version D",ROUND,CIRCLE,Study1,S,65,33,Study,User,-,,Study/JOL,"Study Phase2",1245,,,-1,-1,,,,1
5cd801d431d19f0019425e2e,g1qexg2mnv,Nick_Dissertation_EX1,1,261,2020-07-08T15:07:28-07:00,1.3206322193146,4,versionC_stim.csv,READVersionD.csv,"Read Version D","Dissertation, read only version D",SPACE,MOON,BUFFER2,Buffer,89,91,Study,User,-,,Study/JOL,BUFFER4,930,,,-1,-1,,,,1
5cd801d431d19f0019425e2e,g1qexg2mnv,Nick_Dissertation_EX1,1,262,2020-07-08T15:07:29-07:00,1.4444029331207,4,versionC_stim.csv,READVersionD.csv,"Read Version D","Dissertation, read only version D",POLICE,SHERRIF,BUFFER2,Buffer,87,88,Study,User,-,,Study/JOL,BUFFER4,987,,,-1,-1,,,,1
5cd801d431d19f0019425e2e,g1qexg2mnv,Nick_Dissertation_EX1,1,263,2020-07-08T15:07:31-07:00,1.3862688541412,4,versionC_stim.csv,READVersionD.csv,"Read Version D","Dissertation, read only version D",STUFF,THING,BUFFER2,Buffer,90,87,Study,User,-,,Study/JOL,BUFFER4,994,,,-1,-1,,,,1
5cd801d431d19f0019425e2e,g1qexg2mnv,Nick_Dissertation_EX1,1,264,2020-07-08T15:07:32-07:00,1.6946740150452,4,versionC_stim.csv,READVersionD.csv,"Read Version D","Dissertation, read only version D",CHOCOLATE,MALT,BUFFER2,Buffer,88,90,Study,User,-,,Study/JOL,BUFFER4,1291,,,-1,-1,,,,1
5cd801d431d19f0019425e2e,g1qexg2mnv,Nick_Dissertation_EX1,1,265,2020-07-08T15:07:34-07:00,1.529571056366,4,versionC_stim.csv,READVersionD.csv,"Read Version D","Dissertation, read only version D",GOOSE,GEESE,BUFFER2,Buffer,86,89,Study,User,-,,Study/JOL,BUFFER4,1117,,,-1,-1,,,,1
5cd801d431d19f0019425e2e,g1qexg2mnv,Nick_Dissertation_EX1,1,266,2020-07-08T15:07:36-07:00,1.7877309322357,4,versionC_stim.csv,READVersionD.csv,"Read Version D","Dissertation, read only version D",,,,,,0,Instruct,User,-,"You have completed this section. Please press Enter.",Filler_Instruction,Instruct5,1358,,,-1,-1,,,,1
5cd801d431d19f0019425e2e,g1qexg2mnv,Nick_Dissertation_EX1,1,267,2020-07-08T15:09:36-07:00,120.49861502647,4,versionC_stim.csv,READVersionD.csv,"Read Version D","Dissertation, read only version D",,,,,,0,FreeRecall,120,120,"Please list the 50 US states in reverse alphabetical order (z - a). The task will automatically advance to the next screen after two minutes.",,Filler2,120007,"Again, I'm not american and don't know enough US states. First one's Wyoming, Last one's Alaska, and I can't remember if puerto rico counts but I think they're still a protectorate, right? Utah Virginia Washington Wyoming that's the last four :) ... bugger, wrong way around wyoming washington virginia utah ... arkansas ",0,3650,118209,0,0,,1
5cd801d431d19f0019425e2e,g1qexg2mnv,Nick_Dissertation_EX1,1,268,2020-07-08T15:09:51-07:00,14.649037122726,4,versionC_stim.csv,READVersionD.csv,"Read Version D","Dissertation, read only version D",,,,,,0,Instruct,-,10,"You will now be presented with the first word from each of the previously studied item pairs. Please type the missing word. If you do not know the word, you may guess or press Enter to skip forward to the next pair.",,Instruct6,14058,,,-1,-1,,,,1
5cd801d431d19f0019425e2e,g1qexg2mnv,Nick_Dissertation_EX1,1,269,2020-07-08T15:09:54-07:00,3.2116379737854,4,versionC_stim.csv,READVersionD.csv,"Read Version D","Dissertation, read only version D",SODA,POP,Study1,S,56,54,Test,User,-,,Recall,Recall2,2510,pop,100,1850,2233,1,1,,1
5cd801d431d19f0019425e2e,g1qexg2mnv,Nick_Dissertation_EX1,1,270,2020-07-08T15:10:12-07:00,18.330720901489,4,versionC_stim.csv,READVersionD.csv,"Read Version D","Dissertation, read only version D",PLANT,ROOT,Study1,B,13,13,Test,User,-,,Recall,Recall2,17809,,0,-1,-1,0,0,,0.517
5cd801d431d19f0019425e2e,g1qexg2mnv,Nick_Dissertation_EX1,1,271,2020-07-08T15:10:17-07:00,4.9913601875305,4,versionC_stim.csv,READVersionD.csv,"Read Version D","Dissertation, read only version D",BEE,HONEY,Study1,S,63,58,Test,User,-,,Recall,Recall2,4333,sting,20,2888,3463,0,0,,1
5cd801d431d19f0019425e2e,g1qexg2mnv,Nick_Dissertation_EX1,1,272,2020-07-08T15:10:24-07:00,6.2261078357697,4,versionC_stim.csv,READVersionD.csv,"Read Version D","Dissertation, read only version D",DEFINITION,MEANING,Study1,S,62,56,Test,User,-,,Recall,Recall2,4700,meaning,100,2841,3538,1,1,,1
5cd801d431d19f0019425e2e,g1qexg2mnv,Nick_Dissertation_EX1,1,273,2020-07-08T15:10:26-07:00,2.6366219520569,4,versionC_stim.csv,READVersionD.csv,"Read Version D","Dissertation, read only version D",FLOOR,DISCOVER,Study1,U,71,27,Test,User,-,,Recall,Recall2,2107,,0,-1,-1,0,0,,1
5cd801d431d19f0019425e2e,g1qexg2mnv,Nick_Dissertation_EX1,1,274,2020-07-08T15:10:31-07:00,4.2665271759033,4,versionC_stim.csv,READVersionD.csv,"Read Version D","Dissertation, read only version D",FISH,TUNA,Study1,B,25,31,Test,User,-,,Recall,Recall2,3718,tuna,100,2053,2524,1,1,,1
5cd801d431d19f0019425e2e,g1qexg2mnv,Nick_Dissertation_EX1,1,275,2020-07-08T15:10:35-07:00,4.802640914917,4,versionC_stim.csv,READVersionD.csv,"Read Version D","Dissertation, read only version D",DIVISION,MATH,Study1,F,33,83,Test,User,-,,Recall,Recall2,4270,mathematics,53.333333333333,1900,3332,0,0,,1
5cd801d431d19f0019425e2e,g1qexg2mnv,Nick_Dissertation_EX1,1,276,2020-07-08T15:10:41-07:00,5.4562380313873,4,versionC_stim.csv,READVersionD.csv,"Read Version D","Dissertation, read only version D",LION,ART,Study1,U,79,26,Test,User,-,,Recall,Recall2,4959,pride,25,3213,3773,0,0,,1
5cd801d431d19f0019425e2e,g1qexg2mnv,Nick_Dissertation_EX1,1,277,2020-07-08T15:10:46-07:00,4.7126350402832,4,versionC_stim.csv,READVersionD.csv,"Read Version D","Dissertation, read only version D",WATER,BRIDGE,Study1,B,18,37,Test,User,-,,Recall,Recall2,4154,,0,-1,-1,0,0,,1
5cd801d431d19f0019425e2e,g1qexg2mnv,Nick_Dissertation_EX1,1,278,2020-07-08T15:10:52-07:00,6.1461119651794,4,versionC_stim.csv,READVersionD.csv,"Read Version D","Dissertation, read only version D",ADD,VALLEY,Study1,U,82,78,Test,User,-,,Recall,Recall2,5544,subtract,14.285714285714,3454,4886,0,0,,1
5cd801d431d19f0019425e2e,g1qexg2mnv,Nick_Dissertation_EX1,1,279,2020-07-08T15:10:55-07:00,3.6609089374542,4,versionC_stim.csv,READVersionD.csv,"Read Version D","Dissertation, read only version D",JURY,TRIAL,Study1,S,50,18,Test,User,-,,Recall,Recall2,3119,duty,22.222222222222,1653,2069,0,0,,1
5cd801d431d19f0019425e2e,g1qexg2mnv,Nick_Dissertation_EX1,1,280,2020-07-08T15:10:59-07:00,3.9079549312592,4,versionC_stim.csv,READVersionD.csv,"Read Version D","Dissertation, read only version D",DROWSY,SLEEP,Study1,F,41,71,Test,User,-,,Recall,Recall2,3393,tired,20,1992,2631,0,0,,1
5cd801d431d19f0019425e2e,g1qexg2mnv,Nick_Dissertation_EX1,1,281,2020-07-08T15:11:04-07:00,4.5670881271362,4,versionC_stim.csv,READVersionD.csv,"Read Version D","Dissertation, read only version D",SIP,DRINK,Study1,F,27,8,Test,User,-,,Recall,Recall2,4004,drink,100,1494,2837,1,1,,1
5cd801d431d19f0019425e2e,g1qexg2mnv,Nick_Dissertation_EX1,1,282,2020-07-08T15:11:06-07:00,2.3819689750671,4,versionC_stim.csv,READVersionD.csv,"Read Version D","Dissertation, read only version D",ROUND,CIRCLE,Study1,S,65,33,Test,User,-,,Recall,Recall2,1863,,0,-1,-1,0,0,,1
5cd801d431d19f0019425e2e,g1qexg2mnv,Nick_Dissertation_EX1,1,283,2020-07-08T15:11:09-07:00,2.5516610145569,4,versionC_stim.csv,READVersionD.csv,"Read Version D","Dissertation, read only version D",WOMAN,LIFT,Study1,U,69,46,Test,User,-,,Recall,Recall2,2003,,0,-1,-1,0,0,,1
5cd801d431d19f0019425e2e,g1qexg2mnv,Nick_Dissertation_EX1,1,284,2020-07-08T15:11:15-07:00,6.1689438819885,4,versionC_stim.csv,READVersionD.csv,"Read Version D","Dissertation, read only version D",GROWTH,HEIGHT,Study1,F,30,47,Test,User,-,,Recall,Recall2,5672,expand,16.666666666667,2542,3934,0,0,,1
5cd801d431d19f0019425e2e,g1qexg2mnv,Nick_Dissertation_EX1,1,285,2020-07-08T15:11:19-07:00,4.2664620876312,4,versionC_stim.csv,READVersionD.csv,"Read Version D","Dissertation, read only version D",HAMMER,CHISEL,Study1,B,9,85,Test,User,-,,Recall,Recall2,3781,chisel,100,2019,2619,1,1,,1
5cd801d431d19f0019425e2e,g1qexg2mnv,Nick_Dissertation_EX1,1,286,2020-07-08T15:11:24-07:00,5.1940169334412,4,versionC_stim.csv,READVersionD.csv,"Read Version D","Dissertation, read only version D",SICK,HIDE,Study1,U,84,12,Test,User,-,,Recall,Recall2,4702,well,25,2693,3220,0,0,,1
5cd801d431d19f0019425e2e,g1qexg2mnv,Nick_Dissertation_EX1,1,287,2020-07-08T15:11:28-07:00,3.7304480075836,4,versionC_stim.csv,READVersionD.csv,"Read Version D","Dissertation, read only version D",MONEY,WAGE,Study1,B,8,10,Test,User,-,,Recall,Recall2,3203,banker,40,1632,2503,0,0,,1
5cd801d431d19f0019425e2e,g1qexg2mnv,Nick_Dissertation_EX1,1,288,2020-07-08T15:11:36-07:00,7.7215030193329,4,versionC_stim.csv,READVersionD.csv,"Read Version D","Dissertation, read only version D",RIDDLE,SUGAR,Study1,U,81,61,Test,User,-,,Recall,Recall2,7190,game,44.444444444444,2549,6582,0,0,,1
5cd801d431d19f0019425e2e,g1qexg2mnv,Nick_Dissertation_EX1,1,289,2020-07-08T15:11:41-07:00,4.7775001525879,4,versionC_stim.csv,READVersionD.csv,"Read Version D","Dissertation, read only version D",TOILET,BATHROOM,Study1,S,58,24,Test,User,-,,Recall,Recall2,4214,Bathroom,100,1952,2949,1,1,,1
5cd801d431d19f0019425e2e,g1qexg2mnv,Nick_Dissertation_EX1,1,290,2020-07-08T15:11:46-07:00,5.1403458118439,4,versionC_stim.csv,READVersionD.csv,"Read Version D","Dissertation, read only version D",SACKING,DIETARY,Study1,U,67,40,Test,User,-,,Recall,Recall2,4623,Fired,33.333333333333,2989,3652,0,0,,1
5cd801d431d19f0019425e2e,g1qexg2mnv,Nick_Dissertation_EX1,1,291,2020-07-08T15:11:55-07:00,8.8021521568298,4,versionC_stim.csv,READVersionD.csv,"Read Version D","Dissertation, read only version D",ATTORNEY,LAW,Study1,F,34,79,Test,User,-,,Recall,Recall2,8283,Lawyer,66.666666666667,2165,5021,0,0,,0.833
5cd801d431d19f0019425e2e,g1qexg2mnv,Nick_Dissertation_EX1,1,292,2020-07-08T15:11:59-07:00,4.7733399868011,4,versionC_stim.csv,READVersionD.csv,"Read Version D","Dissertation, read only version D",TALK,DISCUSSION,Study1,B,21,9,Test,User,-,,Recall,Recall2,4193,communicate,28.571428571429,1784,3359,0,0,,1
5cd801d431d19f0019425e2e,g1qexg2mnv,Nick_Dissertation_EX1,1,293,2020-07-08T15:12:10-07:00,10.772822856903,4,versionC_stim.csv,READVersionD.csv,"Read Version D","Dissertation, read only version D",BELT,SOON,Study1,U,70,60,Test,User,-,,Recall,Recall2,10219,Soon,100,8544,9095,1,1,,1
5cd801d431d19f0019425e2e,g1qexg2mnv,Nick_Dissertation_EX1,1,294,2020-07-08T15:12:13-07:00,2.3956081867218,4,versionC_stim.csv,READVersionD.csv,"Read Version D","Dissertation, read only version D",BAR,GRILL,Study1,S,52,59,Test,User,-,,Recall,Recall2,1813,,0,-1,-1,0,0,,1
5cd801d431d19f0019425e2e,g1qexg2mnv,Nick_Dissertation_EX1,1,295,2020-07-08T15:12:17-07:00,4.0224089622498,4,versionC_stim.csv,READVersionD.csv,"Read Version D","Dissertation, read only version D",WOULD,CASH,Study1,U,83,69,Test,User,-,,Recall,Recall2,3518,Should,40,1794,2610,0,0,,1
5cd801d431d19f0019425e2e,g1qexg2mnv,Nick_Dissertation_EX1,1,296,2020-07-08T15:12:19-07:00,2.7424788475037,4,versionC_stim.csv,READVersionD.csv,"Read Version D","Dissertation, read only version D",FANTASTIC,GREAT,Study1,F,35,29,Test,User,-,,Recall,Recall2,2252,,0,-1,-1,0,0,,1
5cd801d431d19f0019425e2e,g1qexg2mnv,Nick_Dissertation_EX1,1,297,2020-07-08T15:12:23-07:00,3.9000790119171,4,versionC_stim.csv,READVersionD.csv,"Read Version D","Dissertation, read only version D",CAR,HAPPY,Study1,U,77,28,Test,User,-,,Recall,Recall2,3371,Driver,0,1721,2569,0,0,,1
5cd801d431d19f0019425e2e,g1qexg2mnv,Nick_Dissertation_EX1,1,298,2020-07-08T15:12:31-07:00,7.3664271831512,4,versionC_stim.csv,READVersionD.csv,"Read Version D","Dissertation, read only version D",BIRD,SWAN,Study1,B,14,21,Test,User,-,,Recall,Recall2,6824,Seagull,36.363636363636,4906,5922,0,0,,1
5cd801d431d19f0019425e2e,g1qexg2mnv,Nick_Dissertation_EX1,1,299,2020-07-08T15:12:32-07:00,1.893404006958,4,versionC_stim.csv,READVersionD.csv,"Read Version D","Dissertation, read only version D",VASE,KING,Study1,U,85,57,Test,User,-,,Recall,Recall2,1439,,0,-1,-1,0,0,,1
5cd801d431d19f0019425e2e,g1qexg2mnv,Nick_Dissertation_EX1,1,300,2020-07-08T15:12:37-07:00,4.0711669921875,4,versionC_stim.csv,READVersionD.csv,"Read Version D","Dissertation, read only version D",HUNGRY,PARK,Study1,U,68,15,Test,User,-,,Recall,Recall2,3575,Famine,20,1957,2637,0,0,,1
5cd801d431d19f0019425e2e,g1qexg2mnv,Nick_Dissertation_EX1,1,301,2020-07-08T15:12:39-07:00,2.9712598323822,4,versionC_stim.csv,READVersionD.csv,"Read Version D","Dissertation, read only version D",BAD,DELINQUENT,Study1,B,6,25,Test,User,-,,Recall,Recall2,2472,,0,-1,-1,0,0,,1
5cd801d431d19f0019425e2e,g1qexg2mnv,Nick_Dissertation_EX1,1,302,2020-07-08T15:12:44-07:00,4.7400770187378,4,versionC_stim.csv,READVersionD.csv,"Read Version D","Dissertation, read only version D",LIVER,KIDNEY,Study1,S,53,70,Test,User,-,,Recall,Recall2,4228,Kidney,100,2210,2962,1,1,,1
5cd801d431d19f0019425e2e,g1qexg2mnv,Nick_Dissertation_EX1,1,303,2020-07-08T15:12:48-07:00,3.9119560718536,4,versionC_stim.csv,READVersionD.csv,"Read Version D","Dissertation, read only version D",STENCH,SMELL,Study1,F,42,81,Test,User,-,,Recall,Recall2,3405,Smell,100,2011,2546,1,1,,1
5cd801d431d19f0019425e2e,g1qexg2mnv,Nick_Dissertation_EX1,1,304,2020-07-08T15:12:52-07:00,3.7189009189606,4,versionC_stim.csv,READVersionD.csv,"Read Version D","Dissertation, read only version D",CHEESE,WINE,Study1,S,57,64,Test,User,-,,Recall,Recall2,3193,Bread,22.222222222222,2110,2822,0,0,,1
5cd801d431d19f0019425e2e,g1qexg2mnv,Nick_Dissertation_EX1,1,305,2020-07-08T15:12:56-07:00,4.4459230899811,4,versionC_stim.csv,READVersionD.csv,"Read Version D","Dissertation, read only version D",SITE,LOCATION,Study1,S,48,82,Test,User,-,,Recall,Recall2,3960,Location,100,1695,2734,1,1,,1
5cd801d431d19f0019425e2e,g1qexg2mnv,Nick_Dissertation_EX1,1,306,2020-07-08T15:13:01-07:00,4.2103040218353,4,versionC_stim.csv,READVersionD.csv,"Read Version D","Dissertation, read only version D",SALAD,LETTUCE,Study1,S,59,17,Test,User,-,,Recall,Recall2,3694,Lettuce,100,1764,2812,1,1,,1
5cd801d431d19f0019425e2e,g1qexg2mnv,Nick_Dissertation_EX1,1,307,2020-07-08T15:13:05-07:00,4.472286939621,4,versionC_stim.csv,READVersionD.csv,"Read Version D","Dissertation, read only version D",WASTE,DUMP,Study1,S,49,14,Test,User,-,,Recall,Recall2,3918,Dump,100,2132,2676,1,1,,1
5cd801d431d19f0019425e2e,g1qexg2mnv,Nick_Dissertation_EX1,1,308,2020-07-08T15:13:07-07:00,2.0191509723663,4,versionC_stim.csv,READVersionD.csv,"Read Version D","Dissertation, read only version D",FLOWER,ORCHID,Study1,B,24,36,Test,User,-,,Recall,Recall2,1456,,0,-1,-1,0,0,,1
5cd801d431d19f0019425e2e,g1qexg2mnv,Nick_Dissertation_EX1,1,309,2020-07-08T15:13:13-07:00,5.6555709838867,4,versionC_stim.csv,READVersionD.csv,"Read Version D","Dissertation, read only version D",STOMACH,DIGESTION,Study1,B,7,43,Test,User,-,,Recall,Recall2,5154,Digestion,100,2583,3791,1,1,,1
5cd801d431d19f0019425e2e,g1qexg2mnv,Nick_Dissertation_EX1,1,310,2020-07-08T15:13:14-07:00,1.7726941108704,4,versionC_stim.csv,READVersionD.csv,"Read Version D","Dissertation, read only version D",CLEAN,HYGIENE,Study1,B,17,80,Test,User,-,,Recall,Recall2,1337,,0,-1,-1,0,0,,1
5cd801d431d19f0019425e2e,g1qexg2mnv,Nick_Dissertation_EX1,1,311,2020-07-08T15:13:17-07:00,2.1300220489502,4,versionC_stim.csv,READVersionD.csv,"Read Version D","Dissertation, read only version D",AMOUNT,NUMBER,Study1,S,47,19,Test,User,-,,Recall,Recall2,1741,,0,-1,-1,0,0,,1
5cd801d431d19f0019425e2e,g1qexg2mnv,Nick_Dissertation_EX1,1,312,2020-07-08T15:13:21-07:00,4.8931088447571,4,versionC_stim.csv,READVersionD.csv,"Read Version D","Dissertation, read only version D",BRONZE,ARTERY,Study1,U,74,20,Test,User,-,,Recall,Recall2,4390,Artery,100,2085,2979,1,1,,1
5cd801d431d19f0019425e2e,g1qexg2mnv,Nick_Dissertation_EX1,1,313,2020-07-08T15:13:27-07:00,5.1932520866394,4,versionC_stim.csv,READVersionD.csv,"Read Version D","Dissertation, read only version D",WASP,BUG,Study1,F,32,41,Test,User,-,,Recall,Recall2,4604,Sting,25,2611,3171,0,0,,1
5cd801d431d19f0019425e2e,g1qexg2mnv,Nick_Dissertation_EX1,1,314,2020-07-08T15:13:31-07:00,4.000205039978,4,versionC_stim.csv,READVersionD.csv,"Read Version D","Dissertation, read only version D",SIGHT,DEBATE,Study1,U,73,38,Test,User,-,,Recall,Recall2,3493,Sound,18.181818181818,1931,2514,0,0,,1
5cd801d431d19f0019425e2e,g1qexg2mnv,Nick_Dissertation_EX1,1,315,2020-07-08T15:13:42-07:00,11.599777936935,4,versionC_stim.csv,READVersionD.csv,"Read Version D","Dissertation, read only version D",DESIGN,ARCHITECTURE,Study1,S,51,75,Test,User,-,,Recall,Recall2,10460,Architecture,100,7339,9332,1,1,,1
5cd801d431d19f0019425e2e,g1qexg2mnv,Nick_Dissertation_EX1,1,316,2020-07-08T15:13:47-07:00,4.3118898868561,4,versionC_stim.csv,READVersionD.csv,"Read Version D","Dissertation, read only version D",ASSIGNMENT,DUE,Study1,S,46,76,Test,User,-,,Recall,Recall2,3662,Due,100,2285,2563,1,1,,1
5cd801d431d19f0019425e2e,g1qexg2mnv,Nick_Dissertation_EX1,1,317,2020-07-08T15:14:05-07:00,18.524624109268,4,versionC_stim.csv,READVersionD.csv,"Read Version D","Dissertation, read only version D",CLUTTER,PUSHER,Study1,U,66,30,Test,User,-,,Recall,Recall2,18008,,0,-1,-1,0,0,,1
5cd801d431d19f0019425e2e,g1qexg2mnv,Nick_Dissertation_EX1,1,318,2020-07-08T15:14:08-07:00,2.5655789375305,4,versionC_stim.csv,READVersionD.csv,"Read Version D","Dissertation, read only version D",BUSINESS,DEATH,Study1,U,72,66,Test,User,-,,Recall,Recall2,1923,,0,-1,-1,0,0,,1
5cd801d431d19f0019425e2e,g1qexg2mnv,Nick_Dissertation_EX1,1,319,2020-07-08T15:14:11-07:00,3.7610001564026,4,versionC_stim.csv,READVersionD.csv,"Read Version D","Dissertation, read only version D",CHILI,HOT,Study1,F,37,72,Test,User,-,,Recall,Recall2,3268,Hot,100,1874,2187,1,1,,1
5cd801d431d19f0019425e2e,g1qexg2mnv,Nick_Dissertation_EX1,1,320,2020-07-08T15:14:19-07:00,7.9492650032043,4,versionC_stim.csv,READVersionD.csv,"Read Version D","Dissertation, read only version D",OUT,WAY,Study1,B,16,44,Test,User,-,,Recall,Recall2,7435,Distant,20,5418,6315,0,0,,1
5cd801d431d19f0019425e2e,g1qexg2mnv,Nick_Dissertation_EX1,1,321,2020-07-08T15:14:21-07:00,2.0264508724213,4,versionC_stim.csv,READVersionD.csv,"Read Version D","Dissertation, read only version D",CHORE,WORK,Study1,F,39,42,Test,User,-,,Recall,Recall2,1517,,0,-1,-1,0,0,,1
5cd801d431d19f0019425e2e,g1qexg2mnv,Nick_Dissertation_EX1,1,322,2020-07-08T15:14:25-07:00,3.9935851097107,4,versionC_stim.csv,READVersionD.csv,"Read Version D","Dissertation, read only version D",STING,HORNET,Study1,B,11,74,Test,User,-,,Recall,Recall2,3441,Hornet,100,1693,2724,1,1,,1
5cd801d431d19f0019425e2e,g1qexg2mnv,Nick_Dissertation_EX1,1,323,2020-07-08T15:14:29-07:00,3.4275398254395,4,versionC_stim.csv,READVersionD.csv,"Read Version D","Dissertation, read only version D",BLAZE,FIRE,Study1,F,45,73,Test,User,-,,Recall,Recall2,2858,Fire,100,1512,2009,1,1,,1
5cd801d431d19f0019425e2e,g1qexg2mnv,Nick_Dissertation_EX1,1,324,2020-07-08T15:14:30-07:00,1.6322221755981,4,versionC_stim.csv,READVersionD.csv,"Read Version D","Dissertation, read only version D",HAND,FIX,Study1,U,75,16,Test,User,-,,Recall,Recall2,1206,,0,-1,-1,0,0,,1
5cd801d431d19f0019425e2e,g1qexg2mnv,Nick_Dissertation_EX1,1,325,2020-07-08T15:14:33-07:00,2.6081149578094,4,versionC_stim.csv,READVersionD.csv,"Read Version D","Dissertation, read only version D",POSITION,MACHINE,Study1,U,76,77,Test,User,-,,Recall,Recall2,2066,,0,-1,-1,0,0,,1
5cd801d431d19f0019425e2e,g1qexg2mnv,Nick_Dissertation_EX1,1,326,2020-07-08T15:14:38-07:00,4.4598679542542,4,versionC_stim.csv,READVersionD.csv,"Read Version D","Dissertation, read only version D",COLD,BITTER,Study1,B,12,65,Test,User,-,,Recall,Recall2,3957,Winter,66.666666666667,2195,3003,0,0,,1
5cd801d431d19f0019425e2e,g1qexg2mnv,Nick_Dissertation_EX1,1,327,2020-07-08T15:14:42-07:00,4.812607049942,4,versionC_stim.csv,READVersionD.csv,"Read Version D","Dissertation, read only version D",ATTIRE,CLOTHES,Study1,F,43,52,Test,User,-,,Recall,Recall2,4317,Clothing,66.666666666667,2177,3105,0,0,,1
5cd801d431d19f0019425e2e,g1qexg2mnv,Nick_Dissertation_EX1,1,328,2020-07-08T15:14:45-07:00,2.3501968383789,4,versionC_stim.csv,READVersionD.csv,"Read Version D","Dissertation, read only version D",SEIZE,TAKE,Study1,F,29,35,Test,User,-,,Recall,Recall2,1785,,0,-1,-1,0,0,,1
5cd801d431d19f0019425e2e,g1qexg2mnv,Nick_Dissertation_EX1,1,329,2020-07-08T15:14:48-07:00,3.3519761562347,4,versionC_stim.csv,READVersionD.csv,"Read Version D","Dissertation, read only version D",ENOUGH,FULL,Study1,F,26,63,Test,User,-,,Recall,Recall2,1790,,0,-1,-1,0,0,,1
5cd801d431d19f0019425e2e,g1qexg2mnv,Nick_Dissertation_EX1,1,330,2020-07-08T15:14:53-07:00,4.6566190719604,4,versionC_stim.csv,READVersionD.csv,"Read Version D","Dissertation, read only version D",ROCK,GEOLOGY,Study1,B,19,45,Test,User,-,,Recall,Recall2,4148,Geology,100,2032,2953,1,1,,1
5cd801d431d19f0019425e2e,g1qexg2mnv,Nick_Dissertation_EX1,1,331,2020-07-08T15:14:57-07:00,4.5453729629517,4,versionC_stim.csv,READVersionD.csv,"Read Version D","Dissertation, read only version D",PILOT,PLANE,Study1,F,44,86,Test,User,-,,Recall,Recall2,4038,Aircraft,15.384615384615,2093,3205,0,0,,1
5cd801d431d19f0019425e2e,g1qexg2mnv,Nick_Dissertation_EX1,1,332,2020-07-08T15:14:59-07:00,1.4714000225067,4,versionC_stim.csv,READVersionD.csv,"Read Version D","Dissertation, read only version D",DOG,PAW,Study1,B,15,50,Test,User,-,,Recall,Recall2,1055,,0,-1,-1,0,0,,1
5cd801d431d19f0019425e2e,g1qexg2mnv,Nick_Dissertation_EX1,1,333,2020-07-08T15:15:00-07:00,1.5998499393463,4,versionC_stim.csv,READVersionD.csv,"Read Version D","Dissertation, read only version D",CHILD,BABY,Study1,S,64,67,Test,User,-,,Recall,Recall2,1180,,0,-1,-1,0,0,,1
5cd801d431d19f0019425e2e,g1qexg2mnv,Nick_Dissertation_EX1,1,334,2020-07-08T15:15:07-07:00,7.1585118770599,4,versionC_stim.csv,READVersionD.csv,"Read Version D","Dissertation, read only version D",ACCIDENT,STRONG,Study1,U,80,7,Test,User,-,,Recall,Recall2,5643,Incident,14.285714285714,3257,4265,0,0,,1
5cd801d431d19f0019425e2e,g1qexg2mnv,Nick_Dissertation_EX1,1,335,2020-07-08T15:15:12-07:00,4.2619681358337,4,versionC_stim.csv,READVersionD.csv,"Read Version D","Dissertation, read only version D",FAMINE,HUNGER,Study1,F,40,53,Test,User,-,,Recall,Recall2,3773,Hunger,100,2218,2987,1,1,,1
5cd801d431d19f0019425e2e,g1qexg2mnv,Nick_Dissertation_EX1,1,336,2020-07-08T15:15:14-07:00,2.3659389019012,4,versionC_stim.csv,READVersionD.csv,"Read Version D","Dissertation, read only version D",CAVE,DARK,Study1,F,28,55,Test,User,-,,Recall,Recall2,1835,,0,-1,-1,0,0,,1
5cd801d431d19f0019425e2e,g1qexg2mnv,Nick_Dissertation_EX1,1,337,2020-07-08T15:15:18-07:00,4.2731199264526,4,versionC_stim.csv,READVersionD.csv,"Read Version D","Dissertation, read only version D",FUTURE,PAST,Study1,S,61,34,Test,User,-,,Recall,Recall2,3756,Past,100,2337,2954,1,1,,1
5cd801d431d19f0019425e2e,g1qexg2mnv,Nick_Dissertation_EX1,1,338,2020-07-08T15:15:21-07:00,2.6626682281494,4,versionC_stim.csv,READVersionD.csv,"Read Version D","Dissertation, read only version D",NEWS,EDITOR,Study1,B,10,32,Test,User,-,,Recall,Recall2,2108,,0,-1,-1,0,0,,1
5cd801d431d19f0019425e2e,g1qexg2mnv,Nick_Dissertation_EX1,1,339,2020-07-08T15:15:26-07:00,5.1816380023956,4,versionC_stim.csv,READVersionD.csv,"Read Version D","Dissertation, read only version D",END,BEGIN,Study1,S,54,39,Test,User,-,,Recall,Recall2,4687,Beginning,71.428571428571,2366,3494,0,0,,1
5cd801d431d19f0019425e2e,g1qexg2mnv,Nick_Dissertation_EX1,1,340,2020-07-08T15:15:31-07:00,5.0170338153839,4,versionC_stim.csv,READVersionD.csv,"Read Version D","Dissertation, read only version D",RACKET,BALL,Study1,F,38,48,Test,User,-,,Recall,Recall2,4469,Ball,100,2196,2619,1,1,,1
5cd801d431d19f0019425e2e,g1qexg2mnv,Nick_Dissertation_EX1,1,341,2020-07-08T15:15:38-07:00,7.072093963623,4,versionC_stim.csv,READVersionD.csv,"Read Version D","Dissertation, read only version D",CARD,CREDIT,Study1,B,23,11,Test,User,-,,Recall,Recall2,6566,Cash,20,4629,4980,0,0,,1
5cd801d431d19f0019425e2e,g1qexg2mnv,Nick_Dissertation_EX1,1,342,2020-07-08T15:15:55-07:00,16.862437009811,4,versionC_stim.csv,READVersionD.csv,"Read Version D","Dissertation, read only version D",COW,HERD,Study1,B,22,51,Test,User,-,,Recall,Recall2,16369,Calf,0,11687,15639,0,0,,1
5cd801d431d19f0019425e2e,g1qexg2mnv,Nick_Dissertation_EX1,1,343,2020-07-08T15:15:59-07:00,4.0793690681458,4,versionC_stim.csv,READVersionD.csv,"Read Version D","Dissertation, read only version D",WAR,REVOLUTION,Study1,B,20,62,Test,User,-,,Recall,Recall2,3519,Peace,13.333333333333,2309,2981,0,0,,1
5cd801d431d19f0019425e2e,g1qexg2mnv,Nick_Dissertation_EX1,1,344,2020-07-08T15:16:05-07:00,5.6469240188599,4,versionC_stim.csv,READVersionD.csv,"Read Version D","Dissertation, read only version D",TUCK,ALLOW,Study1,U,78,23,Test,User,-,,Recall,Recall2,4211,Allow,100,2490,3065,1,1,,1
5cd801d431d19f0019425e2e,g1qexg2mnv,Nick_Dissertation_EX1,1,345,2020-07-08T15:16:09-07:00,3.7900829315186,4,versionC_stim.csv,READVersionD.csv,"Read Version D","Dissertation, read only version D",LATCH,KEY,Study1,F,36,22,Test,User,-,,Recall,Recall2,3253,Key,100,2043,2323,1,1,,1
5cd801d431d19f0019425e2e,g1qexg2mnv,Nick_Dissertation_EX1,1,346,2020-07-08T15:16:11-07:00,1.9359509944916,4,versionC_stim.csv,READVersionD.csv,"Read Version D","Dissertation, read only version D",WORD,SENTENCE,Study1,F,31,84,Test,User,-,,Recall,Recall2,1483,,0,-1,-1,0,0,,1
