Username,ID,ExperimentName,Session,Trial,Date,TimeDif,"Condition Number","Stimuli File","Order File","Condition Description","Condition Notes",Stimuli*Cue,Stimuli*Answer,Stimuli*Shuffle,"Stimuli*Stimuli Notes",Stimuli*Value,Procedure*Item,"Procedure*Trial Type","Procedure*Max Time","Procedure*Min Time",Procedure*Text,"Procedure*Procedure Notes",Procedure*Shuffle,Response*RT,Response*Response,Response*Accuracy,Response*RTfirst,Response*RTlast,Response*strictAcc,Response*lenientAcc,Response*focus,Response*Focus
5f0452d558d1c26aa28f6d18,8g8cat30wl,Nick_Dissertation_EX1,1,1,2020-07-08T14:56:59-07:00,14.885668039322,4,versionC_stim.csv,READVersionD.csv,"Read Version D","Dissertation, read only version D",,,,,,0,Instruct,-,10,"Please study each of the following word pairs. Remember that your memory will be tested! When finished, press Enter to move to the next pair.",Initial_Instruct,Instruct1,13925,,,-1,-1,,,,1
5f0452d558d1c26aa28f6d18,8g8cat30wl,Nick_Dissertation_EX1,1,2,2020-07-08T14:57:03-07:00,4.3558528423309,4,versionC_stim.csv,READVersionD.csv,"Read Version D","Dissertation, read only version D",POTATO,CARROT,BUFFER3,Buffer,91,95,Study,User,-,,Study/JOL,BUFFER,3346,,,-1,-1,,,,1
5f0452d558d1c26aa28f6d18,8g8cat30wl,Nick_Dissertation_EX1,1,3,2020-07-08T14:57:06-07:00,2.809953212738,4,versionC_stim.csv,READVersionD.csv,"Read Version D","Dissertation, read only version D",ADVENTURE,CAMP,BUFFER3,Buffer,95,93,Study,User,-,,Study/JOL,BUFFER,1308,,,-1,-1,,,,1
5f0452d558d1c26aa28f6d18,8g8cat30wl,Nick_Dissertation_EX1,1,4,2020-07-08T14:57:10-07:00,3.551745891571,4,versionC_stim.csv,READVersionD.csv,"Read Version D","Dissertation, read only version D",STRING,NOODLE,BUFFER3,Buffer,92,96,Study,User,-,,Study/JOL,BUFFER,683,,,-1,-1,,,,1
5f0452d558d1c26aa28f6d18,8g8cat30wl,Nick_Dissertation_EX1,1,5,2020-07-08T14:57:11-07:00,1.4451129436493,4,versionC_stim.csv,READVersionD.csv,"Read Version D","Dissertation, read only version D",FISH,SHRIMP,BUFFER3,Buffer,93,92,Study,User,-,,Study/JOL,BUFFER,564,,,-1,-1,,,,1
5f0452d558d1c26aa28f6d18,8g8cat30wl,Nick_Dissertation_EX1,1,6,2020-07-08T14:57:13-07:00,1.6605479717255,4,versionC_stim.csv,READVersionD.csv,"Read Version D","Dissertation, read only version D",FROZEN,ICE,BUFFER3,Buffer,94,94,Study,User,-,,Study/JOL,BUFFER,715,,,-1,-1,,,,1
5f0452d558d1c26aa28f6d18,8g8cat30wl,Nick_Dissertation_EX1,1,7,2020-07-08T14:57:15-07:00,2.5747511386871,4,versionC_stim.csv,READVersionD.csv,"Read Version D","Dissertation, read only version D",BANG,FUZZY,Study2,U,168,122,Study,User,-,,Study/JOL,"Study Phase",698,,,-1,-1,,,,1
5f0452d558d1c26aa28f6d18,8g8cat30wl,Nick_Dissertation_EX1,1,8,2020-07-08T14:57:19-07:00,3.3183319568634,4,versionC_stim.csv,READVersionD.csv,"Read Version D","Dissertation, read only version D",TIE,SHOELACE,Study2,B,99,138,Study,User,-,,Study/JOL,"Study Phase",1642,,,-1,-1,,,,1
5f0452d558d1c26aa28f6d18,8g8cat30wl,Nick_Dissertation_EX1,1,9,2020-07-08T14:57:30-07:00,11.200576066971,4,versionC_stim.csv,READVersionD.csv,"Read Version D","Dissertation, read only version D",BRAWL,FIGHT,Study2,F,135,104,Study,User,-,,Study/JOL,"Study Phase",9919,,,-1,-1,,,,1
5f0452d558d1c26aa28f6d18,8g8cat30wl,Nick_Dissertation_EX1,1,10,2020-07-08T14:57:35-07:00,4.5971269607544,4,versionC_stim.csv,READVersionD.csv,"Read Version D","Dissertation, read only version D",CHARM,VEHICLE,Study2,U,160,145,Study,User,-,,Study/JOL,"Study Phase",3561,,,-1,-1,,,,1
5f0452d558d1c26aa28f6d18,8g8cat30wl,Nick_Dissertation_EX1,1,11,2020-07-08T14:57:36-07:00,1.7264928817749,4,versionC_stim.csv,READVersionD.csv,"Read Version D","Dissertation, read only version D",CARBON,ELEMENT,Study2,S,141,139,Study,User,-,,Study/JOL,"Study Phase",1001,,,-1,-1,,,,1
5f0452d558d1c26aa28f6d18,8g8cat30wl,Nick_Dissertation_EX1,1,12,2020-07-08T14:57:40-07:00,3.9433071613312,4,versionC_stim.csv,READVersionD.csv,"Read Version D","Dissertation, read only version D",LOVE,AFFECTION,Study2,B,115,128,Study,User,-,,Study/JOL,"Study Phase",2844,,,-1,-1,,,,1
5f0452d558d1c26aa28f6d18,8g8cat30wl,Nick_Dissertation_EX1,1,13,2020-07-08T14:57:43-07:00,2.2705659866333,4,versionC_stim.csv,READVersionD.csv,"Read Version D","Dissertation, read only version D",BANKER,MONEY,Study2,F,132,141,Study,User,-,,Study/JOL,"Study Phase",1151,,,-1,-1,,,,1
5f0452d558d1c26aa28f6d18,8g8cat30wl,Nick_Dissertation_EX1,1,14,2020-07-08T14:57:45-07:00,2.6825408935547,4,versionC_stim.csv,READVersionD.csv,"Read Version D","Dissertation, read only version D",DOG,FURRY,Study2,B,102,162,Study,User,-,,Study/JOL,"Study Phase",1082,,,-1,-1,,,,1
5f0452d558d1c26aa28f6d18,8g8cat30wl,Nick_Dissertation_EX1,1,15,2020-07-08T14:57:48-07:00,3.1328721046448,4,versionC_stim.csv,READVersionD.csv,"Read Version D","Dissertation, read only version D",ACTRESS,STAR,Study2,F,120,151,Study,User,-,,Study/JOL,"Study Phase",1230,,,-1,-1,,,,1
5f0452d558d1c26aa28f6d18,8g8cat30wl,Nick_Dissertation_EX1,1,16,2020-07-08T14:57:51-07:00,2.5425269603729,4,versionC_stim.csv,READVersionD.csv,"Read Version D","Dissertation, read only version D",VILLAIN,BAD,Study2,F,118,103,Study,User,-,,Study/JOL,"Study Phase",713,,,-1,-1,,,,1
5f0452d558d1c26aa28f6d18,8g8cat30wl,Nick_Dissertation_EX1,1,17,2020-07-08T14:57:53-07:00,2.5953729152679,4,versionC_stim.csv,READVersionD.csv,"Read Version D","Dissertation, read only version D",SIGN,LOAN,Study2,U,171,120,Study,User,-,,Study/JOL,"Study Phase",978,,,-1,-1,,,,1
5f0452d558d1c26aa28f6d18,8g8cat30wl,Nick_Dissertation_EX1,1,18,2020-07-08T14:57:57-07:00,3.4887371063232,4,versionC_stim.csv,READVersionD.csv,"Read Version D","Dissertation, read only version D",FLIP,TURN,Study2,F,116,169,Study,User,-,,Study/JOL,"Study Phase",1828,,,-1,-1,,,,1
5f0452d558d1c26aa28f6d18,8g8cat30wl,Nick_Dissertation_EX1,1,19,2020-07-08T14:57:59-07:00,1.7768139839172,4,versionC_stim.csv,READVersionD.csv,"Read Version D","Dissertation, read only version D",SARDINE,FISH,Study2,F,130,148,Study,User,-,,Study/JOL,"Study Phase",794,,,-1,-1,,,,1
5f0452d558d1c26aa28f6d18,8g8cat30wl,Nick_Dissertation_EX1,1,20,2020-07-08T14:58:01-07:00,2.3693370819092,4,versionC_stim.csv,READVersionD.csv,"Read Version D","Dissertation, read only version D",PLANT,CACTUS,Study2,B,98,154,Study,User,-,,Study/JOL,"Study Phase",1470,,,-1,-1,,,,1
5f0452d558d1c26aa28f6d18,8g8cat30wl,Nick_Dissertation_EX1,1,21,2020-07-08T14:58:03-07:00,1.5384178161621,4,versionC_stim.csv,READVersionD.csv,"Read Version D","Dissertation, read only version D",ABLE,CRACKLE,Study2,U,162,132,Study,User,-,,Study/JOL,"Study Phase",1043,,,-1,-1,,,,1
5f0452d558d1c26aa28f6d18,8g8cat30wl,Nick_Dissertation_EX1,1,22,2020-07-08T14:58:06-07:00,3.6475150585175,4,versionC_stim.csv,READVersionD.csv,"Read Version D","Dissertation, read only version D",LONELY,ALONE,Study2,S,145,168,Study,User,-,,Study/JOL,"Study Phase",1811,,,-1,-1,,,,1
5f0452d558d1c26aa28f6d18,8g8cat30wl,Nick_Dissertation_EX1,1,23,2020-07-08T14:58:08-07:00,1.5617270469666,4,versionC_stim.csv,READVersionD.csv,"Read Version D","Dissertation, read only version D",TEMPER,TANTRUM,Study2,S,154,156,Study,User,-,,Study/JOL,"Study Phase",749,,,-1,-1,,,,1
5f0452d558d1c26aa28f6d18,8g8cat30wl,Nick_Dissertation_EX1,1,24,2020-07-08T14:58:10-07:00,1.700651884079,4,versionC_stim.csv,READVersionD.csv,"Read Version D","Dissertation, read only version D",REVENGE,EVEN,Study2,F,122,150,Study,User,-,,Study/JOL,"Study Phase",726,,,-1,-1,,,,1
5f0452d558d1c26aa28f6d18,8g8cat30wl,Nick_Dissertation_EX1,1,25,2020-07-08T14:58:31-07:00,21.571329116821,4,versionC_stim.csv,READVersionD.csv,"Read Version D","Dissertation, read only version D",ELECTION,MAZE,Study2,U,159,123,Study,User,-,,Study/JOL,"Study Phase",2909,,,-1,-1,,,,1
5f0452d558d1c26aa28f6d18,8g8cat30wl,Nick_Dissertation_EX1,1,26,2020-07-08T14:58:33-07:00,2.2969400882721,4,versionC_stim.csv,READVersionD.csv,"Read Version D","Dissertation, read only version D",NAP,SLEEP,Study2,F,134,105,Study,User,-,,Study/JOL,"Study Phase",1288,,,-1,-1,,,,1
5f0452d558d1c26aa28f6d18,8g8cat30wl,Nick_Dissertation_EX1,1,27,2020-07-08T14:58:38-07:00,4.2805547714233,4,versionC_stim.csv,READVersionD.csv,"Read Version D","Dissertation, read only version D",MAROON,JUSTICE,Study2,U,156,97,Study,User,-,,Study/JOL,"Study Phase",3594,,,-1,-1,,,,1
5f0452d558d1c26aa28f6d18,8g8cat30wl,Nick_Dissertation_EX1,1,28,2020-07-08T14:58:40-07:00,2.4632031917572,4,versionC_stim.csv,READVersionD.csv,"Read Version D","Dissertation, read only version D",FICTION,LISTEN,Study2,U,164,134,Study,User,-,,Study/JOL,"Study Phase",2026,,,-1,-1,,,,1
5f0452d558d1c26aa28f6d18,8g8cat30wl,Nick_Dissertation_EX1,1,29,2020-07-08T14:58:43-07:00,2.4426519870758,4,versionC_stim.csv,READVersionD.csv,"Read Version D","Dissertation, read only version D",COMMUNICATION,PHONE,Study2,S,149,143,Study,User,-,,Study/JOL,"Study Phase",1900,,,-1,-1,,,,1
5f0452d558d1c26aa28f6d18,8g8cat30wl,Nick_Dissertation_EX1,1,30,2020-07-08T14:58:45-07:00,2.2215640544891,4,versionC_stim.csv,READVersionD.csv,"Read Version D","Dissertation, read only version D",MYSTERY,DETECTIVE,Study2,B,100,110,Study,User,-,,Study/JOL,"Study Phase",1517,,,-1,-1,,,,1
5f0452d558d1c26aa28f6d18,8g8cat30wl,Nick_Dissertation_EX1,1,31,2020-07-08T14:58:47-07:00,1.8555197715759,4,versionC_stim.csv,READVersionD.csv,"Read Version D","Dissertation, read only version D",PAPER,DOCUMENT,Study2,B,109,166,Study,User,-,,Study/JOL,"Study Phase",950,,,-1,-1,,,,1
5f0452d558d1c26aa28f6d18,8g8cat30wl,Nick_Dissertation_EX1,1,32,2020-07-08T14:58:50-07:00,2.8943161964417,4,versionC_stim.csv,READVersionD.csv,"Read Version D","Dissertation, read only version D",REEL,ROD,Study2,S,150,136,Study,User,-,,Study/JOL,"Study Phase",1032,,,-1,-1,,,,1
5f0452d558d1c26aa28f6d18,8g8cat30wl,Nick_Dissertation_EX1,1,33,2020-07-08T14:58:52-07:00,2.1798708438873,4,versionC_stim.csv,READVersionD.csv,"Read Version D","Dissertation, read only version D",SCISSORS,SHEARS,Study2,B,112,155,Study,User,-,,Study/JOL,"Study Phase",962,,,-1,-1,,,,1
5f0452d558d1c26aa28f6d18,8g8cat30wl,Nick_Dissertation_EX1,1,34,2020-07-08T14:58:54-07:00,1.7970261573792,4,versionC_stim.csv,READVersionD.csv,"Read Version D","Dissertation, read only version D",CLOTHES,CAKE,Study2,U,166,121,Study,User,-,,Study/JOL,"Study Phase",646,,,-1,-1,,,,1
5f0452d558d1c26aa28f6d18,8g8cat30wl,Nick_Dissertation_EX1,1,35,2020-07-08T14:59:04-07:00,10.404822826385,4,versionC_stim.csv,READVersionD.csv,"Read Version D","Dissertation, read only version D",AIRCRAFT,PLANE,Study2,F,129,127,Study,User,-,,Study/JOL,"Study Phase",1223,,,-1,-1,,,,1
5f0452d558d1c26aa28f6d18,8g8cat30wl,Nick_Dissertation_EX1,1,36,2020-07-08T14:59:08-07:00,3.7514200210571,4,versionC_stim.csv,READVersionD.csv,"Read Version D","Dissertation, read only version D",RED,CHERRY,Study2,B,104,129,Study,User,-,,Study/JOL,"Study Phase",2692,,,-1,-1,,,,1
5f0452d558d1c26aa28f6d18,8g8cat30wl,Nick_Dissertation_EX1,1,37,2020-07-08T14:59:11-07:00,2.9686951637268,4,versionC_stim.csv,READVersionD.csv,"Read Version D","Dissertation, read only version D",BRACELET,WRIST,Study2,S,140,171,Study,User,-,,Study/JOL,"Study Phase",2265,,,-1,-1,,,,1
5f0452d558d1c26aa28f6d18,8g8cat30wl,Nick_Dissertation_EX1,1,38,2020-07-08T14:59:12-07:00,1.7594377994537,4,versionC_stim.csv,READVersionD.csv,"Read Version D","Dissertation, read only version D",OUNCE,BOTH,Study2,U,172,175,Study,User,-,,Study/JOL,"Study Phase",739,,,-1,-1,,,,1
5f0452d558d1c26aa28f6d18,8g8cat30wl,Nick_Dissertation_EX1,1,39,2020-07-08T14:59:14-07:00,1.9328401088715,4,versionC_stim.csv,READVersionD.csv,"Read Version D","Dissertation, read only version D",LEAGUE,BASEBALL,Study2,F,131,115,Study,User,-,,Study/JOL,"Study Phase",1013,,,-1,-1,,,,1
5f0452d558d1c26aa28f6d18,8g8cat30wl,Nick_Dissertation_EX1,1,40,2020-07-08T14:59:18-07:00,3.6950960159302,4,versionC_stim.csv,READVersionD.csv,"Read Version D","Dissertation, read only version D",TICK,FLEA,Study2,S,151,152,Study,User,-,,Study/JOL,"Study Phase",2678,,,-1,-1,,,,1
5f0452d558d1c26aa28f6d18,8g8cat30wl,Nick_Dissertation_EX1,1,41,2020-07-08T14:59:21-07:00,2.8279690742493,4,versionC_stim.csv,READVersionD.csv,"Read Version D","Dissertation, read only version D",EQUAL,RIGHTS,Study2,S,137,109,Study,User,-,,Study/JOL,"Study Phase",1412,,,-1,-1,,,,1
5f0452d558d1c26aa28f6d18,8g8cat30wl,Nick_Dissertation_EX1,1,42,2020-07-08T14:59:25-07:00,4.1787269115448,4,versionC_stim.csv,READVersionD.csv,"Read Version D","Dissertation, read only version D",SCAR,MAIN,Study2,U,175,147,Study,User,-,,Study/JOL,"Study Phase",2972,,,-1,-1,,,,1
5f0452d558d1c26aa28f6d18,8g8cat30wl,Nick_Dissertation_EX1,1,43,2020-07-08T14:59:27-07:00,2.3090300559998,4,versionC_stim.csv,READVersionD.csv,"Read Version D","Dissertation, read only version D",HEAD,SCALP,Study2,B,105,142,Study,User,-,,Study/JOL,"Study Phase",1555,,,-1,-1,,,,1
5f0452d558d1c26aa28f6d18,8g8cat30wl,Nick_Dissertation_EX1,1,44,2020-07-08T14:59:31-07:00,3.3745708465576,4,versionC_stim.csv,READVersionD.csv,"Read Version D","Dissertation, read only version D",TRASH,LITTER,Study2,B,103,140,Study,User,-,,Study/JOL,"Study Phase",2183,,,-1,-1,,,,1
5f0452d558d1c26aa28f6d18,8g8cat30wl,Nick_Dissertation_EX1,1,45,2020-07-08T14:59:34-07:00,3.1833071708679,4,versionC_stim.csv,READVersionD.csv,"Read Version D","Dissertation, read only version D",TAN,SUN,Study2,S,155,125,Study,User,-,,Study/JOL,"Study Phase",1871,,,-1,-1,,,,1
5f0452d558d1c26aa28f6d18,8g8cat30wl,Nick_Dissertation_EX1,1,46,2020-07-08T14:59:37-07:00,3.2886109352112,4,versionC_stim.csv,READVersionD.csv,"Read Version D","Dissertation, read only version D",DONKEY,MULE,Study2,B,108,173,Study,User,-,,Study/JOL,"Study Phase",1572,,,-1,-1,,,,1
5f0452d558d1c26aa28f6d18,8g8cat30wl,Nick_Dissertation_EX1,1,47,2020-07-08T14:59:39-07:00,2.0524930953979,4,versionC_stim.csv,READVersionD.csv,"Read Version D","Dissertation, read only version D",CUT,CHOP,Study2,B,107,135,Study,User,-,,Study/JOL,"Study Phase",868,,,-1,-1,,,,1
5f0452d558d1c26aa28f6d18,8g8cat30wl,Nick_Dissertation_EX1,1,48,2020-07-08T14:59:42-07:00,2.3630628585815,4,versionC_stim.csv,READVersionD.csv,"Read Version D","Dissertation, read only version D",PENGUIN,BIRD,Study2,F,119,98,Study,User,-,,Study/JOL,"Study Phase",1176,,,-1,-1,,,,1
5f0452d558d1c26aa28f6d18,8g8cat30wl,Nick_Dissertation_EX1,1,49,2020-07-08T14:59:44-07:00,2.6276390552521,4,versionC_stim.csv,READVersionD.csv,"Read Version D","Dissertation, read only version D",PANTHER,CAT,Study2,F,126,99,Study,User,-,,Study/JOL,"Study Phase",1111,,,-1,-1,,,,1
5f0452d558d1c26aa28f6d18,8g8cat30wl,Nick_Dissertation_EX1,1,50,2020-07-08T14:59:46-07:00,2.1252589225769,4,versionC_stim.csv,READVersionD.csv,"Read Version D","Dissertation, read only version D",LONG,EXTENSION,Study2,B,96,157,Study,User,-,,Study/JOL,"Study Phase",1250,,,-1,-1,,,,1
5f0452d558d1c26aa28f6d18,8g8cat30wl,Nick_Dissertation_EX1,1,51,2020-07-08T14:59:49-07:00,2.2397871017456,4,versionC_stim.csv,READVersionD.csv,"Read Version D","Dissertation, read only version D",WAX,CANDLE,Study2,S,139,126,Study,User,-,,Study/JOL,"Study Phase",1120,,,-1,-1,,,,1
5f0452d558d1c26aa28f6d18,8g8cat30wl,Nick_Dissertation_EX1,1,52,2020-07-08T14:59:51-07:00,2.0970890522003,4,versionC_stim.csv,READVersionD.csv,"Read Version D","Dissertation, read only version D",COLD,CHILL,Study2,B,114,116,Study,User,-,,Study/JOL,"Study Phase",1154,,,-1,-1,,,,1
5f0452d558d1c26aa28f6d18,8g8cat30wl,Nick_Dissertation_EX1,1,53,2020-07-08T14:59:53-07:00,2.5016620159149,4,versionC_stim.csv,READVersionD.csv,"Read Version D","Dissertation, read only version D",GAME,CLUE,Study2,B,97,112,Study,User,-,,Study/JOL,"Study Phase",1307,,,-1,-1,,,,1
5f0452d558d1c26aa28f6d18,8g8cat30wl,Nick_Dissertation_EX1,1,54,2020-07-08T14:59:55-07:00,1.7031769752502,4,versionC_stim.csv,READVersionD.csv,"Read Version D","Dissertation, read only version D",GROUND,EARTH,Study2,S,144,133,Study,User,-,,Study/JOL,"Study Phase",934,,,-1,-1,,,,1
5f0452d558d1c26aa28f6d18,8g8cat30wl,Nick_Dissertation_EX1,1,55,2020-07-08T14:59:58-07:00,3.0246028900146,4,versionC_stim.csv,READVersionD.csv,"Read Version D","Dissertation, read only version D",WET,DRY,Study2,S,146,108,Study,User,-,,Study/JOL,"Study Phase",1090,,,-1,-1,,,,1
5f0452d558d1c26aa28f6d18,8g8cat30wl,Nick_Dissertation_EX1,1,56,2020-07-08T15:00:00-07:00,1.605859041214,4,versionC_stim.csv,READVersionD.csv,"Read Version D","Dissertation, read only version D",WINDSHIELD,CAR,Study2,F,117,163,Study,User,-,,Study/JOL,"Study Phase",653,,,-1,-1,,,,1
5f0452d558d1c26aa28f6d18,8g8cat30wl,Nick_Dissertation_EX1,1,57,2020-07-08T15:00:03-07:00,3.2277429103851,4,versionC_stim.csv,READVersionD.csv,"Read Version D","Dissertation, read only version D",BREAKABLE,GLASS,Study2,F,127,176,Study,User,-,,Study/JOL,"Study Phase",958,,,-1,-1,,,,1
5f0452d558d1c26aa28f6d18,8g8cat30wl,Nick_Dissertation_EX1,1,58,2020-07-08T15:00:08-07:00,5.5825200080872,4,versionC_stim.csv,READVersionD.csv,"Read Version D","Dissertation, read only version D",OBTAIN,MEAT,Study2,U,161,119,Study,User,-,,Study/JOL,"Study Phase",2915,,,-1,-1,,,,1
5f0452d558d1c26aa28f6d18,8g8cat30wl,Nick_Dissertation_EX1,1,59,2020-07-08T15:00:11-07:00,2.7110590934753,4,versionC_stim.csv,READVersionD.csv,"Read Version D","Dissertation, read only version D",CAR,DRIVER,Study2,B,106,118,Study,User,-,,Study/JOL,"Study Phase",1495,,,-1,-1,,,,1
5f0452d558d1c26aa28f6d18,8g8cat30wl,Nick_Dissertation_EX1,1,60,2020-07-08T15:00:13-07:00,1.6490800380707,4,versionC_stim.csv,READVersionD.csv,"Read Version D","Dissertation, read only version D",SMELL,INCENSE,Study2,B,110,101,Study,User,-,,Study/JOL,"Study Phase",734,,,-1,-1,,,,1
5f0452d558d1c26aa28f6d18,8g8cat30wl,Nick_Dissertation_EX1,1,61,2020-07-08T15:00:16-07:00,3.4968299865723,4,versionC_stim.csv,READVersionD.csv,"Read Version D","Dissertation, read only version D",BALLOON,POP,Study2,F,123,167,Study,User,-,,Study/JOL,"Study Phase",1672,,,-1,-1,,,,1
5f0452d558d1c26aa28f6d18,8g8cat30wl,Nick_Dissertation_EX1,1,62,2020-07-08T15:00:18-07:00,1.7611930370331,4,versionC_stim.csv,READVersionD.csv,"Read Version D","Dissertation, read only version D",Morning,TEMPERATURE,Study2,U,173,160,Study,User,-,,Study/JOL,"Study Phase",928,,,-1,-1,,,,1
5f0452d558d1c26aa28f6d18,8g8cat30wl,Nick_Dissertation_EX1,1,63,2020-07-08T15:00:20-07:00,1.5144197940826,4,versionC_stim.csv,READVersionD.csv,"Read Version D","Dissertation, read only version D",END,ADJOURN,Study2,B,101,158,Study,User,-,,Study/JOL,"Study Phase",692,,,-1,-1,,,,1
5f0452d558d1c26aa28f6d18,8g8cat30wl,Nick_Dissertation_EX1,1,64,2020-07-08T15:00:22-07:00,2.2867591381073,4,versionC_stim.csv,READVersionD.csv,"Read Version D","Dissertation, read only version D",FAVORITE,BEST,Study2,F,125,131,Study,User,-,,Study/JOL,"Study Phase",1367,,,-1,-1,,,,1
5f0452d558d1c26aa28f6d18,8g8cat30wl,Nick_Dissertation_EX1,1,65,2020-07-08T15:00:24-07:00,2.0613029003143,4,versionC_stim.csv,READVersionD.csv,"Read Version D","Dissertation, read only version D",TRUTHFUL,HONEST,Study2,F,133,130,Study,User,-,,Study/JOL,"Study Phase",942,,,-1,-1,,,,1
5f0452d558d1c26aa28f6d18,8g8cat30wl,Nick_Dissertation_EX1,1,66,2020-07-08T15:00:25-07:00,1.4948740005493,4,versionC_stim.csv,READVersionD.csv,"Read Version D","Dissertation, read only version D",EAT,DINE,Study2,B,111,149,Study,User,-,,Study/JOL,"Study Phase",711,,,-1,-1,,,,1
5f0452d558d1c26aa28f6d18,8g8cat30wl,Nick_Dissertation_EX1,1,67,2020-07-08T15:00:58-07:00,32.970712184906,4,versionC_stim.csv,READVersionD.csv,"Read Version D","Dissertation, read only version D",TOIL,LEASE,Study2,U,170,100,Study,User,-,,Study/JOL,"Study Phase",8678,,,-1,-1,,,,1
5f0452d558d1c26aa28f6d18,8g8cat30wl,Nick_Dissertation_EX1,1,68,2020-07-08T15:01:01-07:00,2.8833148479462,4,versionC_stim.csv,READVersionD.csv,"Read Version D","Dissertation, read only version D",FIGHT,FEUD,Study2,B,113,172,Study,User,-,,Study/JOL,"Study Phase",1830,,,-1,-1,,,,1
5f0452d558d1c26aa28f6d18,8g8cat30wl,Nick_Dissertation_EX1,1,69,2020-07-08T15:01:03-07:00,2.0691170692444,4,versionC_stim.csv,READVersionD.csv,"Read Version D","Dissertation, read only version D",STEAK,GIVE,Study2,U,158,165,Study,User,-,,Study/JOL,"Study Phase",783,,,-1,-1,,,,1
5f0452d558d1c26aa28f6d18,8g8cat30wl,Nick_Dissertation_EX1,1,70,2020-07-08T15:01:05-07:00,1.9491019248962,4,versionC_stim.csv,READVersionD.csv,"Read Version D","Dissertation, read only version D",HAVE,OWN,Study2,S,153,146,Study,User,-,,Study/JOL,"Study Phase",881,,,-1,-1,,,,1
5f0452d558d1c26aa28f6d18,8g8cat30wl,Nick_Dissertation_EX1,1,71,2020-07-08T15:01:08-07:00,2.581395149231,4,versionC_stim.csv,READVersionD.csv,"Read Version D","Dissertation, read only version D",SEATBELT,SAFETY,Study2,S,147,137,Study,User,-,,Study/JOL,"Study Phase",1177,,,-1,-1,,,,1
5f0452d558d1c26aa28f6d18,8g8cat30wl,Nick_Dissertation_EX1,1,72,2020-07-08T15:01:10-07:00,1.8582758903503,4,versionC_stim.csv,READVersionD.csv,"Read Version D","Dissertation, read only version D",AWAY,GONE,Study2,S,142,114,Study,User,-,,Study/JOL,"Study Phase",725,,,-1,-1,,,,1
5f0452d558d1c26aa28f6d18,8g8cat30wl,Nick_Dissertation_EX1,1,73,2020-07-08T15:01:12-07:00,1.8947710990906,4,versionC_stim.csv,READVersionD.csv,"Read Version D","Dissertation, read only version D",NOISE,LOUD,Study2,S,152,102,Study,User,-,,Study/JOL,"Study Phase",816,,,-1,-1,,,,1
5f0452d558d1c26aa28f6d18,8g8cat30wl,Nick_Dissertation_EX1,1,74,2020-07-08T15:01:13-07:00,1.6870908737183,4,versionC_stim.csv,READVersionD.csv,"Read Version D","Dissertation, read only version D",JOKE,KEYS,Study2,U,165,107,Study,User,-,,Study/JOL,"Study Phase",911,,,-1,-1,,,,1
5f0452d558d1c26aa28f6d18,8g8cat30wl,Nick_Dissertation_EX1,1,75,2020-07-08T15:01:16-07:00,2.71542096138,4,versionC_stim.csv,READVersionD.csv,"Read Version D","Dissertation, read only version D",LIE,TRUTH,Study2,S,148,106,Study,User,-,,Study/JOL,"Study Phase",1182,,,-1,-1,,,,1
5f0452d558d1c26aa28f6d18,8g8cat30wl,Nick_Dissertation_EX1,1,76,2020-07-08T15:01:53-07:00,37.292504072189,4,versionC_stim.csv,READVersionD.csv,"Read Version D","Dissertation, read only version D",CLEAR,MOAT,Study2,U,169,170,Study,User,-,,Study/JOL,"Study Phase",3371,,,-1,-1,,,,1
5f0452d558d1c26aa28f6d18,8g8cat30wl,Nick_Dissertation_EX1,1,77,2020-07-08T15:01:55-07:00,2.2440528869629,4,versionC_stim.csv,READVersionD.csv,"Read Version D","Dissertation, read only version D",SHAKE,Shell,Study2,U,163,117,Study,User,-,,Study/JOL,"Study Phase",1226,,,-1,-1,,,,1
5f0452d558d1c26aa28f6d18,8g8cat30wl,Nick_Dissertation_EX1,1,78,2020-07-08T15:01:58-07:00,2.2877562046051,4,versionC_stim.csv,READVersionD.csv,"Read Version D","Dissertation, read only version D",DRINK,WATER,Study2,S,143,159,Study,User,-,,Study/JOL,"Study Phase",1127,,,-1,-1,,,,1
5f0452d558d1c26aa28f6d18,8g8cat30wl,Nick_Dissertation_EX1,1,79,2020-07-08T15:02:00-07:00,1.8644068241119,4,versionC_stim.csv,READVersionD.csv,"Read Version D","Dissertation, read only version D",CLOTH,STRETCH,Study2,U,157,124,Study,User,-,,Study/JOL,"Study Phase",1243,,,-1,-1,,,,1
5f0452d558d1c26aa28f6d18,8g8cat30wl,Nick_Dissertation_EX1,1,80,2020-07-08T15:02:03-07:00,3.272500038147,4,versionC_stim.csv,READVersionD.csv,"Read Version D","Dissertation, read only version D",STRAWBERRY,FRUIT,Study2,F,124,144,Study,User,-,,Study/JOL,"Study Phase",1560,,,-1,-1,,,,1
5f0452d558d1c26aa28f6d18,8g8cat30wl,Nick_Dissertation_EX1,1,81,2020-07-08T15:02:05-07:00,2.1118869781494,4,versionC_stim.csv,READVersionD.csv,"Read Version D","Dissertation, read only version D",CHILDREN,MIRROR,Study2,U,174,153,Study,User,-,,Study/JOL,"Study Phase",1392,,,-1,-1,,,,1
5f0452d558d1c26aa28f6d18,8g8cat30wl,Nick_Dissertation_EX1,1,82,2020-07-08T15:02:08-07:00,2.5713729858398,4,versionC_stim.csv,READVersionD.csv,"Read Version D","Dissertation, read only version D",COFFIN,DEAD,Study2,F,128,164,Study,User,-,,Study/JOL,"Study Phase",1574,,,-1,-1,,,,1
5f0452d558d1c26aa28f6d18,8g8cat30wl,Nick_Dissertation_EX1,1,83,2020-07-08T15:02:12-07:00,4.5170660018921,4,versionC_stim.csv,READVersionD.csv,"Read Version D","Dissertation, read only version D",JAR,MASON,Study2,S,138,111,Study,User,-,,Study/JOL,"Study Phase",2025,,,-1,-1,,,,1
5f0452d558d1c26aa28f6d18,8g8cat30wl,Nick_Dissertation_EX1,1,84,2020-07-08T15:02:15-07:00,3.135528087616,4,versionC_stim.csv,READVersionD.csv,"Read Version D","Dissertation, read only version D",THIMBLE,THREAD,Study2,F,121,113,Study,User,-,,Study/JOL,"Study Phase",1870,,,-1,-1,,,,1
5f0452d558d1c26aa28f6d18,8g8cat30wl,Nick_Dissertation_EX1,1,85,2020-07-08T15:02:17-07:00,1.6763279438019,4,versionC_stim.csv,READVersionD.csv,"Read Version D","Dissertation, read only version D",SHAVE,RAZOR,Study2,S,136,174,Study,User,-,,Study/JOL,"Study Phase",855,,,-1,-1,,,,1
5f0452d558d1c26aa28f6d18,8g8cat30wl,Nick_Dissertation_EX1,1,86,2020-07-08T15:02:20-07:00,2.9431531429291,4,versionC_stim.csv,READVersionD.csv,"Read Version D","Dissertation, read only version D",HATE,NAME,Study2,U,167,161,Study,User,-,,Study/JOL,"Study Phase",2133,,,-1,-1,,,,1
5f0452d558d1c26aa28f6d18,8g8cat30wl,Nick_Dissertation_EX1,1,87,2020-07-08T15:02:24-07:00,3.7058238983154,4,versionC_stim.csv,READVersionD.csv,"Read Version D","Dissertation, read only version D",SPOOKY,OCTOBER,BUFFER4,Buffer,180,180,Study,User,-,,Study/JOL,BUFFER2,1366,,,-1,-1,,,,1
5f0452d558d1c26aa28f6d18,8g8cat30wl,Nick_Dissertation_EX1,1,88,2020-07-08T15:02:25-07:00,1.3069500923157,4,versionC_stim.csv,READVersionD.csv,"Read Version D","Dissertation, read only version D",YEAR,MONTH,BUFFER4,Buffer,177,181,Study,User,-,,Study/JOL,BUFFER2,630,,,-1,-1,,,,1
5f0452d558d1c26aa28f6d18,8g8cat30wl,Nick_Dissertation_EX1,1,89,2020-07-08T15:02:27-07:00,1.7496199607849,4,versionC_stim.csv,READVersionD.csv,"Read Version D","Dissertation, read only version D",MARCH,SPRING,BUFFER4,Buffer,179,178,Study,User,-,,Study/JOL,BUFFER2,831,,,-1,-1,,,,1
5f0452d558d1c26aa28f6d18,8g8cat30wl,Nick_Dissertation_EX1,1,90,2020-07-08T15:02:28-07:00,1.4255540370941,4,versionC_stim.csv,READVersionD.csv,"Read Version D","Dissertation, read only version D",WEAKS,DAYS,BUFFER4,Buffer,176,177,Study,User,-,,Study/JOL,BUFFER2,596,,,-1,-1,,,,1
5f0452d558d1c26aa28f6d18,8g8cat30wl,Nick_Dissertation_EX1,1,91,2020-07-08T15:02:30-07:00,1.7176849842072,4,versionC_stim.csv,READVersionD.csv,"Read Version D","Dissertation, read only version D",SHED,TOOL,BUFFER4,Buffer,178,179,Study,User,-,,Study/JOL,BUFFER2,738,,,-1,-1,,,,1
5f0452d558d1c26aa28f6d18,8g8cat30wl,Nick_Dissertation_EX1,1,92,2020-07-08T15:02:36-07:00,6.447233915329,4,versionC_stim.csv,READVersionD.csv,"Read Version D","Dissertation, read only version D",,,,,,0,Instruct,User,-,"You have completed this section. Please press Enter.",Filler_Instruction,Instruct2,5446,,,-1,-1,,,,1
5f0452d558d1c26aa28f6d18,8g8cat30wl,Nick_Dissertation_EX1,1,93,2020-07-08T15:04:38-07:00,121.39021801949,4,versionC_stim.csv,READVersionD.csv,"Read Version D","Dissertation, read only version D",,,,,,0,FreeRecall,120,120,"Please list the 50 US states in alphabetical order. The task will automatically advance to the next screen after two minutes.",,Filler1,120013,"Alabama Arkansas California Florida Georgia Illinois Missouri Missippi ",0,13125,117584,0,0,,1
5f0452d558d1c26aa28f6d18,8g8cat30wl,Nick_Dissertation_EX1,1,94,2020-07-08T15:04:56-07:00,18.683100938797,4,versionC_stim.csv,READVersionD.csv,"Read Version D","Dissertation, read only version D",,,,,,0,Instruct,-,10,"You will now be presented with the first word from each of the previously studied item pairs. Please type the missing word. If you do not know the word, you may guess or press Enter to skip forward to the next pair.",,Instruct3,15433,,,-1,-1,,,,1
5f0452d558d1c26aa28f6d18,8g8cat30wl,Nick_Dissertation_EX1,1,95,2020-07-08T15:05:07-07:00,11.122126102448,4,versionC_stim.csv,READVersionD.csv,"Read Version D","Dissertation, read only version D",BALLOON,POP,Study2,F,123,167,Test,User,-,,Recall,Recall1,10314,Float,25,7136,9232,0,0,,1
5f0452d558d1c26aa28f6d18,8g8cat30wl,Nick_Dissertation_EX1,1,96,2020-07-08T15:05:18-07:00,10.627689838409,4,versionC_stim.csv,READVersionD.csv,"Read Version D","Dissertation, read only version D",WAX,CANDLE,Study2,S,139,126,Test,User,-,,Recall,Recall1,9473,Sticky,16.666666666667,5964,8755,0,0,,1
5f0452d558d1c26aa28f6d18,8g8cat30wl,Nick_Dissertation_EX1,1,97,2020-07-08T15:05:33-07:00,14.6395611763,4,versionC_stim.csv,READVersionD.csv,"Read Version D","Dissertation, read only version D",CLEAR,MOAT,Study2,U,169,170,Test,User,-,,Recall,Recall1,12918,Cloudy,20,9234,12577,0,0,,1
5f0452d558d1c26aa28f6d18,8g8cat30wl,Nick_Dissertation_EX1,1,98,2020-07-08T15:05:39-07:00,6.3450808525085,4,versionC_stim.csv,READVersionD.csv,"Read Version D","Dissertation, read only version D",SCAR,MAIN,Study2,U,175,147,Test,User,-,,Recall,Recall1,5588,Pain,75,4027,4462,0,1,,1
5f0452d558d1c26aa28f6d18,8g8cat30wl,Nick_Dissertation_EX1,1,99,2020-07-08T15:05:45-07:00,5.777351140976,4,versionC_stim.csv,READVersionD.csv,"Read Version D","Dissertation, read only version D",END,ADJOURN,Study2,B,101,158,Test,User,-,,Recall,Recall1,4863,Start,33.333333333333,3280,3903,0,0,,1
5f0452d558d1c26aa28f6d18,8g8cat30wl,Nick_Dissertation_EX1,1,100,2020-07-08T15:05:55-07:00,10.037811040878,4,versionC_stim.csv,READVersionD.csv,"Read Version D","Dissertation, read only version D",CARBON,ELEMENT,Study2,S,141,139,Test,User,-,,Recall,Recall1,7910,Gas,0,6215,6829,0,0,,1
5f0452d558d1c26aa28f6d18,8g8cat30wl,Nick_Dissertation_EX1,1,101,2020-07-08T15:06:04-07:00,8.9422678947449,4,versionC_stim.csv,READVersionD.csv,"Read Version D","Dissertation, read only version D",FLIP,TURN,Study2,F,116,169,Test,User,-,,Recall,Recall1,6529,Turn,100,1920,5632,1,1,,1
5f0452d558d1c26aa28f6d18,8g8cat30wl,Nick_Dissertation_EX1,1,102,2020-07-08T15:06:13-07:00,8.7227339744568,4,versionC_stim.csv,READVersionD.csv,"Read Version D","Dissertation, read only version D",SEATBELT,SAFETY,Study2,S,147,137,Test,User,-,,Recall,Recall1,7904,Strap,36.363636363636,3161,7438,0,0,,1
5f0452d558d1c26aa28f6d18,8g8cat30wl,Nick_Dissertation_EX1,1,103,2020-07-08T15:06:25-07:00,12.198090076447,4,versionC_stim.csv,READVersionD.csv,"Read Version D","Dissertation, read only version D",NAP,SLEEP,Study2,F,134,105,Test,User,-,,Recall,Recall1,10247,Awake,20,7780,9501,0,0,,1
5f0452d558d1c26aa28f6d18,8g8cat30wl,Nick_Dissertation_EX1,1,104,2020-07-08T15:06:32-07:00,7.7501769065857,4,versionC_stim.csv,READVersionD.csv,"Read Version D","Dissertation, read only version D",DOG,FURRY,Study2,B,102,162,Test,User,-,,Recall,Recall1,7011,Animal,0,1629,3686,0,0,,1
5f0452d558d1c26aa28f6d18,8g8cat30wl,Nick_Dissertation_EX1,1,105,2020-07-08T15:06:38-07:00,5.8564910888672,4,versionC_stim.csv,READVersionD.csv,"Read Version D","Dissertation, read only version D",WET,DRY,Study2,S,146,108,Test,User,-,,Recall,Recall1,5019,Dry,100,3813,4298,1,1,,1
5f0452d558d1c26aa28f6d18,8g8cat30wl,Nick_Dissertation_EX1,1,106,2020-07-08T15:06:46-07:00,7.6272959709167,4,versionC_stim.csv,READVersionD.csv,"Read Version D","Dissertation, read only version D",THIMBLE,THREAD,Study2,F,121,113,Test,User,-,,Recall,Recall1,6625,Sew,22.222222222222,5175,6000,0,0,,1
5f0452d558d1c26aa28f6d18,8g8cat30wl,Nick_Dissertation_EX1,1,107,2020-07-08T15:06:52-07:00,5.6358189582825,4,versionC_stim.csv,READVersionD.csv,"Read Version D","Dissertation, read only version D",VILLAIN,BAD,Study2,F,118,103,Test,User,-,,Recall,Recall1,4796,Hero,0,1952,2476,0,0,,1
5f0452d558d1c26aa28f6d18,8g8cat30wl,Nick_Dissertation_EX1,1,108,2020-07-08T15:07:00-07:00,7.9597790241241,4,versionC_stim.csv,READVersionD.csv,"Read Version D","Dissertation, read only version D",PAPER,DOCUMENT,Study2,B,109,166,Test,User,-,,Recall,Recall1,5738,Plastic,13.333333333333,3654,5033,0,0,,1
5f0452d558d1c26aa28f6d18,8g8cat30wl,Nick_Dissertation_EX1,1,109,2020-07-08T15:07:19-07:00,19.799489974976,4,versionC_stim.csv,READVersionD.csv,"Read Version D","Dissertation, read only version D",SHAKE,Shell,Study2,U,163,117,Test,User,-,,Recall,Recall1,18671,Stop,22.222222222222,17336,18030,0,0,,1
5f0452d558d1c26aa28f6d18,8g8cat30wl,Nick_Dissertation_EX1,1,110,2020-07-08T15:07:25-07:00,5.7374770641327,4,versionC_stim.csv,READVersionD.csv,"Read Version D","Dissertation, read only version D",DONKEY,MULE,Study2,B,108,173,Test,User,-,,Recall,Recall1,4300,Horse,22.222222222222,2505,3284,0,0,,1
5f0452d558d1c26aa28f6d18,8g8cat30wl,Nick_Dissertation_EX1,1,111,2020-07-08T15:07:51-07:00,26.322385072708,4,versionC_stim.csv,READVersionD.csv,"Read Version D","Dissertation, read only version D",SHAVE,RAZOR,Study2,S,136,174,Test,User,-,,Recall,Recall1,24834,"not sure",30.769230769231,17871,23303,0,0,,1
5f0452d558d1c26aa28f6d18,8g8cat30wl,Nick_Dissertation_EX1,1,112,2020-07-08T15:08:13-07:00,22.005363941193,4,versionC_stim.csv,READVersionD.csv,"Read Version D","Dissertation, read only version D",ELECTION,MAZE,Study2,U,159,123,Test,User,-,,Recall,Recall1,4284,Vote,25,3134,3658,0,0,,1
5f0452d558d1c26aa28f6d18,8g8cat30wl,Nick_Dissertation_EX1,1,113,2020-07-08T15:08:21-07:00,7.8273329734802,4,versionC_stim.csv,READVersionD.csv,"Read Version D","Dissertation, read only version D",PANTHER,CAT,Study2,F,126,99,Test,User,-,,Recall,Recall1,4581,Cat,100,3076,3856,1,1,,1
5f0452d558d1c26aa28f6d18,8g8cat30wl,Nick_Dissertation_EX1,1,114,2020-07-08T15:08:34-07:00,12.835644006729,4,versionC_stim.csv,READVersionD.csv,"Read Version D","Dissertation, read only version D",REVENGE,EVEN,Study2,F,122,150,Test,User,-,,Recall,Recall1,11840,Forgiveness,40,9791,11500,0,0,,1
5f0452d558d1c26aa28f6d18,8g8cat30wl,Nick_Dissertation_EX1,1,115,2020-07-08T15:08:46-07:00,11.496676921844,4,versionC_stim.csv,READVersionD.csv,"Read Version D","Dissertation, read only version D",CAR,DRIVER,Study2,B,106,118,Test,User,-,,Recall,Recall1,10555,Bike,40,8830,9750,0,0,,1
5f0452d558d1c26aa28f6d18,8g8cat30wl,Nick_Dissertation_EX1,1,116,2020-07-08T15:08:51-07:00,5.8583490848541,4,versionC_stim.csv,READVersionD.csv,"Read Version D","Dissertation, read only version D",BANKER,MONEY,Study2,F,132,141,Test,User,-,,Recall,Recall1,3784,Money,100,1865,2893,1,1,,1
5f0452d558d1c26aa28f6d18,8g8cat30wl,Nick_Dissertation_EX1,1,117,2020-07-08T15:08:59-07:00,7.6995570659637,4,versionC_stim.csv,READVersionD.csv,"Read Version D","Dissertation, read only version D",TRASH,LITTER,Study2,B,103,140,Test,User,-,,Recall,Recall1,6365,Bin,22.222222222222,4657,5065,0,0,,1
5f0452d558d1c26aa28f6d18,8g8cat30wl,Nick_Dissertation_EX1,1,118,2020-07-08T15:09:08-07:00,9.3387889862061,4,versionC_stim.csv,READVersionD.csv,"Read Version D","Dissertation, read only version D",COLD,CHILL,Study2,B,114,116,Test,User,-,,Recall,Recall1,8590,Wet,0,1827,2441,0,0,,1
5f0452d558d1c26aa28f6d18,8g8cat30wl,Nick_Dissertation_EX1,1,119,2020-07-08T15:09:16-07:00,7.8929748535156,4,versionC_stim.csv,READVersionD.csv,"Read Version D","Dissertation, read only version D",SARDINE,FISH,Study2,F,130,148,Test,User,-,,Recall,Recall1,6607,Fish,100,5332,5867,1,1,,1
5f0452d558d1c26aa28f6d18,8g8cat30wl,Nick_Dissertation_EX1,1,120,2020-07-08T15:09:31-07:00,14.877668142319,4,versionC_stim.csv,READVersionD.csv,"Read Version D","Dissertation, read only version D",LONELY,ALONE,Study2,S,145,168,Test,User,-,,Recall,Recall1,13494,Sad,25,6867,12889,0,0,,1
5f0452d558d1c26aa28f6d18,8g8cat30wl,Nick_Dissertation_EX1,1,121,2020-07-08T15:09:39-07:00,7.4091429710388,4,versionC_stim.csv,READVersionD.csv,"Read Version D","Dissertation, read only version D",NOISE,LOUD,Study2,S,152,102,Test,User,-,,Recall,Recall1,6639,Quiet,22.222222222222,1951,5938,0,0,,1
5f0452d558d1c26aa28f6d18,8g8cat30wl,Nick_Dissertation_EX1,1,122,2020-07-08T15:10:26-07:00,47.804290056229,4,versionC_stim.csv,READVersionD.csv,"Read Version D","Dissertation, read only version D",MAROON,JUSTICE,Study2,U,156,97,Test,User,-,,Recall,Recall1,7141,Purple,30.769230769231,4976,6315,0,0,,1
5f0452d558d1c26aa28f6d18,8g8cat30wl,Nick_Dissertation_EX1,1,123,2020-07-08T15:10:35-07:00,8.7324068546295,4,versionC_stim.csv,READVersionD.csv,"Read Version D","Dissertation, read only version D",Morning,TEMPERATURE,Study2,U,173,160,Test,User,-,,Recall,Recall1,7461,Night,12.5,2264,4227,0,0,,1
5f0452d558d1c26aa28f6d18,8g8cat30wl,Nick_Dissertation_EX1,1,124,2020-07-08T15:10:40-07:00,4.3966469764709,4,versionC_stim.csv,READVersionD.csv,"Read Version D","Dissertation, read only version D",JOKE,KEYS,Study2,U,165,107,Test,User,-,,Recall,Recall1,3060,laugh,0,1881,2369,0,0,,1
5f0452d558d1c26aa28f6d18,8g8cat30wl,Nick_Dissertation_EX1,1,125,2020-07-08T15:10:47-07:00,7.3766450881958,4,versionC_stim.csv,READVersionD.csv,"Read Version D","Dissertation, read only version D",RED,CHERRY,Study2,B,104,129,Test,User,-,,Recall,Recall1,5243,white,36.363636363636,4170,4666,0,0,,1
5f0452d558d1c26aa28f6d18,8g8cat30wl,Nick_Dissertation_EX1,1,126,2020-07-08T15:10:52-07:00,4.7826368808746,4,versionC_stim.csv,READVersionD.csv,"Read Version D","Dissertation, read only version D",PENGUIN,BIRD,Study2,F,119,98,Test,User,-,,Recall,Recall1,3285,bird,100,1724,2574,1,1,,1
5f0452d558d1c26aa28f6d18,8g8cat30wl,Nick_Dissertation_EX1,1,127,2020-07-08T15:11:01-07:00,8.8281900882721,4,versionC_stim.csv,READVersionD.csv,"Read Version D","Dissertation, read only version D",TOIL,LEASE,Study2,U,170,100,Test,User,-,,Recall,Recall1,7689,unsure,36.363636363636,6384,7032,0,0,,1
5f0452d558d1c26aa28f6d18,8g8cat30wl,Nick_Dissertation_EX1,1,128,2020-07-08T15:11:06-07:00,5.4859380722046,4,versionC_stim.csv,READVersionD.csv,"Read Version D","Dissertation, read only version D",HATE,NAME,Study2,U,167,161,Test,User,-,,Recall,Recall1,3985,love,25,2452,2765,0,0,,1
5f0452d558d1c26aa28f6d18,8g8cat30wl,Nick_Dissertation_EX1,1,129,2020-07-08T15:11:16-07:00,9.5700929164886,4,versionC_stim.csv,READVersionD.csv,"Read Version D","Dissertation, read only version D",GAME,CLUE,Study2,B,97,112,Test,User,-,,Recall,Recall1,7361,play,25,6384,6711,0,0,,1
5f0452d558d1c26aa28f6d18,8g8cat30wl,Nick_Dissertation_EX1,1,130,2020-07-08T15:11:32-07:00,16.449949979782,4,versionC_stim.csv,READVersionD.csv,"Read Version D","Dissertation, read only version D",ABLE,CRACKLE,Study2,U,162,132,Test,User,-,,Recall,Recall1,15336,unable,46.153846153846,11923,12461,0,0,,1
5f0452d558d1c26aa28f6d18,8g8cat30wl,Nick_Dissertation_EX1,1,131,2020-07-08T15:11:39-07:00,6.838014125824,4,versionC_stim.csv,READVersionD.csv,"Read Version D","Dissertation, read only version D",AWAY,GONE,Study2,S,142,114,Test,User,-,,Recall,Recall1,5477,gone,100,4562,4931,1,1,,1
5f0452d558d1c26aa28f6d18,8g8cat30wl,Nick_Dissertation_EX1,1,132,2020-07-08T15:11:43-07:00,4.3000469207764,4,versionC_stim.csv,READVersionD.csv,"Read Version D","Dissertation, read only version D",TAN,SUN,Study2,S,155,125,Test,User,-,,Recall,Recall1,2675,sun,100,1782,2000,1,1,,1
5f0452d558d1c26aa28f6d18,8g8cat30wl,Nick_Dissertation_EX1,1,133,2020-07-08T15:11:49-07:00,5.3739030361176,4,versionC_stim.csv,READVersionD.csv,"Read Version D","Dissertation, read only version D",OUNCE,BOTH,Study2,U,172,175,Test,User,-,,Recall,Recall1,4194,measurement,13.333333333333,2105,3256,0,0,,1
5f0452d558d1c26aa28f6d18,8g8cat30wl,Nick_Dissertation_EX1,1,134,2020-07-08T15:11:58-07:00,9.7997949123383,4,versionC_stim.csv,READVersionD.csv,"Read Version D","Dissertation, read only version D",BANG,FUZZY,Study2,U,168,122,Test,User,-,,Recall,Recall1,8237,bomb,0,4850,6268,0,0,,1
5f0452d558d1c26aa28f6d18,8g8cat30wl,Nick_Dissertation_EX1,1,135,2020-07-08T15:12:04-07:00,5.5278820991516,4,versionC_stim.csv,READVersionD.csv,"Read Version D","Dissertation, read only version D",DRINK,WATER,Study2,S,143,159,Test,User,-,,Recall,Recall1,4598,juice,20,3882,4376,0,0,,1
5f0452d558d1c26aa28f6d18,8g8cat30wl,Nick_Dissertation_EX1,1,136,2020-07-08T15:12:09-07:00,4.6417050361633,4,versionC_stim.csv,READVersionD.csv,"Read Version D","Dissertation, read only version D",REEL,ROD,Study2,S,150,136,Test,User,-,,Recall,Recall1,3799,fish,0,2680,2976,0,0,,1
5f0452d558d1c26aa28f6d18,8g8cat30wl,Nick_Dissertation_EX1,1,137,2020-07-08T15:12:14-07:00,5.7954549789429,4,versionC_stim.csv,READVersionD.csv,"Read Version D","Dissertation, read only version D",LEAGUE,BASEBALL,Study2,F,131,115,Test,User,-,,Recall,Recall1,4338,table,46.153846153846,3565,4027,0,0,,1
5f0452d558d1c26aa28f6d18,8g8cat30wl,Nick_Dissertation_EX1,1,138,2020-07-08T15:12:19-07:00,4.986419916153,4,versionC_stim.csv,READVersionD.csv,"Read Version D","Dissertation, read only version D",EQUAL,RIGHTS,Study2,S,137,109,Test,User,-,,Recall,Recall1,4454,fair,20,3981,4263,0,0,,1
5f0452d558d1c26aa28f6d18,8g8cat30wl,Nick_Dissertation_EX1,1,139,2020-07-08T15:12:24-07:00,4.242574930191,4,versionC_stim.csv,READVersionD.csv,"Read Version D","Dissertation, read only version D",OBTAIN,MEAT,Study2,U,161,119,Test,User,-,,Recall,Recall1,3364,retain,40,2050,2603,0,0,,1
5f0452d558d1c26aa28f6d18,8g8cat30wl,Nick_Dissertation_EX1,1,140,2020-07-08T15:12:30-07:00,6.6703441143036,4,versionC_stim.csv,READVersionD.csv,"Read Version D","Dissertation, read only version D",SIGN,LOAN,Study2,U,171,120,Test,User,-,,Recall,Recall1,5831,write,0,4840,5264,0,0,,1
5f0452d558d1c26aa28f6d18,8g8cat30wl,Nick_Dissertation_EX1,1,141,2020-07-08T15:12:37-07:00,6.4395909309387,4,versionC_stim.csv,READVersionD.csv,"Read Version D","Dissertation, read only version D",STRAWBERRY,FRUIT,Study2,F,124,144,Test,User,-,,Recall,Recall1,4134,fruit,100,3044,3398,1,1,,1
5f0452d558d1c26aa28f6d18,8g8cat30wl,Nick_Dissertation_EX1,1,142,2020-07-08T15:12:41-07:00,4.7967600822449,4,versionC_stim.csv,READVersionD.csv,"Read Version D","Dissertation, read only version D",SMELL,INCENSE,Study2,B,110,101,Test,User,-,,Recall,Recall1,3943,nose,54.545454545455,3218,3547,0,0,,1
5f0452d558d1c26aa28f6d18,8g8cat30wl,Nick_Dissertation_EX1,1,143,2020-07-08T15:12:53-07:00,11.520844936371,4,versionC_stim.csv,READVersionD.csv,"Read Version D","Dissertation, read only version D",CHILDREN,MIRROR,Study2,U,174,153,Test,User,-,,Recall,Recall1,10767,young,18.181818181818,2976,10081,0,0,,1
5f0452d558d1c26aa28f6d18,8g8cat30wl,Nick_Dissertation_EX1,1,144,2020-07-08T15:13:00-07:00,6.6081399917603,4,versionC_stim.csv,READVersionD.csv,"Read Version D","Dissertation, read only version D",CLOTH,STRETCH,Study2,U,157,124,Test,User,-,,Recall,Recall1,5468,material,26.666666666667,3989,4823,0,0,,1
5f0452d558d1c26aa28f6d18,8g8cat30wl,Nick_Dissertation_EX1,1,145,2020-07-08T15:13:08-07:00,8.3543770313263,4,versionC_stim.csv,READVersionD.csv,"Read Version D","Dissertation, read only version D",TEMPER,TANTRUM,Study2,S,154,156,Test,User,-,,Recall,Recall1,7009,angry,50,5825,6388,0,0,,1
5f0452d558d1c26aa28f6d18,8g8cat30wl,Nick_Dissertation_EX1,1,146,2020-07-08T15:13:14-07:00,5.7770380973816,4,versionC_stim.csv,READVersionD.csv,"Read Version D","Dissertation, read only version D",CUT,CHOP,Study2,B,107,135,Test,User,-,,Recall,Recall1,4840,close,44.444444444444,4086,4579,0,0,,1
5f0452d558d1c26aa28f6d18,8g8cat30wl,Nick_Dissertation_EX1,1,147,2020-07-08T15:13:20-07:00,6.5165309906006,4,versionC_stim.csv,READVersionD.csv,"Read Version D","Dissertation, read only version D",AIRCRAFT,PLANE,Study2,F,129,127,Test,User,-,,Recall,Recall1,5066,plane,100,3928,4386,1,1,,1
5f0452d558d1c26aa28f6d18,8g8cat30wl,Nick_Dissertation_EX1,1,148,2020-07-08T15:13:26-07:00,6.2103199958801,4,versionC_stim.csv,READVersionD.csv,"Read Version D","Dissertation, read only version D",COFFIN,DEAD,Study2,F,128,164,Test,User,-,,Recall,Recall1,5411,wooden,40,3483,4075,0,0,,1
5f0452d558d1c26aa28f6d18,8g8cat30wl,Nick_Dissertation_EX1,1,149,2020-07-08T15:13:37-07:00,10.772936820984,4,versionC_stim.csv,READVersionD.csv,"Read Version D","Dissertation, read only version D",FAVORITE,BEST,Study2,F,125,131,Test,User,-,,Recall,Recall1,9610,"the best",66.666666666667,8241,8975,0,0,,1
5f0452d558d1c26aa28f6d18,8g8cat30wl,Nick_Dissertation_EX1,1,150,2020-07-08T15:13:42-07:00,4.5415949821472,4,versionC_stim.csv,READVersionD.csv,"Read Version D","Dissertation, read only version D",ACTRESS,STAR,Study2,F,120,151,Test,User,-,,Recall,Recall1,3265,actor,44.444444444444,1526,2235,0,0,,1
5f0452d558d1c26aa28f6d18,8g8cat30wl,Nick_Dissertation_EX1,1,151,2020-07-08T15:13:46-07:00,4.6368582248688,4,versionC_stim.csv,READVersionD.csv,"Read Version D","Dissertation, read only version D",GROUND,EARTH,Study2,S,144,133,Test,User,-,,Recall,Recall1,3607,sky,0,2682,2941,0,0,,1
5f0452d558d1c26aa28f6d18,8g8cat30wl,Nick_Dissertation_EX1,1,152,2020-07-08T15:13:55-07:00,8.904139995575,4,versionC_stim.csv,READVersionD.csv,"Read Version D","Dissertation, read only version D",HAVE,OWN,Study2,S,153,146,Test,User,-,,Recall,Recall1,8284,"not have",18.181818181818,3982,7579,0,0,,1
5f0452d558d1c26aa28f6d18,8g8cat30wl,Nick_Dissertation_EX1,1,153,2020-07-08T15:14:03-07:00,7.9724748134613,4,versionC_stim.csv,READVersionD.csv,"Read Version D","Dissertation, read only version D",EAT,DINE,Study2,B,111,149,Test,User,-,,Recall,Recall1,5692,food,25,4711,5167,0,0,,1
5f0452d558d1c26aa28f6d18,8g8cat30wl,Nick_Dissertation_EX1,1,154,2020-07-08T15:14:08-07:00,4.5391080379486,4,versionC_stim.csv,READVersionD.csv,"Read Version D","Dissertation, read only version D",LONG,EXTENSION,Study2,B,96,157,Test,User,-,,Recall,Recall1,2907,short,28.571428571429,1972,2505,0,0,,1
5f0452d558d1c26aa28f6d18,8g8cat30wl,Nick_Dissertation_EX1,1,155,2020-07-08T15:14:28-07:00,20.219836950302,4,versionC_stim.csv,READVersionD.csv,"Read Version D","Dissertation, read only version D",MYSTERY,DETECTIVE,Study2,B,100,110,Test,User,-,,Recall,Recall1,19034,enigma,26.666666666667,11076,18449,0,0,,1
5f0452d558d1c26aa28f6d18,8g8cat30wl,Nick_Dissertation_EX1,1,156,2020-07-08T15:14:32-07:00,3.9522531032562,4,versionC_stim.csv,READVersionD.csv,"Read Version D","Dissertation, read only version D",LIE,TRUTH,Study2,S,148,106,Test,User,-,,Recall,Recall1,2807,truth,100,1933,2310,1,1,,1
5f0452d558d1c26aa28f6d18,8g8cat30wl,Nick_Dissertation_EX1,1,157,2020-07-08T15:14:42-07:00,10.189620018005,4,versionC_stim.csv,READVersionD.csv,"Read Version D","Dissertation, read only version D",FICTION,LISTEN,Study2,U,164,134,Test,User,-,,Recall,Recall1,8494,stories,46.153846153846,2963,8142,0,0,,1
5f0452d558d1c26aa28f6d18,8g8cat30wl,Nick_Dissertation_EX1,1,158,2020-07-08T15:14:46-07:00,4.1368210315704,4,versionC_stim.csv,READVersionD.csv,"Read Version D","Dissertation, read only version D",BRAWL,FIGHT,Study2,F,135,104,Test,User,-,,Recall,Recall1,3164,fight,100,2067,2469,1,1,,1
5f0452d558d1c26aa28f6d18,8g8cat30wl,Nick_Dissertation_EX1,1,159,2020-07-08T15:14:52-07:00,6.0656290054321,4,versionC_stim.csv,READVersionD.csv,"Read Version D","Dissertation, read only version D",TRUTHFUL,HONEST,Study2,F,133,130,Test,User,-,,Recall,Recall1,4084,honest,100,2316,2878,1,1,,1
5f0452d558d1c26aa28f6d18,8g8cat30wl,Nick_Dissertation_EX1,1,160,2020-07-08T15:15:00-07:00,7.3861780166626,4,versionC_stim.csv,READVersionD.csv,"Read Version D","Dissertation, read only version D",COMMUNICATION,PHONE,Study2,S,149,143,Test,User,-,,Recall,Recall1,6708,talking,16.666666666667,5493,6137,0,0,,1
5f0452d558d1c26aa28f6d18,8g8cat30wl,Nick_Dissertation_EX1,1,161,2020-07-08T15:15:10-07:00,10.077982902527,4,versionC_stim.csv,READVersionD.csv,"Read Version D","Dissertation, read only version D",CLOTHES,CAKE,Study2,U,166,121,Test,User,-,,Recall,Recall1,8872,dresses,18.181818181818,6809,7821,0,0,,1
5f0452d558d1c26aa28f6d18,8g8cat30wl,Nick_Dissertation_EX1,1,162,2020-07-08T15:15:14-07:00,4.4416921138763,4,versionC_stim.csv,READVersionD.csv,"Read Version D","Dissertation, read only version D",TICK,FLEA,Study2,S,151,152,Test,User,-,,Recall,Recall1,3551,cross,0,2613,3220,0,0,,1
5f0452d558d1c26aa28f6d18,8g8cat30wl,Nick_Dissertation_EX1,1,163,2020-07-08T15:15:23-07:00,8.6949207782745,4,versionC_stim.csv,READVersionD.csv,"Read Version D","Dissertation, read only version D",PLANT,CACTUS,Study2,B,98,154,Test,User,-,,Recall,Recall1,5862,trees,36.363636363636,2360,4696,0,0,,1
5f0452d558d1c26aa28f6d18,8g8cat30wl,Nick_Dissertation_EX1,1,164,2020-07-08T15:15:33-07:00,10.150260210037,4,versionC_stim.csv,READVersionD.csv,"Read Version D","Dissertation, read only version D",CHARM,VEHICLE,Study2,U,160,145,Test,User,-,,Recall,Recall1,7987,unsure,15.384615384615,5434,7397,0,0,,1
5f0452d558d1c26aa28f6d18,8g8cat30wl,Nick_Dissertation_EX1,1,165,2020-07-08T15:15:40-07:00,6.4237849712372,4,versionC_stim.csv,READVersionD.csv,"Read Version D","Dissertation, read only version D",BRACELET,WRIST,Study2,S,140,171,Test,User,-,,Recall,Recall1,4832,jewellery,28.571428571429,2403,4051,0,0,,1
5f0452d558d1c26aa28f6d18,8g8cat30wl,Nick_Dissertation_EX1,1,166,2020-07-08T15:15:48-07:00,8.4451358318329,4,versionC_stim.csv,READVersionD.csv,"Read Version D","Dissertation, read only version D",HEAD,SCALP,Study2,B,105,142,Test,User,-,,Recall,Recall1,7593,skull,40,3876,7327,0,0,,1
5f0452d558d1c26aa28f6d18,8g8cat30wl,Nick_Dissertation_EX1,1,167,2020-07-08T15:16:40-07:00,51.765739202499,4,versionC_stim.csv,READVersionD.csv,"Read Version D","Dissertation, read only version D",FIGHT,FEUD,Study2,B,113,172,Test,User,-,,Recall,Recall1,8787,pain,0,5536,8471,0,0,,1
5f0452d558d1c26aa28f6d18,8g8cat30wl,Nick_Dissertation_EX1,1,168,2020-07-08T15:16:45-07:00,4.7648859024048,4,versionC_stim.csv,READVersionD.csv,"Read Version D","Dissertation, read only version D",STEAK,GIVE,Study2,U,158,165,Test,User,-,,Recall,Recall1,3939,beef,25,2446,2813,0,0,,1
5f0452d558d1c26aa28f6d18,8g8cat30wl,Nick_Dissertation_EX1,1,169,2020-07-08T15:16:51-07:00,6.224417924881,4,versionC_stim.csv,READVersionD.csv,"Read Version D","Dissertation, read only version D",JAR,MASON,Study2,S,138,111,Test,User,-,,Recall,Recall1,5344,tub,0,4805,5032,0,0,,1
5f0452d558d1c26aa28f6d18,8g8cat30wl,Nick_Dissertation_EX1,1,170,2020-07-08T15:17:29-07:00,38.566967010498,4,versionC_stim.csv,READVersionD.csv,"Read Version D","Dissertation, read only version D",LOVE,AFFECTION,Study2,B,115,128,Test,User,-,,Recall,Recall1,5549,affection,100,3108,4768,1,1,,1
5f0452d558d1c26aa28f6d18,8g8cat30wl,Nick_Dissertation_EX1,1,171,2020-07-08T15:17:38-07:00,8.4348740577698,4,versionC_stim.csv,READVersionD.csv,"Read Version D","Dissertation, read only version D",SCISSORS,SHEARS,Study2,B,112,155,Test,User,-,,Recall,Recall1,7718,razor,18.181818181818,3076,6992,0,0,,1
5f0452d558d1c26aa28f6d18,8g8cat30wl,Nick_Dissertation_EX1,1,172,2020-07-08T15:17:41-07:00,3.691015958786,4,versionC_stim.csv,READVersionD.csv,"Read Version D","Dissertation, read only version D",TIE,SHOELACE,Study2,B,99,138,Test,User,-,,Recall,Recall1,2376,bow,18.181818181818,1835,2065,0,0,,1
5f0452d558d1c26aa28f6d18,8g8cat30wl,Nick_Dissertation_EX1,1,173,2020-07-08T15:17:45-07:00,3.8169119358063,4,versionC_stim.csv,READVersionD.csv,"Read Version D","Dissertation, read only version D",WINDSHIELD,CAR,Study2,F,117,163,Test,User,-,,Recall,Recall1,2725,car,100,1567,1955,1,1,,1
5f0452d558d1c26aa28f6d18,8g8cat30wl,Nick_Dissertation_EX1,1,174,2020-07-08T15:18:18-07:00,32.689720153809,4,versionC_stim.csv,READVersionD.csv,"Read Version D","Dissertation, read only version D",BREAKABLE,GLASS,Study2,F,127,176,Test,User,-,,Recall,Recall1,10848,fragile,16.666666666667,8493,10525,0,0,,1
5f0452d558d1c26aa28f6d18,8g8cat30wl,Nick_Dissertation_EX1,1,175,2020-07-08T15:18:31-07:00,12.532624006271,4,versionC_stim.csv,READVersionD.csv,"Read Version D","Dissertation, read only version D",,,,,,0,Instruct,-,10,"You will now be presented with a new set of word pairs. Please study each pair. Remember that your memory will be tested! When finished, press Enter to move to the next pair.",Initial_Instruct,Instruct4,11152,,,-1,-1,,,,1
5f0452d558d1c26aa28f6d18,8g8cat30wl,Nick_Dissertation_EX1,1,176,2020-07-08T15:18:33-07:00,2.8060028553009,4,versionC_stim.csv,READVersionD.csv,"Read Version D","Dissertation, read only version D",BUTTER,PEANUT,BUFFER1,Buffer,3,2,Study,User,-,,Study/JOL,BUFFER3,1675,,,-1,-1,,,,1
5f0452d558d1c26aa28f6d18,8g8cat30wl,Nick_Dissertation_EX1,1,177,2020-07-08T15:18:36-07:00,3.0534000396729,4,versionC_stim.csv,READVersionD.csv,"Read Version D","Dissertation, read only version D",JAM,SPACE,BUFFER1,Buffer,5,4,Study,User,-,,Study/JOL,BUFFER3,1862,,,-1,-1,,,,1
5f0452d558d1c26aa28f6d18,8g8cat30wl,Nick_Dissertation_EX1,1,178,2020-07-08T15:18:39-07:00,2.9877400398254,4,versionC_stim.csv,READVersionD.csv,"Read Version D","Dissertation, read only version D",CATCHER,BASEBALL,BUFFER1,Buffer,2,6,Study,User,-,,Study/JOL,BUFFER3,1514,,,-1,-1,,,,1
5f0452d558d1c26aa28f6d18,8g8cat30wl,Nick_Dissertation_EX1,1,179,2020-07-08T15:18:45-07:00,5.846107006073,4,versionC_stim.csv,READVersionD.csv,"Read Version D","Dissertation, read only version D",HIDE,SCARE,BUFFER1,Buffer,4,3,Study,User,-,,Study/JOL,BUFFER3,3396,,,-1,-1,,,,1
5f0452d558d1c26aa28f6d18,8g8cat30wl,Nick_Dissertation_EX1,1,180,2020-07-08T15:18:47-07:00,1.8289000988007,4,versionC_stim.csv,READVersionD.csv,"Read Version D","Dissertation, read only version D",GREEN,TREES,BUFFER1,Buffer,1,5,Study,User,-,,Study/JOL,BUFFER3,959,,,-1,-1,,,,1
5f0452d558d1c26aa28f6d18,8g8cat30wl,Nick_Dissertation_EX1,1,181,2020-07-08T15:19:18-07:00,31.394261837006,4,versionC_stim.csv,READVersionD.csv,"Read Version D","Dissertation, read only version D",ATTIRE,CLOTHES,Study1,F,43,83,Study,User,-,,Study/JOL,"Study Phase2",2065,,,-1,-1,,,,1
5f0452d558d1c26aa28f6d18,8g8cat30wl,Nick_Dissertation_EX1,1,182,2020-07-08T15:19:23-07:00,4.4702470302582,4,versionC_stim.csv,READVersionD.csv,"Read Version D","Dissertation, read only version D",COLD,BITTER,Study1,B,12,7,Study,User,-,,Study/JOL,"Study Phase2",3382,,,-1,-1,,,,1
5f0452d558d1c26aa28f6d18,8g8cat30wl,Nick_Dissertation_EX1,1,183,2020-07-08T15:19:25-07:00,2.0868060588837,4,versionC_stim.csv,READVersionD.csv,"Read Version D","Dissertation, read only version D",LION,ART,Study1,U,79,12,Study,User,-,,Study/JOL,"Study Phase2",1189,,,-1,-1,,,,1
5f0452d558d1c26aa28f6d18,8g8cat30wl,Nick_Dissertation_EX1,1,184,2020-07-08T15:19:27-07:00,2.4294140338898,4,versionC_stim.csv,READVersionD.csv,"Read Version D","Dissertation, read only version D",DIVISION,MATH,Study1,F,33,28,Study,User,-,,Study/JOL,"Study Phase2",1377,,,-1,-1,,,,1
5f0452d558d1c26aa28f6d18,8g8cat30wl,Nick_Dissertation_EX1,1,185,2020-07-08T15:19:30-07:00,2.5112159252167,4,versionC_stim.csv,READVersionD.csv,"Read Version D","Dissertation, read only version D",CAVE,DARK,Study1,F,28,39,Study,User,-,,Study/JOL,"Study Phase2",1028,,,-1,-1,,,,1
5f0452d558d1c26aa28f6d18,8g8cat30wl,Nick_Dissertation_EX1,1,186,2020-07-08T15:19:31-07:00,1.5320310592651,4,versionC_stim.csv,READVersionD.csv,"Read Version D","Dissertation, read only version D",WASP,BUG,Study1,F,32,64,Study,User,-,,Study/JOL,"Study Phase2",1077,,,-1,-1,,,,1
5f0452d558d1c26aa28f6d18,8g8cat30wl,Nick_Dissertation_EX1,1,187,2020-07-08T15:19:34-07:00,2.1305830478668,4,versionC_stim.csv,READVersionD.csv,"Read Version D","Dissertation, read only version D",WIND,BLOW,Study1,S,55,37,Study,User,-,,Study/JOL,"Study Phase2",854,,,-1,-1,,,,1
5f0452d558d1c26aa28f6d18,8g8cat30wl,Nick_Dissertation_EX1,1,188,2020-07-08T15:19:35-07:00,1.5434758663177,4,versionC_stim.csv,READVersionD.csv,"Read Version D","Dissertation, read only version D",AMOUNT,NUMBER,Study1,S,47,67,Study,User,-,,Study/JOL,"Study Phase2",627,,,-1,-1,,,,1
5f0452d558d1c26aa28f6d18,8g8cat30wl,Nick_Dissertation_EX1,1,189,2020-07-08T15:19:37-07:00,2.0983829498291,4,versionC_stim.csv,READVersionD.csv,"Read Version D","Dissertation, read only version D",DESIGN,ARCHITECTURE,Study1,S,51,21,Study,User,-,,Study/JOL,"Study Phase2",1299,,,-1,-1,,,,1
5f0452d558d1c26aa28f6d18,8g8cat30wl,Nick_Dissertation_EX1,1,190,2020-07-08T15:19:39-07:00,1.6527581214905,4,versionC_stim.csv,READVersionD.csv,"Read Version D","Dissertation, read only version D",ATTORNEY,LAW,Study1,F,34,23,Study,User,-,,Study/JOL,"Study Phase2",675,,,-1,-1,,,,1
5f0452d558d1c26aa28f6d18,8g8cat30wl,Nick_Dissertation_EX1,1,191,2020-07-08T15:19:40-07:00,1.1343989372253,4,versionC_stim.csv,READVersionD.csv,"Read Version D","Dissertation, read only version D",TOILET,BATHROOM,Study1,S,58,60,Study,User,-,,Study/JOL,"Study Phase2",674,,,-1,-1,,,,1
5f0452d558d1c26aa28f6d18,8g8cat30wl,Nick_Dissertation_EX1,1,192,2020-07-08T15:19:42-07:00,1.6386590003967,4,versionC_stim.csv,READVersionD.csv,"Read Version D","Dissertation, read only version D",MONEY,WAGE,Study1,B,8,65,Study,User,-,,Study/JOL,"Study Phase2",560,,,-1,-1,,,,1
5f0452d558d1c26aa28f6d18,8g8cat30wl,Nick_Dissertation_EX1,1,193,2020-07-08T15:19:44-07:00,2.6684429645538,4,versionC_stim.csv,READVersionD.csv,"Read Version D","Dissertation, read only version D",WASTE,DUMP,Study1,S,49,26,Study,User,-,,Study/JOL,"Study Phase2",762,,,-1,-1,,,,1
5f0452d558d1c26aa28f6d18,8g8cat30wl,Nick_Dissertation_EX1,1,194,2020-07-08T15:19:47-07:00,2.4318740367889,4,versionC_stim.csv,READVersionD.csv,"Read Version D","Dissertation, read only version D",BLAZE,FIRE,Study1,F,45,14,Study,User,-,,Study/JOL,"Study Phase2",539,,,-1,-1,,,,1
5f0452d558d1c26aa28f6d18,8g8cat30wl,Nick_Dissertation_EX1,1,195,2020-07-08T15:19:48-07:00,1.3506669998169,4,versionC_stim.csv,READVersionD.csv,"Read Version D","Dissertation, read only version D",GROWTH,HEIGHT,Study1,F,30,20,Study,User,-,,Study/JOL,"Study Phase2",504,,,-1,-1,,,,1
5f0452d558d1c26aa28f6d18,8g8cat30wl,Nick_Dissertation_EX1,1,196,2020-07-08T15:19:49-07:00,1.376317024231,4,versionC_stim.csv,READVersionD.csv,"Read Version D","Dissertation, read only version D",CHILD,BABY,Study1,S,64,66,Study,User,-,,Study/JOL,"Study Phase2",564,,,-1,-1,,,,1
5f0452d558d1c26aa28f6d18,8g8cat30wl,Nick_Dissertation_EX1,1,197,2020-07-08T15:19:51-07:00,1.3362979888916,4,versionC_stim.csv,READVersionD.csv,"Read Version D","Dissertation, read only version D",SALAD,LETTUCE,Study1,S,59,84,Study,User,-,,Study/JOL,"Study Phase2",580,,,-1,-1,,,,1
5f0452d558d1c26aa28f6d18,8g8cat30wl,Nick_Dissertation_EX1,1,198,2020-07-08T15:19:53-07:00,2.0806400775909,4,versionC_stim.csv,READVersionD.csv,"Read Version D","Dissertation, read only version D",SACKING,DIETARY,Study1,U,67,78,Study,User,-,,Study/JOL,"Study Phase2",696,,,-1,-1,,,,1
5f0452d558d1c26aa28f6d18,8g8cat30wl,Nick_Dissertation_EX1,1,199,2020-07-08T15:19:56-07:00,3.2603478431702,4,versionC_stim.csv,READVersionD.csv,"Read Version D","Dissertation, read only version D",WATER,BRIDGE,Study1,B,18,31,Study,User,-,,Study/JOL,"Study Phase2",2413,,,-1,-1,,,,1
5f0452d558d1c26aa28f6d18,8g8cat30wl,Nick_Dissertation_EX1,1,200,2020-07-08T15:20:00-07:00,3.8844079971313,4,versionC_stim.csv,READVersionD.csv,"Read Version D","Dissertation, read only version D",STOMACH,DIGESTION,Study1,B,7,43,Study,User,-,,Study/JOL,"Study Phase2",1115,,,-1,-1,,,,1
5f0452d558d1c26aa28f6d18,8g8cat30wl,Nick_Dissertation_EX1,1,201,2020-07-08T15:20:04-07:00,4.2851190567017,4,versionC_stim.csv,READVersionD.csv,"Read Version D","Dissertation, read only version D",CAR,HAPPY,Study1,U,77,47,Study,User,-,,Study/JOL,"Study Phase2",1953,,,-1,-1,,,,1
5f0452d558d1c26aa28f6d18,8g8cat30wl,Nick_Dissertation_EX1,1,202,2020-07-08T15:20:06-07:00,2.0600090026855,4,versionC_stim.csv,READVersionD.csv,"Read Version D","Dissertation, read only version D",DOG,PAW,Study1,B,15,80,Study,User,-,,Study/JOL,"Study Phase2",1219,,,-1,-1,,,,1
5f0452d558d1c26aa28f6d18,8g8cat30wl,Nick_Dissertation_EX1,1,203,2020-07-08T15:20:11-07:00,4.1254739761353,4,versionC_stim.csv,READVersionD.csv,"Read Version D","Dissertation, read only version D",COW,HERD,Study1,B,22,56,Study,User,-,,Study/JOL,"Study Phase2",3271,,,-1,-1,,,,1
5f0452d558d1c26aa28f6d18,8g8cat30wl,Nick_Dissertation_EX1,1,204,2020-07-08T15:20:12-07:00,1.9169330596924,4,versionC_stim.csv,READVersionD.csv,"Read Version D","Dissertation, read only version D",CLEAN,HYGIENE,Study1,B,17,10,Study,User,-,,Study/JOL,"Study Phase2",739,,,-1,-1,,,,1
5f0452d558d1c26aa28f6d18,8g8cat30wl,Nick_Dissertation_EX1,1,205,2020-07-08T15:20:17-07:00,4.2269549369812,4,versionC_stim.csv,READVersionD.csv,"Read Version D","Dissertation, read only version D",ADD,VALLEY,Study1,U,82,77,Study,User,-,,Study/JOL,"Study Phase2",2886,,,-1,-1,,,,1
5f0452d558d1c26aa28f6d18,8g8cat30wl,Nick_Dissertation_EX1,1,206,2020-07-08T15:20:19-07:00,1.993360042572,4,versionC_stim.csv,READVersionD.csv,"Read Version D","Dissertation, read only version D",SIP,DRINK,Study1,F,27,57,Study,User,-,,Study/JOL,"Study Phase2",624,,,-1,-1,,,,1
5f0452d558d1c26aa28f6d18,8g8cat30wl,Nick_Dissertation_EX1,1,207,2020-07-08T15:20:22-07:00,3.2180840969086,4,versionC_stim.csv,READVersionD.csv,"Read Version D","Dissertation, read only version D",BELT,SOON,Study1,U,70,11,Study,User,-,,Study/JOL,"Study Phase2",851,,,-1,-1,,,,1
5f0452d558d1c26aa28f6d18,8g8cat30wl,Nick_Dissertation_EX1,1,208,2020-07-08T15:20:23-07:00,1.306599855423,4,versionC_stim.csv,READVersionD.csv,"Read Version D","Dissertation, read only version D",BIRD,SWAN,Study1,B,14,48,Study,User,-,,Study/JOL,"Study Phase2",732,,,-1,-1,,,,1
5f0452d558d1c26aa28f6d18,8g8cat30wl,Nick_Dissertation_EX1,1,209,2020-07-08T15:20:25-07:00,1.6975750923157,4,versionC_stim.csv,READVersionD.csv,"Read Version D","Dissertation, read only version D",BEE,HONEY,Study1,S,63,27,Study,User,-,,Study/JOL,"Study Phase2",494,,,-1,-1,,,,1
5f0452d558d1c26aa28f6d18,8g8cat30wl,Nick_Dissertation_EX1,1,210,2020-07-08T15:20:27-07:00,1.833781003952,4,versionC_stim.csv,READVersionD.csv,"Read Version D","Dissertation, read only version D",BAD,DELINQUENT,Study1,B,6,53,Study,User,-,,Study/JOL,"Study Phase2",594,,,-1,-1,,,,1
5f0452d558d1c26aa28f6d18,8g8cat30wl,Nick_Dissertation_EX1,1,211,2020-07-08T15:20:29-07:00,2.0665860176086,4,versionC_stim.csv,READVersionD.csv,"Read Version D","Dissertation, read only version D",FAMINE,HUNGER,Study1,F,40,75,Study,User,-,,Study/JOL,"Study Phase2",1582,,,-1,-1,,,,1
5f0452d558d1c26aa28f6d18,8g8cat30wl,Nick_Dissertation_EX1,1,212,2020-07-08T15:20:31-07:00,1.9762470722198,4,versionC_stim.csv,READVersionD.csv,"Read Version D","Dissertation, read only version D",PILOT,PLANE,Study1,F,44,86,Study,User,-,,Study/JOL,"Study Phase2",588,,,-1,-1,,,,1
5f0452d558d1c26aa28f6d18,8g8cat30wl,Nick_Dissertation_EX1,1,213,2020-07-08T15:20:34-07:00,3.0895848274231,4,versionC_stim.csv,READVersionD.csv,"Read Version D","Dissertation, read only version D",SEIZE,TAKE,Study1,F,29,13,Study,User,-,,Study/JOL,"Study Phase2",792,,,-1,-1,,,,1
5f0452d558d1c26aa28f6d18,8g8cat30wl,Nick_Dissertation_EX1,1,214,2020-07-08T15:20:36-07:00,1.8553440570831,4,versionC_stim.csv,READVersionD.csv,"Read Version D","Dissertation, read only version D",STING,HORNET,Study1,B,11,72,Study,User,-,,Study/JOL,"Study Phase2",491,,,-1,-1,,,,1
5f0452d558d1c26aa28f6d18,8g8cat30wl,Nick_Dissertation_EX1,1,215,2020-07-08T15:20:38-07:00,2.0457170009613,4,versionC_stim.csv,READVersionD.csv,"Read Version D","Dissertation, read only version D",ROCK,GEOLOGY,Study1,B,19,15,Study,User,-,,Study/JOL,"Study Phase2",469,,,-1,-1,,,,1
5f0452d558d1c26aa28f6d18,8g8cat30wl,Nick_Dissertation_EX1,1,216,2020-07-08T15:20:40-07:00,1.9961581230164,4,versionC_stim.csv,READVersionD.csv,"Read Version D","Dissertation, read only version D",BAR,GRILL,Study1,S,52,35,Study,User,-,,Study/JOL,"Study Phase2",501,,,-1,-1,,,,1
5f0452d558d1c26aa28f6d18,8g8cat30wl,Nick_Dissertation_EX1,1,217,2020-07-08T15:20:41-07:00,1.6393809318542,4,versionC_stim.csv,READVersionD.csv,"Read Version D","Dissertation, read only version D",NEWS,EDITOR,Study1,B,10,82,Study,User,-,,Study/JOL,"Study Phase2",509,,,-1,-1,,,,1
5f0452d558d1c26aa28f6d18,8g8cat30wl,Nick_Dissertation_EX1,1,218,2020-07-08T15:20:44-07:00,2.445867061615,4,versionC_stim.csv,READVersionD.csv,"Read Version D","Dissertation, read only version D",DROWSY,SLEEP,Study1,F,41,38,Study,User,-,,Study/JOL,"Study Phase2",504,,,-1,-1,,,,1
5f0452d558d1c26aa28f6d18,8g8cat30wl,Nick_Dissertation_EX1,1,219,2020-07-08T15:20:46-07:00,1.8901178836823,4,versionC_stim.csv,READVersionD.csv,"Read Version D","Dissertation, read only version D",FUTURE,PAST,Study1,S,61,74,Study,User,-,,Study/JOL,"Study Phase2",492,,,-1,-1,,,,1
5f0452d558d1c26aa28f6d18,8g8cat30wl,Nick_Dissertation_EX1,1,220,2020-07-08T15:20:48-07:00,2.0511639118195,4,versionC_stim.csv,READVersionD.csv,"Read Version D","Dissertation, read only version D",HUNGRY,PARK,Study1,U,68,58,Study,User,-,,Study/JOL,"Study Phase2",425,,,-1,-1,,,,1
5f0452d558d1c26aa28f6d18,8g8cat30wl,Nick_Dissertation_EX1,1,221,2020-07-08T15:20:49-07:00,1.3621370792389,4,versionC_stim.csv,READVersionD.csv,"Read Version D","Dissertation, read only version D",WAR,REVOLUTION,Study1,B,20,59,Study,User,-,,Study/JOL,"Study Phase2",475,,,-1,-1,,,,1
5f0452d558d1c26aa28f6d18,8g8cat30wl,Nick_Dissertation_EX1,1,222,2020-07-08T15:20:54-07:00,4.5254590511322,4,versionC_stim.csv,READVersionD.csv,"Read Version D","Dissertation, read only version D",FANTASTIC,GREAT,Study1,F,35,85,Study,User,-,,Study/JOL,"Study Phase2",691,,,-1,-1,,,,1
5f0452d558d1c26aa28f6d18,8g8cat30wl,Nick_Dissertation_EX1,1,223,2020-07-08T15:20:55-07:00,1.5839059352875,4,versionC_stim.csv,READVersionD.csv,"Read Version D","Dissertation, read only version D",TUCK,ALLOW,Study1,U,78,52,Study,User,-,,Study/JOL,"Study Phase2",490,,,-1,-1,,,,1
5f0452d558d1c26aa28f6d18,8g8cat30wl,Nick_Dissertation_EX1,1,224,2020-07-08T15:20:57-07:00,1.8025469779968,4,versionC_stim.csv,READVersionD.csv,"Read Version D","Dissertation, read only version D",OUT,WAY,Study1,B,16,36,Study,User,-,,Study/JOL,"Study Phase2",598,,,-1,-1,,,,1
5f0452d558d1c26aa28f6d18,8g8cat30wl,Nick_Dissertation_EX1,1,225,2020-07-08T15:20:59-07:00,2.0270581245422,4,versionC_stim.csv,READVersionD.csv,"Read Version D","Dissertation, read only version D",ROUND,CIRCLE,Study1,S,65,19,Study,User,-,,Study/JOL,"Study Phase2",794,,,-1,-1,,,,1
5f0452d558d1c26aa28f6d18,8g8cat30wl,Nick_Dissertation_EX1,1,226,2020-07-08T15:21:03-07:00,3.9233839511871,4,versionC_stim.csv,READVersionD.csv,"Read Version D","Dissertation, read only version D",TALK,DISCUSSION,Study1,B,21,24,Study,User,-,,Study/JOL,"Study Phase2",462,,,-1,-1,,,,1
5f0452d558d1c26aa28f6d18,8g8cat30wl,Nick_Dissertation_EX1,1,227,2020-07-08T15:21:05-07:00,1.6621260643005,4,versionC_stim.csv,READVersionD.csv,"Read Version D","Dissertation, read only version D",WOMAN,LIFT,Study1,U,69,68,Study,User,-,,Study/JOL,"Study Phase2",598,,,-1,-1,,,,1
5f0452d558d1c26aa28f6d18,8g8cat30wl,Nick_Dissertation_EX1,1,228,2020-07-08T15:21:09-07:00,3.888561964035,4,versionC_stim.csv,READVersionD.csv,"Read Version D","Dissertation, read only version D",END,BEGIN,Study1,S,54,63,Study,User,-,,Study/JOL,"Study Phase2",958,,,-1,-1,,,,1
5f0452d558d1c26aa28f6d18,8g8cat30wl,Nick_Dissertation_EX1,1,229,2020-07-08T15:21:11-07:00,2.8131430149078,4,versionC_stim.csv,READVersionD.csv,"Read Version D","Dissertation, read only version D",LIVER,KIDNEY,Study1,S,53,51,Study,User,-,,Study/JOL,"Study Phase2",820,,,-1,-1,,,,1
5f0452d558d1c26aa28f6d18,8g8cat30wl,Nick_Dissertation_EX1,1,230,2020-07-08T15:21:14-07:00,2.3045990467072,4,versionC_stim.csv,READVersionD.csv,"Read Version D","Dissertation, read only version D",ASSIGNMENT,DUE,Study1,S,46,70,Study,User,-,,Study/JOL,"Study Phase2",939,,,-1,-1,,,,1
5f0452d558d1c26aa28f6d18,8g8cat30wl,Nick_Dissertation_EX1,1,231,2020-07-08T15:21:16-07:00,2.5305488109589,4,versionC_stim.csv,READVersionD.csv,"Read Version D","Dissertation, read only version D",DEFINITION,MEANING,Study1,S,62,73,Study,User,-,,Study/JOL,"Study Phase2",474,,,-1,-1,,,,1
5f0452d558d1c26aa28f6d18,8g8cat30wl,Nick_Dissertation_EX1,1,232,2020-07-08T15:21:18-07:00,2.1347060203552,4,versionC_stim.csv,READVersionD.csv,"Read Version D","Dissertation, read only version D",BRONZE,ARTERY,Study1,U,74,29,Study,User,-,,Study/JOL,"Study Phase2",534,,,-1,-1,,,,1
5f0452d558d1c26aa28f6d18,8g8cat30wl,Nick_Dissertation_EX1,1,233,2020-07-08T15:21:20-07:00,1.8569600582123,4,versionC_stim.csv,READVersionD.csv,"Read Version D","Dissertation, read only version D",SITE,LOCATION,Study1,S,48,40,Study,User,-,,Study/JOL,"Study Phase2",502,,,-1,-1,,,,1
5f0452d558d1c26aa28f6d18,8g8cat30wl,Nick_Dissertation_EX1,1,234,2020-07-08T15:21:22-07:00,2.29856300354,4,versionC_stim.csv,READVersionD.csv,"Read Version D","Dissertation, read only version D",SICK,HIDE,Study1,U,84,49,Study,User,-,,Study/JOL,"Study Phase2",1105,,,-1,-1,,,,1
5f0452d558d1c26aa28f6d18,8g8cat30wl,Nick_Dissertation_EX1,1,235,2020-07-08T15:21:25-07:00,2.4795939922333,4,versionC_stim.csv,READVersionD.csv,"Read Version D","Dissertation, read only version D",ENOUGH,FULL,Study1,F,26,61,Study,User,-,,Study/JOL,"Study Phase2",1008,,,-1,-1,,,,1
5f0452d558d1c26aa28f6d18,8g8cat30wl,Nick_Dissertation_EX1,1,236,2020-07-08T15:21:28-07:00,3.2616169452667,4,versionC_stim.csv,READVersionD.csv,"Read Version D","Dissertation, read only version D",WOULD,CASH,Study1,U,83,71,Study,User,-,,Study/JOL,"Study Phase2",1368,,,-1,-1,,,,1
5f0452d558d1c26aa28f6d18,8g8cat30wl,Nick_Dissertation_EX1,1,237,2020-07-08T15:21:32-07:00,3.3718180656433,4,versionC_stim.csv,READVersionD.csv,"Read Version D","Dissertation, read only version D",CLUTTER,PUSHER,Study1,U,66,46,Study,User,-,,Study/JOL,"Study Phase2",1305,,,-1,-1,,,,1
5f0452d558d1c26aa28f6d18,8g8cat30wl,Nick_Dissertation_EX1,1,238,2020-07-08T15:21:33-07:00,1.6755459308624,4,versionC_stim.csv,READVersionD.csv,"Read Version D","Dissertation, read only version D",ACCIDENT,STRONG,Study1,U,80,45,Study,User,-,,Study/JOL,"Study Phase2",504,,,-1,-1,,,,1
5f0452d558d1c26aa28f6d18,8g8cat30wl,Nick_Dissertation_EX1,1,239,2020-07-08T15:21:37-07:00,3.8748400211334,4,versionC_stim.csv,READVersionD.csv,"Read Version D","Dissertation, read only version D",HAND,FIX,Study1,U,75,76,Study,User,-,,Study/JOL,"Study Phase2",514,,,-1,-1,,,,1
5f0452d558d1c26aa28f6d18,8g8cat30wl,Nick_Dissertation_EX1,1,240,2020-07-08T15:21:39-07:00,1.9180121421814,4,versionC_stim.csv,READVersionD.csv,"Read Version D","Dissertation, read only version D",FLOOR,DISCOVER,Study1,U,71,50,Study,User,-,,Study/JOL,"Study Phase2",430,,,-1,-1,,,,1
5f0452d558d1c26aa28f6d18,8g8cat30wl,Nick_Dissertation_EX1,1,241,2020-07-08T15:21:40-07:00,1.3485038280487,4,versionC_stim.csv,READVersionD.csv,"Read Version D","Dissertation, read only version D",CHILI,HOT,Study1,F,37,25,Study,User,-,,Study/JOL,"Study Phase2",544,,,-1,-1,,,,1
5f0452d558d1c26aa28f6d18,8g8cat30wl,Nick_Dissertation_EX1,1,242,2020-07-08T15:21:42-07:00,1.6074030399323,4,versionC_stim.csv,READVersionD.csv,"Read Version D","Dissertation, read only version D",FLOWER,ORCHID,Study1,B,24,22,Study,User,-,,Study/JOL,"Study Phase2",495,,,-1,-1,,,,1
5f0452d558d1c26aa28f6d18,8g8cat30wl,Nick_Dissertation_EX1,1,243,2020-07-08T15:21:46-07:00,4.1800270080566,4,versionC_stim.csv,READVersionD.csv,"Read Version D","Dissertation, read only version D",VASE,KING,Study1,U,85,54,Study,User,-,,Study/JOL,"Study Phase2",3089,,,-1,-1,,,,1
5f0452d558d1c26aa28f6d18,8g8cat30wl,Nick_Dissertation_EX1,1,244,2020-07-08T15:21:47-07:00,1.2864351272583,4,versionC_stim.csv,READVersionD.csv,"Read Version D","Dissertation, read only version D",SIGHT,DEBATE,Study1,U,73,33,Study,User,-,,Study/JOL,"Study Phase2",501,,,-1,-1,,,,1
5f0452d558d1c26aa28f6d18,8g8cat30wl,Nick_Dissertation_EX1,1,245,2020-07-08T15:21:50-07:00,2.1315658092499,4,versionC_stim.csv,READVersionD.csv,"Read Version D","Dissertation, read only version D",SODA,POP,Study1,S,56,62,Study,User,-,,Study/JOL,"Study Phase2",893,,,-1,-1,,,,1
5f0452d558d1c26aa28f6d18,8g8cat30wl,Nick_Dissertation_EX1,1,246,2020-07-08T15:21:52-07:00,2.3282589912415,4,versionC_stim.csv,READVersionD.csv,"Read Version D","Dissertation, read only version D",CHEESE,WINE,Study1,S,57,34,Study,User,-,,Study/JOL,"Study Phase2",1296,,,-1,-1,,,,1
5f0452d558d1c26aa28f6d18,8g8cat30wl,Nick_Dissertation_EX1,1,247,2020-07-08T15:21:56-07:00,3.6445050239563,4,versionC_stim.csv,READVersionD.csv,"Read Version D","Dissertation, read only version D",POSITION,MACHINE,Study1,U,76,17,Study,User,-,,Study/JOL,"Study Phase2",1642,,,-1,-1,,,,1
5f0452d558d1c26aa28f6d18,8g8cat30wl,Nick_Dissertation_EX1,1,248,2020-07-08T15:21:58-07:00,2.0291540622711,4,versionC_stim.csv,READVersionD.csv,"Read Version D","Dissertation, read only version D",PLANT,ROOT,Study1,B,13,81,Study,User,-,,Study/JOL,"Study Phase2",1142,,,-1,-1,,,,1
5f0452d558d1c26aa28f6d18,8g8cat30wl,Nick_Dissertation_EX1,1,249,2020-07-08T15:22:00-07:00,2.0412259101868,4,versionC_stim.csv,READVersionD.csv,"Read Version D","Dissertation, read only version D",WORD,SENTENCE,Study1,F,31,79,Study,User,-,,Study/JOL,"Study Phase2",594,,,-1,-1,,,,1
5f0452d558d1c26aa28f6d18,8g8cat30wl,Nick_Dissertation_EX1,1,250,2020-07-08T15:22:01-07:00,1.8017780780792,4,versionC_stim.csv,READVersionD.csv,"Read Version D","Dissertation, read only version D",RIDDLE,SUGAR,Study1,U,81,30,Study,User,-,,Study/JOL,"Study Phase2",722,,,-1,-1,,,,1
5f0452d558d1c26aa28f6d18,8g8cat30wl,Nick_Dissertation_EX1,1,251,2020-07-08T15:22:04-07:00,2.7022941112518,4,versionC_stim.csv,READVersionD.csv,"Read Version D","Dissertation, read only version D",FOOT,SHOE,Study1,S,60,18,Study,User,-,,Study/JOL,"Study Phase2",640,,,-1,-1,,,,1
5f0452d558d1c26aa28f6d18,8g8cat30wl,Nick_Dissertation_EX1,1,252,2020-07-08T15:22:06-07:00,2.0009229183197,4,versionC_stim.csv,READVersionD.csv,"Read Version D","Dissertation, read only version D",CHORE,WORK,Study1,F,39,16,Study,User,-,,Study/JOL,"Study Phase2",468,,,-1,-1,,,,1
5f0452d558d1c26aa28f6d18,8g8cat30wl,Nick_Dissertation_EX1,1,253,2020-07-08T15:22:07-07:00,1.2914230823517,4,versionC_stim.csv,READVersionD.csv,"Read Version D","Dissertation, read only version D",JURY,TRIAL,Study1,S,50,8,Study,User,-,,Study/JOL,"Study Phase2",532,,,-1,-1,,,,1
5f0452d558d1c26aa28f6d18,8g8cat30wl,Nick_Dissertation_EX1,1,254,2020-07-08T15:22:12-07:00,4.3387429714203,4,versionC_stim.csv,READVersionD.csv,"Read Version D","Dissertation, read only version D",BUSINESS,DEATH,Study1,U,72,9,Study,User,-,,Study/JOL,"Study Phase2",915,,,-1,-1,,,,1
5f0452d558d1c26aa28f6d18,8g8cat30wl,Nick_Dissertation_EX1,1,255,2020-07-08T15:22:13-07:00,1.6549890041351,4,versionC_stim.csv,READVersionD.csv,"Read Version D","Dissertation, read only version D",RACKET,BALL,Study1,F,38,32,Study,User,-,,Study/JOL,"Study Phase2",807,,,-1,-1,,,,1
5f0452d558d1c26aa28f6d18,8g8cat30wl,Nick_Dissertation_EX1,1,256,2020-07-08T15:22:15-07:00,1.5710229873657,4,versionC_stim.csv,READVersionD.csv,"Read Version D","Dissertation, read only version D",FISH,TUNA,Study1,B,25,41,Study,User,-,,Study/JOL,"Study Phase2",751,,,-1,-1,,,,1
5f0452d558d1c26aa28f6d18,8g8cat30wl,Nick_Dissertation_EX1,1,257,2020-07-08T15:22:17-07:00,1.4954030513763,4,versionC_stim.csv,READVersionD.csv,"Read Version D","Dissertation, read only version D",STENCH,SMELL,Study1,F,42,42,Study,User,-,,Study/JOL,"Study Phase2",503,,,-1,-1,,,,1
5f0452d558d1c26aa28f6d18,8g8cat30wl,Nick_Dissertation_EX1,1,258,2020-07-08T15:22:18-07:00,1.4630198478699,4,versionC_stim.csv,READVersionD.csv,"Read Version D","Dissertation, read only version D",LATCH,KEY,Study1,F,36,69,Study,User,-,,Study/JOL,"Study Phase2",479,,,-1,-1,,,,1
5f0452d558d1c26aa28f6d18,8g8cat30wl,Nick_Dissertation_EX1,1,259,2020-07-08T15:22:19-07:00,1.3211390972137,4,versionC_stim.csv,READVersionD.csv,"Read Version D","Dissertation, read only version D",HAMMER,CHISEL,Study1,B,9,55,Study,User,-,,Study/JOL,"Study Phase2",491,,,-1,-1,,,,1
5f0452d558d1c26aa28f6d18,8g8cat30wl,Nick_Dissertation_EX1,1,260,2020-07-08T15:22:21-07:00,1.8109159469604,4,versionC_stim.csv,READVersionD.csv,"Read Version D","Dissertation, read only version D",CARD,CREDIT,Study1,B,23,44,Study,User,-,,Study/JOL,"Study Phase2",726,,,-1,-1,,,,1
5f0452d558d1c26aa28f6d18,8g8cat30wl,Nick_Dissertation_EX1,1,261,2020-07-08T15:22:23-07:00,1.5407130718231,4,versionC_stim.csv,READVersionD.csv,"Read Version D","Dissertation, read only version D",GOOSE,GEESE,BUFFER2,Buffer,86,88,Study,User,-,,Study/JOL,BUFFER4,504,,,-1,-1,,,,1
5f0452d558d1c26aa28f6d18,8g8cat30wl,Nick_Dissertation_EX1,1,262,2020-07-08T15:22:25-07:00,1.9579079151154,4,versionC_stim.csv,READVersionD.csv,"Read Version D","Dissertation, read only version D",SPACE,MOON,BUFFER2,Buffer,89,87,Study,User,-,,Study/JOL,BUFFER4,496,,,-1,-1,,,,1
5f0452d558d1c26aa28f6d18,8g8cat30wl,Nick_Dissertation_EX1,1,263,2020-07-08T15:22:26-07:00,1.7302579879761,4,versionC_stim.csv,READVersionD.csv,"Read Version D","Dissertation, read only version D",CHOCOLATE,MALT,BUFFER2,Buffer,88,90,Study,User,-,,Study/JOL,BUFFER4,813,,,-1,-1,,,,1
5f0452d558d1c26aa28f6d18,8g8cat30wl,Nick_Dissertation_EX1,1,264,2020-07-08T15:22:28-07:00,1.4054501056671,4,versionC_stim.csv,READVersionD.csv,"Read Version D","Dissertation, read only version D",POLICE,SHERRIF,BUFFER2,Buffer,87,91,Study,User,-,,Study/JOL,BUFFER4,624,,,-1,-1,,,,1
5f0452d558d1c26aa28f6d18,8g8cat30wl,Nick_Dissertation_EX1,1,265,2020-07-08T15:22:29-07:00,1.439731836319,4,versionC_stim.csv,READVersionD.csv,"Read Version D","Dissertation, read only version D",STUFF,THING,BUFFER2,Buffer,90,89,Study,User,-,,Study/JOL,BUFFER4,709,,,-1,-1,,,,1
5f0452d558d1c26aa28f6d18,8g8cat30wl,Nick_Dissertation_EX1,1,266,2020-07-08T15:22:34-07:00,4.6283030509949,4,versionC_stim.csv,READVersionD.csv,"Read Version D","Dissertation, read only version D",,,,,,0,Instruct,User,-,"You have completed this section. Please press Enter.",Filler_Instruction,Instruct5,3317,,,-1,-1,,,,1
5f0452d558d1c26aa28f6d18,8g8cat30wl,Nick_Dissertation_EX1,1,267,2020-07-08T15:24:35-07:00,120.73467111588,4,versionC_stim.csv,READVersionD.csv,"Read Version D","Dissertation, read only version D",,,,,,0,FreeRecall,120,120,"Please list the 50 US states in reverse alphabetical order (z - a). The task will automatically advance to the next screen after two minutes.",,Filler2,120003,"Wyoming Virginia Texas Tennessee South Carolina South Dakota ",0,11509,111255,0,0,,1
5f0452d558d1c26aa28f6d18,8g8cat30wl,Nick_Dissertation_EX1,1,268,2020-07-08T15:24:47-07:00,12.161502838135,4,versionC_stim.csv,READVersionD.csv,"Read Version D","Dissertation, read only version D",,,,,,0,Instruct,-,10,"You will now be presented with the first word from each of the previously studied item pairs. Please type the missing word. If you do not know the word, you may guess or press Enter to skip forward to the next pair.",,Instruct6,11230,,,-1,-1,,,,1
5f0452d558d1c26aa28f6d18,8g8cat30wl,Nick_Dissertation_EX1,1,269,2020-07-08T15:24:53-07:00,5.8687520027161,4,versionC_stim.csv,READVersionD.csv,"Read Version D","Dissertation, read only version D",WIND,BLOW,Study1,S,55,37,Test,User,-,,Recall,Recall2,5113,blow,100,3725,4195,1,1,,1
5f0452d558d1c26aa28f6d18,8g8cat30wl,Nick_Dissertation_EX1,1,270,2020-07-08T15:25:05-07:00,12.19499707222,4,versionC_stim.csv,READVersionD.csv,"Read Version D","Dissertation, read only version D",PLANT,ROOT,Study1,B,13,81,Test,User,-,,Recall,Recall2,11167,trees,22.222222222222,8209,10187,0,0,,1
5f0452d558d1c26aa28f6d18,8g8cat30wl,Nick_Dissertation_EX1,1,271,2020-07-08T15:25:11-07:00,6.275151014328,4,versionC_stim.csv,READVersionD.csv,"Read Version D","Dissertation, read only version D",DOG,PAW,Study1,B,15,80,Test,User,-,,Recall,Recall2,5055,cat,33.333333333333,3557,3905,0,0,,1
5f0452d558d1c26aa28f6d18,8g8cat30wl,Nick_Dissertation_EX1,1,272,2020-07-08T15:25:18-07:00,7.2736370563507,4,versionC_stim.csv,READVersionD.csv,"Read Version D","Dissertation, read only version D",HAND,FIX,Study1,U,75,76,Test,User,-,,Recall,Recall2,5901,arm,0,5036,5355,0,0,,1
5f0452d558d1c26aa28f6d18,8g8cat30wl,Nick_Dissertation_EX1,1,273,2020-07-08T15:25:29-07:00,10.999627828598,4,versionC_stim.csv,READVersionD.csv,"Read Version D","Dissertation, read only version D",BELT,SOON,Study1,U,70,11,Test,User,-,,Recall,Recall2,10415,happy,0,9645,10209,0,0,,1
5f0452d558d1c26aa28f6d18,8g8cat30wl,Nick_Dissertation_EX1,1,274,2020-07-08T15:25:34-07:00,4.4074771404266,4,versionC_stim.csv,READVersionD.csv,"Read Version D","Dissertation, read only version D",SIP,DRINK,Study1,F,27,57,Test,User,-,,Recall,Recall2,3524,drink,100,1940,2463,1,1,,1
5f0452d558d1c26aa28f6d18,8g8cat30wl,Nick_Dissertation_EX1,1,275,2020-07-08T15:25:38-07:00,4.5581619739532,4,versionC_stim.csv,READVersionD.csv,"Read Version D","Dissertation, read only version D",LION,ART,Study1,U,79,12,Test,User,-,,Recall,Recall2,2751,art,100,1882,2295,1,1,,1
5f0452d558d1c26aa28f6d18,8g8cat30wl,Nick_Dissertation_EX1,1,276,2020-07-08T15:26:08-07:00,29.979876995087,4,versionC_stim.csv,READVersionD.csv,"Read Version D","Dissertation, read only version D",WORD,SENTENCE,Study1,F,31,79,Test,User,-,,Recall,Recall2,5239,association,21.052631578947,2925,4696,0,0,,1
5f0452d558d1c26aa28f6d18,8g8cat30wl,Nick_Dissertation_EX1,1,277,2020-07-08T15:26:13-07:00,4.8988389968872,4,versionC_stim.csv,READVersionD.csv,"Read Version D","Dissertation, read only version D",SICK,HIDE,Study1,U,84,49,Test,User,-,,Recall,Recall2,3863,,0,-1,-1,0,0,,1
5f0452d558d1c26aa28f6d18,8g8cat30wl,Nick_Dissertation_EX1,1,278,2020-07-08T15:26:18-07:00,5.1098639965057,4,versionC_stim.csv,READVersionD.csv,"Read Version D","Dissertation, read only version D",CARD,CREDIT,Study1,B,23,44,Test,User,-,,Recall,Recall2,4134,,0,-1,-1,0,0,,1
5f0452d558d1c26aa28f6d18,8g8cat30wl,Nick_Dissertation_EX1,1,279,2020-07-08T15:26:23-07:00,5.215735912323,4,versionC_stim.csv,READVersionD.csv,"Read Version D","Dissertation, read only version D",FUTURE,PAST,Study1,S,61,74,Test,User,-,,Recall,Recall2,3325,past,100,2256,2702,1,1,,1
5f0452d558d1c26aa28f6d18,8g8cat30wl,Nick_Dissertation_EX1,1,280,2020-07-08T15:27:01-07:00,37.675261974335,4,versionC_stim.csv,READVersionD.csv,"Read Version D","Dissertation, read only version D",HUNGRY,PARK,Study1,U,68,58,Test,User,-,,Recall,Recall2,8680,full,0,7022,7521,0,0,,1
5f0452d558d1c26aa28f6d18,8g8cat30wl,Nick_Dissertation_EX1,1,281,2020-07-08T15:27:09-07:00,7.4189360141754,4,versionC_stim.csv,READVersionD.csv,"Read Version D","Dissertation, read only version D",GROWTH,HEIGHT,Study1,F,30,20,Test,User,-,,Recall,Recall2,5929,stagnant,14.285714285714,2436,5442,0,0,,1
5f0452d558d1c26aa28f6d18,8g8cat30wl,Nick_Dissertation_EX1,1,282,2020-07-08T15:27:14-07:00,5.0536730289459,4,versionC_stim.csv,READVersionD.csv,"Read Version D","Dissertation, read only version D",STENCH,SMELL,Study1,F,42,42,Test,User,-,,Recall,Recall2,3435,smell,100,2371,2869,1,1,,1
5f0452d558d1c26aa28f6d18,8g8cat30wl,Nick_Dissertation_EX1,1,283,2020-07-08T15:27:17-07:00,3.1568419933319,4,versionC_stim.csv,READVersionD.csv,"Read Version D","Dissertation, read only version D",FANTASTIC,GREAT,Study1,F,35,85,Test,User,-,,Recall,Recall2,2444,,0,-1,-1,0,0,,1
5f0452d558d1c26aa28f6d18,8g8cat30wl,Nick_Dissertation_EX1,1,284,2020-07-08T15:27:24-07:00,6.9462900161743,4,versionC_stim.csv,READVersionD.csv,"Read Version D","Dissertation, read only version D",TOILET,BATHROOM,Study1,S,58,60,Test,User,-,,Recall,Recall2,5729,happy,15.384615384615,4266,5060,0,0,,1
5f0452d558d1c26aa28f6d18,8g8cat30wl,Nick_Dissertation_EX1,1,285,2020-07-08T15:28:23-07:00,59.581343173981,4,versionC_stim.csv,READVersionD.csv,"Read Version D","Dissertation, read only version D",WOULD,CASH,Study1,U,83,71,Test,User,-,,Recall,Recall2,5736,could,22.222222222222,3223,5180,0,0,,1
5f0452d558d1c26aa28f6d18,8g8cat30wl,Nick_Dissertation_EX1,1,286,2020-07-08T15:28:29-07:00,5.9113028049469,4,versionC_stim.csv,READVersionD.csv,"Read Version D","Dissertation, read only version D",ATTIRE,CLOTHES,Study1,F,43,83,Test,User,-,,Recall,Recall2,4776,clothes,100,3307,4200,1,1,,1
5f0452d558d1c26aa28f6d18,8g8cat30wl,Nick_Dissertation_EX1,1,287,2020-07-08T15:28:37-07:00,7.6235041618347,4,versionC_stim.csv,READVersionD.csv,"Read Version D","Dissertation, read only version D",BRONZE,ARTERY,Study1,U,74,29,Test,User,-,,Recall,Recall2,6123,artery,100,4145,5387,1,1,,1
5f0452d558d1c26aa28f6d18,8g8cat30wl,Nick_Dissertation_EX1,1,288,2020-07-08T15:28:43-07:00,6.1560838222504,4,versionC_stim.csv,READVersionD.csv,"Read Version D","Dissertation, read only version D",SIGHT,DEBATE,Study1,U,73,33,Test,User,-,,Recall,Recall2,4761,blind,18.181818181818,2723,4505,0,0,,1
5f0452d558d1c26aa28f6d18,8g8cat30wl,Nick_Dissertation_EX1,1,289,2020-07-08T15:29:06-07:00,23.099615097046,4,versionC_stim.csv,READVersionD.csv,"Read Version D","Dissertation, read only version D",BAD,DELINQUENT,Study1,B,6,53,Test,User,-,,Recall,Recall2,21671,terrible,11.111111111111,15966,20256,0,0,,1
5f0452d558d1c26aa28f6d18,8g8cat30wl,Nick_Dissertation_EX1,1,290,2020-07-08T15:29:11-07:00,4.8275690078735,4,versionC_stim.csv,READVersionD.csv,"Read Version D","Dissertation, read only version D",COLD,BITTER,Study1,B,12,7,Test,User,-,,Recall,Recall2,3577,warm,20,1683,1996,0,0,,1
5f0452d558d1c26aa28f6d18,8g8cat30wl,Nick_Dissertation_EX1,1,291,2020-07-08T15:29:18-07:00,7.1618430614471,4,versionC_stim.csv,READVersionD.csv,"Read Version D","Dissertation, read only version D",LATCH,KEY,Study1,F,36,69,Test,User,-,,Recall,Recall2,5844,sip,0,4785,5294,0,0,,1
5f0452d558d1c26aa28f6d18,8g8cat30wl,Nick_Dissertation_EX1,1,292,2020-07-08T15:29:23-07:00,4.6423938274384,4,versionC_stim.csv,READVersionD.csv,"Read Version D","Dissertation, read only version D",FLOOR,DISCOVER,Study1,U,71,50,Test,User,-,,Recall,Recall2,3839,,0,-1,-1,0,0,,1
5f0452d558d1c26aa28f6d18,8g8cat30wl,Nick_Dissertation_EX1,1,293,2020-07-08T15:29:28-07:00,5.6137571334839,4,versionC_stim.csv,READVersionD.csv,"Read Version D","Dissertation, read only version D",TUCK,ALLOW,Study1,U,78,52,Test,User,-,,Recall,Recall2,4354,roll,44.444444444444,2764,3698,0,0,,1
5f0452d558d1c26aa28f6d18,8g8cat30wl,Nick_Dissertation_EX1,1,294,2020-07-08T15:29:34-07:00,5.7844519615173,4,versionC_stim.csv,READVersionD.csv,"Read Version D","Dissertation, read only version D",SACKING,DIETARY,Study1,U,67,78,Test,User,-,,Recall,Recall2,4875,fired,33.333333333333,3896,4554,0,0,,1
5f0452d558d1c26aa28f6d18,8g8cat30wl,Nick_Dissertation_EX1,1,295,2020-07-08T15:29:42-07:00,8.2471549510956,4,versionC_stim.csv,READVersionD.csv,"Read Version D","Dissertation, read only version D",DESIGN,ARCHITECTURE,Study1,S,51,21,Test,User,-,,Recall,Recall2,7488,architecture,100,4707,6928,1,1,,1
5f0452d558d1c26aa28f6d18,8g8cat30wl,Nick_Dissertation_EX1,1,296,2020-07-08T15:29:50-07:00,7.7497291564941,4,versionC_stim.csv,READVersionD.csv,"Read Version D","Dissertation, read only version D",ROCK,GEOLOGY,Study1,B,19,15,Test,User,-,,Recall,Recall2,6859,geology,100,5410,6224,1,1,,1
5f0452d558d1c26aa28f6d18,8g8cat30wl,Nick_Dissertation_EX1,1,297,2020-07-08T15:29:55-07:00,4.4041078090668,4,versionC_stim.csv,READVersionD.csv,"Read Version D","Dissertation, read only version D",JURY,TRIAL,Study1,S,50,8,Test,User,-,,Recall,Recall2,3136,trial,100,2404,2860,1,1,,1
5f0452d558d1c26aa28f6d18,8g8cat30wl,Nick_Dissertation_EX1,1,298,2020-07-08T15:30:01-07:00,6.240186214447,4,versionC_stim.csv,READVersionD.csv,"Read Version D","Dissertation, read only version D",CLUTTER,PUSHER,Study1,U,66,46,Test,User,-,,Recall,Recall2,4088,bare,20,2363,3501,0,0,,1
5f0452d558d1c26aa28f6d18,8g8cat30wl,Nick_Dissertation_EX1,1,299,2020-07-08T15:30:06-07:00,5.5194268226624,4,versionC_stim.csv,READVersionD.csv,"Read Version D","Dissertation, read only version D",WOMAN,LIFT,Study1,U,69,68,Test,User,-,,Recall,Recall2,4704,man,0,2940,3964,0,0,,1
5f0452d558d1c26aa28f6d18,8g8cat30wl,Nick_Dissertation_EX1,1,300,2020-07-08T15:30:15-07:00,8.4570059776306,4,versionC_stim.csv,READVersionD.csv,"Read Version D","Dissertation, read only version D",RIDDLE,SUGAR,Study1,U,81,30,Test,User,-,,Recall,Recall2,7411,mystery,33.333333333333,3840,7136,0,0,,1
5f0452d558d1c26aa28f6d18,8g8cat30wl,Nick_Dissertation_EX1,1,301,2020-07-08T15:30:22-07:00,7.3853940963745,4,versionC_stim.csv,READVersionD.csv,"Read Version D","Dissertation, read only version D",RACKET,BALL,Study1,F,38,32,Test,User,-,,Recall,Recall2,6569,tennis,0,1872,6369,0,0,,1
5f0452d558d1c26aa28f6d18,8g8cat30wl,Nick_Dissertation_EX1,1,302,2020-07-08T15:30:25-07:00,3.2668290138245,4,versionC_stim.csv,READVersionD.csv,"Read Version D","Dissertation, read only version D",FOOT,SHOE,Study1,S,60,18,Test,User,-,,Recall,Recall2,2063,arm,0,1450,1677,0,0,,1
5f0452d558d1c26aa28f6d18,8g8cat30wl,Nick_Dissertation_EX1,1,303,2020-07-08T15:30:30-07:00,4.8629760742188,4,versionC_stim.csv,READVersionD.csv,"Read Version D","Dissertation, read only version D",ENOUGH,FULL,Study1,F,26,61,Test,User,-,,Recall,Recall2,4190,continue,16.666666666667,3036,3994,0,0,,1
5f0452d558d1c26aa28f6d18,8g8cat30wl,Nick_Dissertation_EX1,1,304,2020-07-08T15:30:35-07:00,5.2135479450226,4,versionC_stim.csv,READVersionD.csv,"Read Version D","Dissertation, read only version D",SODA,POP,Study1,S,56,62,Test,User,-,,Recall,Recall2,4645,fizzy,0,2551,4310,0,0,,1
5f0452d558d1c26aa28f6d18,8g8cat30wl,Nick_Dissertation_EX1,1,305,2020-07-08T15:30:42-07:00,6.6623709201813,4,versionC_stim.csv,READVersionD.csv,"Read Version D","Dissertation, read only version D",WASP,BUG,Study1,F,32,64,Test,User,-,,Recall,Recall2,5826,bees,28.571428571429,2704,4681,0,0,,1
5f0452d558d1c26aa28f6d18,8g8cat30wl,Nick_Dissertation_EX1,1,306,2020-07-08T15:30:51-07:00,8.4816379547119,4,versionC_stim.csv,READVersionD.csv,"Read Version D","Dissertation, read only version D",FISH,TUNA,Study1,B,25,41,Test,User,-,,Recall,Recall2,7462,pond,25,6522,6957,0,0,,1
5f0452d558d1c26aa28f6d18,8g8cat30wl,Nick_Dissertation_EX1,1,307,2020-07-08T15:30:59-07:00,8.3221750259399,4,versionC_stim.csv,READVersionD.csv,"Read Version D","Dissertation, read only version D",SITE,LOCATION,Study1,S,48,40,Test,User,-,,Recall,Recall2,6109,net,18.181818181818,3462,5653,0,0,,1
5f0452d558d1c26aa28f6d18,8g8cat30wl,Nick_Dissertation_EX1,1,308,2020-07-08T15:31:03-07:00,3.75705909729,4,versionC_stim.csv,READVersionD.csv,"Read Version D","Dissertation, read only version D",BLAZE,FIRE,Study1,F,45,14,Test,User,-,,Recall,Recall2,2231,,0,-1,-1,0,0,,1
5f0452d558d1c26aa28f6d18,8g8cat30wl,Nick_Dissertation_EX1,1,309,2020-07-08T15:31:11-07:00,8.7496118545532,4,versionC_stim.csv,READVersionD.csv,"Read Version D","Dissertation, read only version D",BIRD,SWAN,Study1,B,14,48,Test,User,-,,Recall,Recall2,7986,penguin,18.181818181818,3294,6855,0,0,,1
5f0452d558d1c26aa28f6d18,8g8cat30wl,Nick_Dissertation_EX1,1,310,2020-07-08T15:31:16-07:00,4.7980661392212,4,versionC_stim.csv,READVersionD.csv,"Read Version D","Dissertation, read only version D",CHILD,BABY,Study1,S,64,66,Test,User,-,,Recall,Recall2,3519,mother,0,2785,3263,0,0,,1
5f0452d558d1c26aa28f6d18,8g8cat30wl,Nick_Dissertation_EX1,1,311,2020-07-08T15:31:21-07:00,5.0432178974152,4,versionC_stim.csv,READVersionD.csv,"Read Version D","Dissertation, read only version D",ASSIGNMENT,DUE,Study1,S,46,70,Test,User,-,,Recall,Recall2,4197,task,0,2684,3116,0,0,,1
5f0452d558d1c26aa28f6d18,8g8cat30wl,Nick_Dissertation_EX1,1,312,2020-07-08T15:31:28-07:00,6.6627039909363,4,versionC_stim.csv,READVersionD.csv,"Read Version D","Dissertation, read only version D",PILOT,PLANE,Study1,F,44,86,Test,User,-,,Recall,Recall2,5275,plane,100,2589,5001,1,1,,1
5f0452d558d1c26aa28f6d18,8g8cat30wl,Nick_Dissertation_EX1,1,313,2020-07-08T15:31:32-07:00,3.9736111164093,4,versionC_stim.csv,READVersionD.csv,"Read Version D","Dissertation, read only version D",NEWS,EDITOR,Study1,B,10,82,Test,User,-,,Recall,Recall2,2594,media,54.545454545455,1932,2363,0,0,,1
5f0452d558d1c26aa28f6d18,8g8cat30wl,Nick_Dissertation_EX1,1,314,2020-07-08T15:31:42-07:00,9.9965350627899,4,versionC_stim.csv,READVersionD.csv,"Read Version D","Dissertation, read only version D",SALAD,LETTUCE,Study1,S,59,84,Test,User,-,,Recall,Recall2,8610,crunchy,14.285714285714,5068,8294,0,0,,1
5f0452d558d1c26aa28f6d18,8g8cat30wl,Nick_Dissertation_EX1,1,315,2020-07-08T15:31:46-07:00,4.4611477851868,4,versionC_stim.csv,READVersionD.csv,"Read Version D","Dissertation, read only version D",WASTE,DUMP,Study1,S,49,26,Test,User,-,,Recall,Recall2,3456,,0,-1,-1,0,0,,1
5f0452d558d1c26aa28f6d18,8g8cat30wl,Nick_Dissertation_EX1,1,316,2020-07-08T15:31:53-07:00,6.3162710666656,4,versionC_stim.csv,READVersionD.csv,"Read Version D","Dissertation, read only version D",POSITION,MACHINE,Study1,U,76,17,Test,User,-,,Recall,Recall2,5588,centre,30.769230769231,4573,5267,0,0,,1
5f0452d558d1c26aa28f6d18,8g8cat30wl,Nick_Dissertation_EX1,1,317,2020-07-08T15:31:57-07:00,4.6839649677277,4,versionC_stim.csv,READVersionD.csv,"Read Version D","Dissertation, read only version D",DROWSY,SLEEP,Study1,F,41,38,Test,User,-,,Recall,Recall2,2808,awake,20,2154,2604,0,0,,1
5f0452d558d1c26aa28f6d18,8g8cat30wl,Nick_Dissertation_EX1,1,318,2020-07-08T15:32:02-07:00,4.4426641464233,4,versionC_stim.csv,READVersionD.csv,"Read Version D","Dissertation, read only version D",CAR,HAPPY,Study1,U,77,47,Test,User,-,,Recall,Recall2,3386,shield,18.181818181818,1349,1950,0,0,,1
5f0452d558d1c26aa28f6d18,8g8cat30wl,Nick_Dissertation_EX1,1,319,2020-07-08T15:32:08-07:00,5.6820409297943,4,versionC_stim.csv,READVersionD.csv,"Read Version D","Dissertation, read only version D",BUSINESS,DEATH,Study1,U,72,9,Test,User,-,,Recall,Recall2,4448,money,20,3813,4248,0,0,,1
5f0452d558d1c26aa28f6d18,8g8cat30wl,Nick_Dissertation_EX1,1,320,2020-07-08T15:32:13-07:00,5.1132869720459,4,versionC_stim.csv,READVersionD.csv,"Read Version D","Dissertation, read only version D",CHEESE,WINE,Study1,S,57,34,Test,User,-,,Recall,Recall2,4227,milk,25,3404,3941,0,0,,1
5f0452d558d1c26aa28f6d18,8g8cat30wl,Nick_Dissertation_EX1,1,321,2020-07-08T15:32:16-07:00,3.7874760627747,4,versionC_stim.csv,READVersionD.csv,"Read Version D","Dissertation, read only version D",END,BEGIN,Study1,S,54,63,Test,User,-,,Recall,Recall2,3117,finish,36.363636363636,2255,2791,0,0,,1
5f0452d558d1c26aa28f6d18,8g8cat30wl,Nick_Dissertation_EX1,1,322,2020-07-08T15:32:21-07:00,4.7419800758362,4,versionC_stim.csv,READVersionD.csv,"Read Version D","Dissertation, read only version D",CLEAN,HYGIENE,Study1,B,17,10,Test,User,-,,Recall,Recall2,3022,dirty,16.666666666667,1884,2471,0,0,,1
5f0452d558d1c26aa28f6d18,8g8cat30wl,Nick_Dissertation_EX1,1,323,2020-07-08T15:32:27-07:00,5.9203629493713,4,versionC_stim.csv,READVersionD.csv,"Read Version D","Dissertation, read only version D",HAMMER,CHISEL,Study1,B,9,55,Test,User,-,,Recall,Recall2,4583,bang,0,3734,4068,0,0,,1
5f0452d558d1c26aa28f6d18,8g8cat30wl,Nick_Dissertation_EX1,1,324,2020-07-08T15:32:31-07:00,3.5669150352478,4,versionC_stim.csv,READVersionD.csv,"Read Version D","Dissertation, read only version D",SEIZE,TAKE,Study1,F,29,13,Test,User,-,,Recall,Recall2,2317,take,100,1383,1711,1,1,,1
5f0452d558d1c26aa28f6d18,8g8cat30wl,Nick_Dissertation_EX1,1,325,2020-07-08T15:32:34-07:00,3.8186228275299,4,versionC_stim.csv,READVersionD.csv,"Read Version D","Dissertation, read only version D",FAMINE,HUNGER,Study1,F,40,75,Test,User,-,,Recall,Recall2,2948,hunger,100,1963,2556,1,1,,1
5f0452d558d1c26aa28f6d18,8g8cat30wl,Nick_Dissertation_EX1,1,326,2020-07-08T15:32:38-07:00,3.0544471740723,4,versionC_stim.csv,READVersionD.csv,"Read Version D","Dissertation, read only version D",ATTORNEY,LAW,Study1,F,34,23,Test,User,-,,Recall,Recall2,1937,law,100,1468,1711,1,1,,1
5f0452d558d1c26aa28f6d18,8g8cat30wl,Nick_Dissertation_EX1,1,327,2020-07-08T15:32:47-07:00,9.2621099948883,4,versionC_stim.csv,READVersionD.csv,"Read Version D","Dissertation, read only version D",STOMACH,DIGESTION,Study1,B,7,43,Test,User,-,,Recall,Recall2,8117,anatomy,12.5,4660,7836,0,0,,1
5f0452d558d1c26aa28f6d18,8g8cat30wl,Nick_Dissertation_EX1,1,328,2020-07-08T15:32:51-07:00,4.0193498134613,4,versionC_stim.csv,READVersionD.csv,"Read Version D","Dissertation, read only version D",CHILI,HOT,Study1,F,37,25,Test,User,-,,Recall,Recall2,2972,warm,0,2114,2707,0,0,,1
5f0452d558d1c26aa28f6d18,8g8cat30wl,Nick_Dissertation_EX1,1,329,2020-07-08T15:32:57-07:00,5.7161011695862,4,versionC_stim.csv,READVersionD.csv,"Read Version D","Dissertation, read only version D",BAR,GRILL,Study1,S,52,35,Test,User,-,,Recall,Recall2,5002,drinks,36.363636363636,1804,4811,0,0,,1
5f0452d558d1c26aa28f6d18,8g8cat30wl,Nick_Dissertation_EX1,1,330,2020-07-08T15:33:01-07:00,4.8506188392639,4,versionC_stim.csv,READVersionD.csv,"Read Version D","Dissertation, read only version D",DIVISION,MATH,Study1,F,33,28,Test,User,-,,Recall,Recall2,3736,multiplication,33.333333333333,1523,3399,0,0,,1
5f0452d558d1c26aa28f6d18,8g8cat30wl,Nick_Dissertation_EX1,1,331,2020-07-08T15:33:06-07:00,4.8933420181274,4,versionC_stim.csv,READVersionD.csv,"Read Version D","Dissertation, read only version D",WAR,REVOLUTION,Study1,B,20,59,Test,User,-,,Recall,Recall2,3315,peace,13.333333333333,2626,2999,0,0,,1
5f0452d558d1c26aa28f6d18,8g8cat30wl,Nick_Dissertation_EX1,1,332,2020-07-08T15:33:14-07:00,7.7564589977264,4,versionC_stim.csv,READVersionD.csv,"Read Version D","Dissertation, read only version D",ACCIDENT,STRONG,Study1,U,80,45,Test,User,-,,Recall,Recall2,6699,purposeful,25,2193,5848,0,0,,1
5f0452d558d1c26aa28f6d18,8g8cat30wl,Nick_Dissertation_EX1,1,333,2020-07-08T15:33:21-07:00,6.7495141029358,4,versionC_stim.csv,READVersionD.csv,"Read Version D","Dissertation, read only version D",MONEY,WAGE,Study1,B,8,65,Test,User,-,,Recall,Recall2,5410,bank,25,1644,5089,0,0,,1
5f0452d558d1c26aa28f6d18,8g8cat30wl,Nick_Dissertation_EX1,1,334,2020-07-08T15:33:26-07:00,4.9988770484924,4,versionC_stim.csv,READVersionD.csv,"Read Version D","Dissertation, read only version D",STING,HORNET,Study1,B,11,72,Test,User,-,,Recall,Recall2,4176,sore,60,2614,2921,0,0,,1
5f0452d558d1c26aa28f6d18,8g8cat30wl,Nick_Dissertation_EX1,1,335,2020-07-08T15:33:34-07:00,8.4166419506073,4,versionC_stim.csv,READVersionD.csv,"Read Version D","Dissertation, read only version D",ADD,VALLEY,Study1,U,82,77,Test,User,-,,Recall,Recall2,6801,subtract,14.285714285714,3907,6586,0,0,,1
5f0452d558d1c26aa28f6d18,8g8cat30wl,Nick_Dissertation_EX1,1,336,2020-07-08T15:33:37-07:00,3.0294439792633,4,versionC_stim.csv,READVersionD.csv,"Read Version D","Dissertation, read only version D",TALK,DISCUSSION,Study1,B,21,24,Test,User,-,,Recall,Recall2,2215,listen,37.5,1386,1904,0,0,,1
5f0452d558d1c26aa28f6d18,8g8cat30wl,Nick_Dissertation_EX1,1,337,2020-07-08T15:33:41-07:00,3.7215309143066,4,versionC_stim.csv,READVersionD.csv,"Read Version D","Dissertation, read only version D",CAVE,DARK,Study1,F,28,39,Test,User,-,,Recall,Recall2,2964,dark,100,2376,2678,1,1,,1
5f0452d558d1c26aa28f6d18,8g8cat30wl,Nick_Dissertation_EX1,1,338,2020-07-08T15:33:44-07:00,3.066456079483,4,versionC_stim.csv,READVersionD.csv,"Read Version D","Dissertation, read only version D",OUT,WAY,Study1,B,16,36,Test,User,-,,Recall,Recall2,2304,inside,0,1346,2149,0,0,,1
5f0452d558d1c26aa28f6d18,8g8cat30wl,Nick_Dissertation_EX1,1,339,2020-07-08T15:33:48-07:00,3.6674830913544,4,versionC_stim.csv,READVersionD.csv,"Read Version D","Dissertation, read only version D",BEE,HONEY,Study1,S,63,27,Test,User,-,,Recall,Recall2,2421,sting,20,1788,2159,0,0,,1
5f0452d558d1c26aa28f6d18,8g8cat30wl,Nick_Dissertation_EX1,1,340,2020-07-08T15:33:54-07:00,5.86749792099,4,versionC_stim.csv,READVersionD.csv,"Read Version D","Dissertation, read only version D",FLOWER,ORCHID,Study1,B,24,22,Test,User,-,,Recall,Recall2,5027,plant,0,4343,4817,0,0,,1
5f0452d558d1c26aa28f6d18,8g8cat30wl,Nick_Dissertation_EX1,1,341,2020-07-08T15:33:59-07:00,5.096216917038,4,versionC_stim.csv,READVersionD.csv,"Read Version D","Dissertation, read only version D",DEFINITION,MEANING,Study1,S,62,73,Test,User,-,,Recall,Recall2,2847,,0,-1,-1,0,0,,1
5f0452d558d1c26aa28f6d18,8g8cat30wl,Nick_Dissertation_EX1,1,342,2020-07-08T15:34:02-07:00,3.414852142334,4,versionC_stim.csv,READVersionD.csv,"Read Version D","Dissertation, read only version D",COW,HERD,Study1,B,22,56,Test,User,-,,Recall,Recall2,2314,animal,0,1369,1903,0,0,,1
5f0452d558d1c26aa28f6d18,8g8cat30wl,Nick_Dissertation_EX1,1,343,2020-07-08T15:34:10-07:00,7.5765438079834,4,versionC_stim.csv,READVersionD.csv,"Read Version D","Dissertation, read only version D",AMOUNT,NUMBER,Study1,S,47,67,Test,User,-,,Recall,Recall2,6054,,0,3408,3610,0,0,,1
5f0452d558d1c26aa28f6d18,8g8cat30wl,Nick_Dissertation_EX1,1,344,2020-07-08T15:34:14-07:00,4.6652081012726,4,versionC_stim.csv,READVersionD.csv,"Read Version D","Dissertation, read only version D",WATER,BRIDGE,Study1,B,18,31,Test,User,-,,Recall,Recall2,3335,thirsty,15.384615384615,1671,3088,0,0,,1
5f0452d558d1c26aa28f6d18,8g8cat30wl,Nick_Dissertation_EX1,1,345,2020-07-08T15:34:17-07:00,3.0999240875244,4,versionC_stim.csv,READVersionD.csv,"Read Version D","Dissertation, read only version D",LIVER,KIDNEY,Study1,S,53,51,Test,User,-,,Recall,Recall2,2202,kidney,100,1314,1977,1,1,,1
5f0452d558d1c26aa28f6d18,8g8cat30wl,Nick_Dissertation_EX1,1,346,2020-07-08T15:34:23-07:00,6.0804948806763,4,versionC_stim.csv,READVersionD.csv,"Read Version D","Dissertation, read only version D",VASE,KING,Study1,U,85,54,Test,User,-,,Recall,Recall2,2856,ceramic,18.181818181818,1912,2589,0,0,,1
