Username,ID,ExperimentName,Session,Trial,Date,TimeDif,"Condition Number","Stimuli File","Order File","Condition Description","Condition Notes",Stimuli*Cue,Stimuli*Answer,Stimuli*Shuffle,"Stimuli*Stimuli Notes",Stimuli*Value,Procedure*Item,"Procedure*Trial Type","Procedure*Max Time","Procedure*Min Time",Procedure*Text,"Procedure*Procedure Notes",Procedure*Shuffle,Response*RT,Response*Response,Response*Accuracy,Response*RTfirst,Response*RTlast,Response*strictAcc,Response*lenientAcc,Response*focus,Response*Focus
5ee34f8fc3391b011cb26aa5,lelihhshbe,Nick_Dissertation_EX1,1,1,2020-07-08T14:54:13-07:00,11.566297054291,4,versionC_stim.csv,READVersionD.csv,"Read Version D","Dissertation, read only version D",,,,,,0,Instruct,-,10,"Please study each of the following word pairs. Remember that your memory will be tested! When finished, press Enter to move to the next pair.",Initial_Instruct,Instruct1,11263,,,-1,-1,,,,1
5ee34f8fc3391b011cb26aa5,lelihhshbe,Nick_Dissertation_EX1,1,2,2020-07-08T14:54:16-07:00,2.9625220298767,4,versionC_stim.csv,READVersionD.csv,"Read Version D","Dissertation, read only version D",ADVENTURE,CAMP,BUFFER3,Buffer,95,94,Study,User,-,,Study/JOL,BUFFER,2482,,,-1,-1,,,,1
5ee34f8fc3391b011cb26aa5,lelihhshbe,Nick_Dissertation_EX1,1,3,2020-07-08T14:54:19-07:00,3.0914289951324,4,versionC_stim.csv,READVersionD.csv,"Read Version D","Dissertation, read only version D",STRING,NOODLE,BUFFER3,Buffer,92,93,Study,User,-,,Study/JOL,BUFFER,2567,,,-1,-1,,,,1
5ee34f8fc3391b011cb26aa5,lelihhshbe,Nick_Dissertation_EX1,1,4,2020-07-08T14:54:21-07:00,1.9535429477692,4,versionC_stim.csv,READVersionD.csv,"Read Version D","Dissertation, read only version D",POTATO,CARROT,BUFFER3,Buffer,91,92,Study,User,-,,Study/JOL,BUFFER,1388,,,-1,-1,,,,1
5ee34f8fc3391b011cb26aa5,lelihhshbe,Nick_Dissertation_EX1,1,5,2020-07-08T14:54:23-07:00,1.9790940284729,4,versionC_stim.csv,READVersionD.csv,"Read Version D","Dissertation, read only version D",FROZEN,ICE,BUFFER3,Buffer,94,96,Study,User,-,,Study/JOL,BUFFER,1511,,,-1,-1,,,,1
5ee34f8fc3391b011cb26aa5,lelihhshbe,Nick_Dissertation_EX1,1,6,2020-07-08T14:54:25-07:00,1.736799955368,4,versionC_stim.csv,READVersionD.csv,"Read Version D","Dissertation, read only version D",FISH,SHRIMP,BUFFER3,Buffer,93,95,Study,User,-,,Study/JOL,BUFFER,1268,,,-1,-1,,,,1
5ee34f8fc3391b011cb26aa5,lelihhshbe,Nick_Dissertation_EX1,1,7,2020-07-08T14:54:26-07:00,1.5911068916321,4,versionC_stim.csv,READVersionD.csv,"Read Version D","Dissertation, read only version D",SHAKE,Shell,Study2,U,163,134,Study,User,-,,Study/JOL,"Study Phase",1089,,,-1,-1,,,,1
5ee34f8fc3391b011cb26aa5,lelihhshbe,Nick_Dissertation_EX1,1,8,2020-07-08T14:54:29-07:00,2.0486650466919,4,versionC_stim.csv,READVersionD.csv,"Read Version D","Dissertation, read only version D",THIMBLE,THREAD,Study2,F,121,147,Study,User,-,,Study/JOL,"Study Phase",1547,,,-1,-1,,,,1
5ee34f8fc3391b011cb26aa5,lelihhshbe,Nick_Dissertation_EX1,1,9,2020-07-08T14:54:30-07:00,1.9461300373077,4,versionC_stim.csv,READVersionD.csv,"Read Version D","Dissertation, read only version D",FLIP,TURN,Study2,F,116,161,Study,User,-,,Study/JOL,"Study Phase",1383,,,-1,-1,,,,1
5ee34f8fc3391b011cb26aa5,lelihhshbe,Nick_Dissertation_EX1,1,10,2020-07-08T14:54:32-07:00,1.7826819419861,4,versionC_stim.csv,READVersionD.csv,"Read Version D","Dissertation, read only version D",PENGUIN,BIRD,Study2,F,119,131,Study,User,-,,Study/JOL,"Study Phase",1317,,,-1,-1,,,,1
5ee34f8fc3391b011cb26aa5,lelihhshbe,Nick_Dissertation_EX1,1,11,2020-07-08T14:54:34-07:00,1.7572259902954,4,versionC_stim.csv,READVersionD.csv,"Read Version D","Dissertation, read only version D",EQUAL,RIGHTS,Study2,S,137,135,Study,User,-,,Study/JOL,"Study Phase",1295,,,-1,-1,,,,1
5ee34f8fc3391b011cb26aa5,lelihhshbe,Nick_Dissertation_EX1,1,12,2020-07-08T14:54:36-07:00,1.8999571800232,4,versionC_stim.csv,READVersionD.csv,"Read Version D","Dissertation, read only version D",HATE,NAME,Study2,U,167,114,Study,User,-,,Study/JOL,"Study Phase",1401,,,-1,-1,,,,1
5ee34f8fc3391b011cb26aa5,lelihhshbe,Nick_Dissertation_EX1,1,13,2020-07-08T14:54:38-07:00,2.137601852417,4,versionC_stim.csv,READVersionD.csv,"Read Version D","Dissertation, read only version D",BRACELET,WRIST,Study2,S,140,103,Study,User,-,,Study/JOL,"Study Phase",1583,,,-1,-1,,,,1
5ee34f8fc3391b011cb26aa5,lelihhshbe,Nick_Dissertation_EX1,1,14,2020-07-08T14:54:40-07:00,1.9500601291656,4,versionC_stim.csv,READVersionD.csv,"Read Version D","Dissertation, read only version D",REEL,ROD,Study2,S,150,141,Study,User,-,,Study/JOL,"Study Phase",1411,,,-1,-1,,,,1
5ee34f8fc3391b011cb26aa5,lelihhshbe,Nick_Dissertation_EX1,1,15,2020-07-08T14:54:42-07:00,1.688560962677,4,versionC_stim.csv,READVersionD.csv,"Read Version D","Dissertation, read only version D",DRINK,WATER,Study2,S,143,101,Study,User,-,,Study/JOL,"Study Phase",1208,,,-1,-1,,,,1
5ee34f8fc3391b011cb26aa5,lelihhshbe,Nick_Dissertation_EX1,1,16,2020-07-08T14:54:43-07:00,1.6289849281311,4,versionC_stim.csv,READVersionD.csv,"Read Version D","Dissertation, read only version D",GAME,CLUE,Study2,B,97,130,Study,User,-,,Study/JOL,"Study Phase",1173,,,-1,-1,,,,1
5ee34f8fc3391b011cb26aa5,lelihhshbe,Nick_Dissertation_EX1,1,17,2020-07-08T14:54:45-07:00,1.7494039535522,4,versionC_stim.csv,READVersionD.csv,"Read Version D","Dissertation, read only version D",OUNCE,BOTH,Study2,U,172,116,Study,User,-,,Study/JOL,"Study Phase",1280,,,-1,-1,,,,1
5ee34f8fc3391b011cb26aa5,lelihhshbe,Nick_Dissertation_EX1,1,18,2020-07-08T14:54:47-07:00,1.7986149787903,4,versionC_stim.csv,READVersionD.csv,"Read Version D","Dissertation, read only version D",FAVORITE,BEST,Study2,F,125,113,Study,User,-,,Study/JOL,"Study Phase",1327,,,-1,-1,,,,1
5ee34f8fc3391b011cb26aa5,lelihhshbe,Nick_Dissertation_EX1,1,19,2020-07-08T14:54:49-07:00,1.6288599967957,4,versionC_stim.csv,READVersionD.csv,"Read Version D","Dissertation, read only version D",MYSTERY,DETECTIVE,Study2,B,100,127,Study,User,-,,Study/JOL,"Study Phase",1136,,,-1,-1,,,,1
5ee34f8fc3391b011cb26aa5,lelihhshbe,Nick_Dissertation_EX1,1,20,2020-07-08T14:54:50-07:00,1.536199092865,4,versionC_stim.csv,READVersionD.csv,"Read Version D","Dissertation, read only version D",OBTAIN,MEAT,Study2,U,161,155,Study,User,-,,Study/JOL,"Study Phase",1012,,,-1,-1,,,,1
5ee34f8fc3391b011cb26aa5,lelihhshbe,Nick_Dissertation_EX1,1,21,2020-07-08T14:54:52-07:00,1.8458609580994,4,versionC_stim.csv,READVersionD.csv,"Read Version D","Dissertation, read only version D",GROUND,EARTH,Study2,S,144,128,Study,User,-,,Study/JOL,"Study Phase",1335,,,-1,-1,,,,1
5ee34f8fc3391b011cb26aa5,lelihhshbe,Nick_Dissertation_EX1,1,22,2020-07-08T14:54:54-07:00,1.6354999542236,4,versionC_stim.csv,READVersionD.csv,"Read Version D","Dissertation, read only version D",LONELY,ALONE,Study2,S,145,160,Study,User,-,,Study/JOL,"Study Phase",1132,,,-1,-1,,,,1
5ee34f8fc3391b011cb26aa5,lelihhshbe,Nick_Dissertation_EX1,1,23,2020-07-08T14:54:55-07:00,1.6372940540314,4,versionC_stim.csv,READVersionD.csv,"Read Version D","Dissertation, read only version D",ABLE,CRACKLE,Study2,U,162,176,Study,User,-,,Study/JOL,"Study Phase",1071,,,-1,-1,,,,1
5ee34f8fc3391b011cb26aa5,lelihhshbe,Nick_Dissertation_EX1,1,24,2020-07-08T14:54:57-07:00,1.8445410728455,4,versionC_stim.csv,READVersionD.csv,"Read Version D","Dissertation, read only version D",SCISSORS,SHEARS,Study2,B,112,159,Study,User,-,,Study/JOL,"Study Phase",1360,,,-1,-1,,,,1
5ee34f8fc3391b011cb26aa5,lelihhshbe,Nick_Dissertation_EX1,1,25,2020-07-08T14:54:59-07:00,1.53764295578,4,versionC_stim.csv,READVersionD.csv,"Read Version D","Dissertation, read only version D",NOISE,LOUD,Study2,S,152,143,Study,User,-,,Study/JOL,"Study Phase",1020,,,-1,-1,,,,1
5ee34f8fc3391b011cb26aa5,lelihhshbe,Nick_Dissertation_EX1,1,26,2020-07-08T14:55:00-07:00,1.7395579814911,4,versionC_stim.csv,READVersionD.csv,"Read Version D","Dissertation, read only version D",STEAK,GIVE,Study2,U,158,104,Study,User,-,,Study/JOL,"Study Phase",1186,,,-1,-1,,,,1
5ee34f8fc3391b011cb26aa5,lelihhshbe,Nick_Dissertation_EX1,1,27,2020-07-08T14:55:02-07:00,1.5362091064453,4,versionC_stim.csv,READVersionD.csv,"Read Version D","Dissertation, read only version D",DONKEY,MULE,Study2,B,108,120,Study,User,-,,Study/JOL,"Study Phase",1023,,,-1,-1,,,,1
5ee34f8fc3391b011cb26aa5,lelihhshbe,Nick_Dissertation_EX1,1,28,2020-07-08T14:55:04-07:00,1.6902070045471,4,versionC_stim.csv,READVersionD.csv,"Read Version D","Dissertation, read only version D",NAP,SLEEP,Study2,F,134,139,Study,User,-,,Study/JOL,"Study Phase",1148,,,-1,-1,,,,1
5ee34f8fc3391b011cb26aa5,lelihhshbe,Nick_Dissertation_EX1,1,29,2020-07-08T14:55:05-07:00,1.6995408535004,4,versionC_stim.csv,READVersionD.csv,"Read Version D","Dissertation, read only version D",LEAGUE,BASEBALL,Study2,F,131,98,Study,User,-,,Study/JOL,"Study Phase",1099,,,-1,-1,,,,1
5ee34f8fc3391b011cb26aa5,lelihhshbe,Nick_Dissertation_EX1,1,30,2020-07-08T14:55:07-07:00,1.3105869293213,4,versionC_stim.csv,READVersionD.csv,"Read Version D","Dissertation, read only version D",PANTHER,CAT,Study2,F,126,129,Study,User,-,,Study/JOL,"Study Phase",907,,,-1,-1,,,,1
5ee34f8fc3391b011cb26aa5,lelihhshbe,Nick_Dissertation_EX1,1,31,2020-07-08T14:55:08-07:00,1.6693260669708,4,versionC_stim.csv,READVersionD.csv,"Read Version D","Dissertation, read only version D",BANG,FUZZY,Study2,U,168,108,Study,User,-,,Study/JOL,"Study Phase",1166,,,-1,-1,,,,1
5ee34f8fc3391b011cb26aa5,lelihhshbe,Nick_Dissertation_EX1,1,32,2020-07-08T14:55:12-07:00,3.5945820808411,4,versionC_stim.csv,READVersionD.csv,"Read Version D","Dissertation, read only version D",Morning,TEMPERATURE,Study2,U,173,170,Study,User,-,,Study/JOL,"Study Phase",1813,,,-1,-1,,,,1
5ee34f8fc3391b011cb26aa5,lelihhshbe,Nick_Dissertation_EX1,1,33,2020-07-08T14:55:14-07:00,2.1226680278778,4,versionC_stim.csv,READVersionD.csv,"Read Version D","Dissertation, read only version D",BRAWL,FIGHT,Study2,F,135,153,Study,User,-,,Study/JOL,"Study Phase",1500,,,-1,-1,,,,1
5ee34f8fc3391b011cb26aa5,lelihhshbe,Nick_Dissertation_EX1,1,34,2020-07-08T14:55:16-07:00,1.8411469459534,4,versionC_stim.csv,READVersionD.csv,"Read Version D","Dissertation, read only version D",RED,CHERRY,Study2,B,104,123,Study,User,-,,Study/JOL,"Study Phase",1289,,,-1,-1,,,,1
5ee34f8fc3391b011cb26aa5,lelihhshbe,Nick_Dissertation_EX1,1,35,2020-07-08T14:55:17-07:00,1.533271074295,4,versionC_stim.csv,READVersionD.csv,"Read Version D","Dissertation, read only version D",REVENGE,EVEN,Study2,F,122,137,Study,User,-,,Study/JOL,"Study Phase",1029,,,-1,-1,,,,1
5ee34f8fc3391b011cb26aa5,lelihhshbe,Nick_Dissertation_EX1,1,36,2020-07-08T14:55:19-07:00,1.641664981842,4,versionC_stim.csv,READVersionD.csv,"Read Version D","Dissertation, read only version D",CAR,DRIVER,Study2,B,106,99,Study,User,-,,Study/JOL,"Study Phase",1096,,,-1,-1,,,,1
5ee34f8fc3391b011cb26aa5,lelihhshbe,Nick_Dissertation_EX1,1,37,2020-07-08T14:55:20-07:00,1.2832968235016,4,versionC_stim.csv,READVersionD.csv,"Read Version D","Dissertation, read only version D",TOIL,LEASE,Study2,U,170,105,Study,User,-,,Study/JOL,"Study Phase",922,,,-1,-1,,,,1
5ee34f8fc3391b011cb26aa5,lelihhshbe,Nick_Dissertation_EX1,1,38,2020-07-08T14:55:22-07:00,1.6859180927277,4,versionC_stim.csv,READVersionD.csv,"Read Version D","Dissertation, read only version D",PAPER,DOCUMENT,Study2,B,109,169,Study,User,-,,Study/JOL,"Study Phase",1117,,,-1,-1,,,,1
5ee34f8fc3391b011cb26aa5,lelihhshbe,Nick_Dissertation_EX1,1,39,2020-07-08T14:55:23-07:00,1.2891409397125,4,versionC_stim.csv,READVersionD.csv,"Read Version D","Dissertation, read only version D",SARDINE,FISH,Study2,F,130,124,Study,User,-,,Study/JOL,"Study Phase",932,,,-1,-1,,,,1
5ee34f8fc3391b011cb26aa5,lelihhshbe,Nick_Dissertation_EX1,1,40,2020-07-08T14:55:25-07:00,1.5763700008392,4,versionC_stim.csv,READVersionD.csv,"Read Version D","Dissertation, read only version D",CLOTH,STRETCH,Study2,U,157,149,Study,User,-,,Study/JOL,"Study Phase",1027,,,-1,-1,,,,1
5ee34f8fc3391b011cb26aa5,lelihhshbe,Nick_Dissertation_EX1,1,41,2020-07-08T14:55:26-07:00,1.2723121643066,4,versionC_stim.csv,READVersionD.csv,"Read Version D","Dissertation, read only version D",TIE,SHOELACE,Study2,B,99,115,Study,User,-,,Study/JOL,"Study Phase",913,,,-1,-1,,,,1
5ee34f8fc3391b011cb26aa5,lelihhshbe,Nick_Dissertation_EX1,1,42,2020-07-08T14:55:28-07:00,1.6068828105927,4,versionC_stim.csv,READVersionD.csv,"Read Version D","Dissertation, read only version D",FICTION,LISTEN,Study2,U,164,140,Study,User,-,,Study/JOL,"Study Phase",964,,,-1,-1,,,,1
5ee34f8fc3391b011cb26aa5,lelihhshbe,Nick_Dissertation_EX1,1,43,2020-07-08T14:55:29-07:00,1.5293321609497,4,versionC_stim.csv,READVersionD.csv,"Read Version D","Dissertation, read only version D",AWAY,GONE,Study2,S,142,133,Study,User,-,,Study/JOL,"Study Phase",949,,,-1,-1,,,,1
5ee34f8fc3391b011cb26aa5,lelihhshbe,Nick_Dissertation_EX1,1,44,2020-07-08T14:55:31-07:00,1.5294108390808,4,versionC_stim.csv,READVersionD.csv,"Read Version D","Dissertation, read only version D",WAX,CANDLE,Study2,S,139,150,Study,User,-,,Study/JOL,"Study Phase",985,,,-1,-1,,,,1
5ee34f8fc3391b011cb26aa5,lelihhshbe,Nick_Dissertation_EX1,1,45,2020-07-08T14:55:32-07:00,1.6855080127716,4,versionC_stim.csv,READVersionD.csv,"Read Version D","Dissertation, read only version D",END,ADJOURN,Study2,B,101,132,Study,User,-,,Study/JOL,"Study Phase",1014,,,-1,-1,,,,1
5ee34f8fc3391b011cb26aa5,lelihhshbe,Nick_Dissertation_EX1,1,46,2020-07-08T14:55:34-07:00,1.2645630836487,4,versionC_stim.csv,READVersionD.csv,"Read Version D","Dissertation, read only version D",SCAR,MAIN,Study2,U,175,154,Study,User,-,,Study/JOL,"Study Phase",903,,,-1,-1,,,,1
5ee34f8fc3391b011cb26aa5,lelihhshbe,Nick_Dissertation_EX1,1,47,2020-07-08T14:55:35-07:00,1.5548419952393,4,versionC_stim.csv,READVersionD.csv,"Read Version D","Dissertation, read only version D",COLD,CHILL,Study2,B,114,156,Study,User,-,,Study/JOL,"Study Phase",1043,,,-1,-1,,,,1
5ee34f8fc3391b011cb26aa5,lelihhshbe,Nick_Dissertation_EX1,1,48,2020-07-08T14:55:37-07:00,1.6415460109711,4,versionC_stim.csv,READVersionD.csv,"Read Version D","Dissertation, read only version D",BREAKABLE,GLASS,Study2,F,127,121,Study,User,-,,Study/JOL,"Study Phase",1133,,,-1,-1,,,,1
5ee34f8fc3391b011cb26aa5,lelihhshbe,Nick_Dissertation_EX1,1,49,2020-07-08T14:55:38-07:00,1.5338509082794,4,versionC_stim.csv,READVersionD.csv,"Read Version D","Dissertation, read only version D",CARBON,ELEMENT,Study2,S,141,163,Study,User,-,,Study/JOL,"Study Phase",1038,,,-1,-1,,,,1
5ee34f8fc3391b011cb26aa5,lelihhshbe,Nick_Dissertation_EX1,1,50,2020-07-08T14:55:40-07:00,1.4332630634308,4,versionC_stim.csv,READVersionD.csv,"Read Version D","Dissertation, read only version D",LONG,EXTENSION,Study2,B,96,168,Study,User,-,,Study/JOL,"Study Phase",961,,,-1,-1,,,,1
5ee34f8fc3391b011cb26aa5,lelihhshbe,Nick_Dissertation_EX1,1,51,2020-07-08T14:55:44-07:00,4.4039859771729,4,versionC_stim.csv,READVersionD.csv,"Read Version D","Dissertation, read only version D",SMELL,INCENSE,Study2,B,110,142,Study,User,-,,Study/JOL,"Study Phase",3897,,,-1,-1,,,,1
5ee34f8fc3391b011cb26aa5,lelihhshbe,Nick_Dissertation_EX1,1,52,2020-07-08T14:55:46-07:00,1.3378839492798,4,versionC_stim.csv,READVersionD.csv,"Read Version D","Dissertation, read only version D",WINDSHIELD,CAR,Study2,F,117,117,Study,User,-,,Study/JOL,"Study Phase",863,,,-1,-1,,,,1
5ee34f8fc3391b011cb26aa5,lelihhshbe,Nick_Dissertation_EX1,1,53,2020-07-08T14:55:47-07:00,1.8401560783386,4,versionC_stim.csv,READVersionD.csv,"Read Version D","Dissertation, read only version D",TRUTHFUL,HONEST,Study2,F,133,110,Study,User,-,,Study/JOL,"Study Phase",1184,,,-1,-1,,,,1
5ee34f8fc3391b011cb26aa5,lelihhshbe,Nick_Dissertation_EX1,1,54,2020-07-08T14:55:49-07:00,1.7394740581512,4,versionC_stim.csv,READVersionD.csv,"Read Version D","Dissertation, read only version D",TEMPER,TANTRUM,Study2,S,154,109,Study,User,-,,Study/JOL,"Study Phase",1235,,,-1,-1,,,,1
5ee34f8fc3391b011cb26aa5,lelihhshbe,Nick_Dissertation_EX1,1,55,2020-07-08T14:55:50-07:00,1.2183258533478,4,versionC_stim.csv,READVersionD.csv,"Read Version D","Dissertation, read only version D",CHARM,VEHICLE,Study2,U,160,152,Study,User,-,,Study/JOL,"Study Phase",852,,,-1,-1,,,,1
5ee34f8fc3391b011cb26aa5,lelihhshbe,Nick_Dissertation_EX1,1,56,2020-07-08T14:55:52-07:00,1.7490501403809,4,versionC_stim.csv,READVersionD.csv,"Read Version D","Dissertation, read only version D",COMMUNICATION,PHONE,Study2,S,149,148,Study,User,-,,Study/JOL,"Study Phase",1088,,,-1,-1,,,,1
5ee34f8fc3391b011cb26aa5,lelihhshbe,Nick_Dissertation_EX1,1,57,2020-07-08T14:55:53-07:00,1.272057056427,4,versionC_stim.csv,READVersionD.csv,"Read Version D","Dissertation, read only version D",SIGN,LOAN,Study2,U,171,174,Study,User,-,,Study/JOL,"Study Phase",914,,,-1,-1,,,,1
5ee34f8fc3391b011cb26aa5,lelihhshbe,Nick_Dissertation_EX1,1,58,2020-07-08T14:55:55-07:00,1.4920608997345,4,versionC_stim.csv,READVersionD.csv,"Read Version D","Dissertation, read only version D",CUT,CHOP,Study2,B,107,151,Study,User,-,,Study/JOL,"Study Phase",936,,,-1,-1,,,,1
5ee34f8fc3391b011cb26aa5,lelihhshbe,Nick_Dissertation_EX1,1,59,2020-07-08T14:55:56-07:00,1.2813820838928,4,versionC_stim.csv,READVersionD.csv,"Read Version D","Dissertation, read only version D",LIE,TRUTH,Study2,S,148,107,Study,User,-,,Study/JOL,"Study Phase",924,,,-1,-1,,,,1
5ee34f8fc3391b011cb26aa5,lelihhshbe,Nick_Dissertation_EX1,1,60,2020-07-08T14:55:58-07:00,1.6908240318298,4,versionC_stim.csv,READVersionD.csv,"Read Version D","Dissertation, read only version D",STRAWBERRY,FRUIT,Study2,F,124,165,Study,User,-,,Study/JOL,"Study Phase",1075,,,-1,-1,,,,1
5ee34f8fc3391b011cb26aa5,lelihhshbe,Nick_Dissertation_EX1,1,61,2020-07-08T14:55:59-07:00,1.2286767959595,4,versionC_stim.csv,READVersionD.csv,"Read Version D","Dissertation, read only version D",TICK,FLEA,Study2,S,151,100,Study,User,-,,Study/JOL,"Study Phase",861,,,-1,-1,,,,1
5ee34f8fc3391b011cb26aa5,lelihhshbe,Nick_Dissertation_EX1,1,62,2020-07-08T14:56:00-07:00,1.3140749931335,4,versionC_stim.csv,READVersionD.csv,"Read Version D","Dissertation, read only version D",WET,DRY,Study2,S,146,173,Study,User,-,,Study/JOL,"Study Phase",834,,,-1,-1,,,,1
5ee34f8fc3391b011cb26aa5,lelihhshbe,Nick_Dissertation_EX1,1,63,2020-07-08T14:56:02-07:00,1.6602821350098,4,versionC_stim.csv,READVersionD.csv,"Read Version D","Dissertation, read only version D",AIRCRAFT,PLANE,Study2,F,129,144,Study,User,-,,Study/JOL,"Study Phase",1121,,,-1,-1,,,,1
5ee34f8fc3391b011cb26aa5,lelihhshbe,Nick_Dissertation_EX1,1,64,2020-07-08T14:56:03-07:00,1.2378969192505,4,versionC_stim.csv,READVersionD.csv,"Read Version D","Dissertation, read only version D",FIGHT,FEUD,Study2,B,113,119,Study,User,-,,Study/JOL,"Study Phase",854,,,-1,-1,,,,1
5ee34f8fc3391b011cb26aa5,lelihhshbe,Nick_Dissertation_EX1,1,65,2020-07-08T14:56:05-07:00,1.2957799434662,4,versionC_stim.csv,READVersionD.csv,"Read Version D","Dissertation, read only version D",BALLOON,POP,Study2,F,123,136,Study,User,-,,Study/JOL,"Study Phase",822,,,-1,-1,,,,1
5ee34f8fc3391b011cb26aa5,lelihhshbe,Nick_Dissertation_EX1,1,66,2020-07-08T14:56:06-07:00,1.7651200294495,4,versionC_stim.csv,READVersionD.csv,"Read Version D","Dissertation, read only version D",SEATBELT,SAFETY,Study2,S,147,146,Study,User,-,,Study/JOL,"Study Phase",1162,,,-1,-1,,,,1
5ee34f8fc3391b011cb26aa5,lelihhshbe,Nick_Dissertation_EX1,1,67,2020-07-08T14:56:08-07:00,1.5310699939728,4,versionC_stim.csv,READVersionD.csv,"Read Version D","Dissertation, read only version D",HAVE,OWN,Study2,S,153,167,Study,User,-,,Study/JOL,"Study Phase",940,,,-1,-1,,,,1
5ee34f8fc3391b011cb26aa5,lelihhshbe,Nick_Dissertation_EX1,1,68,2020-07-08T14:56:10-07:00,2.2811081409454,4,versionC_stim.csv,READVersionD.csv,"Read Version D","Dissertation, read only version D",BANKER,MONEY,Study2,F,132,157,Study,User,-,,Study/JOL,"Study Phase",912,,,-1,-1,,,,1
5ee34f8fc3391b011cb26aa5,lelihhshbe,Nick_Dissertation_EX1,1,69,2020-07-08T14:56:12-07:00,1.3572340011597,4,versionC_stim.csv,READVersionD.csv,"Read Version D","Dissertation, read only version D",COFFIN,DEAD,Study2,F,128,145,Study,User,-,,Study/JOL,"Study Phase",907,,,-1,-1,,,,1
5ee34f8fc3391b011cb26aa5,lelihhshbe,Nick_Dissertation_EX1,1,70,2020-07-08T14:56:13-07:00,1.6880390644073,4,versionC_stim.csv,READVersionD.csv,"Read Version D","Dissertation, read only version D",CLOTHES,CAKE,Study2,U,166,97,Study,User,-,,Study/JOL,"Study Phase",1079,,,-1,-1,,,,1
5ee34f8fc3391b011cb26aa5,lelihhshbe,Nick_Dissertation_EX1,1,71,2020-07-08T14:56:14-07:00,1.2661788463593,4,versionC_stim.csv,READVersionD.csv,"Read Version D","Dissertation, read only version D",PLANT,CACTUS,Study2,B,98,166,Study,User,-,,Study/JOL,"Study Phase",906,,,-1,-1,,,,1
5ee34f8fc3391b011cb26aa5,lelihhshbe,Nick_Dissertation_EX1,1,72,2020-07-08T14:56:16-07:00,1.5001051425934,4,versionC_stim.csv,READVersionD.csv,"Read Version D","Dissertation, read only version D",ACTRESS,STAR,Study2,F,120,122,Study,User,-,,Study/JOL,"Study Phase",949,,,-1,-1,,,,1
5ee34f8fc3391b011cb26aa5,lelihhshbe,Nick_Dissertation_EX1,1,73,2020-07-08T14:56:17-07:00,1.2237420082092,4,versionC_stim.csv,READVersionD.csv,"Read Version D","Dissertation, read only version D",DOG,FURRY,Study2,B,102,158,Study,User,-,,Study/JOL,"Study Phase",863,,,-1,-1,,,,1
5ee34f8fc3391b011cb26aa5,lelihhshbe,Nick_Dissertation_EX1,1,74,2020-07-08T14:56:19-07:00,1.8452429771423,4,versionC_stim.csv,READVersionD.csv,"Read Version D","Dissertation, read only version D",TRASH,LITTER,Study2,B,103,125,Study,User,-,,Study/JOL,"Study Phase",1364,,,-1,-1,,,,1
5ee34f8fc3391b011cb26aa5,lelihhshbe,Nick_Dissertation_EX1,1,75,2020-07-08T14:56:21-07:00,1.5358848571777,4,versionC_stim.csv,READVersionD.csv,"Read Version D","Dissertation, read only version D",HEAD,SCALP,Study2,B,105,102,Study,User,-,,Study/JOL,"Study Phase",971,,,-1,-1,,,,1
5ee34f8fc3391b011cb26aa5,lelihhshbe,Nick_Dissertation_EX1,1,76,2020-07-08T14:56:22-07:00,1.2294430732727,4,versionC_stim.csv,READVersionD.csv,"Read Version D","Dissertation, read only version D",ELECTION,MAZE,Study2,U,159,118,Study,User,-,,Study/JOL,"Study Phase",846,,,-1,-1,,,,1
5ee34f8fc3391b011cb26aa5,lelihhshbe,Nick_Dissertation_EX1,1,77,2020-07-08T14:56:23-07:00,1.5386390686035,4,versionC_stim.csv,READVersionD.csv,"Read Version D","Dissertation, read only version D",EAT,DINE,Study2,B,111,175,Study,User,-,,Study/JOL,"Study Phase",1050,,,-1,-1,,,,1
5ee34f8fc3391b011cb26aa5,lelihhshbe,Nick_Dissertation_EX1,1,78,2020-07-08T14:56:25-07:00,1.2419219017029,4,versionC_stim.csv,READVersionD.csv,"Read Version D","Dissertation, read only version D",MAROON,JUSTICE,Study2,U,156,171,Study,User,-,,Study/JOL,"Study Phase",883,,,-1,-1,,,,1
5ee34f8fc3391b011cb26aa5,lelihhshbe,Nick_Dissertation_EX1,1,79,2020-07-08T14:56:26-07:00,1.3227639198303,4,versionC_stim.csv,READVersionD.csv,"Read Version D","Dissertation, read only version D",CLEAR,MOAT,Study2,U,169,106,Study,User,-,,Study/JOL,"Study Phase",866,,,-1,-1,,,,1
5ee34f8fc3391b011cb26aa5,lelihhshbe,Nick_Dissertation_EX1,1,80,2020-07-08T14:56:27-07:00,1.5318510532379,4,versionC_stim.csv,READVersionD.csv,"Read Version D","Dissertation, read only version D",SHAVE,RAZOR,Study2,S,136,162,Study,User,-,,Study/JOL,"Study Phase",944,,,-1,-1,,,,1
5ee34f8fc3391b011cb26aa5,lelihhshbe,Nick_Dissertation_EX1,1,81,2020-07-08T14:56:29-07:00,1.6356451511383,4,versionC_stim.csv,READVersionD.csv,"Read Version D","Dissertation, read only version D",CHILDREN,MIRROR,Study2,U,174,126,Study,User,-,,Study/JOL,"Study Phase",1118,,,-1,-1,,,,1
5ee34f8fc3391b011cb26aa5,lelihhshbe,Nick_Dissertation_EX1,1,82,2020-07-08T14:56:41-07:00,12.38941192627,4,versionC_stim.csv,READVersionD.csv,"Read Version D","Dissertation, read only version D",LOVE,AFFECTION,Study2,B,115,111,Study,User,-,,Study/JOL,"Study Phase",11904,,,-1,-1,,,,1
5ee34f8fc3391b011cb26aa5,lelihhshbe,Nick_Dissertation_EX1,1,83,2020-07-08T14:56:43-07:00,1.2970819473267,4,versionC_stim.csv,READVersionD.csv,"Read Version D","Dissertation, read only version D",JOKE,KEYS,Study2,U,165,164,Study,User,-,,Study/JOL,"Study Phase",935,,,-1,-1,,,,1
5ee34f8fc3391b011cb26aa5,lelihhshbe,Nick_Dissertation_EX1,1,84,2020-07-08T14:56:44-07:00,1.5700681209564,4,versionC_stim.csv,READVersionD.csv,"Read Version D","Dissertation, read only version D",VILLAIN,BAD,Study2,F,118,112,Study,User,-,,Study/JOL,"Study Phase",996,,,-1,-1,,,,1
5ee34f8fc3391b011cb26aa5,lelihhshbe,Nick_Dissertation_EX1,1,85,2020-07-08T14:56:46-07:00,1.2253849506378,4,versionC_stim.csv,READVersionD.csv,"Read Version D","Dissertation, read only version D",JAR,MASON,Study2,S,138,172,Study,User,-,,Study/JOL,"Study Phase",866,,,-1,-1,,,,1
5ee34f8fc3391b011cb26aa5,lelihhshbe,Nick_Dissertation_EX1,1,86,2020-07-08T14:56:47-07:00,1.2228379249573,4,versionC_stim.csv,READVersionD.csv,"Read Version D","Dissertation, read only version D",TAN,SUN,Study2,S,155,138,Study,User,-,,Study/JOL,"Study Phase",846,,,-1,-1,,,,1
5ee34f8fc3391b011cb26aa5,lelihhshbe,Nick_Dissertation_EX1,1,87,2020-07-08T14:56:48-07:00,1.308100938797,4,versionC_stim.csv,READVersionD.csv,"Read Version D","Dissertation, read only version D",SHED,TOOL,BUFFER4,Buffer,178,179,Study,User,-,,Study/JOL,BUFFER2,821,,,-1,-1,,,,1
5ee34f8fc3391b011cb26aa5,lelihhshbe,Nick_Dissertation_EX1,1,88,2020-07-08T14:56:50-07:00,1.5740120410919,4,versionC_stim.csv,READVersionD.csv,"Read Version D","Dissertation, read only version D",SPOOKY,OCTOBER,BUFFER4,Buffer,180,178,Study,User,-,,Study/JOL,BUFFER2,990,,,-1,-1,,,,1
5ee34f8fc3391b011cb26aa5,lelihhshbe,Nick_Dissertation_EX1,1,89,2020-07-08T14:56:53-07:00,3.5790779590607,4,versionC_stim.csv,READVersionD.csv,"Read Version D","Dissertation, read only version D",WEAKS,DAYS,BUFFER4,Buffer,176,181,Study,User,-,,Study/JOL,BUFFER2,3082,,,-1,-1,,,,1
5ee34f8fc3391b011cb26aa5,lelihhshbe,Nick_Dissertation_EX1,1,90,2020-07-08T14:56:55-07:00,2.2547330856323,4,versionC_stim.csv,READVersionD.csv,"Read Version D","Dissertation, read only version D",YEAR,MONTH,BUFFER4,Buffer,177,177,Study,User,-,,Study/JOL,BUFFER2,1612,,,-1,-1,,,,1
5ee34f8fc3391b011cb26aa5,lelihhshbe,Nick_Dissertation_EX1,1,91,2020-07-08T14:57:02-07:00,6.5523970127106,4,versionC_stim.csv,READVersionD.csv,"Read Version D","Dissertation, read only version D",MARCH,SPRING,BUFFER4,Buffer,179,180,Study,User,-,,Study/JOL,BUFFER2,6058,,,-1,-1,,,,1
5ee34f8fc3391b011cb26aa5,lelihhshbe,Nick_Dissertation_EX1,1,92,2020-07-08T14:57:05-07:00,3.0790610313416,4,versionC_stim.csv,READVersionD.csv,"Read Version D","Dissertation, read only version D",,,,,,0,Instruct,User,-,"You have completed this section. Please press Enter.",Filler_Instruction,Instruct2,2486,,,-1,-1,,,,1
5ee34f8fc3391b011cb26aa5,lelihhshbe,Nick_Dissertation_EX1,1,93,2020-07-08T14:59:06-07:00,120.62104392052,4,versionC_stim.csv,READVersionD.csv,"Read Version D","Dissertation, read only version D",,,,,,0,FreeRecall,120,120,"Please list the 50 US states in alphabetical order. The task will automatically advance to the next screen after two minutes.",,Filler1,120008,"Alabama Alaska Atlanta Arkansas Arizona Boston Colorado California Dakota Missippi Montana Idaho Nebraska New Mexico Nevada Oregon Oklahoma Washington ",0,11417,116184,0,0,,1
5ee34f8fc3391b011cb26aa5,lelihhshbe,Nick_Dissertation_EX1,1,94,2020-07-08T14:59:17-07:00,11.672091960907,4,versionC_stim.csv,READVersionD.csv,"Read Version D","Dissertation, read only version D",,,,,,0,Instruct,-,10,"You will now be presented with the first word from each of the previously studied item pairs. Please type the missing word. If you do not know the word, you may guess or press Enter to skip forward to the next pair.",,Instruct3,11147,,,-1,-1,,,,1
5ee34f8fc3391b011cb26aa5,lelihhshbe,Nick_Dissertation_EX1,1,95,2020-07-08T14:59:29-07:00,11.160695075989,4,versionC_stim.csv,READVersionD.csv,"Read Version D","Dissertation, read only version D",PENGUIN,BIRD,Study2,F,119,131,Test,User,-,,Recall,Recall1,10561,FIN,28.571428571429,2262,9520,0,0,,1
5ee34f8fc3391b011cb26aa5,lelihhshbe,Nick_Dissertation_EX1,1,96,2020-07-08T14:59:33-07:00,3.9950380325317,4,versionC_stim.csv,READVersionD.csv,"Read Version D","Dissertation, read only version D",STEAK,GIVE,Study2,U,158,104,Test,User,-,,Recall,Recall1,3456,KNIFE,44.444444444444,1967,2518,0,0,,1
5ee34f8fc3391b011cb26aa5,lelihhshbe,Nick_Dissertation_EX1,1,97,2020-07-08T14:59:37-07:00,4.0950539112091,4,versionC_stim.csv,READVersionD.csv,"Read Version D","Dissertation, read only version D",FAVORITE,BEST,Study2,F,125,113,Test,User,-,,Recall,Recall1,3443,BEST,100,2246,2539,1,1,,1
5ee34f8fc3391b011cb26aa5,lelihhshbe,Nick_Dissertation_EX1,1,98,2020-07-08T14:59:41-07:00,4.0059170722961,4,versionC_stim.csv,READVersionD.csv,"Read Version D","Dissertation, read only version D",CUT,CHOP,Study2,B,107,151,Test,User,-,,Recall,Recall1,3365,SLICE,22.222222222222,2073,2516,0,0,,1
5ee34f8fc3391b011cb26aa5,lelihhshbe,Nick_Dissertation_EX1,1,99,2020-07-08T14:59:47-07:00,6.2355270385742,4,versionC_stim.csv,READVersionD.csv,"Read Version D","Dissertation, read only version D",MYSTERY,DETECTIVE,Study2,B,100,127,Test,User,-,,Recall,Recall1,5621,DETECTIVE,100,2081,3249,1,1,,1
5ee34f8fc3391b011cb26aa5,lelihhshbe,Nick_Dissertation_EX1,1,100,2020-07-08T14:59:52-07:00,4.9189739227295,4,versionC_stim.csv,READVersionD.csv,"Read Version D","Dissertation, read only version D",TOIL,LEASE,Study2,U,170,105,Test,User,-,,Recall,Recall1,4247,,0,-1,-1,0,0,,1
5ee34f8fc3391b011cb26aa5,lelihhshbe,Nick_Dissertation_EX1,1,101,2020-07-08T14:59:56-07:00,4.6101920604706,4,versionC_stim.csv,READVersionD.csv,"Read Version D","Dissertation, read only version D",JAR,MASON,Study2,S,138,172,Test,User,-,,Recall,Recall1,3850,MASON,100,1706,2963,1,1,,1
5ee34f8fc3391b011cb26aa5,lelihhshbe,Nick_Dissertation_EX1,1,102,2020-07-08T15:00:01-07:00,5.0107600688934,4,versionC_stim.csv,READVersionD.csv,"Read Version D","Dissertation, read only version D",LOVE,AFFECTION,Study2,B,115,111,Test,User,-,,Recall,Recall1,4400,HATE,30.769230769231,2904,3564,0,0,,1
5ee34f8fc3391b011cb26aa5,lelihhshbe,Nick_Dissertation_EX1,1,103,2020-07-08T15:00:06-07:00,4.3019428253174,4,versionC_stim.csv,READVersionD.csv,"Read Version D","Dissertation, read only version D",WAX,CANDLE,Study2,S,139,150,Test,User,-,,Recall,Recall1,3648,,0,-1,-1,0,0,,1
5ee34f8fc3391b011cb26aa5,lelihhshbe,Nick_Dissertation_EX1,1,104,2020-07-08T15:00:12-07:00,6.246190071106,4,versionC_stim.csv,READVersionD.csv,"Read Version D","Dissertation, read only version D",SIGN,LOAN,Study2,U,171,174,Test,User,-,,Recall,Recall1,5697,,0,-1,-1,0,0,,1
5ee34f8fc3391b011cb26aa5,lelihhshbe,Nick_Dissertation_EX1,1,105,2020-07-08T15:00:16-07:00,4.0968990325928,4,versionC_stim.csv,READVersionD.csv,"Read Version D","Dissertation, read only version D",RED,CHERRY,Study2,B,104,123,Test,User,-,,Recall,Recall1,3544,BLACK,18.181818181818,2276,2690,0,0,,1
5ee34f8fc3391b011cb26aa5,lelihhshbe,Nick_Dissertation_EX1,1,106,2020-07-08T15:00:20-07:00,4.1967899799347,4,versionC_stim.csv,READVersionD.csv,"Read Version D","Dissertation, read only version D",JOKE,KEYS,Study2,U,165,164,Test,User,-,,Recall,Recall1,3597,,0,-1,-1,0,0,,1
5ee34f8fc3391b011cb26aa5,lelihhshbe,Nick_Dissertation_EX1,1,107,2020-07-08T15:00:25-07:00,4.6112010478973,4,versionC_stim.csv,READVersionD.csv,"Read Version D","Dissertation, read only version D",BANKER,MONEY,Study2,F,132,157,Test,User,-,,Recall,Recall1,4098,MONEY,100,2578,3067,1,1,,1
5ee34f8fc3391b011cb26aa5,lelihhshbe,Nick_Dissertation_EX1,1,108,2020-07-08T15:00:31-07:00,6.5512669086456,4,versionC_stim.csv,READVersionD.csv,"Read Version D","Dissertation, read only version D",BREAKABLE,GLASS,Study2,F,127,121,Test,User,-,,Recall,Recall1,5919,FRAGILE,16.666666666667,3365,5016,0,0,,1
5ee34f8fc3391b011cb26aa5,lelihhshbe,Nick_Dissertation_EX1,1,109,2020-07-08T15:00:36-07:00,4.5081489086151,4,versionC_stim.csv,READVersionD.csv,"Read Version D","Dissertation, read only version D",EQUAL,RIGHTS,Study2,S,137,135,Test,User,-,,Recall,Recall1,3965,RIGHTS,100,1745,3183,1,1,,1
5ee34f8fc3391b011cb26aa5,lelihhshbe,Nick_Dissertation_EX1,1,110,2020-07-08T15:00:41-07:00,5.426530122757,4,versionC_stim.csv,READVersionD.csv,"Read Version D","Dissertation, read only version D",CHARM,VEHICLE,Study2,U,160,152,Test,User,-,,Recall,Recall1,4762,,0,1832,2268,0,0,,1
5ee34f8fc3391b011cb26aa5,lelihhshbe,Nick_Dissertation_EX1,1,111,2020-07-08T15:00:47-07:00,5.6401629447937,4,versionC_stim.csv,READVersionD.csv,"Read Version D","Dissertation, read only version D",OUNCE,BOTH,Study2,U,172,116,Test,User,-,,Recall,Recall1,4854,GRAM,0,2278,4007,0,0,,1
5ee34f8fc3391b011cb26aa5,lelihhshbe,Nick_Dissertation_EX1,1,112,2020-07-08T15:00:51-07:00,3.6782791614532,4,versionC_stim.csv,READVersionD.csv,"Read Version D","Dissertation, read only version D",REVENGE,EVEN,Study2,F,122,137,Test,User,-,,Recall,Recall1,3053,,0,-1,-1,0,0,,1
5ee34f8fc3391b011cb26aa5,lelihhshbe,Nick_Dissertation_EX1,1,113,2020-07-08T15:00:55-07:00,4.3027827739716,4,versionC_stim.csv,READVersionD.csv,"Read Version D","Dissertation, read only version D",GROUND,EARTH,Study2,S,144,128,Test,User,-,,Recall,Recall1,3646,,0,-1,-1,0,0,,1
5ee34f8fc3391b011cb26aa5,lelihhshbe,Nick_Dissertation_EX1,1,114,2020-07-08T15:01:03-07:00,8.1889431476593,4,versionC_stim.csv,READVersionD.csv,"Read Version D","Dissertation, read only version D",SCISSORS,SHEARS,Study2,B,112,159,Test,User,-,,Recall,Recall1,7555,SHEARS,100,5148,6694,1,1,,1
5ee34f8fc3391b011cb26aa5,lelihhshbe,Nick_Dissertation_EX1,1,115,2020-07-08T15:01:09-07:00,5.8374209403992,4,versionC_stim.csv,READVersionD.csv,"Read Version D","Dissertation, read only version D",SARDINE,FISH,Study2,F,130,124,Test,User,-,,Recall,Recall1,5227,FISH,100,4040,4266,1,1,,1
5ee34f8fc3391b011cb26aa5,lelihhshbe,Nick_Dissertation_EX1,1,116,2020-07-08T15:01:14-07:00,5.1197910308838,4,versionC_stim.csv,READVersionD.csv,"Read Version D","Dissertation, read only version D",BRAWL,FIGHT,Study2,F,135,153,Test,User,-,,Recall,Recall1,4553,FIGHT,100,3348,3746,1,1,,1
5ee34f8fc3391b011cb26aa5,lelihhshbe,Nick_Dissertation_EX1,1,117,2020-07-08T15:01:18-07:00,4.3007969856262,4,versionC_stim.csv,READVersionD.csv,"Read Version D","Dissertation, read only version D",FLIP,TURN,Study2,F,116,161,Test,User,-,,Recall,Recall1,3773,FLOP,0,1623,2012,0,0,,1
5ee34f8fc3391b011cb26aa5,lelihhshbe,Nick_Dissertation_EX1,1,118,2020-07-08T15:01:22-07:00,3.380175113678,4,versionC_stim.csv,READVersionD.csv,"Read Version D","Dissertation, read only version D",WET,DRY,Study2,S,146,173,Test,User,-,,Recall,Recall1,2691,,0,-1,-1,0,0,,1
5ee34f8fc3391b011cb26aa5,lelihhshbe,Nick_Dissertation_EX1,1,119,2020-07-08T15:01:24-07:00,2.5594928264618,4,versionC_stim.csv,READVersionD.csv,"Read Version D","Dissertation, read only version D",TAN,SUN,Study2,S,155,138,Test,User,-,,Recall,Recall1,1953,,0,-1,-1,0,0,,1
5ee34f8fc3391b011cb26aa5,lelihhshbe,Nick_Dissertation_EX1,1,120,2020-07-08T15:01:27-07:00,2.8680281639099,4,versionC_stim.csv,READVersionD.csv,"Read Version D","Dissertation, read only version D",BALLOON,POP,Study2,F,123,136,Test,User,-,,Recall,Recall1,2324,,0,-1,-1,0,0,,1
5ee34f8fc3391b011cb26aa5,lelihhshbe,Nick_Dissertation_EX1,1,121,2020-07-08T15:01:31-07:00,3.9928658008575,4,versionC_stim.csv,READVersionD.csv,"Read Version D","Dissertation, read only version D",LONG,EXTENSION,Study2,B,96,168,Test,User,-,,Recall,Recall1,3335,SHORT,28.571428571429,1749,2559,0,0,,1
5ee34f8fc3391b011cb26aa5,lelihhshbe,Nick_Dissertation_EX1,1,122,2020-07-08T15:01:36-07:00,4.6096651554108,4,versionC_stim.csv,READVersionD.csv,"Read Version D","Dissertation, read only version D",AWAY,GONE,Study2,S,142,133,Test,User,-,,Recall,Recall1,3940,GIVE,50,1797,2118,0,0,,1
5ee34f8fc3391b011cb26aa5,lelihhshbe,Nick_Dissertation_EX1,1,123,2020-07-08T15:01:40-07:00,4.2983539104462,4,versionC_stim.csv,READVersionD.csv,"Read Version D","Dissertation, read only version D",TEMPER,TANTRUM,Study2,S,154,109,Test,User,-,,Recall,Recall1,3814,TANTRUM,100,1728,2758,1,1,,1
5ee34f8fc3391b011cb26aa5,lelihhshbe,Nick_Dissertation_EX1,1,124,2020-07-08T15:01:44-07:00,3.6873240470886,4,versionC_stim.csv,READVersionD.csv,"Read Version D","Dissertation, read only version D",TICK,FLEA,Study2,S,151,100,Test,User,-,,Recall,Recall1,3091,TOCK,0,1669,1988,0,0,,1
5ee34f8fc3391b011cb26aa5,lelihhshbe,Nick_Dissertation_EX1,1,125,2020-07-08T15:01:52-07:00,8.3959438800812,4,versionC_stim.csv,READVersionD.csv,"Read Version D","Dissertation, read only version D",ACTRESS,STAR,Study2,F,120,122,Test,User,-,,Recall,Recall1,7791,PEFORMER,16.666666666667,5827,7063,0,0,,1
5ee34f8fc3391b011cb26aa5,lelihhshbe,Nick_Dissertation_EX1,1,126,2020-07-08T15:01:57-07:00,5.2213001251221,4,versionC_stim.csv,READVersionD.csv,"Read Version D","Dissertation, read only version D",NOISE,LOUD,Study2,S,152,143,Test,User,-,,Recall,Recall1,4531,SILENCE,18.181818181818,2049,3683,0,0,,1
5ee34f8fc3391b011cb26aa5,lelihhshbe,Nick_Dissertation_EX1,1,127,2020-07-08T15:02:02-07:00,4.3160898685455,4,versionC_stim.csv,READVersionD.csv,"Read Version D","Dissertation, read only version D",TRASH,LITTER,Study2,B,103,125,Test,User,-,,Recall,Recall1,3769,BIN,22.222222222222,2491,2847,0,0,,1
5ee34f8fc3391b011cb26aa5,lelihhshbe,Nick_Dissertation_EX1,1,128,2020-07-08T15:02:05-07:00,3.0572531223297,4,versionC_stim.csv,READVersionD.csv,"Read Version D","Dissertation, read only version D",THIMBLE,THREAD,Study2,F,121,147,Test,User,-,,Recall,Recall1,2550,,0,-1,-1,0,0,,1
5ee34f8fc3391b011cb26aa5,lelihhshbe,Nick_Dissertation_EX1,1,129,2020-07-08T15:02:11-07:00,5.8463668823242,4,versionC_stim.csv,READVersionD.csv,"Read Version D","Dissertation, read only version D",SEATBELT,SAFETY,Study2,S,147,146,Test,User,-,,Recall,Recall1,5327,SAFETY,100,1702,4471,1,1,,1
5ee34f8fc3391b011cb26aa5,lelihhshbe,Nick_Dissertation_EX1,1,130,2020-07-08T15:02:14-07:00,3.7794091701508,4,versionC_stim.csv,READVersionD.csv,"Read Version D","Dissertation, read only version D",SMELL,INCENSE,Study2,B,110,142,Test,User,-,,Recall,Recall1,3116,SITE,36.363636363636,1984,2331,0,0,,1
5ee34f8fc3391b011cb26aa5,lelihhshbe,Nick_Dissertation_EX1,1,131,2020-07-08T15:02:17-07:00,2.8713409900665,4,versionC_stim.csv,READVersionD.csv,"Read Version D","Dissertation, read only version D",CLOTHES,CAKE,Study2,U,166,97,Test,User,-,,Recall,Recall1,2284,,0,-1,-1,0,0,,1
5ee34f8fc3391b011cb26aa5,lelihhshbe,Nick_Dissertation_EX1,1,132,2020-07-08T15:02:26-07:00,9.0095138549805,4,versionC_stim.csv,READVersionD.csv,"Read Version D","Dissertation, read only version D",Morning,TEMPERATURE,Study2,U,173,170,Test,User,-,,Recall,Recall1,8407,EVENING,22.222222222222,3311,7547,0,0,,1
5ee34f8fc3391b011cb26aa5,lelihhshbe,Nick_Dissertation_EX1,1,133,2020-07-08T15:02:34-07:00,7.4725720882416,4,versionC_stim.csv,READVersionD.csv,"Read Version D","Dissertation, read only version D",CLOTH,STRETCH,Study2,U,157,149,Test,User,-,,Recall,Recall1,6860,RAG,20,2491,6024,0,0,,1
5ee34f8fc3391b011cb26aa5,lelihhshbe,Nick_Dissertation_EX1,1,134,2020-07-08T15:02:38-07:00,3.790412902832,4,versionC_stim.csv,READVersionD.csv,"Read Version D","Dissertation, read only version D",HEAD,SCALP,Study2,B,105,102,Test,User,-,,Recall,Recall1,3216,,0,-1,-1,0,0,,1
5ee34f8fc3391b011cb26aa5,lelihhshbe,Nick_Dissertation_EX1,1,135,2020-07-08T15:02:43-07:00,5.119558095932,4,versionC_stim.csv,READVersionD.csv,"Read Version D","Dissertation, read only version D",FICTION,LISTEN,Study2,U,164,140,Test,User,-,,Recall,Recall1,4511,FANTASY,15.384615384615,1853,3607,0,0,,1
5ee34f8fc3391b011cb26aa5,lelihhshbe,Nick_Dissertation_EX1,1,136,2020-07-08T15:02:48-07:00,5.7046160697937,4,versionC_stim.csv,READVersionD.csv,"Read Version D","Dissertation, read only version D",VILLAIN,BAD,Study2,F,118,112,Test,User,-,,Recall,Recall1,5125,EVIL,0,1799,4292,0,0,,1
5ee34f8fc3391b011cb26aa5,lelihhshbe,Nick_Dissertation_EX1,1,137,2020-07-08T15:02:55-07:00,6.4808330535889,4,versionC_stim.csv,READVersionD.csv,"Read Version D","Dissertation, read only version D",BANG,FUZZY,Study2,U,168,108,Test,User,-,,Recall,Recall1,5963,,0,-1,-1,0,0,,1
5ee34f8fc3391b011cb26aa5,lelihhshbe,Nick_Dissertation_EX1,1,138,2020-07-08T15:02:58-07:00,3.0720160007477,4,versionC_stim.csv,READVersionD.csv,"Read Version D","Dissertation, read only version D",SCAR,MAIN,Study2,U,175,154,Test,User,-,,Recall,Recall1,2472,,0,-1,-1,0,0,,1
5ee34f8fc3391b011cb26aa5,lelihhshbe,Nick_Dissertation_EX1,1,139,2020-07-08T15:03:02-07:00,3.6869139671326,4,versionC_stim.csv,READVersionD.csv,"Read Version D","Dissertation, read only version D",WINDSHIELD,CAR,Study2,F,117,117,Test,User,-,,Recall,Recall1,3143,WIPER,25,2032,2418,0,0,,1
5ee34f8fc3391b011cb26aa5,lelihhshbe,Nick_Dissertation_EX1,1,140,2020-07-08T15:03:07-07:00,4.914470911026,4,versionC_stim.csv,READVersionD.csv,"Read Version D","Dissertation, read only version D",AIRCRAFT,PLANE,Study2,F,129,144,Test,User,-,,Recall,Recall1,4305,FLIGHT,18.181818181818,1656,3539,0,0,,1
5ee34f8fc3391b011cb26aa5,lelihhshbe,Nick_Dissertation_EX1,1,141,2020-07-08T15:03:12-07:00,5.223326921463,4,versionC_stim.csv,READVersionD.csv,"Read Version D","Dissertation, read only version D",ABLE,CRACKLE,Study2,U,162,176,Test,User,-,,Recall,Recall1,4720,DISABLE,42.857142857143,3227,3851,0,0,,1
5ee34f8fc3391b011cb26aa5,lelihhshbe,Nick_Dissertation_EX1,1,142,2020-07-08T15:03:15-07:00,3.3788831233978,4,versionC_stim.csv,READVersionD.csv,"Read Version D","Dissertation, read only version D",MAROON,JUSTICE,Study2,U,156,171,Test,User,-,,Recall,Recall1,2744,,0,-1,-1,0,0,,1
5ee34f8fc3391b011cb26aa5,lelihhshbe,Nick_Dissertation_EX1,1,143,2020-07-08T15:03:21-07:00,5.5302338600159,4,versionC_stim.csv,READVersionD.csv,"Read Version D","Dissertation, read only version D",COMMUNICATION,PHONE,Study2,S,149,148,Test,User,-,,Recall,Recall1,4835,TALK,0,1817,3991,0,0,,1
5ee34f8fc3391b011cb26aa5,lelihhshbe,Nick_Dissertation_EX1,1,144,2020-07-08T15:03:24-07:00,2.8669881820679,4,versionC_stim.csv,READVersionD.csv,"Read Version D","Dissertation, read only version D",OBTAIN,MEAT,Study2,U,161,155,Test,User,-,,Recall,Recall1,2267,,0,-1,-1,0,0,,1
5ee34f8fc3391b011cb26aa5,lelihhshbe,Nick_Dissertation_EX1,1,145,2020-07-08T15:03:27-07:00,3.0733268260956,4,versionC_stim.csv,READVersionD.csv,"Read Version D","Dissertation, read only version D",TIE,SHOELACE,Study2,B,99,115,Test,User,-,,Recall,Recall1,2415,,0,-1,-1,0,0,,1
5ee34f8fc3391b011cb26aa5,lelihhshbe,Nick_Dissertation_EX1,1,146,2020-07-08T15:03:31-07:00,4.3064930438995,4,versionC_stim.csv,READVersionD.csv,"Read Version D","Dissertation, read only version D",PANTHER,CAT,Study2,F,126,129,Test,User,-,,Recall,Recall1,3609,,0,2331,2331,0,0,,1
5ee34f8fc3391b011cb26aa5,lelihhshbe,Nick_Dissertation_EX1,1,147,2020-07-08T15:03:34-07:00,3.4741311073303,4,versionC_stim.csv,READVersionD.csv,"Read Version D","Dissertation, read only version D",HAVE,OWN,Study2,S,153,167,Test,User,-,,Recall,Recall1,2844,GIVE,0,1766,2095,0,0,,1
5ee34f8fc3391b011cb26aa5,lelihhshbe,Nick_Dissertation_EX1,1,148,2020-07-08T15:03:39-07:00,4.5051579475403,4,versionC_stim.csv,READVersionD.csv,"Read Version D","Dissertation, read only version D",LEAGUE,BASEBALL,Study2,F,131,98,Test,User,-,,Recall,Recall1,3829,LEGEND,14.285714285714,1750,3059,0,0,,1
5ee34f8fc3391b011cb26aa5,lelihhshbe,Nick_Dissertation_EX1,1,149,2020-07-08T15:03:42-07:00,2.6000270843506,4,versionC_stim.csv,READVersionD.csv,"Read Version D","Dissertation, read only version D",CHILDREN,MIRROR,Study2,U,174,126,Test,User,-,,Recall,Recall1,2022,,0,-1,-1,0,0,,1
5ee34f8fc3391b011cb26aa5,lelihhshbe,Nick_Dissertation_EX1,1,150,2020-07-08T15:03:52-07:00,10.201282024384,4,versionC_stim.csv,READVersionD.csv,"Read Version D","Dissertation, read only version D",GAME,CLUE,Study2,B,97,130,Test,User,-,,Recall,Recall1,9688,FUN,28.571428571429,6388,8146,0,0,,1
5ee34f8fc3391b011cb26aa5,lelihhshbe,Nick_Dissertation_EX1,1,151,2020-07-08T15:03:55-07:00,3.6883859634399,4,versionC_stim.csv,READVersionD.csv,"Read Version D","Dissertation, read only version D",LONELY,ALONE,Study2,S,145,160,Test,User,-,,Recall,Recall1,3017,ALONE,100,1743,2189,1,1,,1
5ee34f8fc3391b011cb26aa5,lelihhshbe,Nick_Dissertation_EX1,1,152,2020-07-08T15:03:59-07:00,3.4780039787292,4,versionC_stim.csv,READVersionD.csv,"Read Version D","Dissertation, read only version D",NAP,SLEEP,Study2,F,134,139,Test,User,-,,Recall,Recall1,2936,SLEEP,100,1720,2087,1,1,,1
5ee34f8fc3391b011cb26aa5,lelihhshbe,Nick_Dissertation_EX1,1,153,2020-07-08T15:04:03-07:00,4.2014038562775,4,versionC_stim.csv,READVersionD.csv,"Read Version D","Dissertation, read only version D",LIE,TRUTH,Study2,S,148,107,Test,User,-,,Recall,Recall1,3518,,0,-1,-1,0,0,,1
5ee34f8fc3391b011cb26aa5,lelihhshbe,Nick_Dissertation_EX1,1,154,2020-07-08T15:04:08-07:00,5.2214071750641,4,versionC_stim.csv,READVersionD.csv,"Read Version D","Dissertation, read only version D",ELECTION,MAZE,Study2,U,159,118,Test,User,-,,Recall,Recall1,4513,VOTE,25,2959,3819,0,0,,1
5ee34f8fc3391b011cb26aa5,lelihhshbe,Nick_Dissertation_EX1,1,155,2020-07-08T15:04:12-07:00,3.4822478294373,4,versionC_stim.csv,READVersionD.csv,"Read Version D","Dissertation, read only version D",TRUTHFUL,HONEST,Study2,F,133,110,Test,User,-,,Recall,Recall1,2852,,0,-1,-1,0,0,,1
5ee34f8fc3391b011cb26aa5,lelihhshbe,Nick_Dissertation_EX1,1,156,2020-07-08T15:04:15-07:00,3.6838021278381,4,versionC_stim.csv,READVersionD.csv,"Read Version D","Dissertation, read only version D",HATE,NAME,Study2,U,167,114,Test,User,-,,Recall,Recall1,3041,LOVE,25,1686,2032,0,0,,1
5ee34f8fc3391b011cb26aa5,lelihhshbe,Nick_Dissertation_EX1,1,157,2020-07-08T15:04:19-07:00,3.5835168361664,4,versionC_stim.csv,READVersionD.csv,"Read Version D","Dissertation, read only version D",STRAWBERRY,FRUIT,Study2,F,124,165,Test,User,-,,Recall,Recall1,2989,RED,25,2000,2255,0,0,,1
5ee34f8fc3391b011cb26aa5,lelihhshbe,Nick_Dissertation_EX1,1,158,2020-07-08T15:04:23-07:00,3.7920482158661,4,versionC_stim.csv,READVersionD.csv,"Read Version D","Dissertation, read only version D",REEL,ROD,Study2,S,150,141,Test,User,-,,Recall,Recall1,2784,,0,-1,-1,0,0,,1
5ee34f8fc3391b011cb26aa5,lelihhshbe,Nick_Dissertation_EX1,1,159,2020-07-08T15:04:27-07:00,4.6105108261108,4,versionC_stim.csv,READVersionD.csv,"Read Version D","Dissertation, read only version D",END,ADJOURN,Study2,B,101,132,Test,User,-,,Recall,Recall1,3838,START,33.333333333333,2461,2852,0,0,,1
5ee34f8fc3391b011cb26aa5,lelihhshbe,Nick_Dissertation_EX1,1,160,2020-07-08T15:04:30-07:00,2.453910112381,4,versionC_stim.csv,READVersionD.csv,"Read Version D","Dissertation, read only version D",DRINK,WATER,Study2,S,143,101,Test,User,-,,Recall,Recall1,1975,,0,-1,-1,0,0,,1
5ee34f8fc3391b011cb26aa5,lelihhshbe,Nick_Dissertation_EX1,1,161,2020-07-08T15:04:32-07:00,2.4895470142365,4,versionC_stim.csv,READVersionD.csv,"Read Version D","Dissertation, read only version D",COFFIN,DEAD,Study2,F,128,145,Test,User,-,,Recall,Recall1,2013,,0,-1,-1,0,0,,1
5ee34f8fc3391b011cb26aa5,lelihhshbe,Nick_Dissertation_EX1,1,162,2020-07-08T15:04:39-07:00,7.0345249176025,4,versionC_stim.csv,READVersionD.csv,"Read Version D","Dissertation, read only version D",COLD,CHILL,Study2,B,114,156,Test,User,-,,Recall,Recall1,6451,ICE,25,3188,5602,0,0,,1
5ee34f8fc3391b011cb26aa5,lelihhshbe,Nick_Dissertation_EX1,1,163,2020-07-08T15:04:43-07:00,3.4798910617828,4,versionC_stim.csv,READVersionD.csv,"Read Version D","Dissertation, read only version D",PAPER,DOCUMENT,Study2,B,109,169,Test,User,-,,Recall,Recall1,2858,WHITE,15.384615384615,1709,2124,0,0,,1
5ee34f8fc3391b011cb26aa5,lelihhshbe,Nick_Dissertation_EX1,1,164,2020-07-08T15:04:47-07:00,4.0620229244232,4,versionC_stim.csv,READVersionD.csv,"Read Version D","Dissertation, read only version D",BRACELET,WRIST,Study2,S,140,103,Test,User,-,,Recall,Recall1,3588,WRIST,100,1948,2770,1,1,,1
5ee34f8fc3391b011cb26aa5,lelihhshbe,Nick_Dissertation_EX1,1,165,2020-07-08T15:04:51-07:00,3.617516040802,4,versionC_stim.csv,READVersionD.csv,"Read Version D","Dissertation, read only version D",EAT,DINE,Study2,B,111,175,Test,User,-,,Recall,Recall1,3099,DINE,100,1838,2071,1,1,,1
5ee34f8fc3391b011cb26aa5,lelihhshbe,Nick_Dissertation_EX1,1,166,2020-07-08T15:04:54-07:00,3.7893760204315,4,versionC_stim.csv,READVersionD.csv,"Read Version D","Dissertation, read only version D",FIGHT,FEUD,Study2,B,113,119,Test,User,-,,Recall,Recall1,3137,BRAWL,0,1685,2265,0,0,,1
5ee34f8fc3391b011cb26aa5,lelihhshbe,Nick_Dissertation_EX1,1,167,2020-07-08T15:05:00-07:00,5.4274458885193,4,versionC_stim.csv,READVersionD.csv,"Read Version D","Dissertation, read only version D",CARBON,ELEMENT,Study2,S,141,163,Test,User,-,,Recall,Recall1,4752,EMISSIONS,37.5,1630,3902,0,0,,1
5ee34f8fc3391b011cb26aa5,lelihhshbe,Nick_Dissertation_EX1,1,168,2020-07-08T15:05:04-07:00,4.2810781002045,4,versionC_stim.csv,READVersionD.csv,"Read Version D","Dissertation, read only version D",CLEAR,MOAT,Study2,U,169,106,Test,User,-,,Recall,Recall1,2696,CUT,28.571428571429,1749,1931,0,0,,1
5ee34f8fc3391b011cb26aa5,lelihhshbe,Nick_Dissertation_EX1,1,169,2020-07-08T15:05:07-07:00,2.784903049469,4,versionC_stim.csv,READVersionD.csv,"Read Version D","Dissertation, read only version D",PLANT,CACTUS,Study2,B,98,166,Test,User,-,,Recall,Recall1,2102,,0,-1,-1,0,0,,1
5ee34f8fc3391b011cb26aa5,lelihhshbe,Nick_Dissertation_EX1,1,170,2020-07-08T15:05:10-07:00,2.9721858501434,4,versionC_stim.csv,READVersionD.csv,"Read Version D","Dissertation, read only version D",DONKEY,MULE,Study2,B,108,120,Test,User,-,,Recall,Recall1,2312,,0,-1,-1,0,0,,1
5ee34f8fc3391b011cb26aa5,lelihhshbe,Nick_Dissertation_EX1,1,171,2020-07-08T15:05:14-07:00,4.2982301712036,4,versionC_stim.csv,READVersionD.csv,"Read Version D","Dissertation, read only version D",SHAKE,Shell,Study2,U,163,134,Test,User,-,,Recall,Recall1,3605,,0,-1,-1,0,0,,1
5ee34f8fc3391b011cb26aa5,lelihhshbe,Nick_Dissertation_EX1,1,172,2020-07-08T15:05:18-07:00,3.583352804184,4,versionC_stim.csv,READVersionD.csv,"Read Version D","Dissertation, read only version D",SHAVE,RAZOR,Study2,S,136,162,Test,User,-,,Recall,Recall1,2992,TRIM,22.222222222222,1757,2136,0,0,,1
5ee34f8fc3391b011cb26aa5,lelihhshbe,Nick_Dissertation_EX1,1,173,2020-07-08T15:05:21-07:00,3.2769610881805,4,versionC_stim.csv,READVersionD.csv,"Read Version D","Dissertation, read only version D",DOG,FURRY,Study2,B,102,158,Test,User,-,,Recall,Recall1,2778,CAT,0,1792,2037,0,0,,1
5ee34f8fc3391b011cb26aa5,lelihhshbe,Nick_Dissertation_EX1,1,174,2020-07-08T15:05:24-07:00,3.1756820678711,4,versionC_stim.csv,READVersionD.csv,"Read Version D","Dissertation, read only version D",CAR,DRIVER,Study2,B,106,99,Test,User,-,,Recall,Recall1,2690,,0,-1,-1,0,0,,1
5ee34f8fc3391b011cb26aa5,lelihhshbe,Nick_Dissertation_EX1,1,175,2020-07-08T15:05:37-07:00,12.800536870956,4,versionC_stim.csv,READVersionD.csv,"Read Version D","Dissertation, read only version D",,,,,,0,Instruct,-,10,"You will now be presented with a new set of word pairs. Please study each pair. Remember that your memory will be tested! When finished, press Enter to move to the next pair.",Initial_Instruct,Instruct4,12287,,,-1,-1,,,,1
5ee34f8fc3391b011cb26aa5,lelihhshbe,Nick_Dissertation_EX1,1,176,2020-07-08T15:05:47-07:00,10.137258052826,4,versionC_stim.csv,READVersionD.csv,"Read Version D","Dissertation, read only version D",BUTTER,PEANUT,BUFFER1,Buffer,3,5,Study,User,-,,Study/JOL,BUFFER3,9460,,,-1,-1,,,,1
5ee34f8fc3391b011cb26aa5,lelihhshbe,Nick_Dissertation_EX1,1,177,2020-07-08T15:05:55-07:00,7.8842000961304,4,versionC_stim.csv,READVersionD.csv,"Read Version D","Dissertation, read only version D",GREEN,TREES,BUFFER1,Buffer,1,3,Study,User,-,,Study/JOL,BUFFER3,7301,,,-1,-1,,,,1
5ee34f8fc3391b011cb26aa5,lelihhshbe,Nick_Dissertation_EX1,1,178,2020-07-08T15:05:57-07:00,1.843090057373,4,versionC_stim.csv,READVersionD.csv,"Read Version D","Dissertation, read only version D",CATCHER,BASEBALL,BUFFER1,Buffer,2,6,Study,User,-,,Study/JOL,BUFFER3,1199,,,-1,-1,,,,1
5ee34f8fc3391b011cb26aa5,lelihhshbe,Nick_Dissertation_EX1,1,179,2020-07-08T15:05:59-07:00,1.8461549282074,4,versionC_stim.csv,READVersionD.csv,"Read Version D","Dissertation, read only version D",HIDE,SCARE,BUFFER1,Buffer,4,4,Study,User,-,,Study/JOL,BUFFER3,1363,,,-1,-1,,,,1
5ee34f8fc3391b011cb26aa5,lelihhshbe,Nick_Dissertation_EX1,1,180,2020-07-08T15:06:01-07:00,1.9423849582672,4,versionC_stim.csv,READVersionD.csv,"Read Version D","Dissertation, read only version D",JAM,SPACE,BUFFER1,Buffer,5,2,Study,User,-,,Study/JOL,BUFFER3,1414,,,-1,-1,,,,1
5ee34f8fc3391b011cb26aa5,lelihhshbe,Nick_Dissertation_EX1,1,181,2020-07-08T15:06:03-07:00,2.1512649059296,4,versionC_stim.csv,READVersionD.csv,"Read Version D","Dissertation, read only version D",BAD,DELINQUENT,Study1,B,6,49,Study,User,-,,Study/JOL,"Study Phase2",1655,,,-1,-1,,,,1
5ee34f8fc3391b011cb26aa5,lelihhshbe,Nick_Dissertation_EX1,1,182,2020-07-08T15:06:05-07:00,2.0489981174469,4,versionC_stim.csv,READVersionD.csv,"Read Version D","Dissertation, read only version D",RACKET,BALL,Study1,F,38,74,Study,User,-,,Study/JOL,"Study Phase2",1506,,,-1,-1,,,,1
5ee34f8fc3391b011cb26aa5,lelihhshbe,Nick_Dissertation_EX1,1,183,2020-07-08T15:06:07-07:00,1.8463559150696,4,versionC_stim.csv,READVersionD.csv,"Read Version D","Dissertation, read only version D",BUSINESS,DEATH,Study1,U,72,21,Study,User,-,,Study/JOL,"Study Phase2",1327,,,-1,-1,,,,1
5ee34f8fc3391b011cb26aa5,lelihhshbe,Nick_Dissertation_EX1,1,184,2020-07-08T15:06:09-07:00,1.839271068573,4,versionC_stim.csv,READVersionD.csv,"Read Version D","Dissertation, read only version D",CHILI,HOT,Study1,F,37,58,Study,User,-,,Study/JOL,"Study Phase2",1317,,,-1,-1,,,,1
5ee34f8fc3391b011cb26aa5,lelihhshbe,Nick_Dissertation_EX1,1,185,2020-07-08T15:06:10-07:00,1.7431728839874,4,versionC_stim.csv,READVersionD.csv,"Read Version D","Dissertation, read only version D",BLAZE,FIRE,Study1,F,45,86,Study,User,-,,Study/JOL,"Study Phase2",1199,,,-1,-1,,,,1
5ee34f8fc3391b011cb26aa5,lelihhshbe,Nick_Dissertation_EX1,1,186,2020-07-08T15:06:12-07:00,2.1499671936035,4,versionC_stim.csv,READVersionD.csv,"Read Version D","Dissertation, read only version D",SIGHT,DEBATE,Study1,U,73,29,Study,User,-,,Study/JOL,"Study Phase2",1614,,,-1,-1,,,,1
5ee34f8fc3391b011cb26aa5,lelihhshbe,Nick_Dissertation_EX1,1,187,2020-07-08T15:06:15-07:00,2.1505229473114,4,versionC_stim.csv,READVersionD.csv,"Read Version D","Dissertation, read only version D",POSITION,MACHINE,Study1,U,76,34,Study,User,-,,Study/JOL,"Study Phase2",1568,,,-1,-1,,,,1
5ee34f8fc3391b011cb26aa5,lelihhshbe,Nick_Dissertation_EX1,1,188,2020-07-08T15:06:19-07:00,4.300057888031,4,versionC_stim.csv,READVersionD.csv,"Read Version D","Dissertation, read only version D",WASP,BUG,Study1,F,32,42,Study,User,-,,Study/JOL,"Study Phase2",3770,,,-1,-1,,,,1
5ee34f8fc3391b011cb26aa5,lelihhshbe,Nick_Dissertation_EX1,1,189,2020-07-08T15:06:22-07:00,2.9699850082397,4,versionC_stim.csv,READVersionD.csv,"Read Version D","Dissertation, read only version D",ROCK,GEOLOGY,Study1,B,19,59,Study,User,-,,Study/JOL,"Study Phase2",1350,,,-1,-1,,,,1
5ee34f8fc3391b011cb26aa5,lelihhshbe,Nick_Dissertation_EX1,1,190,2020-07-08T15:06:24-07:00,1.738361120224,4,versionC_stim.csv,READVersionD.csv,"Read Version D","Dissertation, read only version D",STING,HORNET,Study1,B,11,55,Study,User,-,,Study/JOL,"Study Phase2",1239,,,-1,-1,,,,1
5ee34f8fc3391b011cb26aa5,lelihhshbe,Nick_Dissertation_EX1,1,191,2020-07-08T15:06:27-07:00,3.2568590641022,4,versionC_stim.csv,READVersionD.csv,"Read Version D","Dissertation, read only version D",ENOUGH,FULL,Study1,F,26,68,Study,User,-,,Study/JOL,"Study Phase2",1642,,,-1,-1,,,,1
5ee34f8fc3391b011cb26aa5,lelihhshbe,Nick_Dissertation_EX1,1,192,2020-07-08T15:06:30-07:00,2.6603689193726,4,versionC_stim.csv,READVersionD.csv,"Read Version D","Dissertation, read only version D",WATER,BRIDGE,Study1,B,18,54,Study,User,-,,Study/JOL,"Study Phase2",1017,,,-1,-1,,,,1
5ee34f8fc3391b011cb26aa5,lelihhshbe,Nick_Dissertation_EX1,1,193,2020-07-08T15:06:31-07:00,1.7652978897095,4,versionC_stim.csv,READVersionD.csv,"Read Version D","Dissertation, read only version D",STOMACH,DIGESTION,Study1,B,7,61,Study,User,-,,Study/JOL,"Study Phase2",1148,,,-1,-1,,,,1
5ee34f8fc3391b011cb26aa5,lelihhshbe,Nick_Dissertation_EX1,1,194,2020-07-08T15:06:33-07:00,1.9450371265411,4,versionC_stim.csv,READVersionD.csv,"Read Version D","Dissertation, read only version D",DESIGN,ARCHITECTURE,Study1,S,51,78,Study,User,-,,Study/JOL,"Study Phase2",1376,,,-1,-1,,,,1
5ee34f8fc3391b011cb26aa5,lelihhshbe,Nick_Dissertation_EX1,1,195,2020-07-08T15:06:35-07:00,1.7409980297089,4,versionC_stim.csv,READVersionD.csv,"Read Version D","Dissertation, read only version D",CARD,CREDIT,Study1,B,23,53,Study,User,-,,Study/JOL,"Study Phase2",1215,,,-1,-1,,,,1
5ee34f8fc3391b011cb26aa5,lelihhshbe,Nick_Dissertation_EX1,1,196,2020-07-08T15:06:37-07:00,1.8430659770966,4,versionC_stim.csv,READVersionD.csv,"Read Version D","Dissertation, read only version D",TALK,DISCUSSION,Study1,B,21,25,Study,User,-,,Study/JOL,"Study Phase2",1299,,,-1,-1,,,,1
5ee34f8fc3391b011cb26aa5,lelihhshbe,Nick_Dissertation_EX1,1,197,2020-07-08T15:06:39-07:00,1.8430769443512,4,versionC_stim.csv,READVersionD.csv,"Read Version D","Dissertation, read only version D",FOOT,SHOE,Study1,S,60,67,Study,User,-,,Study/JOL,"Study Phase2",1278,,,-1,-1,,,,1
5ee34f8fc3391b011cb26aa5,lelihhshbe,Nick_Dissertation_EX1,1,198,2020-07-08T15:06:43-07:00,4.6088500022888,4,versionC_stim.csv,READVersionD.csv,"Read Version D","Dissertation, read only version D",DIVISION,MATH,Study1,F,33,18,Study,User,-,,Study/JOL,"Study Phase2",4097,,,-1,-1,,,,1
5ee34f8fc3391b011cb26aa5,lelihhshbe,Nick_Dissertation_EX1,1,199,2020-07-08T15:06:46-07:00,2.2511138916016,4,versionC_stim.csv,READVersionD.csv,"Read Version D","Dissertation, read only version D",ACCIDENT,STRONG,Study1,U,80,10,Study,User,-,,Study/JOL,"Study Phase2",1622,,,-1,-1,,,,1
5ee34f8fc3391b011cb26aa5,lelihhshbe,Nick_Dissertation_EX1,1,200,2020-07-08T15:06:47-07:00,1.7427461147308,4,versionC_stim.csv,READVersionD.csv,"Read Version D","Dissertation, read only version D",GROWTH,HEIGHT,Study1,F,30,66,Study,User,-,,Study/JOL,"Study Phase2",1205,,,-1,-1,,,,1
5ee34f8fc3391b011cb26aa5,lelihhshbe,Nick_Dissertation_EX1,1,201,2020-07-08T15:06:49-07:00,1.637314081192,4,versionC_stim.csv,READVersionD.csv,"Read Version D","Dissertation, read only version D",FAMINE,HUNGER,Study1,F,40,16,Study,User,-,,Study/JOL,"Study Phase2",1080,,,-1,-1,,,,1
5ee34f8fc3391b011cb26aa5,lelihhshbe,Nick_Dissertation_EX1,1,202,2020-07-08T15:06:51-07:00,1.8449280261993,4,versionC_stim.csv,READVersionD.csv,"Read Version D","Dissertation, read only version D",HAMMER,CHISEL,Study1,B,9,37,Study,User,-,,Study/JOL,"Study Phase2",1293,,,-1,-1,,,,1
5ee34f8fc3391b011cb26aa5,lelihhshbe,Nick_Dissertation_EX1,1,203,2020-07-08T15:06:52-07:00,1.5337889194489,4,versionC_stim.csv,READVersionD.csv,"Read Version D","Dissertation, read only version D",SITE,LOCATION,Study1,S,48,75,Study,User,-,,Study/JOL,"Study Phase2",976,,,-1,-1,,,,1
5ee34f8fc3391b011cb26aa5,lelihhshbe,Nick_Dissertation_EX1,1,204,2020-07-08T15:06:54-07:00,1.6377069950104,4,versionC_stim.csv,READVersionD.csv,"Read Version D","Dissertation, read only version D",CAR,HAPPY,Study1,U,77,41,Study,User,-,,Study/JOL,"Study Phase2",1110,,,-1,-1,,,,1
5ee34f8fc3391b011cb26aa5,lelihhshbe,Nick_Dissertation_EX1,1,205,2020-07-08T15:06:55-07:00,1.5366458892822,4,versionC_stim.csv,READVersionD.csv,"Read Version D","Dissertation, read only version D",BAR,GRILL,Study1,S,52,76,Study,User,-,,Study/JOL,"Study Phase2",1016,,,-1,-1,,,,1
5ee34f8fc3391b011cb26aa5,lelihhshbe,Nick_Dissertation_EX1,1,206,2020-07-08T15:06:57-07:00,1.747670173645,4,versionC_stim.csv,READVersionD.csv,"Read Version D","Dissertation, read only version D",ROUND,CIRCLE,Study1,S,65,69,Study,User,-,,Study/JOL,"Study Phase2",1160,,,-1,-1,,,,1
5ee34f8fc3391b011cb26aa5,lelihhshbe,Nick_Dissertation_EX1,1,207,2020-07-08T15:06:59-07:00,1.6305768489838,4,versionC_stim.csv,READVersionD.csv,"Read Version D","Dissertation, read only version D",NEWS,EDITOR,Study1,B,10,28,Study,User,-,,Study/JOL,"Study Phase2",1072,,,-1,-1,,,,1
5ee34f8fc3391b011cb26aa5,lelihhshbe,Nick_Dissertation_EX1,1,208,2020-07-08T15:07:00-07:00,1.6428411006927,4,versionC_stim.csv,READVersionD.csv,"Read Version D","Dissertation, read only version D",CLEAN,HYGIENE,Study1,B,17,39,Study,User,-,,Study/JOL,"Study Phase2",1158,,,-1,-1,,,,1
5ee34f8fc3391b011cb26aa5,lelihhshbe,Nick_Dissertation_EX1,1,209,2020-07-08T15:07:02-07:00,1.6445100307465,4,versionC_stim.csv,READVersionD.csv,"Read Version D","Dissertation, read only version D",WIND,BLOW,Study1,S,55,62,Study,User,-,,Study/JOL,"Study Phase2",1144,,,-1,-1,,,,1
5ee34f8fc3391b011cb26aa5,lelihhshbe,Nick_Dissertation_EX1,1,210,2020-07-08T15:07:04-07:00,1.6659228801727,4,versionC_stim.csv,READVersionD.csv,"Read Version D","Dissertation, read only version D",FUTURE,PAST,Study1,S,61,22,Study,User,-,,Study/JOL,"Study Phase2",1120,,,-1,-1,,,,1
5ee34f8fc3391b011cb26aa5,lelihhshbe,Nick_Dissertation_EX1,1,211,2020-07-08T15:07:07-07:00,3.6280851364136,4,versionC_stim.csv,READVersionD.csv,"Read Version D","Dissertation, read only version D",RIDDLE,SUGAR,Study1,U,81,70,Study,User,-,,Study/JOL,"Study Phase2",1008,,,-1,-1,,,,1
5ee34f8fc3391b011cb26aa5,lelihhshbe,Nick_Dissertation_EX1,1,212,2020-07-08T15:07:11-07:00,3.1980149745941,4,versionC_stim.csv,READVersionD.csv,"Read Version D","Dissertation, read only version D",DROWSY,SLEEP,Study1,F,41,40,Study,User,-,,Study/JOL,"Study Phase2",2590,,,-1,-1,,,,1
5ee34f8fc3391b011cb26aa5,lelihhshbe,Nick_Dissertation_EX1,1,213,2020-07-08T15:07:12-07:00,1.7402620315552,4,versionC_stim.csv,READVersionD.csv,"Read Version D","Dissertation, read only version D",LATCH,KEY,Study1,F,36,56,Study,User,-,,Study/JOL,"Study Phase2",1122,,,-1,-1,,,,1
5ee34f8fc3391b011cb26aa5,lelihhshbe,Nick_Dissertation_EX1,1,214,2020-07-08T15:07:14-07:00,1.5350008010864,4,versionC_stim.csv,READVersionD.csv,"Read Version D","Dissertation, read only version D",COW,HERD,Study1,B,22,71,Study,User,-,,Study/JOL,"Study Phase2",957,,,-1,-1,,,,1
5ee34f8fc3391b011cb26aa5,lelihhshbe,Nick_Dissertation_EX1,1,215,2020-07-08T15:07:16-07:00,1.9449729919434,4,versionC_stim.csv,READVersionD.csv,"Read Version D","Dissertation, read only version D",PILOT,PLANE,Study1,F,44,27,Study,User,-,,Study/JOL,"Study Phase2",1426,,,-1,-1,,,,1
5ee34f8fc3391b011cb26aa5,lelihhshbe,Nick_Dissertation_EX1,1,216,2020-07-08T15:07:17-07:00,1.5380442142487,4,versionC_stim.csv,READVersionD.csv,"Read Version D","Dissertation, read only version D",FLOWER,ORCHID,Study1,B,24,73,Study,User,-,,Study/JOL,"Study Phase2",1051,,,-1,-1,,,,1
5ee34f8fc3391b011cb26aa5,lelihhshbe,Nick_Dissertation_EX1,1,217,2020-07-08T15:07:19-07:00,1.6369898319244,4,versionC_stim.csv,READVersionD.csv,"Read Version D","Dissertation, read only version D",COLD,BITTER,Study1,B,12,12,Study,User,-,,Study/JOL,"Study Phase2",1059,,,-1,-1,,,,1
5ee34f8fc3391b011cb26aa5,lelihhshbe,Nick_Dissertation_EX1,1,218,2020-07-08T15:07:20-07:00,1.433464050293,4,versionC_stim.csv,READVersionD.csv,"Read Version D","Dissertation, read only version D",BELT,SOON,Study1,U,70,44,Study,User,-,,Study/JOL,"Study Phase2",949,,,-1,-1,,,,1
5ee34f8fc3391b011cb26aa5,lelihhshbe,Nick_Dissertation_EX1,1,219,2020-07-08T15:07:26-07:00,6.0410981178284,4,versionC_stim.csv,READVersionD.csv,"Read Version D","Dissertation, read only version D",LIVER,KIDNEY,Study1,S,53,63,Study,User,-,,Study/JOL,"Study Phase2",5505,,,-1,-1,,,,1
5ee34f8fc3391b011cb26aa5,lelihhshbe,Nick_Dissertation_EX1,1,220,2020-07-08T15:07:28-07:00,1.6401507854462,4,versionC_stim.csv,READVersionD.csv,"Read Version D","Dissertation, read only version D",SODA,POP,Study1,S,56,60,Study,User,-,,Study/JOL,"Study Phase2",1136,,,-1,-1,,,,1
5ee34f8fc3391b011cb26aa5,lelihhshbe,Nick_Dissertation_EX1,1,221,2020-07-08T15:07:30-07:00,1.4329080581665,4,versionC_stim.csv,READVersionD.csv,"Read Version D","Dissertation, read only version D",ADD,VALLEY,Study1,U,82,32,Study,User,-,,Study/JOL,"Study Phase2",954,,,-1,-1,,,,1
5ee34f8fc3391b011cb26aa5,lelihhshbe,Nick_Dissertation_EX1,1,222,2020-07-08T15:07:31-07:00,1.5346651077271,4,versionC_stim.csv,READVersionD.csv,"Read Version D","Dissertation, read only version D",FLOOR,DISCOVER,Study1,U,71,30,Study,User,-,,Study/JOL,"Study Phase2",963,,,-1,-1,,,,1
5ee34f8fc3391b011cb26aa5,lelihhshbe,Nick_Dissertation_EX1,1,223,2020-07-08T15:07:33-07:00,2.0485098361969,4,versionC_stim.csv,READVersionD.csv,"Read Version D","Dissertation, read only version D",FANTASTIC,GREAT,Study1,F,35,26,Study,User,-,,Study/JOL,"Study Phase2",1488,,,-1,-1,,,,1
5ee34f8fc3391b011cb26aa5,lelihhshbe,Nick_Dissertation_EX1,1,224,2020-07-08T15:07:35-07:00,1.640643119812,4,versionC_stim.csv,READVersionD.csv,"Read Version D","Dissertation, read only version D",BIRD,SWAN,Study1,B,14,50,Study,User,-,,Study/JOL,"Study Phase2",1111,,,-1,-1,,,,1
5ee34f8fc3391b011cb26aa5,lelihhshbe,Nick_Dissertation_EX1,1,225,2020-07-08T15:07:37-07:00,1.7450089454651,4,versionC_stim.csv,READVersionD.csv,"Read Version D","Dissertation, read only version D",TOILET,BATHROOM,Study1,S,58,80,Study,User,-,,Study/JOL,"Study Phase2",1194,,,-1,-1,,,,1
5ee34f8fc3391b011cb26aa5,lelihhshbe,Nick_Dissertation_EX1,1,226,2020-07-08T15:07:38-07:00,1.5293729305267,4,versionC_stim.csv,READVersionD.csv,"Read Version D","Dissertation, read only version D",CHEESE,WINE,Study1,S,57,23,Study,User,-,,Study/JOL,"Study Phase2",988,,,-1,-1,,,,1
5ee34f8fc3391b011cb26aa5,lelihhshbe,Nick_Dissertation_EX1,1,227,2020-07-08T15:07:39-07:00,1.3004100322723,4,versionC_stim.csv,READVersionD.csv,"Read Version D","Dissertation, read only version D",SALAD,LETTUCE,Study1,S,59,7,Study,User,-,,Study/JOL,"Study Phase2",917,,,-1,-1,,,,1
5ee34f8fc3391b011cb26aa5,lelihhshbe,Nick_Dissertation_EX1,1,228,2020-07-08T15:07:41-07:00,1.5686461925507,4,versionC_stim.csv,READVersionD.csv,"Read Version D","Dissertation, read only version D",WASTE,DUMP,Study1,S,49,57,Study,User,-,,Study/JOL,"Study Phase2",990,,,-1,-1,,,,1
5ee34f8fc3391b011cb26aa5,lelihhshbe,Nick_Dissertation_EX1,1,229,2020-07-08T15:07:42-07:00,1.2626838684082,4,versionC_stim.csv,READVersionD.csv,"Read Version D","Dissertation, read only version D",DOG,PAW,Study1,B,15,15,Study,User,-,,Study/JOL,"Study Phase2",894,,,-1,-1,,,,1
5ee34f8fc3391b011cb26aa5,lelihhshbe,Nick_Dissertation_EX1,1,230,2020-07-08T15:07:44-07:00,1.6054739952087,4,versionC_stim.csv,READVersionD.csv,"Read Version D","Dissertation, read only version D",WAR,REVOLUTION,Study1,B,20,83,Study,User,-,,Study/JOL,"Study Phase2",957,,,-1,-1,,,,1
5ee34f8fc3391b011cb26aa5,lelihhshbe,Nick_Dissertation_EX1,1,231,2020-07-08T15:07:45-07:00,1.324597120285,4,versionC_stim.csv,READVersionD.csv,"Read Version D","Dissertation, read only version D",FISH,TUNA,Study1,B,25,43,Study,User,-,,Study/JOL,"Study Phase2",934,,,-1,-1,,,,1
5ee34f8fc3391b011cb26aa5,lelihhshbe,Nick_Dissertation_EX1,1,232,2020-07-08T15:07:47-07:00,1.5447278022766,4,versionC_stim.csv,READVersionD.csv,"Read Version D","Dissertation, read only version D",TUCK,ALLOW,Study1,U,78,82,Study,User,-,,Study/JOL,"Study Phase2",960,,,-1,-1,,,,1
5ee34f8fc3391b011cb26aa5,lelihhshbe,Nick_Dissertation_EX1,1,233,2020-07-08T15:07:48-07:00,1.2684540748596,4,versionC_stim.csv,READVersionD.csv,"Read Version D","Dissertation, read only version D",AMOUNT,NUMBER,Study1,S,47,47,Study,User,-,,Study/JOL,"Study Phase2",886,,,-1,-1,,,,1
5ee34f8fc3391b011cb26aa5,lelihhshbe,Nick_Dissertation_EX1,1,234,2020-07-08T15:07:49-07:00,1.3706960678101,4,versionC_stim.csv,READVersionD.csv,"Read Version D","Dissertation, read only version D",SIP,DRINK,Study1,F,27,35,Study,User,-,,Study/JOL,"Study Phase2",936,,,-1,-1,,,,1
5ee34f8fc3391b011cb26aa5,lelihhshbe,Nick_Dissertation_EX1,1,235,2020-07-08T15:07:51-07:00,1.5545480251312,4,versionC_stim.csv,READVersionD.csv,"Read Version D","Dissertation, read only version D",CHORE,WORK,Study1,F,39,85,Study,User,-,,Study/JOL,"Study Phase2",1010,,,-1,-1,,,,1
5ee34f8fc3391b011cb26aa5,lelihhshbe,Nick_Dissertation_EX1,1,236,2020-07-08T15:07:52-07:00,1.2545700073242,4,versionC_stim.csv,READVersionD.csv,"Read Version D","Dissertation, read only version D",WOMAN,LIFT,Study1,U,69,72,Study,User,-,,Study/JOL,"Study Phase2",881,,,-1,-1,,,,1
5ee34f8fc3391b011cb26aa5,lelihhshbe,Nick_Dissertation_EX1,1,237,2020-07-08T15:07:53-07:00,1.3541388511658,4,versionC_stim.csv,READVersionD.csv,"Read Version D","Dissertation, read only version D",HUNGRY,PARK,Study1,U,68,31,Study,User,-,,Study/JOL,"Study Phase2",895,,,-1,-1,,,,1
5ee34f8fc3391b011cb26aa5,lelihhshbe,Nick_Dissertation_EX1,1,238,2020-07-08T15:07:56-07:00,2.5178310871124,4,versionC_stim.csv,READVersionD.csv,"Read Version D","Dissertation, read only version D",MONEY,WAGE,Study1,B,8,77,Study,User,-,,Study/JOL,"Study Phase2",1987,,,-1,-1,,,,1
5ee34f8fc3391b011cb26aa5,lelihhshbe,Nick_Dissertation_EX1,1,239,2020-07-08T15:07:57-07:00,1.307746887207,4,versionC_stim.csv,READVersionD.csv,"Read Version D","Dissertation, read only version D",SICK,HIDE,Study1,U,84,48,Study,User,-,,Study/JOL,"Study Phase2",915,,,-1,-1,,,,1
5ee34f8fc3391b011cb26aa5,lelihhshbe,Nick_Dissertation_EX1,1,240,2020-07-08T15:07:59-07:00,1.2287361621857,4,versionC_stim.csv,READVersionD.csv,"Read Version D","Dissertation, read only version D",SEIZE,TAKE,Study1,F,29,19,Study,User,-,,Study/JOL,"Study Phase2",848,,,-1,-1,,,,1
5ee34f8fc3391b011cb26aa5,lelihhshbe,Nick_Dissertation_EX1,1,241,2020-07-08T15:08:00-07:00,1.4514088630676,4,versionC_stim.csv,READVersionD.csv,"Read Version D","Dissertation, read only version D",ATTORNEY,LAW,Study1,F,34,13,Study,User,-,,Study/JOL,"Study Phase2",952,,,-1,-1,,,,1
5ee34f8fc3391b011cb26aa5,lelihhshbe,Nick_Dissertation_EX1,1,242,2020-07-08T15:08:01-07:00,1.3169810771942,4,versionC_stim.csv,READVersionD.csv,"Read Version D","Dissertation, read only version D",WORD,SENTENCE,Study1,F,31,8,Study,User,-,,Study/JOL,"Study Phase2",940,,,-1,-1,,,,1
5ee34f8fc3391b011cb26aa5,lelihhshbe,Nick_Dissertation_EX1,1,243,2020-07-08T15:08:03-07:00,1.4011549949646,4,versionC_stim.csv,READVersionD.csv,"Read Version D","Dissertation, read only version D",STENCH,SMELL,Study1,F,42,17,Study,User,-,,Study/JOL,"Study Phase2",921,,,-1,-1,,,,1
5ee34f8fc3391b011cb26aa5,lelihhshbe,Nick_Dissertation_EX1,1,244,2020-07-08T15:08:04-07:00,1.5816020965576,4,versionC_stim.csv,READVersionD.csv,"Read Version D","Dissertation, read only version D",WOULD,CASH,Study1,U,83,65,Study,User,-,,Study/JOL,"Study Phase2",1000,,,-1,-1,,,,1
5ee34f8fc3391b011cb26aa5,lelihhshbe,Nick_Dissertation_EX1,1,245,2020-07-08T15:08:06-07:00,1.2802088260651,4,versionC_stim.csv,READVersionD.csv,"Read Version D","Dissertation, read only version D",HAND,FIX,Study1,U,75,45,Study,User,-,,Study/JOL,"Study Phase2",905,,,-1,-1,,,,1
5ee34f8fc3391b011cb26aa5,lelihhshbe,Nick_Dissertation_EX1,1,246,2020-07-08T15:08:07-07:00,1.4926171302795,4,versionC_stim.csv,READVersionD.csv,"Read Version D","Dissertation, read only version D",BEE,HONEY,Study1,S,63,46,Study,User,-,,Study/JOL,"Study Phase2",952,,,-1,-1,,,,1
5ee34f8fc3391b011cb26aa5,lelihhshbe,Nick_Dissertation_EX1,1,247,2020-07-08T15:08:08-07:00,1.217267036438,4,versionC_stim.csv,READVersionD.csv,"Read Version D","Dissertation, read only version D",CHILD,BABY,Study1,S,64,84,Study,User,-,,Study/JOL,"Study Phase2",847,,,-1,-1,,,,1
5ee34f8fc3391b011cb26aa5,lelihhshbe,Nick_Dissertation_EX1,1,248,2020-07-08T15:08:10-07:00,1.2856419086456,4,versionC_stim.csv,READVersionD.csv,"Read Version D","Dissertation, read only version D",ASSIGNMENT,DUE,Study1,S,46,79,Study,User,-,,Study/JOL,"Study Phase2",909,,,-1,-1,,,,1
5ee34f8fc3391b011cb26aa5,lelihhshbe,Nick_Dissertation_EX1,1,249,2020-07-08T15:08:12-07:00,2.1011950969696,4,versionC_stim.csv,READVersionD.csv,"Read Version D","Dissertation, read only version D",END,BEGIN,Study1,S,54,33,Study,User,-,,Study/JOL,"Study Phase2",1503,,,-1,-1,,,,1
5ee34f8fc3391b011cb26aa5,lelihhshbe,Nick_Dissertation_EX1,1,250,2020-07-08T15:08:13-07:00,1.1904499530792,4,versionC_stim.csv,READVersionD.csv,"Read Version D","Dissertation, read only version D",DEFINITION,MEANING,Study1,S,62,11,Study,User,-,,Study/JOL,"Study Phase2",806,,,-1,-1,,,,1
5ee34f8fc3391b011cb26aa5,lelihhshbe,Nick_Dissertation_EX1,1,251,2020-07-08T15:08:14-07:00,1.4689538478851,4,versionC_stim.csv,READVersionD.csv,"Read Version D","Dissertation, read only version D",ATTIRE,CLOTHES,Study1,F,43,24,Study,User,-,,Study/JOL,"Study Phase2",957,,,-1,-1,,,,1
5ee34f8fc3391b011cb26aa5,lelihhshbe,Nick_Dissertation_EX1,1,252,2020-07-08T15:08:16-07:00,1.2987480163574,4,versionC_stim.csv,READVersionD.csv,"Read Version D","Dissertation, read only version D",OUT,WAY,Study1,B,16,51,Study,User,-,,Study/JOL,"Study Phase2",900,,,-1,-1,,,,1
5ee34f8fc3391b011cb26aa5,lelihhshbe,Nick_Dissertation_EX1,1,253,2020-07-08T15:08:17-07:00,1.4673461914062,4,versionC_stim.csv,READVersionD.csv,"Read Version D","Dissertation, read only version D",PLANT,ROOT,Study1,B,13,36,Study,User,-,,Study/JOL,"Study Phase2",934,,,-1,-1,,,,1
5ee34f8fc3391b011cb26aa5,lelihhshbe,Nick_Dissertation_EX1,1,254,2020-07-08T15:08:18-07:00,1.2311308383942,4,versionC_stim.csv,READVersionD.csv,"Read Version D","Dissertation, read only version D",BRONZE,ARTERY,Study1,U,74,14,Study,User,-,,Study/JOL,"Study Phase2",838,,,-1,-1,,,,1
5ee34f8fc3391b011cb26aa5,lelihhshbe,Nick_Dissertation_EX1,1,255,2020-07-08T15:08:20-07:00,1.7385189533234,4,versionC_stim.csv,READVersionD.csv,"Read Version D","Dissertation, read only version D",SACKING,DIETARY,Study1,U,67,81,Study,User,-,,Study/JOL,"Study Phase2",1179,,,-1,-1,,,,1
5ee34f8fc3391b011cb26aa5,lelihhshbe,Nick_Dissertation_EX1,1,256,2020-07-08T15:08:22-07:00,1.5335659980774,4,versionC_stim.csv,READVersionD.csv,"Read Version D","Dissertation, read only version D",JURY,TRIAL,Study1,S,50,38,Study,User,-,,Study/JOL,"Study Phase2",1006,,,-1,-1,,,,1
5ee34f8fc3391b011cb26aa5,lelihhshbe,Nick_Dissertation_EX1,1,257,2020-07-08T15:08:23-07:00,1.4348950386047,4,versionC_stim.csv,READVersionD.csv,"Read Version D","Dissertation, read only version D",CAVE,DARK,Study1,F,28,20,Study,User,-,,Study/JOL,"Study Phase2",943,,,-1,-1,,,,1
5ee34f8fc3391b011cb26aa5,lelihhshbe,Nick_Dissertation_EX1,1,258,2020-07-08T15:08:24-07:00,1.2795381546021,4,versionC_stim.csv,READVersionD.csv,"Read Version D","Dissertation, read only version D",CLUTTER,PUSHER,Study1,U,66,64,Study,User,-,,Study/JOL,"Study Phase2",889,,,-1,-1,,,,1
5ee34f8fc3391b011cb26aa5,lelihhshbe,Nick_Dissertation_EX1,1,259,2020-07-08T15:08:26-07:00,1.3715069293976,4,versionC_stim.csv,READVersionD.csv,"Read Version D","Dissertation, read only version D",VASE,KING,Study1,U,85,9,Study,User,-,,Study/JOL,"Study Phase2",907,,,-1,-1,,,,1
5ee34f8fc3391b011cb26aa5,lelihhshbe,Nick_Dissertation_EX1,1,260,2020-07-08T15:08:27-07:00,1.5478830337524,4,versionC_stim.csv,READVersionD.csv,"Read Version D","Dissertation, read only version D",LION,ART,Study1,U,79,52,Study,User,-,,Study/JOL,"Study Phase2",966,,,-1,-1,,,,1
5ee34f8fc3391b011cb26aa5,lelihhshbe,Nick_Dissertation_EX1,1,261,2020-07-08T15:08:28-07:00,1.2311038970947,4,versionC_stim.csv,READVersionD.csv,"Read Version D","Dissertation, read only version D",GOOSE,GEESE,BUFFER2,Buffer,86,88,Study,User,-,,Study/JOL,BUFFER4,824,,,-1,-1,,,,1
5ee34f8fc3391b011cb26aa5,lelihhshbe,Nick_Dissertation_EX1,1,262,2020-07-08T15:08:30-07:00,1.2816519737244,4,versionC_stim.csv,READVersionD.csv,"Read Version D","Dissertation, read only version D",STUFF,THING,BUFFER2,Buffer,90,89,Study,User,-,,Study/JOL,BUFFER4,884,,,-1,-1,,,,1
5ee34f8fc3391b011cb26aa5,lelihhshbe,Nick_Dissertation_EX1,1,263,2020-07-08T15:08:31-07:00,1.2713479995728,4,versionC_stim.csv,READVersionD.csv,"Read Version D","Dissertation, read only version D",POLICE,SHERRIF,BUFFER2,Buffer,87,91,Study,User,-,,Study/JOL,BUFFER4,850,,,-1,-1,,,,1
5ee34f8fc3391b011cb26aa5,lelihhshbe,Nick_Dissertation_EX1,1,264,2020-07-08T15:08:32-07:00,1.2706851959229,4,versionC_stim.csv,READVersionD.csv,"Read Version D","Dissertation, read only version D",CHOCOLATE,MALT,BUFFER2,Buffer,88,90,Study,User,-,,Study/JOL,BUFFER4,887,,,-1,-1,,,,1
5ee34f8fc3391b011cb26aa5,lelihhshbe,Nick_Dissertation_EX1,1,265,2020-07-08T15:08:34-07:00,1.3022818565369,4,versionC_stim.csv,READVersionD.csv,"Read Version D","Dissertation, read only version D",SPACE,MOON,BUFFER2,Buffer,89,87,Study,User,-,,Study/JOL,BUFFER4,868,,,-1,-1,,,,1
5ee34f8fc3391b011cb26aa5,lelihhshbe,Nick_Dissertation_EX1,1,266,2020-07-08T15:08:36-07:00,2.5494449138641,4,versionC_stim.csv,READVersionD.csv,"Read Version D","Dissertation, read only version D",,,,,,0,Instruct,User,-,"You have completed this section. Please press Enter.",Filler_Instruction,Instruct5,1991,,,-1,-1,,,,1
5ee34f8fc3391b011cb26aa5,lelihhshbe,Nick_Dissertation_EX1,1,267,2020-07-08T15:10:37-07:00,120.52658820152,4,versionC_stim.csv,READVersionD.csv,"Read Version D","Dissertation, read only version D",,,,,,0,FreeRecall,120,120,"Please list the 50 US states in reverse alphabetical order (z - a). The task will automatically advance to the next screen after two minutes.",,Filler2,120003,"Wisconsin Utah Oregon Tennessee Virginia Pennsylvania Ohio Orgean Okelahmoa Wyoming Utah Nevada Missippi Tennessee South Carolina Maine Mischigan Minnesota Alabama ",0,11744,117976,0,0,,1
5ee34f8fc3391b011cb26aa5,lelihhshbe,Nick_Dissertation_EX1,1,268,2020-07-08T15:10:49-07:00,12.388945817947,4,versionC_stim.csv,READVersionD.csv,"Read Version D","Dissertation, read only version D",,,,,,0,Instruct,-,10,"You will now be presented with the first word from each of the previously studied item pairs. Please type the missing word. If you do not know the word, you may guess or press Enter to skip forward to the next pair.",,Instruct6,11725,,,-1,-1,,,,1
5ee34f8fc3391b011cb26aa5,lelihhshbe,Nick_Dissertation_EX1,1,269,2020-07-08T15:10:56-07:00,7.1697931289673,4,versionC_stim.csv,READVersionD.csv,"Read Version D","Dissertation, read only version D",TOILET,BATHROOM,Study1,S,58,80,Test,User,-,,Recall,Recall2,6492,FLUSH,15.384615384615,2441,5621,0,0,,1
5ee34f8fc3391b011cb26aa5,lelihhshbe,Nick_Dissertation_EX1,1,270,2020-07-08T15:11:00-07:00,3.4814560413361,4,versionC_stim.csv,READVersionD.csv,"Read Version D","Dissertation, read only version D",STENCH,SMELL,Study1,F,42,17,Test,User,-,,Recall,Recall2,2841,SMELL,100,1687,2054,1,1,,1
5ee34f8fc3391b011cb26aa5,lelihhshbe,Nick_Dissertation_EX1,1,271,2020-07-08T15:11:04-07:00,4.8120238780975,4,versionC_stim.csv,READVersionD.csv,"Read Version D","Dissertation, read only version D",DOG,PAW,Study1,B,15,15,Test,User,-,,Recall,Recall2,4196,PAW,100,1444,3277,1,1,,1
5ee34f8fc3391b011cb26aa5,lelihhshbe,Nick_Dissertation_EX1,1,272,2020-07-08T15:11:09-07:00,4.3058929443359,4,versionC_stim.csv,READVersionD.csv,"Read Version D","Dissertation, read only version D",MONEY,WAGE,Study1,B,8,77,Test,User,-,,Recall,Recall2,3648,CASH,25,2256,2663,0,0,,1
5ee34f8fc3391b011cb26aa5,lelihhshbe,Nick_Dissertation_EX1,1,273,2020-07-08T15:11:12-07:00,3.6812300682068,4,versionC_stim.csv,READVersionD.csv,"Read Version D","Dissertation, read only version D",WATER,BRIDGE,Study1,B,18,54,Test,User,-,,Recall,Recall2,3033,ICE,44.444444444444,2008,2236,0,0,,1
5ee34f8fc3391b011cb26aa5,lelihhshbe,Nick_Dissertation_EX1,1,274,2020-07-08T15:11:19-07:00,6.7594590187073,4,versionC_stim.csv,READVersionD.csv,"Read Version D","Dissertation, read only version D",BELT,SOON,Study1,U,70,44,Test,User,-,,Recall,Recall2,6136,NOW,28.571428571429,2174,3775,0,0,,1
5ee34f8fc3391b011cb26aa5,lelihhshbe,Nick_Dissertation_EX1,1,275,2020-07-08T15:11:24-07:00,4.8124310970306,4,versionC_stim.csv,READVersionD.csv,"Read Version D","Dissertation, read only version D",STING,HORNET,Study1,B,11,55,Test,User,-,,Recall,Recall2,4161,HORNET,100,2274,3255,1,1,,1
5ee34f8fc3391b011cb26aa5,lelihhshbe,Nick_Dissertation_EX1,1,276,2020-07-08T15:11:29-07:00,5.4038569927216,4,versionC_stim.csv,READVersionD.csv,"Read Version D","Dissertation, read only version D",DROWSY,SLEEP,Study1,F,41,40,Test,User,-,,Recall,Recall2,3753,SLEEP,100,1616,2818,1,1,,1
5ee34f8fc3391b011cb26aa5,lelihhshbe,Nick_Dissertation_EX1,1,277,2020-07-08T15:11:35-07:00,5.3475558757782,4,versionC_stim.csv,READVersionD.csv,"Read Version D","Dissertation, read only version D",NEWS,EDITOR,Study1,B,10,28,Test,User,-,,Recall,Recall2,4639,BROADCAST,13.333333333333,1911,3775,0,0,,1
5ee34f8fc3391b011cb26aa5,lelihhshbe,Nick_Dissertation_EX1,1,278,2020-07-08T15:11:38-07:00,3.1774339675903,4,versionC_stim.csv,READVersionD.csv,"Read Version D","Dissertation, read only version D",CHEESE,WINE,Study1,S,57,23,Test,User,-,,Recall,Recall2,2636,WINE,100,1570,1789,1,1,,1
5ee34f8fc3391b011cb26aa5,lelihhshbe,Nick_Dissertation_EX1,1,279,2020-07-08T15:11:42-07:00,3.7854189872742,4,versionC_stim.csv,READVersionD.csv,"Read Version D","Dissertation, read only version D",SIP,DRINK,Study1,F,27,35,Test,User,-,,Recall,Recall2,3094,DRINK,100,1792,2271,1,1,,1
5ee34f8fc3391b011cb26aa5,lelihhshbe,Nick_Dissertation_EX1,1,280,2020-07-08T15:11:45-07:00,3.0748660564423,4,versionC_stim.csv,READVersionD.csv,"Read Version D","Dissertation, read only version D",SEIZE,TAKE,Study1,F,29,19,Test,User,-,,Recall,Recall2,2388,,0,-1,-1,0,0,,1
5ee34f8fc3391b011cb26aa5,lelihhshbe,Nick_Dissertation_EX1,1,281,2020-07-08T15:11:47-07:00,2.6609671115875,4,versionC_stim.csv,READVersionD.csv,"Read Version D","Dissertation, read only version D",SACKING,DIETARY,Study1,U,67,81,Test,User,-,,Recall,Recall2,2116,,0,-1,-1,0,0,,1
5ee34f8fc3391b011cb26aa5,lelihhshbe,Nick_Dissertation_EX1,1,282,2020-07-08T15:11:51-07:00,3.172905921936,4,versionC_stim.csv,READVersionD.csv,"Read Version D","Dissertation, read only version D",ATTORNEY,LAW,Study1,F,34,13,Test,User,-,,Recall,Recall2,2554,LAW,100,1605,1821,1,1,,1
5ee34f8fc3391b011cb26aa5,lelihhshbe,Nick_Dissertation_EX1,1,283,2020-07-08T15:11:55-07:00,4.7116611003876,4,versionC_stim.csv,READVersionD.csv,"Read Version D","Dissertation, read only version D",ACCIDENT,STRONG,Study1,U,80,10,Test,User,-,,Recall,Recall2,3933,STRONG,100,2381,2991,1,1,,1
5ee34f8fc3391b011cb26aa5,lelihhshbe,Nick_Dissertation_EX1,1,284,2020-07-08T15:11:58-07:00,2.8726079463959,4,versionC_stim.csv,READVersionD.csv,"Read Version D","Dissertation, read only version D",FLOOR,DISCOVER,Study1,U,71,30,Test,User,-,,Recall,Recall2,2185,,0,-1,-1,0,0,,1
5ee34f8fc3391b011cb26aa5,lelihhshbe,Nick_Dissertation_EX1,1,285,2020-07-08T15:12:01-07:00,2.4213049411774,4,versionC_stim.csv,READVersionD.csv,"Read Version D","Dissertation, read only version D",CAVE,DARK,Study1,F,28,20,Test,User,-,,Recall,Recall2,1848,,0,-1,-1,0,0,,1
5ee34f8fc3391b011cb26aa5,lelihhshbe,Nick_Dissertation_EX1,1,286,2020-07-08T15:12:05-07:00,4.2306649684906,4,versionC_stim.csv,READVersionD.csv,"Read Version D","Dissertation, read only version D",WASTE,DUMP,Study1,S,49,57,Test,User,-,,Recall,Recall2,3644,BIN,0,2503,2823,0,0,,1
5ee34f8fc3391b011cb26aa5,lelihhshbe,Nick_Dissertation_EX1,1,287,2020-07-08T15:12:09-07:00,3.787055015564,4,versionC_stim.csv,READVersionD.csv,"Read Version D","Dissertation, read only version D",ROCK,GEOLOGY,Study1,B,19,59,Test,User,-,,Recall,Recall2,3128,GEOLOGY,100,1584,2313,1,1,,1
5ee34f8fc3391b011cb26aa5,lelihhshbe,Nick_Dissertation_EX1,1,288,2020-07-08T15:12:13-07:00,4.4062979221344,4,versionC_stim.csv,READVersionD.csv,"Read Version D","Dissertation, read only version D",TALK,DISCUSSION,Study1,B,21,25,Test,User,-,,Recall,Recall2,3831,CHAT,14.285714285714,1948,2234,0,0,,1
5ee34f8fc3391b011cb26aa5,lelihhshbe,Nick_Dissertation_EX1,1,289,2020-07-08T15:12:17-07:00,4.4010491371155,4,versionC_stim.csv,READVersionD.csv,"Read Version D","Dissertation, read only version D",DIVISION,MATH,Study1,F,33,18,Test,User,-,,Recall,Recall2,3756,MATH,100,1616,2912,1,1,,1
5ee34f8fc3391b011cb26aa5,lelihhshbe,Nick_Dissertation_EX1,1,290,2020-07-08T15:12:21-07:00,3.0728240013123,4,versionC_stim.csv,READVersionD.csv,"Read Version D","Dissertation, read only version D",ADD,VALLEY,Study1,U,82,32,Test,User,-,,Recall,Recall2,2473,,0,-1,-1,0,0,,1
5ee34f8fc3391b011cb26aa5,lelihhshbe,Nick_Dissertation_EX1,1,291,2020-07-08T15:12:26-07:00,5.1188049316406,4,versionC_stim.csv,READVersionD.csv,"Read Version D","Dissertation, read only version D",SALAD,LETTUCE,Study1,S,59,7,Test,User,-,,Recall,Recall2,4587,LETTUCE,100,1605,3803,1,1,,1
5ee34f8fc3391b011cb26aa5,lelihhshbe,Nick_Dissertation_EX1,1,292,2020-07-08T15:12:30-07:00,3.8906300067902,4,versionC_stim.csv,READVersionD.csv,"Read Version D","Dissertation, read only version D",ATTIRE,CLOTHES,Study1,F,43,24,Test,User,-,,Recall,Recall2,3271,CLOTHES,100,1930,2506,1,1,,1
5ee34f8fc3391b011cb26aa5,lelihhshbe,Nick_Dissertation_EX1,1,293,2020-07-08T15:12:32-07:00,2.4596741199493,4,versionC_stim.csv,READVersionD.csv,"Read Version D","Dissertation, read only version D",HAND,FIX,Study1,U,75,45,Test,User,-,,Recall,Recall2,1930,,0,-1,-1,0,0,,1
5ee34f8fc3391b011cb26aa5,lelihhshbe,Nick_Dissertation_EX1,1,294,2020-07-08T15:12:35-07:00,3.2764399051666,4,versionC_stim.csv,READVersionD.csv,"Read Version D","Dissertation, read only version D",JURY,TRIAL,Study1,S,50,38,Test,User,-,,Recall,Recall2,2692,,0,-1,-1,0,0,,1
5ee34f8fc3391b011cb26aa5,lelihhshbe,Nick_Dissertation_EX1,1,295,2020-07-08T15:12:38-07:00,2.561115026474,4,versionC_stim.csv,READVersionD.csv,"Read Version D","Dissertation, read only version D",LATCH,KEY,Study1,F,36,56,Test,User,-,,Recall,Recall2,1872,,0,-1,-1,0,0,,1
5ee34f8fc3391b011cb26aa5,lelihhshbe,Nick_Dissertation_EX1,1,296,2020-07-08T15:12:40-07:00,2.4605329036713,4,versionC_stim.csv,READVersionD.csv,"Read Version D","Dissertation, read only version D",POSITION,MACHINE,Study1,U,76,34,Test,User,-,,Recall,Recall2,1985,,0,-1,-1,0,0,,1
5ee34f8fc3391b011cb26aa5,lelihhshbe,Nick_Dissertation_EX1,1,297,2020-07-08T15:12:50-07:00,10.030801057816,4,versionC_stim.csv,READVersionD.csv,"Read Version D","Dissertation, read only version D",DEFINITION,MEANING,Study1,S,62,11,Test,User,-,,Recall,Recall2,9430,DICTIONARY,23.529411764706,1853,8583,0,0,,1
5ee34f8fc3391b011cb26aa5,lelihhshbe,Nick_Dissertation_EX1,1,298,2020-07-08T15:12:54-07:00,3.4814269542694,4,versionC_stim.csv,READVersionD.csv,"Read Version D","Dissertation, read only version D",CHILI,HOT,Study1,F,37,58,Test,User,-,,Recall,Recall2,2903,FIRE,0,1829,2139,0,0,,1
5ee34f8fc3391b011cb26aa5,lelihhshbe,Nick_Dissertation_EX1,1,299,2020-07-08T15:12:58-07:00,3.6851291656494,4,versionC_stim.csv,READVersionD.csv,"Read Version D","Dissertation, read only version D",ROUND,CIRCLE,Study1,S,65,69,Test,User,-,,Recall,Recall2,3073,CIRCLE,100,1746,2269,1,1,,1
5ee34f8fc3391b011cb26aa5,lelihhshbe,Nick_Dissertation_EX1,1,300,2020-07-08T15:13:00-07:00,2.511549949646,4,versionC_stim.csv,READVersionD.csv,"Read Version D","Dissertation, read only version D",CLEAN,HYGIENE,Study1,B,17,39,Test,User,-,,Recall,Recall2,2040,,0,-1,-1,0,0,,1
5ee34f8fc3391b011cb26aa5,lelihhshbe,Nick_Dissertation_EX1,1,301,2020-07-08T15:13:03-07:00,3.439826965332,4,versionC_stim.csv,READVersionD.csv,"Read Version D","Dissertation, read only version D",LIVER,KIDNEY,Study1,S,53,63,Test,User,-,,Recall,Recall2,2876,KIDNEY,100,1544,2056,1,1,,1
5ee34f8fc3391b011cb26aa5,lelihhshbe,Nick_Dissertation_EX1,1,302,2020-07-08T15:13:09-07:00,5.1104700565338,4,versionC_stim.csv,READVersionD.csv,"Read Version D","Dissertation, read only version D",FOOT,SHOE,Study1,S,60,67,Test,User,-,,Recall,Recall2,3395,ANKLE,22.222222222222,2086,2512,0,0,,1
5ee34f8fc3391b011cb26aa5,lelihhshbe,Nick_Dissertation_EX1,1,303,2020-07-08T15:13:13-07:00,4.0960969924927,4,versionC_stim.csv,READVersionD.csv,"Read Version D","Dissertation, read only version D",BAR,GRILL,Study1,S,52,76,Test,User,-,,Recall,Recall2,3485,DRINK,40,2202,2706,0,0,,1
5ee34f8fc3391b011cb26aa5,lelihhshbe,Nick_Dissertation_EX1,1,304,2020-07-08T15:13:18-07:00,4.9140410423279,4,versionC_stim.csv,READVersionD.csv,"Read Version D","Dissertation, read only version D",OUT,WAY,Study1,B,16,51,Test,User,-,,Recall,Recall2,4230,IN,0,2250,3433,0,0,,1
5ee34f8fc3391b011cb26aa5,lelihhshbe,Nick_Dissertation_EX1,1,305,2020-07-08T15:13:24-07:00,6.5556809902191,4,versionC_stim.csv,READVersionD.csv,"Read Version D","Dissertation, read only version D",FUTURE,PAST,Study1,S,61,22,Test,User,-,,Recall,Recall2,5922,PAST,100,3445,5104,1,1,,1
5ee34f8fc3391b011cb26aa5,lelihhshbe,Nick_Dissertation_EX1,1,306,2020-07-08T15:13:30-07:00,5.9440269470215,4,versionC_stim.csv,READVersionD.csv,"Read Version D","Dissertation, read only version D",COW,HERD,Study1,B,22,71,Test,User,-,,Recall,Recall2,5262,GRASS,22.222222222222,3285,3798,0,0,,1
5ee34f8fc3391b011cb26aa5,lelihhshbe,Nick_Dissertation_EX1,1,307,2020-07-08T15:13:33-07:00,3.2751500606537,4,versionC_stim.csv,READVersionD.csv,"Read Version D","Dissertation, read only version D",SITE,LOCATION,Study1,S,48,75,Test,User,-,,Recall,Recall2,2613,SEE,0,1559,1806,0,0,,1
5ee34f8fc3391b011cb26aa5,lelihhshbe,Nick_Dissertation_EX1,1,308,2020-07-08T15:13:39-07:00,5.6263058185577,4,versionC_stim.csv,READVersionD.csv,"Read Version D","Dissertation, read only version D",BLAZE,FIRE,Study1,F,45,86,Test,User,-,,Recall,Recall2,4893,HOT,0,2615,4017,0,0,,1
5ee34f8fc3391b011cb26aa5,lelihhshbe,Nick_Dissertation_EX1,1,309,2020-07-08T15:13:43-07:00,3.9924960136414,4,versionC_stim.csv,READVersionD.csv,"Read Version D","Dissertation, read only version D",SIGHT,DEBATE,Study1,U,73,29,Test,User,-,,Recall,Recall2,3383,SMELL,18.181818181818,1969,2576,0,0,,1
5ee34f8fc3391b011cb26aa5,lelihhshbe,Nick_Dissertation_EX1,1,310,2020-07-08T15:13:47-07:00,3.9976279735565,4,versionC_stim.csv,READVersionD.csv,"Read Version D","Dissertation, read only version D",WOULD,CASH,Study1,U,83,65,Test,User,-,,Recall,Recall2,3486,COULD,22.222222222222,1741,2168,0,0,,1
5ee34f8fc3391b011cb26aa5,lelihhshbe,Nick_Dissertation_EX1,1,311,2020-07-08T15:13:50-07:00,3.3755011558533,4,versionC_stim.csv,READVersionD.csv,"Read Version D","Dissertation, read only version D",CHILD,BABY,Study1,S,64,84,Test,User,-,,Recall,Recall2,2782,ADULT,22.222222222222,1578,2032,0,0,,1
5ee34f8fc3391b011cb26aa5,lelihhshbe,Nick_Dissertation_EX1,1,312,2020-07-08T15:13:54-07:00,3.6930708885193,4,versionC_stim.csv,READVersionD.csv,"Read Version D","Dissertation, read only version D",FANTASTIC,GREAT,Study1,F,35,26,Test,User,-,,Recall,Recall2,3162,,0,-1,-1,0,0,,1
5ee34f8fc3391b011cb26aa5,lelihhshbe,Nick_Dissertation_EX1,1,313,2020-07-08T15:13:58-07:00,3.7832231521606,4,versionC_stim.csv,READVersionD.csv,"Read Version D","Dissertation, read only version D",PLANT,ROOT,Study1,B,13,36,Test,User,-,,Recall,Recall2,3186,TREE,25,1971,2435,0,0,,1
5ee34f8fc3391b011cb26aa5,lelihhshbe,Nick_Dissertation_EX1,1,314,2020-07-08T15:14:02-07:00,3.6860439777374,4,versionC_stim.csv,READVersionD.csv,"Read Version D","Dissertation, read only version D",FLOWER,ORCHID,Study1,B,24,73,Test,User,-,,Recall,Recall2,3147,SOIL,40,1977,2369,0,0,,1
5ee34f8fc3391b011cb26aa5,lelihhshbe,Nick_Dissertation_EX1,1,315,2020-07-08T15:14:04-07:00,2.5625820159912,4,versionC_stim.csv,READVersionD.csv,"Read Version D","Dissertation, read only version D",LION,ART,Study1,U,79,52,Test,User,-,,Recall,Recall2,1948,,0,-1,-1,0,0,,1
5ee34f8fc3391b011cb26aa5,lelihhshbe,Nick_Dissertation_EX1,1,316,2020-07-08T15:14:07-07:00,2.4606199264526,4,versionC_stim.csv,READVersionD.csv,"Read Version D","Dissertation, read only version D",AMOUNT,NUMBER,Study1,S,47,47,Test,User,-,,Recall,Recall2,1919,,0,-1,-1,0,0,,1
5ee34f8fc3391b011cb26aa5,lelihhshbe,Nick_Dissertation_EX1,1,317,2020-07-08T15:14:10-07:00,3.7131109237671,4,versionC_stim.csv,READVersionD.csv,"Read Version D","Dissertation, read only version D",RACKET,BALL,Study1,F,38,74,Test,User,-,,Recall,Recall2,3105,TENNIS,0,1776,2323,0,0,,1
5ee34f8fc3391b011cb26aa5,lelihhshbe,Nick_Dissertation_EX1,1,318,2020-07-08T15:14:14-07:00,3.2450380325317,4,versionC_stim.csv,READVersionD.csv,"Read Version D","Dissertation, read only version D",ASSIGNMENT,DUE,Study1,S,46,79,Test,User,-,,Recall,Recall2,2683,,0,-1,-1,0,0,,1
5ee34f8fc3391b011cb26aa5,lelihhshbe,Nick_Dissertation_EX1,1,319,2020-07-08T15:14:18-07:00,4.8154339790344,4,versionC_stim.csv,READVersionD.csv,"Read Version D","Dissertation, read only version D",CARD,CREDIT,Study1,B,23,53,Test,User,-,,Recall,Recall2,4251,DEBIT,54.545454545455,2348,3457,0,0,,1
5ee34f8fc3391b011cb26aa5,lelihhshbe,Nick_Dissertation_EX1,1,320,2020-07-08T15:14:22-07:00,3.4843280315399,4,versionC_stim.csv,READVersionD.csv,"Read Version D","Dissertation, read only version D",GROWTH,HEIGHT,Study1,F,30,66,Test,User,-,,Recall,Recall2,2863,HEIGHT,100,1658,2098,1,1,,1
5ee34f8fc3391b011cb26aa5,lelihhshbe,Nick_Dissertation_EX1,1,321,2020-07-08T15:14:26-07:00,4.5826098918915,4,versionC_stim.csv,READVersionD.csv,"Read Version D","Dissertation, read only version D",BUSINESS,DEATH,Study1,U,72,21,Test,User,-,,Recall,Recall2,2898,SUIT,22.222222222222,1871,2160,0,0,,1
5ee34f8fc3391b011cb26aa5,lelihhshbe,Nick_Dissertation_EX1,1,322,2020-07-08T15:14:31-07:00,4.2191672325134,4,versionC_stim.csv,READVersionD.csv,"Read Version D","Dissertation, read only version D",SICK,HIDE,Study1,U,84,48,Test,User,-,,Recall,Recall2,3570,SORRY,0,2395,2803,0,0,,1
5ee34f8fc3391b011cb26aa5,lelihhshbe,Nick_Dissertation_EX1,1,323,2020-07-08T15:14:33-07:00,2.0504148006439,4,versionC_stim.csv,READVersionD.csv,"Read Version D","Dissertation, read only version D",CLUTTER,PUSHER,Study1,U,66,64,Test,User,-,,Recall,Recall2,1388,,0,-1,-1,0,0,,1
5ee34f8fc3391b011cb26aa5,lelihhshbe,Nick_Dissertation_EX1,1,324,2020-07-08T15:14:35-07:00,1.9444019794464,4,versionC_stim.csv,READVersionD.csv,"Read Version D","Dissertation, read only version D",COLD,BITTER,Study1,B,12,12,Test,User,-,,Recall,Recall2,1443,,0,-1,-1,0,0,,1
5ee34f8fc3391b011cb26aa5,lelihhshbe,Nick_Dissertation_EX1,1,325,2020-07-08T15:14:40-07:00,5.3233051300049,4,versionC_stim.csv,READVersionD.csv,"Read Version D","Dissertation, read only version D",DESIGN,ARCHITECTURE,Study1,S,51,78,Test,User,-,,Recall,Recall2,4828,"ARCHITECTURE ",100,2194,2910,1,1,,1
5ee34f8fc3391b011cb26aa5,lelihhshbe,Nick_Dissertation_EX1,1,326,2020-07-08T15:14:44-07:00,3.8950009346008,4,versionC_stim.csv,READVersionD.csv,"Read Version D","Dissertation, read only version D",CHORE,WORK,Study1,F,39,85,Test,User,-,,Recall,Recall2,3180,CHOIR,44.444444444444,1919,2393,0,0,,1
5ee34f8fc3391b011cb26aa5,lelihhshbe,Nick_Dissertation_EX1,1,327,2020-07-08T15:14:50-07:00,5.8345849514008,4,versionC_stim.csv,READVersionD.csv,"Read Version D","Dissertation, read only version D",BEE,HONEY,Study1,S,63,46,Test,User,-,,Recall,Recall2,5231,STING,20,2648,4427,0,0,,1
5ee34f8fc3391b011cb26aa5,lelihhshbe,Nick_Dissertation_EX1,1,328,2020-07-08T15:14:52-07:00,2.764044046402,4,versionC_stim.csv,READVersionD.csv,"Read Version D","Dissertation, read only version D",STOMACH,DIGESTION,Study1,B,7,61,Test,User,-,,Recall,Recall2,2097,,0,-1,-1,0,0,,1
5ee34f8fc3391b011cb26aa5,lelihhshbe,Nick_Dissertation_EX1,1,329,2020-07-08T15:14:58-07:00,5.8350460529327,4,versionC_stim.csv,READVersionD.csv,"Read Version D","Dissertation, read only version D",WAR,REVOLUTION,Study1,B,20,83,Test,User,-,,Recall,Recall2,4119,ZONE,28.571428571429,3077,3318,0,0,,1
5ee34f8fc3391b011cb26aa5,lelihhshbe,Nick_Dissertation_EX1,1,330,2020-07-08T15:15:02-07:00,3.4884629249573,4,versionC_stim.csv,READVersionD.csv,"Read Version D","Dissertation, read only version D",SODA,POP,Study1,S,56,60,Test,User,-,,Recall,Recall2,2839,POP,100,1546,1840,1,1,,1
5ee34f8fc3391b011cb26aa5,lelihhshbe,Nick_Dissertation_EX1,1,331,2020-07-08T15:15:05-07:00,2.7574620246887,4,versionC_stim.csv,READVersionD.csv,"Read Version D","Dissertation, read only version D",FAMINE,HUNGER,Study1,F,40,16,Test,User,-,,Recall,Recall2,2073,,0,-1,-1,0,0,,1
5ee34f8fc3391b011cb26aa5,lelihhshbe,Nick_Dissertation_EX1,1,332,2020-07-08T15:15:09-07:00,4.2006120681763,4,versionC_stim.csv,READVersionD.csv,"Read Version D","Dissertation, read only version D",END,BEGIN,Study1,S,54,33,Test,User,-,,Recall,Recall2,2491,,0,-1,-1,0,0,,1
5ee34f8fc3391b011cb26aa5,lelihhshbe,Nick_Dissertation_EX1,1,333,2020-07-08T15:15:17-07:00,8.49915599823,4,versionC_stim.csv,READVersionD.csv,"Read Version D","Dissertation, read only version D",WORD,SENTENCE,Study1,F,31,8,Test,User,-,,Recall,Recall2,7875,COUNT,30.769230769231,2368,5858,0,0,,1
5ee34f8fc3391b011cb26aa5,lelihhshbe,Nick_Dissertation_EX1,1,334,2020-07-08T15:15:22-07:00,4.8133809566498,4,versionC_stim.csv,READVersionD.csv,"Read Version D","Dissertation, read only version D",VASE,KING,Study1,U,85,9,Test,User,-,,Recall,Recall2,4130,FLOWER,0,2417,3403,0,0,,1
5ee34f8fc3391b011cb26aa5,lelihhshbe,Nick_Dissertation_EX1,1,335,2020-07-08T15:15:32-07:00,9.5219979286194,4,versionC_stim.csv,READVersionD.csv,"Read Version D","Dissertation, read only version D",RIDDLE,SUGAR,Study1,U,81,70,Test,User,-,,Recall,Recall2,8887,NOW,0,7364,8046,0,0,,1
5ee34f8fc3391b011cb26aa5,lelihhshbe,Nick_Dissertation_EX1,1,336,2020-07-08T15:15:33-07:00,1.6397721767426,4,versionC_stim.csv,READVersionD.csv,"Read Version D","Dissertation, read only version D",WIND,BLOW,Study1,S,55,62,Test,User,-,,Recall,Recall2,1067,,0,-1,-1,0,0,,1
5ee34f8fc3391b011cb26aa5,lelihhshbe,Nick_Dissertation_EX1,1,337,2020-07-08T15:15:36-07:00,3.1748938560486,4,versionC_stim.csv,READVersionD.csv,"Read Version D","Dissertation, read only version D",CAR,HAPPY,Study1,U,77,41,Test,User,-,,Recall,Recall2,2643,,0,-1,-1,0,0,,1
5ee34f8fc3391b011cb26aa5,lelihhshbe,Nick_Dissertation_EX1,1,338,2020-07-08T15:15:40-07:00,3.1723380088806,4,versionC_stim.csv,READVersionD.csv,"Read Version D","Dissertation, read only version D",WOMAN,LIFT,Study1,U,69,72,Test,User,-,,Recall,Recall2,2549,,0,-1,-1,0,0,,1
5ee34f8fc3391b011cb26aa5,lelihhshbe,Nick_Dissertation_EX1,1,339,2020-07-08T15:15:44-07:00,4.6084489822388,4,versionC_stim.csv,READVersionD.csv,"Read Version D","Dissertation, read only version D",BIRD,SWAN,Study1,B,14,50,Test,User,-,,Recall,Recall2,4085,SKY,28.571428571429,2970,3231,0,0,,1
5ee34f8fc3391b011cb26aa5,lelihhshbe,Nick_Dissertation_EX1,1,340,2020-07-08T15:15:46-07:00,1.8446750640869,4,versionC_stim.csv,READVersionD.csv,"Read Version D","Dissertation, read only version D",BRONZE,ARTERY,Study1,U,74,14,Test,User,-,,Recall,Recall2,1181,,0,-1,-1,0,0,,1
5ee34f8fc3391b011cb26aa5,lelihhshbe,Nick_Dissertation_EX1,1,341,2020-07-08T15:15:50-07:00,3.5831909179688,4,versionC_stim.csv,READVersionD.csv,"Read Version D","Dissertation, read only version D",PILOT,PLANE,Study1,F,44,27,Test,User,-,,Recall,Recall2,3009,PLANE,100,1817,2226,1,1,,1
5ee34f8fc3391b011cb26aa5,lelihhshbe,Nick_Dissertation_EX1,1,342,2020-07-08T15:15:53-07:00,3.8933081626892,4,versionC_stim.csv,READVersionD.csv,"Read Version D","Dissertation, read only version D",HAMMER,CHISEL,Study1,B,9,37,Test,User,-,,Recall,Recall2,3357,NAIL,40,1758,2102,0,0,,1
5ee34f8fc3391b011cb26aa5,lelihhshbe,Nick_Dissertation_EX1,1,343,2020-07-08T15:15:57-07:00,3.4780769348145,4,versionC_stim.csv,READVersionD.csv,"Read Version D","Dissertation, read only version D",WASP,BUG,Study1,F,32,42,Test,User,-,,Recall,Recall2,2873,STING,25,1596,2064,0,0,,1
5ee34f8fc3391b011cb26aa5,lelihhshbe,Nick_Dissertation_EX1,1,344,2020-07-08T15:16:01-07:00,3.5844280719757,4,versionC_stim.csv,READVersionD.csv,"Read Version D","Dissertation, read only version D",ENOUGH,FULL,Study1,F,26,68,Test,User,-,,Recall,Recall2,3060,NOW,0,1610,1904,0,0,,1
5ee34f8fc3391b011cb26aa5,lelihhshbe,Nick_Dissertation_EX1,1,345,2020-07-08T15:16:06-07:00,5.8566830158234,4,versionC_stim.csv,READVersionD.csv,"Read Version D","Dissertation, read only version D",FISH,TUNA,Study1,B,25,43,Test,User,-,,Recall,Recall2,4126,TUNA,100,2108,2440,1,1,,1
5ee34f8fc3391b011cb26aa5,lelihhshbe,Nick_Dissertation_EX1,1,346,2020-07-08T15:16:09-07:00,2.5895698070526,4,versionC_stim.csv,READVersionD.csv,"Read Version D","Dissertation, read only version D",BAD,DELINQUENT,Study1,B,6,49,Test,User,-,,Recall,Recall2,2025,,0,-1,-1,0,0,,1
5ee34f8fc3391b011cb26aa5,lelihhshbe,Nick_Dissertation_EX1,1,347,2020-07-08T15:16:12-07:00,3.0286149978638,4,versionC_stim.csv,READVersionD.csv,"Read Version D","Dissertation, read only version D",TUCK,ALLOW,Study1,U,78,82,Test,User,-,,Recall,Recall2,2434,,0,-1,-1,0,0,,1
5ee34f8fc3391b011cb26aa5,lelihhshbe,Nick_Dissertation_EX1,1,348,2020-07-08T15:16:15-07:00,2.6586711406708,4,versionC_stim.csv,READVersionD.csv,"Read Version D","Dissertation, read only version D",HUNGRY,PARK,Study1,U,68,31,Test,User,-,,Recall,Recall2,2048,,0,-1,-1,0,0,,1
5ee34f8fc3391b011cb26aa5,lelihhshbe,Nick_Dissertation_EX1,1,349,2020-07-08T15:16:16-07:00,1.8383338451385,4,versionC_stim.csv,READVersionD.csv,"Read Version D","Dissertation, read only version D",,,,,,0,Instruct,User,-,"You have completed this section. Please press Enter.",,Instruct7,1258,,,-1,-1,,,,1
