Username,ID,ExperimentName,Session,Trial,Date,TimeDif,"Condition Number","Stimuli File","Order File","Condition Description","Condition Notes",Stimuli*Cue,Stimuli*Answer,Stimuli*Shuffle,"Stimuli*Stimuli Notes",Stimuli*Value,Procedure*Item,"Procedure*Trial Type","Procedure*Max Time","Procedure*Min Time",Procedure*Text,"Procedure*Procedure Notes",Procedure*Shuffle,Response*RT,Response*Response,Response*Accuracy,Response*RTfirst,Response*RTlast,Response*strictAcc,Response*lenientAcc,Response*focus,Response*Focus
5be1d0bdc810d500012ad603,442p42ri3e,Nick_Dissertation_EX1,1,1,2020-07-08T15:11:44-07:00,18.896711826324,3,versionC_stim.csv,READVersionC.csv,"Read Version C","Dissertation, read only version C",,,,,,0,Instruct,-,10,"Please study each of the following word pairs. Remember that your memory will be tested! When finished, press Enter to move to the next pair.",Initial_Instruct,Instruct1,18282,,,-1,-1,,,,1
5be1d0bdc810d500012ad603,442p42ri3e,Nick_Dissertation_EX1,1,2,2020-07-08T15:11:50-07:00,5.6297571659088,3,versionC_stim.csv,READVersionC.csv,"Read Version C","Dissertation, read only version C",CATCHER,BASEBALL,BUFFER1,Buffer,2,5,Study,User,-,,Study/JOL,BUFFER,4846,,,-1,-1,,,,1
5be1d0bdc810d500012ad603,442p42ri3e,Nick_Dissertation_EX1,1,3,2020-07-08T15:11:56-07:00,5.9261000156403,3,versionC_stim.csv,READVersionC.csv,"Read Version C","Dissertation, read only version C",JAM,SPACE,BUFFER1,Buffer,5,4,Study,User,-,,Study/JOL,BUFFER,5226,,,-1,-1,,,,1
5be1d0bdc810d500012ad603,442p42ri3e,Nick_Dissertation_EX1,1,4,2020-07-08T15:11:58-07:00,2.7699937820435,3,versionC_stim.csv,READVersionC.csv,"Read Version C","Dissertation, read only version C",HIDE,SCARE,BUFFER1,Buffer,4,2,Study,User,-,,Study/JOL,BUFFER,2119,,,-1,-1,,,,1
5be1d0bdc810d500012ad603,442p42ri3e,Nick_Dissertation_EX1,1,5,2020-07-08T15:12:01-07:00,3.0795211791992,3,versionC_stim.csv,READVersionC.csv,"Read Version C","Dissertation, read only version C",BUTTER,PEANUT,BUFFER1,Buffer,3,6,Study,User,-,,Study/JOL,BUFFER,2461,,,-1,-1,,,,1
5be1d0bdc810d500012ad603,442p42ri3e,Nick_Dissertation_EX1,1,6,2020-07-08T15:12:05-07:00,3.0692758560181,3,versionC_stim.csv,READVersionC.csv,"Read Version C","Dissertation, read only version C",GREEN,TREES,BUFFER1,Buffer,1,3,Study,User,-,,Study/JOL,BUFFER,2359,,,-1,-1,,,,1
5be1d0bdc810d500012ad603,442p42ri3e,Nick_Dissertation_EX1,1,7,2020-07-08T15:12:07-07:00,2.4602620601654,3,versionC_stim.csv,READVersionC.csv,"Read Version C","Dissertation, read only version C",WIND,BLOW,Study1,S,55,70,Study,User,-,,Study/JOL,"Study Phase",1731,,,-1,-1,,,,1
5be1d0bdc810d500012ad603,442p42ri3e,Nick_Dissertation_EX1,1,8,2020-07-08T15:12:10-07:00,2.5165820121765,3,versionC_stim.csv,READVersionC.csv,"Read Version C","Dissertation, read only version C",TUCK,ALLOW,Study1,U,78,72,Study,User,-,,Study/JOL,"Study Phase",1791,,,-1,-1,,,,1
5be1d0bdc810d500012ad603,442p42ri3e,Nick_Dissertation_EX1,1,9,2020-07-08T15:12:12-07:00,2.5588428974152,3,versionC_stim.csv,READVersionC.csv,"Read Version C","Dissertation, read only version C",ASSIGNMENT,DUE,Study1,S,46,14,Study,User,-,,Study/JOL,"Study Phase",1862,,,-1,-1,,,,1
5be1d0bdc810d500012ad603,442p42ri3e,Nick_Dissertation_EX1,1,10,2020-07-08T15:12:14-07:00,2.3145451545715,3,versionC_stim.csv,READVersionC.csv,"Read Version C","Dissertation, read only version C",CHORE,WORK,Study1,F,39,65,Study,User,-,,Study/JOL,"Study Phase",1613,,,-1,-1,,,,1
5be1d0bdc810d500012ad603,442p42ri3e,Nick_Dissertation_EX1,1,11,2020-07-08T15:12:17-07:00,2.5094718933105,3,versionC_stim.csv,READVersionC.csv,"Read Version C","Dissertation, read only version C",BEE,HONEY,Study1,S,63,53,Study,User,-,,Study/JOL,"Study Phase",1883,,,-1,-1,,,,1
5be1d0bdc810d500012ad603,442p42ri3e,Nick_Dissertation_EX1,1,12,2020-07-08T15:12:19-07:00,2.1421649456024,3,versionC_stim.csv,READVersionC.csv,"Read Version C","Dissertation, read only version C",CHILI,HOT,Study1,F,37,43,Study,User,-,,Study/JOL,"Study Phase",1519,,,-1,-1,,,,1
5be1d0bdc810d500012ad603,442p42ri3e,Nick_Dissertation_EX1,1,13,2020-07-08T15:12:22-07:00,2.7624270915985,3,versionC_stim.csv,READVersionC.csv,"Read Version C","Dissertation, read only version C",JURY,TRIAL,Study1,S,50,32,Study,User,-,,Study/JOL,"Study Phase",2011,,,-1,-1,,,,1
5be1d0bdc810d500012ad603,442p42ri3e,Nick_Dissertation_EX1,1,14,2020-07-08T15:12:25-07:00,3.0741391181946,3,versionC_stim.csv,READVersionC.csv,"Read Version C","Dissertation, read only version C",ENOUGH,FULL,Study1,F,26,73,Study,User,-,,Study/JOL,"Study Phase",2444,,,-1,-1,,,,1
5be1d0bdc810d500012ad603,442p42ri3e,Nick_Dissertation_EX1,1,15,2020-07-08T15:12:32-07:00,7.090078830719,3,versionC_stim.csv,READVersionC.csv,"Read Version C","Dissertation, read only version C",HAMMER,CHISEL,Study1,B,9,69,Study,User,-,,Study/JOL,"Study Phase",1516,,,-1,-1,,,,1
5be1d0bdc810d500012ad603,442p42ri3e,Nick_Dissertation_EX1,1,16,2020-07-08T15:12:35-07:00,2.7472541332245,3,versionC_stim.csv,READVersionC.csv,"Read Version C","Dissertation, read only version C",COLD,BITTER,Study1,B,12,48,Study,User,-,,Study/JOL,"Study Phase",1994,,,-1,-1,,,,1
5be1d0bdc810d500012ad603,442p42ri3e,Nick_Dissertation_EX1,1,17,2020-07-08T15:12:37-07:00,2.6257328987122,3,versionC_stim.csv,READVersionC.csv,"Read Version C","Dissertation, read only version C",TOILET,BATHROOM,Study1,S,58,57,Study,User,-,,Study/JOL,"Study Phase",1861,,,-1,-1,,,,1
5be1d0bdc810d500012ad603,442p42ri3e,Nick_Dissertation_EX1,1,18,2020-07-08T15:12:40-07:00,2.9484441280365,3,versionC_stim.csv,READVersionC.csv,"Read Version C","Dissertation, read only version C",SEIZE,TAKE,Study1,F,29,50,Study,User,-,,Study/JOL,"Study Phase",2129,,,-1,-1,,,,1
5be1d0bdc810d500012ad603,442p42ri3e,Nick_Dissertation_EX1,1,19,2020-07-08T15:12:43-07:00,2.5168809890747,3,versionC_stim.csv,READVersionC.csv,"Read Version C","Dissertation, read only version C",BAD,DELINQUENT,Study1,B,6,34,Study,User,-,,Study/JOL,"Study Phase",1798,,,-1,-1,,,,1
5be1d0bdc810d500012ad603,442p42ri3e,Nick_Dissertation_EX1,1,20,2020-07-08T15:12:45-07:00,2.5698738098145,3,versionC_stim.csv,READVersionC.csv,"Read Version C","Dissertation, read only version C",BELT,SOON,Study1,U,70,66,Study,User,-,,Study/JOL,"Study Phase",1857,,,-1,-1,,,,1
5be1d0bdc810d500012ad603,442p42ri3e,Nick_Dissertation_EX1,1,21,2020-07-08T15:12:48-07:00,2.5608901977539,3,versionC_stim.csv,READVersionC.csv,"Read Version C","Dissertation, read only version C",CLEAN,HYGIENE,Study1,B,17,85,Study,User,-,,Study/JOL,"Study Phase",1803,,,-1,-1,,,,1
5be1d0bdc810d500012ad603,442p42ri3e,Nick_Dissertation_EX1,1,22,2020-07-08T15:12:51-07:00,2.5722229480743,3,versionC_stim.csv,READVersionC.csv,"Read Version C","Dissertation, read only version C",CARD,CREDIT,Study1,B,23,28,Study,User,-,,Study/JOL,"Study Phase",1826,,,-1,-1,,,,1
5be1d0bdc810d500012ad603,442p42ri3e,Nick_Dissertation_EX1,1,23,2020-07-08T15:12:53-07:00,2.6011528968811,3,versionC_stim.csv,READVersionC.csv,"Read Version C","Dissertation, read only version C",BIRD,SWAN,Study1,B,14,8,Study,User,-,,Study/JOL,"Study Phase",1886,,,-1,-1,,,,1
5be1d0bdc810d500012ad603,442p42ri3e,Nick_Dissertation_EX1,1,24,2020-07-08T15:12:57-07:00,4.080598115921,3,versionC_stim.csv,READVersionC.csv,"Read Version C","Dissertation, read only version C",PLANT,ROOT,Study1,B,13,12,Study,User,-,,Study/JOL,"Study Phase",3341,,,-1,-1,,,,1
5be1d0bdc810d500012ad603,442p42ri3e,Nick_Dissertation_EX1,1,25,2020-07-08T15:13:01-07:00,3.3810088634491,3,versionC_stim.csv,READVersionC.csv,"Read Version C","Dissertation, read only version C",CAVE,DARK,Study1,F,28,20,Study,User,-,,Study/JOL,"Study Phase",2710,,,-1,-1,,,,1
5be1d0bdc810d500012ad603,442p42ri3e,Nick_Dissertation_EX1,1,26,2020-07-08T15:13:03-07:00,2.3991451263428,3,versionC_stim.csv,READVersionC.csv,"Read Version C","Dissertation, read only version C",DESIGN,ARCHITECTURE,Study1,S,51,68,Study,User,-,,Study/JOL,"Study Phase",1698,,,-1,-1,,,,1
5be1d0bdc810d500012ad603,442p42ri3e,Nick_Dissertation_EX1,1,27,2020-07-08T15:13:05-07:00,2.4636878967285,3,versionC_stim.csv,READVersionC.csv,"Read Version C","Dissertation, read only version C",VASE,KING,Study1,U,85,41,Study,User,-,,Study/JOL,"Study Phase",1739,,,-1,-1,,,,1
5be1d0bdc810d500012ad603,442p42ri3e,Nick_Dissertation_EX1,1,28,2020-07-08T15:13:08-07:00,2.8039720058441,3,versionC_stim.csv,READVersionC.csv,"Read Version C","Dissertation, read only version C",ATTIRE,CLOTHES,Study1,F,43,46,Study,User,-,,Study/JOL,"Study Phase",2056,,,-1,-1,,,,1
5be1d0bdc810d500012ad603,442p42ri3e,Nick_Dissertation_EX1,1,29,2020-07-08T15:13:10-07:00,2.0568521022797,3,versionC_stim.csv,READVersionC.csv,"Read Version C","Dissertation, read only version C",MONEY,WAGE,Study1,B,8,19,Study,User,-,,Study/JOL,"Study Phase",1425,,,-1,-1,,,,1
5be1d0bdc810d500012ad603,442p42ri3e,Nick_Dissertation_EX1,1,30,2020-07-08T15:13:12-07:00,2.0424230098724,3,versionC_stim.csv,READVersionC.csv,"Read Version C","Dissertation, read only version C",SICK,HIDE,Study1,U,84,24,Study,User,-,,Study/JOL,"Study Phase",1337,,,-1,-1,,,,1
5be1d0bdc810d500012ad603,442p42ri3e,Nick_Dissertation_EX1,1,31,2020-07-08T15:13:15-07:00,2.3104410171509,3,versionC_stim.csv,READVersionC.csv,"Read Version C","Dissertation, read only version C",FUTURE,PAST,Study1,S,61,45,Study,User,-,,Study/JOL,"Study Phase",1637,,,-1,-1,,,,1
5be1d0bdc810d500012ad603,442p42ri3e,Nick_Dissertation_EX1,1,32,2020-07-08T15:13:17-07:00,1.9187309741974,3,versionC_stim.csv,READVersionC.csv,"Read Version C","Dissertation, read only version C",FLOWER,ORCHID,Study1,B,24,15,Study,User,-,,Study/JOL,"Study Phase",1166,,,-1,-1,,,,1
5be1d0bdc810d500012ad603,442p42ri3e,Nick_Dissertation_EX1,1,33,2020-07-08T15:13:19-07:00,2.4351298809052,3,versionC_stim.csv,READVersionC.csv,"Read Version C","Dissertation, read only version C",BLAZE,FIRE,Study1,F,45,30,Study,User,-,,Study/JOL,"Study Phase",1715,,,-1,-1,,,,1
5be1d0bdc810d500012ad603,442p42ri3e,Nick_Dissertation_EX1,1,34,2020-07-08T15:13:21-07:00,1.7350640296936,3,versionC_stim.csv,READVersionC.csv,"Read Version C","Dissertation, read only version C",HAND,FIX,Study1,U,75,78,Study,User,-,,Study/JOL,"Study Phase",1123,,,-1,-1,,,,1
5be1d0bdc810d500012ad603,442p42ri3e,Nick_Dissertation_EX1,1,35,2020-07-08T15:13:23-07:00,2.1580920219421,3,versionC_stim.csv,READVersionC.csv,"Read Version C","Dissertation, read only version C",GROWTH,HEIGHT,Study1,F,30,40,Study,User,-,,Study/JOL,"Study Phase",1432,,,-1,-1,,,,1
5be1d0bdc810d500012ad603,442p42ri3e,Nick_Dissertation_EX1,1,36,2020-07-08T15:13:25-07:00,1.8190579414368,3,versionC_stim.csv,READVersionC.csv,"Read Version C","Dissertation, read only version C",FLOOR,DISCOVER,Study1,U,71,10,Study,User,-,,Study/JOL,"Study Phase",1118,,,-1,-1,,,,1
5be1d0bdc810d500012ad603,442p42ri3e,Nick_Dissertation_EX1,1,37,2020-07-08T15:13:28-07:00,3.1158971786499,3,versionC_stim.csv,READVersionC.csv,"Read Version C","Dissertation, read only version C",WASP,BUG,Study1,F,32,64,Study,User,-,,Study/JOL,"Study Phase",2426,,,-1,-1,,,,1
5be1d0bdc810d500012ad603,442p42ri3e,Nick_Dissertation_EX1,1,38,2020-07-08T15:13:30-07:00,2.3032138347626,3,versionC_stim.csv,READVersionC.csv,"Read Version C","Dissertation, read only version C",SACKING,DIETARY,Study1,U,67,74,Study,User,-,,Study/JOL,"Study Phase",1543,,,-1,-1,,,,1
5be1d0bdc810d500012ad603,442p42ri3e,Nick_Dissertation_EX1,1,39,2020-07-08T15:13:32-07:00,2.3334050178528,3,versionC_stim.csv,READVersionC.csv,"Read Version C","Dissertation, read only version C",CAR,HAPPY,Study1,U,77,36,Study,User,-,,Study/JOL,"Study Phase",1597,,,-1,-1,,,,1
5be1d0bdc810d500012ad603,442p42ri3e,Nick_Dissertation_EX1,1,40,2020-07-08T15:13:35-07:00,2.069806098938,3,versionC_stim.csv,READVersionC.csv,"Read Version C","Dissertation, read only version C",RIDDLE,SUGAR,Study1,U,81,62,Study,User,-,,Study/JOL,"Study Phase",1357,,,-1,-1,,,,1
5be1d0bdc810d500012ad603,442p42ri3e,Nick_Dissertation_EX1,1,41,2020-07-08T15:13:37-07:00,2.5764169692993,3,versionC_stim.csv,READVersionC.csv,"Read Version C","Dissertation, read only version C",NEWS,EDITOR,Study1,B,10,86,Study,User,-,,Study/JOL,"Study Phase",1861,,,-1,-1,,,,1
5be1d0bdc810d500012ad603,442p42ri3e,Nick_Dissertation_EX1,1,42,2020-07-08T15:13:39-07:00,2.0298719406128,3,versionC_stim.csv,READVersionC.csv,"Read Version C","Dissertation, read only version C",DOG,PAW,Study1,B,15,59,Study,User,-,,Study/JOL,"Study Phase",1321,,,-1,-1,,,,1
5be1d0bdc810d500012ad603,442p42ri3e,Nick_Dissertation_EX1,1,43,2020-07-08T15:13:41-07:00,2.0975069999695,3,versionC_stim.csv,READVersionC.csv,"Read Version C","Dissertation, read only version C",END,BEGIN,Study1,S,54,76,Study,User,-,,Study/JOL,"Study Phase",1367,,,-1,-1,,,,1
5be1d0bdc810d500012ad603,442p42ri3e,Nick_Dissertation_EX1,1,44,2020-07-08T15:13:44-07:00,2.2901201248169,3,versionC_stim.csv,READVersionC.csv,"Read Version C","Dissertation, read only version C",BRONZE,ARTERY,Study1,U,74,37,Study,User,-,,Study/JOL,"Study Phase",1602,,,-1,-1,,,,1
5be1d0bdc810d500012ad603,442p42ri3e,Nick_Dissertation_EX1,1,45,2020-07-08T15:13:46-07:00,2.3651959896088,3,versionC_stim.csv,READVersionC.csv,"Read Version C","Dissertation, read only version C",STOMACH,DIGESTION,Study1,B,7,25,Study,User,-,,Study/JOL,"Study Phase",1734,,,-1,-1,,,,1
5be1d0bdc810d500012ad603,442p42ri3e,Nick_Dissertation_EX1,1,46,2020-07-08T15:13:48-07:00,2.311763048172,3,versionC_stim.csv,READVersionC.csv,"Read Version C","Dissertation, read only version C",PILOT,PLANE,Study1,F,44,67,Study,User,-,,Study/JOL,"Study Phase",1584,,,-1,-1,,,,1
5be1d0bdc810d500012ad603,442p42ri3e,Nick_Dissertation_EX1,1,47,2020-07-08T15:13:51-07:00,2.296149969101,3,versionC_stim.csv,READVersionC.csv,"Read Version C","Dissertation, read only version C",DIVISION,MATH,Study1,F,33,33,Study,User,-,,Study/JOL,"Study Phase",1578,,,-1,-1,,,,1
5be1d0bdc810d500012ad603,442p42ri3e,Nick_Dissertation_EX1,1,48,2020-07-08T15:13:53-07:00,2.3013048171997,3,versionC_stim.csv,READVersionC.csv,"Read Version C","Dissertation, read only version C",SIGHT,DEBATE,Study1,U,73,42,Study,User,-,,Study/JOL,"Study Phase",1573,,,-1,-1,,,,1
5be1d0bdc810d500012ad603,442p42ri3e,Nick_Dissertation_EX1,1,49,2020-07-08T15:13:55-07:00,2.4413900375366,3,versionC_stim.csv,READVersionC.csv,"Read Version C","Dissertation, read only version C",SIP,DRINK,Study1,F,27,84,Study,User,-,,Study/JOL,"Study Phase",1668,,,-1,-1,,,,1
5be1d0bdc810d500012ad603,442p42ri3e,Nick_Dissertation_EX1,1,50,2020-07-08T15:13:57-07:00,2.165048122406,3,versionC_stim.csv,READVersionC.csv,"Read Version C","Dissertation, read only version C",LION,ART,Study1,U,79,81,Study,User,-,,Study/JOL,"Study Phase",1551,,,-1,-1,,,,1
5be1d0bdc810d500012ad603,442p42ri3e,Nick_Dissertation_EX1,1,51,2020-07-08T15:14:01-07:00,3.3097188472748,3,versionC_stim.csv,READVersionC.csv,"Read Version C","Dissertation, read only version C",WAR,REVOLUTION,Study1,B,20,58,Study,User,-,,Study/JOL,"Study Phase",1503,,,-1,-1,,,,1
5be1d0bdc810d500012ad603,442p42ri3e,Nick_Dissertation_EX1,1,52,2020-07-08T15:14:05-07:00,4.5466420650482,3,versionC_stim.csv,READVersionC.csv,"Read Version C","Dissertation, read only version C",AMOUNT,NUMBER,Study1,S,47,38,Study,User,-,,Study/JOL,"Study Phase",1505,,,-1,-1,,,,1
5be1d0bdc810d500012ad603,442p42ri3e,Nick_Dissertation_EX1,1,53,2020-07-08T15:14:07-07:00,2.0067439079285,3,versionC_stim.csv,READVersionC.csv,"Read Version C","Dissertation, read only version C",ACCIDENT,STRONG,Study1,U,80,60,Study,User,-,,Study/JOL,"Study Phase",1300,,,-1,-1,,,,1
5be1d0bdc810d500012ad603,442p42ri3e,Nick_Dissertation_EX1,1,54,2020-07-08T15:14:10-07:00,2.3394491672516,3,versionC_stim.csv,READVersionC.csv,"Read Version C","Dissertation, read only version C",ROCK,GEOLOGY,Study1,B,19,75,Study,User,-,,Study/JOL,"Study Phase",1595,,,-1,-1,,,,1
5be1d0bdc810d500012ad603,442p42ri3e,Nick_Dissertation_EX1,1,55,2020-07-08T15:14:12-07:00,1.9217638969421,3,versionC_stim.csv,READVersionC.csv,"Read Version C","Dissertation, read only version C",BAR,GRILL,Study1,S,52,63,Study,User,-,,Study/JOL,"Study Phase",1115,,,-1,-1,,,,1
5be1d0bdc810d500012ad603,442p42ri3e,Nick_Dissertation_EX1,1,56,2020-07-08T15:14:14-07:00,2.6436259746552,3,versionC_stim.csv,READVersionC.csv,"Read Version C","Dissertation, read only version C",HUNGRY,PARK,Study1,U,68,9,Study,User,-,,Study/JOL,"Study Phase",1909,,,-1,-1,,,,1
5be1d0bdc810d500012ad603,442p42ri3e,Nick_Dissertation_EX1,1,57,2020-07-08T15:14:16-07:00,2.3141071796417,3,versionC_stim.csv,READVersionC.csv,"Read Version C","Dissertation, read only version C",SALAD,LETTUCE,Study1,S,59,23,Study,User,-,,Study/JOL,"Study Phase",1666,,,-1,-1,,,,1
5be1d0bdc810d500012ad603,442p42ri3e,Nick_Dissertation_EX1,1,58,2020-07-08T15:14:19-07:00,2.5799789428711,3,versionC_stim.csv,READVersionC.csv,"Read Version C","Dissertation, read only version C",STENCH,SMELL,Study1,F,42,16,Study,User,-,,Study/JOL,"Study Phase",1868,,,-1,-1,,,,1
5be1d0bdc810d500012ad603,442p42ri3e,Nick_Dissertation_EX1,1,59,2020-07-08T15:14:21-07:00,2.2103049755096,3,versionC_stim.csv,READVersionC.csv,"Read Version C","Dissertation, read only version C",TALK,DISCUSSION,Study1,B,21,54,Study,User,-,,Study/JOL,"Study Phase",1533,,,-1,-1,,,,1
5be1d0bdc810d500012ad603,442p42ri3e,Nick_Dissertation_EX1,1,60,2020-07-08T15:14:23-07:00,2.0046379566193,3,versionC_stim.csv,READVersionC.csv,"Read Version C","Dissertation, read only version C",SITE,LOCATION,Study1,S,48,18,Study,User,-,,Study/JOL,"Study Phase",1286,,,-1,-1,,,,1
5be1d0bdc810d500012ad603,442p42ri3e,Nick_Dissertation_EX1,1,61,2020-07-08T15:14:25-07:00,2.083074092865,3,versionC_stim.csv,READVersionC.csv,"Read Version C","Dissertation, read only version C",COW,HERD,Study1,B,22,55,Study,User,-,,Study/JOL,"Study Phase",1370,,,-1,-1,,,,1
5be1d0bdc810d500012ad603,442p42ri3e,Nick_Dissertation_EX1,1,62,2020-07-08T15:14:28-07:00,2.1595299243927,3,versionC_stim.csv,READVersionC.csv,"Read Version C","Dissertation, read only version C",POSITION,MACHINE,Study1,U,76,35,Study,User,-,,Study/JOL,"Study Phase",1429,,,-1,-1,,,,1
5be1d0bdc810d500012ad603,442p42ri3e,Nick_Dissertation_EX1,1,63,2020-07-08T15:14:30-07:00,2.1822040081024,3,versionC_stim.csv,READVersionC.csv,"Read Version C","Dissertation, read only version C",CLUTTER,PUSHER,Study1,U,66,83,Study,User,-,,Study/JOL,"Study Phase",1557,,,-1,-1,,,,1
5be1d0bdc810d500012ad603,442p42ri3e,Nick_Dissertation_EX1,1,64,2020-07-08T15:14:32-07:00,2.2009000778198,3,versionC_stim.csv,READVersionC.csv,"Read Version C","Dissertation, read only version C",FISH,TUNA,Study1,B,25,49,Study,User,-,,Study/JOL,"Study Phase",1487,,,-1,-1,,,,1
5be1d0bdc810d500012ad603,442p42ri3e,Nick_Dissertation_EX1,1,65,2020-07-08T15:14:36-07:00,4.2376728057861,3,versionC_stim.csv,READVersionC.csv,"Read Version C","Dissertation, read only version C",CHILD,BABY,Study1,S,64,51,Study,User,-,,Study/JOL,"Study Phase",1108,,,-1,-1,,,,1
5be1d0bdc810d500012ad603,442p42ri3e,Nick_Dissertation_EX1,1,66,2020-07-08T15:14:38-07:00,2.3174681663513,3,versionC_stim.csv,READVersionC.csv,"Read Version C","Dissertation, read only version C",ATTORNEY,LAW,Study1,F,34,11,Study,User,-,,Study/JOL,"Study Phase",1513,,,-1,-1,,,,1
5be1d0bdc810d500012ad603,442p42ri3e,Nick_Dissertation_EX1,1,67,2020-07-08T15:14:41-07:00,2.1862699985504,3,versionC_stim.csv,READVersionC.csv,"Read Version C","Dissertation, read only version C",WOULD,CASH,Study1,U,83,21,Study,User,-,,Study/JOL,"Study Phase",1452,,,-1,-1,,,,1
5be1d0bdc810d500012ad603,442p42ri3e,Nick_Dissertation_EX1,1,68,2020-07-08T15:14:43-07:00,2.098149061203,3,versionC_stim.csv,READVersionC.csv,"Read Version C","Dissertation, read only version C",BUSINESS,DEATH,Study1,U,72,47,Study,User,-,,Study/JOL,"Study Phase",1356,,,-1,-1,,,,1
5be1d0bdc810d500012ad603,442p42ri3e,Nick_Dissertation_EX1,1,69,2020-07-08T15:14:45-07:00,2.0088279247284,3,versionC_stim.csv,READVersionC.csv,"Read Version C","Dissertation, read only version C",SODA,POP,Study1,S,56,29,Study,User,-,,Study/JOL,"Study Phase",1389,,,-1,-1,,,,1
5be1d0bdc810d500012ad603,442p42ri3e,Nick_Dissertation_EX1,1,70,2020-07-08T15:14:47-07:00,2.0834908485413,3,versionC_stim.csv,READVersionC.csv,"Read Version C","Dissertation, read only version C",ROUND,CIRCLE,Study1,S,65,44,Study,User,-,,Study/JOL,"Study Phase",1380,,,-1,-1,,,,1
5be1d0bdc810d500012ad603,442p42ri3e,Nick_Dissertation_EX1,1,71,2020-07-08T15:14:50-07:00,3.1406919956207,3,versionC_stim.csv,READVersionC.csv,"Read Version C","Dissertation, read only version C",DEFINITION,MEANING,Study1,S,62,71,Study,User,-,,Study/JOL,"Study Phase",1383,,,-1,-1,,,,1
5be1d0bdc810d500012ad603,442p42ri3e,Nick_Dissertation_EX1,1,72,2020-07-08T15:14:52-07:00,2.287780046463,3,versionC_stim.csv,READVersionC.csv,"Read Version C","Dissertation, read only version C",WORD,SENTENCE,Study1,F,31,80,Study,User,-,,Study/JOL,"Study Phase",1183,,,-1,-1,,,,1
5be1d0bdc810d500012ad603,442p42ri3e,Nick_Dissertation_EX1,1,73,2020-07-08T15:14:54-07:00,1.853618144989,3,versionC_stim.csv,READVersionC.csv,"Read Version C","Dissertation, read only version C",FOOT,SHOE,Study1,S,60,61,Study,User,-,,Study/JOL,"Study Phase",1215,,,-1,-1,,,,1
5be1d0bdc810d500012ad603,442p42ri3e,Nick_Dissertation_EX1,1,74,2020-07-08T15:14:56-07:00,2.157989025116,3,versionC_stim.csv,READVersionC.csv,"Read Version C","Dissertation, read only version C",LATCH,KEY,Study1,F,36,39,Study,User,-,,Study/JOL,"Study Phase",1353,,,-1,-1,,,,1
5be1d0bdc810d500012ad603,442p42ri3e,Nick_Dissertation_EX1,1,75,2020-07-08T15:14:58-07:00,1.9120697975159,3,versionC_stim.csv,READVersionC.csv,"Read Version C","Dissertation, read only version C",ADD,VALLEY,Study1,U,82,17,Study,User,-,,Study/JOL,"Study Phase",1173,,,-1,-1,,,,1
5be1d0bdc810d500012ad603,442p42ri3e,Nick_Dissertation_EX1,1,76,2020-07-08T15:15:00-07:00,1.9504880905151,3,versionC_stim.csv,READVersionC.csv,"Read Version C","Dissertation, read only version C",FANTASTIC,GREAT,Study1,F,35,79,Study,User,-,,Study/JOL,"Study Phase",1327,,,-1,-1,,,,1
5be1d0bdc810d500012ad603,442p42ri3e,Nick_Dissertation_EX1,1,77,2020-07-08T15:15:02-07:00,1.9510390758514,3,versionC_stim.csv,READVersionC.csv,"Read Version C","Dissertation, read only version C",WASTE,DUMP,Study1,S,49,7,Study,User,-,,Study/JOL,"Study Phase",1215,,,-1,-1,,,,1
5be1d0bdc810d500012ad603,442p42ri3e,Nick_Dissertation_EX1,1,78,2020-07-08T15:15:05-07:00,2.6486990451813,3,versionC_stim.csv,READVersionC.csv,"Read Version C","Dissertation, read only version C",WOMAN,LIFT,Study1,U,69,13,Study,User,-,,Study/JOL,"Study Phase",1174,,,-1,-1,,,,1
5be1d0bdc810d500012ad603,442p42ri3e,Nick_Dissertation_EX1,1,79,2020-07-08T15:15:06-07:00,1.687392950058,3,versionC_stim.csv,READVersionC.csv,"Read Version C","Dissertation, read only version C",STING,HORNET,Study1,B,11,52,Study,User,-,,Study/JOL,"Study Phase",1026,,,-1,-1,,,,1
5be1d0bdc810d500012ad603,442p42ri3e,Nick_Dissertation_EX1,1,80,2020-07-08T15:15:08-07:00,1.8757848739624,3,versionC_stim.csv,READVersionC.csv,"Read Version C","Dissertation, read only version C",CHEESE,WINE,Study1,S,57,56,Study,User,-,,Study/JOL,"Study Phase",1163,,,-1,-1,,,,1
5be1d0bdc810d500012ad603,442p42ri3e,Nick_Dissertation_EX1,1,81,2020-07-08T15:15:10-07:00,1.9864890575409,3,versionC_stim.csv,READVersionC.csv,"Read Version C","Dissertation, read only version C",LIVER,KIDNEY,Study1,S,53,31,Study,User,-,,Study/JOL,"Study Phase",1145,,,-1,-1,,,,1
5be1d0bdc810d500012ad603,442p42ri3e,Nick_Dissertation_EX1,1,82,2020-07-08T15:15:12-07:00,1.8066201210022,3,versionC_stim.csv,READVersionC.csv,"Read Version C","Dissertation, read only version C",RACKET,BALL,Study1,F,38,82,Study,User,-,,Study/JOL,"Study Phase",1076,,,-1,-1,,,,1
5be1d0bdc810d500012ad603,442p42ri3e,Nick_Dissertation_EX1,1,83,2020-07-08T15:15:15-07:00,3.0153558254242,3,versionC_stim.csv,READVersionC.csv,"Read Version C","Dissertation, read only version C",DROWSY,SLEEP,Study1,F,41,27,Study,User,-,,Study/JOL,"Study Phase",1170,,,-1,-1,,,,1
5be1d0bdc810d500012ad603,442p42ri3e,Nick_Dissertation_EX1,1,84,2020-07-08T15:15:17-07:00,1.90860414505,3,versionC_stim.csv,READVersionC.csv,"Read Version C","Dissertation, read only version C",OUT,WAY,Study1,B,16,22,Study,User,-,,Study/JOL,"Study Phase",1157,,,-1,-1,,,,1
5be1d0bdc810d500012ad603,442p42ri3e,Nick_Dissertation_EX1,1,85,2020-07-08T15:15:19-07:00,1.8430979251862,3,versionC_stim.csv,READVersionC.csv,"Read Version C","Dissertation, read only version C",FAMINE,HUNGER,Study1,F,40,77,Study,User,-,,Study/JOL,"Study Phase",1108,,,-1,-1,,,,1
5be1d0bdc810d500012ad603,442p42ri3e,Nick_Dissertation_EX1,1,86,2020-07-08T15:15:21-07:00,1.7277228832245,3,versionC_stim.csv,READVersionC.csv,"Read Version C","Dissertation, read only version C",WATER,BRIDGE,Study1,B,18,26,Study,User,-,,Study/JOL,"Study Phase",1088,,,-1,-1,,,,1
5be1d0bdc810d500012ad603,442p42ri3e,Nick_Dissertation_EX1,1,87,2020-07-08T15:15:22-07:00,1.8155832290649,3,versionC_stim.csv,READVersionC.csv,"Read Version C","Dissertation, read only version C",SPACE,MOON,BUFFER2,Buffer,89,91,Study,User,-,,Study/JOL,BUFFER2,1069,,,-1,-1,,,,1
5be1d0bdc810d500012ad603,442p42ri3e,Nick_Dissertation_EX1,1,88,2020-07-08T15:15:24-07:00,1.699138879776,3,versionC_stim.csv,READVersionC.csv,"Read Version C","Dissertation, read only version C",CHOCOLATE,MALT,BUFFER2,Buffer,88,87,Study,User,-,,Study/JOL,BUFFER2,962,,,-1,-1,,,,1
5be1d0bdc810d500012ad603,442p42ri3e,Nick_Dissertation_EX1,1,89,2020-07-08T15:15:26-07:00,1.8038330078125,3,versionC_stim.csv,READVersionC.csv,"Read Version C","Dissertation, read only version C",STUFF,THING,BUFFER2,Buffer,90,89,Study,User,-,,Study/JOL,BUFFER2,1084,,,-1,-1,,,,1
5be1d0bdc810d500012ad603,442p42ri3e,Nick_Dissertation_EX1,1,90,2020-07-08T15:15:28-07:00,1.7421579360962,3,versionC_stim.csv,READVersionC.csv,"Read Version C","Dissertation, read only version C",GOOSE,GEESE,BUFFER2,Buffer,86,90,Study,User,-,,Study/JOL,BUFFER2,1113,,,-1,-1,,,,1
5be1d0bdc810d500012ad603,442p42ri3e,Nick_Dissertation_EX1,1,91,2020-07-08T15:15:29-07:00,1.777713060379,3,versionC_stim.csv,READVersionC.csv,"Read Version C","Dissertation, read only version C",POLICE,SHERRIF,BUFFER2,Buffer,87,88,Study,User,-,,Study/JOL,BUFFER2,1162,,,-1,-1,,,,1
5be1d0bdc810d500012ad603,442p42ri3e,Nick_Dissertation_EX1,1,92,2020-07-08T15:15:33-07:00,3.3405768871307,3,versionC_stim.csv,READVersionC.csv,"Read Version C","Dissertation, read only version C",,,,,,0,Instruct,User,-,"You have completed this section. Please press Enter.",Filler_Instruction,Instruct2,2607,,,-1,-1,,,,1
5be1d0bdc810d500012ad603,442p42ri3e,Nick_Dissertation_EX1,1,93,2020-07-08T15:17:34-07:00,120.85648322105,3,versionC_stim.csv,READVersionC.csv,"Read Version C","Dissertation, read only version C",,,,,,0,FreeRecall,120,120,"Please list the 50 US states in alphabetical order. The task will automatically advance to the next screen after two minutes.",,Filler1,120012,"Dallas Florida Mami Texas Washington ",0,-1,-1,0,0,,1
5be1d0bdc810d500012ad603,442p42ri3e,Nick_Dissertation_EX1,1,94,2020-07-08T15:17:46-07:00,12.554224967957,3,versionC_stim.csv,READVersionC.csv,"Read Version C","Dissertation, read only version C",,,,,,0,Instruct,-,10,"You will now be presented with the first word from each of the previously studied item pairs. Please type the missing word. If you do not know the word, you may guess or press Enter to skip forward to the next pair.",,Instruct3,11915,,,-1,-1,,,,1
5be1d0bdc810d500012ad603,442p42ri3e,Nick_Dissertation_EX1,1,95,2020-07-08T15:17:52-07:00,5.402135848999,3,versionC_stim.csv,READVersionC.csv,"Read Version C","Dissertation, read only version C",WASP,BUG,Study1,F,32,64,Test,User,-,,Recall,Recall1,4643,Bug,100,-1,-1,1,1,,1
5be1d0bdc810d500012ad603,442p42ri3e,Nick_Dissertation_EX1,1,96,2020-07-08T15:18:00-07:00,8.7910010814667,3,versionC_stim.csv,READVersionC.csv,"Read Version C","Dissertation, read only version C",STENCH,SMELL,Study1,F,42,16,Test,User,-,,Recall,Recall1,8051,Smell,100,-1,-1,1,1,,1
5be1d0bdc810d500012ad603,442p42ri3e,Nick_Dissertation_EX1,1,97,2020-07-08T15:18:04-07:00,3.9285590648651,3,versionC_stim.csv,READVersionC.csv,"Read Version C","Dissertation, read only version C",VASE,KING,Study1,U,85,41,Test,User,-,,Recall,Recall1,3185,,0,-1,-1,0,0,,1
5be1d0bdc810d500012ad603,442p42ri3e,Nick_Dissertation_EX1,1,98,2020-07-08T15:18:07-07:00,2.5174789428711,3,versionC_stim.csv,READVersionC.csv,"Read Version C","Dissertation, read only version C",BRONZE,ARTERY,Study1,U,74,37,Test,User,-,,Recall,Recall1,1794,,0,-1,-1,0,0,,1
5be1d0bdc810d500012ad603,442p42ri3e,Nick_Dissertation_EX1,1,99,2020-07-08T15:18:10-07:00,3.0603659152985,3,versionC_stim.csv,READVersionC.csv,"Read Version C","Dissertation, read only version C",DEFINITION,MEANING,Study1,S,62,71,Test,User,-,,Recall,Recall1,2347,,0,-1,-1,0,0,,1
5be1d0bdc810d500012ad603,442p42ri3e,Nick_Dissertation_EX1,1,100,2020-07-08T15:18:17-07:00,7.3096120357513,3,versionC_stim.csv,READVersionC.csv,"Read Version C","Dissertation, read only version C",DIVISION,MATH,Study1,F,33,33,Test,User,-,,Recall,Recall1,4381,,0,-1,-1,0,0,,1
5be1d0bdc810d500012ad603,442p42ri3e,Nick_Dissertation_EX1,1,101,2020-07-08T15:18:20-07:00,2.3378231525421,3,versionC_stim.csv,READVersionC.csv,"Read Version C","Dissertation, read only version C",WOULD,CASH,Study1,U,83,21,Test,User,-,,Recall,Recall1,1589,,0,-1,-1,0,0,,1
5be1d0bdc810d500012ad603,442p42ri3e,Nick_Dissertation_EX1,1,102,2020-07-08T15:18:25-07:00,5.9128839969635,3,versionC_stim.csv,READVersionC.csv,"Read Version C","Dissertation, read only version C",COW,HERD,Study1,B,22,55,Test,User,-,,Recall,Recall1,5168,Herd,100,-1,-1,1,1,,1
5be1d0bdc810d500012ad603,442p42ri3e,Nick_Dissertation_EX1,1,103,2020-07-08T15:18:31-07:00,5.3408019542694,3,versionC_stim.csv,READVersionC.csv,"Read Version C","Dissertation, read only version C",BIRD,SWAN,Study1,B,14,8,Test,User,-,,Recall,Recall1,4614,Egg,0,-1,-1,0,0,,1
5be1d0bdc810d500012ad603,442p42ri3e,Nick_Dissertation_EX1,1,104,2020-07-08T15:18:37-07:00,5.8581659793854,3,versionC_stim.csv,READVersionC.csv,"Read Version C","Dissertation, read only version C",PLANT,ROOT,Study1,B,13,12,Test,User,-,,Recall,Recall1,5193,Grow,50,-1,-1,0,0,,1
5be1d0bdc810d500012ad603,442p42ri3e,Nick_Dissertation_EX1,1,105,2020-07-08T15:18:39-07:00,2.6457660198212,3,versionC_stim.csv,READVersionC.csv,"Read Version C","Dissertation, read only version C",GROWTH,HEIGHT,Study1,F,30,40,Test,User,-,,Recall,Recall1,1892,,0,-1,-1,0,0,,1
5be1d0bdc810d500012ad603,442p42ri3e,Nick_Dissertation_EX1,1,106,2020-07-08T15:18:44-07:00,5.0041978359222,3,versionC_stim.csv,READVersionC.csv,"Read Version C","Dissertation, read only version C",BAD,DELINQUENT,Study1,B,6,34,Test,User,-,,Recall,Recall1,4298,Goid,14.285714285714,-1,-1,0,0,,1
5be1d0bdc810d500012ad603,442p42ri3e,Nick_Dissertation_EX1,1,107,2020-07-08T15:18:49-07:00,4.9070160388947,3,versionC_stim.csv,READVersionC.csv,"Read Version C","Dissertation, read only version C",WOMAN,LIFT,Study1,U,69,13,Test,User,-,,Recall,Recall1,4143,Man,0,-1,-1,0,0,,1
5be1d0bdc810d500012ad603,442p42ri3e,Nick_Dissertation_EX1,1,108,2020-07-08T15:18:52-07:00,2.3029639720917,3,versionC_stim.csv,READVersionC.csv,"Read Version C","Dissertation, read only version C",SITE,LOCATION,Study1,S,48,18,Test,User,-,,Recall,Recall1,1585,,0,-1,-1,0,0,,1
5be1d0bdc810d500012ad603,442p42ri3e,Nick_Dissertation_EX1,1,109,2020-07-08T15:18:53-07:00,1.8779830932617,3,versionC_stim.csv,READVersionC.csv,"Read Version C","Dissertation, read only version C",TUCK,ALLOW,Study1,U,78,72,Test,User,-,,Recall,Recall1,1243,,0,-1,-1,0,0,,1
5be1d0bdc810d500012ad603,442p42ri3e,Nick_Dissertation_EX1,1,110,2020-07-08T15:18:56-07:00,2.4412748813629,3,versionC_stim.csv,READVersionC.csv,"Read Version C","Dissertation, read only version C",LIVER,KIDNEY,Study1,S,53,31,Test,User,-,,Recall,Recall1,1822,,0,-1,-1,0,0,,1
5be1d0bdc810d500012ad603,442p42ri3e,Nick_Dissertation_EX1,1,111,2020-07-08T15:19:04-07:00,8.2763650417328,3,versionC_stim.csv,READVersionC.csv,"Read Version C","Dissertation, read only version C",FUTURE,PAST,Study1,S,61,45,Test,User,-,,Recall,Recall1,7538,Now,0,-1,-1,0,0,,1
5be1d0bdc810d500012ad603,442p42ri3e,Nick_Dissertation_EX1,1,112,2020-07-08T15:19:10-07:00,6.0190510749817,3,versionC_stim.csv,READVersionC.csv,"Read Version C","Dissertation, read only version C",CLUTTER,PUSHER,Study1,U,66,83,Test,User,-,,Recall,Recall1,3092,,0,-1,-1,0,0,,1
5be1d0bdc810d500012ad603,442p42ri3e,Nick_Dissertation_EX1,1,113,2020-07-08T15:19:16-07:00,5.6958909034729,3,versionC_stim.csv,READVersionC.csv,"Read Version C","Dissertation, read only version C",SALAD,LETTUCE,Study1,S,59,23,Test,User,-,,Recall,Recall1,4948,Green,33.333333333333,-1,-1,0,0,,1
5be1d0bdc810d500012ad603,442p42ri3e,Nick_Dissertation_EX1,1,114,2020-07-08T15:19:18-07:00,2.4653701782227,3,versionC_stim.csv,READVersionC.csv,"Read Version C","Dissertation, read only version C",DESIGN,ARCHITECTURE,Study1,S,51,68,Test,User,-,,Recall,Recall1,1646,,0,-1,-1,0,0,,1
5be1d0bdc810d500012ad603,442p42ri3e,Nick_Dissertation_EX1,1,115,2020-07-08T15:19:20-07:00,2.1037638187408,3,versionC_stim.csv,READVersionC.csv,"Read Version C","Dissertation, read only version C",BAR,GRILL,Study1,S,52,63,Test,User,-,,Recall,Recall1,1492,,0,-1,-1,0,0,,1
5be1d0bdc810d500012ad603,442p42ri3e,Nick_Dissertation_EX1,1,116,2020-07-08T15:19:26-07:00,5.3631670475006,3,versionC_stim.csv,READVersionC.csv,"Read Version C","Dissertation, read only version C",DROWSY,SLEEP,Study1,F,41,27,Test,User,-,,Recall,Recall1,4619,,0,-1,-1,0,0,,1
5be1d0bdc810d500012ad603,442p42ri3e,Nick_Dissertation_EX1,1,117,2020-07-08T15:19:29-07:00,3.5603129863739,3,versionC_stim.csv,READVersionC.csv,"Read Version C","Dissertation, read only version C",PILOT,PLANE,Study1,F,44,67,Test,User,-,,Recall,Recall1,1914,,0,-1,-1,0,0,,1
5be1d0bdc810d500012ad603,442p42ri3e,Nick_Dissertation_EX1,1,118,2020-07-08T15:19:33-07:00,3.2933621406555,3,versionC_stim.csv,READVersionC.csv,"Read Version C","Dissertation, read only version C",BLAZE,FIRE,Study1,F,45,30,Test,User,-,,Recall,Recall1,2253,,0,-1,-1,0,0,,1
5be1d0bdc810d500012ad603,442p42ri3e,Nick_Dissertation_EX1,1,119,2020-07-08T15:19:38-07:00,5.0434160232544,3,versionC_stim.csv,READVersionC.csv,"Read Version C","Dissertation, read only version C",FLOWER,ORCHID,Study1,B,24,15,Test,User,-,,Recall,Recall1,4276,Bed,22.222222222222,-1,-1,0,0,,1
5be1d0bdc810d500012ad603,442p42ri3e,Nick_Dissertation_EX1,1,120,2020-07-08T15:19:40-07:00,2.7430818080902,3,versionC_stim.csv,READVersionC.csv,"Read Version C","Dissertation, read only version C",ACCIDENT,STRONG,Study1,U,80,60,Test,User,-,,Recall,Recall1,2027,,0,-1,-1,0,0,,1
5be1d0bdc810d500012ad603,442p42ri3e,Nick_Dissertation_EX1,1,121,2020-07-08T15:19:43-07:00,2.7535190582275,3,versionC_stim.csv,READVersionC.csv,"Read Version C","Dissertation, read only version C",WASTE,DUMP,Study1,S,49,7,Test,User,-,,Recall,Recall1,1038,,0,-1,-1,0,0,,1
5be1d0bdc810d500012ad603,442p42ri3e,Nick_Dissertation_EX1,1,122,2020-07-08T15:19:47-07:00,4.2490301132202,3,versionC_stim.csv,READVersionC.csv,"Read Version C","Dissertation, read only version C",TOILET,BATHROOM,Study1,S,58,57,Test,User,-,,Recall,Recall1,1952,,0,-1,-1,0,0,,1
5be1d0bdc810d500012ad603,442p42ri3e,Nick_Dissertation_EX1,1,123,2020-07-08T15:19:50-07:00,2.4523718357086,3,versionC_stim.csv,READVersionC.csv,"Read Version C","Dissertation, read only version C",POSITION,MACHINE,Study1,U,76,35,Test,User,-,,Recall,Recall1,1707,,0,-1,-1,0,0,,1
5be1d0bdc810d500012ad603,442p42ri3e,Nick_Dissertation_EX1,1,124,2020-07-08T15:19:53-07:00,3.5724980831146,3,versionC_stim.csv,READVersionC.csv,"Read Version C","Dissertation, read only version C",WORD,SENTENCE,Study1,F,31,80,Test,User,-,,Recall,Recall1,1461,,0,-1,-1,0,0,,1
5be1d0bdc810d500012ad603,442p42ri3e,Nick_Dissertation_EX1,1,125,2020-07-08T15:19:59-07:00,6.0251219272614,3,versionC_stim.csv,READVersionC.csv,"Read Version C","Dissertation, read only version C",NEWS,EDITOR,Study1,B,10,86,Test,User,-,,Recall,Recall1,5232,Flash,0,-1,-1,0,0,,1
5be1d0bdc810d500012ad603,442p42ri3e,Nick_Dissertation_EX1,1,126,2020-07-08T15:20:02-07:00,2.1134519577026,3,versionC_stim.csv,READVersionC.csv,"Read Version C","Dissertation, read only version C",FANTASTIC,GREAT,Study1,F,35,79,Test,User,-,,Recall,Recall1,1473,,0,-1,-1,0,0,,1
5be1d0bdc810d500012ad603,442p42ri3e,Nick_Dissertation_EX1,1,127,2020-07-08T15:20:04-07:00,2.6425540447235,3,versionC_stim.csv,READVersionC.csv,"Read Version C","Dissertation, read only version C",WAR,REVOLUTION,Study1,B,20,58,Test,User,-,,Recall,Recall1,1992,,0,-1,-1,0,0,,1
5be1d0bdc810d500012ad603,442p42ri3e,Nick_Dissertation_EX1,1,128,2020-07-08T15:20:07-07:00,3.2191729545593,3,versionC_stim.csv,READVersionC.csv,"Read Version C","Dissertation, read only version C",CARD,CREDIT,Study1,B,23,28,Test,User,-,,Recall,Recall1,1461,,0,-1,-1,0,0,,1
5be1d0bdc810d500012ad603,442p42ri3e,Nick_Dissertation_EX1,1,129,2020-07-08T15:20:11-07:00,3.3898711204529,3,versionC_stim.csv,READVersionC.csv,"Read Version C","Dissertation, read only version C",ATTIRE,CLOTHES,Study1,F,43,46,Test,User,-,,Recall,Recall1,2602,,0,-1,-1,0,0,,1
5be1d0bdc810d500012ad603,442p42ri3e,Nick_Dissertation_EX1,1,130,2020-07-08T15:20:15-07:00,4.190535068512,3,versionC_stim.csv,READVersionC.csv,"Read Version C","Dissertation, read only version C",OUT,WAY,Study1,B,16,22,Test,User,-,,Recall,Recall1,3528,In,0,-1,-1,0,0,,1
5be1d0bdc810d500012ad603,442p42ri3e,Nick_Dissertation_EX1,1,131,2020-07-08T15:20:19-07:00,4.0222020149231,3,versionC_stim.csv,READVersionC.csv,"Read Version C","Dissertation, read only version C",SIGHT,DEBATE,Study1,U,73,42,Test,User,-,,Recall,Recall1,3385,See,44.444444444444,-1,-1,0,0,,1
5be1d0bdc810d500012ad603,442p42ri3e,Nick_Dissertation_EX1,1,132,2020-07-08T15:20:21-07:00,2.3036320209503,3,versionC_stim.csv,READVersionC.csv,"Read Version C","Dissertation, read only version C",SACKING,DIETARY,Study1,U,67,74,Test,User,-,,Recall,Recall1,1524,,0,-1,-1,0,0,,1
5be1d0bdc810d500012ad603,442p42ri3e,Nick_Dissertation_EX1,1,133,2020-07-08T15:20:26-07:00,4.7478859424591,3,versionC_stim.csv,READVersionC.csv,"Read Version C","Dissertation, read only version C",JURY,TRIAL,Study1,S,50,32,Test,User,-,,Recall,Recall1,4034,,0,-1,-1,0,0,,1
5be1d0bdc810d500012ad603,442p42ri3e,Nick_Dissertation_EX1,1,134,2020-07-08T15:20:32-07:00,6.3023738861084,3,versionC_stim.csv,READVersionC.csv,"Read Version C","Dissertation, read only version C",BEE,HONEY,Study1,S,63,53,Test,User,-,,Recall,Recall1,5521,Bug,0,-1,-1,0,0,,1
5be1d0bdc810d500012ad603,442p42ri3e,Nick_Dissertation_EX1,1,135,2020-07-08T15:20:36-07:00,3.6363999843597,3,versionC_stim.csv,READVersionC.csv,"Read Version C","Dissertation, read only version C",FLOOR,DISCOVER,Study1,U,71,10,Test,User,-,,Recall,Recall1,2891,,0,-1,-1,0,0,,1
5be1d0bdc810d500012ad603,442p42ri3e,Nick_Dissertation_EX1,1,136,2020-07-08T15:20:42-07:00,6.1343231201172,3,versionC_stim.csv,READVersionC.csv,"Read Version C","Dissertation, read only version C",CHILI,HOT,Study1,F,37,43,Test,User,-,,Recall,Recall1,5375,Out,66.666666666667,-1,-1,0,0,,1
5be1d0bdc810d500012ad603,442p42ri3e,Nick_Dissertation_EX1,1,137,2020-07-08T15:20:44-07:00,1.9959609508514,3,versionC_stim.csv,READVersionC.csv,"Read Version C","Dissertation, read only version C",BELT,SOON,Study1,U,70,66,Test,User,-,,Recall,Recall1,1352,,0,-1,-1,0,0,,1
5be1d0bdc810d500012ad603,442p42ri3e,Nick_Dissertation_EX1,1,138,2020-07-08T15:20:50-07:00,5.3809230327606,3,versionC_stim.csv,READVersionC.csv,"Read Version C","Dissertation, read only version C",RACKET,BALL,Study1,F,38,82,Test,User,-,,Recall,Recall1,4619,Ball,100,-1,-1,1,1,,1
5be1d0bdc810d500012ad603,442p42ri3e,Nick_Dissertation_EX1,1,139,2020-07-08T15:20:54-07:00,4.8413980007172,3,versionC_stim.csv,READVersionC.csv,"Read Version C","Dissertation, read only version C",LION,ART,Study1,U,79,81,Test,User,-,,Recall,Recall1,4198,King,0,-1,-1,0,0,,1
5be1d0bdc810d500012ad603,442p42ri3e,Nick_Dissertation_EX1,1,140,2020-07-08T15:20:57-07:00,2.2934019565582,3,versionC_stim.csv,READVersionC.csv,"Read Version C","Dissertation, read only version C",CHILD,BABY,Study1,S,64,51,Test,User,-,,Recall,Recall1,1516,,0,-1,-1,0,0,,1
5be1d0bdc810d500012ad603,442p42ri3e,Nick_Dissertation_EX1,1,141,2020-07-08T15:20:59-07:00,2.1929199695587,3,versionC_stim.csv,READVersionC.csv,"Read Version C","Dissertation, read only version C",END,BEGIN,Study1,S,54,76,Test,User,-,,Recall,Recall1,1487,,0,-1,-1,0,0,,1
5be1d0bdc810d500012ad603,442p42ri3e,Nick_Dissertation_EX1,1,142,2020-07-08T15:21:01-07:00,2.1055891513824,3,versionC_stim.csv,READVersionC.csv,"Read Version C","Dissertation, read only version C",CHORE,WORK,Study1,F,39,65,Test,User,-,,Recall,Recall1,1382,,0,-1,-1,0,0,,1
5be1d0bdc810d500012ad603,442p42ri3e,Nick_Dissertation_EX1,1,143,2020-07-08T15:21:07-07:00,6.4603199958801,3,versionC_stim.csv,READVersionC.csv,"Read Version C","Dissertation, read only version C",HUNGRY,PARK,Study1,U,68,9,Test,User,-,,Recall,Recall1,4421,Food,0,-1,-1,0,0,,1
5be1d0bdc810d500012ad603,442p42ri3e,Nick_Dissertation_EX1,1,144,2020-07-08T15:21:13-07:00,5.9057009220123,3,versionC_stim.csv,READVersionC.csv,"Read Version C","Dissertation, read only version C",TALK,DISCUSSION,Study1,B,21,54,Test,User,-,,Recall,Recall1,2336,,0,-1,-1,0,0,,1
5be1d0bdc810d500012ad603,442p42ri3e,Nick_Dissertation_EX1,1,145,2020-07-08T15:21:15-07:00,1.6562950611115,3,versionC_stim.csv,READVersionC.csv,"Read Version C","Dissertation, read only version C",ATTORNEY,LAW,Study1,F,34,11,Test,User,-,,Recall,Recall1,937,,0,-1,-1,0,0,,1
5be1d0bdc810d500012ad603,442p42ri3e,Nick_Dissertation_EX1,1,146,2020-07-08T15:21:23-07:00,8.0820949077606,3,versionC_stim.csv,READVersionC.csv,"Read Version C","Dissertation, read only version C",HAMMER,CHISEL,Study1,B,9,69,Test,User,-,,Recall,Recall1,7322,Nail,40,-1,-1,0,0,,1
5be1d0bdc810d500012ad603,442p42ri3e,Nick_Dissertation_EX1,1,147,2020-07-08T15:21:25-07:00,2.2121570110321,3,versionC_stim.csv,READVersionC.csv,"Read Version C","Dissertation, read only version C",AMOUNT,NUMBER,Study1,S,47,38,Test,User,-,,Recall,Recall1,1484,,0,-1,-1,0,0,,1
5be1d0bdc810d500012ad603,442p42ri3e,Nick_Dissertation_EX1,1,148,2020-07-08T15:21:28-07:00,2.3808979988098,3,versionC_stim.csv,READVersionC.csv,"Read Version C","Dissertation, read only version C",ASSIGNMENT,DUE,Study1,S,46,14,Test,User,-,,Recall,Recall1,1668,,0,-1,-1,0,0,,1
5be1d0bdc810d500012ad603,442p42ri3e,Nick_Dissertation_EX1,1,149,2020-07-08T15:21:30-07:00,2.0665988922119,3,versionC_stim.csv,READVersionC.csv,"Read Version C","Dissertation, read only version C",ENOUGH,FULL,Study1,F,26,73,Test,User,-,,Recall,Recall1,1434,,0,-1,-1,0,0,,1
5be1d0bdc810d500012ad603,442p42ri3e,Nick_Dissertation_EX1,1,150,2020-07-08T15:21:35-07:00,4.851811170578,3,versionC_stim.csv,READVersionC.csv,"Read Version C","Dissertation, read only version C",CLEAN,HYGIENE,Study1,B,17,85,Test,User,-,,Recall,Recall1,4184,Tidy,18.181818181818,-1,-1,0,0,,1
5be1d0bdc810d500012ad603,442p42ri3e,Nick_Dissertation_EX1,1,151,2020-07-08T15:21:37-07:00,2.3122098445892,3,versionC_stim.csv,READVersionC.csv,"Read Version C","Dissertation, read only version C",ROCK,GEOLOGY,Study1,B,19,75,Test,User,-,,Recall,Recall1,1595,,0,-1,-1,0,0,,1
5be1d0bdc810d500012ad603,442p42ri3e,Nick_Dissertation_EX1,1,152,2020-07-08T15:21:43-07:00,5.6503109931946,3,versionC_stim.csv,READVersionC.csv,"Read Version C","Dissertation, read only version C",CAR,HAPPY,Study1,U,77,36,Test,User,-,,Recall,Recall1,2025,,0,-1,-1,0,0,,1
5be1d0bdc810d500012ad603,442p42ri3e,Nick_Dissertation_EX1,1,153,2020-07-08T15:21:45-07:00,2.3809251785278,3,versionC_stim.csv,READVersionC.csv,"Read Version C","Dissertation, read only version C",FISH,TUNA,Study1,B,25,49,Test,User,-,,Recall,Recall1,1655,,0,-1,-1,0,0,,1
5be1d0bdc810d500012ad603,442p42ri3e,Nick_Dissertation_EX1,1,154,2020-07-08T15:21:49-07:00,4.0506219863892,3,versionC_stim.csv,READVersionC.csv,"Read Version C","Dissertation, read only version C",SODA,POP,Study1,S,56,29,Test,User,-,,Recall,Recall1,3300,Pop,100,-1,-1,1,1,,1
5be1d0bdc810d500012ad603,442p42ri3e,Nick_Dissertation_EX1,1,155,2020-07-08T15:21:55-07:00,6.0557069778442,3,versionC_stim.csv,READVersionC.csv,"Read Version C","Dissertation, read only version C",SIP,DRINK,Study1,F,27,84,Test,User,-,,Recall,Recall1,5291,Drinl,80,-1,-1,0,1,,1
5be1d0bdc810d500012ad603,442p42ri3e,Nick_Dissertation_EX1,1,156,2020-07-08T15:21:57-07:00,2.3907458782196,3,versionC_stim.csv,READVersionC.csv,"Read Version C","Dissertation, read only version C",CHEESE,WINE,Study1,S,57,56,Test,User,-,,Recall,Recall1,1498,,0,-1,-1,0,0,,1
5be1d0bdc810d500012ad603,442p42ri3e,Nick_Dissertation_EX1,1,157,2020-07-08T15:21:59-07:00,1.5616321563721,3,versionC_stim.csv,READVersionC.csv,"Read Version C","Dissertation, read only version C",STING,HORNET,Study1,B,11,52,Test,User,-,,Recall,Recall1,836,,0,-1,-1,0,0,,1
5be1d0bdc810d500012ad603,442p42ri3e,Nick_Dissertation_EX1,1,158,2020-07-08T15:22:02-07:00,3.1779229640961,3,versionC_stim.csv,READVersionC.csv,"Read Version C","Dissertation, read only version C",HAND,FIX,Study1,U,75,78,Test,User,-,,Recall,Recall1,2418,,0,-1,-1,0,0,,1
5be1d0bdc810d500012ad603,442p42ri3e,Nick_Dissertation_EX1,1,159,2020-07-08T15:22:04-07:00,2.3305079936981,3,versionC_stim.csv,READVersionC.csv,"Read Version C","Dissertation, read only version C",SEIZE,TAKE,Study1,F,29,50,Test,User,-,,Recall,Recall1,1509,,0,-1,-1,0,0,,1
5be1d0bdc810d500012ad603,442p42ri3e,Nick_Dissertation_EX1,1,160,2020-07-08T15:22:07-07:00,2.5102088451385,3,versionC_stim.csv,READVersionC.csv,"Read Version C","Dissertation, read only version C",ROUND,CIRCLE,Study1,S,65,44,Test,User,-,,Recall,Recall1,1705,,0,-1,-1,0,0,,1
5be1d0bdc810d500012ad603,442p42ri3e,Nick_Dissertation_EX1,1,161,2020-07-08T15:22:12-07:00,5.0698881149292,3,versionC_stim.csv,READVersionC.csv,"Read Version C","Dissertation, read only version C",DOG,PAW,Study1,B,15,59,Test,User,-,,Recall,Recall1,4266,Bark,28.571428571429,-1,-1,0,0,,1
5be1d0bdc810d500012ad603,442p42ri3e,Nick_Dissertation_EX1,1,162,2020-07-08T15:22:14-07:00,2.2070970535278,3,versionC_stim.csv,READVersionC.csv,"Read Version C","Dissertation, read only version C",MONEY,WAGE,Study1,B,8,19,Test,User,-,,Recall,Recall1,1449,,0,-1,-1,0,0,,1
5be1d0bdc810d500012ad603,442p42ri3e,Nick_Dissertation_EX1,1,163,2020-07-08T15:22:16-07:00,1.9902260303497,3,versionC_stim.csv,READVersionC.csv,"Read Version C","Dissertation, read only version C",SICK,HIDE,Study1,U,84,24,Test,User,-,,Recall,Recall1,1344,,0,-1,-1,0,0,,1
5be1d0bdc810d500012ad603,442p42ri3e,Nick_Dissertation_EX1,1,164,2020-07-08T15:22:18-07:00,1.9187498092651,3,versionC_stim.csv,READVersionC.csv,"Read Version C","Dissertation, read only version C",FOOT,SHOE,Study1,S,60,61,Test,User,-,,Recall,Recall1,1157,,0,-1,-1,0,0,,1
5be1d0bdc810d500012ad603,442p42ri3e,Nick_Dissertation_EX1,1,165,2020-07-08T15:22:21-07:00,2.3191421031952,3,versionC_stim.csv,READVersionC.csv,"Read Version C","Dissertation, read only version C",STOMACH,DIGESTION,Study1,B,7,25,Test,User,-,,Recall,Recall1,1537,,0,-1,-1,0,0,,1
5be1d0bdc810d500012ad603,442p42ri3e,Nick_Dissertation_EX1,1,166,2020-07-08T15:22:23-07:00,2.0185759067535,3,versionC_stim.csv,READVersionC.csv,"Read Version C","Dissertation, read only version C",ADD,VALLEY,Study1,U,82,17,Test,User,-,,Recall,Recall1,1259,,0,-1,-1,0,0,,1
5be1d0bdc810d500012ad603,442p42ri3e,Nick_Dissertation_EX1,1,167,2020-07-08T15:22:24-07:00,1.8084580898285,3,versionC_stim.csv,READVersionC.csv,"Read Version C","Dissertation, read only version C",LATCH,KEY,Study1,F,36,39,Test,User,-,,Recall,Recall1,1087,,0,-1,-1,0,0,,1
5be1d0bdc810d500012ad603,442p42ri3e,Nick_Dissertation_EX1,1,168,2020-07-08T15:22:30-07:00,5.4008281230927,3,versionC_stim.csv,READVersionC.csv,"Read Version C","Dissertation, read only version C",COLD,BITTER,Study1,B,12,48,Test,User,-,,Recall,Recall1,4727,Hot,22.222222222222,-1,-1,0,0,,1
5be1d0bdc810d500012ad603,442p42ri3e,Nick_Dissertation_EX1,1,169,2020-07-08T15:22:32-07:00,2.6133589744568,3,versionC_stim.csv,READVersionC.csv,"Read Version C","Dissertation, read only version C",WATER,BRIDGE,Study1,B,18,26,Test,User,-,,Recall,Recall1,1881,,0,-1,-1,0,0,,1
5be1d0bdc810d500012ad603,442p42ri3e,Nick_Dissertation_EX1,1,170,2020-07-08T15:22:34-07:00,1.8201928138733,3,versionC_stim.csv,READVersionC.csv,"Read Version C","Dissertation, read only version C",BUSINESS,DEATH,Study1,U,72,47,Test,User,-,,Recall,Recall1,1107,,0,-1,-1,0,0,,1
5be1d0bdc810d500012ad603,442p42ri3e,Nick_Dissertation_EX1,1,171,2020-07-08T15:22:42-07:00,8.0386111736298,3,versionC_stim.csv,READVersionC.csv,"Read Version C","Dissertation, read only version C",FAMINE,HUNGER,Study1,F,40,77,Test,User,-,,Recall,Recall1,7300,Hunger,100,-1,-1,1,1,,1
5be1d0bdc810d500012ad603,442p42ri3e,Nick_Dissertation_EX1,1,172,2020-07-08T15:22:45-07:00,2.3620579242706,3,versionC_stim.csv,READVersionC.csv,"Read Version C","Dissertation, read only version C",RIDDLE,SUGAR,Study1,U,81,62,Test,User,-,,Recall,Recall1,1502,,0,-1,-1,0,0,,1
5be1d0bdc810d500012ad603,442p42ri3e,Nick_Dissertation_EX1,1,173,2020-07-08T15:22:46-07:00,1.5414509773254,3,versionC_stim.csv,READVersionC.csv,"Read Version C","Dissertation, read only version C",WIND,BLOW,Study1,S,55,70,Test,User,-,,Recall,Recall1,845,,0,-1,-1,0,0,,1
5be1d0bdc810d500012ad603,442p42ri3e,Nick_Dissertation_EX1,1,174,2020-07-08T15:22:49-07:00,2.9607419967651,3,versionC_stim.csv,READVersionC.csv,"Read Version C","Dissertation, read only version C",CAVE,DARK,Study1,F,28,20,Test,User,-,,Recall,Recall1,2226,,0,-1,-1,0,0,,1
5be1d0bdc810d500012ad603,442p42ri3e,Nick_Dissertation_EX1,1,175,2020-07-08T15:23:01-07:00,11.971267938614,3,versionC_stim.csv,READVersionC.csv,"Read Version C","Dissertation, read only version C",,,,,,0,Instruct,-,10,"You will now be presented with a new set of word pairs. Please study each pair. Remember that your memory will be tested! When finished, press Enter to move to the next pair.",Initial_Instruct,Instruct4,11204,,,-1,-1,,,,1
5be1d0bdc810d500012ad603,442p42ri3e,Nick_Dissertation_EX1,1,176,2020-07-08T15:23:03-07:00,2.3502571582794,3,versionC_stim.csv,READVersionC.csv,"Read Version C","Dissertation, read only version C",FROZEN,ICE,BUFFER3,Buffer,94,93,Study,User,-,,Study/JOL,BUFFER3,1689,,,-1,-1,,,,1
5be1d0bdc810d500012ad603,442p42ri3e,Nick_Dissertation_EX1,1,177,2020-07-08T15:23:05-07:00,2.0180490016937,3,versionC_stim.csv,READVersionC.csv,"Read Version C","Dissertation, read only version C",STRING,NOODLE,BUFFER3,Buffer,92,95,Study,User,-,,Study/JOL,BUFFER3,1289,,,-1,-1,,,,1
5be1d0bdc810d500012ad603,442p42ri3e,Nick_Dissertation_EX1,1,178,2020-07-08T15:23:07-07:00,1.8918089866638,3,versionC_stim.csv,READVersionC.csv,"Read Version C","Dissertation, read only version C",POTATO,CARROT,BUFFER3,Buffer,91,96,Study,User,-,,Study/JOL,BUFFER3,1223,,,-1,-1,,,,1
5be1d0bdc810d500012ad603,442p42ri3e,Nick_Dissertation_EX1,1,179,2020-07-08T15:23:09-07:00,2.0493578910828,3,versionC_stim.csv,READVersionC.csv,"Read Version C","Dissertation, read only version C",ADVENTURE,CAMP,BUFFER3,Buffer,95,92,Study,User,-,,Study/JOL,BUFFER3,1390,,,-1,-1,,,,1
5be1d0bdc810d500012ad603,442p42ri3e,Nick_Dissertation_EX1,1,180,2020-07-08T15:23:11-07:00,1.6441080570221,3,versionC_stim.csv,READVersionC.csv,"Read Version C","Dissertation, read only version C",FISH,SHRIMP,BUFFER3,Buffer,93,94,Study,User,-,,Study/JOL,BUFFER3,894,,,-1,-1,,,,1
5be1d0bdc810d500012ad603,442p42ri3e,Nick_Dissertation_EX1,1,181,2020-07-08T15:23:13-07:00,2.1240439414978,3,versionC_stim.csv,READVersionC.csv,"Read Version C","Dissertation, read only version C",FAVORITE,BEST,Study2,F,125,154,Study,User,-,,Study/JOL,"Study Phase2",1413,,,-1,-1,,,,1
5be1d0bdc810d500012ad603,442p42ri3e,Nick_Dissertation_EX1,1,182,2020-07-08T15:23:15-07:00,1.7313361167908,3,versionC_stim.csv,READVersionC.csv,"Read Version C","Dissertation, read only version C",LOVE,AFFECTION,Study2,B,115,168,Study,User,-,,Study/JOL,"Study Phase2",1087,,,-1,-1,,,,1
5be1d0bdc810d500012ad603,442p42ri3e,Nick_Dissertation_EX1,1,183,2020-07-08T15:23:17-07:00,2.3773999214172,3,versionC_stim.csv,READVersionC.csv,"Read Version C","Dissertation, read only version C",BREAKABLE,GLASS,Study2,F,127,166,Study,User,-,,Study/JOL,"Study Phase2",1665,,,-1,-1,,,,1
5be1d0bdc810d500012ad603,442p42ri3e,Nick_Dissertation_EX1,1,184,2020-07-08T15:23:19-07:00,1.8578131198883,3,versionC_stim.csv,READVersionC.csv,"Read Version C","Dissertation, read only version C",CLOTHES,CAKE,Study2,U,166,114,Study,User,-,,Study/JOL,"Study Phase2",1101,,,-1,-1,,,,1
5be1d0bdc810d500012ad603,442p42ri3e,Nick_Dissertation_EX1,1,185,2020-07-08T15:23:23-07:00,4.2023279666901,3,versionC_stim.csv,READVersionC.csv,"Read Version C","Dissertation, read only version C",STEAK,GIVE,Study2,U,158,143,Study,User,-,,Study/JOL,"Study Phase2",1238,,,-1,-1,,,,1
5be1d0bdc810d500012ad603,442p42ri3e,Nick_Dissertation_EX1,1,186,2020-07-08T15:23:25-07:00,1.9092919826508,3,versionC_stim.csv,READVersionC.csv,"Read Version C","Dissertation, read only version C",JOKE,KEYS,Study2,U,165,132,Study,User,-,,Study/JOL,"Study Phase2",1191,,,-1,-1,,,,1
5be1d0bdc810d500012ad603,442p42ri3e,Nick_Dissertation_EX1,1,187,2020-07-08T15:23:27-07:00,2.0589869022369,3,versionC_stim.csv,READVersionC.csv,"Read Version C","Dissertation, read only version C",FICTION,LISTEN,Study2,U,164,159,Study,User,-,,Study/JOL,"Study Phase2",1427,,,-1,-1,,,,1
5be1d0bdc810d500012ad603,442p42ri3e,Nick_Dissertation_EX1,1,188,2020-07-08T15:23:29-07:00,1.6993510723114,3,versionC_stim.csv,READVersionC.csv,"Read Version C","Dissertation, read only version C",SHAKE,Shell,Study2,U,163,162,Study,User,-,,Study/JOL,"Study Phase2",1102,,,-1,-1,,,,1
5be1d0bdc810d500012ad603,442p42ri3e,Nick_Dissertation_EX1,1,189,2020-07-08T15:23:32-07:00,3.479740858078,3,versionC_stim.csv,READVersionC.csv,"Read Version C","Dissertation, read only version C",ELECTION,MAZE,Study2,U,159,172,Study,User,-,,Study/JOL,"Study Phase2",2753,,,-1,-1,,,,1
5be1d0bdc810d500012ad603,442p42ri3e,Nick_Dissertation_EX1,1,190,2020-07-08T15:23:35-07:00,2.5124561786652,3,versionC_stim.csv,READVersionC.csv,"Read Version C","Dissertation, read only version C",MYSTERY,DETECTIVE,Study2,B,100,148,Study,User,-,,Study/JOL,"Study Phase2",1792,,,-1,-1,,,,1
5be1d0bdc810d500012ad603,442p42ri3e,Nick_Dissertation_EX1,1,191,2020-07-08T15:23:37-07:00,2.3160119056702,3,versionC_stim.csv,READVersionC.csv,"Read Version C","Dissertation, read only version C",LONELY,ALONE,Study2,S,145,131,Study,User,-,,Study/JOL,"Study Phase2",1541,,,-1,-1,,,,1
5be1d0bdc810d500012ad603,442p42ri3e,Nick_Dissertation_EX1,1,192,2020-07-08T15:23:39-07:00,1.9421300888062,3,versionC_stim.csv,READVersionC.csv,"Read Version C","Dissertation, read only version C",PAPER,DOCUMENT,Study2,B,109,170,Study,User,-,,Study/JOL,"Study Phase2",1213,,,-1,-1,,,,1
5be1d0bdc810d500012ad603,442p42ri3e,Nick_Dissertation_EX1,1,193,2020-07-08T15:23:41-07:00,1.6516509056091,3,versionC_stim.csv,READVersionC.csv,"Read Version C","Dissertation, read only version C",HAVE,OWN,Study2,S,153,107,Study,User,-,,Study/JOL,"Study Phase2",957,,,-1,-1,,,,1
5be1d0bdc810d500012ad603,442p42ri3e,Nick_Dissertation_EX1,1,194,2020-07-08T15:23:44-07:00,3.5189960002899,3,versionC_stim.csv,READVersionC.csv,"Read Version C","Dissertation, read only version C",TAN,SUN,Study2,S,155,156,Study,User,-,,Study/JOL,"Study Phase2",1138,,,-1,-1,,,,1
5be1d0bdc810d500012ad603,442p42ri3e,Nick_Dissertation_EX1,1,195,2020-07-08T15:23:46-07:00,1.7397940158844,3,versionC_stim.csv,READVersionC.csv,"Read Version C","Dissertation, read only version C",CLOTH,STRETCH,Study2,U,157,160,Study,User,-,,Study/JOL,"Study Phase2",1019,,,-1,-1,,,,1
5be1d0bdc810d500012ad603,442p42ri3e,Nick_Dissertation_EX1,1,196,2020-07-08T15:23:48-07:00,1.6112430095673,3,versionC_stim.csv,READVersionC.csv,"Read Version C","Dissertation, read only version C",CAR,DRIVER,Study2,B,106,113,Study,User,-,,Study/JOL,"Study Phase2",897,,,-1,-1,,,,1
5be1d0bdc810d500012ad603,442p42ri3e,Nick_Dissertation_EX1,1,197,2020-07-08T15:23:50-07:00,1.8037750720978,3,versionC_stim.csv,READVersionC.csv,"Read Version C","Dissertation, read only version C",GAME,CLUE,Study2,B,97,136,Study,User,-,,Study/JOL,"Study Phase2",1100,,,-1,-1,,,,1
5be1d0bdc810d500012ad603,442p42ri3e,Nick_Dissertation_EX1,1,198,2020-07-08T15:23:51-07:00,1.6408228874207,3,versionC_stim.csv,READVersionC.csv,"Read Version C","Dissertation, read only version C",BRACELET,WRIST,Study2,S,140,174,Study,User,-,,Study/JOL,"Study Phase2",918,,,-1,-1,,,,1
5be1d0bdc810d500012ad603,442p42ri3e,Nick_Dissertation_EX1,1,199,2020-07-08T15:23:53-07:00,1.5638899803162,3,versionC_stim.csv,READVersionC.csv,"Read Version C","Dissertation, read only version C",PLANT,CACTUS,Study2,B,98,115,Study,User,-,,Study/JOL,"Study Phase2",839,,,-1,-1,,,,1
5be1d0bdc810d500012ad603,442p42ri3e,Nick_Dissertation_EX1,1,200,2020-07-08T15:23:54-07:00,1.4537889957428,3,versionC_stim.csv,READVersionC.csv,"Read Version C","Dissertation, read only version C",EQUAL,RIGHTS,Study2,S,137,133,Study,User,-,,Study/JOL,"Study Phase2",840,,,-1,-1,,,,1
5be1d0bdc810d500012ad603,442p42ri3e,Nick_Dissertation_EX1,1,201,2020-07-08T15:23:57-07:00,2.7760100364685,3,versionC_stim.csv,READVersionC.csv,"Read Version C","Dissertation, read only version C",HATE,NAME,Study2,U,167,163,Study,User,-,,Study/JOL,"Study Phase2",1048,,,-1,-1,,,,1
5be1d0bdc810d500012ad603,442p42ri3e,Nick_Dissertation_EX1,1,202,2020-07-08T15:23:59-07:00,2.063404083252,3,versionC_stim.csv,READVersionC.csv,"Read Version C","Dissertation, read only version C",END,ADJOURN,Study2,B,101,139,Study,User,-,,Study/JOL,"Study Phase2",1130,,,-1,-1,,,,1
5be1d0bdc810d500012ad603,442p42ri3e,Nick_Dissertation_EX1,1,203,2020-07-08T15:24:01-07:00,1.747946023941,3,versionC_stim.csv,READVersionC.csv,"Read Version C","Dissertation, read only version C",LEAGUE,BASEBALL,Study2,F,131,121,Study,User,-,,Study/JOL,"Study Phase2",1027,,,-1,-1,,,,1
5be1d0bdc810d500012ad603,442p42ri3e,Nick_Dissertation_EX1,1,204,2020-07-08T15:24:03-07:00,1.8111448287964,3,versionC_stim.csv,READVersionC.csv,"Read Version C","Dissertation, read only version C",BANKER,MONEY,Study2,F,132,122,Study,User,-,,Study/JOL,"Study Phase2",1105,,,-1,-1,,,,1
5be1d0bdc810d500012ad603,442p42ri3e,Nick_Dissertation_EX1,1,205,2020-07-08T15:24:04-07:00,1.709645986557,3,versionC_stim.csv,READVersionC.csv,"Read Version C","Dissertation, read only version C",LIE,TRUTH,Study2,S,148,99,Study,User,-,,Study/JOL,"Study Phase2",956,,,-1,-1,,,,1
5be1d0bdc810d500012ad603,442p42ri3e,Nick_Dissertation_EX1,1,206,2020-07-08T15:24:06-07:00,1.7056741714478,3,versionC_stim.csv,READVersionC.csv,"Read Version C","Dissertation, read only version C",SHAVE,RAZOR,Study2,S,136,120,Study,User,-,,Study/JOL,"Study Phase2",991,,,-1,-1,,,,1
5be1d0bdc810d500012ad603,442p42ri3e,Nick_Dissertation_EX1,1,207,2020-07-08T15:24:08-07:00,1.633318901062,3,versionC_stim.csv,READVersionC.csv,"Read Version C","Dissertation, read only version C",SEATBELT,SAFETY,Study2,S,147,123,Study,User,-,,Study/JOL,"Study Phase2",1005,,,-1,-1,,,,1
5be1d0bdc810d500012ad603,442p42ri3e,Nick_Dissertation_EX1,1,208,2020-07-08T15:24:10-07:00,1.8969399929047,3,versionC_stim.csv,READVersionC.csv,"Read Version C","Dissertation, read only version C",FLIP,TURN,Study2,F,116,127,Study,User,-,,Study/JOL,"Study Phase2",1174,,,-1,-1,,,,1
5be1d0bdc810d500012ad603,442p42ri3e,Nick_Dissertation_EX1,1,209,2020-07-08T15:24:11-07:00,1.5414321422577,3,versionC_stim.csv,READVersionC.csv,"Read Version C","Dissertation, read only version C",WAX,CANDLE,Study2,S,139,173,Study,User,-,,Study/JOL,"Study Phase2",911,,,-1,-1,,,,1
5be1d0bdc810d500012ad603,442p42ri3e,Nick_Dissertation_EX1,1,210,2020-07-08T15:24:17-07:00,5.6575348377228,3,versionC_stim.csv,READVersionC.csv,"Read Version C","Dissertation, read only version C",COMMUNICATION,PHONE,Study2,S,149,129,Study,User,-,,Study/JOL,"Study Phase2",1981,,,-1,-1,,,,1
5be1d0bdc810d500012ad603,442p42ri3e,Nick_Dissertation_EX1,1,211,2020-07-08T15:24:19-07:00,2.0654890537262,3,versionC_stim.csv,READVersionC.csv,"Read Version C","Dissertation, read only version C",EAT,DINE,Study2,B,111,158,Study,User,-,,Study/JOL,"Study Phase2",1352,,,-1,-1,,,,1
5be1d0bdc810d500012ad603,442p42ri3e,Nick_Dissertation_EX1,1,212,2020-07-08T15:24:21-07:00,2.2120969295502,3,versionC_stim.csv,READVersionC.csv,"Read Version C","Dissertation, read only version C",TIE,SHOELACE,Study2,B,99,146,Study,User,-,,Study/JOL,"Study Phase2",1483,,,-1,-1,,,,1
5be1d0bdc810d500012ad603,442p42ri3e,Nick_Dissertation_EX1,1,213,2020-07-08T15:24:23-07:00,1.9607400894165,3,versionC_stim.csv,READVersionC.csv,"Read Version C","Dissertation, read only version C",BALLOON,POP,Study2,F,123,119,Study,User,-,,Study/JOL,"Study Phase2",1139,,,-1,-1,,,,1
5be1d0bdc810d500012ad603,442p42ri3e,Nick_Dissertation_EX1,1,214,2020-07-08T15:24:25-07:00,1.9267580509186,3,versionC_stim.csv,READVersionC.csv,"Read Version C","Dissertation, read only version C",TOIL,LEASE,Study2,U,170,157,Study,User,-,,Study/JOL,"Study Phase2",1307,,,-1,-1,,,,1
5be1d0bdc810d500012ad603,442p42ri3e,Nick_Dissertation_EX1,1,215,2020-07-08T15:24:27-07:00,1.678416967392,3,versionC_stim.csv,READVersionC.csv,"Read Version C","Dissertation, read only version C",THIMBLE,THREAD,Study2,F,121,106,Study,User,-,,Study/JOL,"Study Phase2",959,,,-1,-1,,,,1
5be1d0bdc810d500012ad603,442p42ri3e,Nick_Dissertation_EX1,1,216,2020-07-08T15:24:28-07:00,1.7818078994751,3,versionC_stim.csv,READVersionC.csv,"Read Version C","Dissertation, read only version C",WET,DRY,Study2,S,146,125,Study,User,-,,Study/JOL,"Study Phase2",1069,,,-1,-1,,,,1
5be1d0bdc810d500012ad603,442p42ri3e,Nick_Dissertation_EX1,1,217,2020-07-08T15:24:30-07:00,1.8380739688873,3,versionC_stim.csv,READVersionC.csv,"Read Version C","Dissertation, read only version C",LONG,EXTENSION,Study2,B,96,117,Study,User,-,,Study/JOL,"Study Phase2",1068,,,-1,-1,,,,1
5be1d0bdc810d500012ad603,442p42ri3e,Nick_Dissertation_EX1,1,218,2020-07-08T15:24:32-07:00,1.8736760616302,3,versionC_stim.csv,READVersionC.csv,"Read Version C","Dissertation, read only version C",SCAR,MAIN,Study2,U,175,135,Study,User,-,,Study/JOL,"Study Phase2",1249,,,-1,-1,,,,1
5be1d0bdc810d500012ad603,442p42ri3e,Nick_Dissertation_EX1,1,219,2020-07-08T15:24:34-07:00,1.8683919906616,3,versionC_stim.csv,READVersionC.csv,"Read Version C","Dissertation, read only version C",SIGN,LOAN,Study2,U,171,149,Study,User,-,,Study/JOL,"Study Phase2",859,,,-1,-1,,,,1
5be1d0bdc810d500012ad603,442p42ri3e,Nick_Dissertation_EX1,1,220,2020-07-08T15:24:36-07:00,1.7966270446777,3,versionC_stim.csv,READVersionC.csv,"Read Version C","Dissertation, read only version C",WINDSHIELD,CAR,Study2,F,117,116,Study,User,-,,Study/JOL,"Study Phase2",783,,,-1,-1,,,,1
5be1d0bdc810d500012ad603,442p42ri3e,Nick_Dissertation_EX1,1,221,2020-07-08T15:24:37-07:00,1.7556719779968,3,versionC_stim.csv,READVersionC.csv,"Read Version C","Dissertation, read only version C",HEAD,SCALP,Study2,B,105,104,Study,User,-,,Study/JOL,"Study Phase2",1020,,,-1,-1,,,,1
5be1d0bdc810d500012ad603,442p42ri3e,Nick_Dissertation_EX1,1,222,2020-07-08T15:24:40-07:00,2.8073959350586,3,versionC_stim.csv,READVersionC.csv,"Read Version C","Dissertation, read only version C",Morning,TEMPERATURE,Study2,U,173,124,Study,User,-,,Study/JOL,"Study Phase2",1192,,,-1,-1,,,,1
5be1d0bdc810d500012ad603,442p42ri3e,Nick_Dissertation_EX1,1,223,2020-07-08T15:24:42-07:00,1.6844701766968,3,versionC_stim.csv,READVersionC.csv,"Read Version C","Dissertation, read only version C",VILLAIN,BAD,Study2,F,118,137,Study,User,-,,Study/JOL,"Study Phase2",852,,,-1,-1,,,,1
5be1d0bdc810d500012ad603,442p42ri3e,Nick_Dissertation_EX1,1,224,2020-07-08T15:24:44-07:00,1.6294479370117,3,versionC_stim.csv,READVersionC.csv,"Read Version C","Dissertation, read only version C",TEMPER,TANTRUM,Study2,S,154,118,Study,User,-,,Study/JOL,"Study Phase2",887,,,-1,-1,,,,1
5be1d0bdc810d500012ad603,442p42ri3e,Nick_Dissertation_EX1,1,225,2020-07-08T15:24:46-07:00,1.8983218669891,3,versionC_stim.csv,READVersionC.csv,"Read Version C","Dissertation, read only version C",TICK,FLEA,Study2,S,151,138,Study,User,-,,Study/JOL,"Study Phase2",1155,,,-1,-1,,,,1
5be1d0bdc810d500012ad603,442p42ri3e,Nick_Dissertation_EX1,1,226,2020-07-08T15:24:47-07:00,1.6387760639191,3,versionC_stim.csv,READVersionC.csv,"Read Version C","Dissertation, read only version C",JAR,MASON,Study2,S,138,111,Study,User,-,,Study/JOL,"Study Phase2",934,,,-1,-1,,,,1
5be1d0bdc810d500012ad603,442p42ri3e,Nick_Dissertation_EX1,1,227,2020-07-08T15:24:49-07:00,1.9610929489136,3,versionC_stim.csv,READVersionC.csv,"Read Version C","Dissertation, read only version C",CARBON,ELEMENT,Study2,S,141,112,Study,User,-,,Study/JOL,"Study Phase2",1257,,,-1,-1,,,,1
5be1d0bdc810d500012ad603,442p42ri3e,Nick_Dissertation_EX1,1,228,2020-07-08T15:24:51-07:00,1.8053162097931,3,versionC_stim.csv,READVersionC.csv,"Read Version C","Dissertation, read only version C",BANG,FUZZY,Study2,U,168,155,Study,User,-,,Study/JOL,"Study Phase2",1087,,,-1,-1,,,,1
5be1d0bdc810d500012ad603,442p42ri3e,Nick_Dissertation_EX1,1,229,2020-07-08T15:24:53-07:00,1.6426639556885,3,versionC_stim.csv,READVersionC.csv,"Read Version C","Dissertation, read only version C",PENGUIN,BIRD,Study2,F,119,176,Study,User,-,,Study/JOL,"Study Phase2",918,,,-1,-1,,,,1
5be1d0bdc810d500012ad603,442p42ri3e,Nick_Dissertation_EX1,1,230,2020-07-08T15:24:54-07:00,1.6254730224609,3,versionC_stim.csv,READVersionC.csv,"Read Version C","Dissertation, read only version C",GROUND,EARTH,Study2,S,144,128,Study,User,-,,Study/JOL,"Study Phase2",925,,,-1,-1,,,,1
5be1d0bdc810d500012ad603,442p42ri3e,Nick_Dissertation_EX1,1,231,2020-07-08T15:24:56-07:00,1.631915807724,3,versionC_stim.csv,READVersionC.csv,"Read Version C","Dissertation, read only version C",RED,CHERRY,Study2,B,104,103,Study,User,-,,Study/JOL,"Study Phase2",899,,,-1,-1,,,,1
5be1d0bdc810d500012ad603,442p42ri3e,Nick_Dissertation_EX1,1,232,2020-07-08T15:24:57-07:00,1.6370270252228,3,versionC_stim.csv,READVersionC.csv,"Read Version C","Dissertation, read only version C",FIGHT,FEUD,Study2,B,113,175,Study,User,-,,Study/JOL,"Study Phase2",935,,,-1,-1,,,,1
5be1d0bdc810d500012ad603,442p42ri3e,Nick_Dissertation_EX1,1,233,2020-07-08T15:24:59-07:00,1.8697290420532,3,versionC_stim.csv,READVersionC.csv,"Read Version C","Dissertation, read only version C",DRINK,WATER,Study2,S,143,171,Study,User,-,,Study/JOL,"Study Phase2",1157,,,-1,-1,,,,1
5be1d0bdc810d500012ad603,442p42ri3e,Nick_Dissertation_EX1,1,234,2020-07-08T15:25:01-07:00,1.7926759719849,3,versionC_stim.csv,READVersionC.csv,"Read Version C","Dissertation, read only version C",CLEAR,MOAT,Study2,U,169,109,Study,User,-,,Study/JOL,"Study Phase2",1061,,,-1,-1,,,,1
5be1d0bdc810d500012ad603,442p42ri3e,Nick_Dissertation_EX1,1,235,2020-07-08T15:25:03-07:00,1.8505611419678,3,versionC_stim.csv,READVersionC.csv,"Read Version C","Dissertation, read only version C",CUT,CHOP,Study2,B,107,97,Study,User,-,,Study/JOL,"Study Phase2",796,,,-1,-1,,,,1
5be1d0bdc810d500012ad603,442p42ri3e,Nick_Dissertation_EX1,1,236,2020-07-08T15:25:05-07:00,1.6271820068359,3,versionC_stim.csv,READVersionC.csv,"Read Version C","Dissertation, read only version C",REEL,ROD,Study2,S,150,142,Study,User,-,,Study/JOL,"Study Phase2",903,,,-1,-1,,,,1
5be1d0bdc810d500012ad603,442p42ri3e,Nick_Dissertation_EX1,1,237,2020-07-08T15:25:06-07:00,1.6880438327789,3,versionC_stim.csv,READVersionC.csv,"Read Version C","Dissertation, read only version C",COLD,CHILL,Study2,B,114,145,Study,User,-,,Study/JOL,"Study Phase2",907,,,-1,-1,,,,1
5be1d0bdc810d500012ad603,442p42ri3e,Nick_Dissertation_EX1,1,238,2020-07-08T15:25:08-07:00,1.6935660839081,3,versionC_stim.csv,READVersionC.csv,"Read Version C","Dissertation, read only version C",AWAY,GONE,Study2,S,142,110,Study,User,-,,Study/JOL,"Study Phase2",972,,,-1,-1,,,,1
5be1d0bdc810d500012ad603,442p42ri3e,Nick_Dissertation_EX1,1,239,2020-07-08T15:25:10-07:00,1.9103739261627,3,versionC_stim.csv,READVersionC.csv,"Read Version C","Dissertation, read only version C",COFFIN,DEAD,Study2,F,128,98,Study,User,-,,Study/JOL,"Study Phase2",982,,,-1,-1,,,,1
5be1d0bdc810d500012ad603,442p42ri3e,Nick_Dissertation_EX1,1,240,2020-07-08T15:25:11-07:00,1.6146471500397,3,versionC_stim.csv,READVersionC.csv,"Read Version C","Dissertation, read only version C",ACTRESS,STAR,Study2,F,120,100,Study,User,-,,Study/JOL,"Study Phase2",858,,,-1,-1,,,,1
5be1d0bdc810d500012ad603,442p42ri3e,Nick_Dissertation_EX1,1,241,2020-07-08T15:25:13-07:00,1.7920160293579,3,versionC_stim.csv,READVersionC.csv,"Read Version C","Dissertation, read only version C",SARDINE,FISH,Study2,F,130,101,Study,User,-,,Study/JOL,"Study Phase2",1079,,,-1,-1,,,,1
5be1d0bdc810d500012ad603,442p42ri3e,Nick_Dissertation_EX1,1,242,2020-07-08T15:25:15-07:00,1.8442778587341,3,versionC_stim.csv,READVersionC.csv,"Read Version C","Dissertation, read only version C",PANTHER,CAT,Study2,F,126,165,Study,User,-,,Study/JOL,"Study Phase2",1143,,,-1,-1,,,,1
5be1d0bdc810d500012ad603,442p42ri3e,Nick_Dissertation_EX1,1,243,2020-07-08T15:25:17-07:00,1.7412860393524,3,versionC_stim.csv,READVersionC.csv,"Read Version C","Dissertation, read only version C",DONKEY,MULE,Study2,B,108,140,Study,User,-,,Study/JOL,"Study Phase2",996,,,-1,-1,,,,1
5be1d0bdc810d500012ad603,442p42ri3e,Nick_Dissertation_EX1,1,244,2020-07-08T15:25:19-07:00,1.8904669284821,3,versionC_stim.csv,READVersionC.csv,"Read Version C","Dissertation, read only version C",BRAWL,FIGHT,Study2,F,135,153,Study,User,-,,Study/JOL,"Study Phase2",1172,,,-1,-1,,,,1
5be1d0bdc810d500012ad603,442p42ri3e,Nick_Dissertation_EX1,1,245,2020-07-08T15:25:21-07:00,1.883031129837,3,versionC_stim.csv,READVersionC.csv,"Read Version C","Dissertation, read only version C",OBTAIN,MEAT,Study2,U,161,167,Study,User,-,,Study/JOL,"Study Phase2",1191,,,-1,-1,,,,1
5be1d0bdc810d500012ad603,442p42ri3e,Nick_Dissertation_EX1,1,246,2020-07-08T15:25:22-07:00,1.7254838943481,3,versionC_stim.csv,READVersionC.csv,"Read Version C","Dissertation, read only version C",SCISSORS,SHEARS,Study2,B,112,161,Study,User,-,,Study/JOL,"Study Phase2",1098,,,-1,-1,,,,1
5be1d0bdc810d500012ad603,442p42ri3e,Nick_Dissertation_EX1,1,247,2020-07-08T15:25:26-07:00,3.4242470264435,3,versionC_stim.csv,READVersionC.csv,"Read Version C","Dissertation, read only version C",SMELL,INCENSE,Study2,B,110,130,Study,User,-,,Study/JOL,"Study Phase2",2696,,,-1,-1,,,,1
5be1d0bdc810d500012ad603,442p42ri3e,Nick_Dissertation_EX1,1,248,2020-07-08T15:25:28-07:00,1.7386360168457,3,versionC_stim.csv,READVersionC.csv,"Read Version C","Dissertation, read only version C",NAP,SLEEP,Study2,F,134,102,Study,User,-,,Study/JOL,"Study Phase2",1002,,,-1,-1,,,,1
5be1d0bdc810d500012ad603,442p42ri3e,Nick_Dissertation_EX1,1,249,2020-07-08T15:25:29-07:00,1.6947770118713,3,versionC_stim.csv,READVersionC.csv,"Read Version C","Dissertation, read only version C",MAROON,JUSTICE,Study2,U,156,105,Study,User,-,,Study/JOL,"Study Phase2",939,,,-1,-1,,,,1
5be1d0bdc810d500012ad603,442p42ri3e,Nick_Dissertation_EX1,1,250,2020-07-08T15:25:31-07:00,1.560112953186,3,versionC_stim.csv,READVersionC.csv,"Read Version C","Dissertation, read only version C",CHILDREN,MIRROR,Study2,U,174,141,Study,User,-,,Study/JOL,"Study Phase2",854,,,-1,-1,,,,1
5be1d0bdc810d500012ad603,442p42ri3e,Nick_Dissertation_EX1,1,251,2020-07-08T15:25:33-07:00,1.7283070087433,3,versionC_stim.csv,READVersionC.csv,"Read Version C","Dissertation, read only version C",TRUTHFUL,HONEST,Study2,F,133,134,Study,User,-,,Study/JOL,"Study Phase2",911,,,-1,-1,,,,1
5be1d0bdc810d500012ad603,442p42ri3e,Nick_Dissertation_EX1,1,252,2020-07-08T15:25:34-07:00,1.8712730407715,3,versionC_stim.csv,READVersionC.csv,"Read Version C","Dissertation, read only version C",CHARM,VEHICLE,Study2,U,160,147,Study,User,-,,Study/JOL,"Study Phase2",1156,,,-1,-1,,,,1
5be1d0bdc810d500012ad603,442p42ri3e,Nick_Dissertation_EX1,1,253,2020-07-08T15:25:36-07:00,1.78892993927,3,versionC_stim.csv,READVersionC.csv,"Read Version C","Dissertation, read only version C",STRAWBERRY,FRUIT,Study2,F,124,150,Study,User,-,,Study/JOL,"Study Phase2",1053,,,-1,-1,,,,1
5be1d0bdc810d500012ad603,442p42ri3e,Nick_Dissertation_EX1,1,254,2020-07-08T15:25:38-07:00,1.5924611091614,3,versionC_stim.csv,READVersionC.csv,"Read Version C","Dissertation, read only version C",REVENGE,EVEN,Study2,F,122,144,Study,User,-,,Study/JOL,"Study Phase2",869,,,-1,-1,,,,1
5be1d0bdc810d500012ad603,442p42ri3e,Nick_Dissertation_EX1,1,255,2020-07-08T15:25:39-07:00,1.6321430206299,3,versionC_stim.csv,READVersionC.csv,"Read Version C","Dissertation, read only version C",AIRCRAFT,PLANE,Study2,F,129,108,Study,User,-,,Study/JOL,"Study Phase2",913,,,-1,-1,,,,1
5be1d0bdc810d500012ad603,442p42ri3e,Nick_Dissertation_EX1,1,256,2020-07-08T15:25:41-07:00,1.7619528770447,3,versionC_stim.csv,READVersionC.csv,"Read Version C","Dissertation, read only version C",TRASH,LITTER,Study2,B,103,164,Study,User,-,,Study/JOL,"Study Phase2",1024,,,-1,-1,,,,1
5be1d0bdc810d500012ad603,442p42ri3e,Nick_Dissertation_EX1,1,257,2020-07-08T15:25:43-07:00,1.7800390720367,3,versionC_stim.csv,READVersionC.csv,"Read Version C","Dissertation, read only version C",OUNCE,BOTH,Study2,U,172,151,Study,User,-,,Study/JOL,"Study Phase2",1136,,,-1,-1,,,,1
5be1d0bdc810d500012ad603,442p42ri3e,Nick_Dissertation_EX1,1,258,2020-07-08T15:25:47-07:00,4.0859649181366,3,versionC_stim.csv,READVersionC.csv,"Read Version C","Dissertation, read only version C",DOG,FURRY,Study2,B,102,152,Study,User,-,,Study/JOL,"Study Phase2",3448,,,-1,-1,,,,1
5be1d0bdc810d500012ad603,442p42ri3e,Nick_Dissertation_EX1,1,259,2020-07-08T15:25:49-07:00,1.8460991382599,3,versionC_stim.csv,READVersionC.csv,"Read Version C","Dissertation, read only version C",NOISE,LOUD,Study2,S,152,169,Study,User,-,,Study/JOL,"Study Phase2",1174,,,-1,-1,,,,1
5be1d0bdc810d500012ad603,442p42ri3e,Nick_Dissertation_EX1,1,260,2020-07-08T15:25:51-07:00,1.7942478656769,3,versionC_stim.csv,READVersionC.csv,"Read Version C","Dissertation, read only version C",ABLE,CRACKLE,Study2,U,162,126,Study,User,-,,Study/JOL,"Study Phase2",1040,,,-1,-1,,,,1
5be1d0bdc810d500012ad603,442p42ri3e,Nick_Dissertation_EX1,1,261,2020-07-08T15:25:52-07:00,1.5592150688171,3,versionC_stim.csv,READVersionC.csv,"Read Version C","Dissertation, read only version C",SHED,TOOL,BUFFER4,Buffer,178,177,Study,User,-,,Study/JOL,BUFFER4,849,,,-1,-1,,,,1
5be1d0bdc810d500012ad603,442p42ri3e,Nick_Dissertation_EX1,1,262,2020-07-08T15:25:54-07:00,1.8284990787506,3,versionC_stim.csv,READVersionC.csv,"Read Version C","Dissertation, read only version C",MARCH,SPRING,BUFFER4,Buffer,179,180,Study,User,-,,Study/JOL,BUFFER4,1080,,,-1,-1,,,,1
5be1d0bdc810d500012ad603,442p42ri3e,Nick_Dissertation_EX1,1,263,2020-07-08T15:25:56-07:00,1.7728269100189,3,versionC_stim.csv,READVersionC.csv,"Read Version C","Dissertation, read only version C",SPOOKY,OCTOBER,BUFFER4,Buffer,180,178,Study,User,-,,Study/JOL,BUFFER4,1030,,,-1,-1,,,,1
5be1d0bdc810d500012ad603,442p42ri3e,Nick_Dissertation_EX1,1,264,2020-07-08T15:25:58-07:00,1.9270329475403,3,versionC_stim.csv,READVersionC.csv,"Read Version C","Dissertation, read only version C",YEAR,MONTH,BUFFER4,Buffer,177,181,Study,User,-,,Study/JOL,BUFFER4,1202,,,-1,-1,,,,1
5be1d0bdc810d500012ad603,442p42ri3e,Nick_Dissertation_EX1,1,265,2020-07-08T15:26:00-07:00,1.7434389591217,3,versionC_stim.csv,READVersionC.csv,"Read Version C","Dissertation, read only version C",WEAKS,DAYS,BUFFER4,Buffer,176,179,Study,User,-,,Study/JOL,BUFFER4,1098,,,-1,-1,,,,1
5be1d0bdc810d500012ad603,442p42ri3e,Nick_Dissertation_EX1,1,266,2020-07-08T15:26:03-07:00,3.0194911956787,3,versionC_stim.csv,READVersionC.csv,"Read Version C","Dissertation, read only version C",,,,,,0,Instruct,User,-,"You have completed this section. Please press Enter.",Filler_Instruction,Instruct5,2307,,,-1,-1,,,,1
5be1d0bdc810d500012ad603,442p42ri3e,Nick_Dissertation_EX1,1,267,2020-07-08T15:28:03-07:00,120.84205794334,3,versionC_stim.csv,READVersionC.csv,"Read Version C","Dissertation, read only version C",,,,,,0,FreeRecall,120,120,"Please list the 50 US states in reverse alphabetical order (z - a). The task will automatically advance to the next screen after two minutes.",,Filler2,120011,"Washington Texas Miami Dallas ",0,-1,-1,0,0,,1
5be1d0bdc810d500012ad603,442p42ri3e,Nick_Dissertation_EX1,1,268,2020-07-08T15:28:15-07:00,11.778063058853,3,versionC_stim.csv,READVersionC.csv,"Read Version C","Dissertation, read only version C",,,,,,0,Instruct,-,10,"You will now be presented with the first word from each of the previously studied item pairs. Please type the missing word. If you do not know the word, you may guess or press Enter to skip forward to the next pair.",,Instruct6,10977,,,-1,-1,,,,1
5be1d0bdc810d500012ad603,442p42ri3e,Nick_Dissertation_EX1,1,269,2020-07-08T15:28:17-07:00,2.3044128417969,3,versionC_stim.csv,READVersionC.csv,"Read Version C","Dissertation, read only version C",CLOTH,STRETCH,Study2,U,157,160,Test,User,-,,Recall,Recall2,1593,,0,-1,-1,0,0,,1
5be1d0bdc810d500012ad603,442p42ri3e,Nick_Dissertation_EX1,1,270,2020-07-08T15:28:20-07:00,2.0623979568481,3,versionC_stim.csv,READVersionC.csv,"Read Version C","Dissertation, read only version C",OUNCE,BOTH,Study2,U,172,151,Test,User,-,,Recall,Recall2,1439,,0,-1,-1,0,0,,1
5be1d0bdc810d500012ad603,442p42ri3e,Nick_Dissertation_EX1,1,271,2020-07-08T15:28:22-07:00,2.1000230312347,3,versionC_stim.csv,READVersionC.csv,"Read Version C","Dissertation, read only version C",FLIP,TURN,Study2,F,116,127,Test,User,-,,Recall,Recall2,1386,,0,-1,-1,0,0,,1
5be1d0bdc810d500012ad603,442p42ri3e,Nick_Dissertation_EX1,1,272,2020-07-08T15:28:26-07:00,4.6466820240021,3,versionC_stim.csv,READVersionC.csv,"Read Version C","Dissertation, read only version C",TRASH,LITTER,Study2,B,103,164,Test,User,-,,Recall,Recall2,3973,Bin,22.222222222222,-1,-1,0,0,,1
5be1d0bdc810d500012ad603,442p42ri3e,Nick_Dissertation_EX1,1,273,2020-07-08T15:28:31-07:00,5.2019109725952,3,versionC_stim.csv,READVersionC.csv,"Read Version C","Dissertation, read only version C",Morning,TEMPERATURE,Study2,U,173,124,Test,User,-,,Recall,Recall2,4425,,0,-1,-1,0,0,,1
5be1d0bdc810d500012ad603,442p42ri3e,Nick_Dissertation_EX1,1,274,2020-07-08T15:28:37-07:00,5.1510901451111,3,versionC_stim.csv,READVersionC.csv,"Read Version C","Dissertation, read only version C",BRAWL,FIGHT,Study2,F,135,153,Test,User,-,,Recall,Recall2,4388,Fight,100,-1,-1,1,1,,1
5be1d0bdc810d500012ad603,442p42ri3e,Nick_Dissertation_EX1,1,275,2020-07-08T15:28:39-07:00,2.2027089595795,3,versionC_stim.csv,READVersionC.csv,"Read Version C","Dissertation, read only version C",SCAR,MAIN,Study2,U,175,135,Test,User,-,,Recall,Recall2,1572,,0,-1,-1,0,0,,1
5be1d0bdc810d500012ad603,442p42ri3e,Nick_Dissertation_EX1,1,276,2020-07-08T15:28:45-07:00,5.8502440452576,3,versionC_stim.csv,READVersionC.csv,"Read Version C","Dissertation, read only version C",MAROON,JUSTICE,Study2,U,156,105,Test,User,-,,Recall,Recall2,5088,,0,-1,-1,0,0,,1
5be1d0bdc810d500012ad603,442p42ri3e,Nick_Dissertation_EX1,1,277,2020-07-08T15:28:50-07:00,5.2752017974854,3,versionC_stim.csv,READVersionC.csv,"Read Version C","Dissertation, read only version C",CHARM,VEHICLE,Study2,U,160,147,Test,User,-,,Recall,Recall2,4624,,0,-1,-1,0,0,,1
5be1d0bdc810d500012ad603,442p42ri3e,Nick_Dissertation_EX1,1,278,2020-07-08T15:28:58-07:00,8.4640231132507,3,versionC_stim.csv,READVersionC.csv,"Read Version C","Dissertation, read only version C",CHILDREN,MIRROR,Study2,U,174,141,Test,User,-,,Recall,Recall2,5330,Kid,22.222222222222,-1,-1,0,0,,1
5be1d0bdc810d500012ad603,442p42ri3e,Nick_Dissertation_EX1,1,279,2020-07-08T15:29:10-07:00,11.582710027695,3,versionC_stim.csv,READVersionC.csv,"Read Version C","Dissertation, read only version C",JOKE,KEYS,Study2,U,165,132,Test,User,-,,Recall,Recall2,10804,Funny,22.222222222222,-1,-1,0,0,,1
5be1d0bdc810d500012ad603,442p42ri3e,Nick_Dissertation_EX1,1,280,2020-07-08T15:29:14-07:00,4.1887390613556,3,versionC_stim.csv,READVersionC.csv,"Read Version C","Dissertation, read only version C",BREAKABLE,GLASS,Study2,F,127,166,Test,User,-,,Recall,Recall2,2128,,0,-1,-1,0,0,,1
5be1d0bdc810d500012ad603,442p42ri3e,Nick_Dissertation_EX1,1,281,2020-07-08T15:29:23-07:00,8.3963959217072,3,versionC_stim.csv,READVersionC.csv,"Read Version C","Dissertation, read only version C",EAT,DINE,Study2,B,111,158,Test,User,-,,Recall,Recall2,7646,Hunger,40,-1,-1,0,0,,1
5be1d0bdc810d500012ad603,442p42ri3e,Nick_Dissertation_EX1,1,282,2020-07-08T15:29:29-07:00,6.185045003891,3,versionC_stim.csv,READVersionC.csv,"Read Version C","Dissertation, read only version C",CARBON,ELEMENT,Study2,S,141,112,Test,User,-,,Recall,Recall2,3914,,0,-1,-1,0,0,,1
5be1d0bdc810d500012ad603,442p42ri3e,Nick_Dissertation_EX1,1,283,2020-07-08T15:29:31-07:00,2.3893210887909,3,versionC_stim.csv,READVersionC.csv,"Read Version C","Dissertation, read only version C",DONKEY,MULE,Study2,B,108,140,Test,User,-,,Recall,Recall2,1671,,0,-1,-1,0,0,,1
5be1d0bdc810d500012ad603,442p42ri3e,Nick_Dissertation_EX1,1,284,2020-07-08T15:29:34-07:00,2.4672358036041,3,versionC_stim.csv,READVersionC.csv,"Read Version C","Dissertation, read only version C",GROUND,EARTH,Study2,S,144,128,Test,User,-,,Recall,Recall2,1708,,0,-1,-1,0,0,,1
5be1d0bdc810d500012ad603,442p42ri3e,Nick_Dissertation_EX1,1,285,2020-07-08T15:29:38-07:00,4.4868891239166,3,versionC_stim.csv,READVersionC.csv,"Read Version C","Dissertation, read only version C",BALLOON,POP,Study2,F,123,119,Test,User,-,,Recall,Recall2,3726,,0,-1,-1,0,0,,1
5be1d0bdc810d500012ad603,442p42ri3e,Nick_Dissertation_EX1,1,286,2020-07-08T15:29:40-07:00,1.7549328804016,3,versionC_stim.csv,READVersionC.csv,"Read Version C","Dissertation, read only version C",SHAVE,RAZOR,Study2,S,136,120,Test,User,-,,Recall,Recall2,965,,0,-1,-1,0,0,,1
5be1d0bdc810d500012ad603,442p42ri3e,Nick_Dissertation_EX1,1,287,2020-07-08T15:29:46-07:00,6.272912979126,3,versionC_stim.csv,READVersionC.csv,"Read Version C","Dissertation, read only version C",TAN,SUN,Study2,S,155,156,Test,User,-,,Recall,Recall2,5504,Line,28.571428571429,-1,-1,0,0,,1
5be1d0bdc810d500012ad603,442p42ri3e,Nick_Dissertation_EX1,1,288,2020-07-08T15:29:53-07:00,6.5465090274811,3,versionC_stim.csv,READVersionC.csv,"Read Version C","Dissertation, read only version C",HAVE,OWN,Study2,S,153,107,Test,User,-,,Recall,Recall2,5772,Hold,28.571428571429,-1,-1,0,0,,1
5be1d0bdc810d500012ad603,442p42ri3e,Nick_Dissertation_EX1,1,289,2020-07-08T15:29:56-07:00,3.7849471569061,3,versionC_stim.csv,READVersionC.csv,"Read Version C","Dissertation, read only version C",THIMBLE,THREAD,Study2,F,121,106,Test,User,-,,Recall,Recall2,3051,,0,-1,-1,0,0,,1
5be1d0bdc810d500012ad603,442p42ri3e,Nick_Dissertation_EX1,1,290,2020-07-08T15:29:59-07:00,2.3822100162506,3,versionC_stim.csv,READVersionC.csv,"Read Version C","Dissertation, read only version C",SIGN,LOAN,Study2,U,171,149,Test,User,-,,Recall,Recall2,1638,,0,-1,-1,0,0,,1
5be1d0bdc810d500012ad603,442p42ri3e,Nick_Dissertation_EX1,1,291,2020-07-08T15:30:04-07:00,4.9129199981689,3,versionC_stim.csv,READVersionC.csv,"Read Version C","Dissertation, read only version C",ACTRESS,STAR,Study2,F,120,100,Test,User,-,,Recall,Recall2,4153,Act,28.571428571429,-1,-1,0,0,,1
5be1d0bdc810d500012ad603,442p42ri3e,Nick_Dissertation_EX1,1,292,2020-07-08T15:30:06-07:00,2.4690318107605,3,versionC_stim.csv,READVersionC.csv,"Read Version C","Dissertation, read only version C",WAX,CANDLE,Study2,S,139,173,Test,User,-,,Recall,Recall2,1704,,0,-1,-1,0,0,,1
5be1d0bdc810d500012ad603,442p42ri3e,Nick_Dissertation_EX1,1,293,2020-07-08T15:30:08-07:00,2.1762909889221,3,versionC_stim.csv,READVersionC.csv,"Read Version C","Dissertation, read only version C",LEAGUE,BASEBALL,Study2,F,131,121,Test,User,-,,Recall,Recall2,1469,,0,-1,-1,0,0,,1
5be1d0bdc810d500012ad603,442p42ri3e,Nick_Dissertation_EX1,1,294,2020-07-08T15:30:11-07:00,2.536003112793,3,versionC_stim.csv,READVersionC.csv,"Read Version C","Dissertation, read only version C",TIE,SHOELACE,Study2,B,99,146,Test,User,-,,Recall,Recall2,1777,,0,-1,-1,0,0,,1
5be1d0bdc810d500012ad603,442p42ri3e,Nick_Dissertation_EX1,1,295,2020-07-08T15:30:16-07:00,5.4718511104584,3,versionC_stim.csv,READVersionC.csv,"Read Version C","Dissertation, read only version C",WINDSHIELD,CAR,Study2,F,117,116,Test,User,-,,Recall,Recall2,1428,,0,-1,-1,0,0,,1
5be1d0bdc810d500012ad603,442p42ri3e,Nick_Dissertation_EX1,1,296,2020-07-08T15:30:21-07:00,4.4375739097595,3,versionC_stim.csv,READVersionC.csv,"Read Version C","Dissertation, read only version C",REEL,ROD,Study2,S,150,142,Test,User,-,,Recall,Recall2,3690,,0,-1,-1,0,0,,1
5be1d0bdc810d500012ad603,442p42ri3e,Nick_Dissertation_EX1,1,297,2020-07-08T15:30:25-07:00,4.029394865036,3,versionC_stim.csv,READVersionC.csv,"Read Version C","Dissertation, read only version C",COLD,CHILL,Study2,B,114,145,Test,User,-,,Recall,Recall2,3253,Hot,25,-1,-1,0,0,,1
5be1d0bdc810d500012ad603,442p42ri3e,Nick_Dissertation_EX1,1,298,2020-07-08T15:30:29-07:00,4.2744162082672,3,versionC_stim.csv,READVersionC.csv,"Read Version C","Dissertation, read only version C",CLEAR,MOAT,Study2,U,169,109,Test,User,-,,Recall,Recall2,3511,,0,-1,-1,0,0,,1
5be1d0bdc810d500012ad603,442p42ri3e,Nick_Dissertation_EX1,1,299,2020-07-08T15:30:37-07:00,7.8156888484955,3,versionC_stim.csv,READVersionC.csv,"Read Version C","Dissertation, read only version C",AWAY,GONE,Study2,S,142,110,Test,User,-,,Recall,Recall2,4603,Here,25,-1,-1,0,0,,1
5be1d0bdc810d500012ad603,442p42ri3e,Nick_Dissertation_EX1,1,300,2020-07-08T15:30:41-07:00,4.5008010864258,3,versionC_stim.csv,READVersionC.csv,"Read Version C","Dissertation, read only version C",GAME,CLUE,Study2,B,97,136,Test,User,-,,Recall,Recall2,3823,Ove4,25,-1,-1,0,0,,1
5be1d0bdc810d500012ad603,442p42ri3e,Nick_Dissertation_EX1,1,301,2020-07-08T15:30:45-07:00,3.4212050437927,3,versionC_stim.csv,READVersionC.csv,"Read Version C","Dissertation, read only version C",PENGUIN,BIRD,Study2,F,119,176,Test,User,-,,Recall,Recall2,2671,,0,-1,-1,0,0,,1
5be1d0bdc810d500012ad603,442p42ri3e,Nick_Dissertation_EX1,1,302,2020-07-08T15:30:54-07:00,8.8570740222931,3,versionC_stim.csv,READVersionC.csv,"Read Version C","Dissertation, read only version C",STRAWBERRY,FRUIT,Study2,F,124,150,Test,User,-,,Recall,Recall2,5129,Fruiy,80,-1,-1,0,1,,1
5be1d0bdc810d500012ad603,442p42ri3e,Nick_Dissertation_EX1,1,303,2020-07-08T15:30:57-07:00,3.5404698848724,3,versionC_stim.csv,READVersionC.csv,"Read Version C","Dissertation, read only version C",TOIL,LEASE,Study2,U,170,157,Test,User,-,,Recall,Recall2,1420,,0,-1,-1,0,0,,1
5be1d0bdc810d500012ad603,442p42ri3e,Nick_Dissertation_EX1,1,304,2020-07-08T15:31:00-07:00,2.7730619907379,3,versionC_stim.csv,READVersionC.csv,"Read Version C","Dissertation, read only version C",SHAKE,Shell,Study2,U,163,162,Test,User,-,,Recall,Recall2,2035,,0,-1,-1,0,0,,1
5be1d0bdc810d500012ad603,442p42ri3e,Nick_Dissertation_EX1,1,305,2020-07-08T15:31:09-07:00,8.5836210250854,3,versionC_stim.csv,READVersionC.csv,"Read Version C","Dissertation, read only version C",REVENGE,EVEN,Study2,F,122,144,Test,User,-,,Recall,Recall2,3144,,0,-1,-1,0,0,,1
5be1d0bdc810d500012ad603,442p42ri3e,Nick_Dissertation_EX1,1,306,2020-07-08T15:31:15-07:00,5.9282050132751,3,versionC_stim.csv,READVersionC.csv,"Read Version C","Dissertation, read only version C",CUT,CHOP,Study2,B,107,97,Test,User,-,,Recall,Recall2,5177,Tie,0,-1,-1,0,0,,1
5be1d0bdc810d500012ad603,442p42ri3e,Nick_Dissertation_EX1,1,307,2020-07-08T15:31:21-07:00,6.4735579490662,3,versionC_stim.csv,READVersionC.csv,"Read Version C","Dissertation, read only version C",COFFIN,DEAD,Study2,F,128,98,Test,User,-,,Recall,Recall2,5708,Dead,100,-1,-1,1,1,,1
5be1d0bdc810d500012ad603,442p42ri3e,Nick_Dissertation_EX1,1,308,2020-07-08T15:31:23-07:00,2.4203889369965,3,versionC_stim.csv,READVersionC.csv,"Read Version C","Dissertation, read only version C",OBTAIN,MEAT,Study2,U,161,167,Test,User,-,,Recall,Recall2,1624,,0,-1,-1,0,0,,1
5be1d0bdc810d500012ad603,442p42ri3e,Nick_Dissertation_EX1,1,309,2020-07-08T15:31:25-07:00,1.7184309959412,3,versionC_stim.csv,READVersionC.csv,"Read Version C","Dissertation, read only version C",TRUTHFUL,HONEST,Study2,F,133,134,Test,User,-,,Recall,Recall2,972,,0,-1,-1,0,0,,1
5be1d0bdc810d500012ad603,442p42ri3e,Nick_Dissertation_EX1,1,310,2020-07-08T15:31:27-07:00,1.5971992015839,3,versionC_stim.csv,READVersionC.csv,"Read Version C","Dissertation, read only version C",ELECTION,MAZE,Study2,U,159,172,Test,User,-,,Recall,Recall2,858,,0,-1,-1,0,0,,1
5be1d0bdc810d500012ad603,442p42ri3e,Nick_Dissertation_EX1,1,311,2020-07-08T15:31:28-07:00,1.6854839324951,3,versionC_stim.csv,READVersionC.csv,"Read Version C","Dissertation, read only version C",HEAD,SCALP,Study2,B,105,104,Test,User,-,,Recall,Recall2,944,,0,-1,-1,0,0,,1
5be1d0bdc810d500012ad603,442p42ri3e,Nick_Dissertation_EX1,1,312,2020-07-08T15:31:35-07:00,6.397628068924,3,versionC_stim.csv,READVersionC.csv,"Read Version C","Dissertation, read only version C",SARDINE,FISH,Study2,F,130,101,Test,User,-,,Recall,Recall2,5653,Tin,28.571428571429,-1,-1,0,0,,1
5be1d0bdc810d500012ad603,442p42ri3e,Nick_Dissertation_EX1,1,313,2020-07-08T15:31:39-07:00,4.4887218475342,3,versionC_stim.csv,READVersionC.csv,"Read Version C","Dissertation, read only version C",DOG,FURRY,Study2,B,102,152,Test,User,-,,Recall,Recall2,3714,Bark,22.222222222222,-1,-1,0,0,,1
5be1d0bdc810d500012ad603,442p42ri3e,Nick_Dissertation_EX1,1,314,2020-07-08T15:31:42-07:00,2.1728639602661,3,versionC_stim.csv,READVersionC.csv,"Read Version C","Dissertation, read only version C",DRINK,WATER,Study2,S,143,171,Test,User,-,,Recall,Recall2,1521,,0,-1,-1,0,0,,1
5be1d0bdc810d500012ad603,442p42ri3e,Nick_Dissertation_EX1,1,315,2020-07-08T15:31:44-07:00,2.0186882019043,3,versionC_stim.csv,READVersionC.csv,"Read Version C","Dissertation, read only version C",BANKER,MONEY,Study2,F,132,122,Test,User,-,,Recall,Recall2,1276,,0,-1,-1,0,0,,1
5be1d0bdc810d500012ad603,442p42ri3e,Nick_Dissertation_EX1,1,316,2020-07-08T15:31:49-07:00,5.8243958950043,3,versionC_stim.csv,READVersionC.csv,"Read Version C","Dissertation, read only version C",SMELL,INCENSE,Study2,B,110,130,Test,User,-,,Recall,Recall2,5045,Stink,33.333333333333,-1,-1,0,0,,1
5be1d0bdc810d500012ad603,442p42ri3e,Nick_Dissertation_EX1,1,317,2020-07-08T15:31:53-07:00,3.5382399559021,3,versionC_stim.csv,READVersionC.csv,"Read Version C","Dissertation, read only version C",STEAK,GIVE,Study2,U,158,143,Test,User,-,,Recall,Recall2,2799,,0,-1,-1,0,0,,1
5be1d0bdc810d500012ad603,442p42ri3e,Nick_Dissertation_EX1,1,318,2020-07-08T15:32:00-07:00,7.2287600040436,3,versionC_stim.csv,READVersionC.csv,"Read Version C","Dissertation, read only version C",NAP,SLEEP,Study2,F,134,102,Test,User,-,,Recall,Recall2,4194,Sleep,100,-1,-1,1,1,,1
5be1d0bdc810d500012ad603,442p42ri3e,Nick_Dissertation_EX1,1,319,2020-07-08T15:32:07-07:00,7.2694480419159,3,versionC_stim.csv,READVersionC.csv,"Read Version C","Dissertation, read only version C",CLOTHES,CAKE,Study2,U,166,114,Test,User,-,,Recall,Recall2,3994,Due,28.571428571429,-1,-1,0,0,,1
5be1d0bdc810d500012ad603,442p42ri3e,Nick_Dissertation_EX1,1,320,2020-07-08T15:32:12-07:00,4.2267808914185,3,versionC_stim.csv,READVersionC.csv,"Read Version C","Dissertation, read only version C",PANTHER,CAT,Study2,F,126,165,Test,User,-,,Recall,Recall2,3466,Cat,100,-1,-1,1,1,,1
5be1d0bdc810d500012ad603,442p42ri3e,Nick_Dissertation_EX1,1,321,2020-07-08T15:32:14-07:00,2.0209591388702,3,versionC_stim.csv,READVersionC.csv,"Read Version C","Dissertation, read only version C",BANG,FUZZY,Study2,U,168,155,Test,User,-,,Recall,Recall2,1258,,0,-1,-1,0,0,,1
5be1d0bdc810d500012ad603,442p42ri3e,Nick_Dissertation_EX1,1,322,2020-07-08T15:32:16-07:00,1.9588639736176,3,versionC_stim.csv,READVersionC.csv,"Read Version C","Dissertation, read only version C",MYSTERY,DETECTIVE,Study2,B,100,148,Test,User,-,,Recall,Recall2,1225,,0,-1,-1,0,0,,1
5be1d0bdc810d500012ad603,442p42ri3e,Nick_Dissertation_EX1,1,323,2020-07-08T15:32:18-07:00,2.1879739761353,3,versionC_stim.csv,READVersionC.csv,"Read Version C","Dissertation, read only version C",COMMUNICATION,PHONE,Study2,S,149,129,Test,User,-,,Recall,Recall2,1431,,0,-1,-1,0,0,,1
5be1d0bdc810d500012ad603,442p42ri3e,Nick_Dissertation_EX1,1,324,2020-07-08T15:32:20-07:00,2.1459009647369,3,versionC_stim.csv,READVersionC.csv,"Read Version C","Dissertation, read only version C",LIE,TRUTH,Study2,S,148,99,Test,User,-,,Recall,Recall2,1424,,0,-1,-1,0,0,,1
5be1d0bdc810d500012ad603,442p42ri3e,Nick_Dissertation_EX1,1,325,2020-07-08T15:32:22-07:00,1.7502429485321,3,versionC_stim.csv,READVersionC.csv,"Read Version C","Dissertation, read only version C",LOVE,AFFECTION,Study2,B,115,168,Test,User,-,,Recall,Recall2,1005,,0,-1,-1,0,0,,1
5be1d0bdc810d500012ad603,442p42ri3e,Nick_Dissertation_EX1,1,326,2020-07-08T15:32:24-07:00,2.5946831703186,3,versionC_stim.csv,READVersionC.csv,"Read Version C","Dissertation, read only version C",SCISSORS,SHEARS,Study2,B,112,161,Test,User,-,,Recall,Recall2,1830,,0,-1,-1,0,0,,1
5be1d0bdc810d500012ad603,442p42ri3e,Nick_Dissertation_EX1,1,327,2020-07-08T15:32:26-07:00,1.8304669857025,3,versionC_stim.csv,READVersionC.csv,"Read Version C","Dissertation, read only version C",ABLE,CRACKLE,Study2,U,162,126,Test,User,-,,Recall,Recall2,1091,,0,-1,-1,0,0,,1
5be1d0bdc810d500012ad603,442p42ri3e,Nick_Dissertation_EX1,1,328,2020-07-08T15:32:35-07:00,9.2527289390564,3,versionC_stim.csv,READVersionC.csv,"Read Version C","Dissertation, read only version C",TEMPER,TANTRUM,Study2,S,154,118,Test,User,-,,Recall,Recall2,8470,Tantrum,100,-1,-1,1,1,,1
5be1d0bdc810d500012ad603,442p42ri3e,Nick_Dissertation_EX1,1,329,2020-07-08T15:32:37-07:00,2.0196270942688,3,versionC_stim.csv,READVersionC.csv,"Read Version C","Dissertation, read only version C",FICTION,LISTEN,Study2,U,164,159,Test,User,-,,Recall,Recall2,1271,,0,-1,-1,0,0,,1
5be1d0bdc810d500012ad603,442p42ri3e,Nick_Dissertation_EX1,1,330,2020-07-08T15:32:39-07:00,1.6608929634094,3,versionC_stim.csv,READVersionC.csv,"Read Version C","Dissertation, read only version C",JAR,MASON,Study2,S,138,111,Test,User,-,,Recall,Recall2,1009,,0,-1,-1,0,0,,1
5be1d0bdc810d500012ad603,442p42ri3e,Nick_Dissertation_EX1,1,331,2020-07-08T15:32:43-07:00,4.1090128421783,3,versionC_stim.csv,READVersionC.csv,"Read Version C","Dissertation, read only version C",AIRCRAFT,PLANE,Study2,F,129,108,Test,User,-,,Recall,Recall2,1064,,0,-1,-1,0,0,,1
5be1d0bdc810d500012ad603,442p42ri3e,Nick_Dissertation_EX1,1,332,2020-07-08T15:32:49-07:00,5.9530432224274,3,versionC_stim.csv,READVersionC.csv,"Read Version C","Dissertation, read only version C",VILLAIN,BAD,Study2,F,118,137,Test,User,-,,Recall,Recall2,5187,Crook,0,-1,-1,0,0,,1
5be1d0bdc810d500012ad603,442p42ri3e,Nick_Dissertation_EX1,1,333,2020-07-08T15:32:52-07:00,2.7607388496399,3,versionC_stim.csv,READVersionC.csv,"Read Version C","Dissertation, read only version C",PLANT,CACTUS,Study2,B,98,115,Test,User,-,,Recall,Recall2,2000,,0,-1,-1,0,0,,1
5be1d0bdc810d500012ad603,442p42ri3e,Nick_Dissertation_EX1,1,334,2020-07-08T15:32:59-07:00,6.7579391002655,3,versionC_stim.csv,READVersionC.csv,"Read Version C","Dissertation, read only version C",PAPER,DOCUMENT,Study2,B,109,170,Test,User,-,,Recall,Recall2,5983,Cut,54.545454545455,-1,-1,0,0,,1
5be1d0bdc810d500012ad603,442p42ri3e,Nick_Dissertation_EX1,1,335,2020-07-08T15:33:02-07:00,3.1143128871918,3,versionC_stim.csv,READVersionC.csv,"Read Version C","Dissertation, read only version C",EQUAL,RIGHTS,Study2,S,137,133,Test,User,-,,Recall,Recall2,2321,,0,-1,-1,0,0,,1
5be1d0bdc810d500012ad603,442p42ri3e,Nick_Dissertation_EX1,1,336,2020-07-08T15:33:04-07:00,2.5048999786377,3,versionC_stim.csv,READVersionC.csv,"Read Version C","Dissertation, read only version C",BRACELET,WRIST,Study2,S,140,174,Test,User,-,,Recall,Recall2,1748,,0,-1,-1,0,0,,1
5be1d0bdc810d500012ad603,442p42ri3e,Nick_Dissertation_EX1,1,337,2020-07-08T15:33:08-07:00,3.2706100940704,3,versionC_stim.csv,READVersionC.csv,"Read Version C","Dissertation, read only version C",RED,CHERRY,Study2,B,104,103,Test,User,-,,Recall,Recall2,2552,,0,-1,-1,0,0,,1
5be1d0bdc810d500012ad603,442p42ri3e,Nick_Dissertation_EX1,1,338,2020-07-08T15:33:12-07:00,4.4345898628235,3,versionC_stim.csv,READVersionC.csv,"Read Version C","Dissertation, read only version C",FIGHT,FEUD,Study2,B,113,175,Test,User,-,,Recall,Recall2,3663,,0,-1,-1,0,0,,1
5be1d0bdc810d500012ad603,442p42ri3e,Nick_Dissertation_EX1,1,339,2020-07-08T15:33:18-07:00,6.3789842128754,3,versionC_stim.csv,READVersionC.csv,"Read Version C","Dissertation, read only version C",CAR,DRIVER,Study2,B,106,113,Test,User,-,,Recall,Recall2,5617,Drive,90.909090909091,-1,-1,0,1,,1
5be1d0bdc810d500012ad603,442p42ri3e,Nick_Dissertation_EX1,1,340,2020-07-08T15:33:24-07:00,5.2431898117065,3,versionC_stim.csv,READVersionC.csv,"Read Version C","Dissertation, read only version C",FAVORITE,BEST,Study2,F,125,154,Test,User,-,,Recall,Recall2,4435,,0,-1,-1,0,0,,1
5be1d0bdc810d500012ad603,442p42ri3e,Nick_Dissertation_EX1,1,341,2020-07-08T15:33:32-07:00,8.8860590457916,3,versionC_stim.csv,READVersionC.csv,"Read Version C","Dissertation, read only version C",END,ADJOURN,Study2,B,101,139,Test,User,-,,Recall,Recall2,8096,,0,-1,-1,0,0,,1
5be1d0bdc810d500012ad603,442p42ri3e,Nick_Dissertation_EX1,1,342,2020-07-08T15:33:40-07:00,7.430545091629,3,versionC_stim.csv,READVersionC.csv,"Read Version C","Dissertation, read only version C",LONG,EXTENSION,Study2,B,96,117,Test,User,-,,Recall,Recall2,6634,Short,28.571428571429,-1,-1,0,0,,1
5be1d0bdc810d500012ad603,442p42ri3e,Nick_Dissertation_EX1,1,343,2020-07-08T15:33:47-07:00,6.8983068466187,3,versionC_stim.csv,READVersionC.csv,"Read Version C","Dissertation, read only version C",TICK,FLEA,Study2,S,151,138,Test,User,-,,Recall,Recall2,6123,Tock,0,-1,-1,0,0,,1
5be1d0bdc810d500012ad603,442p42ri3e,Nick_Dissertation_EX1,1,344,2020-07-08T15:33:55-07:00,8.6932871341705,3,versionC_stim.csv,READVersionC.csv,"Read Version C","Dissertation, read only version C",SEATBELT,SAFETY,Study2,S,147,123,Test,User,-,,Recall,Recall2,7912,Car,22.222222222222,-1,-1,0,0,,1
5be1d0bdc810d500012ad603,442p42ri3e,Nick_Dissertation_EX1,1,345,2020-07-08T15:33:59-07:00,3.965432882309,3,versionC_stim.csv,READVersionC.csv,"Read Version C","Dissertation, read only version C",NOISE,LOUD,Study2,S,152,169,Test,User,-,,Recall,Recall2,3196,,0,-1,-1,0,0,,1
5be1d0bdc810d500012ad603,442p42ri3e,Nick_Dissertation_EX1,1,346,2020-07-08T15:34:05-07:00,5.9515750408173,3,versionC_stim.csv,READVersionC.csv,"Read Version C","Dissertation, read only version C",LONELY,ALONE,Study2,S,145,131,Test,User,-,,Recall,Recall2,5196,Alone,100,-1,-1,1,1,,1
5be1d0bdc810d500012ad603,442p42ri3e,Nick_Dissertation_EX1,1,347,2020-07-08T15:34:09-07:00,3.8865990638733,3,versionC_stim.csv,READVersionC.csv,"Read Version C","Dissertation, read only version C",WET,DRY,Study2,S,146,125,Test,User,-,,Recall,Recall2,3099,Dry,100,-1,-1,1,1,,1
5be1d0bdc810d500012ad603,442p42ri3e,Nick_Dissertation_EX1,1,348,2020-07-08T15:34:13-07:00,4.0311288833618,3,versionC_stim.csv,READVersionC.csv,"Read Version C","Dissertation, read only version C",HATE,NAME,Study2,U,167,163,Test,User,-,,Recall,Recall2,3254,Love,25,-1,-1,0,0,,1
5be1d0bdc810d500012ad603,442p42ri3e,Nick_Dissertation_EX1,1,349,2020-07-08T15:34:16-07:00,3.1348721981049,3,versionC_stim.csv,READVersionC.csv,"Read Version C","Dissertation, read only version C",,,,,,0,Instruct,User,-,"You have completed this section. Please press Enter.",,Instruct7,2374,,,-1,-1,,,,1
5be1d0bdc810d500012ad603,442p42ri3e,Nick_Dissertation_EX1,1,350,2020-07-08T15:34:19-07:00,2.8263289928436,3,versionC_stim.csv,READVersionC.csv,"Read Version C","Dissertation, read only version C",,,,,,0,Instruct,User,-,"The following screen will ask you a few questions abour your experience today. You must complete these questions to receive credit.",,Instruct8,2100,,,-1,-1,,,,1
