Username,ID,ExperimentName,Session,Trial,Date,TimeDif,"Condition Number","Stimuli File","Order File","Condition Description","Condition Notes",Stimuli*Cue,Stimuli*Answer,Stimuli*Shuffle,"Stimuli*Stimuli Notes",Stimuli*Value,Procedure*Item,"Procedure*Trial Type","Procedure*Max Time","Procedure*Min Time",Procedure*Text,"Procedure*Procedure Notes",Procedure*Shuffle,Response*RT,Response*Response,Response*Accuracy,Response*RTfirst,Response*RTlast,Response*strictAcc,Response*lenientAcc,Response*focus,Response*Focus
5d94bc369ad7de0019b03ac3,5w347igb4x,Nick_Dissertation_EX1,1,1,2020-07-08T14:52:07-07:00,13.13024187088,2,versionA_stim.csv,READVersionB.csv,"Read Version B","Dissertation, read only version B",,,,,,0,Instruct,-,10,"Please study each of the following word pairs. Remember that your memory will be tested! When finished, press Enter to move to the next pair.",Initial_Instruct,Instruct1,12716,,,-1,-1,,,,1
5d94bc369ad7de0019b03ac3,5w347igb4x,Nick_Dissertation_EX1,1,2,2020-07-08T14:52:10-07:00,3.2694320678711,2,versionA_stim.csv,READVersionB.csv,"Read Version B","Dissertation, read only version B",CAMP,ADVENTURE,BUFFER3,Buffer,95,93,Study,User,-,,Study/JOL,BUFFER,2766,,,-1,-1,,,,1
5d94bc369ad7de0019b03ac3,5w347igb4x,Nick_Dissertation_EX1,1,3,2020-07-08T14:52:32-07:00,21.971662998199,2,versionA_stim.csv,READVersionB.csv,"Read Version B","Dissertation, read only version B",CARROT,POTATO,BUFFER3,Buffer,91,94,Study,User,-,,Study/JOL,BUFFER,21301,,,-1,-1,,,,1
5d94bc369ad7de0019b03ac3,5w347igb4x,Nick_Dissertation_EX1,1,4,2020-07-08T14:52:36-07:00,3.7777950763702,2,versionA_stim.csv,READVersionB.csv,"Read Version B","Dissertation, read only version B",ICE,FROZEN,BUFFER3,Buffer,94,92,Study,User,-,,Study/JOL,BUFFER,1880,,,-1,-1,,,,1
5d94bc369ad7de0019b03ac3,5w347igb4x,Nick_Dissertation_EX1,1,5,2020-07-08T14:52:39-07:00,2.8589189052582,2,versionA_stim.csv,READVersionB.csv,"Read Version B","Dissertation, read only version B",SHRIMP,FISH,BUFFER3,Buffer,93,95,Study,User,-,,Study/JOL,BUFFER,2197,,,-1,-1,,,,1
5d94bc369ad7de0019b03ac3,5w347igb4x,Nick_Dissertation_EX1,1,6,2020-07-08T14:52:43-07:00,3.962394952774,2,versionA_stim.csv,READVersionB.csv,"Read Version B","Dissertation, read only version B",NOODLE,STRING,BUFFER3,Buffer,92,96,Study,User,-,,Study/JOL,BUFFER,3464,,,-1,-1,,,,1
5d94bc369ad7de0019b03ac3,5w347igb4x,Nick_Dissertation_EX1,1,7,2020-07-08T14:52:46-07:00,2.9971041679382,2,versionA_stim.csv,READVersionB.csv,"Read Version B","Dissertation, read only version B",MAZE,ELECTION,Study2,U,159,112,Study,User,-,,Study/JOL,"Study Phase",2486,,,-1,-1,,,,1
5d94bc369ad7de0019b03ac3,5w347igb4x,Nick_Dissertation_EX1,1,8,2020-07-08T14:52:48-07:00,2.404433965683,2,versionA_stim.csv,READVersionB.csv,"Read Version B","Dissertation, read only version B",MONEY,BANKER,Study2,B,132,138,Study,User,-,,Study/JOL,"Study Phase",1841,,,-1,-1,,,,1
5d94bc369ad7de0019b03ac3,5w347igb4x,Nick_Dissertation_EX1,1,9,2020-07-08T14:52:50-07:00,1.7316310405731,2,versionA_stim.csv,READVersionB.csv,"Read Version B","Dissertation, read only version B",SAFETY,SEATBELT,Study2,S,147,136,Study,User,-,,Study/JOL,"Study Phase",1278,,,-1,-1,,,,1
5d94bc369ad7de0019b03ac3,5w347igb4x,Nick_Dissertation_EX1,1,10,2020-07-08T14:52:55-07:00,5.1442158222198,2,versionA_stim.csv,READVersionB.csv,"Read Version B","Dissertation, read only version B",FUZZY,BANG,Study2,U,168,176,Study,User,-,,Study/JOL,"Study Phase",4648,,,-1,-1,,,,1
5d94bc369ad7de0019b03ac3,5w347igb4x,Nick_Dissertation_EX1,1,11,2020-07-08T14:52:58-07:00,3.0891981124878,2,versionA_stim.csv,READVersionB.csv,"Read Version B","Dissertation, read only version B",CHOP,CUT,Study2,F,107,102,Study,User,-,,Study/JOL,"Study Phase",2557,,,-1,-1,,,,1
5d94bc369ad7de0019b03ac3,5w347igb4x,Nick_Dissertation_EX1,1,12,2020-07-08T14:53:01-07:00,2.6220638751984,2,versionA_stim.csv,READVersionB.csv,"Read Version B","Dissertation, read only version B",TEMPERATURE,Morning,Study2,U,173,151,Study,User,-,,Study/JOL,"Study Phase",2127,,,-1,-1,,,,1
5d94bc369ad7de0019b03ac3,5w347igb4x,Nick_Dissertation_EX1,1,13,2020-07-08T14:53:04-07:00,3.3580679893494,2,versionA_stim.csv,READVersionB.csv,"Read Version B","Dissertation, read only version B",SHEARS,SCISSORS,Study2,F,112,162,Study,User,-,,Study/JOL,"Study Phase",2833,,,-1,-1,,,,1
5d94bc369ad7de0019b03ac3,5w347igb4x,Nick_Dissertation_EX1,1,14,2020-07-08T14:53:07-07:00,2.5021770000458,2,versionA_stim.csv,READVersionB.csv,"Read Version B","Dissertation, read only version B",BOTH,OUNCE,Study2,U,172,155,Study,User,-,,Study/JOL,"Study Phase",1973,,,-1,-1,,,,1
5d94bc369ad7de0019b03ac3,5w347igb4x,Nick_Dissertation_EX1,1,15,2020-07-08T14:53:09-07:00,1.7346642017365,2,versionA_stim.csv,READVersionB.csv,"Read Version B","Dissertation, read only version B",DRIVER,CAR,Study2,F,106,161,Study,User,-,,Study/JOL,"Study Phase",1216,,,-1,-1,,,,1
5d94bc369ad7de0019b03ac3,5w347igb4x,Nick_Dissertation_EX1,1,16,2020-07-08T14:53:11-07:00,1.9903929233551,2,versionA_stim.csv,READVersionB.csv,"Read Version B","Dissertation, read only version B",RAZOR,SHAVE,Study2,S,136,126,Study,User,-,,Study/JOL,"Study Phase",1472,,,-1,-1,,,,1
5d94bc369ad7de0019b03ac3,5w347igb4x,Nick_Dissertation_EX1,1,17,2020-07-08T14:53:12-07:00,1.7023968696594,2,versionA_stim.csv,READVersionB.csv,"Read Version B","Dissertation, read only version B",STRETCH,CLOTH,Study2,U,157,173,Study,User,-,,Study/JOL,"Study Phase",1151,,,-1,-1,,,,1
5d94bc369ad7de0019b03ac3,5w347igb4x,Nick_Dissertation_EX1,1,18,2020-07-08T14:53:14-07:00,1.938294172287,2,versionA_stim.csv,READVersionB.csv,"Read Version B","Dissertation, read only version B",MAIN,SCAR,Study2,U,175,148,Study,User,-,,Study/JOL,"Study Phase",1515,,,-1,-1,,,,1
5d94bc369ad7de0019b03ac3,5w347igb4x,Nick_Dissertation_EX1,1,19,2020-07-08T14:53:16-07:00,1.7248129844666,2,versionA_stim.csv,READVersionB.csv,"Read Version B","Dissertation, read only version B",FISH,SARDINE,Study2,B,130,127,Study,User,-,,Study/JOL,"Study Phase",1197,,,-1,-1,,,,1
5d94bc369ad7de0019b03ac3,5w347igb4x,Nick_Dissertation_EX1,1,20,2020-07-08T14:53:17-07:00,1.4883608818054,2,versionA_stim.csv,READVersionB.csv,"Read Version B","Dissertation, read only version B",SUN,TAN,Study2,S,155,128,Study,User,-,,Study/JOL,"Study Phase",928,,,-1,-1,,,,1
5d94bc369ad7de0019b03ac3,5w347igb4x,Nick_Dissertation_EX1,1,21,2020-07-08T14:53:19-07:00,1.743458032608,2,versionA_stim.csv,READVersionB.csv,"Read Version B","Dissertation, read only version B",WATER,DRINK,Study2,S,143,105,Study,User,-,,Study/JOL,"Study Phase",1219,,,-1,-1,,,,1
5d94bc369ad7de0019b03ac3,5w347igb4x,Nick_Dissertation_EX1,1,22,2020-07-08T14:53:21-07:00,1.6675260066986,2,versionA_stim.csv,READVersionB.csv,"Read Version B","Dissertation, read only version B",CAR,WINDSHIELD,Study2,B,117,142,Study,User,-,,Study/JOL,"Study Phase",1171,,,-1,-1,,,,1
5d94bc369ad7de0019b03ac3,5w347igb4x,Nick_Dissertation_EX1,1,23,2020-07-08T14:53:22-07:00,1.5700600147247,2,versionA_stim.csv,READVersionB.csv,"Read Version B","Dissertation, read only version B",FEUD,FIGHT,Study2,F,113,110,Study,User,-,,Study/JOL,"Study Phase",1065,,,-1,-1,,,,1
5d94bc369ad7de0019b03ac3,5w347igb4x,Nick_Dissertation_EX1,1,24,2020-07-08T14:53:24-07:00,1.6579611301422,2,versionA_stim.csv,READVersionB.csv,"Read Version B","Dissertation, read only version B",FIGHT,BRAWL,Study2,B,135,169,Study,User,-,,Study/JOL,"Study Phase",1183,,,-1,-1,,,,1
5d94bc369ad7de0019b03ac3,5w347igb4x,Nick_Dissertation_EX1,1,25,2020-07-08T14:53:27-07:00,2.5812668800354,2,versionA_stim.csv,READVersionB.csv,"Read Version B","Dissertation, read only version B",CHILL,COLD,Study2,F,114,140,Study,User,-,,Study/JOL,"Study Phase",1079,,,-1,-1,,,,1
5d94bc369ad7de0019b03ac3,5w347igb4x,Nick_Dissertation_EX1,1,26,2020-07-08T14:53:29-07:00,2.7553029060364,2,versionA_stim.csv,READVersionB.csv,"Read Version B","Dissertation, read only version B",HONEST,TRUTHFUL,Study2,B,133,159,Study,User,-,,Study/JOL,"Study Phase",1253,,,-1,-1,,,,1
5d94bc369ad7de0019b03ac3,5w347igb4x,Nick_Dissertation_EX1,1,27,2020-07-08T14:53:31-07:00,1.6287059783936,2,versionA_stim.csv,READVersionB.csv,"Read Version B","Dissertation, read only version B",PLANE,AIRCRAFT,Study2,B,129,146,Study,User,-,,Study/JOL,"Study Phase",1119,,,-1,-1,,,,1
5d94bc369ad7de0019b03ac3,5w347igb4x,Nick_Dissertation_EX1,1,28,2020-07-08T14:53:33-07:00,1.5968370437622,2,versionA_stim.csv,READVersionB.csv,"Read Version B","Dissertation, read only version B",DETECTIVE,MYSTERY,Study2,F,100,121,Study,User,-,,Study/JOL,"Study Phase",1091,,,-1,-1,,,,1
5d94bc369ad7de0019b03ac3,5w347igb4x,Nick_Dissertation_EX1,1,29,2020-07-08T14:53:34-07:00,1.6182041168213,2,versionA_stim.csv,READVersionB.csv,"Read Version B","Dissertation, read only version B",SLEEP,NAP,Study2,B,134,107,Study,User,-,,Study/JOL,"Study Phase",1208,,,-1,-1,,,,1
5d94bc369ad7de0019b03ac3,5w347igb4x,Nick_Dissertation_EX1,1,30,2020-07-08T14:53:36-07:00,1.6954569816589,2,versionA_stim.csv,READVersionB.csv,"Read Version B","Dissertation, read only version B",FURRY,DOG,Study2,F,102,113,Study,User,-,,Study/JOL,"Study Phase",859,,,-1,-1,,,,1
5d94bc369ad7de0019b03ac3,5w347igb4x,Nick_Dissertation_EX1,1,31,2020-07-08T14:53:37-07:00,1.5217308998108,2,versionA_stim.csv,READVersionB.csv,"Read Version B","Dissertation, read only version B",WRIST,BRACELET,Study2,S,140,170,Study,User,-,,Study/JOL,"Study Phase",1016,,,-1,-1,,,,1
5d94bc369ad7de0019b03ac3,5w347igb4x,Nick_Dissertation_EX1,1,32,2020-07-08T14:53:39-07:00,1.4751131534576,2,versionA_stim.csv,READVersionB.csv,"Read Version B","Dissertation, read only version B",SCALP,HEAD,Study2,F,105,157,Study,User,-,,Study/JOL,"Study Phase",995,,,-1,-1,,,,1
5d94bc369ad7de0019b03ac3,5w347igb4x,Nick_Dissertation_EX1,1,33,2020-07-08T14:53:40-07:00,1.2346398830414,2,versionA_stim.csv,READVersionB.csv,"Read Version B","Dissertation, read only version B",TRUTH,LIE,Study2,S,148,153,Study,User,-,,Study/JOL,"Study Phase",742,,,-1,-1,,,,1
5d94bc369ad7de0019b03ac3,5w347igb4x,Nick_Dissertation_EX1,1,34,2020-07-08T14:53:50-07:00,9.9560470581055,2,versionA_stim.csv,READVersionB.csv,"Read Version B","Dissertation, read only version B",ROD,REEL,Study2,S,150,116,Study,User,-,,Study/JOL,"Study Phase",9444,,,-1,-1,,,,1
5d94bc369ad7de0019b03ac3,5w347igb4x,Nick_Dissertation_EX1,1,35,2020-07-08T14:53:52-07:00,1.5077309608459,2,versionA_stim.csv,READVersionB.csv,"Read Version B","Dissertation, read only version B",Shell,SHAKE,Study2,U,163,165,Study,User,-,,Study/JOL,"Study Phase",994,,,-1,-1,,,,1
5d94bc369ad7de0019b03ac3,5w347igb4x,Nick_Dissertation_EX1,1,36,2020-07-08T14:53:54-07:00,2.470762014389,2,versionA_stim.csv,READVersionB.csv,"Read Version B","Dissertation, read only version B",OWN,HAVE,Study2,S,153,154,Study,User,-,,Study/JOL,"Study Phase",1572,,,-1,-1,,,,1
5d94bc369ad7de0019b03ac3,5w347igb4x,Nick_Dissertation_EX1,1,37,2020-07-08T14:53:56-07:00,1.9263861179352,2,versionA_stim.csv,READVersionB.csv,"Read Version B","Dissertation, read only version B",MULE,DONKEY,Study2,F,108,100,Study,User,-,,Study/JOL,"Study Phase",1477,,,-1,-1,,,,1
5d94bc369ad7de0019b03ac3,5w347igb4x,Nick_Dissertation_EX1,1,38,2020-07-08T14:56:16-07:00,140.3395588398,2,versionA_stim.csv,READVersionB.csv,"Read Version B","Dissertation, read only version B",GLASS,BREAKABLE,Study2,B,127,172,Study,User,-,,Study/JOL,"Study Phase",139260,,,-1,-1,,,,0.086
5d94bc369ad7de0019b03ac3,5w347igb4x,Nick_Dissertation_EX1,1,39,2020-07-08T14:56:18-07:00,1.8122990131378,2,versionA_stim.csv,READVersionB.csv,"Read Version B","Dissertation, read only version B",MASON,JAR,Study2,S,138,99,Study,User,-,,Study/JOL,"Study Phase",1270,,,-1,-1,,,,1
5d94bc369ad7de0019b03ac3,5w347igb4x,Nick_Dissertation_EX1,1,40,2020-07-08T14:56:20-07:00,1.852432012558,2,versionA_stim.csv,READVersionB.csv,"Read Version B","Dissertation, read only version B",INCENSE,SMELL,Study2,F,110,141,Study,User,-,,Study/JOL,"Study Phase",1301,,,-1,-1,,,,1
5d94bc369ad7de0019b03ac3,5w347igb4x,Nick_Dissertation_EX1,1,41,2020-07-08T14:56:22-07:00,1.7741229534149,2,versionA_stim.csv,READVersionB.csv,"Read Version B","Dissertation, read only version B",MIRROR,CHILDREN,Study2,U,174,145,Study,User,-,,Study/JOL,"Study Phase",1253,,,-1,-1,,,,1
5d94bc369ad7de0019b03ac3,5w347igb4x,Nick_Dissertation_EX1,1,42,2020-07-08T14:56:25-07:00,3.0038290023804,2,versionA_stim.csv,READVersionB.csv,"Read Version B","Dissertation, read only version B",BAD,VILLAIN,Study2,B,118,125,Study,User,-,,Study/JOL,"Study Phase",1408,,,-1,-1,,,,1
5d94bc369ad7de0019b03ac3,5w347igb4x,Nick_Dissertation_EX1,1,43,2020-07-08T14:56:27-07:00,1.7890629768372,2,versionA_stim.csv,READVersionB.csv,"Read Version B","Dissertation, read only version B",GONE,AWAY,Study2,S,142,135,Study,User,-,,Study/JOL,"Study Phase",1346,,,-1,-1,,,,1
5d94bc369ad7de0019b03ac3,5w347igb4x,Nick_Dissertation_EX1,1,44,2020-07-08T14:56:28-07:00,1.6196610927582,2,versionA_stim.csv,READVersionB.csv,"Read Version B","Dissertation, read only version B",POP,BALLOON,Study2,B,123,163,Study,User,-,,Study/JOL,"Study Phase",1102,,,-1,-1,,,,1
5d94bc369ad7de0019b03ac3,5w347igb4x,Nick_Dissertation_EX1,1,45,2020-07-08T14:56:30-07:00,1.9314711093903,2,versionA_stim.csv,READVersionB.csv,"Read Version B","Dissertation, read only version B",SHOELACE,TIE,Study2,F,99,120,Study,User,-,,Study/JOL,"Study Phase",1485,,,-1,-1,,,,1
5d94bc369ad7de0019b03ac3,5w347igb4x,Nick_Dissertation_EX1,1,46,2020-07-08T14:56:32-07:00,1.7363238334656,2,versionA_stim.csv,READVersionB.csv,"Read Version B","Dissertation, read only version B",LITTER,TRASH,Study2,F,103,103,Study,User,-,,Study/JOL,"Study Phase",1284,,,-1,-1,,,,1
5d94bc369ad7de0019b03ac3,5w347igb4x,Nick_Dissertation_EX1,1,47,2020-07-08T14:56:34-07:00,1.8249299526215,2,versionA_stim.csv,READVersionB.csv,"Read Version B","Dissertation, read only version B",CLUE,GAME,Study2,F,97,149,Study,User,-,,Study/JOL,"Study Phase",1277,,,-1,-1,,,,1
5d94bc369ad7de0019b03ac3,5w347igb4x,Nick_Dissertation_EX1,1,48,2020-07-08T14:56:35-07:00,1.4801170825958,2,versionA_stim.csv,READVersionB.csv,"Read Version B","Dissertation, read only version B",DEAD,COFFIN,Study2,B,128,175,Study,User,-,,Study/JOL,"Study Phase",975,,,-1,-1,,,,1
5d94bc369ad7de0019b03ac3,5w347igb4x,Nick_Dissertation_EX1,1,49,2020-07-08T14:56:38-07:00,2.8273689746857,2,versionA_stim.csv,READVersionB.csv,"Read Version B","Dissertation, read only version B",THREAD,THIMBLE,Study2,B,121,147,Study,User,-,,Study/JOL,"Study Phase",1947,,,-1,-1,,,,1
5d94bc369ad7de0019b03ac3,5w347igb4x,Nick_Dissertation_EX1,1,50,2020-07-08T14:56:41-07:00,2.7850179672241,2,versionA_stim.csv,READVersionB.csv,"Read Version B","Dissertation, read only version B",VEHICLE,CHARM,Study2,U,160,124,Study,User,-,,Study/JOL,"Study Phase",2084,,,-1,-1,,,,1
5d94bc369ad7de0019b03ac3,5w347igb4x,Nick_Dissertation_EX1,1,51,2020-07-08T14:56:44-07:00,2.9686501026154,2,versionA_stim.csv,READVersionB.csv,"Read Version B","Dissertation, read only version B",RIGHTS,EQUAL,Study2,S,137,104,Study,User,-,,Study/JOL,"Study Phase",2443,,,-1,-1,,,,1
5d94bc369ad7de0019b03ac3,5w347igb4x,Nick_Dissertation_EX1,1,52,2020-07-08T14:56:47-07:00,3.4615669250488,2,versionA_stim.csv,READVersionB.csv,"Read Version B","Dissertation, read only version B",CAT,PANTHER,Study2,B,126,117,Study,User,-,,Study/JOL,"Study Phase",1793,,,-1,-1,,,,1
5d94bc369ad7de0019b03ac3,5w347igb4x,Nick_Dissertation_EX1,1,53,2020-07-08T14:56:51-07:00,3.372171163559,2,versionA_stim.csv,READVersionB.csv,"Read Version B","Dissertation, read only version B",JUSTICE,MAROON,Study2,U,156,174,Study,User,-,,Study/JOL,"Study Phase",2723,,,-1,-1,,,,1
5d94bc369ad7de0019b03ac3,5w347igb4x,Nick_Dissertation_EX1,1,54,2020-07-08T14:56:52-07:00,1.7430408000946,2,versionA_stim.csv,READVersionB.csv,"Read Version B","Dissertation, read only version B",DINE,EAT,Study2,F,111,164,Study,User,-,,Study/JOL,"Study Phase",1242,,,-1,-1,,,,1
5d94bc369ad7de0019b03ac3,5w347igb4x,Nick_Dissertation_EX1,1,55,2020-07-08T14:56:54-07:00,1.4720251560211,2,versionA_stim.csv,READVersionB.csv,"Read Version B","Dissertation, read only version B",AFFECTION,LOVE,Study2,F,115,168,Study,User,-,,Study/JOL,"Study Phase",957,,,-1,-1,,,,1
5d94bc369ad7de0019b03ac3,5w347igb4x,Nick_Dissertation_EX1,1,56,2020-07-08T14:56:55-07:00,1.4768109321594,2,versionA_stim.csv,READVersionB.csv,"Read Version B","Dissertation, read only version B",BEST,FAVORITE,Study2,B,125,158,Study,User,-,,Study/JOL,"Study Phase",837,,,-1,-1,,,,1
5d94bc369ad7de0019b03ac3,5w347igb4x,Nick_Dissertation_EX1,1,57,2020-07-08T14:56:57-07:00,1.2833800315857,2,versionA_stim.csv,READVersionB.csv,"Read Version B","Dissertation, read only version B",DOCUMENT,PAPER,Study2,F,109,150,Study,User,-,,Study/JOL,"Study Phase",804,,,-1,-1,,,,1
5d94bc369ad7de0019b03ac3,5w347igb4x,Nick_Dissertation_EX1,1,58,2020-07-08T14:56:58-07:00,1.2817299365997,2,versionA_stim.csv,READVersionB.csv,"Read Version B","Dissertation, read only version B",ELEMENT,CARBON,Study2,S,141,166,Study,User,-,,Study/JOL,"Study Phase",789,,,-1,-1,,,,1
5d94bc369ad7de0019b03ac3,5w347igb4x,Nick_Dissertation_EX1,1,59,2020-07-08T14:56:59-07:00,1.371906042099,2,versionA_stim.csv,READVersionB.csv,"Read Version B","Dissertation, read only version B",BASEBALL,LEAGUE,Study2,B,131,101,Study,User,-,,Study/JOL,"Study Phase",842,,,-1,-1,,,,1
5d94bc369ad7de0019b03ac3,5w347igb4x,Nick_Dissertation_EX1,1,60,2020-07-08T14:57:01-07:00,1.7051708698273,2,versionA_stim.csv,READVersionB.csv,"Read Version B","Dissertation, read only version B",EARTH,GROUND,Study2,S,144,131,Study,User,-,,Study/JOL,"Study Phase",1256,,,-1,-1,,,,1
5d94bc369ad7de0019b03ac3,5w347igb4x,Nick_Dissertation_EX1,1,61,2020-07-08T14:57:03-07:00,1.5905752182007,2,versionA_stim.csv,READVersionB.csv,"Read Version B","Dissertation, read only version B",ADJOURN,END,Study2,F,101,98,Study,User,-,,Study/JOL,"Study Phase",1079,,,-1,-1,,,,1
5d94bc369ad7de0019b03ac3,5w347igb4x,Nick_Dissertation_EX1,1,62,2020-07-08T14:57:04-07:00,1.7261619567871,2,versionA_stim.csv,READVersionB.csv,"Read Version B","Dissertation, read only version B",LISTEN,FICTION,Study2,U,164,106,Study,User,-,,Study/JOL,"Study Phase",1192,,,-1,-1,,,,1
5d94bc369ad7de0019b03ac3,5w347igb4x,Nick_Dissertation_EX1,1,63,2020-07-08T14:57:06-07:00,1.8784549236298,2,versionA_stim.csv,READVersionB.csv,"Read Version B","Dissertation, read only version B",CRACKLE,ABLE,Study2,U,162,114,Study,User,-,,Study/JOL,"Study Phase",1391,,,-1,-1,,,,1
5d94bc369ad7de0019b03ac3,5w347igb4x,Nick_Dissertation_EX1,1,64,2020-07-08T14:57:08-07:00,1.6008279323578,2,versionA_stim.csv,READVersionB.csv,"Read Version B","Dissertation, read only version B",NAME,HATE,Study2,U,167,109,Study,User,-,,Study/JOL,"Study Phase",1069,,,-1,-1,,,,1
5d94bc369ad7de0019b03ac3,5w347igb4x,Nick_Dissertation_EX1,1,65,2020-07-08T14:57:14-07:00,5.9827342033386,2,versionA_stim.csv,READVersionB.csv,"Read Version B","Dissertation, read only version B",ALONE,LONELY,Study2,S,145,132,Study,User,-,,Study/JOL,"Study Phase",5308,,,-1,-1,,,,1
5d94bc369ad7de0019b03ac3,5w347igb4x,Nick_Dissertation_EX1,1,66,2020-07-08T14:57:16-07:00,2.0880858898163,2,versionA_stim.csv,READVersionB.csv,"Read Version B","Dissertation, read only version B",TURN,FLIP,Study2,B,116,143,Study,User,-,,Study/JOL,"Study Phase",960,,,-1,-1,,,,1
5d94bc369ad7de0019b03ac3,5w347igb4x,Nick_Dissertation_EX1,1,67,2020-07-08T14:57:21-07:00,5.4536099433899,2,versionA_stim.csv,READVersionB.csv,"Read Version B","Dissertation, read only version B",STAR,ACTRESS,Study2,B,120,118,Study,User,-,,Study/JOL,"Study Phase",4942,,,-1,-1,,,,1
5d94bc369ad7de0019b03ac3,5w347igb4x,Nick_Dissertation_EX1,1,68,2020-07-08T14:57:23-07:00,1.759838104248,2,versionA_stim.csv,READVersionB.csv,"Read Version B","Dissertation, read only version B",KEYS,JOKE,Study2,U,165,152,Study,User,-,,Study/JOL,"Study Phase",1260,,,-1,-1,,,,1
5d94bc369ad7de0019b03ac3,5w347igb4x,Nick_Dissertation_EX1,1,69,2020-07-08T14:57:25-07:00,1.6004588603973,2,versionA_stim.csv,READVersionB.csv,"Read Version B","Dissertation, read only version B",MOAT,CLEAR,Study2,U,169,144,Study,User,-,,Study/JOL,"Study Phase",1091,,,-1,-1,,,,1
5d94bc369ad7de0019b03ac3,5w347igb4x,Nick_Dissertation_EX1,1,70,2020-07-08T14:57:26-07:00,1.497563123703,2,versionA_stim.csv,READVersionB.csv,"Read Version B","Dissertation, read only version B",LOAN,SIGN,Study2,U,171,115,Study,User,-,,Study/JOL,"Study Phase",1016,,,-1,-1,,,,1
5d94bc369ad7de0019b03ac3,5w347igb4x,Nick_Dissertation_EX1,1,71,2020-07-08T14:57:28-07:00,1.4585559368134,2,versionA_stim.csv,READVersionB.csv,"Read Version B","Dissertation, read only version B",DRY,WET,Study2,S,146,134,Study,User,-,,Study/JOL,"Study Phase",971,,,-1,-1,,,,1
5d94bc369ad7de0019b03ac3,5w347igb4x,Nick_Dissertation_EX1,1,72,2020-07-08T14:57:29-07:00,1.7613620758057,2,versionA_stim.csv,READVersionB.csv,"Read Version B","Dissertation, read only version B",CACTUS,PLANT,Study2,F,98,139,Study,User,-,,Study/JOL,"Study Phase",1259,,,-1,-1,,,,1
5d94bc369ad7de0019b03ac3,5w347igb4x,Nick_Dissertation_EX1,1,73,2020-07-08T14:57:31-07:00,1.3183879852295,2,versionA_stim.csv,READVersionB.csv,"Read Version B","Dissertation, read only version B",LEASE,TOIL,Study2,U,170,171,Study,User,-,,Study/JOL,"Study Phase",828,,,-1,-1,,,,1
5d94bc369ad7de0019b03ac3,5w347igb4x,Nick_Dissertation_EX1,1,74,2020-07-08T14:57:33-07:00,2.3791370391846,2,versionA_stim.csv,READVersionB.csv,"Read Version B","Dissertation, read only version B",EVEN,REVENGE,Study2,B,122,129,Study,User,-,,Study/JOL,"Study Phase",911,,,-1,-1,,,,1
5d94bc369ad7de0019b03ac3,5w347igb4x,Nick_Dissertation_EX1,1,75,2020-07-08T14:57:35-07:00,1.5534269809723,2,versionA_stim.csv,READVersionB.csv,"Read Version B","Dissertation, read only version B",EXTENSION,LONG,Study2,F,96,111,Study,User,-,,Study/JOL,"Study Phase",1067,,,-1,-1,,,,1
5d94bc369ad7de0019b03ac3,5w347igb4x,Nick_Dissertation_EX1,1,76,2020-07-08T14:57:36-07:00,1.4592719078064,2,versionA_stim.csv,READVersionB.csv,"Read Version B","Dissertation, read only version B",FRUIT,STRAWBERRY,Study2,B,124,137,Study,User,-,,Study/JOL,"Study Phase",953,,,-1,-1,,,,1
5d94bc369ad7de0019b03ac3,5w347igb4x,Nick_Dissertation_EX1,1,77,2020-07-08T14:57:39-07:00,2.7617931365967,2,versionA_stim.csv,READVersionB.csv,"Read Version B","Dissertation, read only version B",GIVE,STEAK,Study2,U,158,123,Study,User,-,,Study/JOL,"Study Phase",1288,,,-1,-1,,,,1
5d94bc369ad7de0019b03ac3,5w347igb4x,Nick_Dissertation_EX1,1,78,2020-07-08T14:57:40-07:00,1.5003068447113,2,versionA_stim.csv,READVersionB.csv,"Read Version B","Dissertation, read only version B",PHONE,COMMUNICATION,Study2,S,149,130,Study,User,-,,Study/JOL,"Study Phase",969,,,-1,-1,,,,1
5d94bc369ad7de0019b03ac3,5w347igb4x,Nick_Dissertation_EX1,1,79,2020-07-08T14:57:42-07:00,1.5529160499573,2,versionA_stim.csv,READVersionB.csv,"Read Version B","Dissertation, read only version B",FLEA,TICK,Study2,S,151,160,Study,User,-,,Study/JOL,"Study Phase",1048,,,-1,-1,,,,1
5d94bc369ad7de0019b03ac3,5w347igb4x,Nick_Dissertation_EX1,1,80,2020-07-08T14:57:43-07:00,1.4544270038605,2,versionA_stim.csv,READVersionB.csv,"Read Version B","Dissertation, read only version B",CANDLE,WAX,Study2,S,139,122,Study,User,-,,Study/JOL,"Study Phase",970,,,-1,-1,,,,1
5d94bc369ad7de0019b03ac3,5w347igb4x,Nick_Dissertation_EX1,1,81,2020-07-08T14:57:45-07:00,1.3341660499573,2,versionA_stim.csv,READVersionB.csv,"Read Version B","Dissertation, read only version B",LOUD,NOISE,Study2,S,152,108,Study,User,-,,Study/JOL,"Study Phase",905,,,-1,-1,,,,1
5d94bc369ad7de0019b03ac3,5w347igb4x,Nick_Dissertation_EX1,1,82,2020-07-08T14:57:47-07:00,2.0041110515594,2,versionA_stim.csv,READVersionB.csv,"Read Version B","Dissertation, read only version B",CHERRY,RED,Study2,F,104,133,Study,User,-,,Study/JOL,"Study Phase",1481,,,-1,-1,,,,1
5d94bc369ad7de0019b03ac3,5w347igb4x,Nick_Dissertation_EX1,1,83,2020-07-08T14:57:48-07:00,1.586306810379,2,versionA_stim.csv,READVersionB.csv,"Read Version B","Dissertation, read only version B",CAKE,CLOTHES,Study2,U,166,156,Study,User,-,,Study/JOL,"Study Phase",1047,,,-1,-1,,,,1
5d94bc369ad7de0019b03ac3,5w347igb4x,Nick_Dissertation_EX1,1,84,2020-07-08T14:57:50-07:00,1.7446269989014,2,versionA_stim.csv,READVersionB.csv,"Read Version B","Dissertation, read only version B",TANTRUM,TEMPER,Study2,S,154,119,Study,User,-,,Study/JOL,"Study Phase",1227,,,-1,-1,,,,1
5d94bc369ad7de0019b03ac3,5w347igb4x,Nick_Dissertation_EX1,1,85,2020-07-08T14:57:52-07:00,1.7127990722656,2,versionA_stim.csv,READVersionB.csv,"Read Version B","Dissertation, read only version B",BIRD,PENGUIN,Study2,B,119,97,Study,User,-,,Study/JOL,"Study Phase",1191,,,-1,-1,,,,1
5d94bc369ad7de0019b03ac3,5w347igb4x,Nick_Dissertation_EX1,1,86,2020-07-08T14:57:54-07:00,1.921639919281,2,versionA_stim.csv,READVersionB.csv,"Read Version B","Dissertation, read only version B",MEAT,OBTAIN,Study2,U,161,167,Study,User,-,,Study/JOL,"Study Phase",1376,,,-1,-1,,,,1
5d94bc369ad7de0019b03ac3,5w347igb4x,Nick_Dissertation_EX1,1,87,2020-07-08T14:57:55-07:00,1.6662681102753,2,versionA_stim.csv,READVersionB.csv,"Read Version B","Dissertation, read only version B",MONTH,YEAR,BUFFER4,Buffer,177,177,Study,User,-,,Study/JOL,BUFFER2,1122,,,-1,-1,,,,1
5d94bc369ad7de0019b03ac3,5w347igb4x,Nick_Dissertation_EX1,1,88,2020-07-08T14:57:58-07:00,2.849958896637,2,versionA_stim.csv,READVersionB.csv,"Read Version B","Dissertation, read only version B",OCTOBER,SPOOKY,BUFFER4,Buffer,180,180,Study,User,-,,Study/JOL,BUFFER2,1319,,,-1,-1,,,,1
5d94bc369ad7de0019b03ac3,5w347igb4x,Nick_Dissertation_EX1,1,89,2020-07-08T14:58:00-07:00,1.8232650756836,2,versionA_stim.csv,READVersionB.csv,"Read Version B","Dissertation, read only version B",SPRING,MARCH,BUFFER4,Buffer,179,179,Study,User,-,,Study/JOL,BUFFER2,648,,,-1,-1,,,,1
5d94bc369ad7de0019b03ac3,5w347igb4x,Nick_Dissertation_EX1,1,90,2020-07-08T14:58:01-07:00,1.488135099411,2,versionA_stim.csv,READVersionB.csv,"Read Version B","Dissertation, read only version B",TOOL,SHED,BUFFER4,Buffer,178,181,Study,User,-,,Study/JOL,BUFFER2,949,,,-1,-1,,,,1
5d94bc369ad7de0019b03ac3,5w347igb4x,Nick_Dissertation_EX1,1,91,2020-07-08T14:58:03-07:00,1.5350589752197,2,versionA_stim.csv,READVersionB.csv,"Read Version B","Dissertation, read only version B",DAYS,WEAKS,BUFFER4,Buffer,176,178,Study,User,-,,Study/JOL,BUFFER2,962,,,-1,-1,,,,1
5d94bc369ad7de0019b03ac3,5w347igb4x,Nick_Dissertation_EX1,1,92,2020-07-08T14:58:07-07:00,3.5678679943085,2,versionA_stim.csv,READVersionB.csv,"Read Version B","Dissertation, read only version B",,,,,,0,Instruct,User,-,"You have completed this section. Please press Enter.",Filler_Instruction,Instruct2,2934,,,-1,-1,,,,1
5d94bc369ad7de0019b03ac3,5w347igb4x,Nick_Dissertation_EX1,1,93,2020-07-08T15:00:08-07:00,121.49903202057,2,versionA_stim.csv,READVersionB.csv,"Read Version B","Dissertation, read only version B",,,,,,0,FreeRecall,120,120,"Please list the 50 US states in alphabetical order. The task will automatically advance to the next screen after two minutes.",,Filler1,120821,"Alaska Arizona California Florida Hawaii Kentucky ",0,32767,111590,0,0,,0.836
5d94bc369ad7de0019b03ac3,5w347igb4x,Nick_Dissertation_EX1,1,94,2020-07-08T15:00:22-07:00,13.60010099411,2,versionA_stim.csv,READVersionB.csv,"Read Version B","Dissertation, read only version B",,,,,,0,Instruct,-,10,"You will now be presented with the first word from each of the previously studied item pairs. Please type the missing word. If you do not know the word, you may guess or press Enter to skip forward to the next pair.",,Instruct3,12912,,,-1,-1,,,,1
5d94bc369ad7de0019b03ac3,5w347igb4x,Nick_Dissertation_EX1,1,95,2020-07-08T15:00:29-07:00,7.7612829208374,2,versionA_stim.csv,READVersionB.csv,"Read Version B","Dissertation, read only version B",Shell,SHAKE,Study2,U,163,165,Test,User,-,,Recall,Recall1,7207,,0,-1,-1,0,0,,1
5d94bc369ad7de0019b03ac3,5w347igb4x,Nick_Dissertation_EX1,1,96,2020-07-08T15:00:35-07:00,5.965341091156,2,versionA_stim.csv,READVersionB.csv,"Read Version B","Dissertation, read only version B",STAR,ACTRESS,Study2,B,120,118,Test,User,-,,Recall,Recall1,5441,sky,20,3226,3968,0,0,,1
5d94bc369ad7de0019b03ac3,5w347igb4x,Nick_Dissertation_EX1,1,97,2020-07-08T15:00:40-07:00,4.7911748886108,2,versionA_stim.csv,READVersionB.csv,"Read Version B","Dissertation, read only version B",GLASS,BREAKABLE,Study2,B,127,172,Test,User,-,,Recall,Recall1,4204,water,28.571428571429,1899,2771,0,0,,1
5d94bc369ad7de0019b03ac3,5w347igb4x,Nick_Dissertation_EX1,1,98,2020-07-08T15:00:43-07:00,2.9047269821167,2,versionA_stim.csv,READVersionB.csv,"Read Version B","Dissertation, read only version B",ELEMENT,CARBON,Study2,S,141,166,Test,User,-,,Recall,Recall1,2441,,0,-1,-1,0,0,,1
5d94bc369ad7de0019b03ac3,5w347igb4x,Nick_Dissertation_EX1,1,99,2020-07-08T15:01:05-07:00,22.068334102631,2,versionA_stim.csv,READVersionB.csv,"Read Version B","Dissertation, read only version B",PHONE,COMMUNICATION,Study2,S,149,130,Test,User,-,,Recall,Recall1,6151,call,23.529411764706,4489,5126,0,0,,1
5d94bc369ad7de0019b03ac3,5w347igb4x,Nick_Dissertation_EX1,1,100,2020-07-08T15:01:10-07:00,4.7349619865417,2,versionA_stim.csv,READVersionB.csv,"Read Version B","Dissertation, read only version B",TURN,FLIP,Study2,B,116,143,Test,User,-,,Recall,Recall1,4172,key,0,3220,3555,0,0,,1
5d94bc369ad7de0019b03ac3,5w347igb4x,Nick_Dissertation_EX1,1,101,2020-07-08T15:01:13-07:00,3.085823059082,2,versionA_stim.csv,READVersionB.csv,"Read Version B","Dissertation, read only version B",RAZOR,SHAVE,Study2,S,136,126,Test,User,-,,Recall,Recall1,2566,sharp,60,1270,2021,0,0,,1
5d94bc369ad7de0019b03ac3,5w347igb4x,Nick_Dissertation_EX1,1,102,2020-07-08T15:01:17-07:00,3.7088398933411,2,versionA_stim.csv,READVersionB.csv,"Read Version B","Dissertation, read only version B",SAFETY,SEATBELT,Study2,S,147,136,Test,User,-,,Recall,Recall1,3207,glass,15.384615384615,2279,2942,0,0,,1
5d94bc369ad7de0019b03ac3,5w347igb4x,Nick_Dissertation_EX1,1,103,2020-07-08T15:01:20-07:00,3.4318799972534,2,versionA_stim.csv,READVersionB.csv,"Read Version B","Dissertation, read only version B",FEUD,FIGHT,Study2,F,113,110,Test,User,-,,Recall,Recall1,2871,argue,20,1440,2510,0,0,,1
5d94bc369ad7de0019b03ac3,5w347igb4x,Nick_Dissertation_EX1,1,104,2020-07-08T15:01:26-07:00,5.6091139316559,2,versionA_stim.csv,READVersionB.csv,"Read Version B","Dissertation, read only version B",BEST,FAVORITE,Study2,B,125,158,Test,User,-,,Recall,Recall1,5092,friend,57.142857142857,4028,4699,0,0,,1
5d94bc369ad7de0019b03ac3,5w347igb4x,Nick_Dissertation_EX1,1,105,2020-07-08T15:01:29-07:00,2.8605711460114,2,versionA_stim.csv,READVersionB.csv,"Read Version B","Dissertation, read only version B",CHOP,CUT,Study2,F,107,102,Test,User,-,,Recall,Recall1,2341,suey,28.571428571429,1446,1908,0,0,,1
5d94bc369ad7de0019b03ac3,5w347igb4x,Nick_Dissertation_EX1,1,106,2020-07-08T15:01:31-07:00,2.4054508209229,2,versionA_stim.csv,READVersionB.csv,"Read Version B","Dissertation, read only version B",FISH,SARDINE,Study2,B,130,127,Test,User,-,,Recall,Recall1,1952,pie,40,1241,1640,0,0,,1
5d94bc369ad7de0019b03ac3,5w347igb4x,Nick_Dissertation_EX1,1,107,2020-07-08T15:01:45-07:00,13.647534132004,2,versionA_stim.csv,READVersionB.csv,"Read Version B","Dissertation, read only version B",CHERRY,RED,Study2,F,104,133,Test,User,-,,Recall,Recall1,12956,,0,-1,-1,0,0,,1
5d94bc369ad7de0019b03ac3,5w347igb4x,Nick_Dissertation_EX1,1,108,2020-07-08T15:01:50-07:00,5.5518200397491,2,versionA_stim.csv,READVersionB.csv,"Read Version B","Dissertation, read only version B",LEASE,TOIL,Study2,U,170,171,Test,User,-,,Recall,Recall1,5032,rent,25,4264,4743,0,0,,1
5d94bc369ad7de0019b03ac3,5w347igb4x,Nick_Dissertation_EX1,1,109,2020-07-08T15:01:54-07:00,3.6665768623352,2,versionA_stim.csv,READVersionB.csv,"Read Version B","Dissertation, read only version B",CHILL,COLD,Study2,F,114,140,Test,User,-,,Recall,Recall1,3236,out,28.571428571429,2500,2947,0,0,,1
5d94bc369ad7de0019b03ac3,5w347igb4x,Nick_Dissertation_EX1,1,110,2020-07-08T15:02:00-07:00,5.9164090156555,2,versionA_stim.csv,READVersionB.csv,"Read Version B","Dissertation, read only version B",CAKE,CLOTHES,Study2,U,166,156,Test,User,-,,Recall,Recall1,5472,eat,20,4562,5288,0,0,,1
5d94bc369ad7de0019b03ac3,5w347igb4x,Nick_Dissertation_EX1,1,111,2020-07-08T15:02:03-07:00,3.5198140144348,2,versionA_stim.csv,READVersionB.csv,"Read Version B","Dissertation, read only version B",WATER,DRINK,Study2,S,143,105,Test,User,-,,Recall,Recall1,2899,drink,100,1316,2443,1,1,,1
5d94bc369ad7de0019b03ac3,5w347igb4x,Nick_Dissertation_EX1,1,112,2020-07-08T15:02:07-07:00,3.4133110046387,2,versionA_stim.csv,READVersionB.csv,"Read Version B","Dissertation, read only version B",MOAT,CLEAR,Study2,U,169,144,Test,User,-,,Recall,Recall1,2878,guard,40,1809,2637,0,0,,1
5d94bc369ad7de0019b03ac3,5w347igb4x,Nick_Dissertation_EX1,1,113,2020-07-08T15:02:10-07:00,3.7852411270142,2,versionA_stim.csv,READVersionB.csv,"Read Version B","Dissertation, read only version B",RIGHTS,EQUAL,Study2,S,137,104,Test,User,-,,Recall,Recall1,3238,allow,40,2398,3022,0,0,,1
5d94bc369ad7de0019b03ac3,5w347igb4x,Nick_Dissertation_EX1,1,114,2020-07-08T15:02:17-07:00,6.6435968875885,2,versionA_stim.csv,READVersionB.csv,"Read Version B","Dissertation, read only version B",MEAT,OBTAIN,Study2,U,161,167,Test,User,-,,Recall,Recall1,6138,,0,-1,-1,0,0,,1
5d94bc369ad7de0019b03ac3,5w347igb4x,Nick_Dissertation_EX1,1,115,2020-07-08T15:02:20-07:00,3.2511389255524,2,versionA_stim.csv,READVersionB.csv,"Read Version B","Dissertation, read only version B",EVEN,REVENGE,Study2,B,122,129,Test,User,-,,Recall,Recall1,2688,odd,0,2193,2503,0,0,,1
5d94bc369ad7de0019b03ac3,5w347igb4x,Nick_Dissertation_EX1,1,116,2020-07-08T15:02:24-07:00,3.732262134552,2,versionA_stim.csv,READVersionB.csv,"Read Version B","Dissertation, read only version B",NAME,HATE,Study2,U,167,109,Test,User,-,,Recall,Recall1,3210,,0,-1,-1,0,0,,1
5d94bc369ad7de0019b03ac3,5w347igb4x,Nick_Dissertation_EX1,1,117,2020-07-08T15:02:27-07:00,3.3660740852356,2,versionA_stim.csv,READVersionB.csv,"Read Version B","Dissertation, read only version B",MULE,DONKEY,Study2,F,108,100,Test,User,-,,Recall,Recall1,2818,donkey,100,1282,2377,1,1,,1
5d94bc369ad7de0019b03ac3,5w347igb4x,Nick_Dissertation_EX1,1,118,2020-07-08T15:02:31-07:00,3.1302528381348,2,versionA_stim.csv,READVersionB.csv,"Read Version B","Dissertation, read only version B",SLEEP,NAP,Study2,B,134,107,Test,User,-,,Recall,Recall1,2142,rest,0,1359,2013,0,0,,1
5d94bc369ad7de0019b03ac3,5w347igb4x,Nick_Dissertation_EX1,1,119,2020-07-08T15:02:33-07:00,2.6341090202332,2,versionA_stim.csv,READVersionB.csv,"Read Version B","Dissertation, read only version B",FUZZY,BANG,Study2,U,168,176,Test,User,-,,Recall,Recall1,2157,felt,0,1181,1932,0,0,,1
5d94bc369ad7de0019b03ac3,5w347igb4x,Nick_Dissertation_EX1,1,120,2020-07-08T15:02:36-07:00,2.4399430751801,2,versionA_stim.csv,READVersionB.csv,"Read Version B","Dissertation, read only version B",CRACKLE,ABLE,Study2,U,162,114,Test,User,-,,Recall,Recall1,1967,pop,0,1239,1630,0,0,,1
5d94bc369ad7de0019b03ac3,5w347igb4x,Nick_Dissertation_EX1,1,121,2020-07-08T15:02:42-07:00,6.2705760002136,2,versionA_stim.csv,READVersionB.csv,"Read Version B","Dissertation, read only version B",MAZE,ELECTION,Study2,U,159,112,Test,User,-,,Recall,Recall1,5673,lost,33.333333333333,4866,5474,0,0,,1
5d94bc369ad7de0019b03ac3,5w347igb4x,Nick_Dissertation_EX1,1,122,2020-07-08T15:02:45-07:00,3.0616199970245,2,versionA_stim.csv,READVersionB.csv,"Read Version B","Dissertation, read only version B",DEAD,COFFIN,Study2,B,128,175,Test,User,-,,Recall,Recall1,2606,coffin,100,1407,2109,1,1,,1
5d94bc369ad7de0019b03ac3,5w347igb4x,Nick_Dissertation_EX1,1,123,2020-07-08T15:02:51-07:00,5.920047044754,2,versionA_stim.csv,READVersionB.csv,"Read Version B","Dissertation, read only version B",JUSTICE,MAROON,Study2,U,156,174,Test,User,-,,Recall,Recall1,5432,fairness,42.857142857143,4129,5248,0,0,,1
5d94bc369ad7de0019b03ac3,5w347igb4x,Nick_Dissertation_EX1,1,124,2020-07-08T15:02:54-07:00,3.4538547992706,2,versionA_stim.csv,READVersionB.csv,"Read Version B","Dissertation, read only version B",HONEST,TRUTHFUL,Study2,B,133,159,Test,User,-,,Recall,Recall1,1950,fair,16.666666666667,1190,1742,0,0,,1
5d94bc369ad7de0019b03ac3,5w347igb4x,Nick_Dissertation_EX1,1,125,2020-07-08T15:03:00-07:00,5.9848392009735,2,versionA_stim.csv,READVersionB.csv,"Read Version B","Dissertation, read only version B",OWN,HAVE,Study2,S,153,154,Test,User,-,,Recall,Recall1,5424,buy,0,4641,4984,0,0,,1
5d94bc369ad7de0019b03ac3,5w347igb4x,Nick_Dissertation_EX1,1,126,2020-07-08T15:03:03-07:00,2.9232108592987,2,versionA_stim.csv,READVersionB.csv,"Read Version B","Dissertation, read only version B",DRY,WET,Study2,S,146,134,Test,User,-,,Recall,Recall1,2421,wet,100,1758,2180,1,1,,1
5d94bc369ad7de0019b03ac3,5w347igb4x,Nick_Dissertation_EX1,1,127,2020-07-08T15:03:06-07:00,2.6858050823212,2,versionA_stim.csv,READVersionB.csv,"Read Version B","Dissertation, read only version B",CANDLE,WAX,Study2,S,139,122,Test,User,-,,Recall,Recall1,2184,wick,28.571428571429,1392,1816,0,0,,1
5d94bc369ad7de0019b03ac3,5w347igb4x,Nick_Dissertation_EX1,1,128,2020-07-08T15:03:09-07:00,3.0105810165405,2,versionA_stim.csv,READVersionB.csv,"Read Version B","Dissertation, read only version B",ROD,REEL,Study2,S,150,116,Test,User,-,,Recall,Recall1,2575,reel,100,1757,2236,1,1,,1
5d94bc369ad7de0019b03ac3,5w347igb4x,Nick_Dissertation_EX1,1,129,2020-07-08T15:03:18-07:00,8.6901588439941,2,versionA_stim.csv,READVersionB.csv,"Read Version B","Dissertation, read only version B",FLEA,TICK,Study2,S,151,160,Test,User,-,,Recall,Recall1,8235,jump,0,3130,7769,0,0,,1
5d94bc369ad7de0019b03ac3,5w347igb4x,Nick_Dissertation_EX1,1,130,2020-07-08T15:03:20-07:00,2.4155340194702,2,versionA_stim.csv,READVersionB.csv,"Read Version B","Dissertation, read only version B",BIRD,PENGUIN,Study2,B,119,97,Test,User,-,,Recall,Recall1,1755,fly,0,1156,1491,0,0,,1
5d94bc369ad7de0019b03ac3,5w347igb4x,Nick_Dissertation_EX1,1,131,2020-07-08T15:03:26-07:00,5.7033321857452,2,versionA_stim.csv,READVersionB.csv,"Read Version B","Dissertation, read only version B",THREAD,THIMBLE,Study2,B,121,147,Test,User,-,,Recall,Recall1,5033,cotton,15.384615384615,2192,4528,0,0,,1
5d94bc369ad7de0019b03ac3,5w347igb4x,Nick_Dissertation_EX1,1,132,2020-07-08T15:03:28-07:00,2.561803817749,2,versionA_stim.csv,READVersionB.csv,"Read Version B","Dissertation, read only version B",FRUIT,STRAWBERRY,Study2,B,124,137,Test,User,-,,Recall,Recall1,2076,bowl,14.285714285714,1269,1755,0,0,,1
5d94bc369ad7de0019b03ac3,5w347igb4x,Nick_Dissertation_EX1,1,133,2020-07-08T15:03:36-07:00,8.0352289676666,2,versionA_stim.csv,READVersionB.csv,"Read Version B","Dissertation, read only version B",DETECTIVE,MYSTERY,Study2,F,100,121,Test,User,-,,Recall,Recall1,7458,mystery,100,4859,6865,1,1,,1
5d94bc369ad7de0019b03ac3,5w347igb4x,Nick_Dissertation_EX1,1,134,2020-07-08T15:03:40-07:00,3.7865672111511,2,versionA_stim.csv,READVersionB.csv,"Read Version B","Dissertation, read only version B",SUN,TAN,Study2,S,155,128,Test,User,-,,Recall,Recall1,3302,day,33.333333333333,2471,2885,0,0,,1
5d94bc369ad7de0019b03ac3,5w347igb4x,Nick_Dissertation_EX1,1,135,2020-07-08T15:03:43-07:00,3.2838599681854,2,versionA_stim.csv,READVersionB.csv,"Read Version B","Dissertation, read only version B",KEYS,JOKE,Study2,U,165,152,Test,User,-,,Recall,Recall1,2753,wallet,20,1529,2568,0,0,,1
5d94bc369ad7de0019b03ac3,5w347igb4x,Nick_Dissertation_EX1,1,136,2020-07-08T15:03:52-07:00,8.6249749660492,2,versionA_stim.csv,READVersionB.csv,"Read Version B","Dissertation, read only version B",EARTH,GROUND,Study2,S,144,131,Test,User,-,,Recall,Recall1,7076,,0,-1,-1,0,0,,1
5d94bc369ad7de0019b03ac3,5w347igb4x,Nick_Dissertation_EX1,1,137,2020-07-08T15:03:54-07:00,2.2433359622955,2,versionA_stim.csv,READVersionB.csv,"Read Version B","Dissertation, read only version B",TEMPERATURE,Morning,Study2,U,173,151,Test,User,-,,Recall,Recall1,1729,,0,-1,-1,0,0,,1
5d94bc369ad7de0019b03ac3,5w347igb4x,Nick_Dissertation_EX1,1,138,2020-07-08T15:03:59-07:00,4.3909978866577,2,versionA_stim.csv,READVersionB.csv,"Read Version B","Dissertation, read only version B",CAR,WINDSHIELD,Study2,B,117,142,Test,User,-,,Recall,Recall1,3916,drive,40,2836,3603,0,0,,1
5d94bc369ad7de0019b03ac3,5w347igb4x,Nick_Dissertation_EX1,1,139,2020-07-08T15:04:41-07:00,42.63231921196,2,versionA_stim.csv,READVersionB.csv,"Read Version B","Dissertation, read only version B",LITTER,TRASH,Study2,F,103,103,Test,User,-,,Recall,Recall1,4834,bin,0,3923,4289,0,0,,1
5d94bc369ad7de0019b03ac3,5w347igb4x,Nick_Dissertation_EX1,1,140,2020-07-08T15:04:44-07:00,3.0196487903595,2,versionA_stim.csv,READVersionB.csv,"Read Version B","Dissertation, read only version B",VEHICLE,CHARM,Study2,U,160,124,Test,User,-,,Recall,Recall1,2433,drive,20,1321,2080,0,0,,1
5d94bc369ad7de0019b03ac3,5w347igb4x,Nick_Dissertation_EX1,1,141,2020-07-08T15:04:47-07:00,2.5016911029816,2,versionA_stim.csv,READVersionB.csv,"Read Version B","Dissertation, read only version B",SHOELACE,TIE,Study2,F,99,120,Test,User,-,,Recall,Recall1,1913,tie,100,1330,1672,1,1,,1
5d94bc369ad7de0019b03ac3,5w347igb4x,Nick_Dissertation_EX1,1,142,2020-07-08T15:04:50-07:00,3.2456259727478,2,versionA_stim.csv,READVersionB.csv,"Read Version B","Dissertation, read only version B",INCENSE,SMELL,Study2,F,110,141,Test,User,-,,Recall,Recall1,2708,burn,0,1628,2331,0,0,,1
5d94bc369ad7de0019b03ac3,5w347igb4x,Nick_Dissertation_EX1,1,143,2020-07-08T15:04:53-07:00,2.5570960044861,2,versionA_stim.csv,READVersionB.csv,"Read Version B","Dissertation, read only version B",DOCUMENT,PAPER,Study2,F,109,150,Test,User,-,,Recall,Recall1,1997,,0,-1,-1,0,0,,1
5d94bc369ad7de0019b03ac3,5w347igb4x,Nick_Dissertation_EX1,1,144,2020-07-08T15:04:57-07:00,4.1486489772797,2,versionA_stim.csv,READVersionB.csv,"Read Version B","Dissertation, read only version B",MONEY,BANKER,Study2,B,132,138,Test,User,-,,Recall,Recall1,3671,wallet,33.333333333333,2648,3478,0,0,,1
5d94bc369ad7de0019b03ac3,5w347igb4x,Nick_Dissertation_EX1,1,145,2020-07-08T15:05:01-07:00,4.5108621120453,2,versionA_stim.csv,READVersionB.csv,"Read Version B","Dissertation, read only version B",CAT,PANTHER,Study2,B,126,117,Test,User,-,,Recall,Recall1,4003,fur,20,3348,3738,0,0,,1
5d94bc369ad7de0019b03ac3,5w347igb4x,Nick_Dissertation_EX1,1,146,2020-07-08T15:05:07-07:00,5.9031028747559,2,versionA_stim.csv,READVersionB.csv,"Read Version B","Dissertation, read only version B",SCALP,HEAD,Study2,F,105,157,Test,User,-,,Recall,Recall1,5451,head,100,4836,5331,1,1,,1
5d94bc369ad7de0019b03ac3,5w347igb4x,Nick_Dissertation_EX1,1,147,2020-07-08T15:05:10-07:00,2.4975571632385,2,versionA_stim.csv,READVersionB.csv,"Read Version B","Dissertation, read only version B",DINE,EAT,Study2,F,111,164,Test,User,-,,Recall,Recall1,1923,eat,100,1172,1522,1,1,,1
5d94bc369ad7de0019b03ac3,5w347igb4x,Nick_Dissertation_EX1,1,148,2020-07-08T15:05:19-07:00,9.0990009307861,2,versionA_stim.csv,READVersionB.csv,"Read Version B","Dissertation, read only version B",POP,BALLOON,Study2,B,123,163,Test,User,-,,Recall,Recall1,8519,break,33.333333333333,7183,8094,0,0,,1
5d94bc369ad7de0019b03ac3,5w347igb4x,Nick_Dissertation_EX1,1,149,2020-07-08T15:05:22-07:00,3.034952878952,2,versionA_stim.csv,READVersionB.csv,"Read Version B","Dissertation, read only version B",FIGHT,BRAWL,Study2,B,135,169,Test,User,-,,Recall,Recall1,2493,argue,20,1478,2252,0,0,,1
5d94bc369ad7de0019b03ac3,5w347igb4x,Nick_Dissertation_EX1,1,150,2020-07-08T15:05:27-07:00,5.1365242004395,2,versionA_stim.csv,READVersionB.csv,"Read Version B","Dissertation, read only version B",ALONE,LONELY,Study2,S,145,132,Test,User,-,,Recall,Recall1,4668,solo,40,3829,4340,0,0,,1
5d94bc369ad7de0019b03ac3,5w347igb4x,Nick_Dissertation_EX1,1,151,2020-07-08T15:05:31-07:00,3.7975528240204,2,versionA_stim.csv,READVersionB.csv,"Read Version B","Dissertation, read only version B",BOTH,OUNCE,Study2,U,172,155,Test,User,-,,Recall,Recall1,3274,together,30.769230769231,1923,2970,0,0,,1
5d94bc369ad7de0019b03ac3,5w347igb4x,Nick_Dissertation_EX1,1,152,2020-07-08T15:05:34-07:00,3.1002621650696,2,versionA_stim.csv,READVersionB.csv,"Read Version B","Dissertation, read only version B",BAD,VILLAIN,Study2,B,118,125,Test,User,-,,Recall,Recall1,2561,evil,54.545454545455,1721,2288,0,0,,1
5d94bc369ad7de0019b03ac3,5w347igb4x,Nick_Dissertation_EX1,1,153,2020-07-08T15:06:27-07:00,53.1361348629,2,versionA_stim.csv,READVersionB.csv,"Read Version B","Dissertation, read only version B",DRIVER,CAR,Study2,F,106,161,Test,User,-,,Recall,Recall1,28632,bus,0,27770,28159,0,0,,1
5d94bc369ad7de0019b03ac3,5w347igb4x,Nick_Dissertation_EX1,1,154,2020-07-08T15:06:30-07:00,3.112734079361,2,versionA_stim.csv,READVersionB.csv,"Read Version B","Dissertation, read only version B",GONE,AWAY,Study2,S,142,135,Test,User,-,,Recall,Recall1,2567,lost,0,1751,2342,0,0,,1
5d94bc369ad7de0019b03ac3,5w347igb4x,Nick_Dissertation_EX1,1,155,2020-07-08T15:06:33-07:00,3.2126798629761,2,versionA_stim.csv,READVersionB.csv,"Read Version B","Dissertation, read only version B",AFFECTION,LOVE,Study2,F,115,168,Test,User,-,,Recall,Recall1,2199,love,100,1569,2055,1,1,,1
5d94bc369ad7de0019b03ac3,5w347igb4x,Nick_Dissertation_EX1,1,156,2020-07-08T15:06:37-07:00,3.2474901676178,2,versionA_stim.csv,READVersionB.csv,"Read Version B","Dissertation, read only version B",TANTRUM,TEMPER,Study2,S,154,119,Test,User,-,,Recall,Recall1,2754,child,0,1858,2538,0,0,,1
5d94bc369ad7de0019b03ac3,5w347igb4x,Nick_Dissertation_EX1,1,157,2020-07-08T15:07:32-07:00,55.381026983261,2,versionA_stim.csv,READVersionB.csv,"Read Version B","Dissertation, read only version B",SHEARS,SCISSORS,Study2,F,112,162,Test,User,-,,Recall,Recall1,4302,cut,18.181818181818,3479,3983,0,0,,1
5d94bc369ad7de0019b03ac3,5w347igb4x,Nick_Dissertation_EX1,1,158,2020-07-08T15:07:36-07:00,4.4190058708191,2,versionA_stim.csv,READVersionB.csv,"Read Version B","Dissertation, read only version B",PLANE,AIRCRAFT,Study2,B,129,146,Test,User,-,,Recall,Recall1,3919,travel,28.571428571429,2479,3470,0,0,,1
5d94bc369ad7de0019b03ac3,5w347igb4x,Nick_Dissertation_EX1,1,159,2020-07-08T15:07:39-07:00,2.1549232006073,2,versionA_stim.csv,READVersionB.csv,"Read Version B","Dissertation, read only version B",WRIST,BRACELET,Study2,S,140,170,Test,User,-,,Recall,Recall1,1654,,0,-1,-1,0,0,,1
5d94bc369ad7de0019b03ac3,5w347igb4x,Nick_Dissertation_EX1,1,160,2020-07-08T15:07:41-07:00,2.6670958995819,2,versionA_stim.csv,READVersionB.csv,"Read Version B","Dissertation, read only version B",MASON,JAR,Study2,S,138,99,Test,User,-,,Recall,Recall1,2152,jar,100,1433,1880,1,1,,1
5d94bc369ad7de0019b03ac3,5w347igb4x,Nick_Dissertation_EX1,1,161,2020-07-08T15:07:45-07:00,4.2892789840698,2,versionA_stim.csv,READVersionB.csv,"Read Version B","Dissertation, read only version B",GIVE,STEAK,Study2,U,158,123,Test,User,-,,Recall,Recall1,3761,donate,36.363636363636,2552,3360,0,0,,1
5d94bc369ad7de0019b03ac3,5w347igb4x,Nick_Dissertation_EX1,1,162,2020-07-08T15:07:49-07:00,3.2780890464783,2,versionA_stim.csv,READVersionB.csv,"Read Version B","Dissertation, read only version B",CLUE,GAME,Study2,F,97,149,Test,User,-,,Recall,Recall1,2769,game,100,1611,2080,1,1,,1
5d94bc369ad7de0019b03ac3,5w347igb4x,Nick_Dissertation_EX1,1,163,2020-07-08T15:07:51-07:00,2.411180973053,2,versionA_stim.csv,READVersionB.csv,"Read Version B","Dissertation, read only version B",STRETCH,CLOTH,Study2,U,157,173,Test,User,-,,Recall,Recall1,1918,,0,-1,-1,0,0,,1
5d94bc369ad7de0019b03ac3,5w347igb4x,Nick_Dissertation_EX1,1,164,2020-07-08T15:07:55-07:00,3.990541934967,2,versionA_stim.csv,READVersionB.csv,"Read Version B","Dissertation, read only version B",TRUTH,LIE,Study2,S,148,153,Test,User,-,,Recall,Recall1,3503,honesty,20,2072,3110,0,0,,1
5d94bc369ad7de0019b03ac3,5w347igb4x,Nick_Dissertation_EX1,1,165,2020-07-08T15:07:58-07:00,3.0567891597748,2,versionA_stim.csv,READVersionB.csv,"Read Version B","Dissertation, read only version B",LOUD,NOISE,Study2,S,152,108,Test,User,-,,Recall,Recall1,2472,shout,20,1584,2208,0,0,,1
5d94bc369ad7de0019b03ac3,5w347igb4x,Nick_Dissertation_EX1,1,166,2020-07-08T15:08:01-07:00,3.0877249240875,2,versionA_stim.csv,READVersionB.csv,"Read Version B","Dissertation, read only version B",LOAN,SIGN,Study2,U,171,115,Test,User,-,,Recall,Recall1,2519,bank,25,1768,2134,0,0,,1
5d94bc369ad7de0019b03ac3,5w347igb4x,Nick_Dissertation_EX1,1,167,2020-07-08T15:08:06-07:00,4.4966979026794,2,versionA_stim.csv,READVersionB.csv,"Read Version B","Dissertation, read only version B",MIRROR,CHILDREN,Study2,U,174,145,Test,User,-,,Recall,Recall1,3542,glass,15.384615384615,2535,3286,0,0,,1
5d94bc369ad7de0019b03ac3,5w347igb4x,Nick_Dissertation_EX1,1,168,2020-07-08T15:08:11-07:00,4.8529140949249,2,versionA_stim.csv,READVersionB.csv,"Read Version B","Dissertation, read only version B",ADJOURN,END,Study2,F,101,98,Test,User,-,,Recall,Recall1,4369,delay,25,2281,3945,0,0,,1
5d94bc369ad7de0019b03ac3,5w347igb4x,Nick_Dissertation_EX1,1,169,2020-07-08T15:08:13-07:00,2.7187030315399,2,versionA_stim.csv,READVersionB.csv,"Read Version B","Dissertation, read only version B",LISTEN,FICTION,Study2,U,164,106,Test,User,-,,Recall,Recall1,2128,hear,0,1281,1728,0,0,,1
5d94bc369ad7de0019b03ac3,5w347igb4x,Nick_Dissertation_EX1,1,170,2020-07-08T15:08:17-07:00,3.2853009700775,2,versionA_stim.csv,READVersionB.csv,"Read Version B","Dissertation, read only version B",FURRY,DOG,Study2,F,102,113,Test,User,-,,Recall,Recall1,2716,pet,0,2180,2564,0,0,,1
5d94bc369ad7de0019b03ac3,5w347igb4x,Nick_Dissertation_EX1,1,171,2020-07-08T15:08:20-07:00,2.983412027359,2,versionA_stim.csv,READVersionB.csv,"Read Version B","Dissertation, read only version B",BASEBALL,LEAGUE,Study2,B,131,101,Test,User,-,,Recall,Recall1,2470,ball,20,1687,2182,0,0,,1
5d94bc369ad7de0019b03ac3,5w347igb4x,Nick_Dissertation_EX1,1,172,2020-07-08T15:08:25-07:00,5.443855047226,2,versionA_stim.csv,READVersionB.csv,"Read Version B","Dissertation, read only version B",MAIN,SCAR,Study2,U,175,148,Test,User,-,,Recall,Recall1,4957,,0,-1,-1,0,0,,1
5d94bc369ad7de0019b03ac3,5w347igb4x,Nick_Dissertation_EX1,1,173,2020-07-08T15:08:28-07:00,3.0640439987183,2,versionA_stim.csv,READVersionB.csv,"Read Version B","Dissertation, read only version B",CACTUS,PLANT,Study2,F,98,139,Test,User,-,,Recall,Recall1,2521,plant,100,1570,2264,1,1,,1
5d94bc369ad7de0019b03ac3,5w347igb4x,Nick_Dissertation_EX1,1,174,2020-07-08T15:08:31-07:00,2.4418158531189,2,versionA_stim.csv,READVersionB.csv,"Read Version B","Dissertation, read only version B",EXTENSION,LONG,Study2,F,96,111,Test,User,-,,Recall,Recall1,1855,,0,-1,-1,0,0,,1
5d94bc369ad7de0019b03ac3,5w347igb4x,Nick_Dissertation_EX1,1,175,2020-07-08T15:08:57-07:00,26.720677137375,2,versionA_stim.csv,READVersionB.csv,"Read Version B","Dissertation, read only version B",,,,,,0,Instruct,-,10,"You will now be presented with a new set of word pairs. Please study each pair. Remember that your memory will be tested! When finished, press Enter to move to the next pair.",Initial_Instruct,Instruct4,26046,,,-1,-1,,,,1
5d94bc369ad7de0019b03ac3,5w347igb4x,Nick_Dissertation_EX1,1,176,2020-07-08T15:09:05-07:00,8.077339887619,2,versionA_stim.csv,READVersionB.csv,"Read Version B","Dissertation, read only version B",SCARE,HIDE,BUFFER1,Buffer,4,2,Study,User,-,,Study/JOL,BUFFER3,7505,,,-1,-1,,,,1
5d94bc369ad7de0019b03ac3,5w347igb4x,Nick_Dissertation_EX1,1,177,2020-07-08T15:09:13-07:00,7.1686079502106,2,versionA_stim.csv,READVersionB.csv,"Read Version B","Dissertation, read only version B",PEANUT,BUTTER,BUFFER1,Buffer,3,5,Study,User,-,,Study/JOL,BUFFER3,6605,,,-1,-1,,,,1
5d94bc369ad7de0019b03ac3,5w347igb4x,Nick_Dissertation_EX1,1,178,2020-07-08T15:09:20-07:00,7.0487670898438,2,versionA_stim.csv,READVersionB.csv,"Read Version B","Dissertation, read only version B",SPACE,JAM,BUFFER1,Buffer,5,4,Study,User,-,,Study/JOL,BUFFER3,6546,,,-1,-1,,,,1
5d94bc369ad7de0019b03ac3,5w347igb4x,Nick_Dissertation_EX1,1,179,2020-07-08T15:09:28-07:00,8.4306950569153,2,versionA_stim.csv,READVersionB.csv,"Read Version B","Dissertation, read only version B",BASEBALL,CATCHER,BUFFER1,Buffer,2,6,Study,User,-,,Study/JOL,BUFFER3,7901,,,-1,-1,,,,1
5d94bc369ad7de0019b03ac3,5w347igb4x,Nick_Dissertation_EX1,1,180,2020-07-08T15:09:34-07:00,5.8588888645172,2,versionA_stim.csv,READVersionB.csv,"Read Version B","Dissertation, read only version B",TREES,GREEN,BUFFER1,Buffer,1,3,Study,User,-,,Study/JOL,BUFFER3,5400,,,-1,-1,,,,1
5d94bc369ad7de0019b03ac3,5w347igb4x,Nick_Dissertation_EX1,1,181,2020-07-08T15:09:41-07:00,6.6037471294403,2,versionA_stim.csv,READVersionB.csv,"Read Version B","Dissertation, read only version B",BRIDGE,WATER,Study1,F,18,13,Study,User,-,,Study/JOL,"Study Phase2",6135,,,-1,-1,,,,1
5d94bc369ad7de0019b03ac3,5w347igb4x,Nick_Dissertation_EX1,1,182,2020-07-08T15:09:47-07:00,6.3547658920288,2,versionA_stim.csv,READVersionB.csv,"Read Version B","Dissertation, read only version B",DRINK,SIP,Study1,B,27,71,Study,User,-,,Study/JOL,"Study Phase2",5844,,,-1,-1,,,,1
5d94bc369ad7de0019b03ac3,5w347igb4x,Nick_Dissertation_EX1,1,183,2020-07-08T15:09:55-07:00,8.4641029834747,2,versionA_stim.csv,READVersionB.csv,"Read Version B","Dissertation, read only version B",PLANE,PILOT,Study1,B,44,59,Study,User,-,,Study/JOL,"Study Phase2",6949,,,-1,-1,,,,1
5d94bc369ad7de0019b03ac3,5w347igb4x,Nick_Dissertation_EX1,1,184,2020-07-08T15:10:03-07:00,7.2362489700317,2,versionA_stim.csv,READVersionB.csv,"Read Version B","Dissertation, read only version B",LETTUCE,SALAD,Study1,S,59,43,Study,User,-,,Study/JOL,"Study Phase2",6698,,,-1,-1,,,,1
5d94bc369ad7de0019b03ac3,5w347igb4x,Nick_Dissertation_EX1,1,185,2020-07-08T15:10:09-07:00,6.3447470664978,2,versionA_stim.csv,READVersionB.csv,"Read Version B","Dissertation, read only version B",FIX,HAND,Study1,U,75,20,Study,User,-,,Study/JOL,"Study Phase2",5838,,,-1,-1,,,,1
5d94bc369ad7de0019b03ac3,5w347igb4x,Nick_Dissertation_EX1,1,186,2020-07-08T15:10:17-07:00,7.7140700817108,2,versionA_stim.csv,READVersionB.csv,"Read Version B","Dissertation, read only version B",VALLEY,ADD,Study1,U,82,74,Study,User,-,,Study/JOL,"Study Phase2",7174,,,-1,-1,,,,1
5d94bc369ad7de0019b03ac3,5w347igb4x,Nick_Dissertation_EX1,1,187,2020-07-08T15:10:29-07:00,12.181277990341,2,versionA_stim.csv,READVersionB.csv,"Read Version B","Dissertation, read only version B",ARCHITECTURE,DESIGN,Study1,S,51,15,Study,User,-,,Study/JOL,"Study Phase2",11481,,,-1,-1,,,,1
5d94bc369ad7de0019b03ac3,5w347igb4x,Nick_Dissertation_EX1,1,188,2020-07-08T15:10:36-07:00,7.126051902771,2,versionA_stim.csv,READVersionB.csv,"Read Version B","Dissertation, read only version B",HUNGER,FAMINE,Study1,B,40,14,Study,User,-,,Study/JOL,"Study Phase2",6533,,,-1,-1,,,,1
5d94bc369ad7de0019b03ac3,5w347igb4x,Nick_Dissertation_EX1,1,189,2020-07-08T15:10:40-07:00,3.5980200767517,2,versionA_stim.csv,READVersionB.csv,"Read Version B","Dissertation, read only version B",ORCHID,FLOWER,Study1,F,24,39,Study,User,-,,Study/JOL,"Study Phase2",2791,,,-1,-1,,,,1
5d94bc369ad7de0019b03ac3,5w347igb4x,Nick_Dissertation_EX1,1,190,2020-07-08T15:10:45-07:00,5.5725998878479,2,versionA_stim.csv,READVersionB.csv,"Read Version B","Dissertation, read only version B",CASH,WOULD,Study1,U,83,66,Study,User,-,,Study/JOL,"Study Phase2",5061,,,-1,-1,,,,1
5d94bc369ad7de0019b03ac3,5w347igb4x,Nick_Dissertation_EX1,1,191,2020-07-08T15:10:53-07:00,7.7680101394653,2,versionA_stim.csv,READVersionB.csv,"Read Version B","Dissertation, read only version B",TUNA,FISH,Study1,F,25,50,Study,User,-,,Study/JOL,"Study Phase2",7248,,,-1,-1,,,,1
5d94bc369ad7de0019b03ac3,5w347igb4x,Nick_Dissertation_EX1,1,192,2020-07-08T15:10:57-07:00,4.1281459331512,2,versionA_stim.csv,READVersionB.csv,"Read Version B","Dissertation, read only version B",TAKE,SEIZE,Study1,B,29,47,Study,User,-,,Study/JOL,"Study Phase2",3657,,,-1,-1,,,,1
5d94bc369ad7de0019b03ac3,5w347igb4x,Nick_Dissertation_EX1,1,193,2020-07-08T15:11:06-07:00,9.0743570327759,2,versionA_stim.csv,READVersionB.csv,"Read Version B","Dissertation, read only version B",FULL,ENOUGH,Study1,B,26,22,Study,User,-,,Study/JOL,"Study Phase2",8538,,,-1,-1,,,,1
5d94bc369ad7de0019b03ac3,5w347igb4x,Nick_Dissertation_EX1,1,194,2020-07-08T15:12:09-07:00,62.631741046906,2,versionA_stim.csv,READVersionB.csv,"Read Version B","Dissertation, read only version B",BUG,WASP,Study1,B,32,31,Study,User,-,,Study/JOL,"Study Phase2",15244,,,-1,-1,,,,1
5d94bc369ad7de0019b03ac3,5w347igb4x,Nick_Dissertation_EX1,1,195,2020-07-08T15:12:15-07:00,6.3541510105133,2,versionA_stim.csv,READVersionB.csv,"Read Version B","Dissertation, read only version B",HERD,COW,Study1,F,22,72,Study,User,-,,Study/JOL,"Study Phase2",5840,,,-1,-1,,,,1
5d94bc369ad7de0019b03ac3,5w347igb4x,Nick_Dissertation_EX1,1,196,2020-07-08T15:12:20-07:00,5.4067678451538,2,versionA_stim.csv,READVersionB.csv,"Read Version B","Dissertation, read only version B",SUGAR,RIDDLE,Study1,U,81,84,Study,User,-,,Study/JOL,"Study Phase2",4899,,,-1,-1,,,,1
5d94bc369ad7de0019b03ac3,5w347igb4x,Nick_Dissertation_EX1,1,197,2020-07-08T15:12:27-07:00,7.0232419967651,2,versionA_stim.csv,READVersionB.csv,"Read Version B","Dissertation, read only version B",SENTENCE,WORD,Study1,B,31,46,Study,User,-,,Study/JOL,"Study Phase2",6465,,,-1,-1,,,,1
5d94bc369ad7de0019b03ac3,5w347igb4x,Nick_Dissertation_EX1,1,198,2020-07-08T15:12:35-07:00,7.2205710411072,2,versionA_stim.csv,READVersionB.csv,"Read Version B","Dissertation, read only version B",CREDIT,CARD,Study1,F,23,8,Study,User,-,,Study/JOL,"Study Phase2",6575,,,-1,-1,,,,1
5d94bc369ad7de0019b03ac3,5w347igb4x,Nick_Dissertation_EX1,1,199,2020-07-08T15:12:41-07:00,5.9791789054871,2,versionA_stim.csv,READVersionB.csv,"Read Version B","Dissertation, read only version B",HIDE,SICK,Study1,U,84,52,Study,User,-,,Study/JOL,"Study Phase2",4810,,,-1,-1,,,,1
5d94bc369ad7de0019b03ac3,5w347igb4x,Nick_Dissertation_EX1,1,200,2020-07-08T15:12:47-07:00,6.1349411010742,2,versionA_stim.csv,READVersionB.csv,"Read Version B","Dissertation, read only version B",LIFT,WOMAN,Study1,U,69,51,Study,User,-,,Study/JOL,"Study Phase2",5622,,,-1,-1,,,,1
5d94bc369ad7de0019b03ac3,5w347igb4x,Nick_Dissertation_EX1,1,201,2020-07-08T15:12:53-07:00,6.5491878986359,2,versionA_stim.csv,READVersionB.csv,"Read Version B","Dissertation, read only version B",SOON,BELT,Study1,U,70,23,Study,User,-,,Study/JOL,"Study Phase2",6032,,,-1,-1,,,,1
5d94bc369ad7de0019b03ac3,5w347igb4x,Nick_Dissertation_EX1,1,202,2020-07-08T15:12:59-07:00,5.2660782337189,2,versionA_stim.csv,READVersionB.csv,"Read Version B","Dissertation, read only version B",REVOLUTION,WAR,Study1,F,20,24,Study,User,-,,Study/JOL,"Study Phase2",4780,,,-1,-1,,,,1
5d94bc369ad7de0019b03ac3,5w347igb4x,Nick_Dissertation_EX1,1,203,2020-07-08T15:13:05-07:00,6.804388999939,2,versionA_stim.csv,READVersionB.csv,"Read Version B","Dissertation, read only version B",SMELL,STENCH,Study1,B,42,68,Study,User,-,,Study/JOL,"Study Phase2",6291,,,-1,-1,,,,1
5d94bc369ad7de0019b03ac3,5w347igb4x,Nick_Dissertation_EX1,1,204,2020-07-08T15:13:12-07:00,6.6024839878082,2,versionA_stim.csv,READVersionB.csv,"Read Version B","Dissertation, read only version B",GREAT,FANTASTIC,Study1,B,35,42,Study,User,-,,Study/JOL,"Study Phase2",6081,,,-1,-1,,,,1
5d94bc369ad7de0019b03ac3,5w347igb4x,Nick_Dissertation_EX1,1,205,2020-07-08T15:13:21-07:00,9.1918759346008,2,versionA_stim.csv,READVersionB.csv,"Read Version B","Dissertation, read only version B",MEANING,DEFINITION,Study1,S,62,60,Study,User,-,,Study/JOL,"Study Phase2",8698,,,-1,-1,,,,1
5d94bc369ad7de0019b03ac3,5w347igb4x,Nick_Dissertation_EX1,1,206,2020-07-08T15:13:30-07:00,8.9429268836975,2,versionA_stim.csv,READVersionB.csv,"Read Version B","Dissertation, read only version B",PUSHER,CLUTTER,Study1,U,66,10,Study,User,-,,Study/JOL,"Study Phase2",8406,,,-1,-1,,,,1
5d94bc369ad7de0019b03ac3,5w347igb4x,Nick_Dissertation_EX1,1,207,2020-07-08T15:13:44-07:00,13.376235961914,2,versionA_stim.csv,READVersionB.csv,"Read Version B","Dissertation, read only version B",DIGESTION,STOMACH,Study1,F,7,76,Study,User,-,,Study/JOL,"Study Phase2",12640,,,-1,-1,,,,1
5d94bc369ad7de0019b03ac3,5w347igb4x,Nick_Dissertation_EX1,1,208,2020-07-08T15:13:46-07:00,2.2130641937256,2,versionA_stim.csv,READVersionB.csv,"Read Version B","Dissertation, read only version B",CIRCLE,ROUND,Study1,S,65,49,Study,User,-,,Study/JOL,"Study Phase2",1723,,,-1,-1,,,,1
5d94bc369ad7de0019b03ac3,5w347igb4x,Nick_Dissertation_EX1,1,209,2020-07-08T15:13:57-07:00,10.960134983063,2,versionA_stim.csv,READVersionB.csv,"Read Version B","Dissertation, read only version B",FIRE,BLAZE,Study1,B,45,34,Study,User,-,,Study/JOL,"Study Phase2",10284,,,-1,-1,,,,1
5d94bc369ad7de0019b03ac3,5w347igb4x,Nick_Dissertation_EX1,1,210,2020-07-08T15:13:59-07:00,2.4424920082092,2,versionA_stim.csv,READVersionB.csv,"Read Version B","Dissertation, read only version B",KING,VASE,Study1,U,85,85,Study,User,-,,Study/JOL,"Study Phase2",1660,,,-1,-1,,,,1
5d94bc369ad7de0019b03ac3,5w347igb4x,Nick_Dissertation_EX1,1,211,2020-07-08T15:14:06-07:00,7.1243209838867,2,versionA_stim.csv,READVersionB.csv,"Read Version B","Dissertation, read only version B",SHOE,FOOT,Study1,S,60,26,Study,User,-,,Study/JOL,"Study Phase2",5915,,,-1,-1,,,,1
5d94bc369ad7de0019b03ac3,5w347igb4x,Nick_Dissertation_EX1,1,212,2020-07-08T15:14:11-07:00,4.6060400009155,2,versionA_stim.csv,READVersionB.csv,"Read Version B","Dissertation, read only version B",HEIGHT,GROWTH,Study1,B,30,86,Study,User,-,,Study/JOL,"Study Phase2",3955,,,-1,-1,,,,1
5d94bc369ad7de0019b03ac3,5w347igb4x,Nick_Dissertation_EX1,1,213,2020-07-08T15:14:17-07:00,6.3491389751434,2,versionA_stim.csv,READVersionB.csv,"Read Version B","Dissertation, read only version B",ALLOW,TUCK,Study1,U,78,17,Study,User,-,,Study/JOL,"Study Phase2",5851,,,-1,-1,,,,1
5d94bc369ad7de0019b03ac3,5w347igb4x,Nick_Dissertation_EX1,1,214,2020-07-08T15:14:23-07:00,5.5480918884277,2,versionA_stim.csv,READVersionB.csv,"Read Version B","Dissertation, read only version B",WAY,OUT,Study1,F,16,36,Study,User,-,,Study/JOL,"Study Phase2",4982,,,-1,-1,,,,1
5d94bc369ad7de0019b03ac3,5w347igb4x,Nick_Dissertation_EX1,1,215,2020-07-08T15:14:54-07:00,31.597643136978,2,versionA_stim.csv,READVersionB.csv,"Read Version B","Dissertation, read only version B",ART,LION,Study1,U,79,38,Study,User,-,,Study/JOL,"Study Phase2",3667,,,-1,-1,,,,1
5d94bc369ad7de0019b03ac3,5w347igb4x,Nick_Dissertation_EX1,1,216,2020-07-08T15:14:59-07:00,5.0271298885345,2,versionA_stim.csv,READVersionB.csv,"Read Version B","Dissertation, read only version B",GRILL,BAR,Study1,S,52,28,Study,User,-,,Study/JOL,"Study Phase2",4551,,,-1,-1,,,,1
5d94bc369ad7de0019b03ac3,5w347igb4x,Nick_Dissertation_EX1,1,217,2020-07-08T15:15:08-07:00,8.4296369552612,2,versionA_stim.csv,READVersionB.csv,"Read Version B","Dissertation, read only version B",HOT,CHILI,Study1,B,37,80,Study,User,-,,Study/JOL,"Study Phase2",7806,,,-1,-1,,,,1
5d94bc369ad7de0019b03ac3,5w347igb4x,Nick_Dissertation_EX1,1,218,2020-07-08T15:15:11-07:00,3.2972509860992,2,versionA_stim.csv,READVersionB.csv,"Read Version B","Dissertation, read only version B",KEY,LATCH,Study1,B,36,58,Study,User,-,,Study/JOL,"Study Phase2",2777,,,-1,-1,,,,1
5d94bc369ad7de0019b03ac3,5w347igb4x,Nick_Dissertation_EX1,1,219,2020-07-08T15:15:16-07:00,5.2993631362915,2,versionA_stim.csv,READVersionB.csv,"Read Version B","Dissertation, read only version B",DEBATE,SIGHT,Study1,U,73,25,Study,User,-,,Study/JOL,"Study Phase2",4794,,,-1,-1,,,,1
5d94bc369ad7de0019b03ac3,5w347igb4x,Nick_Dissertation_EX1,1,220,2020-07-08T15:15:23-07:00,6.5274050235748,2,versionA_stim.csv,READVersionB.csv,"Read Version B","Dissertation, read only version B",POP,SODA,Study1,S,56,61,Study,User,-,,Study/JOL,"Study Phase2",6056,,,-1,-1,,,,1
5d94bc369ad7de0019b03ac3,5w347igb4x,Nick_Dissertation_EX1,1,221,2020-07-08T15:15:29-07:00,6.0967569351196,2,versionA_stim.csv,READVersionB.csv,"Read Version B","Dissertation, read only version B",BALL,RACKET,Study1,B,38,27,Study,User,-,,Study/JOL,"Study Phase2",5552,,,-1,-1,,,,1
5d94bc369ad7de0019b03ac3,5w347igb4x,Nick_Dissertation_EX1,1,222,2020-07-08T15:15:34-07:00,5.2690451145172,2,versionA_stim.csv,READVersionB.csv,"Read Version B","Dissertation, read only version B",DUMP,WASTE,Study1,S,49,55,Study,User,-,,Study/JOL,"Study Phase2",4734,,,-1,-1,,,,1
5d94bc369ad7de0019b03ac3,5w347igb4x,Nick_Dissertation_EX1,1,223,2020-07-08T15:15:44-07:00,9.6671199798584,2,versionA_stim.csv,READVersionB.csv,"Read Version B","Dissertation, read only version B",DEATH,BUSINESS,Study1,U,72,37,Study,User,-,,Study/JOL,"Study Phase2",9123,,,-1,-1,,,,1
5d94bc369ad7de0019b03ac3,5w347igb4x,Nick_Dissertation_EX1,1,224,2020-07-08T15:15:48-07:00,3.5763568878174,2,versionA_stim.csv,READVersionB.csv,"Read Version B","Dissertation, read only version B",BLOW,WIND,Study1,S,55,83,Study,User,-,,Study/JOL,"Study Phase2",3051,,,-1,-1,,,,1
5d94bc369ad7de0019b03ac3,5w347igb4x,Nick_Dissertation_EX1,1,225,2020-07-08T15:15:52-07:00,4.7359719276428,2,versionA_stim.csv,READVersionB.csv,"Read Version B","Dissertation, read only version B",MATH,DIVISION,Study1,B,33,62,Study,User,-,,Study/JOL,"Study Phase2",4235,,,-1,-1,,,,1
5d94bc369ad7de0019b03ac3,5w347igb4x,Nick_Dissertation_EX1,1,226,2020-07-08T15:16:00-07:00,8.0939571857452,2,versionA_stim.csv,READVersionB.csv,"Read Version B","Dissertation, read only version B",GEOLOGY,ROCK,Study1,F,19,63,Study,User,-,,Study/JOL,"Study Phase2",7576,,,-1,-1,,,,1
5d94bc369ad7de0019b03ac3,5w347igb4x,Nick_Dissertation_EX1,1,227,2020-07-08T15:16:08-07:00,7.3402500152588,2,versionA_stim.csv,READVersionB.csv,"Read Version B","Dissertation, read only version B",DISCUSSION,TALK,Study1,F,21,21,Study,User,-,,Study/JOL,"Study Phase2",6827,,,-1,-1,,,,1
5d94bc369ad7de0019b03ac3,5w347igb4x,Nick_Dissertation_EX1,1,228,2020-07-08T15:16:14-07:00,6.731871843338,2,versionA_stim.csv,READVersionB.csv,"Read Version B","Dissertation, read only version B",WORK,CHORE,Study1,B,39,32,Study,User,-,,Study/JOL,"Study Phase2",6162,,,-1,-1,,,,1
5d94bc369ad7de0019b03ac3,5w347igb4x,Nick_Dissertation_EX1,1,229,2020-07-08T15:16:26-07:00,11.974547147751,2,versionA_stim.csv,READVersionB.csv,"Read Version B","Dissertation, read only version B",HAPPY,CAR,Study1,U,77,19,Study,User,-,,Study/JOL,"Study Phase2",11261,,,-1,-1,,,,1
5d94bc369ad7de0019b03ac3,5w347igb4x,Nick_Dissertation_EX1,1,230,2020-07-08T15:16:35-07:00,8.4337108135223,2,versionA_stim.csv,READVersionB.csv,"Read Version B","Dissertation, read only version B",DUE,ASSIGNMENT,Study1,S,46,40,Study,User,-,,Study/JOL,"Study Phase2",7454,,,-1,-1,,,,1
5d94bc369ad7de0019b03ac3,5w347igb4x,Nick_Dissertation_EX1,1,231,2020-07-08T15:16:42-07:00,6.8769490718842,2,versionA_stim.csv,READVersionB.csv,"Read Version B","Dissertation, read only version B",LOCATION,SITE,Study1,S,48,57,Study,User,-,,Study/JOL,"Study Phase2",6271,,,-1,-1,,,,1
5d94bc369ad7de0019b03ac3,5w347igb4x,Nick_Dissertation_EX1,1,232,2020-07-08T15:16:47-07:00,5.5079081058502,2,versionA_stim.csv,READVersionB.csv,"Read Version B","Dissertation, read only version B",MACHINE,POSITION,Study1,U,76,70,Study,User,-,,Study/JOL,"Study Phase2",4936,,,-1,-1,,,,1
5d94bc369ad7de0019b03ac3,5w347igb4x,Nick_Dissertation_EX1,1,233,2020-07-08T15:17:27-07:00,39.575846910477,2,versionA_stim.csv,READVersionB.csv,"Read Version B","Dissertation, read only version B",HONEY,BEE,Study1,S,63,44,Study,User,-,,Study/JOL,"Study Phase2",9852,,,-1,-1,,,,1
5d94bc369ad7de0019b03ac3,5w347igb4x,Nick_Dissertation_EX1,1,234,2020-07-08T15:17:30-07:00,3.0098021030426,2,versionA_stim.csv,READVersionB.csv,"Read Version B","Dissertation, read only version B",DELINQUENT,BAD,Study1,F,6,9,Study,User,-,,Study/JOL,"Study Phase2",2306,,,-1,-1,,,,1
5d94bc369ad7de0019b03ac3,5w347igb4x,Nick_Dissertation_EX1,1,235,2020-07-08T15:17:43-07:00,12.742862939835,2,versionA_stim.csv,READVersionB.csv,"Read Version B","Dissertation, read only version B",PAW,DOG,Study1,F,15,78,Study,User,-,,Study/JOL,"Study Phase2",12058,,,-1,-1,,,,1
5d94bc369ad7de0019b03ac3,5w347igb4x,Nick_Dissertation_EX1,1,236,2020-07-08T15:17:45-07:00,1.9084920883179,2,versionA_stim.csv,READVersionB.csv,"Read Version B","Dissertation, read only version B",BABY,CHILD,Study1,S,64,29,Study,User,-,,Study/JOL,"Study Phase2",1460,,,-1,-1,,,,1
5d94bc369ad7de0019b03ac3,5w347igb4x,Nick_Dissertation_EX1,1,237,2020-07-08T15:17:54-07:00,9.6812918186188,2,versionA_stim.csv,READVersionB.csv,"Read Version B","Dissertation, read only version B",BEGIN,END,Study1,S,54,77,Study,User,-,,Study/JOL,"Study Phase2",8965,,,-1,-1,,,,1
5d94bc369ad7de0019b03ac3,5w347igb4x,Nick_Dissertation_EX1,1,238,2020-07-08T15:17:57-07:00,2.8322751522064,2,versionA_stim.csv,READVersionB.csv,"Read Version B","Dissertation, read only version B",BATHROOM,TOILET,Study1,S,58,7,Study,User,-,,Study/JOL,"Study Phase2",2329,,,-1,-1,,,,1
5d94bc369ad7de0019b03ac3,5w347igb4x,Nick_Dissertation_EX1,1,239,2020-07-08T15:18:05-07:00,7.8003690242767,2,versionA_stim.csv,READVersionB.csv,"Read Version B","Dissertation, read only version B",SLEEP,DROWSY,Study1,B,41,75,Study,User,-,,Study/JOL,"Study Phase2",7229,,,-1,-1,,,,1
5d94bc369ad7de0019b03ac3,5w347igb4x,Nick_Dissertation_EX1,1,240,2020-07-08T15:18:17-07:00,11.782269001007,2,versionA_stim.csv,READVersionB.csv,"Read Version B","Dissertation, read only version B",HORNET,STING,Study1,F,11,11,Study,User,-,,Study/JOL,"Study Phase2",11080,,,-1,-1,,,,1
5d94bc369ad7de0019b03ac3,5w347igb4x,Nick_Dissertation_EX1,1,241,2020-07-08T15:18:27-07:00,10.668352842331,2,versionA_stim.csv,READVersionB.csv,"Read Version B","Dissertation, read only version B",DIETARY,SACKING,Study1,U,67,12,Study,User,-,,Study/JOL,"Study Phase2",9980,,,-1,-1,,,,1
5d94bc369ad7de0019b03ac3,5w347igb4x,Nick_Dissertation_EX1,1,242,2020-07-08T15:18:34-07:00,6.8163380622864,2,versionA_stim.csv,READVersionB.csv,"Read Version B","Dissertation, read only version B",BITTER,COLD,Study1,F,12,54,Study,User,-,,Study/JOL,"Study Phase2",5237,,,-1,-1,,,,1
5d94bc369ad7de0019b03ac3,5w347igb4x,Nick_Dissertation_EX1,1,243,2020-07-08T15:18:42-07:00,8.2375640869141,2,versionA_stim.csv,READVersionB.csv,"Read Version B","Dissertation, read only version B",NUMBER,AMOUNT,Study1,S,47,69,Study,User,-,,Study/JOL,"Study Phase2",6734,,,-1,-1,,,,1
5d94bc369ad7de0019b03ac3,5w347igb4x,Nick_Dissertation_EX1,1,244,2020-07-08T15:18:49-07:00,6.9277169704437,2,versionA_stim.csv,READVersionB.csv,"Read Version B","Dissertation, read only version B",WAGE,MONEY,Study1,F,8,53,Study,User,-,,Study/JOL,"Study Phase2",6341,,,-1,-1,,,,1
5d94bc369ad7de0019b03ac3,5w347igb4x,Nick_Dissertation_EX1,1,245,2020-07-08T15:19:51-07:00,61.425631999969,2,versionA_stim.csv,READVersionB.csv,"Read Version B","Dissertation, read only version B",ROOT,PLANT,Study1,F,13,30,Study,User,-,,Study/JOL,"Study Phase2",20407,,,-1,-1,,,,1
5d94bc369ad7de0019b03ac3,5w347igb4x,Nick_Dissertation_EX1,1,246,2020-07-08T15:20:01-07:00,10.722254991531,2,versionA_stim.csv,READVersionB.csv,"Read Version B","Dissertation, read only version B",HYGIENE,CLEAN,Study1,F,17,41,Study,User,-,,Study/JOL,"Study Phase2",10029,,,-1,-1,,,,1
5d94bc369ad7de0019b03ac3,5w347igb4x,Nick_Dissertation_EX1,1,247,2020-07-08T15:20:13-07:00,11.18411898613,2,versionA_stim.csv,READVersionB.csv,"Read Version B","Dissertation, read only version B",DISCOVER,FLOOR,Study1,U,71,16,Study,User,-,,Study/JOL,"Study Phase2",10515,,,-1,-1,,,,1
5d94bc369ad7de0019b03ac3,5w347igb4x,Nick_Dissertation_EX1,1,248,2020-07-08T15:20:21-07:00,8.5705769062042,2,versionA_stim.csv,READVersionB.csv,"Read Version B","Dissertation, read only version B",CHISEL,HAMMER,Study1,F,9,64,Study,User,-,,Study/JOL,"Study Phase2",8026,,,-1,-1,,,,1
5d94bc369ad7de0019b03ac3,5w347igb4x,Nick_Dissertation_EX1,1,249,2020-07-08T15:20:26-07:00,4.3577120304108,2,versionA_stim.csv,READVersionB.csv,"Read Version B","Dissertation, read only version B",PARK,HUNGRY,Study1,U,68,82,Study,User,-,,Study/JOL,"Study Phase2",3817,,,-1,-1,,,,1
5d94bc369ad7de0019b03ac3,5w347igb4x,Nick_Dissertation_EX1,1,250,2020-07-08T15:20:35-07:00,9.6967260837555,2,versionA_stim.csv,READVersionB.csv,"Read Version B","Dissertation, read only version B",DARK,CAVE,Study1,B,28,18,Study,User,-,,Study/JOL,"Study Phase2",9154,,,-1,-1,,,,1
5d94bc369ad7de0019b03ac3,5w347igb4x,Nick_Dissertation_EX1,1,251,2020-07-08T15:20:42-07:00,6.869236946106,2,versionA_stim.csv,READVersionB.csv,"Read Version B","Dissertation, read only version B",SWAN,BIRD,Study1,F,14,73,Study,User,-,,Study/JOL,"Study Phase2",6376,,,-1,-1,,,,1
5d94bc369ad7de0019b03ac3,5w347igb4x,Nick_Dissertation_EX1,1,252,2020-07-08T15:20:50-07:00,8.1046528816223,2,versionA_stim.csv,READVersionB.csv,"Read Version B","Dissertation, read only version B",ARTERY,BRONZE,Study1,U,74,33,Study,User,-,,Study/JOL,"Study Phase2",7610,,,-1,-1,,,,1
5d94bc369ad7de0019b03ac3,5w347igb4x,Nick_Dissertation_EX1,1,253,2020-07-08T15:20:58-07:00,7.7462739944458,2,versionA_stim.csv,READVersionB.csv,"Read Version B","Dissertation, read only version B",CLOTHES,ATTIRE,Study1,B,43,65,Study,User,-,,Study/JOL,"Study Phase2",7125,,,-1,-1,,,,1
5d94bc369ad7de0019b03ac3,5w347igb4x,Nick_Dissertation_EX1,1,254,2020-07-08T15:21:05-07:00,6.7857370376587,2,versionA_stim.csv,READVersionB.csv,"Read Version B","Dissertation, read only version B",PAST,FUTURE,Study1,S,61,45,Study,User,-,,Study/JOL,"Study Phase2",6235,,,-1,-1,,,,1
5d94bc369ad7de0019b03ac3,5w347igb4x,Nick_Dissertation_EX1,1,255,2020-07-08T15:21:11-07:00,6.2295689582825,2,versionA_stim.csv,READVersionB.csv,"Read Version B","Dissertation, read only version B",KIDNEY,LIVER,Study1,S,53,67,Study,User,-,,Study/JOL,"Study Phase2",5752,,,-1,-1,,,,1
5d94bc369ad7de0019b03ac3,5w347igb4x,Nick_Dissertation_EX1,1,256,2020-07-08T15:21:19-07:00,8.2620141506195,2,versionA_stim.csv,READVersionB.csv,"Read Version B","Dissertation, read only version B",LAW,ATTORNEY,Study1,B,34,81,Study,User,-,,Study/JOL,"Study Phase2",7770,,,-1,-1,,,,1
5d94bc369ad7de0019b03ac3,5w347igb4x,Nick_Dissertation_EX1,1,257,2020-07-08T15:21:25-07:00,5.9143550395966,2,versionA_stim.csv,READVersionB.csv,"Read Version B","Dissertation, read only version B",WINE,CHEESE,Study1,S,57,79,Study,User,-,,Study/JOL,"Study Phase2",5411,,,-1,-1,,,,1
5d94bc369ad7de0019b03ac3,5w347igb4x,Nick_Dissertation_EX1,1,258,2020-07-08T15:21:35-07:00,10.132413864136,2,versionA_stim.csv,READVersionB.csv,"Read Version B","Dissertation, read only version B",EDITOR,NEWS,Study1,F,10,56,Study,User,-,,Study/JOL,"Study Phase2",9616,,,-1,-1,,,,1
5d94bc369ad7de0019b03ac3,5w347igb4x,Nick_Dissertation_EX1,1,259,2020-07-08T15:21:43-07:00,7.6750371456146,2,versionA_stim.csv,READVersionB.csv,"Read Version B","Dissertation, read only version B",STRONG,ACCIDENT,Study1,U,80,48,Study,User,-,,Study/JOL,"Study Phase2",7161,,,-1,-1,,,,1
5d94bc369ad7de0019b03ac3,5w347igb4x,Nick_Dissertation_EX1,1,260,2020-07-08T15:21:44-07:00,1.46790599823,2,versionA_stim.csv,READVersionB.csv,"Read Version B","Dissertation, read only version B",TRIAL,JURY,Study1,S,50,35,Study,User,-,,Study/JOL,"Study Phase2",978,,,-1,-1,,,,1
5d94bc369ad7de0019b03ac3,5w347igb4x,Nick_Dissertation_EX1,1,261,2020-07-08T15:21:54-07:00,9.1349759101868,2,versionA_stim.csv,READVersionB.csv,"Read Version B","Dissertation, read only version B",SHERRIF,POLICE,BUFFER2,Buffer,87,90,Study,User,-,,Study/JOL,BUFFER4,8371,,,-1,-1,,,,1
5d94bc369ad7de0019b03ac3,5w347igb4x,Nick_Dissertation_EX1,1,262,2020-07-08T15:22:01-07:00,7.7443399429321,2,versionA_stim.csv,READVersionB.csv,"Read Version B","Dissertation, read only version B",MALT,CHOCOLATE,BUFFER2,Buffer,88,88,Study,User,-,,Study/JOL,BUFFER4,7274,,,-1,-1,,,,1
5d94bc369ad7de0019b03ac3,5w347igb4x,Nick_Dissertation_EX1,1,263,2020-07-08T15:22:11-07:00,9.248279094696,2,versionA_stim.csv,READVersionB.csv,"Read Version B","Dissertation, read only version B",THING,STUFF,BUFFER2,Buffer,90,87,Study,User,-,,Study/JOL,BUFFER4,8666,,,-1,-1,,,,1
5d94bc369ad7de0019b03ac3,5w347igb4x,Nick_Dissertation_EX1,1,264,2020-07-08T15:22:19-07:00,8.6424739360809,2,versionA_stim.csv,READVersionB.csv,"Read Version B","Dissertation, read only version B",MOON,SPACE,BUFFER2,Buffer,89,91,Study,User,-,,Study/JOL,BUFFER4,8162,,,-1,-1,,,,1
5d94bc369ad7de0019b03ac3,5w347igb4x,Nick_Dissertation_EX1,1,265,2020-07-08T15:22:27-07:00,7.4256889820099,2,versionA_stim.csv,READVersionB.csv,"Read Version B","Dissertation, read only version B",GEESE,GOOSE,BUFFER2,Buffer,86,89,Study,User,-,,Study/JOL,BUFFER4,6924,,,-1,-1,,,,1
5d94bc369ad7de0019b03ac3,5w347igb4x,Nick_Dissertation_EX1,1,266,2020-07-08T15:22:33-07:00,6.1798450946808,2,versionA_stim.csv,READVersionB.csv,"Read Version B","Dissertation, read only version B",,,,,,0,Instruct,User,-,"You have completed this section. Please press Enter.",Filler_Instruction,Instruct5,5262,,,-1,-1,,,,1
5d94bc369ad7de0019b03ac3,5w347igb4x,Nick_Dissertation_EX1,1,267,2020-07-08T15:24:35-07:00,122.15174484253,2,versionA_stim.csv,READVersionB.csv,"Read Version B","Dissertation, read only version B",,,,,,0,FreeRecall,120,120,"Please list the 50 US states in reverse alphabetical order (z - a). The task will automatically advance to the next screen after two minutes.",,Filler2,120006,"Washington Vermont New York New Hampshire New Jersey Kentucky",0,35197,114869,0,0,,0.821
5d94bc369ad7de0019b03ac3,5w347igb4x,Nick_Dissertation_EX1,1,268,2020-07-08T15:24:47-07:00,12.55230307579,2,versionA_stim.csv,READVersionB.csv,"Read Version B","Dissertation, read only version B",,,,,,0,Instruct,-,10,"You will now be presented with the first word from each of the previously studied item pairs. Please type the missing word. If you do not know the word, you may guess or press Enter to skip forward to the next pair.",,Instruct6,11889,,,-1,-1,,,,1
5d94bc369ad7de0019b03ac3,5w347igb4x,Nick_Dissertation_EX1,1,269,2020-07-08T15:25:20-07:00,32.98991394043,2,versionA_stim.csv,READVersionB.csv,"Read Version B","Dissertation, read only version B",HAPPY,CAR,Study1,U,77,19,Test,User,-,,Recall,Recall2,32354,smile,0,29836,31433,0,0,,1
5d94bc369ad7de0019b03ac3,5w347igb4x,Nick_Dissertation_EX1,1,270,2020-07-08T15:25:38-07:00,17.101770162582,2,versionA_stim.csv,READVersionB.csv,"Read Version B","Dissertation, read only version B",VALLEY,ADD,Study1,U,82,74,Test,User,-,,Recall,Recall2,16448,low,0,14826,15496,0,0,,1
5d94bc369ad7de0019b03ac3,5w347igb4x,Nick_Dissertation_EX1,1,271,2020-07-08T15:25:47-07:00,9.5389640331268,2,versionA_stim.csv,READVersionB.csv,"Read Version B","Dissertation, read only version B",ORCHID,FLOWER,Study1,F,24,39,Test,User,-,,Recall,Recall2,9038,flower,100,6207,8102,1,1,,1
5d94bc369ad7de0019b03ac3,5w347igb4x,Nick_Dissertation_EX1,1,272,2020-07-08T15:26:04-07:00,16.83430981636,2,versionA_stim.csv,READVersionB.csv,"Read Version B","Dissertation, read only version B",DUE,ASSIGNMENT,Study1,S,46,40,Test,User,-,,Recall,Recall2,16058,assignment,100,9989,14986,1,1,,1
5d94bc369ad7de0019b03ac3,5w347igb4x,Nick_Dissertation_EX1,1,273,2020-07-08T15:26:11-07:00,7.1128091812134,2,versionA_stim.csv,READVersionB.csv,"Read Version B","Dissertation, read only version B",SUGAR,RIDDLE,Study1,U,81,84,Test,User,-,,Recall,Recall2,6603,fix,22.222222222222,4659,5538,0,0,,1
5d94bc369ad7de0019b03ac3,5w347igb4x,Nick_Dissertation_EX1,1,274,2020-07-08T15:26:21-07:00,10.310566902161,2,versionA_stim.csv,READVersionB.csv,"Read Version B","Dissertation, read only version B",ARCHITECTURE,DESIGN,Study1,S,51,15,Test,User,-,,Recall,Recall2,9251,,0,-1,-1,0,0,,1
5d94bc369ad7de0019b03ac3,5w347igb4x,Nick_Dissertation_EX1,1,275,2020-07-08T15:26:59-07:00,37.339534044266,2,versionA_stim.csv,READVersionB.csv,"Read Version B","Dissertation, read only version B",TUNA,FISH,Study1,F,25,50,Test,User,-,,Recall,Recall2,36627,fish,100,33564,35291,1,1,,1
5d94bc369ad7de0019b03ac3,5w347igb4x,Nick_Dissertation_EX1,1,276,2020-07-08T15:27:23-07:00,23.889167070389,2,versionA_stim.csv,READVersionB.csv,"Read Version B","Dissertation, read only version B",DIGESTION,STOMACH,Study1,F,7,76,Test,User,-,,Recall,Recall2,23193,absorb,15.384615384615,16818,22168,0,0,,1
5d94bc369ad7de0019b03ac3,5w347igb4x,Nick_Dissertation_EX1,1,277,2020-07-08T15:27:36-07:00,13.160773992538,2,versionA_stim.csv,READVersionB.csv,"Read Version B","Dissertation, read only version B",KEY,LATCH,Study1,B,36,58,Test,User,-,,Recall,Recall2,12510,hole,22.222222222222,10623,11629,0,0,,1
5d94bc369ad7de0019b03ac3,5w347igb4x,Nick_Dissertation_EX1,1,278,2020-07-08T15:27:44-07:00,8.079167842865,2,versionA_stim.csv,READVersionB.csv,"Read Version B","Dissertation, read only version B",GRILL,BAR,Study1,S,52,28,Test,User,-,,Recall,Recall2,7538,bar,100,5707,6458,1,1,,1
5d94bc369ad7de0019b03ac3,5w347igb4x,Nick_Dissertation_EX1,1,279,2020-07-08T15:27:55-07:00,11.19797205925,2,versionA_stim.csv,READVersionB.csv,"Read Version B","Dissertation, read only version B",STRONG,ACCIDENT,Study1,U,80,48,Test,User,-,,Recall,Recall2,10498,tough,15.384615384615,8138,9329,0,0,,1
5d94bc369ad7de0019b03ac3,5w347igb4x,Nick_Dissertation_EX1,1,280,2020-07-08T15:28:12-07:00,17.103067874908,2,versionA_stim.csv,READVersionB.csv,"Read Version B","Dissertation, read only version B",LIFT,WOMAN,Study1,U,69,51,Test,User,-,,Recall,Recall2,16426,up,0,15500,15922,0,0,,1
5d94bc369ad7de0019b03ac3,5w347igb4x,Nick_Dissertation_EX1,1,281,2020-07-08T15:28:44-07:00,31.948113203049,2,versionA_stim.csv,READVersionB.csv,"Read Version B","Dissertation, read only version B",WORK,CHORE,Study1,B,39,32,Test,User,-,,Recall,Recall2,31246,job,25,29496,30127,0,0,,1
5d94bc369ad7de0019b03ac3,5w347igb4x,Nick_Dissertation_EX1,1,282,2020-07-08T15:28:53-07:00,8.4466459751129,2,versionA_stim.csv,READVersionB.csv,"Read Version B","Dissertation, read only version B",PAW,DOG,Study1,F,15,78,Test,User,-,,Recall,Recall2,7900,animal,0,5092,7203,0,0,,1
5d94bc369ad7de0019b03ac3,5w347igb4x,Nick_Dissertation_EX1,1,283,2020-07-08T15:29:02-07:00,9.914598941803,2,versionA_stim.csv,READVersionB.csv,"Read Version B","Dissertation, read only version B",DARK,CAVE,Study1,B,28,18,Test,User,-,,Recall,Recall2,8958,cave,100,6894,8047,1,1,,1
5d94bc369ad7de0019b03ac3,5w347igb4x,Nick_Dissertation_EX1,1,284,2020-07-08T15:30:18-07:00,75.042124032974,2,versionA_stim.csv,READVersionB.csv,"Read Version B","Dissertation, read only version B",SENTENCE,WORD,Study1,B,31,46,Test,User,-,,Recall,Recall2,27025,word,100,24659,26121,1,1,,0.918
5d94bc369ad7de0019b03ac3,5w347igb4x,Nick_Dissertation_EX1,1,285,2020-07-08T15:30:50-07:00,32.693248033524,2,versionA_stim.csv,READVersionB.csv,"Read Version B","Dissertation, read only version B",BABY,CHILD,Study1,S,64,29,Test,User,-,,Recall,Recall2,32015,child,100,29673,31134,1,1,,1
5d94bc369ad7de0019b03ac3,5w347igb4x,Nick_Dissertation_EX1,1,286,2020-07-08T15:31:13-07:00,22.945063829422,2,versionA_stim.csv,READVersionB.csv,"Read Version B","Dissertation, read only version B",CLOTHES,ATTIRE,Study1,B,43,65,Test,User,-,,Recall,Recall2,22239,wear,20,20424,21174,0,0,,1
5d94bc369ad7de0019b03ac3,5w347igb4x,Nick_Dissertation_EX1,1,287,2020-07-08T15:31:22-07:00,8.5525841712952,2,versionA_stim.csv,READVersionB.csv,"Read Version B","Dissertation, read only version B",BLOW,WIND,Study1,S,55,83,Test,User,-,,Recall,Recall2,8024,job,0,6561,7215,0,0,,1
5d94bc369ad7de0019b03ac3,5w347igb4x,Nick_Dissertation_EX1,1,288,2020-07-08T15:31:55-07:00,33.326084852219,2,versionA_stim.csv,READVersionB.csv,"Read Version B","Dissertation, read only version B",BALL,RACKET,Study1,B,38,27,Test,User,-,,Recall,Recall2,32601,racket,100,29227,31465,1,1,,1
5d94bc369ad7de0019b03ac3,5w347igb4x,Nick_Dissertation_EX1,1,289,2020-07-08T15:32:18-07:00,22.944863080978,2,versionA_stim.csv,READVersionB.csv,"Read Version B","Dissertation, read only version B",PAST,FUTURE,Study1,S,61,45,Test,User,-,,Recall,Recall2,22217,future,100,20051,21344,1,1,,1
5d94bc369ad7de0019b03ac3,5w347igb4x,Nick_Dissertation_EX1,1,290,2020-07-08T15:33:03-07:00,45.164625883102,2,versionA_stim.csv,READVersionB.csv,"Read Version B","Dissertation, read only version B",REVOLUTION,WAR,Study1,F,20,24,Test,User,-,,Recall,Recall2,44474,war,100,42684,43354,1,1,,1
5d94bc369ad7de0019b03ac3,5w347igb4x,Nick_Dissertation_EX1,1,291,2020-07-08T15:33:23-07:00,19.449398040771,2,versionA_stim.csv,READVersionB.csv,"Read Version B","Dissertation, read only version B",ALLOW,TUCK,Study1,U,78,17,Test,User,-,,Recall,Recall2,18721,let,28.571428571429,16882,17784,0,0,,1
5d94bc369ad7de0019b03ac3,5w347igb4x,Nick_Dissertation_EX1,1,292,2020-07-08T15:33:48-07:00,25.619344949722,2,versionA_stim.csv,READVersionB.csv,"Read Version B","Dissertation, read only version B",MEANING,DEFINITION,Study1,S,62,60,Test,User,-,,Recall,Recall2,24208,definition,100,20362,23584,1,1,,1
5d94bc369ad7de0019b03ac3,5w347igb4x,Nick_Dissertation_EX1,1,293,2020-07-08T15:33:52-07:00,4.1600861549377,2,versionA_stim.csv,READVersionB.csv,"Read Version B","Dissertation, read only version B",DRINK,SIP,Study1,B,27,71,Test,User,-,,Recall,Recall2,3617,water,0,1842,2873,0,0,,1
5d94bc369ad7de0019b03ac3,5w347igb4x,Nick_Dissertation_EX1,1,294,2020-07-08T15:33:58-07:00,5.1414089202881,2,versionA_stim.csv,READVersionB.csv,"Read Version B","Dissertation, read only version B",FULL,ENOUGH,Study1,B,26,22,Test,User,-,,Recall,Recall2,4650,empty,18.181818181818,2539,3914,0,0,,1
5d94bc369ad7de0019b03ac3,5w347igb4x,Nick_Dissertation_EX1,1,295,2020-07-08T15:34:04-07:00,6.3882081508636,2,versionA_stim.csv,READVersionB.csv,"Read Version B","Dissertation, read only version B",SWAN,BIRD,Study1,F,14,73,Test,User,-,,Recall,Recall2,5867,bird,100,4219,5026,1,1,,1
5d94bc369ad7de0019b03ac3,5w347igb4x,Nick_Dissertation_EX1,1,296,2020-07-08T15:34:12-07:00,7.7649698257446,2,versionA_stim.csv,READVersionB.csv,"Read Version B","Dissertation, read only version B",BITTER,COLD,Study1,F,12,54,Test,User,-,,Recall,Recall2,7289,sour,25,5186,6225,0,0,,1
5d94bc369ad7de0019b03ac3,5w347igb4x,Nick_Dissertation_EX1,1,297,2020-07-08T15:34:22-07:00,10.268121957779,2,versionA_stim.csv,READVersionB.csv,"Read Version B","Dissertation, read only version B",MACHINE,POSITION,Study1,U,76,70,Test,User,-,,Recall,Recall2,9677,work,16.666666666667,7717,9076,0,0,,1
5d94bc369ad7de0019b03ac3,5w347igb4x,Nick_Dissertation_EX1,1,298,2020-07-08T15:34:35-07:00,13.268564224243,2,versionA_stim.csv,READVersionB.csv,"Read Version B","Dissertation, read only version B",HOT,CHILI,Study1,B,37,80,Test,User,-,,Recall,Recall2,12545,chili,100,10540,11689,1,1,,1
5d94bc369ad7de0019b03ac3,5w347igb4x,Nick_Dissertation_EX1,1,299,2020-07-08T15:34:41-07:00,6.0739698410034,2,versionA_stim.csv,READVersionB.csv,"Read Version B","Dissertation, read only version B",SHOE,FOOT,Study1,S,60,26,Test,User,-,,Recall,Recall2,5495,foot,100,3591,4630,1,1,,1
5d94bc369ad7de0019b03ac3,5w347igb4x,Nick_Dissertation_EX1,1,300,2020-07-08T15:34:45-07:00,3.2997789382935,2,versionA_stim.csv,READVersionB.csv,"Read Version B","Dissertation, read only version B",TAKE,SEIZE,Study1,B,29,47,Test,User,-,,Recall,Recall2,2810,out,0,1475,2002,0,0,,1
5d94bc369ad7de0019b03ac3,5w347igb4x,Nick_Dissertation_EX1,1,301,2020-07-08T15:34:56-07:00,11.823672056198,2,versionA_stim.csv,READVersionB.csv,"Read Version B","Dissertation, read only version B",DIETARY,SACKING,Study1,U,67,12,Test,User,-,,Recall,Recall2,11140,,0,-1,-1,0,0,,1
5d94bc369ad7de0019b03ac3,5w347igb4x,Nick_Dissertation_EX1,1,302,2020-07-08T15:35:21-07:00,24.794567108154,2,versionA_stim.csv,READVersionB.csv,"Read Version B","Dissertation, read only version B",HEIGHT,GROWTH,Study1,B,30,86,Test,User,-,,Recall,Recall2,24057,tall,20,22195,23145,0,0,,1
5d94bc369ad7de0019b03ac3,5w347igb4x,Nick_Dissertation_EX1,1,303,2020-07-08T15:35:26-07:00,4.7819490432739,2,versionA_stim.csv,READVersionB.csv,"Read Version B","Dissertation, read only version B",TRIAL,JURY,Study1,S,50,35,Test,User,-,,Recall,Recall2,3839,jury,100,1272,3055,1,1,,1
5d94bc369ad7de0019b03ac3,5w347igb4x,Nick_Dissertation_EX1,1,304,2020-07-08T15:36:44-07:00,77.608495950699,2,versionA_stim.csv,READVersionB.csv,"Read Version B","Dissertation, read only version B",DISCUSSION,TALK,Study1,F,21,21,Test,User,-,,Recall,Recall2,7080,argue,22.222222222222,4129,5855,0,0,,1
5d94bc369ad7de0019b03ac3,5w347igb4x,Nick_Dissertation_EX1,1,305,2020-07-08T15:36:48-07:00,4.3079118728638,2,versionA_stim.csv,READVersionB.csv,"Read Version B","Dissertation, read only version B",BEGIN,END,Study1,S,54,77,Test,User,-,,Recall,Recall2,3805,start,0,1509,2908,0,0,,1
5d94bc369ad7de0019b03ac3,5w347igb4x,Nick_Dissertation_EX1,1,306,2020-07-08T15:37:02-07:00,13.72620010376,2,versionA_stim.csv,READVersionB.csv,"Read Version B","Dissertation, read only version B",WINE,CHEESE,Study1,S,57,79,Test,User,-,,Recall,Recall2,13056,glass,18.181818181818,10930,12264,0,0,,1
5d94bc369ad7de0019b03ac3,5w347igb4x,Nick_Dissertation_EX1,1,307,2020-07-08T15:37:05-07:00,3.7799508571625,2,versionA_stim.csv,READVersionB.csv,"Read Version B","Dissertation, read only version B",SMELL,STENCH,Study1,B,42,68,Test,User,-,,Recall,Recall2,3216,tasate,50,1352,2543,0,0,,1
5d94bc369ad7de0019b03ac3,5w347igb4x,Nick_Dissertation_EX1,1,308,2020-07-08T15:37:09-07:00,3.7994701862335,2,versionA_stim.csv,READVersionB.csv,"Read Version B","Dissertation, read only version B",SLEEP,DROWSY,Study1,B,41,75,Test,User,-,,Recall,Recall2,3270,dream,36.363636363636,1502,2765,0,0,,1
5d94bc369ad7de0019b03ac3,5w347igb4x,Nick_Dissertation_EX1,1,309,2020-07-08T15:37:17-07:00,7.5267338752747,2,versionA_stim.csv,READVersionB.csv,"Read Version B","Dissertation, read only version B",HUNGER,FAMINE,Study1,B,40,14,Test,User,-,,Recall,Recall2,7019,famine,100,4324,5883,1,1,,1
5d94bc369ad7de0019b03ac3,5w347igb4x,Nick_Dissertation_EX1,1,310,2020-07-08T15:37:21-07:00,3.7936401367188,2,versionA_stim.csv,READVersionB.csv,"Read Version B","Dissertation, read only version B",PUSHER,CLUTTER,Study1,U,66,10,Test,User,-,,Recall,Recall2,3333,,0,-1,-1,0,0,,1
5d94bc369ad7de0019b03ac3,5w347igb4x,Nick_Dissertation_EX1,1,311,2020-07-08T15:37:28-07:00,7.7166337966919,2,versionA_stim.csv,READVersionB.csv,"Read Version B","Dissertation, read only version B",BATHROOM,TOILET,Study1,S,58,7,Test,User,-,,Recall,Recall2,7213,toilet,100,4997,6605,1,1,,1
5d94bc369ad7de0019b03ac3,5w347igb4x,Nick_Dissertation_EX1,1,312,2020-07-08T15:37:58-07:00,29.664356231689,2,versionA_stim.csv,READVersionB.csv,"Read Version B","Dissertation, read only version B",BRIDGE,WATER,Study1,F,18,13,Test,User,-,,Recall,Recall2,4543,water,100,2775,3838,1,1,,1
5d94bc369ad7de0019b03ac3,5w347igb4x,Nick_Dissertation_EX1,1,313,2020-07-08T15:38:03-07:00,4.6785478591919,2,versionA_stim.csv,READVersionB.csv,"Read Version B","Dissertation, read only version B",FIRE,BLAZE,Study1,B,45,34,Test,User,-,,Recall,Recall2,3586,alarm,40,2563,3257,0,0,,1
5d94bc369ad7de0019b03ac3,5w347igb4x,Nick_Dissertation_EX1,1,314,2020-07-08T15:38:09-07:00,6.1920230388641,2,versionA_stim.csv,READVersionB.csv,"Read Version B","Dissertation, read only version B",LETTUCE,SALAD,Study1,S,59,43,Test,User,-,,Recall,Recall2,5641,salad,100,4593,5344,1,1,,1
5d94bc369ad7de0019b03ac3,5w347igb4x,Nick_Dissertation_EX1,1,315,2020-07-08T15:38:13-07:00,3.7409250736237,2,versionA_stim.csv,READVersionB.csv,"Read Version B","Dissertation, read only version B",FIX,HAND,Study1,U,75,20,Test,User,-,,Recall,Recall2,2788,mend,50,2093,2564,0,0,,1
5d94bc369ad7de0019b03ac3,5w347igb4x,Nick_Dissertation_EX1,1,316,2020-07-08T15:38:16-07:00,3.053927898407,2,versionA_stim.csv,READVersionB.csv,"Read Version B","Dissertation, read only version B",HIDE,SICK,Study1,U,84,52,Test,User,-,,Recall,Recall2,2138,seek,50,1339,1858,0,0,,1
5d94bc369ad7de0019b03ac3,5w347igb4x,Nick_Dissertation_EX1,1,317,2020-07-08T15:38:19-07:00,3.9294710159302,2,versionA_stim.csv,READVersionB.csv,"Read Version B","Dissertation, read only version B",DEBATE,SIGHT,Study1,U,73,25,Test,User,-,,Recall,Recall2,3488,,0,-1,-1,0,0,,1
5d94bc369ad7de0019b03ac3,5w347igb4x,Nick_Dissertation_EX1,1,318,2020-07-08T15:38:21-07:00,1.825630903244,2,versionA_stim.csv,READVersionB.csv,"Read Version B","Dissertation, read only version B",CHISEL,HAMMER,Study1,F,9,64,Test,User,-,,Recall,Recall2,1313,,0,-1,-1,0,0,,1
5d94bc369ad7de0019b03ac3,5w347igb4x,Nick_Dissertation_EX1,1,319,2020-07-08T15:39:02-07:00,41.145845174789,2,versionA_stim.csv,READVersionB.csv,"Read Version B","Dissertation, read only version B",DISCOVER,FLOOR,Study1,U,71,16,Test,User,-,,Recall,Recall2,40222,find,22.222222222222,39343,39845,0,0,,1
5d94bc369ad7de0019b03ac3,5w347igb4x,Nick_Dissertation_EX1,1,320,2020-07-08T15:39:08-07:00,5.9102268218994,2,versionA_stim.csv,READVersionB.csv,"Read Version B","Dissertation, read only version B",HORNET,STING,Study1,F,11,11,Test,User,-,,Recall,Recall2,3425,wasp,22.222222222222,2240,2856,0,0,,1
5d94bc369ad7de0019b03ac3,5w347igb4x,Nick_Dissertation_EX1,1,321,2020-07-08T15:39:12-07:00,3.2557940483093,2,versionA_stim.csv,READVersionB.csv,"Read Version B","Dissertation, read only version B",CREDIT,CARD,Study1,F,23,8,Test,User,-,,Recall,Recall2,2754,card,100,1208,1705,1,1,,1
5d94bc369ad7de0019b03ac3,5w347igb4x,Nick_Dissertation_EX1,1,322,2020-07-08T15:39:15-07:00,2.9670269489288,2,versionA_stim.csv,READVersionB.csv,"Read Version B","Dissertation, read only version B",WAGE,MONEY,Study1,F,8,53,Test,User,-,,Recall,Recall2,2025,earn,22.222222222222,1098,1673,0,0,,1
5d94bc369ad7de0019b03ac3,5w347igb4x,Nick_Dissertation_EX1,1,323,2020-07-08T15:39:22-07:00,7.8691232204437,2,versionA_stim.csv,READVersionB.csv,"Read Version B","Dissertation, read only version B",NUMBER,AMOUNT,Study1,S,47,69,Test,User,-,,Recall,Recall2,7330,total,18.181818181818,6149,6771,0,0,,1
5d94bc369ad7de0019b03ac3,5w347igb4x,Nick_Dissertation_EX1,1,324,2020-07-08T15:39:25-07:00,2.9833807945251,2,versionA_stim.csv,READVersionB.csv,"Read Version B","Dissertation, read only version B",KING,VASE,Study1,U,85,85,Test,User,-,,Recall,Recall2,2444,castle,60,1236,2195,0,0,,1
5d94bc369ad7de0019b03ac3,5w347igb4x,Nick_Dissertation_EX1,1,325,2020-07-08T15:39:43-07:00,17.350587129593,2,versionA_stim.csv,READVersionB.csv,"Read Version B","Dissertation, read only version B",MATH,DIVISION,Study1,B,33,62,Test,User,-,,Recall,Recall2,16114,work,16.666666666667,15356,15777,0,0,,1
5d94bc369ad7de0019b03ac3,5w347igb4x,Nick_Dissertation_EX1,1,326,2020-07-08T15:40:05-07:00,22.589635848999,2,versionA_stim.csv,READVersionB.csv,"Read Version B","Dissertation, read only version B",WAY,OUT,Study1,F,16,36,Test,User,-,,Recall,Recall2,21846,out,100,21055,21517,1,1,,1
5d94bc369ad7de0019b03ac3,5w347igb4x,Nick_Dissertation_EX1,1,327,2020-07-08T15:40:08-07:00,2.856005191803,2,versionA_stim.csv,READVersionB.csv,"Read Version B","Dissertation, read only version B",CIRCLE,ROUND,Study1,S,65,49,Test,User,-,,Recall,Recall2,2335,round,100,1471,2110,1,1,,1
5d94bc369ad7de0019b03ac3,5w347igb4x,Nick_Dissertation_EX1,1,328,2020-07-08T15:40:22-07:00,13.916746854782,2,versionA_stim.csv,READVersionB.csv,"Read Version B","Dissertation, read only version B",LAW,ATTORNEY,Study1,B,34,81,Test,User,-,,Recall,Recall2,13191,lawyer,28.571428571429,11657,12839,0,0,,1
5d94bc369ad7de0019b03ac3,5w347igb4x,Nick_Dissertation_EX1,1,329,2020-07-08T15:40:26-07:00,4.207957983017,2,versionA_stim.csv,READVersionB.csv,"Read Version B","Dissertation, read only version B",ROOT,PLANT,Study1,F,13,30,Test,User,-,,Recall,Recall2,3159,tree,22.222222222222,2439,3038,0,0,,1
5d94bc369ad7de0019b03ac3,5w347igb4x,Nick_Dissertation_EX1,1,330,2020-07-08T15:40:29-07:00,2.8819441795349,2,versionA_stim.csv,READVersionB.csv,"Read Version B","Dissertation, read only version B",GEOLOGY,ROCK,Study1,F,19,63,Test,User,-,,Recall,Recall2,2282,rocks,88.888888888889,1121,2097,0,1,,1
5d94bc369ad7de0019b03ac3,5w347igb4x,Nick_Dissertation_EX1,1,331,2020-07-08T15:40:34-07:00,4.9930348396301,2,versionA_stim.csv,READVersionB.csv,"Read Version B","Dissertation, read only version B",ARTERY,BRONZE,Study1,U,74,33,Test,User,-,,Recall,Recall2,3380,heart,18.181818181818,2364,2939,0,0,,1
5d94bc369ad7de0019b03ac3,5w347igb4x,Nick_Dissertation_EX1,1,332,2020-07-08T15:40:40-07:00,5.6264619827271,2,versionA_stim.csv,READVersionB.csv,"Read Version B","Dissertation, read only version B",DUMP,WASTE,Study1,S,49,55,Test,User,-,,Recall,Recall2,5018,trash,40,4052,4633,0,0,,1
5d94bc369ad7de0019b03ac3,5w347igb4x,Nick_Dissertation_EX1,1,333,2020-07-08T15:40:51-07:00,10.776828050613,2,versionA_stim.csv,READVersionB.csv,"Read Version B","Dissertation, read only version B",DEATH,BUSINESS,Study1,U,72,37,Test,User,-,,Recall,Recall2,10041,coffin,28.571428571429,8849,9688,0,0,,1
5d94bc369ad7de0019b03ac3,5w347igb4x,Nick_Dissertation_EX1,1,334,2020-07-08T15:40:54-07:00,2.9501969814301,2,versionA_stim.csv,READVersionB.csv,"Read Version B","Dissertation, read only version B",KIDNEY,LIVER,Study1,S,53,67,Test,User,-,,Recall,Recall2,2178,stones,18.181818181818,1219,2025,0,0,,1
5d94bc369ad7de0019b03ac3,5w347igb4x,Nick_Dissertation_EX1,1,335,2020-07-08T15:40:58-07:00,4.4773359298706,2,versionA_stim.csv,READVersionB.csv,"Read Version B","Dissertation, read only version B",PLANE,PILOT,Study1,B,44,59,Test,User,-,,Recall,Recall2,4006,flight#,33.333333333333,1308,3995,0,0,,1
5d94bc369ad7de0019b03ac3,5w347igb4x,Nick_Dissertation_EX1,1,336,2020-07-08T15:41:02-07:00,4.0262801647186,2,versionA_stim.csv,READVersionB.csv,"Read Version B","Dissertation, read only version B",GREAT,FANTASTIC,Study1,B,35,42,Test,User,-,,Recall,Recall2,3501,big,16.666666666667,2989,3252,0,0,,1
5d94bc369ad7de0019b03ac3,5w347igb4x,Nick_Dissertation_EX1,1,337,2020-07-08T15:41:08-07:00,6.0813398361206,2,versionA_stim.csv,READVersionB.csv,"Read Version B","Dissertation, read only version B",EDITOR,NEWS,Study1,F,10,56,Test,User,-,,Recall,Recall2,5529,newspaper,61.538461538462,1802,5288,0,0,,1
5d94bc369ad7de0019b03ac3,5w347igb4x,Nick_Dissertation_EX1,1,338,2020-07-08T15:41:12-07:00,3.9647982120514,2,versionA_stim.csv,READVersionB.csv,"Read Version B","Dissertation, read only version B",HONEY,BEE,Study1,S,63,44,Test,User,-,,Recall,Recall2,1795,bee,100,1061,1571,1,1,,1
5d94bc369ad7de0019b03ac3,5w347igb4x,Nick_Dissertation_EX1,1,339,2020-07-08T15:41:57-07:00,44.794397830963,2,versionA_stim.csv,READVersionB.csv,"Read Version B","Dissertation, read only version B",PARK,HUNGRY,Study1,U,68,82,Test,User,-,,Recall,Recall2,22976,swing,36.363636363636,21227,21935,0,0,,1
5d94bc369ad7de0019b03ac3,5w347igb4x,Nick_Dissertation_EX1,1,340,2020-07-08T15:42:03-07:00,6.4421310424805,2,versionA_stim.csv,READVersionB.csv,"Read Version B","Dissertation, read only version B",DELINQUENT,BAD,Study1,F,6,9,Test,User,-,,Recall,Recall2,5452,bad,100,4772,5139,1,1,,1
5d94bc369ad7de0019b03ac3,5w347igb4x,Nick_Dissertation_EX1,1,341,2020-07-08T15:42:05-07:00,2.0354571342468,2,versionA_stim.csv,READVersionB.csv,"Read Version B","Dissertation, read only version B",HYGIENE,CLEAN,Study1,F,17,41,Test,User,-,,Recall,Recall2,1088,,0,-1,-1,0,0,,1
5d94bc369ad7de0019b03ac3,5w347igb4x,Nick_Dissertation_EX1,1,342,2020-07-08T15:42:34-07:00,28.470407962799,2,versionA_stim.csv,READVersionB.csv,"Read Version B","Dissertation, read only version B",SOON,BELT,Study1,U,70,23,Test,User,-,,Recall,Recall2,27771,,0,-1,-1,0,0,,1
5d94bc369ad7de0019b03ac3,5w347igb4x,Nick_Dissertation_EX1,1,343,2020-07-08T15:42:37-07:00,2.8726878166199,2,versionA_stim.csv,READVersionB.csv,"Read Version B","Dissertation, read only version B",HERD,COW,Study1,F,22,72,Test,User,-,,Recall,Recall2,1927,cows,85.714285714286,1176,1751,0,1,,1
5d94bc369ad7de0019b03ac3,5w347igb4x,Nick_Dissertation_EX1,1,344,2020-07-08T15:42:40-07:00,3.2977211475372,2,versionA_stim.csv,READVersionB.csv,"Read Version B","Dissertation, read only version B",LOCATION,SITE,Study1,S,48,57,Test,User,-,,Recall,Recall2,2154,here,25,1563,2034,0,0,,1
5d94bc369ad7de0019b03ac3,5w347igb4x,Nick_Dissertation_EX1,1,345,2020-07-08T15:42:45-07:00,4.641998052597,2,versionA_stim.csv,READVersionB.csv,"Read Version B","Dissertation, read only version B",ART,LION,Study1,U,79,38,Test,User,-,,Recall,Recall2,3626,work,25,2866,3282,0,0,,1
5d94bc369ad7de0019b03ac3,5w347igb4x,Nick_Dissertation_EX1,1,346,2020-07-08T15:42:48-07:00,3.1402838230133,2,versionA_stim.csv,READVersionB.csv,"Read Version B","Dissertation, read only version B",POP,SODA,Study1,S,56,61,Test,User,-,,Recall,Recall2,2460,drink,22.222222222222,1532,2123,0,0,,1
5d94bc369ad7de0019b03ac3,5w347igb4x,Nick_Dissertation_EX1,1,347,2020-07-08T15:42:50-07:00,2.47873711586,2,versionA_stim.csv,READVersionB.csv,"Read Version B","Dissertation, read only version B",CASH,WOULD,Study1,U,83,66,Test,User,-,,Recall,Recall2,2002,money,20,1052,1635,0,0,,1
