Username,ID,ExperimentName,Session,Trial,Date,TimeDif,"Condition Number","Stimuli File","Order File","Condition Description","Condition Notes",Stimuli*Cue,Stimuli*Answer,Stimuli*Shuffle,"Stimuli*Stimuli Notes",Stimuli*Value,Procedure*Item,"Procedure*Trial Type","Procedure*Max Time","Procedure*Min Time",Procedure*Text,"Procedure*Procedure Notes",Procedure*Shuffle,Response*RT,Response*Response,Response*Accuracy,Response*RTfirst,Response*RTlast,Response*strictAcc,Response*lenientAcc,Response*focus,Response*Focus
5bbfa80b9458d20001eedd51,sb90sr5xi8,Nick_Dissertation_EX1,1,1,2020-07-08T14:45:41-07:00,12.74867606163,3,versionC_stim.csv,READVersionC.csv,"Read Version C","Dissertation, read only version C",,,,,,0,Instruct,-,10,"Please study each of the following word pairs. Remember that your memory will be tested! When finished, press Enter to move to the next pair.",Initial_Instruct,Instruct1,12442,,,-1,-1,,,,1
5bbfa80b9458d20001eedd51,sb90sr5xi8,Nick_Dissertation_EX1,1,2,2020-07-08T14:45:45-07:00,4.1359839439392,3,versionC_stim.csv,READVersionC.csv,"Read Version C","Dissertation, read only version C",HIDE,SCARE,BUFFER1,Buffer,4,3,Study,User,-,,Study/JOL,BUFFER,3786,,,-1,-1,,,,1
5bbfa80b9458d20001eedd51,sb90sr5xi8,Nick_Dissertation_EX1,1,3,2020-07-08T14:45:47-07:00,1.8500828742981,3,versionC_stim.csv,READVersionC.csv,"Read Version C","Dissertation, read only version C",CATCHER,BASEBALL,BUFFER1,Buffer,2,2,Study,User,-,,Study/JOL,BUFFER,1515,,,-1,-1,,,,1
5bbfa80b9458d20001eedd51,sb90sr5xi8,Nick_Dissertation_EX1,1,4,2020-07-08T14:45:49-07:00,1.5268580913544,3,versionC_stim.csv,READVersionC.csv,"Read Version C","Dissertation, read only version C",JAM,SPACE,BUFFER1,Buffer,5,5,Study,User,-,,Study/JOL,BUFFER,1218,,,-1,-1,,,,1
5bbfa80b9458d20001eedd51,sb90sr5xi8,Nick_Dissertation_EX1,1,5,2020-07-08T14:45:50-07:00,1.3123440742493,3,versionC_stim.csv,READVersionC.csv,"Read Version C","Dissertation, read only version C",GREEN,TREES,BUFFER1,Buffer,1,6,Study,User,-,,Study/JOL,BUFFER,1018,,,-1,-1,,,,1
5bbfa80b9458d20001eedd51,sb90sr5xi8,Nick_Dissertation_EX1,1,6,2020-07-08T14:45:52-07:00,1.5859749317169,3,versionC_stim.csv,READVersionC.csv,"Read Version C","Dissertation, read only version C",BUTTER,PEANUT,BUFFER1,Buffer,3,4,Study,User,-,,Study/JOL,BUFFER,1285,,,-1,-1,,,,1
5bbfa80b9458d20001eedd51,sb90sr5xi8,Nick_Dissertation_EX1,1,7,2020-07-08T14:45:54-07:00,1.9859490394592,3,versionC_stim.csv,READVersionC.csv,"Read Version C","Dissertation, read only version C",STOMACH,DIGESTION,Study1,B,7,71,Study,User,-,,Study/JOL,"Study Phase",1683,,,-1,-1,,,,1
5bbfa80b9458d20001eedd51,sb90sr5xi8,Nick_Dissertation_EX1,1,8,2020-07-08T14:45:55-07:00,1.5078420639038,3,versionC_stim.csv,READVersionC.csv,"Read Version C","Dissertation, read only version C",MONEY,WAGE,Study1,B,8,44,Study,User,-,,Study/JOL,"Study Phase",1168,,,-1,-1,,,,1
5bbfa80b9458d20001eedd51,sb90sr5xi8,Nick_Dissertation_EX1,1,9,2020-07-08T14:45:56-07:00,1.0879509449005,3,versionC_stim.csv,READVersionC.csv,"Read Version C","Dissertation, read only version C",SITE,LOCATION,Study1,S,48,78,Study,User,-,,Study/JOL,"Study Phase",811,,,-1,-1,,,,1
5bbfa80b9458d20001eedd51,sb90sr5xi8,Nick_Dissertation_EX1,1,10,2020-07-08T14:45:58-07:00,1.7978148460388,3,versionC_stim.csv,READVersionC.csv,"Read Version C","Dissertation, read only version C",BRONZE,ARTERY,Study1,U,74,64,Study,User,-,,Study/JOL,"Study Phase",1503,,,-1,-1,,,,1
5bbfa80b9458d20001eedd51,sb90sr5xi8,Nick_Dissertation_EX1,1,11,2020-07-08T14:45:59-07:00,1.1919260025024,3,versionC_stim.csv,READVersionC.csv,"Read Version C","Dissertation, read only version C",POSITION,MACHINE,Study1,U,76,38,Study,User,-,,Study/JOL,"Study Phase",879,,,-1,-1,,,,1
5bbfa80b9458d20001eedd51,sb90sr5xi8,Nick_Dissertation_EX1,1,12,2020-07-08T14:46:00-07:00,1.0926082134247,3,versionC_stim.csv,READVersionC.csv,"Read Version C","Dissertation, read only version C",STENCH,SMELL,Study1,F,42,16,Study,User,-,,Study/JOL,"Study Phase",765,,,-1,-1,,,,1
5bbfa80b9458d20001eedd51,sb90sr5xi8,Nick_Dissertation_EX1,1,13,2020-07-08T14:46:01-07:00,1.0317509174347,3,versionC_stim.csv,READVersionC.csv,"Read Version C","Dissertation, read only version C",DIVISION,MATH,Study1,F,33,69,Study,User,-,,Study/JOL,"Study Phase",692,,,-1,-1,,,,1
5bbfa80b9458d20001eedd51,sb90sr5xi8,Nick_Dissertation_EX1,1,14,2020-07-08T14:46:02-07:00,1.0116090774536,3,versionC_stim.csv,READVersionC.csv,"Read Version C","Dissertation, read only version C",HAND,FIX,Study1,U,75,43,Study,User,-,,Study/JOL,"Study Phase",691,,,-1,-1,,,,1
5bbfa80b9458d20001eedd51,sb90sr5xi8,Nick_Dissertation_EX1,1,15,2020-07-08T14:46:03-07:00,0.77474594116211,3,versionC_stim.csv,READVersionC.csv,"Read Version C","Dissertation, read only version C",CAR,HAPPY,Study1,U,77,49,Study,User,-,,Study/JOL,"Study Phase",501,,,-1,-1,,,,1
5bbfa80b9458d20001eedd51,sb90sr5xi8,Nick_Dissertation_EX1,1,16,2020-07-08T14:46:04-07:00,0.97713685035706,3,versionC_stim.csv,READVersionC.csv,"Read Version C","Dissertation, read only version C",STING,HORNET,Study1,B,11,35,Study,User,-,,Study/JOL,"Study Phase",694,,,-1,-1,,,,1
5bbfa80b9458d20001eedd51,sb90sr5xi8,Nick_Dissertation_EX1,1,17,2020-07-08T14:46:07-07:00,2.4382920265198,3,versionC_stim.csv,READVersionC.csv,"Read Version C","Dissertation, read only version C",LATCH,KEY,Study1,F,36,25,Study,User,-,,Study/JOL,"Study Phase",1164,,,-1,-1,,,,1
5bbfa80b9458d20001eedd51,sb90sr5xi8,Nick_Dissertation_EX1,1,18,2020-07-08T14:46:08-07:00,1.2689821720123,3,versionC_stim.csv,READVersionC.csv,"Read Version C","Dissertation, read only version C",HUNGRY,PARK,Study1,U,68,55,Study,User,-,,Study/JOL,"Study Phase",950,,,-1,-1,,,,1
5bbfa80b9458d20001eedd51,sb90sr5xi8,Nick_Dissertation_EX1,1,19,2020-07-08T14:46:09-07:00,0.85724091529846,3,versionC_stim.csv,READVersionC.csv,"Read Version C","Dissertation, read only version C",CHILD,BABY,Study1,S,64,34,Study,User,-,,Study/JOL,"Study Phase",563,,,-1,-1,,,,1
5bbfa80b9458d20001eedd51,sb90sr5xi8,Nick_Dissertation_EX1,1,20,2020-07-08T14:46:11-07:00,2.4972050189972,3,versionC_stim.csv,READVersionC.csv,"Read Version C","Dissertation, read only version C",DEFINITION,MEANING,Study1,S,62,46,Study,User,-,,Study/JOL,"Study Phase",2201,,,-1,-1,,,,1
5bbfa80b9458d20001eedd51,sb90sr5xi8,Nick_Dissertation_EX1,1,21,2020-07-08T14:46:13-07:00,1.440710067749,3,versionC_stim.csv,READVersionC.csv,"Read Version C","Dissertation, read only version C",CLEAN,HYGIENE,Study1,B,17,31,Study,User,-,,Study/JOL,"Study Phase",1143,,,-1,-1,,,,1
5bbfa80b9458d20001eedd51,sb90sr5xi8,Nick_Dissertation_EX1,1,22,2020-07-08T14:46:14-07:00,1.1388609409332,3,versionC_stim.csv,READVersionC.csv,"Read Version C","Dissertation, read only version C",GROWTH,HEIGHT,Study1,F,30,61,Study,User,-,,Study/JOL,"Study Phase",833,,,-1,-1,,,,1
5bbfa80b9458d20001eedd51,sb90sr5xi8,Nick_Dissertation_EX1,1,23,2020-07-08T14:46:15-07:00,1.2335090637207,3,versionC_stim.csv,READVersionC.csv,"Read Version C","Dissertation, read only version C",ENOUGH,FULL,Study1,F,26,57,Study,User,-,,Study/JOL,"Study Phase",923,,,-1,-1,,,,1
5bbfa80b9458d20001eedd51,sb90sr5xi8,Nick_Dissertation_EX1,1,24,2020-07-08T14:46:17-07:00,1.8821799755096,3,versionC_stim.csv,READVersionC.csv,"Read Version C","Dissertation, read only version C",WATER,BRIDGE,Study1,B,18,54,Study,User,-,,Study/JOL,"Study Phase",1604,,,-1,-1,,,,1
5bbfa80b9458d20001eedd51,sb90sr5xi8,Nick_Dissertation_EX1,1,25,2020-07-08T14:46:18-07:00,1.3940908908844,3,versionC_stim.csv,READVersionC.csv,"Read Version C","Dissertation, read only version C",JURY,TRIAL,Study1,S,50,56,Study,User,-,,Study/JOL,"Study Phase",1119,,,-1,-1,,,,1
5bbfa80b9458d20001eedd51,sb90sr5xi8,Nick_Dissertation_EX1,1,26,2020-07-08T14:46:20-07:00,1.5408251285553,3,versionC_stim.csv,READVersionC.csv,"Read Version C","Dissertation, read only version C",DESIGN,ARCHITECTURE,Study1,S,51,13,Study,User,-,,Study/JOL,"Study Phase",1240,,,-1,-1,,,,1
5bbfa80b9458d20001eedd51,sb90sr5xi8,Nick_Dissertation_EX1,1,27,2020-07-08T14:46:22-07:00,1.7004628181458,3,versionC_stim.csv,READVersionC.csv,"Read Version C","Dissertation, read only version C",FUTURE,PAST,Study1,S,61,67,Study,User,-,,Study/JOL,"Study Phase",1404,,,-1,-1,,,,1
5bbfa80b9458d20001eedd51,sb90sr5xi8,Nick_Dissertation_EX1,1,28,2020-07-08T14:46:23-07:00,1.7272222042084,3,versionC_stim.csv,READVersionC.csv,"Read Version C","Dissertation, read only version C",DROWSY,SLEEP,Study1,F,41,74,Study,User,-,,Study/JOL,"Study Phase",1436,,,-1,-1,,,,1
5bbfa80b9458d20001eedd51,sb90sr5xi8,Nick_Dissertation_EX1,1,29,2020-07-08T14:46:27-07:00,3.5017449855804,3,versionC_stim.csv,READVersionC.csv,"Read Version C","Dissertation, read only version C",CLUTTER,PUSHER,Study1,U,66,60,Study,User,-,,Study/JOL,"Study Phase",3210,,,-1,-1,,,,1
5bbfa80b9458d20001eedd51,sb90sr5xi8,Nick_Dissertation_EX1,1,30,2020-07-08T14:46:29-07:00,1.9728488922119,3,versionC_stim.csv,READVersionC.csv,"Read Version C","Dissertation, read only version C",ROUND,CIRCLE,Study1,S,65,83,Study,User,-,,Study/JOL,"Study Phase",1656,,,-1,-1,,,,1
5bbfa80b9458d20001eedd51,sb90sr5xi8,Nick_Dissertation_EX1,1,31,2020-07-08T14:46:31-07:00,2.7676179409027,3,versionC_stim.csv,READVersionC.csv,"Read Version C","Dissertation, read only version C",SIGHT,DEBATE,Study1,U,73,85,Study,User,-,,Study/JOL,"Study Phase",2478,,,-1,-1,,,,1
5bbfa80b9458d20001eedd51,sb90sr5xi8,Nick_Dissertation_EX1,1,32,2020-07-08T14:46:36-07:00,4.2924180030823,3,versionC_stim.csv,READVersionC.csv,"Read Version C","Dissertation, read only version C",COW,HERD,Study1,B,22,14,Study,User,-,,Study/JOL,"Study Phase",2980,,,-1,-1,,,,1
5bbfa80b9458d20001eedd51,sb90sr5xi8,Nick_Dissertation_EX1,1,33,2020-07-08T14:46:40-07:00,4.2404730319977,3,versionC_stim.csv,READVersionC.csv,"Read Version C","Dissertation, read only version C",NEWS,EDITOR,Study1,B,10,19,Study,User,-,,Study/JOL,"Study Phase",3951,,,-1,-1,,,,1
5bbfa80b9458d20001eedd51,sb90sr5xi8,Nick_Dissertation_EX1,1,34,2020-07-08T14:46:43-07:00,3.3546569347382,3,versionC_stim.csv,READVersionC.csv,"Read Version C","Dissertation, read only version C",LIVER,KIDNEY,Study1,S,53,80,Study,User,-,,Study/JOL,"Study Phase",3037,,,-1,-1,,,,1
5bbfa80b9458d20001eedd51,sb90sr5xi8,Nick_Dissertation_EX1,1,35,2020-07-08T14:46:44-07:00,1.0404441356659,3,versionC_stim.csv,READVersionC.csv,"Read Version C","Dissertation, read only version C",DOG,PAW,Study1,B,15,86,Study,User,-,,Study/JOL,"Study Phase",759,,,-1,-1,,,,1
5bbfa80b9458d20001eedd51,sb90sr5xi8,Nick_Dissertation_EX1,1,36,2020-07-08T14:46:46-07:00,1.6055128574371,3,versionC_stim.csv,READVersionC.csv,"Read Version C","Dissertation, read only version C",ROCK,GEOLOGY,Study1,B,19,77,Study,User,-,,Study/JOL,"Study Phase",1332,,,-1,-1,,,,1
5bbfa80b9458d20001eedd51,sb90sr5xi8,Nick_Dissertation_EX1,1,37,2020-07-08T14:46:48-07:00,1.7721750736237,3,versionC_stim.csv,READVersionC.csv,"Read Version C","Dissertation, read only version C",BELT,SOON,Study1,U,70,29,Study,User,-,,Study/JOL,"Study Phase",1514,,,-1,-1,,,,1
5bbfa80b9458d20001eedd51,sb90sr5xi8,Nick_Dissertation_EX1,1,38,2020-07-08T14:46:49-07:00,1.4221439361572,3,versionC_stim.csv,READVersionC.csv,"Read Version C","Dissertation, read only version C",FAMINE,HUNGER,Study1,F,40,73,Study,User,-,,Study/JOL,"Study Phase",1162,,,-1,-1,,,,1
5bbfa80b9458d20001eedd51,sb90sr5xi8,Nick_Dissertation_EX1,1,39,2020-07-08T14:46:51-07:00,1.5470700263977,3,versionC_stim.csv,READVersionC.csv,"Read Version C","Dissertation, read only version C",TOILET,BATHROOM,Study1,S,58,50,Study,User,-,,Study/JOL,"Study Phase",1275,,,-1,-1,,,,1
5bbfa80b9458d20001eedd51,sb90sr5xi8,Nick_Dissertation_EX1,1,40,2020-07-08T14:46:54-07:00,3.5862030982971,3,versionC_stim.csv,READVersionC.csv,"Read Version C","Dissertation, read only version C",WAR,REVOLUTION,Study1,B,20,45,Study,User,-,,Study/JOL,"Study Phase",3297,,,-1,-1,,,,1
5bbfa80b9458d20001eedd51,sb90sr5xi8,Nick_Dissertation_EX1,1,41,2020-07-08T14:46:55-07:00,0.77087092399597,3,versionC_stim.csv,READVersionC.csv,"Read Version C","Dissertation, read only version C",FLOOR,DISCOVER,Study1,U,71,23,Study,User,-,,Study/JOL,"Study Phase",461,,,-1,-1,,,,1
5bbfa80b9458d20001eedd51,sb90sr5xi8,Nick_Dissertation_EX1,1,42,2020-07-08T14:46:56-07:00,0.94114804267883,3,versionC_stim.csv,READVersionC.csv,"Read Version C","Dissertation, read only version C",SACKING,DIETARY,Study1,U,67,9,Study,User,-,,Study/JOL,"Study Phase",642,,,-1,-1,,,,1
5bbfa80b9458d20001eedd51,sb90sr5xi8,Nick_Dissertation_EX1,1,43,2020-07-08T14:46:57-07:00,0.76778101921082,3,versionC_stim.csv,READVersionC.csv,"Read Version C","Dissertation, read only version C",AMOUNT,NUMBER,Study1,S,47,59,Study,User,-,,Study/JOL,"Study Phase",510,,,-1,-1,,,,1
5bbfa80b9458d20001eedd51,sb90sr5xi8,Nick_Dissertation_EX1,1,44,2020-07-08T14:46:58-07:00,0.67630696296692,3,versionC_stim.csv,READVersionC.csv,"Read Version C","Dissertation, read only version C",OUT,WAY,Study1,B,16,24,Study,User,-,,Study/JOL,"Study Phase",408,,,-1,-1,,,,1
5bbfa80b9458d20001eedd51,sb90sr5xi8,Nick_Dissertation_EX1,1,45,2020-07-08T14:46:58-07:00,0.65502500534058,3,versionC_stim.csv,READVersionC.csv,"Read Version C","Dissertation, read only version C",ASSIGNMENT,DUE,Study1,S,46,79,Study,User,-,,Study/JOL,"Study Phase",385,,,-1,-1,,,,1
5bbfa80b9458d20001eedd51,sb90sr5xi8,Nick_Dissertation_EX1,1,46,2020-07-08T14:46:59-07:00,0.8908360004425,3,versionC_stim.csv,READVersionC.csv,"Read Version C","Dissertation, read only version C",ATTORNEY,LAW,Study1,F,34,28,Study,User,-,,Study/JOL,"Study Phase",611,,,-1,-1,,,,1
5bbfa80b9458d20001eedd51,sb90sr5xi8,Nick_Dissertation_EX1,1,47,2020-07-08T14:47:00-07:00,0.89852905273438,3,versionC_stim.csv,READVersionC.csv,"Read Version C","Dissertation, read only version C",SIP,DRINK,Study1,F,27,47,Study,User,-,,Study/JOL,"Study Phase",615,,,-1,-1,,,,1
5bbfa80b9458d20001eedd51,sb90sr5xi8,Nick_Dissertation_EX1,1,48,2020-07-08T14:47:01-07:00,0.6921808719635,3,versionC_stim.csv,READVersionC.csv,"Read Version C","Dissertation, read only version C",WASTE,DUMP,Study1,S,49,70,Study,User,-,,Study/JOL,"Study Phase",409,,,-1,-1,,,,1
5bbfa80b9458d20001eedd51,sb90sr5xi8,Nick_Dissertation_EX1,1,49,2020-07-08T14:47:01-07:00,0.6512131690979,3,versionC_stim.csv,READVersionC.csv,"Read Version C","Dissertation, read only version C",CHILI,HOT,Study1,F,37,30,Study,User,-,,Study/JOL,"Study Phase",392,,,-1,-1,,,,1
5bbfa80b9458d20001eedd51,sb90sr5xi8,Nick_Dissertation_EX1,1,50,2020-07-08T14:47:03-07:00,1.693305015564,3,versionC_stim.csv,READVersionC.csv,"Read Version C","Dissertation, read only version C",COLD,BITTER,Study1,B,12,22,Study,User,-,,Study/JOL,"Study Phase",386,,,-1,-1,,,,1
5bbfa80b9458d20001eedd51,sb90sr5xi8,Nick_Dissertation_EX1,1,51,2020-07-08T14:47:04-07:00,1.2779920101166,3,versionC_stim.csv,READVersionC.csv,"Read Version C","Dissertation, read only version C",BUSINESS,DEATH,Study1,U,72,41,Study,User,-,,Study/JOL,"Study Phase",976,,,-1,-1,,,,1
5bbfa80b9458d20001eedd51,sb90sr5xi8,Nick_Dissertation_EX1,1,52,2020-07-08T14:47:05-07:00,1.1759128570557,3,versionC_stim.csv,READVersionC.csv,"Read Version C","Dissertation, read only version C",RIDDLE,SUGAR,Study1,U,81,52,Study,User,-,,Study/JOL,"Study Phase",909,,,-1,-1,,,,1
5bbfa80b9458d20001eedd51,sb90sr5xi8,Nick_Dissertation_EX1,1,53,2020-07-08T14:47:06-07:00,0.79898309707642,3,versionC_stim.csv,READVersionC.csv,"Read Version C","Dissertation, read only version C",WOMAN,LIFT,Study1,U,69,27,Study,User,-,,Study/JOL,"Study Phase",519,,,-1,-1,,,,1
5bbfa80b9458d20001eedd51,sb90sr5xi8,Nick_Dissertation_EX1,1,54,2020-07-08T14:47:07-07:00,1.0801138877869,3,versionC_stim.csv,READVersionC.csv,"Read Version C","Dissertation, read only version C",SALAD,LETTUCE,Study1,S,59,36,Study,User,-,,Study/JOL,"Study Phase",797,,,-1,-1,,,,1
5bbfa80b9458d20001eedd51,sb90sr5xi8,Nick_Dissertation_EX1,1,55,2020-07-08T14:47:08-07:00,0.6779990196228,3,versionC_stim.csv,READVersionC.csv,"Read Version C","Dissertation, read only version C",FISH,TUNA,Study1,B,25,39,Study,User,-,,Study/JOL,"Study Phase",373,,,-1,-1,,,,1
5bbfa80b9458d20001eedd51,sb90sr5xi8,Nick_Dissertation_EX1,1,56,2020-07-08T14:47:09-07:00,0.66459107398987,3,versionC_stim.csv,READVersionC.csv,"Read Version C","Dissertation, read only version C",WOULD,CASH,Study1,U,83,21,Study,User,-,,Study/JOL,"Study Phase",389,,,-1,-1,,,,1
5bbfa80b9458d20001eedd51,sb90sr5xi8,Nick_Dissertation_EX1,1,57,2020-07-08T14:47:10-07:00,0.83037996292114,3,versionC_stim.csv,READVersionC.csv,"Read Version C","Dissertation, read only version C",SODA,POP,Study1,S,56,51,Study,User,-,,Study/JOL,"Study Phase",551,,,-1,-1,,,,1
5bbfa80b9458d20001eedd51,sb90sr5xi8,Nick_Dissertation_EX1,1,58,2020-07-08T14:47:10-07:00,0.79987001419067,3,versionC_stim.csv,READVersionC.csv,"Read Version C","Dissertation, read only version C",PILOT,PLANE,Study1,F,44,62,Study,User,-,,Study/JOL,"Study Phase",501,,,-1,-1,,,,1
5bbfa80b9458d20001eedd51,sb90sr5xi8,Nick_Dissertation_EX1,1,59,2020-07-08T14:47:11-07:00,0.72974991798401,3,versionC_stim.csv,READVersionC.csv,"Read Version C","Dissertation, read only version C",ADD,VALLEY,Study1,U,82,72,Study,User,-,,Study/JOL,"Study Phase",457,,,-1,-1,,,,1
5bbfa80b9458d20001eedd51,sb90sr5xi8,Nick_Dissertation_EX1,1,60,2020-07-08T14:47:12-07:00,0.69987607002258,3,versionC_stim.csv,READVersionC.csv,"Read Version C","Dissertation, read only version C",CHEESE,WINE,Study1,S,57,17,Study,User,-,,Study/JOL,"Study Phase",417,,,-1,-1,,,,1
5bbfa80b9458d20001eedd51,sb90sr5xi8,Nick_Dissertation_EX1,1,61,2020-07-08T14:47:12-07:00,0.66330003738403,3,versionC_stim.csv,READVersionC.csv,"Read Version C","Dissertation, read only version C",WASP,BUG,Study1,F,32,10,Study,User,-,,Study/JOL,"Study Phase",404,,,-1,-1,,,,1
5bbfa80b9458d20001eedd51,sb90sr5xi8,Nick_Dissertation_EX1,1,62,2020-07-08T14:47:13-07:00,0.6612708568573,3,versionC_stim.csv,READVersionC.csv,"Read Version C","Dissertation, read only version C",BEE,HONEY,Study1,S,63,37,Study,User,-,,Study/JOL,"Study Phase",379,,,-1,-1,,,,1
5bbfa80b9458d20001eedd51,sb90sr5xi8,Nick_Dissertation_EX1,1,63,2020-07-08T14:47:14-07:00,0.71309208869934,3,versionC_stim.csv,READVersionC.csv,"Read Version C","Dissertation, read only version C",CARD,CREDIT,Study1,B,23,11,Study,User,-,,Study/JOL,"Study Phase",452,,,-1,-1,,,,1
5bbfa80b9458d20001eedd51,sb90sr5xi8,Nick_Dissertation_EX1,1,64,2020-07-08T14:47:14-07:00,0.6292290687561,3,versionC_stim.csv,READVersionC.csv,"Read Version C","Dissertation, read only version C",SICK,HIDE,Study1,U,84,8,Study,User,-,,Study/JOL,"Study Phase",352,,,-1,-1,,,,1
5bbfa80b9458d20001eedd51,sb90sr5xi8,Nick_Dissertation_EX1,1,65,2020-07-08T14:47:16-07:00,1.1018378734589,3,versionC_stim.csv,READVersionC.csv,"Read Version C","Dissertation, read only version C",TALK,DISCUSSION,Study1,B,21,82,Study,User,-,,Study/JOL,"Study Phase",777,,,-1,-1,,,,1
5bbfa80b9458d20001eedd51,sb90sr5xi8,Nick_Dissertation_EX1,1,66,2020-07-08T14:47:16-07:00,0.86492300033569,3,versionC_stim.csv,READVersionC.csv,"Read Version C","Dissertation, read only version C",RACKET,BALL,Study1,F,38,42,Study,User,-,,Study/JOL,"Study Phase",590,,,-1,-1,,,,1
5bbfa80b9458d20001eedd51,sb90sr5xi8,Nick_Dissertation_EX1,1,67,2020-07-08T14:47:18-07:00,1.2731251716614,3,versionC_stim.csv,READVersionC.csv,"Read Version C","Dissertation, read only version C",BAR,GRILL,Study1,S,52,66,Study,User,-,,Study/JOL,"Study Phase",1018,,,-1,-1,,,,1
5bbfa80b9458d20001eedd51,sb90sr5xi8,Nick_Dissertation_EX1,1,68,2020-07-08T14:47:18-07:00,0.75719285011292,3,versionC_stim.csv,READVersionC.csv,"Read Version C","Dissertation, read only version C",SEIZE,TAKE,Study1,F,29,58,Study,User,-,,Study/JOL,"Study Phase",481,,,-1,-1,,,,1
5bbfa80b9458d20001eedd51,sb90sr5xi8,Nick_Dissertation_EX1,1,69,2020-07-08T14:47:19-07:00,0.62465906143188,3,versionC_stim.csv,READVersionC.csv,"Read Version C","Dissertation, read only version C",ACCIDENT,STRONG,Study1,U,80,15,Study,User,-,,Study/JOL,"Study Phase",358,,,-1,-1,,,,1
5bbfa80b9458d20001eedd51,sb90sr5xi8,Nick_Dissertation_EX1,1,70,2020-07-08T14:47:20-07:00,0.66680288314819,3,versionC_stim.csv,READVersionC.csv,"Read Version C","Dissertation, read only version C",BIRD,SWAN,Study1,B,14,32,Study,User,-,,Study/JOL,"Study Phase",393,,,-1,-1,,,,1
5bbfa80b9458d20001eedd51,sb90sr5xi8,Nick_Dissertation_EX1,1,71,2020-07-08T14:47:20-07:00,0.69429206848145,3,versionC_stim.csv,READVersionC.csv,"Read Version C","Dissertation, read only version C",PLANT,ROOT,Study1,B,13,63,Study,User,-,,Study/JOL,"Study Phase",421,,,-1,-1,,,,1
5bbfa80b9458d20001eedd51,sb90sr5xi8,Nick_Dissertation_EX1,1,72,2020-07-08T14:47:21-07:00,0.62040901184082,3,versionC_stim.csv,READVersionC.csv,"Read Version C","Dissertation, read only version C",END,BEGIN,Study1,S,54,7,Study,User,-,,Study/JOL,"Study Phase",360,,,-1,-1,,,,1
5bbfa80b9458d20001eedd51,sb90sr5xi8,Nick_Dissertation_EX1,1,73,2020-07-08T14:47:22-07:00,0.76262402534485,3,versionC_stim.csv,READVersionC.csv,"Read Version C","Dissertation, read only version C",VASE,KING,Study1,U,85,26,Study,User,-,,Study/JOL,"Study Phase",479,,,-1,-1,,,,1
5bbfa80b9458d20001eedd51,sb90sr5xi8,Nick_Dissertation_EX1,1,74,2020-07-08T14:47:23-07:00,1.2945969104767,3,versionC_stim.csv,READVersionC.csv,"Read Version C","Dissertation, read only version C",ATTIRE,CLOTHES,Study1,F,43,75,Study,User,-,,Study/JOL,"Study Phase",1009,,,-1,-1,,,,1
5bbfa80b9458d20001eedd51,sb90sr5xi8,Nick_Dissertation_EX1,1,75,2020-07-08T14:47:27-07:00,4.0312700271606,3,versionC_stim.csv,READVersionC.csv,"Read Version C","Dissertation, read only version C",FOOT,SHOE,Study1,S,60,40,Study,User,-,,Study/JOL,"Study Phase",3732,,,-1,-1,,,,1
5bbfa80b9458d20001eedd51,sb90sr5xi8,Nick_Dissertation_EX1,1,76,2020-07-08T14:47:28-07:00,0.68853306770325,3,versionC_stim.csv,READVersionC.csv,"Read Version C","Dissertation, read only version C",FLOWER,ORCHID,Study1,B,24,20,Study,User,-,,Study/JOL,"Study Phase",385,,,-1,-1,,,,1
5bbfa80b9458d20001eedd51,sb90sr5xi8,Nick_Dissertation_EX1,1,77,2020-07-08T14:47:28-07:00,0.64464402198792,3,versionC_stim.csv,READVersionC.csv,"Read Version C","Dissertation, read only version C",WIND,BLOW,Study1,S,55,81,Study,User,-,,Study/JOL,"Study Phase",373,,,-1,-1,,,,1
5bbfa80b9458d20001eedd51,sb90sr5xi8,Nick_Dissertation_EX1,1,78,2020-07-08T14:47:29-07:00,0.63312888145447,3,versionC_stim.csv,READVersionC.csv,"Read Version C","Dissertation, read only version C",LION,ART,Study1,U,79,53,Study,User,-,,Study/JOL,"Study Phase",359,,,-1,-1,,,,1
5bbfa80b9458d20001eedd51,sb90sr5xi8,Nick_Dissertation_EX1,1,79,2020-07-08T14:47:30-07:00,0.63300013542175,3,versionC_stim.csv,READVersionC.csv,"Read Version C","Dissertation, read only version C",CAVE,DARK,Study1,F,28,68,Study,User,-,,Study/JOL,"Study Phase",375,,,-1,-1,,,,1
5bbfa80b9458d20001eedd51,sb90sr5xi8,Nick_Dissertation_EX1,1,80,2020-07-08T14:47:30-07:00,0.65068888664246,3,versionC_stim.csv,READVersionC.csv,"Read Version C","Dissertation, read only version C",BAD,DELINQUENT,Study1,B,6,48,Study,User,-,,Study/JOL,"Study Phase",377,,,-1,-1,,,,1
5bbfa80b9458d20001eedd51,sb90sr5xi8,Nick_Dissertation_EX1,1,81,2020-07-08T14:47:31-07:00,0.67758417129517,3,versionC_stim.csv,READVersionC.csv,"Read Version C","Dissertation, read only version C",WORD,SENTENCE,Study1,F,31,76,Study,User,-,,Study/JOL,"Study Phase",406,,,-1,-1,,,,1
5bbfa80b9458d20001eedd51,sb90sr5xi8,Nick_Dissertation_EX1,1,82,2020-07-08T14:47:32-07:00,0.62993979454041,3,versionC_stim.csv,READVersionC.csv,"Read Version C","Dissertation, read only version C",FANTASTIC,GREAT,Study1,F,35,84,Study,User,-,,Study/JOL,"Study Phase",362,,,-1,-1,,,,1
5bbfa80b9458d20001eedd51,sb90sr5xi8,Nick_Dissertation_EX1,1,83,2020-07-08T14:47:32-07:00,0.66666007041931,3,versionC_stim.csv,READVersionC.csv,"Read Version C","Dissertation, read only version C",HAMMER,CHISEL,Study1,B,9,33,Study,User,-,,Study/JOL,"Study Phase",408,,,-1,-1,,,,1
5bbfa80b9458d20001eedd51,sb90sr5xi8,Nick_Dissertation_EX1,1,84,2020-07-08T14:47:34-07:00,1.6954200267792,3,versionC_stim.csv,READVersionC.csv,"Read Version C","Dissertation, read only version C",CHORE,WORK,Study1,F,39,18,Study,User,-,,Study/JOL,"Study Phase",432,,,-1,-1,,,,1
5bbfa80b9458d20001eedd51,sb90sr5xi8,Nick_Dissertation_EX1,1,85,2020-07-08T14:47:36-07:00,1.8155078887939,3,versionC_stim.csv,READVersionC.csv,"Read Version C","Dissertation, read only version C",TUCK,ALLOW,Study1,U,78,65,Study,User,-,,Study/JOL,"Study Phase",1531,,,-1,-1,,,,1
5bbfa80b9458d20001eedd51,sb90sr5xi8,Nick_Dissertation_EX1,1,86,2020-07-08T14:47:37-07:00,0.70344209671021,3,versionC_stim.csv,READVersionC.csv,"Read Version C","Dissertation, read only version C",BLAZE,FIRE,Study1,F,45,12,Study,User,-,,Study/JOL,"Study Phase",420,,,-1,-1,,,,1
5bbfa80b9458d20001eedd51,sb90sr5xi8,Nick_Dissertation_EX1,1,87,2020-07-08T14:47:37-07:00,0.7074179649353,3,versionC_stim.csv,READVersionC.csv,"Read Version C","Dissertation, read only version C",CHOCOLATE,MALT,BUFFER2,Buffer,88,90,Study,User,-,,Study/JOL,BUFFER2,403,,,-1,-1,,,,1
5bbfa80b9458d20001eedd51,sb90sr5xi8,Nick_Dissertation_EX1,1,88,2020-07-08T14:47:38-07:00,0.70221900939941,3,versionC_stim.csv,READVersionC.csv,"Read Version C","Dissertation, read only version C",STUFF,THING,BUFFER2,Buffer,90,89,Study,User,-,,Study/JOL,BUFFER2,416,,,-1,-1,,,,1
5bbfa80b9458d20001eedd51,sb90sr5xi8,Nick_Dissertation_EX1,1,89,2020-07-08T14:47:39-07:00,0.63661313056946,3,versionC_stim.csv,READVersionC.csv,"Read Version C","Dissertation, read only version C",POLICE,SHERRIF,BUFFER2,Buffer,87,91,Study,User,-,,Study/JOL,BUFFER2,362,,,-1,-1,,,,1
5bbfa80b9458d20001eedd51,sb90sr5xi8,Nick_Dissertation_EX1,1,90,2020-07-08T14:47:39-07:00,0.68509387969971,3,versionC_stim.csv,READVersionC.csv,"Read Version C","Dissertation, read only version C",SPACE,MOON,BUFFER2,Buffer,89,88,Study,User,-,,Study/JOL,BUFFER2,393,,,-1,-1,,,,1
5bbfa80b9458d20001eedd51,sb90sr5xi8,Nick_Dissertation_EX1,1,91,2020-07-08T14:47:41-07:00,1.8427641391754,3,versionC_stim.csv,READVersionC.csv,"Read Version C","Dissertation, read only version C",GOOSE,GEESE,BUFFER2,Buffer,86,87,Study,User,-,,Study/JOL,BUFFER2,535,,,-1,-1,,,,1
5bbfa80b9458d20001eedd51,sb90sr5xi8,Nick_Dissertation_EX1,1,92,2020-07-08T14:47:44-07:00,3.1821148395538,3,versionC_stim.csv,READVersionC.csv,"Read Version C","Dissertation, read only version C",,,,,,0,Instruct,User,-,"You have completed this section. Please press Enter.",Filler_Instruction,Instruct2,2869,,,-1,-1,,,,1
5bbfa80b9458d20001eedd51,sb90sr5xi8,Nick_Dissertation_EX1,1,93,2020-07-08T14:49:45-07:00,120.37175297737,3,versionC_stim.csv,READVersionC.csv,"Read Version C","Dissertation, read only version C",,,,,,0,FreeRecall,120,120,"Please list the 50 US states in alphabetical order. The task will automatically advance to the next screen after two minutes.",,Filler1,120011,"Atlanta california delaware florida Illionois Pennslyvan ",0,10904,119985,0,0,,1
5bbfa80b9458d20001eedd51,sb90sr5xi8,Nick_Dissertation_EX1,1,94,2020-07-08T14:50:00-07:00,15.790548086166,3,versionC_stim.csv,READVersionC.csv,"Read Version C","Dissertation, read only version C",,,,,,0,Instruct,-,10,"You will now be presented with the first word from each of the previously studied item pairs. Please type the missing word. If you do not know the word, you may guess or press Enter to skip forward to the next pair.",,Instruct3,15438,,,-1,-1,,,,1
5bbfa80b9458d20001eedd51,sb90sr5xi8,Nick_Dissertation_EX1,1,95,2020-07-08T14:50:07-07:00,6.3806231021881,3,versionC_stim.csv,READVersionC.csv,"Read Version C","Dissertation, read only version C",LATCH,KEY,Study1,F,36,25,Test,User,-,,Recall,Recall1,6032,key,100,3158,4033,1,1,,1
5bbfa80b9458d20001eedd51,sb90sr5xi8,Nick_Dissertation_EX1,1,96,2020-07-08T14:50:11-07:00,4.4520649909973,3,versionC_stim.csv,READVersionC.csv,"Read Version C","Dissertation, read only version C",END,BEGIN,Study1,S,54,7,Test,User,-,,Recall,Recall1,4153,near,22.222222222222,2629,3503,0,0,,1
5bbfa80b9458d20001eedd51,sb90sr5xi8,Nick_Dissertation_EX1,1,97,2020-07-08T14:50:19-07:00,7.3580348491669,3,versionC_stim.csv,READVersionC.csv,"Read Version C","Dissertation, read only version C",FLOWER,ORCHID,Study1,B,24,20,Test,User,-,,Recall,Recall1,6994,garden,33.333333333333,4565,6294,0,0,,1
5bbfa80b9458d20001eedd51,sb90sr5xi8,Nick_Dissertation_EX1,1,98,2020-07-08T14:50:25-07:00,6.1849250793457,3,versionC_stim.csv,READVersionC.csv,"Read Version C","Dissertation, read only version C",ASSIGNMENT,DUE,Study1,S,46,79,Test,User,-,,Recall,Recall1,5863,task,0,4151,5247,0,0,,1
5bbfa80b9458d20001eedd51,sb90sr5xi8,Nick_Dissertation_EX1,1,99,2020-07-08T14:50:35-07:00,10.202596902847,3,versionC_stim.csv,READVersionC.csv,"Read Version C","Dissertation, read only version C",CLEAN,HYGIENE,Study1,B,17,31,Test,User,-,,Recall,Recall1,9845,dirty,16.666666666667,5989,9212,0,0,,1
5bbfa80b9458d20001eedd51,sb90sr5xi8,Nick_Dissertation_EX1,1,100,2020-07-08T14:50:39-07:00,3.5173690319061,3,versionC_stim.csv,READVersionC.csv,"Read Version C","Dissertation, read only version C",MONEY,WAGE,Study1,B,8,44,Test,User,-,,Recall,Recall1,3173,bank,25,1619,2740,0,0,,1
5bbfa80b9458d20001eedd51,sb90sr5xi8,Nick_Dissertation_EX1,1,101,2020-07-08T14:50:43-07:00,4.7142670154572,3,versionC_stim.csv,READVersionC.csv,"Read Version C","Dissertation, read only version C",BEE,HONEY,Study1,S,63,37,Test,User,-,,Recall,Recall1,4394,honey,100,1128,3682,1,1,,1
5bbfa80b9458d20001eedd51,sb90sr5xi8,Nick_Dissertation_EX1,1,102,2020-07-08T14:50:49-07:00,5.7179250717163,3,versionC_stim.csv,READVersionC.csv,"Read Version C","Dissertation, read only version C",CHEESE,WINE,Study1,S,57,17,Test,User,-,,Recall,Recall1,5269,mouse,22.222222222222,3399,4576,0,0,,1
5bbfa80b9458d20001eedd51,sb90sr5xi8,Nick_Dissertation_EX1,1,103,2020-07-08T14:50:54-07:00,4.5442409515381,3,versionC_stim.csv,READVersionC.csv,"Read Version C","Dissertation, read only version C",SODA,POP,Study1,S,56,51,Test,User,-,,Recall,Recall1,4229,juice,0,2315,3613,0,0,,1
5bbfa80b9458d20001eedd51,sb90sr5xi8,Nick_Dissertation_EX1,1,104,2020-07-08T14:51:08-07:00,14.62760591507,3,versionC_stim.csv,READVersionC.csv,"Read Version C","Dissertation, read only version C",PILOT,PLANE,Study1,F,44,62,Test,User,-,,Recall,Recall1,14274,plane,100,11892,13495,1,1,,1
5bbfa80b9458d20001eedd51,sb90sr5xi8,Nick_Dissertation_EX1,1,105,2020-07-08T14:51:23-07:00,15.029576063156,3,versionC_stim.csv,READVersionC.csv,"Read Version C","Dissertation, read only version C",HAND,FIX,Study1,U,75,43,Test,User,-,,Recall,Recall1,14655,sanitizer,16.666666666667,11137,13819,0,0,,1
5bbfa80b9458d20001eedd51,sb90sr5xi8,Nick_Dissertation_EX1,1,106,2020-07-08T14:51:27-07:00,3.5734510421753,3,versionC_stim.csv,READVersionC.csv,"Read Version C","Dissertation, read only version C",ATTORNEY,LAW,Study1,F,34,28,Test,User,-,,Recall,Recall1,3230,law,100,1784,2473,1,1,,1
5bbfa80b9458d20001eedd51,sb90sr5xi8,Nick_Dissertation_EX1,1,107,2020-07-08T14:51:35-07:00,7.9095358848572,3,versionC_stim.csv,READVersionC.csv,"Read Version C","Dissertation, read only version C",ADD,VALLEY,Study1,U,82,72,Test,User,-,,Recall,Recall1,7585,divide,33.333333333333,5077,6843,0,0,,1
5bbfa80b9458d20001eedd51,sb90sr5xi8,Nick_Dissertation_EX1,1,108,2020-07-08T14:51:49-07:00,14.668999195099,3,versionC_stim.csv,READVersionC.csv,"Read Version C","Dissertation, read only version C",SITE,LOCATION,Study1,S,48,78,Test,User,-,,Recall,Recall1,14315,seen,16.666666666667,13103,13817,0,0,,1
5bbfa80b9458d20001eedd51,sb90sr5xi8,Nick_Dissertation_EX1,1,109,2020-07-08T14:51:55-07:00,5.68452501297,3,versionC_stim.csv,READVersionC.csv,"Read Version C","Dissertation, read only version C",SICK,HIDE,Study1,U,84,8,Test,User,-,,Recall,Recall1,4334,well,25,3206,4008,0,0,,1
5bbfa80b9458d20001eedd51,sb90sr5xi8,Nick_Dissertation_EX1,1,110,2020-07-08T14:52:00-07:00,5.4190578460693,3,versionC_stim.csv,READVersionC.csv,"Read Version C","Dissertation, read only version C",TOILET,BATHROOM,Study1,S,58,50,Test,User,-,,Recall,Recall1,5108,sink,0,3707,4736,0,0,,1
5bbfa80b9458d20001eedd51,sb90sr5xi8,Nick_Dissertation_EX1,1,111,2020-07-08T14:52:04-07:00,3.5329730510712,3,versionC_stim.csv,READVersionC.csv,"Read Version C","Dissertation, read only version C",WIND,BLOW,Study1,S,55,81,Test,User,-,,Recall,Recall1,3202,blew,75,1408,2482,0,1,,1
5bbfa80b9458d20001eedd51,sb90sr5xi8,Nick_Dissertation_EX1,1,112,2020-07-08T14:52:09-07:00,5.0346150398254,3,versionC_stim.csv,READVersionC.csv,"Read Version C","Dissertation, read only version C",WORD,SENTENCE,Study1,F,31,76,Test,User,-,,Recall,Recall1,4730,write,30.769230769231,2682,4099,0,0,,1
5bbfa80b9458d20001eedd51,sb90sr5xi8,Nick_Dissertation_EX1,1,113,2020-07-08T14:52:25-07:00,16.123309850693,3,versionC_stim.csv,READVersionC.csv,"Read Version C","Dissertation, read only version C",WOMAN,LIFT,Study1,U,69,27,Test,User,-,,Recall,Recall1,15738,lady,25,13529,14779,0,0,,1
5bbfa80b9458d20001eedd51,sb90sr5xi8,Nick_Dissertation_EX1,1,114,2020-07-08T14:52:42-07:00,17.251546144485,3,versionC_stim.csv,READVersionC.csv,"Read Version C","Dissertation, read only version C",WAR,REVOLUTION,Study1,B,20,45,Test,User,-,,Recall,Recall1,16910,gun,30.769230769231,15683,16242,0,0,,1
5bbfa80b9458d20001eedd51,sb90sr5xi8,Nick_Dissertation_EX1,1,115,2020-07-08T14:52:48-07:00,5.6238629817963,3,versionC_stim.csv,READVersionC.csv,"Read Version C","Dissertation, read only version C",FISH,TUNA,Study1,B,25,39,Test,User,-,,Recall,Recall1,5265,ocean,22.222222222222,3089,4557,0,0,,1
5bbfa80b9458d20001eedd51,sb90sr5xi8,Nick_Dissertation_EX1,1,116,2020-07-08T14:53:00-07:00,12.074558973312,3,versionC_stim.csv,READVersionC.csv,"Read Version C","Dissertation, read only version C",WASTE,DUMP,Study1,S,49,70,Test,User,-,,Recall,Recall1,11710,trash,0,9823,11149,0,0,,1
5bbfa80b9458d20001eedd51,sb90sr5xi8,Nick_Dissertation_EX1,1,117,2020-07-08T14:53:04-07:00,3.4774870872498,3,versionC_stim.csv,READVersionC.csv,"Read Version C","Dissertation, read only version C",CLUTTER,PUSHER,Study1,U,66,60,Test,User,-,,Recall,Recall1,3141,trash,36.363636363636,1509,2650,0,0,,1
5bbfa80b9458d20001eedd51,sb90sr5xi8,Nick_Dissertation_EX1,1,118,2020-07-08T14:53:22-07:00,18.738780021667,3,versionC_stim.csv,READVersionC.csv,"Read Version C","Dissertation, read only version C",FLOOR,DISCOVER,Study1,U,71,23,Test,User,-,,Recall,Recall1,18397,tile,33.333333333333,16721,17865,0,0,,1
5bbfa80b9458d20001eedd51,sb90sr5xi8,Nick_Dissertation_EX1,1,119,2020-07-08T14:53:26-07:00,3.8655488491058,3,versionC_stim.csv,READVersionC.csv,"Read Version C","Dissertation, read only version C",STENCH,SMELL,Study1,F,42,16,Test,User,-,,Recall,Recall1,3543,smell,100,1583,3229,1,1,,1
5bbfa80b9458d20001eedd51,sb90sr5xi8,Nick_Dissertation_EX1,1,120,2020-07-08T14:53:30-07:00,3.5804090499878,3,versionC_stim.csv,READVersionC.csv,"Read Version C","Dissertation, read only version C",NEWS,EDITOR,Study1,B,10,19,Test,User,-,,Recall,Recall1,3273,flash,0,1386,2850,0,0,,1
5bbfa80b9458d20001eedd51,sb90sr5xi8,Nick_Dissertation_EX1,1,121,2020-07-08T14:53:34-07:00,3.8020761013031,3,versionC_stim.csv,READVersionC.csv,"Read Version C","Dissertation, read only version C",BAR,GRILL,Study1,S,52,66,Test,User,-,,Recall,Recall1,3473,grill,100,2243,3167,1,1,,1
5bbfa80b9458d20001eedd51,sb90sr5xi8,Nick_Dissertation_EX1,1,122,2020-07-08T14:53:37-07:00,3.1045589447021,3,versionC_stim.csv,READVersionC.csv,"Read Version C","Dissertation, read only version C",PLANT,ROOT,Study1,B,13,63,Test,User,-,,Recall,Recall1,2769,green,22.222222222222,1438,2293,0,0,,1
5bbfa80b9458d20001eedd51,sb90sr5xi8,Nick_Dissertation_EX1,1,123,2020-07-08T14:53:40-07:00,3.1973118782043,3,versionC_stim.csv,READVersionC.csv,"Read Version C","Dissertation, read only version C",SIGHT,DEBATE,Study1,U,73,85,Test,User,-,,Recall,Recall1,2886,seen,40,1721,2409,0,0,,1
5bbfa80b9458d20001eedd51,sb90sr5xi8,Nick_Dissertation_EX1,1,124,2020-07-08T14:53:42-07:00,2.2547459602356,3,versionC_stim.csv,READVersionC.csv,"Read Version C","Dissertation, read only version C",OUT,WAY,Study1,B,16,24,Test,User,-,,Recall,Recall1,1920,in,0,1172,1449,0,0,,1
5bbfa80b9458d20001eedd51,sb90sr5xi8,Nick_Dissertation_EX1,1,125,2020-07-08T14:53:45-07:00,3.3026411533356,3,versionC_stim.csv,READVersionC.csv,"Read Version C","Dissertation, read only version C",WASP,BUG,Study1,F,32,10,Test,User,-,,Recall,Recall1,2959,bee,33.333333333333,1439,2157,0,0,,1
5bbfa80b9458d20001eedd51,sb90sr5xi8,Nick_Dissertation_EX1,1,126,2020-07-08T14:53:51-07:00,5.6133999824524,3,versionC_stim.csv,READVersionC.csv,"Read Version C","Dissertation, read only version C",ROCK,GEOLOGY,Study1,B,19,77,Test,User,-,,Recall,Recall1,5275,steel,33.333333333333,1597,4889,0,0,,1
5bbfa80b9458d20001eedd51,sb90sr5xi8,Nick_Dissertation_EX1,1,127,2020-07-08T14:53:56-07:00,4.8939170837402,3,versionC_stim.csv,READVersionC.csv,"Read Version C","Dissertation, read only version C",FOOT,SHOE,Study1,S,60,40,Test,User,-,,Recall,Recall1,4571,toes,50,2749,3828,0,0,,1
5bbfa80b9458d20001eedd51,sb90sr5xi8,Nick_Dissertation_EX1,1,128,2020-07-08T14:54:03-07:00,7.51322889328,3,versionC_stim.csv,READVersionC.csv,"Read Version C","Dissertation, read only version C",BRONZE,ARTERY,Study1,U,74,64,Test,User,-,,Recall,Recall1,7183,gold,0,5490,6609,0,0,,1
5bbfa80b9458d20001eedd51,sb90sr5xi8,Nick_Dissertation_EX1,1,129,2020-07-08T14:54:09-07:00,5.6091721057892,3,versionC_stim.csv,READVersionC.csv,"Read Version C","Dissertation, read only version C",RACKET,BALL,Study1,F,38,42,Test,User,-,,Recall,Recall1,5276,tennis,0,3289,4753,0,0,,1
5bbfa80b9458d20001eedd51,sb90sr5xi8,Nick_Dissertation_EX1,1,130,2020-07-08T14:54:13-07:00,4.0246579647064,3,versionC_stim.csv,READVersionC.csv,"Read Version C","Dissertation, read only version C",STING,HORNET,Study1,B,11,35,Test,User,-,,Recall,Recall1,3698,wasp,0,2527,3404,0,0,,1
5bbfa80b9458d20001eedd51,sb90sr5xi8,Nick_Dissertation_EX1,1,131,2020-07-08T14:54:20-07:00,6.4856669902802,3,versionC_stim.csv,READVersionC.csv,"Read Version C","Dissertation, read only version C",BUSINESS,DEATH,Study1,U,72,41,Test,User,-,,Recall,Recall1,6169,money,20,4190,5707,0,0,,1
5bbfa80b9458d20001eedd51,sb90sr5xi8,Nick_Dissertation_EX1,1,132,2020-07-08T14:54:22-07:00,2.9381048679352,3,versionC_stim.csv,READVersionC.csv,"Read Version C","Dissertation, read only version C",CHILD,BABY,Study1,S,64,34,Test,User,-,,Recall,Recall1,2597,mom,0,1626,2128,0,0,,1
5bbfa80b9458d20001eedd51,sb90sr5xi8,Nick_Dissertation_EX1,1,133,2020-07-08T14:54:27-07:00,4.1745541095734,3,versionC_stim.csv,READVersionC.csv,"Read Version C","Dissertation, read only version C",BLAZE,FIRE,Study1,F,45,12,Test,User,-,,Recall,Recall1,3806,fire,100,1183,3100,1,1,,1
5bbfa80b9458d20001eedd51,sb90sr5xi8,Nick_Dissertation_EX1,1,134,2020-07-08T14:54:31-07:00,4.4937520027161,3,versionC_stim.csv,READVersionC.csv,"Read Version C","Dissertation, read only version C",ATTIRE,CLOTHES,Study1,F,43,75,Test,User,-,,Recall,Recall1,4198,clothes,100,1797,3460,1,1,,1
5bbfa80b9458d20001eedd51,sb90sr5xi8,Nick_Dissertation_EX1,1,135,2020-07-08T14:54:48-07:00,16.700090885162,3,versionC_stim.csv,READVersionC.csv,"Read Version C","Dissertation, read only version C",FUTURE,PAST,Study1,S,61,67,Test,User,-,,Recall,Recall1,16306,past,100,14688,15802,1,1,,1
5bbfa80b9458d20001eedd51,sb90sr5xi8,Nick_Dissertation_EX1,1,136,2020-07-08T14:54:56-07:00,8.4919171333313,3,versionC_stim.csv,READVersionC.csv,"Read Version C","Dissertation, read only version C",ROUND,CIRCLE,Study1,S,65,83,Test,User,-,,Recall,Recall1,8172,circle,100,3300,7643,1,1,,1
5bbfa80b9458d20001eedd51,sb90sr5xi8,Nick_Dissertation_EX1,1,137,2020-07-08T14:55:00-07:00,3.5260779857635,3,versionC_stim.csv,READVersionC.csv,"Read Version C","Dissertation, read only version C",ENOUGH,FULL,Study1,F,26,57,Test,User,-,,Recall,Recall1,3167,less,25,1814,2718,0,0,,1
5bbfa80b9458d20001eedd51,sb90sr5xi8,Nick_Dissertation_EX1,1,138,2020-07-08T14:55:17-07:00,16.889006853104,3,versionC_stim.csv,READVersionC.csv,"Read Version C","Dissertation, read only version C",FANTASTIC,GREAT,Study1,F,35,84,Test,User,-,,Recall,Recall1,16512,lame,22.222222222222,14587,15959,0,0,,1
5bbfa80b9458d20001eedd51,sb90sr5xi8,Nick_Dissertation_EX1,1,139,2020-07-08T14:55:25-07:00,7.9284901618958,3,versionC_stim.csv,READVersionC.csv,"Read Version C","Dissertation, read only version C",SACKING,DIETARY,Study1,U,67,9,Test,User,-,,Recall,Recall1,7535,bag,20,6529,7262,0,0,,1
5bbfa80b9458d20001eedd51,sb90sr5xi8,Nick_Dissertation_EX1,1,140,2020-07-08T14:55:42-07:00,17.171669960022,3,versionC_stim.csv,READVersionC.csv,"Read Version C","Dissertation, read only version C",ACCIDENT,STRONG,Study1,U,80,15,Test,User,-,,Recall,Recall1,16841,car,22.222222222222,16100,16522,0,0,,1
5bbfa80b9458d20001eedd51,sb90sr5xi8,Nick_Dissertation_EX1,1,141,2020-07-08T14:55:44-07:00,2.4678719043732,3,versionC_stim.csv,READVersionC.csv,"Read Version C","Dissertation, read only version C",BAD,DELINQUENT,Study1,B,6,48,Test,User,-,,Recall,Recall1,2136,good,14.285714285714,1202,1636,0,0,,1
5bbfa80b9458d20001eedd51,sb90sr5xi8,Nick_Dissertation_EX1,1,142,2020-07-08T14:55:49-07:00,4.3396620750427,3,versionC_stim.csv,READVersionC.csv,"Read Version C","Dissertation, read only version C",AMOUNT,NUMBER,Study1,S,47,59,Test,User,-,,Recall,Recall1,4025,money,36.363636363636,2581,3393,0,0,,1
5bbfa80b9458d20001eedd51,sb90sr5xi8,Nick_Dissertation_EX1,1,143,2020-07-08T14:55:51-07:00,2.4730870723724,3,versionC_stim.csv,READVersionC.csv,"Read Version C","Dissertation, read only version C",COLD,BITTER,Study1,B,12,22,Test,User,-,,Recall,Recall1,2136,hot,22.222222222222,1205,1621,0,0,,1
5bbfa80b9458d20001eedd51,sb90sr5xi8,Nick_Dissertation_EX1,1,144,2020-07-08T14:55:55-07:00,4.0165348052979,3,versionC_stim.csv,READVersionC.csv,"Read Version C","Dissertation, read only version C",WOULD,CASH,Study1,U,83,21,Test,User,-,,Recall,Recall1,3663,will,0,2273,2791,0,0,,1
5bbfa80b9458d20001eedd51,sb90sr5xi8,Nick_Dissertation_EX1,1,145,2020-07-08T14:56:15-07:00,19.412337064743,3,versionC_stim.csv,READVersionC.csv,"Read Version C","Dissertation, read only version C",TUCK,ALLOW,Study1,U,78,65,Test,User,-,,Recall,Recall1,19085,belt,22.222222222222,15850,18461,0,0,,1
5bbfa80b9458d20001eedd51,sb90sr5xi8,Nick_Dissertation_EX1,1,146,2020-07-08T14:56:18-07:00,3.8791100978851,3,versionC_stim.csv,READVersionC.csv,"Read Version C","Dissertation, read only version C",WATER,BRIDGE,Study1,B,18,54,Test,User,-,,Recall,Recall1,3522,juice,36.363636363636,1819,2847,0,0,,1
5bbfa80b9458d20001eedd51,sb90sr5xi8,Nick_Dissertation_EX1,1,147,2020-07-08T14:56:22-07:00,3.4537529945374,3,versionC_stim.csv,READVersionC.csv,"Read Version C","Dissertation, read only version C",SEIZE,TAKE,Study1,F,29,58,Test,User,-,,Recall,Recall1,3114,grab,25,1548,2524,0,0,,1
5bbfa80b9458d20001eedd51,sb90sr5xi8,Nick_Dissertation_EX1,1,148,2020-07-08T14:56:26-07:00,4.4607560634613,3,versionC_stim.csv,READVersionC.csv,"Read Version C","Dissertation, read only version C",DROWSY,SLEEP,Study1,F,41,74,Test,User,-,,Recall,Recall1,4081,sleepy,90.909090909091,1554,3538,0,1,,1
5bbfa80b9458d20001eedd51,sb90sr5xi8,Nick_Dissertation_EX1,1,149,2020-07-08T14:56:32-07:00,6.0863518714905,3,versionC_stim.csv,READVersionC.csv,"Read Version C","Dissertation, read only version C",CHILI,HOT,Study1,F,37,30,Test,User,-,,Recall,Recall1,5766,meat,28.571428571429,3904,5033,0,0,,1
5bbfa80b9458d20001eedd51,sb90sr5xi8,Nick_Dissertation_EX1,1,150,2020-07-08T14:56:40-07:00,7.074695110321,3,versionC_stim.csv,READVersionC.csv,"Read Version C","Dissertation, read only version C",HUNGRY,PARK,Study1,U,68,55,Test,User,-,,Recall,Recall1,6692,eat,28.571428571429,3378,5948,0,0,,1
5bbfa80b9458d20001eedd51,sb90sr5xi8,Nick_Dissertation_EX1,1,151,2020-07-08T14:56:43-07:00,3.2959399223328,3,versionC_stim.csv,READVersionC.csv,"Read Version C","Dissertation, read only version C",SIP,DRINK,Study1,F,27,47,Test,User,-,,Recall,Recall1,2965,drink,100,1401,2522,1,1,,1
5bbfa80b9458d20001eedd51,sb90sr5xi8,Nick_Dissertation_EX1,1,152,2020-07-08T14:56:48-07:00,5.3923060894012,3,versionC_stim.csv,READVersionC.csv,"Read Version C","Dissertation, read only version C",DEFINITION,MEANING,Study1,S,62,46,Test,User,-,,Recall,Recall1,5081,word,0,2901,4422,0,0,,1
5bbfa80b9458d20001eedd51,sb90sr5xi8,Nick_Dissertation_EX1,1,153,2020-07-08T14:57:11-07:00,23.005393981934,3,versionC_stim.csv,READVersionC.csv,"Read Version C","Dissertation, read only version C",CAVE,DARK,Study1,F,28,68,Test,User,-,,Recall,Recall1,22558,bear,50,21032,22064,0,0,,1
5bbfa80b9458d20001eedd51,sb90sr5xi8,Nick_Dissertation_EX1,1,154,2020-07-08T14:57:14-07:00,2.8018279075623,3,versionC_stim.csv,READVersionC.csv,"Read Version C","Dissertation, read only version C",DOG,PAW,Study1,B,15,86,Test,User,-,,Recall,Recall1,2447,cat,33.333333333333,1435,1850,0,0,,1
5bbfa80b9458d20001eedd51,sb90sr5xi8,Nick_Dissertation_EX1,1,155,2020-07-08T14:57:18-07:00,4.4321041107178,3,versionC_stim.csv,READVersionC.csv,"Read Version C","Dissertation, read only version C",JURY,TRIAL,Study1,S,50,56,Test,User,-,,Recall,Recall1,4105,court,20,2390,3648,0,0,,1
5bbfa80b9458d20001eedd51,sb90sr5xi8,Nick_Dissertation_EX1,1,156,2020-07-08T14:57:23-07:00,4.4977078437805,3,versionC_stim.csv,READVersionC.csv,"Read Version C","Dissertation, read only version C",BELT,SOON,Study1,U,70,29,Test,User,-,,Recall,Recall1,4191,pants,22.222222222222,1738,3441,0,0,,1
5bbfa80b9458d20001eedd51,sb90sr5xi8,Nick_Dissertation_EX1,1,157,2020-07-08T14:57:38-07:00,14.791702985764,3,versionC_stim.csv,READVersionC.csv,"Read Version C","Dissertation, read only version C",HAMMER,CHISEL,Study1,B,9,33,Test,User,-,,Recall,Recall1,14446,nail,40,12529,13883,0,0,,1
5bbfa80b9458d20001eedd51,sb90sr5xi8,Nick_Dissertation_EX1,1,158,2020-07-08T14:57:44-07:00,5.955010175705,3,versionC_stim.csv,READVersionC.csv,"Read Version C","Dissertation, read only version C",DIVISION,MATH,Study1,F,33,69,Test,User,-,,Recall,Recall1,5583,two,28.571428571429,4150,5137,0,0,,1
5bbfa80b9458d20001eedd51,sb90sr5xi8,Nick_Dissertation_EX1,1,159,2020-07-08T14:57:51-07:00,6.8947489261627,3,versionC_stim.csv,READVersionC.csv,"Read Version C","Dissertation, read only version C",GROWTH,HEIGHT,Study1,F,30,61,Test,User,-,,Recall,Recall1,6508,learn,18.181818181818,4164,5714,0,0,,1
5bbfa80b9458d20001eedd51,sb90sr5xi8,Nick_Dissertation_EX1,1,160,2020-07-08T14:58:02-07:00,10.940507888794,3,versionC_stim.csv,READVersionC.csv,"Read Version C","Dissertation, read only version C",DESIGN,ARCHITECTURE,Study1,S,51,13,Test,User,-,,Recall,Recall1,10553,tile,25,1568,9869,0,0,,1
5bbfa80b9458d20001eedd51,sb90sr5xi8,Nick_Dissertation_EX1,1,161,2020-07-08T14:58:05-07:00,3.3251521587372,3,versionC_stim.csv,READVersionC.csv,"Read Version C","Dissertation, read only version C",RIDDLE,SUGAR,Study1,U,81,52,Test,User,-,,Recall,Recall1,2973,joke,0,1403,2387,0,0,,1
5bbfa80b9458d20001eedd51,sb90sr5xi8,Nick_Dissertation_EX1,1,162,2020-07-08T14:58:10-07:00,5.4024329185486,3,versionC_stim.csv,READVersionC.csv,"Read Version C","Dissertation, read only version C",VASE,KING,Study1,U,85,26,Test,User,-,,Recall,Recall1,5084,flower,0,2595,4216,0,0,,1
5bbfa80b9458d20001eedd51,sb90sr5xi8,Nick_Dissertation_EX1,1,163,2020-07-08T14:58:18-07:00,8.0211079120636,3,versionC_stim.csv,READVersionC.csv,"Read Version C","Dissertation, read only version C",LIVER,KIDNEY,Study1,S,53,80,Test,User,-,,Recall,Recall1,7683,lung,20,4806,7179,0,0,,1
5bbfa80b9458d20001eedd51,sb90sr5xi8,Nick_Dissertation_EX1,1,164,2020-07-08T14:58:31-07:00,12.578680992126,3,versionC_stim.csv,READVersionC.csv,"Read Version C","Dissertation, read only version C",STOMACH,DIGESTION,Study1,B,7,71,Test,User,-,,Recall,Recall1,12165,eat,33.333333333333,10845,11510,0,0,,1
5bbfa80b9458d20001eedd51,sb90sr5xi8,Nick_Dissertation_EX1,1,165,2020-07-08T14:58:33-07:00,2.630891084671,3,versionC_stim.csv,READVersionC.csv,"Read Version C","Dissertation, read only version C",COW,HERD,Study1,B,22,14,Test,User,-,,Recall,Recall1,2255,milk,0,1125,1762,0,0,,1
5bbfa80b9458d20001eedd51,sb90sr5xi8,Nick_Dissertation_EX1,1,166,2020-07-08T14:58:37-07:00,3.9799199104309,3,versionC_stim.csv,READVersionC.csv,"Read Version C","Dissertation, read only version C",SALAD,LETTUCE,Study1,S,59,36,Test,User,-,,Recall,Recall1,3655,tossed,30.769230769231,1447,3068,0,0,,1
5bbfa80b9458d20001eedd51,sb90sr5xi8,Nick_Dissertation_EX1,1,167,2020-07-08T14:58:41-07:00,3.5977070331573,3,versionC_stim.csv,READVersionC.csv,"Read Version C","Dissertation, read only version C",CHORE,WORK,Study1,F,39,18,Test,User,-,,Recall,Recall1,3248,work,100,1586,2874,1,1,,1
5bbfa80b9458d20001eedd51,sb90sr5xi8,Nick_Dissertation_EX1,1,168,2020-07-08T14:58:45-07:00,3.7497160434723,3,versionC_stim.csv,READVersionC.csv,"Read Version C","Dissertation, read only version C",BIRD,SWAN,Study1,B,14,32,Test,User,-,,Recall,Recall1,3436,"fly\",0,2142,3431,0,0,,1
5bbfa80b9458d20001eedd51,sb90sr5xi8,Nick_Dissertation_EX1,1,169,2020-07-08T14:58:49-07:00,3.9686419963837,3,versionC_stim.csv,READVersionC.csv,"Read Version C","Dissertation, read only version C",TALK,DISCUSSION,Study1,B,21,82,Test,User,-,,Recall,Recall1,3646,speak,13.333333333333,1362,3259,0,0,,1
5bbfa80b9458d20001eedd51,sb90sr5xi8,Nick_Dissertation_EX1,1,170,2020-07-08T14:58:58-07:00,9.4213471412659,3,versionC_stim.csv,READVersionC.csv,"Read Version C","Dissertation, read only version C",CARD,CREDIT,Study1,B,23,11,Test,User,-,,Recall,Recall1,9089,jack,20,7377,8628,0,0,,1
5bbfa80b9458d20001eedd51,sb90sr5xi8,Nick_Dissertation_EX1,1,171,2020-07-08T14:59:05-07:00,6.9797837734222,3,versionC_stim.csv,READVersionC.csv,"Read Version C","Dissertation, read only version C",FAMINE,HUNGER,Study1,F,40,73,Test,User,-,,Recall,Recall1,6653,starve,16.666666666667,1793,5547,0,0,,1
5bbfa80b9458d20001eedd51,sb90sr5xi8,Nick_Dissertation_EX1,1,172,2020-07-08T14:59:09-07:00,3.7410151958466,3,versionC_stim.csv,READVersionC.csv,"Read Version C","Dissertation, read only version C",LION,ART,Study1,U,79,53,Test,User,-,,Recall,Recall1,3421,tame,28.571428571429,1558,2779,0,0,,1
5bbfa80b9458d20001eedd51,sb90sr5xi8,Nick_Dissertation_EX1,1,173,2020-07-08T14:59:15-07:00,5.7463409900665,3,versionC_stim.csv,READVersionC.csv,"Read Version C","Dissertation, read only version C",CAR,HAPPY,Study1,U,77,49,Test,User,-,,Recall,Recall1,5411,bus,0,4153,4824,0,0,,1
5bbfa80b9458d20001eedd51,sb90sr5xi8,Nick_Dissertation_EX1,1,174,2020-07-08T14:59:21-07:00,5.8620839118958,3,versionC_stim.csv,READVersionC.csv,"Read Version C","Dissertation, read only version C",POSITION,MACHINE,Study1,U,76,38,Test,User,-,,Recall,Recall1,5511,stance,46.153846153846,3181,4938,0,0,,1
5bbfa80b9458d20001eedd51,sb90sr5xi8,Nick_Dissertation_EX1,1,175,2020-07-08T14:59:33-07:00,12.493505954742,3,versionC_stim.csv,READVersionC.csv,"Read Version C","Dissertation, read only version C",,,,,,0,Instruct,-,10,"You will now be presented with a new set of word pairs. Please study each pair. Remember that your memory will be tested! When finished, press Enter to move to the next pair.",Initial_Instruct,Instruct4,12128,,,-1,-1,,,,1
5bbfa80b9458d20001eedd51,sb90sr5xi8,Nick_Dissertation_EX1,1,176,2020-07-08T14:59:38-07:00,5.1988401412964,3,versionC_stim.csv,READVersionC.csv,"Read Version C","Dissertation, read only version C",ADVENTURE,CAMP,BUFFER3,Buffer,95,93,Study,User,-,,Study/JOL,BUFFER3,4870,,,-1,-1,,,,1
5bbfa80b9458d20001eedd51,sb90sr5xi8,Nick_Dissertation_EX1,1,177,2020-07-08T14:59:42-07:00,3.739236831665,3,versionC_stim.csv,READVersionC.csv,"Read Version C","Dissertation, read only version C",STRING,NOODLE,BUFFER3,Buffer,92,96,Study,User,-,,Study/JOL,BUFFER3,3411,,,-1,-1,,,,1
5bbfa80b9458d20001eedd51,sb90sr5xi8,Nick_Dissertation_EX1,1,178,2020-07-08T14:59:46-07:00,3.6332910060883,3,versionC_stim.csv,READVersionC.csv,"Read Version C","Dissertation, read only version C",FROZEN,ICE,BUFFER3,Buffer,94,94,Study,User,-,,Study/JOL,BUFFER3,3298,,,-1,-1,,,,1
5bbfa80b9458d20001eedd51,sb90sr5xi8,Nick_Dissertation_EX1,1,179,2020-07-08T14:59:48-07:00,2.4478151798248,3,versionC_stim.csv,READVersionC.csv,"Read Version C","Dissertation, read only version C",POTATO,CARROT,BUFFER3,Buffer,91,92,Study,User,-,,Study/JOL,BUFFER3,2108,,,-1,-1,,,,1
5bbfa80b9458d20001eedd51,sb90sr5xi8,Nick_Dissertation_EX1,1,180,2020-07-08T14:59:49-07:00,1.0544278621674,3,versionC_stim.csv,READVersionC.csv,"Read Version C","Dissertation, read only version C",FISH,SHRIMP,BUFFER3,Buffer,93,95,Study,User,-,,Study/JOL,BUFFER3,753,,,-1,-1,,,,1
5bbfa80b9458d20001eedd51,sb90sr5xi8,Nick_Dissertation_EX1,1,181,2020-07-08T14:59:50-07:00,1.1857941150665,3,versionC_stim.csv,READVersionC.csv,"Read Version C","Dissertation, read only version C",DRINK,WATER,Study2,S,143,130,Study,User,-,,Study/JOL,"Study Phase2",868,,,-1,-1,,,,1
5bbfa80b9458d20001eedd51,sb90sr5xi8,Nick_Dissertation_EX1,1,182,2020-07-08T14:59:53-07:00,2.7814838886261,3,versionC_stim.csv,READVersionC.csv,"Read Version C","Dissertation, read only version C",PLANT,CACTUS,Study2,B,98,151,Study,User,-,,Study/JOL,"Study Phase2",2463,,,-1,-1,,,,1
5bbfa80b9458d20001eedd51,sb90sr5xi8,Nick_Dissertation_EX1,1,183,2020-07-08T14:59:54-07:00,1.226254940033,3,versionC_stim.csv,READVersionC.csv,"Read Version C","Dissertation, read only version C",LONG,EXTENSION,Study2,B,96,135,Study,User,-,,Study/JOL,"Study Phase2",895,,,-1,-1,,,,1
5bbfa80b9458d20001eedd51,sb90sr5xi8,Nick_Dissertation_EX1,1,184,2020-07-08T14:59:57-07:00,3.0523011684418,3,versionC_stim.csv,READVersionC.csv,"Read Version C","Dissertation, read only version C",LIE,TRUTH,Study2,S,148,161,Study,User,-,,Study/JOL,"Study Phase2",1728,,,-1,-1,,,,1
5bbfa80b9458d20001eedd51,sb90sr5xi8,Nick_Dissertation_EX1,1,185,2020-07-08T14:59:59-07:00,1.4219298362732,3,versionC_stim.csv,READVersionC.csv,"Read Version C","Dissertation, read only version C",END,ADJOURN,Study2,B,101,140,Study,User,-,,Study/JOL,"Study Phase2",1106,,,-1,-1,,,,1
5bbfa80b9458d20001eedd51,sb90sr5xi8,Nick_Dissertation_EX1,1,186,2020-07-08T15:00:00-07:00,1.4906611442566,3,versionC_stim.csv,READVersionC.csv,"Read Version C","Dissertation, read only version C",SARDINE,FISH,Study2,F,130,136,Study,User,-,,Study/JOL,"Study Phase2",1199,,,-1,-1,,,,1
5bbfa80b9458d20001eedd51,sb90sr5xi8,Nick_Dissertation_EX1,1,187,2020-07-08T15:00:03-07:00,2.4662609100342,3,versionC_stim.csv,READVersionC.csv,"Read Version C","Dissertation, read only version C",SEATBELT,SAFETY,Study2,S,147,107,Study,User,-,,Study/JOL,"Study Phase2",1082,,,-1,-1,,,,1
5bbfa80b9458d20001eedd51,sb90sr5xi8,Nick_Dissertation_EX1,1,188,2020-07-08T15:00:05-07:00,1.9775359630585,3,versionC_stim.csv,READVersionC.csv,"Read Version C","Dissertation, read only version C",EAT,DINE,Study2,B,111,98,Study,User,-,,Study/JOL,"Study Phase2",1673,,,-1,-1,,,,1
5bbfa80b9458d20001eedd51,sb90sr5xi8,Nick_Dissertation_EX1,1,189,2020-07-08T15:00:06-07:00,1.1750731468201,3,versionC_stim.csv,READVersionC.csv,"Read Version C","Dissertation, read only version C",REVENGE,EVEN,Study2,F,122,150,Study,User,-,,Study/JOL,"Study Phase2",863,,,-1,-1,,,,1
5bbfa80b9458d20001eedd51,sb90sr5xi8,Nick_Dissertation_EX1,1,190,2020-07-08T15:00:08-07:00,2.2709898948669,3,versionC_stim.csv,READVersionC.csv,"Read Version C","Dissertation, read only version C",OBTAIN,MEAT,Study2,U,161,143,Study,User,-,,Study/JOL,"Study Phase2",1980,,,-1,-1,,,,1
5bbfa80b9458d20001eedd51,sb90sr5xi8,Nick_Dissertation_EX1,1,191,2020-07-08T15:00:11-07:00,2.4067890644073,3,versionC_stim.csv,READVersionC.csv,"Read Version C","Dissertation, read only version C",ELECTION,MAZE,Study2,U,159,170,Study,User,-,,Study/JOL,"Study Phase2",2070,,,-1,-1,,,,1
5bbfa80b9458d20001eedd51,sb90sr5xi8,Nick_Dissertation_EX1,1,192,2020-07-08T15:00:12-07:00,1.346195936203,3,versionC_stim.csv,READVersionC.csv,"Read Version C","Dissertation, read only version C",CLOTH,STRETCH,Study2,U,157,165,Study,User,-,,Study/JOL,"Study Phase2",1023,,,-1,-1,,,,1
5bbfa80b9458d20001eedd51,sb90sr5xi8,Nick_Dissertation_EX1,1,193,2020-07-08T15:00:14-07:00,1.8236780166626,3,versionC_stim.csv,READVersionC.csv,"Read Version C","Dissertation, read only version C",AWAY,GONE,Study2,S,142,145,Study,User,-,,Study/JOL,"Study Phase2",1512,,,-1,-1,,,,1
5bbfa80b9458d20001eedd51,sb90sr5xi8,Nick_Dissertation_EX1,1,194,2020-07-08T15:00:16-07:00,2.2924280166626,3,versionC_stim.csv,READVersionC.csv,"Read Version C","Dissertation, read only version C",AIRCRAFT,PLANE,Study2,F,129,123,Study,User,-,,Study/JOL,"Study Phase2",1974,,,-1,-1,,,,1
5bbfa80b9458d20001eedd51,sb90sr5xi8,Nick_Dissertation_EX1,1,195,2020-07-08T15:00:18-07:00,1.8489398956299,3,versionC_stim.csv,READVersionC.csv,"Read Version C","Dissertation, read only version C",LEAGUE,BASEBALL,Study2,F,131,129,Study,User,-,,Study/JOL,"Study Phase2",1521,,,-1,-1,,,,1
5bbfa80b9458d20001eedd51,sb90sr5xi8,Nick_Dissertation_EX1,1,196,2020-07-08T15:00:20-07:00,2.0374190807343,3,versionC_stim.csv,READVersionC.csv,"Read Version C","Dissertation, read only version C",TEMPER,TANTRUM,Study2,S,154,111,Study,User,-,,Study/JOL,"Study Phase2",1746,,,-1,-1,,,,1
5bbfa80b9458d20001eedd51,sb90sr5xi8,Nick_Dissertation_EX1,1,197,2020-07-08T15:00:22-07:00,1.9806809425354,3,versionC_stim.csv,READVersionC.csv,"Read Version C","Dissertation, read only version C",GAME,CLUE,Study2,B,97,160,Study,User,-,,Study/JOL,"Study Phase2",1681,,,-1,-1,,,,1
5bbfa80b9458d20001eedd51,sb90sr5xi8,Nick_Dissertation_EX1,1,198,2020-07-08T15:00:24-07:00,1.8019251823425,3,versionC_stim.csv,READVersionC.csv,"Read Version C","Dissertation, read only version C",JOKE,KEYS,Study2,U,165,147,Study,User,-,,Study/JOL,"Study Phase2",1487,,,-1,-1,,,,1
5bbfa80b9458d20001eedd51,sb90sr5xi8,Nick_Dissertation_EX1,1,199,2020-07-08T15:00:25-07:00,1.3036568164825,3,versionC_stim.csv,READVersionC.csv,"Read Version C","Dissertation, read only version C",CARBON,ELEMENT,Study2,S,141,102,Study,User,-,,Study/JOL,"Study Phase2",996,,,-1,-1,,,,1
5bbfa80b9458d20001eedd51,sb90sr5xi8,Nick_Dissertation_EX1,1,200,2020-07-08T15:00:26-07:00,1.4140341281891,3,versionC_stim.csv,READVersionC.csv,"Read Version C","Dissertation, read only version C",MAROON,JUSTICE,Study2,U,156,141,Study,User,-,,Study/JOL,"Study Phase2",1099,,,-1,-1,,,,1
5bbfa80b9458d20001eedd51,sb90sr5xi8,Nick_Dissertation_EX1,1,201,2020-07-08T15:00:28-07:00,1.6737420558929,3,versionC_stim.csv,READVersionC.csv,"Read Version C","Dissertation, read only version C",BALLOON,POP,Study2,F,123,101,Study,User,-,,Study/JOL,"Study Phase2",1339,,,-1,-1,,,,1
5bbfa80b9458d20001eedd51,sb90sr5xi8,Nick_Dissertation_EX1,1,202,2020-07-08T15:00:29-07:00,1.3921358585358,3,versionC_stim.csv,READVersionC.csv,"Read Version C","Dissertation, read only version C",CUT,CHOP,Study2,B,107,131,Study,User,-,,Study/JOL,"Study Phase2",1068,,,-1,-1,,,,1
5bbfa80b9458d20001eedd51,sb90sr5xi8,Nick_Dissertation_EX1,1,203,2020-07-08T15:00:31-07:00,1.4577119350433,3,versionC_stim.csv,READVersionC.csv,"Read Version C","Dissertation, read only version C",BREAKABLE,GLASS,Study2,F,127,138,Study,User,-,,Study/JOL,"Study Phase2",1155,,,-1,-1,,,,1
5bbfa80b9458d20001eedd51,sb90sr5xi8,Nick_Dissertation_EX1,1,204,2020-07-08T15:00:32-07:00,1.161288022995,3,versionC_stim.csv,READVersionC.csv,"Read Version C","Dissertation, read only version C",BRAWL,FIGHT,Study2,F,135,152,Study,User,-,,Study/JOL,"Study Phase2",856,,,-1,-1,,,,1
5bbfa80b9458d20001eedd51,sb90sr5xi8,Nick_Dissertation_EX1,1,205,2020-07-08T15:00:35-07:00,2.7092440128326,3,versionC_stim.csv,READVersionC.csv,"Read Version C","Dissertation, read only version C",TRASH,LITTER,Study2,B,103,103,Study,User,-,,Study/JOL,"Study Phase2",2370,,,-1,-1,,,,1
5bbfa80b9458d20001eedd51,sb90sr5xi8,Nick_Dissertation_EX1,1,206,2020-07-08T15:00:36-07:00,1.5004351139069,3,versionC_stim.csv,READVersionC.csv,"Read Version C","Dissertation, read only version C",PAPER,DOCUMENT,Study2,B,109,171,Study,User,-,,Study/JOL,"Study Phase2",1202,,,-1,-1,,,,1
5bbfa80b9458d20001eedd51,sb90sr5xi8,Nick_Dissertation_EX1,1,207,2020-07-08T15:00:39-07:00,3.0914590358734,3,versionC_stim.csv,READVersionC.csv,"Read Version C","Dissertation, read only version C",BANG,FUZZY,Study2,U,168,175,Study,User,-,,Study/JOL,"Study Phase2",2773,,,-1,-1,,,,1
5bbfa80b9458d20001eedd51,sb90sr5xi8,Nick_Dissertation_EX1,1,208,2020-07-08T15:00:42-07:00,2.8734998703003,3,versionC_stim.csv,READVersionC.csv,"Read Version C","Dissertation, read only version C",NAP,SLEEP,Study2,F,134,128,Study,User,-,,Study/JOL,"Study Phase2",2553,,,-1,-1,,,,1
5bbfa80b9458d20001eedd51,sb90sr5xi8,Nick_Dissertation_EX1,1,209,2020-07-08T15:00:45-07:00,2.7927539348602,3,versionC_stim.csv,READVersionC.csv,"Read Version C","Dissertation, read only version C",WAX,CANDLE,Study2,S,139,159,Study,User,-,,Study/JOL,"Study Phase2",2454,,,-1,-1,,,,1
5bbfa80b9458d20001eedd51,sb90sr5xi8,Nick_Dissertation_EX1,1,210,2020-07-08T15:00:49-07:00,3.6816701889038,3,versionC_stim.csv,READVersionC.csv,"Read Version C","Dissertation, read only version C",WINDSHIELD,CAR,Study2,F,117,133,Study,User,-,,Study/JOL,"Study Phase2",3388,,,-1,-1,,,,1
5bbfa80b9458d20001eedd51,sb90sr5xi8,Nick_Dissertation_EX1,1,211,2020-07-08T15:00:50-07:00,1.5821788311005,3,versionC_stim.csv,READVersionC.csv,"Read Version C","Dissertation, read only version C",ACTRESS,STAR,Study2,F,120,106,Study,User,-,,Study/JOL,"Study Phase2",1254,,,-1,-1,,,,1
5bbfa80b9458d20001eedd51,sb90sr5xi8,Nick_Dissertation_EX1,1,212,2020-07-08T15:00:51-07:00,1.1027970314026,3,versionC_stim.csv,READVersionC.csv,"Read Version C","Dissertation, read only version C",CHILDREN,MIRROR,Study2,U,174,155,Study,User,-,,Study/JOL,"Study Phase2",797,,,-1,-1,,,,1
5bbfa80b9458d20001eedd51,sb90sr5xi8,Nick_Dissertation_EX1,1,213,2020-07-08T15:00:52-07:00,0.91982698440552,3,versionC_stim.csv,READVersionC.csv,"Read Version C","Dissertation, read only version C",BRACELET,WRIST,Study2,S,140,146,Study,User,-,,Study/JOL,"Study Phase2",623,,,-1,-1,,,,1
5bbfa80b9458d20001eedd51,sb90sr5xi8,Nick_Dissertation_EX1,1,214,2020-07-08T15:00:53-07:00,0.96094512939453,3,versionC_stim.csv,READVersionC.csv,"Read Version C","Dissertation, read only version C",RED,CHERRY,Study2,B,104,116,Study,User,-,,Study/JOL,"Study Phase2",665,,,-1,-1,,,,1
5bbfa80b9458d20001eedd51,sb90sr5xi8,Nick_Dissertation_EX1,1,215,2020-07-08T15:00:57-07:00,3.9122638702393,3,versionC_stim.csv,READVersionC.csv,"Read Version C","Dissertation, read only version C",NOISE,LOUD,Study2,S,152,167,Study,User,-,,Study/JOL,"Study Phase2",3605,,,-1,-1,,,,1
5bbfa80b9458d20001eedd51,sb90sr5xi8,Nick_Dissertation_EX1,1,216,2020-07-08T15:01:01-07:00,3.7832350730896,3,versionC_stim.csv,READVersionC.csv,"Read Version C","Dissertation, read only version C",SIGN,LOAN,Study2,U,171,137,Study,User,-,,Study/JOL,"Study Phase2",3450,,,-1,-1,,,,1
5bbfa80b9458d20001eedd51,sb90sr5xi8,Nick_Dissertation_EX1,1,217,2020-07-08T15:01:06-07:00,5.3287510871887,3,versionC_stim.csv,READVersionC.csv,"Read Version C","Dissertation, read only version C",TOIL,LEASE,Study2,U,170,144,Study,User,-,,Study/JOL,"Study Phase2",4982,,,-1,-1,,,,1
5bbfa80b9458d20001eedd51,sb90sr5xi8,Nick_Dissertation_EX1,1,218,2020-07-08T15:01:13-07:00,7.0740528106689,3,versionC_stim.csv,READVersionC.csv,"Read Version C","Dissertation, read only version C",REEL,ROD,Study2,S,150,124,Study,User,-,,Study/JOL,"Study Phase2",6778,,,-1,-1,,,,1
5bbfa80b9458d20001eedd51,sb90sr5xi8,Nick_Dissertation_EX1,1,219,2020-07-08T15:01:14-07:00,0.97994208335876,3,versionC_stim.csv,READVersionC.csv,"Read Version C","Dissertation, read only version C",PENGUIN,BIRD,Study2,F,119,97,Study,User,-,,Study/JOL,"Study Phase2",595,,,-1,-1,,,,1
5bbfa80b9458d20001eedd51,sb90sr5xi8,Nick_Dissertation_EX1,1,220,2020-07-08T15:01:15-07:00,0.83453702926636,3,versionC_stim.csv,READVersionC.csv,"Read Version C","Dissertation, read only version C",FIGHT,FEUD,Study2,B,113,105,Study,User,-,,Study/JOL,"Study Phase2",405,,,-1,-1,,,,1
5bbfa80b9458d20001eedd51,sb90sr5xi8,Nick_Dissertation_EX1,1,221,2020-07-08T15:01:16-07:00,0.85163998603821,3,versionC_stim.csv,READVersionC.csv,"Read Version C","Dissertation, read only version C",TICK,FLEA,Study2,S,151,113,Study,User,-,,Study/JOL,"Study Phase2",484,,,-1,-1,,,,1
5bbfa80b9458d20001eedd51,sb90sr5xi8,Nick_Dissertation_EX1,1,222,2020-07-08T15:01:17-07:00,0.93225407600403,3,versionC_stim.csv,READVersionC.csv,"Read Version C","Dissertation, read only version C",FLIP,TURN,Study2,F,116,173,Study,User,-,,Study/JOL,"Study Phase2",620,,,-1,-1,,,,1
5bbfa80b9458d20001eedd51,sb90sr5xi8,Nick_Dissertation_EX1,1,223,2020-07-08T15:01:20-07:00,2.7322919368744,3,versionC_stim.csv,READVersionC.csv,"Read Version C","Dissertation, read only version C",CAR,DRIVER,Study2,B,106,109,Study,User,-,,Study/JOL,"Study Phase2",2373,,,-1,-1,,,,1
5bbfa80b9458d20001eedd51,sb90sr5xi8,Nick_Dissertation_EX1,1,224,2020-07-08T15:01:21-07:00,1.1392769813538,3,versionC_stim.csv,READVersionC.csv,"Read Version C","Dissertation, read only version C",TIE,SHOELACE,Study2,B,99,149,Study,User,-,,Study/JOL,"Study Phase2",824,,,-1,-1,,,,1
5bbfa80b9458d20001eedd51,sb90sr5xi8,Nick_Dissertation_EX1,1,225,2020-07-08T15:01:22-07:00,1.3527190685272,3,versionC_stim.csv,READVersionC.csv,"Read Version C","Dissertation, read only version C",Morning,TEMPERATURE,Study2,U,173,110,Study,User,-,,Study/JOL,"Study Phase2",1034,,,-1,-1,,,,1
5bbfa80b9458d20001eedd51,sb90sr5xi8,Nick_Dissertation_EX1,1,226,2020-07-08T15:01:23-07:00,1.2814409732819,3,versionC_stim.csv,READVersionC.csv,"Read Version C","Dissertation, read only version C",TRUTHFUL,HONEST,Study2,F,133,158,Study,User,-,,Study/JOL,"Study Phase2",955,,,-1,-1,,,,1
5bbfa80b9458d20001eedd51,sb90sr5xi8,Nick_Dissertation_EX1,1,227,2020-07-08T15:01:25-07:00,1.5396299362183,3,versionC_stim.csv,READVersionC.csv,"Read Version C","Dissertation, read only version C",ABLE,CRACKLE,Study2,U,162,154,Study,User,-,,Study/JOL,"Study Phase2",1209,,,-1,-1,,,,1
5bbfa80b9458d20001eedd51,sb90sr5xi8,Nick_Dissertation_EX1,1,228,2020-07-08T15:01:26-07:00,1.2013850212097,3,versionC_stim.csv,READVersionC.csv,"Read Version C","Dissertation, read only version C",OUNCE,BOTH,Study2,U,172,121,Study,User,-,,Study/JOL,"Study Phase2",906,,,-1,-1,,,,1
5bbfa80b9458d20001eedd51,sb90sr5xi8,Nick_Dissertation_EX1,1,229,2020-07-08T15:01:28-07:00,1.7316679954529,3,versionC_stim.csv,READVersionC.csv,"Read Version C","Dissertation, read only version C",TAN,SUN,Study2,S,155,99,Study,User,-,,Study/JOL,"Study Phase2",1438,,,-1,-1,,,,1
5bbfa80b9458d20001eedd51,sb90sr5xi8,Nick_Dissertation_EX1,1,230,2020-07-08T15:01:29-07:00,1.4407629966736,3,versionC_stim.csv,READVersionC.csv,"Read Version C","Dissertation, read only version C",SCISSORS,SHEARS,Study2,B,112,132,Study,User,-,,Study/JOL,"Study Phase2",1141,,,-1,-1,,,,1
5bbfa80b9458d20001eedd51,sb90sr5xi8,Nick_Dissertation_EX1,1,231,2020-07-08T15:01:31-07:00,1.6426949501038,3,versionC_stim.csv,READVersionC.csv,"Read Version C","Dissertation, read only version C",STEAK,GIVE,Study2,U,158,117,Study,User,-,,Study/JOL,"Study Phase2",1354,,,-1,-1,,,,1
5bbfa80b9458d20001eedd51,sb90sr5xi8,Nick_Dissertation_EX1,1,232,2020-07-08T15:01:32-07:00,1.1339571475983,3,versionC_stim.csv,READVersionC.csv,"Read Version C","Dissertation, read only version C",SMELL,INCENSE,Study2,B,110,122,Study,User,-,,Study/JOL,"Study Phase2",830,,,-1,-1,,,,1
5bbfa80b9458d20001eedd51,sb90sr5xi8,Nick_Dissertation_EX1,1,233,2020-07-08T15:01:35-07:00,2.6108360290527,3,versionC_stim.csv,READVersionC.csv,"Read Version C","Dissertation, read only version C",COFFIN,DEAD,Study2,F,128,112,Study,User,-,,Study/JOL,"Study Phase2",1065,,,-1,-1,,,,1
5bbfa80b9458d20001eedd51,sb90sr5xi8,Nick_Dissertation_EX1,1,234,2020-07-08T15:01:37-07:00,2.5687448978424,3,versionC_stim.csv,READVersionC.csv,"Read Version C","Dissertation, read only version C",GROUND,EARTH,Study2,S,144,164,Study,User,-,,Study/JOL,"Study Phase2",2166,,,-1,-1,,,,1
5bbfa80b9458d20001eedd51,sb90sr5xi8,Nick_Dissertation_EX1,1,235,2020-07-08T15:01:38-07:00,1.0982789993286,3,versionC_stim.csv,READVersionC.csv,"Read Version C","Dissertation, read only version C",CLOTHES,CAKE,Study2,U,166,120,Study,User,-,,Study/JOL,"Study Phase2",785,,,-1,-1,,,,1
5bbfa80b9458d20001eedd51,sb90sr5xi8,Nick_Dissertation_EX1,1,236,2020-07-08T15:01:40-07:00,1.2045090198517,3,versionC_stim.csv,READVersionC.csv,"Read Version C","Dissertation, read only version C",VILLAIN,BAD,Study2,F,118,134,Study,User,-,,Study/JOL,"Study Phase2",904,,,-1,-1,,,,1
5bbfa80b9458d20001eedd51,sb90sr5xi8,Nick_Dissertation_EX1,1,237,2020-07-08T15:01:56-07:00,15.886662006378,3,versionC_stim.csv,READVersionC.csv,"Read Version C","Dissertation, read only version C",STRAWBERRY,FRUIT,Study2,F,124,172,Study,User,-,,Study/JOL,"Study Phase2",15546,,,-1,-1,,,,1
5bbfa80b9458d20001eedd51,sb90sr5xi8,Nick_Dissertation_EX1,1,238,2020-07-08T15:01:57-07:00,1.0037000179291,3,versionC_stim.csv,READVersionC.csv,"Read Version C","Dissertation, read only version C",PANTHER,CAT,Study2,F,126,163,Study,User,-,,Study/JOL,"Study Phase2",655,,,-1,-1,,,,1
5bbfa80b9458d20001eedd51,sb90sr5xi8,Nick_Dissertation_EX1,1,239,2020-07-08T15:01:58-07:00,0.97048997879028,3,versionC_stim.csv,READVersionC.csv,"Read Version C","Dissertation, read only version C",JAR,MASON,Study2,S,138,114,Study,User,-,,Study/JOL,"Study Phase2",654,,,-1,-1,,,,1
5bbfa80b9458d20001eedd51,sb90sr5xi8,Nick_Dissertation_EX1,1,240,2020-07-08T15:01:59-07:00,1.9254710674286,3,versionC_stim.csv,READVersionC.csv,"Read Version C","Dissertation, read only version C",FICTION,LISTEN,Study2,U,164,148,Study,User,-,,Study/JOL,"Study Phase2",617,,,-1,-1,,,,1
5bbfa80b9458d20001eedd51,sb90sr5xi8,Nick_Dissertation_EX1,1,241,2020-07-08T15:02:00-07:00,0.99207496643066,3,versionC_stim.csv,READVersionC.csv,"Read Version C","Dissertation, read only version C",THIMBLE,THREAD,Study2,F,121,115,Study,User,-,,Study/JOL,"Study Phase2",677,,,-1,-1,,,,1
5bbfa80b9458d20001eedd51,sb90sr5xi8,Nick_Dissertation_EX1,1,242,2020-07-08T15:02:02-07:00,1.2344670295715,3,versionC_stim.csv,READVersionC.csv,"Read Version C","Dissertation, read only version C",COLD,CHILL,Study2,B,114,176,Study,User,-,,Study/JOL,"Study Phase2",922,,,-1,-1,,,,1
5bbfa80b9458d20001eedd51,sb90sr5xi8,Nick_Dissertation_EX1,1,243,2020-07-08T15:02:03-07:00,1.11629986763,3,versionC_stim.csv,READVersionC.csv,"Read Version C","Dissertation, read only version C",HATE,NAME,Study2,U,167,108,Study,User,-,,Study/JOL,"Study Phase2",806,,,-1,-1,,,,1
5bbfa80b9458d20001eedd51,sb90sr5xi8,Nick_Dissertation_EX1,1,244,2020-07-08T15:02:04-07:00,0.97928714752197,3,versionC_stim.csv,READVersionC.csv,"Read Version C","Dissertation, read only version C",SHAVE,RAZOR,Study2,S,136,168,Study,User,-,,Study/JOL,"Study Phase2",636,,,-1,-1,,,,1
5bbfa80b9458d20001eedd51,sb90sr5xi8,Nick_Dissertation_EX1,1,245,2020-07-08T15:02:06-07:00,1.8291277885437,3,versionC_stim.csv,READVersionC.csv,"Read Version C","Dissertation, read only version C",BANKER,MONEY,Study2,F,132,156,Study,User,-,,Study/JOL,"Study Phase2",1505,,,-1,-1,,,,1
5bbfa80b9458d20001eedd51,sb90sr5xi8,Nick_Dissertation_EX1,1,246,2020-07-08T15:02:07-07:00,1.2149941921234,3,versionC_stim.csv,READVersionC.csv,"Read Version C","Dissertation, read only version C",CHARM,VEHICLE,Study2,U,160,139,Study,User,-,,Study/JOL,"Study Phase2",874,,,-1,-1,,,,1
5bbfa80b9458d20001eedd51,sb90sr5xi8,Nick_Dissertation_EX1,1,247,2020-07-08T15:02:08-07:00,1.0003509521484,3,versionC_stim.csv,READVersionC.csv,"Read Version C","Dissertation, read only version C",WET,DRY,Study2,S,146,125,Study,User,-,,Study/JOL,"Study Phase2",656,,,-1,-1,,,,1
5bbfa80b9458d20001eedd51,sb90sr5xi8,Nick_Dissertation_EX1,1,248,2020-07-08T15:02:09-07:00,1.242595911026,3,versionC_stim.csv,READVersionC.csv,"Read Version C","Dissertation, read only version C",HAVE,OWN,Study2,S,153,127,Study,User,-,,Study/JOL,"Study Phase2",921,,,-1,-1,,,,1
5bbfa80b9458d20001eedd51,sb90sr5xi8,Nick_Dissertation_EX1,1,249,2020-07-08T15:02:10-07:00,1.0041401386261,3,versionC_stim.csv,READVersionC.csv,"Read Version C","Dissertation, read only version C",MYSTERY,DETECTIVE,Study2,B,100,174,Study,User,-,,Study/JOL,"Study Phase2",690,,,-1,-1,,,,1
5bbfa80b9458d20001eedd51,sb90sr5xi8,Nick_Dissertation_EX1,1,250,2020-07-08T15:02:11-07:00,1.1668808460236,3,versionC_stim.csv,READVersionC.csv,"Read Version C","Dissertation, read only version C",CLEAR,MOAT,Study2,U,169,119,Study,User,-,,Study/JOL,"Study Phase2",868,,,-1,-1,,,,1
5bbfa80b9458d20001eedd51,sb90sr5xi8,Nick_Dissertation_EX1,1,251,2020-07-08T15:02:14-07:00,2.9987721443176,3,versionC_stim.csv,READVersionC.csv,"Read Version C","Dissertation, read only version C",LONELY,ALONE,Study2,S,145,162,Study,User,-,,Study/JOL,"Study Phase2",2650,,,-1,-1,,,,1
5bbfa80b9458d20001eedd51,sb90sr5xi8,Nick_Dissertation_EX1,1,252,2020-07-08T15:02:19-07:00,5.1501870155334,3,versionC_stim.csv,READVersionC.csv,"Read Version C","Dissertation, read only version C",DONKEY,MULE,Study2,B,108,100,Study,User,-,,Study/JOL,"Study Phase2",4825,,,-1,-1,,,,1
5bbfa80b9458d20001eedd51,sb90sr5xi8,Nick_Dissertation_EX1,1,253,2020-07-08T15:02:23-07:00,3.2176978588104,3,versionC_stim.csv,READVersionC.csv,"Read Version C","Dissertation, read only version C",SHAKE,Shell,Study2,U,163,126,Study,User,-,,Study/JOL,"Study Phase2",2902,,,-1,-1,,,,1
5bbfa80b9458d20001eedd51,sb90sr5xi8,Nick_Dissertation_EX1,1,254,2020-07-08T15:02:26-07:00,3.2287940979004,3,versionC_stim.csv,READVersionC.csv,"Read Version C","Dissertation, read only version C",LOVE,AFFECTION,Study2,B,115,118,Study,User,-,,Study/JOL,"Study Phase2",2873,,,-1,-1,,,,1
5bbfa80b9458d20001eedd51,sb90sr5xi8,Nick_Dissertation_EX1,1,255,2020-07-08T15:02:27-07:00,1.660148859024,3,versionC_stim.csv,READVersionC.csv,"Read Version C","Dissertation, read only version C",COMMUNICATION,PHONE,Study2,S,149,153,Study,User,-,,Study/JOL,"Study Phase2",1344,,,-1,-1,,,,1
5bbfa80b9458d20001eedd51,sb90sr5xi8,Nick_Dissertation_EX1,1,256,2020-07-08T15:02:29-07:00,1.9439961910248,3,versionC_stim.csv,READVersionC.csv,"Read Version C","Dissertation, read only version C",FAVORITE,BEST,Study2,F,125,157,Study,User,-,,Study/JOL,"Study Phase2",1593,,,-1,-1,,,,1
5bbfa80b9458d20001eedd51,sb90sr5xi8,Nick_Dissertation_EX1,1,257,2020-07-08T15:02:32-07:00,2.2010970115662,3,versionC_stim.csv,READVersionC.csv,"Read Version C","Dissertation, read only version C",DOG,FURRY,Study2,B,102,169,Study,User,-,,Study/JOL,"Study Phase2",897,,,-1,-1,,,,1
5bbfa80b9458d20001eedd51,sb90sr5xi8,Nick_Dissertation_EX1,1,258,2020-07-08T15:02:34-07:00,1.9197909832001,3,versionC_stim.csv,READVersionC.csv,"Read Version C","Dissertation, read only version C",SCAR,MAIN,Study2,U,175,166,Study,User,-,,Study/JOL,"Study Phase2",1623,,,-1,-1,,,,1
5bbfa80b9458d20001eedd51,sb90sr5xi8,Nick_Dissertation_EX1,1,259,2020-07-08T15:02:36-07:00,2.1543409824371,3,versionC_stim.csv,READVersionC.csv,"Read Version C","Dissertation, read only version C",EQUAL,RIGHTS,Study2,S,137,104,Study,User,-,,Study/JOL,"Study Phase2",848,,,-1,-1,,,,1
5bbfa80b9458d20001eedd51,sb90sr5xi8,Nick_Dissertation_EX1,1,260,2020-07-08T15:02:38-07:00,2.0421118736267,3,versionC_stim.csv,READVersionC.csv,"Read Version C","Dissertation, read only version C",HEAD,SCALP,Study2,B,105,142,Study,User,-,,Study/JOL,"Study Phase2",657,,,-1,-1,,,,1
5bbfa80b9458d20001eedd51,sb90sr5xi8,Nick_Dissertation_EX1,1,261,2020-07-08T15:02:39-07:00,1.2970700263977,3,versionC_stim.csv,READVersionC.csv,"Read Version C","Dissertation, read only version C",MARCH,SPRING,BUFFER4,Buffer,179,177,Study,User,-,,Study/JOL,BUFFER4,962,,,-1,-1,,,,1
5bbfa80b9458d20001eedd51,sb90sr5xi8,Nick_Dissertation_EX1,1,262,2020-07-08T15:02:40-07:00,1.4103441238403,3,versionC_stim.csv,READVersionC.csv,"Read Version C","Dissertation, read only version C",YEAR,MONTH,BUFFER4,Buffer,177,180,Study,User,-,,Study/JOL,BUFFER4,1122,,,-1,-1,,,,1
5bbfa80b9458d20001eedd51,sb90sr5xi8,Nick_Dissertation_EX1,1,263,2020-07-08T15:02:42-07:00,1.1776719093323,3,versionC_stim.csv,READVersionC.csv,"Read Version C","Dissertation, read only version C",WEAKS,DAYS,BUFFER4,Buffer,176,179,Study,User,-,,Study/JOL,BUFFER4,870,,,-1,-1,,,,1
5bbfa80b9458d20001eedd51,sb90sr5xi8,Nick_Dissertation_EX1,1,264,2020-07-08T15:02:44-07:00,2.7055640220642,3,versionC_stim.csv,READVersionC.csv,"Read Version C","Dissertation, read only version C",SHED,TOOL,BUFFER4,Buffer,178,181,Study,User,-,,Study/JOL,BUFFER4,2411,,,-1,-1,,,,1
5bbfa80b9458d20001eedd51,sb90sr5xi8,Nick_Dissertation_EX1,1,265,2020-07-08T15:02:45-07:00,1.015734910965,3,versionC_stim.csv,READVersionC.csv,"Read Version C","Dissertation, read only version C",SPOOKY,OCTOBER,BUFFER4,Buffer,180,178,Study,User,-,,Study/JOL,BUFFER4,710,,,-1,-1,,,,1
5bbfa80b9458d20001eedd51,sb90sr5xi8,Nick_Dissertation_EX1,1,266,2020-07-08T15:02:47-07:00,1.6765811443329,3,versionC_stim.csv,READVersionC.csv,"Read Version C","Dissertation, read only version C",,,,,,0,Instruct,User,-,"You have completed this section. Please press Enter.",Filler_Instruction,Instruct5,1346,,,-1,-1,,,,1
5bbfa80b9458d20001eedd51,sb90sr5xi8,Nick_Dissertation_EX1,1,267,2020-07-08T15:04:47-07:00,120.41495299339,3,versionC_stim.csv,READVersionC.csv,"Read Version C","Dissertation, read only version C",,,,,,0,FreeRecall,120,120,"Please list the 50 US states in reverse alphabetical order (z - a). The task will automatically advance to the next screen after two minutes.",,Filler2,120006,"Alabama arkansas Alaska arizona California colorado delaware florida hawaii illionois iowa kansas Maryland Minnesota Mississippi Nebraska New Jersey New York North carolina Ohio ",0,7087,115423,0,0,,1
5bbfa80b9458d20001eedd51,sb90sr5xi8,Nick_Dissertation_EX1,1,268,2020-07-08T15:05:00-07:00,12.388698816299,3,versionC_stim.csv,READVersionC.csv,"Read Version C","Dissertation, read only version C",,,,,,0,Instruct,-,10,"You will now be presented with the first word from each of the previously studied item pairs. Please type the missing word. If you do not know the word, you may guess or press Enter to skip forward to the next pair.",,Instruct6,12040,,,-1,-1,,,,1
5bbfa80b9458d20001eedd51,sb90sr5xi8,Nick_Dissertation_EX1,1,269,2020-07-08T15:05:07-07:00,7.1145961284637,3,versionC_stim.csv,READVersionC.csv,"Read Version C","Dissertation, read only version C",FAVORITE,BEST,Study2,F,125,157,Test,User,-,,Recall,Recall2,6774,item,25,3343,6123,0,0,,1
5bbfa80b9458d20001eedd51,sb90sr5xi8,Nick_Dissertation_EX1,1,270,2020-07-08T15:05:10-07:00,3.2442650794983,3,versionC_stim.csv,READVersionC.csv,"Read Version C","Dissertation, read only version C",BREAKABLE,GLASS,Study2,F,127,138,Test,User,-,,Recall,Recall2,2911,glass,100,1736,2589,1,1,,1
5bbfa80b9458d20001eedd51,sb90sr5xi8,Nick_Dissertation_EX1,1,271,2020-07-08T15:05:13-07:00,2.7613618373871,3,versionC_stim.csv,READVersionC.csv,"Read Version C","Dissertation, read only version C",BRAWL,FIGHT,Study2,F,135,152,Test,User,-,,Recall,Recall2,2363,fight,100,1304,1833,1,1,,1
5bbfa80b9458d20001eedd51,sb90sr5xi8,Nick_Dissertation_EX1,1,272,2020-07-08T15:05:32-07:00,19.26126408577,3,versionC_stim.csv,READVersionC.csv,"Read Version C","Dissertation, read only version C",FIGHT,FEUD,Study2,B,113,105,Test,User,-,,Recall,Recall2,18930,hit,0,17972,18355,0,0,,0.711
5bbfa80b9458d20001eedd51,sb90sr5xi8,Nick_Dissertation_EX1,1,273,2020-07-08T15:05:37-07:00,4.5240528583527,3,versionC_stim.csv,READVersionC.csv,"Read Version C","Dissertation, read only version C",LEAGUE,BASEBALL,Study2,F,131,129,Test,User,-,,Recall,Recall2,4177,baseball,100,1348,3622,1,1,,1
5bbfa80b9458d20001eedd51,sb90sr5xi8,Nick_Dissertation_EX1,1,274,2020-07-08T15:05:41-07:00,4.432920217514,3,versionC_stim.csv,READVersionC.csv,"Read Version C","Dissertation, read only version C",GROUND,EARTH,Study2,S,144,164,Test,User,-,,Recall,Recall2,4112,ball,22.222222222222,3260,3811,0,0,,1
5bbfa80b9458d20001eedd51,sb90sr5xi8,Nick_Dissertation_EX1,1,275,2020-07-08T15:05:47-07:00,6.2385218143463,3,versionC_stim.csv,READVersionC.csv,"Read Version C","Dissertation, read only version C",ABLE,CRACKLE,Study2,U,162,154,Test,User,-,,Recall,Recall2,4906,ability,28.571428571429,3067,4298,0,0,,1
5bbfa80b9458d20001eedd51,sb90sr5xi8,Nick_Dissertation_EX1,1,276,2020-07-08T15:05:50-07:00,2.6407241821289,3,versionC_stim.csv,READVersionC.csv,"Read Version C","Dissertation, read only version C",SEATBELT,SAFETY,Study2,S,147,107,Test,User,-,,Recall,Recall2,2323,car,22.222222222222,1704,2118,0,0,,1
5bbfa80b9458d20001eedd51,sb90sr5xi8,Nick_Dissertation_EX1,1,277,2020-07-08T15:05:53-07:00,3.0810179710388,3,versionC_stim.csv,READVersionC.csv,"Read Version C","Dissertation, read only version C",BANG,FUZZY,Study2,U,168,175,Test,User,-,,Recall,Recall2,2740,shoot,0,1617,2500,0,0,,1
5bbfa80b9458d20001eedd51,sb90sr5xi8,Nick_Dissertation_EX1,1,278,2020-07-08T15:06:00-07:00,7.1570718288422,3,versionC_stim.csv,READVersionC.csv,"Read Version C","Dissertation, read only version C",MYSTERY,DETECTIVE,Study2,B,100,174,Test,User,-,,Recall,Recall2,6830,book,0,5900,6369,0,0,,1
5bbfa80b9458d20001eedd51,sb90sr5xi8,Nick_Dissertation_EX1,1,279,2020-07-08T15:06:05-07:00,4.3618280887604,3,versionC_stim.csv,READVersionC.csv,"Read Version C","Dissertation, read only version C",CUT,CHOP,Study2,B,107,131,Test,User,-,,Recall,Recall2,4013,knife,0,1706,3799,0,0,,1
5bbfa80b9458d20001eedd51,sb90sr5xi8,Nick_Dissertation_EX1,1,280,2020-07-08T15:06:08-07:00,3.7178881168365,3,versionC_stim.csv,READVersionC.csv,"Read Version C","Dissertation, read only version C",SHAVE,RAZOR,Study2,S,136,168,Test,User,-,,Recall,Recall2,3393,beard,40,1910,3223,0,0,,1
5bbfa80b9458d20001eedd51,sb90sr5xi8,Nick_Dissertation_EX1,1,281,2020-07-08T15:06:11-07:00,2.6689789295197,3,versionC_stim.csv,READVersionC.csv,"Read Version C","Dissertation, read only version C",SIGN,LOAN,Study2,U,171,137,Test,User,-,,Recall,Recall2,2344,pen,28.571428571429,1497,1851,0,0,,1
5bbfa80b9458d20001eedd51,sb90sr5xi8,Nick_Dissertation_EX1,1,282,2020-07-08T15:06:17-07:00,5.4558820724487,3,versionC_stim.csv,READVersionC.csv,"Read Version C","Dissertation, read only version C",HEAD,SCALP,Study2,B,105,142,Test,User,-,,Recall,Recall2,5146,shoulder,30.769230769231,3460,4959,0,0,,1
5bbfa80b9458d20001eedd51,sb90sr5xi8,Nick_Dissertation_EX1,1,283,2020-07-08T15:06:21-07:00,4.8079979419708,3,versionC_stim.csv,READVersionC.csv,"Read Version C","Dissertation, read only version C",JOKE,KEYS,Study2,U,165,147,Test,User,-,,Recall,Recall2,4474,funny,22.222222222222,3490,4160,0,0,,1
5bbfa80b9458d20001eedd51,sb90sr5xi8,Nick_Dissertation_EX1,1,284,2020-07-08T15:06:25-07:00,4.1047489643097,3,versionC_stim.csv,READVersionC.csv,"Read Version C","Dissertation, read only version C",REVENGE,EVEN,Study2,F,122,150,Test,User,-,,Recall,Recall2,3797,hurt,0,3001,3623,0,0,,1
5bbfa80b9458d20001eedd51,sb90sr5xi8,Nick_Dissertation_EX1,1,285,2020-07-08T15:06:31-07:00,5.3467230796814,3,versionC_stim.csv,READVersionC.csv,"Read Version C","Dissertation, read only version C",GAME,CLUE,Study2,B,97,160,Test,User,-,,Recall,Recall2,4999,cards,22.222222222222,3669,4470,0,0,,1
5bbfa80b9458d20001eedd51,sb90sr5xi8,Nick_Dissertation_EX1,1,286,2020-07-08T15:06:34-07:00,2.9686548709869,3,versionC_stim.csv,READVersionC.csv,"Read Version C","Dissertation, read only version C",EAT,DINE,Study2,B,111,98,Test,User,-,,Recall,Recall2,2637,meat,25,1897,2481,0,0,,1
5bbfa80b9458d20001eedd51,sb90sr5xi8,Nick_Dissertation_EX1,1,287,2020-07-08T15:06:36-07:00,2.6392810344696,3,versionC_stim.csv,READVersionC.csv,"Read Version C","Dissertation, read only version C",TRASH,LITTER,Study2,B,103,103,Test,User,-,,Recall,Recall2,2300,can,0,1313,1831,0,0,,1
5bbfa80b9458d20001eedd51,sb90sr5xi8,Nick_Dissertation_EX1,1,288,2020-07-08T15:06:40-07:00,3.629683971405,3,versionC_stim.csv,READVersionC.csv,"Read Version C","Dissertation, read only version C",NOISE,LOUD,Study2,S,152,167,Test,User,-,,Recall,Recall2,2511,loud,100,1708,2270,1,1,,1
5bbfa80b9458d20001eedd51,sb90sr5xi8,Nick_Dissertation_EX1,1,289,2020-07-08T15:06:44-07:00,3.5285019874573,3,versionC_stim.csv,READVersionC.csv,"Read Version C","Dissertation, read only version C",AIRCRAFT,PLANE,Study2,F,129,123,Test,User,-,,Recall,Recall2,3222,plane,100,1321,2939,1,1,,1
5bbfa80b9458d20001eedd51,sb90sr5xi8,Nick_Dissertation_EX1,1,290,2020-07-08T15:06:48-07:00,4.3817250728607,3,versionC_stim.csv,READVersionC.csv,"Read Version C","Dissertation, read only version C",PANTHER,CAT,Study2,F,126,163,Test,User,-,,Recall,Recall2,4045,cat,100,1186,3768,1,1,,1
5bbfa80b9458d20001eedd51,sb90sr5xi8,Nick_Dissertation_EX1,1,291,2020-07-08T15:06:54-07:00,5.853973865509,3,versionC_stim.csv,READVersionC.csv,"Read Version C","Dissertation, read only version C",DRINK,WATER,Study2,S,143,130,Test,User,-,,Recall,Recall2,5512,soda,22.222222222222,3426,4673,0,0,,1
5bbfa80b9458d20001eedd51,sb90sr5xi8,Nick_Dissertation_EX1,1,292,2020-07-08T15:07:02-07:00,8.3961172103882,3,versionC_stim.csv,READVersionC.csv,"Read Version C","Dissertation, read only version C",JAR,MASON,Study2,S,138,114,Test,User,-,,Recall,Recall2,8097,lid,0,6580,7344,0,0,,1
5bbfa80b9458d20001eedd51,sb90sr5xi8,Nick_Dissertation_EX1,1,293,2020-07-08T15:07:07-07:00,5.023176908493,3,versionC_stim.csv,READVersionC.csv,"Read Version C","Dissertation, read only version C",TEMPER,TANTRUM,Study2,S,154,111,Test,User,-,,Recall,Recall2,4653,angry,50,2162,4214,0,0,,1
5bbfa80b9458d20001eedd51,sb90sr5xi8,Nick_Dissertation_EX1,1,294,2020-07-08T15:07:10-07:00,3.02947306633,3,versionC_stim.csv,READVersionC.csv,"Read Version C","Dissertation, read only version C",COFFIN,DEAD,Study2,F,128,112,Test,User,-,,Recall,Recall2,2622,dead,100,1563,2201,1,1,,1
5bbfa80b9458d20001eedd51,sb90sr5xi8,Nick_Dissertation_EX1,1,295,2020-07-08T15:07:15-07:00,5.229954957962,3,versionC_stim.csv,READVersionC.csv,"Read Version C","Dissertation, read only version C",COMMUNICATION,PHONE,Study2,S,149,153,Test,User,-,,Recall,Recall2,4875,speak,40,1620,4327,0,0,,1
5bbfa80b9458d20001eedd51,sb90sr5xi8,Nick_Dissertation_EX1,1,296,2020-07-08T15:07:20-07:00,4.1869740486145,3,versionC_stim.csv,READVersionC.csv,"Read Version C","Dissertation, read only version C",PLANT,CACTUS,Study2,B,98,151,Test,User,-,,Recall,Recall2,3875,green,0,1633,2472,0,0,,1
5bbfa80b9458d20001eedd51,sb90sr5xi8,Nick_Dissertation_EX1,1,297,2020-07-08T15:07:22-07:00,2.7736029624939,3,versionC_stim.csv,READVersionC.csv,"Read Version C","Dissertation, read only version C",DOG,FURRY,Study2,B,102,169,Test,User,-,,Recall,Recall2,2452,cat,0,1047,2171,0,0,,1
5bbfa80b9458d20001eedd51,sb90sr5xi8,Nick_Dissertation_EX1,1,298,2020-07-08T15:07:27-07:00,4.2530188560486,3,versionC_stim.csv,READVersionC.csv,"Read Version C","Dissertation, read only version C",END,ADJOURN,Study2,B,101,140,Test,User,-,,Recall,Recall2,3932,start,33.333333333333,1339,3382,0,0,,1
5bbfa80b9458d20001eedd51,sb90sr5xi8,Nick_Dissertation_EX1,1,299,2020-07-08T15:07:31-07:00,3.9445061683655,3,versionC_stim.csv,READVersionC.csv,"Read Version C","Dissertation, read only version C",RED,CHERRY,Study2,B,104,116,Test,User,-,,Recall,Recall2,3604,blue,20,2255,3164,0,0,,1
5bbfa80b9458d20001eedd51,sb90sr5xi8,Nick_Dissertation_EX1,1,300,2020-07-08T15:07:35-07:00,4.2964618206024,3,versionC_stim.csv,READVersionC.csv,"Read Version C","Dissertation, read only version C",TRUTHFUL,HONEST,Study2,F,133,158,Test,User,-,,Recall,Recall2,3991,lies,40,1406,3611,0,0,,1
5bbfa80b9458d20001eedd51,sb90sr5xi8,Nick_Dissertation_EX1,1,301,2020-07-08T15:07:39-07:00,3.9546451568604,3,versionC_stim.csv,READVersionC.csv,"Read Version C","Dissertation, read only version C",PENGUIN,BIRD,Study2,F,119,97,Test,User,-,,Recall,Recall2,3603,cold,25,2692,3198,0,0,,1
5bbfa80b9458d20001eedd51,sb90sr5xi8,Nick_Dissertation_EX1,1,302,2020-07-08T15:07:41-07:00,2.5875499248505,3,versionC_stim.csv,READVersionC.csv,"Read Version C","Dissertation, read only version C",SARDINE,FISH,Study2,F,130,136,Test,User,-,,Recall,Recall2,2261,fish,100,1152,1625,1,1,,1
5bbfa80b9458d20001eedd51,sb90sr5xi8,Nick_Dissertation_EX1,1,303,2020-07-08T15:07:46-07:00,4.5216319561005,3,versionC_stim.csv,READVersionC.csv,"Read Version C","Dissertation, read only version C",FICTION,LISTEN,Study2,U,164,148,Test,User,-,,Recall,Recall2,4205,story,36.363636363636,2833,3676,0,0,,1
5bbfa80b9458d20001eedd51,sb90sr5xi8,Nick_Dissertation_EX1,1,304,2020-07-08T15:07:53-07:00,7.2495830059052,3,versionC_stim.csv,READVersionC.csv,"Read Version C","Dissertation, read only version C",BANKER,MONEY,Study2,F,132,156,Test,User,-,,Recall,Recall2,6906,moeny,80,5513,6492,0,1,,1
5bbfa80b9458d20001eedd51,sb90sr5xi8,Nick_Dissertation_EX1,1,305,2020-07-08T15:08:06-07:00,12.433992147446,3,versionC_stim.csv,READVersionC.csv,"Read Version C","Dissertation, read only version C",VILLAIN,BAD,Study2,F,118,134,Test,User,-,,Recall,Recall2,12028,enemy,0,10988,11668,0,0,,1
5bbfa80b9458d20001eedd51,sb90sr5xi8,Nick_Dissertation_EX1,1,306,2020-07-08T15:08:16-07:00,9.9229049682617,3,versionC_stim.csv,READVersionC.csv,"Read Version C","Dissertation, read only version C",CLOTHES,CAKE,Study2,U,166,120,Test,User,-,,Recall,Recall2,9565,shirt,0,8329,9141,0,0,,1
5bbfa80b9458d20001eedd51,sb90sr5xi8,Nick_Dissertation_EX1,1,307,2020-07-08T15:08:20-07:00,4.5001389980316,3,versionC_stim.csv,READVersionC.csv,"Read Version C","Dissertation, read only version C",CARBON,ELEMENT,Study2,S,141,102,Test,User,-,,Recall,Recall2,4145,ice,20,2937,3646,0,0,,1
5bbfa80b9458d20001eedd51,sb90sr5xi8,Nick_Dissertation_EX1,1,308,2020-07-08T15:08:33-07:00,12.622599840164,3,versionC_stim.csv,READVersionC.csv,"Read Version C","Dissertation, read only version C",CHARM,VEHICLE,Study2,U,160,139,Test,User,-,,Recall,Recall2,12262,necklace,53.333333333333,9342,11610,0,0,,1
5bbfa80b9458d20001eedd51,sb90sr5xi8,Nick_Dissertation_EX1,1,309,2020-07-08T15:08:40-07:00,6.9909610748291,3,versionC_stim.csv,READVersionC.csv,"Read Version C","Dissertation, read only version C",TAN,SUN,Study2,S,155,99,Test,User,-,,Recall,Recall2,6627,brown,25,4490,6147,0,0,,1
5bbfa80b9458d20001eedd51,sb90sr5xi8,Nick_Dissertation_EX1,1,310,2020-07-08T15:08:46-07:00,6.7433230876923,3,versionC_stim.csv,READVersionC.csv,"Read Version C","Dissertation, read only version C",HAVE,OWN,Study2,S,153,127,Test,User,-,,Recall,Recall2,6419,given,25,4910,5429,0,0,,1
5bbfa80b9458d20001eedd51,sb90sr5xi8,Nick_Dissertation_EX1,1,311,2020-07-08T15:08:59-07:00,12.699970960617,3,versionC_stim.csv,READVersionC.csv,"Read Version C","Dissertation, read only version C",TOIL,LEASE,Study2,U,170,144,Test,User,-,,Recall,Recall2,12350,foil,22.222222222222,11328,11963,0,0,,1
5bbfa80b9458d20001eedd51,sb90sr5xi8,Nick_Dissertation_EX1,1,312,2020-07-08T15:09:02-07:00,3.3249728679657,3,versionC_stim.csv,READVersionC.csv,"Read Version C","Dissertation, read only version C",COLD,CHILL,Study2,B,114,176,Test,User,-,,Recall,Recall2,3014,hot,25,2223,2794,0,0,,1
5bbfa80b9458d20001eedd51,sb90sr5xi8,Nick_Dissertation_EX1,1,313,2020-07-08T15:09:08-07:00,5.5569832324982,3,versionC_stim.csv,READVersionC.csv,"Read Version C","Dissertation, read only version C",OUNCE,BOTH,Study2,U,172,121,Test,User,-,,Recall,Recall2,5243,pound,22.222222222222,1545,4112,0,0,,1
5bbfa80b9458d20001eedd51,sb90sr5xi8,Nick_Dissertation_EX1,1,314,2020-07-08T15:09:18-07:00,10.257218837738,3,versionC_stim.csv,READVersionC.csv,"Read Version C","Dissertation, read only version C",CLOTH,STRETCH,Study2,U,157,165,Test,User,-,,Recall,Recall2,9902,napkin,0,8096,9355,0,0,,1
5bbfa80b9458d20001eedd51,sb90sr5xi8,Nick_Dissertation_EX1,1,315,2020-07-08T15:09:21-07:00,2.8646240234375,3,versionC_stim.csv,READVersionC.csv,"Read Version C","Dissertation, read only version C",TIE,SHOELACE,Study2,B,99,149,Test,User,-,,Recall,Recall2,2525,shirt,30.769230769231,1378,2300,0,0,,1
5bbfa80b9458d20001eedd51,sb90sr5xi8,Nick_Dissertation_EX1,1,316,2020-07-08T15:09:27-07:00,5.7348320484161,3,versionC_stim.csv,READVersionC.csv,"Read Version C","Dissertation, read only version C",REEL,ROD,Study2,S,150,124,Test,User,-,,Recall,Recall2,5374,movie,25,2526,4922,0,0,,1
5bbfa80b9458d20001eedd51,sb90sr5xi8,Nick_Dissertation_EX1,1,317,2020-07-08T15:09:29-07:00,2.5066740512848,3,versionC_stim.csv,READVersionC.csv,"Read Version C","Dissertation, read only version C",NAP,SLEEP,Study2,F,134,128,Test,User,-,,Recall,Recall2,2175,sleep,100,1293,1832,1,1,,1
5bbfa80b9458d20001eedd51,sb90sr5xi8,Nick_Dissertation_EX1,1,318,2020-07-08T15:09:33-07:00,3.2935769557953,3,versionC_stim.csv,READVersionC.csv,"Read Version C","Dissertation, read only version C",SCISSORS,SHEARS,Study2,B,112,132,Test,User,-,,Recall,Recall2,2981,shear,90.909090909091,1981,2626,0,1,,1
5bbfa80b9458d20001eedd51,sb90sr5xi8,Nick_Dissertation_EX1,1,319,2020-07-08T15:09:36-07:00,3.4471259117126,3,versionC_stim.csv,READVersionC.csv,"Read Version C","Dissertation, read only version C",WAX,CANDLE,Study2,S,139,159,Test,User,-,,Recall,Recall2,3148,figure,16.666666666667,1969,2997,0,0,,1
5bbfa80b9458d20001eedd51,sb90sr5xi8,Nick_Dissertation_EX1,1,320,2020-07-08T15:09:42-07:00,5.5087759494781,3,versionC_stim.csv,READVersionC.csv,"Read Version C","Dissertation, read only version C",WINDSHIELD,CAR,Study2,F,117,133,Test,User,-,,Recall,Recall2,5201,window,0,1950,4806,0,0,,1
5bbfa80b9458d20001eedd51,sb90sr5xi8,Nick_Dissertation_EX1,1,321,2020-07-08T15:09:46-07:00,4.8452219963074,3,versionC_stim.csv,READVersionC.csv,"Read Version C","Dissertation, read only version C",LONELY,ALONE,Study2,S,145,162,Test,User,-,,Recall,Recall2,4503,sad,25,3649,4020,0,0,,1
5bbfa80b9458d20001eedd51,sb90sr5xi8,Nick_Dissertation_EX1,1,322,2020-07-08T15:09:56-07:00,9.3741011619568,3,versionC_stim.csv,READVersionC.csv,"Read Version C","Dissertation, read only version C",THIMBLE,THREAD,Study2,F,121,115,Test,User,-,,Recall,Recall2,9055,sew,22.222222222222,8350,8721,0,0,,1
5bbfa80b9458d20001eedd51,sb90sr5xi8,Nick_Dissertation_EX1,1,323,2020-07-08T15:09:58-07:00,2.6218700408936,3,versionC_stim.csv,READVersionC.csv,"Read Version C","Dissertation, read only version C",LOVE,AFFECTION,Study2,B,115,118,Test,User,-,,Recall,Recall2,2272,heart,28.571428571429,1261,2030,0,0,,1
5bbfa80b9458d20001eedd51,sb90sr5xi8,Nick_Dissertation_EX1,1,324,2020-07-08T15:10:02-07:00,3.427717924118,3,versionC_stim.csv,READVersionC.csv,"Read Version C","Dissertation, read only version C",OBTAIN,MEAT,Study2,U,161,143,Test,User,-,,Recall,Recall2,3108,get,57.142857142857,2376,2750,0,0,,1
5bbfa80b9458d20001eedd51,sb90sr5xi8,Nick_Dissertation_EX1,1,325,2020-07-08T15:10:06-07:00,4.3382139205933,3,versionC_stim.csv,READVersionC.csv,"Read Version C","Dissertation, read only version C",ACTRESS,STAR,Study2,F,120,106,Test,User,-,,Recall,Recall2,4006,actor,44.444444444444,2045,2991,0,0,,1
5bbfa80b9458d20001eedd51,sb90sr5xi8,Nick_Dissertation_EX1,1,326,2020-07-08T15:10:14-07:00,7.7863440513611,3,versionC_stim.csv,READVersionC.csv,"Read Version C","Dissertation, read only version C",CLEAR,MOAT,Study2,U,169,119,Test,User,-,,Recall,Recall2,7459,space,22.222222222222,6333,7041,0,0,,1
5bbfa80b9458d20001eedd51,sb90sr5xi8,Nick_Dissertation_EX1,1,327,2020-07-08T15:10:19-07:00,4.6015620231628,3,versionC_stim.csv,READVersionC.csv,"Read Version C","Dissertation, read only version C",EQUAL,RIGHTS,Study2,S,137,104,Test,User,-,,Recall,Recall2,4294,part,40,3598,4087,0,0,,1
5bbfa80b9458d20001eedd51,sb90sr5xi8,Nick_Dissertation_EX1,1,328,2020-07-08T15:10:22-07:00,3.5786049365997,3,versionC_stim.csv,READVersionC.csv,"Read Version C","Dissertation, read only version C",SCAR,MAIN,Study2,U,175,166,Test,User,-,,Recall,Recall2,3231,cut,0,1393,2179,0,0,,1
5bbfa80b9458d20001eedd51,sb90sr5xi8,Nick_Dissertation_EX1,1,329,2020-07-08T15:10:27-07:00,5.2027990818024,3,versionC_stim.csv,READVersionC.csv,"Read Version C","Dissertation, read only version C",STRAWBERRY,FRUIT,Study2,F,124,172,Test,User,-,,Recall,Recall2,4871,fruit,100,2384,3930,1,1,,1
5bbfa80b9458d20001eedd51,sb90sr5xi8,Nick_Dissertation_EX1,1,330,2020-07-08T15:10:32-07:00,4.4072380065918,3,versionC_stim.csv,READVersionC.csv,"Read Version C","Dissertation, read only version C",BRACELET,WRIST,Study2,S,140,146,Test,User,-,,Recall,Recall2,4075,earring,33.333333333333,2659,3625,0,0,,1
5bbfa80b9458d20001eedd51,sb90sr5xi8,Nick_Dissertation_EX1,1,331,2020-07-08T15:10:35-07:00,2.8672468662262,3,versionC_stim.csv,READVersionC.csv,"Read Version C","Dissertation, read only version C",FLIP,TURN,Study2,F,116,173,Test,User,-,,Recall,Recall2,2550,jump,25,1302,2223,0,0,,1
5bbfa80b9458d20001eedd51,sb90sr5xi8,Nick_Dissertation_EX1,1,332,2020-07-08T15:10:37-07:00,2.5559871196747,3,versionC_stim.csv,READVersionC.csv,"Read Version C","Dissertation, read only version C",Morning,TEMPERATURE,Study2,U,173,110,Test,User,-,,Recall,Recall2,2247,sun,14.285714285714,1213,1706,0,0,,1
5bbfa80b9458d20001eedd51,sb90sr5xi8,Nick_Dissertation_EX1,1,333,2020-07-08T15:10:41-07:00,3.5517599582672,3,versionC_stim.csv,READVersionC.csv,"Read Version C","Dissertation, read only version C",HATE,NAME,Study2,U,167,108,Test,User,-,,Recall,Recall2,2224,love,25,1231,1966,0,0,,1
5bbfa80b9458d20001eedd51,sb90sr5xi8,Nick_Dissertation_EX1,1,334,2020-07-08T15:10:46-07:00,5.1713590621948,3,versionC_stim.csv,READVersionC.csv,"Read Version C","Dissertation, read only version C",DONKEY,MULE,Study2,B,108,100,Test,User,-,,Recall,Recall2,4864,horse,22.222222222222,3197,4300,0,0,,1
5bbfa80b9458d20001eedd51,sb90sr5xi8,Nick_Dissertation_EX1,1,335,2020-07-08T15:10:49-07:00,2.8843240737915,3,versionC_stim.csv,READVersionC.csv,"Read Version C","Dissertation, read only version C",MAROON,JUSTICE,Study2,U,156,141,Test,User,-,,Recall,Recall2,2521,red,20,1987,2363,0,0,,1
5bbfa80b9458d20001eedd51,sb90sr5xi8,Nick_Dissertation_EX1,1,336,2020-07-08T15:10:52-07:00,3.440780878067,3,versionC_stim.csv,READVersionC.csv,"Read Version C","Dissertation, read only version C",LIE,TRUTH,Study2,S,148,161,Test,User,-,,Recall,Recall2,3123,fib,0,2053,2837,0,0,,1
5bbfa80b9458d20001eedd51,sb90sr5xi8,Nick_Dissertation_EX1,1,337,2020-07-08T15:10:58-07:00,6.1789720058441,3,versionC_stim.csv,READVersionC.csv,"Read Version C","Dissertation, read only version C",LONG,EXTENSION,Study2,B,96,135,Test,User,-,,Recall,Recall2,5827,wide,15.384615384615,5223,5627,0,0,,1
5bbfa80b9458d20001eedd51,sb90sr5xi8,Nick_Dissertation_EX1,1,338,2020-07-08T15:11:08-07:00,9.1071999073029,3,versionC_stim.csv,READVersionC.csv,"Read Version C","Dissertation, read only version C",SHAKE,Shell,Study2,U,163,126,Test,User,-,,Recall,Recall2,8772,stir,22.222222222222,7116,7817,0,0,,1
5bbfa80b9458d20001eedd51,sb90sr5xi8,Nick_Dissertation_EX1,1,339,2020-07-08T15:11:12-07:00,4.7987990379333,3,versionC_stim.csv,READVersionC.csv,"Read Version C","Dissertation, read only version C",BALLOON,POP,Study2,F,123,101,Test,User,-,,Recall,Recall2,4448,hot,33.333333333333,3555,4233,0,0,,1
5bbfa80b9458d20001eedd51,sb90sr5xi8,Nick_Dissertation_EX1,1,340,2020-07-08T15:11:23-07:00,10.865169048309,3,versionC_stim.csv,READVersionC.csv,"Read Version C","Dissertation, read only version C",SMELL,INCENSE,Study2,B,110,122,Test,User,-,,Recall,Recall2,10529,stinks,46.153846153846,1497,10201,0,0,,1
5bbfa80b9458d20001eedd51,sb90sr5xi8,Nick_Dissertation_EX1,1,341,2020-07-08T15:11:27-07:00,3.8655021190643,3,versionC_stim.csv,READVersionC.csv,"Read Version C","Dissertation, read only version C",CAR,DRIVER,Study2,B,106,109,Test,User,-,,Recall,Recall2,3527,bus,0,2736,3033,0,0,,1
5bbfa80b9458d20001eedd51,sb90sr5xi8,Nick_Dissertation_EX1,1,342,2020-07-08T15:11:35-07:00,7.6296379566193,3,versionC_stim.csv,READVersionC.csv,"Read Version C","Dissertation, read only version C",CHILDREN,MIRROR,Study2,U,174,155,Test,User,-,,Recall,Recall2,6771,adults,0,4659,6238,0,0,,1
5bbfa80b9458d20001eedd51,sb90sr5xi8,Nick_Dissertation_EX1,1,343,2020-07-08T15:11:37-07:00,2.1943800449371,3,versionC_stim.csv,READVersionC.csv,"Read Version C","Dissertation, read only version C",AWAY,GONE,Study2,S,142,145,Test,User,-,,Recall,Recall2,1849,far,0,1234,1615,0,0,,1
5bbfa80b9458d20001eedd51,sb90sr5xi8,Nick_Dissertation_EX1,1,344,2020-07-08T15:11:40-07:00,3.072117805481,3,versionC_stim.csv,READVersionC.csv,"Read Version C","Dissertation, read only version C",ELECTION,MAZE,Study2,U,159,170,Test,User,-,,Recall,Recall2,2685,vote,25,1660,2272,0,0,,1
5bbfa80b9458d20001eedd51,sb90sr5xi8,Nick_Dissertation_EX1,1,345,2020-07-08T15:11:44-07:00,3.8082931041718,3,versionC_stim.csv,READVersionC.csv,"Read Version C","Dissertation, read only version C",TICK,FLEA,Study2,S,151,113,Test,User,-,,Recall,Recall2,3491,bite,25,2581,3268,0,0,,1
5bbfa80b9458d20001eedd51,sb90sr5xi8,Nick_Dissertation_EX1,1,346,2020-07-08T15:11:49-07:00,4.931510925293,3,versionC_stim.csv,READVersionC.csv,"Read Version C","Dissertation, read only version C",WET,DRY,Study2,S,146,125,Test,User,-,,Recall,Recall2,4593,water,25,3262,4276,0,0,,1
