Username,ID,ExperimentName,Session,Trial,Date,TimeDif,"Condition Number","Stimuli File","Order File","Condition Description","Condition Notes",Stimuli*Cue,Stimuli*Answer,Stimuli*Shuffle,"Stimuli*Stimuli Notes",Stimuli*Value,Procedure*Item,"Procedure*Trial Type","Procedure*Max Time","Procedure*Min Time",Procedure*Text,"Procedure*Procedure Notes",Procedure*Shuffle,Response*RT,Response*Response,Response*Accuracy,Response*RTfirst,Response*RTlast,Response*strictAcc,Response*lenientAcc,Response*focus,Response*Focus
5ed96d809d0c93500acfc536,ijmi5f4ei6,Nick_Dissertation_EX1,1,1,2020-07-08T14:55:16-07:00,35.92356300354,2,versionA_stim.csv,READVersionB.csv,"Read Version B","Dissertation, read only version B",,,,,,0,Instruct,-,10,"Please study each of the following word pairs. Remember that your memory will be tested! When finished, press Enter to move to the next pair.",Initial_Instruct,Instruct1,35635,,,-1,-1,,,,1
5ed96d809d0c93500acfc536,ijmi5f4ei6,Nick_Dissertation_EX1,1,2,2020-07-08T14:55:19-07:00,2.5474390983582,2,versionA_stim.csv,READVersionB.csv,"Read Version B","Dissertation, read only version B",NOODLE,STRING,BUFFER3,Buffer,92,96,Study,User,-,,Study/JOL,BUFFER,2100,,,-1,-1,,,,1
5ed96d809d0c93500acfc536,ijmi5f4ei6,Nick_Dissertation_EX1,1,3,2020-07-08T14:55:21-07:00,2.8503890037537,2,versionA_stim.csv,READVersionB.csv,"Read Version B","Dissertation, read only version B",CARROT,POTATO,BUFFER3,Buffer,91,95,Study,User,-,,Study/JOL,BUFFER,2394,,,-1,-1,,,,1
5ed96d809d0c93500acfc536,ijmi5f4ei6,Nick_Dissertation_EX1,1,4,2020-07-08T14:55:23-07:00,1.974289894104,2,versionA_stim.csv,READVersionB.csv,"Read Version B","Dissertation, read only version B",CAMP,ADVENTURE,BUFFER3,Buffer,95,92,Study,User,-,,Study/JOL,BUFFER,1545,,,-1,-1,,,,1
5ed96d809d0c93500acfc536,ijmi5f4ei6,Nick_Dissertation_EX1,1,5,2020-07-08T14:55:25-07:00,1.9240400791168,2,versionA_stim.csv,READVersionB.csv,"Read Version B","Dissertation, read only version B",SHRIMP,FISH,BUFFER3,Buffer,93,93,Study,User,-,,Study/JOL,BUFFER,1490,,,-1,-1,,,,1
5ed96d809d0c93500acfc536,ijmi5f4ei6,Nick_Dissertation_EX1,1,6,2020-07-08T14:55:27-07:00,1.5206608772278,2,versionA_stim.csv,READVersionB.csv,"Read Version B","Dissertation, read only version B",ICE,FROZEN,BUFFER3,Buffer,94,94,Study,User,-,,Study/JOL,BUFFER,1097,,,-1,-1,,,,1
5ed96d809d0c93500acfc536,ijmi5f4ei6,Nick_Dissertation_EX1,1,7,2020-07-08T14:55:30-07:00,2.7621641159058,2,versionA_stim.csv,READVersionB.csv,"Read Version B","Dissertation, read only version B",EVEN,REVENGE,Study2,B,122,144,Study,User,-,,Study/JOL,"Study Phase",2329,,,-1,-1,,,,1
5ed96d809d0c93500acfc536,ijmi5f4ei6,Nick_Dissertation_EX1,1,8,2020-07-08T14:55:31-07:00,1.5952558517456,2,versionA_stim.csv,READVersionB.csv,"Read Version B","Dissertation, read only version B",MULE,DONKEY,Study2,F,108,176,Study,User,-,,Study/JOL,"Study Phase",1164,,,-1,-1,,,,1
5ed96d809d0c93500acfc536,ijmi5f4ei6,Nick_Dissertation_EX1,1,9,2020-07-08T14:55:34-07:00,2.7720501422882,2,versionA_stim.csv,READVersionB.csv,"Read Version B","Dissertation, read only version B",MAZE,ELECTION,Study2,U,159,149,Study,User,-,,Study/JOL,"Study Phase",2341,,,-1,-1,,,,1
5ed96d809d0c93500acfc536,ijmi5f4ei6,Nick_Dissertation_EX1,1,10,2020-07-08T14:55:36-07:00,1.9205839633942,2,versionA_stim.csv,READVersionB.csv,"Read Version B","Dissertation, read only version B",MIRROR,CHILDREN,Study2,U,174,118,Study,User,-,,Study/JOL,"Study Phase",1487,,,-1,-1,,,,1
5ed96d809d0c93500acfc536,ijmi5f4ei6,Nick_Dissertation_EX1,1,11,2020-07-08T14:55:38-07:00,1.694981098175,2,versionA_stim.csv,READVersionB.csv,"Read Version B","Dissertation, read only version B",SHOELACE,TIE,Study2,F,99,119,Study,User,-,,Study/JOL,"Study Phase",1258,,,-1,-1,,,,1
5ed96d809d0c93500acfc536,ijmi5f4ei6,Nick_Dissertation_EX1,1,12,2020-07-08T14:55:40-07:00,2.1804809570312,2,versionA_stim.csv,READVersionB.csv,"Read Version B","Dissertation, read only version B",LOAN,SIGN,Study2,U,171,150,Study,User,-,,Study/JOL,"Study Phase",1752,,,-1,-1,,,,1
5ed96d809d0c93500acfc536,ijmi5f4ei6,Nick_Dissertation_EX1,1,13,2020-07-08T14:55:41-07:00,1.6257920265198,2,versionA_stim.csv,READVersionB.csv,"Read Version B","Dissertation, read only version B",CRACKLE,ABLE,Study2,U,162,110,Study,User,-,,Study/JOL,"Study Phase",1172,,,-1,-1,,,,1
5ed96d809d0c93500acfc536,ijmi5f4ei6,Nick_Dissertation_EX1,1,14,2020-07-08T14:55:43-07:00,1.6401329040527,2,versionA_stim.csv,READVersionB.csv,"Read Version B","Dissertation, read only version B",SCALP,HEAD,Study2,F,105,171,Study,User,-,,Study/JOL,"Study Phase",1210,,,-1,-1,,,,1
5ed96d809d0c93500acfc536,ijmi5f4ei6,Nick_Dissertation_EX1,1,15,2020-07-08T14:55:44-07:00,1.2330639362335,2,versionA_stim.csv,READVersionB.csv,"Read Version B","Dissertation, read only version B",HONEST,TRUTHFUL,Study2,B,133,136,Study,User,-,,Study/JOL,"Study Phase",889,,,-1,-1,,,,1
5ed96d809d0c93500acfc536,ijmi5f4ei6,Nick_Dissertation_EX1,1,16,2020-07-08T14:55:45-07:00,1.2558541297913,2,versionA_stim.csv,READVersionB.csv,"Read Version B","Dissertation, read only version B",POP,BALLOON,Study2,B,123,159,Study,User,-,,Study/JOL,"Study Phase",928,,,-1,-1,,,,1
5ed96d809d0c93500acfc536,ijmi5f4ei6,Nick_Dissertation_EX1,1,17,2020-07-08T14:55:47-07:00,1.642315864563,2,versionA_stim.csv,READVersionB.csv,"Read Version B","Dissertation, read only version B",FISH,SARDINE,Study2,B,130,106,Study,User,-,,Study/JOL,"Study Phase",1212,,,-1,-1,,,,1
5ed96d809d0c93500acfc536,ijmi5f4ei6,Nick_Dissertation_EX1,1,18,2020-07-08T14:55:49-07:00,1.6909630298615,2,versionA_stim.csv,READVersionB.csv,"Read Version B","Dissertation, read only version B",DOCUMENT,PAPER,Study2,F,109,139,Study,User,-,,Study/JOL,"Study Phase",1242,,,-1,-1,,,,1
5ed96d809d0c93500acfc536,ijmi5f4ei6,Nick_Dissertation_EX1,1,19,2020-07-08T14:55:50-07:00,1.5250930786133,2,versionA_stim.csv,READVersionB.csv,"Read Version B","Dissertation, read only version B",SUN,TAN,Study2,S,155,151,Study,User,-,,Study/JOL,"Study Phase",1087,,,-1,-1,,,,1
5ed96d809d0c93500acfc536,ijmi5f4ei6,Nick_Dissertation_EX1,1,20,2020-07-08T14:55:52-07:00,1.825021982193,2,versionA_stim.csv,READVersionB.csv,"Read Version B","Dissertation, read only version B",ALONE,LONELY,Study2,S,145,173,Study,User,-,,Study/JOL,"Study Phase",1395,,,-1,-1,,,,1
5ed96d809d0c93500acfc536,ijmi5f4ei6,Nick_Dissertation_EX1,1,21,2020-07-08T14:55:54-07:00,1.849809885025,2,versionA_stim.csv,READVersionB.csv,"Read Version B","Dissertation, read only version B",BOTH,OUNCE,Study2,U,172,105,Study,User,-,,Study/JOL,"Study Phase",1418,,,-1,-1,,,,1
5ed96d809d0c93500acfc536,ijmi5f4ei6,Nick_Dissertation_EX1,1,22,2020-07-08T14:55:56-07:00,2.0106980800629,2,versionA_stim.csv,READVersionB.csv,"Read Version B","Dissertation, read only version B",CAKE,CLOTHES,Study2,U,166,99,Study,User,-,,Study/JOL,"Study Phase",1573,,,-1,-1,,,,1
5ed96d809d0c93500acfc536,ijmi5f4ei6,Nick_Dissertation_EX1,1,23,2020-07-08T14:55:58-07:00,1.6184089183807,2,versionA_stim.csv,READVersionB.csv,"Read Version B","Dissertation, read only version B",GONE,AWAY,Study2,S,142,123,Study,User,-,,Study/JOL,"Study Phase",1176,,,-1,-1,,,,1
5ed96d809d0c93500acfc536,ijmi5f4ei6,Nick_Dissertation_EX1,1,24,2020-07-08T14:55:59-07:00,1.8429272174835,2,versionA_stim.csv,READVersionB.csv,"Read Version B","Dissertation, read only version B",MASON,JAR,Study2,S,138,146,Study,User,-,,Study/JOL,"Study Phase",1410,,,-1,-1,,,,1
5ed96d809d0c93500acfc536,ijmi5f4ei6,Nick_Dissertation_EX1,1,25,2020-07-08T14:56:02-07:00,2.6352679729462,2,versionA_stim.csv,READVersionB.csv,"Read Version B","Dissertation, read only version B",CAT,PANTHER,Study2,B,126,154,Study,User,-,,Study/JOL,"Study Phase",2180,,,-1,-1,,,,1
5ed96d809d0c93500acfc536,ijmi5f4ei6,Nick_Dissertation_EX1,1,26,2020-07-08T14:56:04-07:00,1.8375618457794,2,versionA_stim.csv,READVersionB.csv,"Read Version B","Dissertation, read only version B",LITTER,TRASH,Study2,F,103,166,Study,User,-,,Study/JOL,"Study Phase",1393,,,-1,-1,,,,1
5ed96d809d0c93500acfc536,ijmi5f4ei6,Nick_Dissertation_EX1,1,27,2020-07-08T14:56:06-07:00,1.9090311527252,2,versionA_stim.csv,READVersionB.csv,"Read Version B","Dissertation, read only version B",GIVE,STEAK,Study2,U,158,101,Study,User,-,,Study/JOL,"Study Phase",1473,,,-1,-1,,,,1
5ed96d809d0c93500acfc536,ijmi5f4ei6,Nick_Dissertation_EX1,1,28,2020-07-08T14:56:07-07:00,1.495808839798,2,versionA_stim.csv,READVersionB.csv,"Read Version B","Dissertation, read only version B",EARTH,GROUND,Study2,S,144,107,Study,User,-,,Study/JOL,"Study Phase",1042,,,-1,-1,,,,1
5ed96d809d0c93500acfc536,ijmi5f4ei6,Nick_Dissertation_EX1,1,29,2020-07-08T14:56:09-07:00,1.6383650302887,2,versionA_stim.csv,READVersionB.csv,"Read Version B","Dissertation, read only version B",CACTUS,PLANT,Study2,F,98,161,Study,User,-,,Study/JOL,"Study Phase",1201,,,-1,-1,,,,1
5ed96d809d0c93500acfc536,ijmi5f4ei6,Nick_Dissertation_EX1,1,30,2020-07-08T14:56:11-07:00,1.6434550285339,2,versionA_stim.csv,READVersionB.csv,"Read Version B","Dissertation, read only version B",BEST,FAVORITE,Study2,B,125,109,Study,User,-,,Study/JOL,"Study Phase",1207,,,-1,-1,,,,1
5ed96d809d0c93500acfc536,ijmi5f4ei6,Nick_Dissertation_EX1,1,31,2020-07-08T14:56:12-07:00,1.2861049175262,2,versionA_stim.csv,READVersionB.csv,"Read Version B","Dissertation, read only version B",ROD,REEL,Study2,S,150,129,Study,User,-,,Study/JOL,"Study Phase",949,,,-1,-1,,,,1
5ed96d809d0c93500acfc536,ijmi5f4ei6,Nick_Dissertation_EX1,1,32,2020-07-08T14:56:14-07:00,1.6519041061401,2,versionA_stim.csv,READVersionB.csv,"Read Version B","Dissertation, read only version B",MAIN,SCAR,Study2,U,175,140,Study,User,-,,Study/JOL,"Study Phase",1212,,,-1,-1,,,,1
5ed96d809d0c93500acfc536,ijmi5f4ei6,Nick_Dissertation_EX1,1,33,2020-07-08T14:56:15-07:00,1.5652461051941,2,versionA_stim.csv,READVersionB.csv,"Read Version B","Dissertation, read only version B",EXTENSION,LONG,Study2,F,96,103,Study,User,-,,Study/JOL,"Study Phase",1133,,,-1,-1,,,,1
5ed96d809d0c93500acfc536,ijmi5f4ei6,Nick_Dissertation_EX1,1,34,2020-07-08T14:56:17-07:00,1.4680860042572,2,versionA_stim.csv,READVersionB.csv,"Read Version B","Dissertation, read only version B",FIGHT,BRAWL,Study2,B,135,121,Study,User,-,,Study/JOL,"Study Phase",1032,,,-1,-1,,,,1
5ed96d809d0c93500acfc536,ijmi5f4ei6,Nick_Dissertation_EX1,1,35,2020-07-08T14:56:18-07:00,1.4308269023895,2,versionA_stim.csv,READVersionB.csv,"Read Version B","Dissertation, read only version B",DINE,EAT,Study2,F,111,152,Study,User,-,,Study/JOL,"Study Phase",994,,,-1,-1,,,,1
5ed96d809d0c93500acfc536,ijmi5f4ei6,Nick_Dissertation_EX1,1,36,2020-07-08T14:56:19-07:00,1.457211971283,2,versionA_stim.csv,READVersionB.csv,"Read Version B","Dissertation, read only version B",PHONE,COMMUNICATION,Study2,S,149,134,Study,User,-,,Study/JOL,"Study Phase",1024,,,-1,-1,,,,1
5ed96d809d0c93500acfc536,ijmi5f4ei6,Nick_Dissertation_EX1,1,37,2020-07-08T14:56:25-07:00,5.5635440349579,2,versionA_stim.csv,READVersionB.csv,"Read Version B","Dissertation, read only version B",SHEARS,SCISSORS,Study2,F,112,157,Study,User,-,,Study/JOL,"Study Phase",5124,,,-1,-1,,,,1
5ed96d809d0c93500acfc536,ijmi5f4ei6,Nick_Dissertation_EX1,1,38,2020-07-08T14:56:27-07:00,1.5241429805756,2,versionA_stim.csv,READVersionB.csv,"Read Version B","Dissertation, read only version B",RAZOR,SHAVE,Study2,S,136,112,Study,User,-,,Study/JOL,"Study Phase",1094,,,-1,-1,,,,1
5ed96d809d0c93500acfc536,ijmi5f4ei6,Nick_Dissertation_EX1,1,39,2020-07-08T14:56:29-07:00,2.675311088562,2,versionA_stim.csv,READVersionB.csv,"Read Version B","Dissertation, read only version B",FRUIT,STRAWBERRY,Study2,B,124,160,Study,User,-,,Study/JOL,"Study Phase",2119,,,-1,-1,,,,1
5ed96d809d0c93500acfc536,ijmi5f4ei6,Nick_Dissertation_EX1,1,40,2020-07-08T14:56:31-07:00,2.1214618682861,2,versionA_stim.csv,READVersionB.csv,"Read Version B","Dissertation, read only version B",AFFECTION,LOVE,Study2,F,115,127,Study,User,-,,Study/JOL,"Study Phase",1688,,,-1,-1,,,,1
5ed96d809d0c93500acfc536,ijmi5f4ei6,Nick_Dissertation_EX1,1,41,2020-07-08T14:56:33-07:00,1.2636370658875,2,versionA_stim.csv,READVersionB.csv,"Read Version B","Dissertation, read only version B",MEAT,OBTAIN,Study2,U,161,124,Study,User,-,,Study/JOL,"Study Phase",932,,,-1,-1,,,,1
5ed96d809d0c93500acfc536,ijmi5f4ei6,Nick_Dissertation_EX1,1,42,2020-07-08T14:56:34-07:00,1.2126798629761,2,versionA_stim.csv,READVersionB.csv,"Read Version B","Dissertation, read only version B",WATER,DRINK,Study2,S,143,114,Study,User,-,,Study/JOL,"Study Phase",884,,,-1,-1,,,,1
5ed96d809d0c93500acfc536,ijmi5f4ei6,Nick_Dissertation_EX1,1,43,2020-07-08T14:56:36-07:00,1.7988650798798,2,versionA_stim.csv,READVersionB.csv,"Read Version B","Dissertation, read only version B",ELEMENT,CARBON,Study2,S,141,135,Study,User,-,,Study/JOL,"Study Phase",1344,,,-1,-1,,,,1
5ed96d809d0c93500acfc536,ijmi5f4ei6,Nick_Dissertation_EX1,1,44,2020-07-08T14:56:38-07:00,1.9260289669037,2,versionA_stim.csv,READVersionB.csv,"Read Version B","Dissertation, read only version B",CLUE,GAME,Study2,F,97,138,Study,User,-,,Study/JOL,"Study Phase",1470,,,-1,-1,,,,1
5ed96d809d0c93500acfc536,ijmi5f4ei6,Nick_Dissertation_EX1,1,45,2020-07-08T14:56:40-07:00,2.795686006546,2,versionA_stim.csv,READVersionB.csv,"Read Version B","Dissertation, read only version B",TANTRUM,TEMPER,Study2,S,154,113,Study,User,-,,Study/JOL,"Study Phase",1351,,,-1,-1,,,,1
5ed96d809d0c93500acfc536,ijmi5f4ei6,Nick_Dissertation_EX1,1,46,2020-07-08T14:56:42-07:00,1.5480079650879,2,versionA_stim.csv,READVersionB.csv,"Read Version B","Dissertation, read only version B",TEMPERATURE,Morning,Study2,U,173,128,Study,User,-,,Study/JOL,"Study Phase",1105,,,-1,-1,,,,1
5ed96d809d0c93500acfc536,ijmi5f4ei6,Nick_Dissertation_EX1,1,47,2020-07-08T14:56:44-07:00,2.4857330322266,2,versionA_stim.csv,READVersionB.csv,"Read Version B","Dissertation, read only version B",TRUTH,LIE,Study2,S,148,102,Study,User,-,,Study/JOL,"Study Phase",1047,,,-1,-1,,,,1
5ed96d809d0c93500acfc536,ijmi5f4ei6,Nick_Dissertation_EX1,1,48,2020-07-08T14:56:47-07:00,2.1535451412201,2,versionA_stim.csv,READVersionB.csv,"Read Version B","Dissertation, read only version B",CANDLE,WAX,Study2,S,139,167,Study,User,-,,Study/JOL,"Study Phase",1680,,,-1,-1,,,,1
5ed96d809d0c93500acfc536,ijmi5f4ei6,Nick_Dissertation_EX1,1,49,2020-07-08T14:56:49-07:00,2.4207789897919,2,versionA_stim.csv,READVersionB.csv,"Read Version B","Dissertation, read only version B",LEASE,TOIL,Study2,U,170,158,Study,User,-,,Study/JOL,"Study Phase",1833,,,-1,-1,,,,1
5ed96d809d0c93500acfc536,ijmi5f4ei6,Nick_Dissertation_EX1,1,50,2020-07-08T14:56:51-07:00,1.9115190505981,2,versionA_stim.csv,READVersionB.csv,"Read Version B","Dissertation, read only version B",CAR,WINDSHIELD,Study2,B,117,175,Study,User,-,,Study/JOL,"Study Phase",1475,,,-1,-1,,,,1
5ed96d809d0c93500acfc536,ijmi5f4ei6,Nick_Dissertation_EX1,1,51,2020-07-08T14:56:53-07:00,1.6986019611359,2,versionA_stim.csv,READVersionB.csv,"Read Version B","Dissertation, read only version B",Shell,SHAKE,Study2,U,163,155,Study,User,-,,Study/JOL,"Study Phase",1266,,,-1,-1,,,,1
5ed96d809d0c93500acfc536,ijmi5f4ei6,Nick_Dissertation_EX1,1,52,2020-07-08T14:56:55-07:00,1.9665198326111,2,versionA_stim.csv,READVersionB.csv,"Read Version B","Dissertation, read only version B",BASEBALL,LEAGUE,Study2,B,131,125,Study,User,-,,Study/JOL,"Study Phase",1533,,,-1,-1,,,,1
5ed96d809d0c93500acfc536,ijmi5f4ei6,Nick_Dissertation_EX1,1,53,2020-07-08T14:56:56-07:00,1.3150141239166,2,versionA_stim.csv,READVersionB.csv,"Read Version B","Dissertation, read only version B",DRIVER,CAR,Study2,F,106,172,Study,User,-,,Study/JOL,"Study Phase",844,,,-1,-1,,,,1
5ed96d809d0c93500acfc536,ijmi5f4ei6,Nick_Dissertation_EX1,1,54,2020-07-08T14:56:57-07:00,1.4022839069366,2,versionA_stim.csv,READVersionB.csv,"Read Version B","Dissertation, read only version B",RIGHTS,EQUAL,Study2,S,137,132,Study,User,-,,Study/JOL,"Study Phase",970,,,-1,-1,,,,1
5ed96d809d0c93500acfc536,ijmi5f4ei6,Nick_Dissertation_EX1,1,55,2020-07-08T14:56:59-07:00,1.6528739929199,2,versionA_stim.csv,READVersionB.csv,"Read Version B","Dissertation, read only version B",NAME,HATE,Study2,U,167,131,Study,User,-,,Study/JOL,"Study Phase",1220,,,-1,-1,,,,1
5ed96d809d0c93500acfc536,ijmi5f4ei6,Nick_Dissertation_EX1,1,56,2020-07-08T14:57:00-07:00,1.424467086792,2,versionA_stim.csv,READVersionB.csv,"Read Version B","Dissertation, read only version B",DEAD,COFFIN,Study2,B,128,164,Study,User,-,,Study/JOL,"Study Phase",975,,,-1,-1,,,,1
5ed96d809d0c93500acfc536,ijmi5f4ei6,Nick_Dissertation_EX1,1,57,2020-07-08T14:57:02-07:00,1.5509099960327,2,versionA_stim.csv,READVersionB.csv,"Read Version B","Dissertation, read only version B",WRIST,BRACELET,Study2,S,140,122,Study,User,-,,Study/JOL,"Study Phase",1114,,,-1,-1,,,,1
5ed96d809d0c93500acfc536,ijmi5f4ei6,Nick_Dissertation_EX1,1,58,2020-07-08T14:57:04-07:00,2.5027849674225,2,versionA_stim.csv,READVersionB.csv,"Read Version B","Dissertation, read only version B",FLEA,TICK,Study2,S,151,133,Study,User,-,,Study/JOL,"Study Phase",1530,,,-1,-1,,,,1
5ed96d809d0c93500acfc536,ijmi5f4ei6,Nick_Dissertation_EX1,1,59,2020-07-08T14:57:06-07:00,1.7230529785156,2,versionA_stim.csv,READVersionB.csv,"Read Version B","Dissertation, read only version B",TURN,FLIP,Study2,B,116,98,Study,User,-,,Study/JOL,"Study Phase",1277,,,-1,-1,,,,1
5ed96d809d0c93500acfc536,ijmi5f4ei6,Nick_Dissertation_EX1,1,60,2020-07-08T14:57:08-07:00,1.7558269500732,2,versionA_stim.csv,READVersionB.csv,"Read Version B","Dissertation, read only version B",OWN,HAVE,Study2,S,153,117,Study,User,-,,Study/JOL,"Study Phase",1316,,,-1,-1,,,,1
5ed96d809d0c93500acfc536,ijmi5f4ei6,Nick_Dissertation_EX1,1,61,2020-07-08T14:57:09-07:00,1.5622761249542,2,versionA_stim.csv,READVersionB.csv,"Read Version B","Dissertation, read only version B",SAFETY,SEATBELT,Study2,S,147,111,Study,User,-,,Study/JOL,"Study Phase",1116,,,-1,-1,,,,1
5ed96d809d0c93500acfc536,ijmi5f4ei6,Nick_Dissertation_EX1,1,62,2020-07-08T14:57:11-07:00,1.5328109264374,2,versionA_stim.csv,READVersionB.csv,"Read Version B","Dissertation, read only version B",MONEY,BANKER,Study2,B,132,130,Study,User,-,,Study/JOL,"Study Phase",1095,,,-1,-1,,,,1
5ed96d809d0c93500acfc536,ijmi5f4ei6,Nick_Dissertation_EX1,1,63,2020-07-08T14:57:13-07:00,1.6661319732666,2,versionA_stim.csv,READVersionB.csv,"Read Version B","Dissertation, read only version B",THREAD,THIMBLE,Study2,B,121,108,Study,User,-,,Study/JOL,"Study Phase",1238,,,-1,-1,,,,1
5ed96d809d0c93500acfc536,ijmi5f4ei6,Nick_Dissertation_EX1,1,64,2020-07-08T14:57:14-07:00,1.057480096817,2,versionA_stim.csv,READVersionB.csv,"Read Version B","Dissertation, read only version B",FURRY,DOG,Study2,F,102,104,Study,User,-,,Study/JOL,"Study Phase",730,,,-1,-1,,,,1
5ed96d809d0c93500acfc536,ijmi5f4ei6,Nick_Dissertation_EX1,1,65,2020-07-08T14:57:16-07:00,1.9406728744507,2,versionA_stim.csv,READVersionB.csv,"Read Version B","Dissertation, read only version B",PLANE,AIRCRAFT,Study2,B,129,115,Study,User,-,,Study/JOL,"Study Phase",1145,,,-1,-1,,,,1
5ed96d809d0c93500acfc536,ijmi5f4ei6,Nick_Dissertation_EX1,1,66,2020-07-08T14:57:17-07:00,1.7484459877014,2,versionA_stim.csv,READVersionB.csv,"Read Version B","Dissertation, read only version B",LOUD,NOISE,Study2,S,152,165,Study,User,-,,Study/JOL,"Study Phase",1314,,,-1,-1,,,,1
5ed96d809d0c93500acfc536,ijmi5f4ei6,Nick_Dissertation_EX1,1,67,2020-07-08T14:57:19-07:00,1.5114951133728,2,versionA_stim.csv,READVersionB.csv,"Read Version B","Dissertation, read only version B",DETECTIVE,MYSTERY,Study2,F,100,162,Study,User,-,,Study/JOL,"Study Phase",1079,,,-1,-1,,,,1
5ed96d809d0c93500acfc536,ijmi5f4ei6,Nick_Dissertation_EX1,1,68,2020-07-08T14:57:21-07:00,2.1469810009003,2,versionA_stim.csv,READVersionB.csv,"Read Version B","Dissertation, read only version B",CHILL,COLD,Study2,F,114,137,Study,User,-,,Study/JOL,"Study Phase",1709,,,-1,-1,,,,1
5ed96d809d0c93500acfc536,ijmi5f4ei6,Nick_Dissertation_EX1,1,69,2020-07-08T14:57:23-07:00,1.6829669475555,2,versionA_stim.csv,READVersionB.csv,"Read Version B","Dissertation, read only version B",GLASS,BREAKABLE,Study2,B,127,141,Study,User,-,,Study/JOL,"Study Phase",1241,,,-1,-1,,,,1
5ed96d809d0c93500acfc536,ijmi5f4ei6,Nick_Dissertation_EX1,1,70,2020-07-08T14:57:24-07:00,1.4931659698486,2,versionA_stim.csv,READVersionB.csv,"Read Version B","Dissertation, read only version B",DRY,WET,Study2,S,146,153,Study,User,-,,Study/JOL,"Study Phase",1053,,,-1,-1,,,,1
5ed96d809d0c93500acfc536,ijmi5f4ei6,Nick_Dissertation_EX1,1,71,2020-07-08T14:57:26-07:00,1.4612331390381,2,versionA_stim.csv,READVersionB.csv,"Read Version B","Dissertation, read only version B",BAD,VILLAIN,Study2,B,118,126,Study,User,-,,Study/JOL,"Study Phase",1026,,,-1,-1,,,,1
5ed96d809d0c93500acfc536,ijmi5f4ei6,Nick_Dissertation_EX1,1,72,2020-07-08T14:57:27-07:00,1.2692818641663,2,versionA_stim.csv,READVersionB.csv,"Read Version B","Dissertation, read only version B",KEYS,JOKE,Study2,U,165,143,Study,User,-,,Study/JOL,"Study Phase",935,,,-1,-1,,,,1
5ed96d809d0c93500acfc536,ijmi5f4ei6,Nick_Dissertation_EX1,1,73,2020-07-08T14:57:28-07:00,1.2170071601868,2,versionA_stim.csv,READVersionB.csv,"Read Version B","Dissertation, read only version B",SLEEP,NAP,Study2,B,134,100,Study,User,-,,Study/JOL,"Study Phase",852,,,-1,-1,,,,1
5ed96d809d0c93500acfc536,ijmi5f4ei6,Nick_Dissertation_EX1,1,74,2020-07-08T14:57:31-07:00,2.3959529399872,2,versionA_stim.csv,READVersionB.csv,"Read Version B","Dissertation, read only version B",ADJOURN,END,Study2,F,101,142,Study,User,-,,Study/JOL,"Study Phase",1966,,,-1,-1,,,,1
5ed96d809d0c93500acfc536,ijmi5f4ei6,Nick_Dissertation_EX1,1,75,2020-07-08T14:57:32-07:00,1.9167859554291,2,versionA_stim.csv,READVersionB.csv,"Read Version B","Dissertation, read only version B",STAR,ACTRESS,Study2,B,120,174,Study,User,-,,Study/JOL,"Study Phase",1483,,,-1,-1,,,,1
5ed96d809d0c93500acfc536,ijmi5f4ei6,Nick_Dissertation_EX1,1,76,2020-07-08T14:57:36-07:00,3.0999619960785,2,versionA_stim.csv,READVersionB.csv,"Read Version B","Dissertation, read only version B",INCENSE,SMELL,Study2,F,110,170,Study,User,-,,Study/JOL,"Study Phase",1665,,,-1,-1,,,,1
5ed96d809d0c93500acfc536,ijmi5f4ei6,Nick_Dissertation_EX1,1,77,2020-07-08T14:57:37-07:00,1.3388330936432,2,versionA_stim.csv,READVersionB.csv,"Read Version B","Dissertation, read only version B",JUSTICE,MAROON,Study2,U,156,156,Study,User,-,,Study/JOL,"Study Phase",952,,,-1,-1,,,,1
5ed96d809d0c93500acfc536,ijmi5f4ei6,Nick_Dissertation_EX1,1,78,2020-07-08T14:57:38-07:00,1.2223148345947,2,versionA_stim.csv,READVersionB.csv,"Read Version B","Dissertation, read only version B",BIRD,PENGUIN,Study2,B,119,169,Study,User,-,,Study/JOL,"Study Phase",885,,,-1,-1,,,,1
5ed96d809d0c93500acfc536,ijmi5f4ei6,Nick_Dissertation_EX1,1,79,2020-07-08T14:57:39-07:00,1.1927990913391,2,versionA_stim.csv,READVersionB.csv,"Read Version B","Dissertation, read only version B",FUZZY,BANG,Study2,U,168,145,Study,User,-,,Study/JOL,"Study Phase",843,,,-1,-1,,,,1
5ed96d809d0c93500acfc536,ijmi5f4ei6,Nick_Dissertation_EX1,1,80,2020-07-08T14:57:41-07:00,1.5342469215393,2,versionA_stim.csv,READVersionB.csv,"Read Version B","Dissertation, read only version B",LISTEN,FICTION,Study2,U,164,120,Study,User,-,,Study/JOL,"Study Phase",1061,,,-1,-1,,,,1
5ed96d809d0c93500acfc536,ijmi5f4ei6,Nick_Dissertation_EX1,1,81,2020-07-08T14:57:42-07:00,1.507532119751,2,versionA_stim.csv,READVersionB.csv,"Read Version B","Dissertation, read only version B",MOAT,CLEAR,Study2,U,169,147,Study,User,-,,Study/JOL,"Study Phase",1063,,,-1,-1,,,,1
5ed96d809d0c93500acfc536,ijmi5f4ei6,Nick_Dissertation_EX1,1,82,2020-07-08T14:57:44-07:00,1.1938140392303,2,versionA_stim.csv,READVersionB.csv,"Read Version B","Dissertation, read only version B",FEUD,FIGHT,Study2,F,113,148,Study,User,-,,Study/JOL,"Study Phase",863,,,-1,-1,,,,1
5ed96d809d0c93500acfc536,ijmi5f4ei6,Nick_Dissertation_EX1,1,83,2020-07-08T14:57:45-07:00,1.5040018558502,2,versionA_stim.csv,READVersionB.csv,"Read Version B","Dissertation, read only version B",CHOP,CUT,Study2,F,107,168,Study,User,-,,Study/JOL,"Study Phase",1045,,,-1,-1,,,,1
5ed96d809d0c93500acfc536,ijmi5f4ei6,Nick_Dissertation_EX1,1,84,2020-07-08T14:57:46-07:00,1.1466341018677,2,versionA_stim.csv,READVersionB.csv,"Read Version B","Dissertation, read only version B",STRETCH,CLOTH,Study2,U,157,163,Study,User,-,,Study/JOL,"Study Phase",810,,,-1,-1,,,,1
5ed96d809d0c93500acfc536,ijmi5f4ei6,Nick_Dissertation_EX1,1,85,2020-07-08T14:57:47-07:00,1.176244020462,2,versionA_stim.csv,READVersionB.csv,"Read Version B","Dissertation, read only version B",CHERRY,RED,Study2,F,104,116,Study,User,-,,Study/JOL,"Study Phase",820,,,-1,-1,,,,1
5ed96d809d0c93500acfc536,ijmi5f4ei6,Nick_Dissertation_EX1,1,86,2020-07-08T14:57:49-07:00,1.2433278560638,2,versionA_stim.csv,READVersionB.csv,"Read Version B","Dissertation, read only version B",VEHICLE,CHARM,Study2,U,160,97,Study,User,-,,Study/JOL,"Study Phase",904,,,-1,-1,,,,1
5ed96d809d0c93500acfc536,ijmi5f4ei6,Nick_Dissertation_EX1,1,87,2020-07-08T14:57:50-07:00,1.6316699981689,2,versionA_stim.csv,READVersionB.csv,"Read Version B","Dissertation, read only version B",OCTOBER,SPOOKY,BUFFER4,Buffer,180,179,Study,User,-,,Study/JOL,BUFFER2,1081,,,-1,-1,,,,1
5ed96d809d0c93500acfc536,ijmi5f4ei6,Nick_Dissertation_EX1,1,88,2020-07-08T14:57:52-07:00,1.781298160553,2,versionA_stim.csv,READVersionB.csv,"Read Version B","Dissertation, read only version B",TOOL,SHED,BUFFER4,Buffer,178,178,Study,User,-,,Study/JOL,BUFFER2,1181,,,-1,-1,,,,1
5ed96d809d0c93500acfc536,ijmi5f4ei6,Nick_Dissertation_EX1,1,89,2020-07-08T14:57:53-07:00,1.2234718799591,2,versionA_stim.csv,READVersionB.csv,"Read Version B","Dissertation, read only version B",MONTH,YEAR,BUFFER4,Buffer,177,180,Study,User,-,,Study/JOL,BUFFER2,855,,,-1,-1,,,,1
5ed96d809d0c93500acfc536,ijmi5f4ei6,Nick_Dissertation_EX1,1,90,2020-07-08T14:57:54-07:00,1.1910150051117,2,versionA_stim.csv,READVersionB.csv,"Read Version B","Dissertation, read only version B",DAYS,WEAKS,BUFFER4,Buffer,176,181,Study,User,-,,Study/JOL,BUFFER2,857,,,-1,-1,,,,1
5ed96d809d0c93500acfc536,ijmi5f4ei6,Nick_Dissertation_EX1,1,91,2020-07-08T14:57:56-07:00,1.6811800003052,2,versionA_stim.csv,READVersionB.csv,"Read Version B","Dissertation, read only version B",SPRING,MARCH,BUFFER4,Buffer,179,177,Study,User,-,,Study/JOL,BUFFER2,1246,,,-1,-1,,,,1
5ed96d809d0c93500acfc536,ijmi5f4ei6,Nick_Dissertation_EX1,1,92,2020-07-08T14:57:59-07:00,2.8254799842834,2,versionA_stim.csv,READVersionB.csv,"Read Version B","Dissertation, read only version B",,,,,,0,Instruct,User,-,"You have completed this section. Please press Enter.",Filler_Instruction,Instruct2,2387,,,-1,-1,,,,1
5ed96d809d0c93500acfc536,ijmi5f4ei6,Nick_Dissertation_EX1,1,93,2020-07-08T14:59:59-07:00,120.47586894035,2,versionA_stim.csv,READVersionB.csv,"Read Version B","Dissertation, read only version B",,,,,,0,FreeRecall,120,120,"Please list the 50 US states in alphabetical order. The task will automatically advance to the next screen after two minutes.",,Filler1,120003,"Alabama Alaska Arizona California Florida Philadelphia New York Maryland Michigan Texas Washington",0,11634,112200,0,0,,1
5ed96d809d0c93500acfc536,ijmi5f4ei6,Nick_Dissertation_EX1,1,94,2020-07-08T15:00:15-07:00,15.999140024185,2,versionA_stim.csv,READVersionB.csv,"Read Version B","Dissertation, read only version B",,,,,,0,Instruct,-,10,"You will now be presented with the first word from each of the previously studied item pairs. Please type the missing word. If you do not know the word, you may guess or press Enter to skip forward to the next pair.",,Instruct3,15546,,,-1,-1,,,,1
5ed96d809d0c93500acfc536,ijmi5f4ei6,Nick_Dissertation_EX1,1,95,2020-07-08T15:00:19-07:00,3.3830971717834,2,versionA_stim.csv,READVersionB.csv,"Read Version B","Dissertation, read only version B",FUZZY,BANG,Study2,U,168,145,Test,User,-,,Recall,Recall1,2933,Bear,50,1919,2411,0,0,,1
5ed96d809d0c93500acfc536,ijmi5f4ei6,Nick_Dissertation_EX1,1,96,2020-07-08T15:00:22-07:00,3.2125718593597,2,versionA_stim.csv,READVersionB.csv,"Read Version B","Dissertation, read only version B",POP,BALLOON,Study2,B,123,159,Test,User,-,,Recall,Recall1,2767,Crack,16.666666666667,1464,2481,0,0,,1
5ed96d809d0c93500acfc536,ijmi5f4ei6,Nick_Dissertation_EX1,1,97,2020-07-08T15:00:24-07:00,2.2783570289612,2,versionA_stim.csv,READVersionB.csv,"Read Version B","Dissertation, read only version B",SUN,TAN,Study2,S,155,151,Test,User,-,,Recall,Recall1,1838,Tan,100,1193,1564,1,1,,1
5ed96d809d0c93500acfc536,ijmi5f4ei6,Nick_Dissertation_EX1,1,98,2020-07-08T15:00:27-07:00,2.6861760616302,2,versionA_stim.csv,READVersionB.csv,"Read Version B","Dissertation, read only version B",EXTENSION,LONG,Study2,F,96,103,Test,User,-,,Recall,Recall1,2239,,0,-1,-1,0,0,,1
5ed96d809d0c93500acfc536,ijmi5f4ei6,Nick_Dissertation_EX1,1,99,2020-07-08T15:00:30-07:00,3.1651570796967,2,versionA_stim.csv,READVersionB.csv,"Read Version B","Dissertation, read only version B",DINE,EAT,Study2,F,111,152,Test,User,-,,Recall,Recall1,2699,Eat,100,1992,2382,1,1,,1
5ed96d809d0c93500acfc536,ijmi5f4ei6,Nick_Dissertation_EX1,1,100,2020-07-08T15:00:33-07:00,3.0734717845917,2,versionA_stim.csv,READVersionB.csv,"Read Version B","Dissertation, read only version B",PHONE,COMMUNICATION,Study2,S,149,134,Test,User,-,,Recall,Recall1,2606,,0,-1,-1,0,0,,1
5ed96d809d0c93500acfc536,ijmi5f4ei6,Nick_Dissertation_EX1,1,101,2020-07-08T15:00:37-07:00,3.930810213089,2,versionA_stim.csv,READVersionB.csv,"Read Version B","Dissertation, read only version B",KEYS,JOKE,Study2,U,165,143,Test,User,-,,Recall,Recall1,3482,Car,0,2769,3119,0,0,,1
5ed96d809d0c93500acfc536,ijmi5f4ei6,Nick_Dissertation_EX1,1,102,2020-07-08T15:00:40-07:00,2.9106688499451,2,versionA_stim.csv,READVersionB.csv,"Read Version B","Dissertation, read only version B",TEMPERATURE,Morning,Study2,U,173,128,Test,User,-,,Recall,Recall1,2474,Hot,20,1608,2225,0,0,,1
5ed96d809d0c93500acfc536,ijmi5f4ei6,Nick_Dissertation_EX1,1,103,2020-07-08T15:01:07-07:00,26.608299016953,2,versionA_stim.csv,READVersionB.csv,"Read Version B","Dissertation, read only version B",ADJOURN,END,Study2,F,101,142,Test,User,-,,Recall,Recall1,26152,break,25,25323,25923,0,0,,0.833
5ed96d809d0c93500acfc536,ijmi5f4ei6,Nick_Dissertation_EX1,1,104,2020-07-08T15:01:09-07:00,2.7565269470215,2,versionA_stim.csv,READVersionB.csv,"Read Version B","Dissertation, read only version B",SLEEP,NAP,Study2,B,134,100,Test,User,-,,Recall,Recall1,2321,tired,0,1653,2195,0,0,,1
5ed96d809d0c93500acfc536,ijmi5f4ei6,Nick_Dissertation_EX1,1,105,2020-07-08T15:01:13-07:00,3.7322030067444,2,versionA_stim.csv,READVersionB.csv,"Read Version B","Dissertation, read only version B",PLANE,AIRCRAFT,Study2,B,129,115,Test,User,-,,Recall,Recall1,3279,fly,18.181818181818,2521,3153,0,0,,1
5ed96d809d0c93500acfc536,ijmi5f4ei6,Nick_Dissertation_EX1,1,106,2020-07-08T15:01:17-07:00,4.0276219844818,2,versionA_stim.csv,READVersionB.csv,"Read Version B","Dissertation, read only version B",FEUD,FIGHT,Study2,F,113,148,Test,User,-,,Recall,Recall1,3573,"fight ",100,1344,3179,1,1,,1
5ed96d809d0c93500acfc536,ijmi5f4ei6,Nick_Dissertation_EX1,1,107,2020-07-08T15:01:19-07:00,2.0599770545959,2,versionA_stim.csv,READVersionB.csv,"Read Version B","Dissertation, read only version B",VEHICLE,CHARM,Study2,U,160,97,Test,User,-,,Recall,Recall1,1601,car,75,1170,1513,0,1,,1
5ed96d809d0c93500acfc536,ijmi5f4ei6,Nick_Dissertation_EX1,1,108,2020-07-08T15:01:21-07:00,1.689563035965,2,versionA_stim.csv,READVersionB.csv,"Read Version B","Dissertation, read only version B",CHILL,COLD,Study2,F,114,137,Test,User,-,,Recall,Recall1,1242,,0,-1,-1,0,0,,1
5ed96d809d0c93500acfc536,ijmi5f4ei6,Nick_Dissertation_EX1,1,109,2020-07-08T15:01:27-07:00,5.6358609199524,2,versionA_stim.csv,READVersionB.csv,"Read Version B","Dissertation, read only version B",TRUTH,LIE,Study2,S,148,102,Test,User,-,,Recall,Recall1,5193,Honesty,20,2584,5009,0,0,,1
5ed96d809d0c93500acfc536,ijmi5f4ei6,Nick_Dissertation_EX1,1,110,2020-07-08T15:01:29-07:00,1.9325921535492,2,versionA_stim.csv,READVersionB.csv,"Read Version B","Dissertation, read only version B",ELEMENT,CARBON,Study2,S,141,135,Test,User,-,,Recall,Recall1,1475,,0,-1,-1,0,0,,1
5ed96d809d0c93500acfc536,ijmi5f4ei6,Nick_Dissertation_EX1,1,111,2020-07-08T15:01:32-07:00,3.4549050331116,2,versionA_stim.csv,READVersionB.csv,"Read Version B","Dissertation, read only version B",LOUD,NOISE,Study2,S,152,165,Test,User,-,,Recall,Recall1,3012,noise,100,2250,2823,1,1,,1
5ed96d809d0c93500acfc536,ijmi5f4ei6,Nick_Dissertation_EX1,1,112,2020-07-08T15:01:33-07:00,1.0547959804535,2,versionA_stim.csv,READVersionB.csv,"Read Version B","Dissertation, read only version B",JUSTICE,MAROON,Study2,U,156,156,Test,User,-,,Recall,Recall1,718,,0,-1,-1,0,0,,1
5ed96d809d0c93500acfc536,ijmi5f4ei6,Nick_Dissertation_EX1,1,113,2020-07-08T15:01:37-07:00,3.6772818565369,2,versionA_stim.csv,READVersionB.csv,"Read Version B","Dissertation, read only version B",MAZE,ELECTION,Study2,U,159,149,Test,User,-,,Recall,Recall1,3230,,0,-1,-1,0,0,,1
5ed96d809d0c93500acfc536,ijmi5f4ei6,Nick_Dissertation_EX1,1,114,2020-07-08T15:01:43-07:00,5.9364531040192,2,versionA_stim.csv,READVersionB.csv,"Read Version B","Dissertation, read only version B",INCENSE,SMELL,Study2,F,110,170,Test,User,-,,Recall,Recall1,4877,Smell,100,1906,2775,1,1,,1
5ed96d809d0c93500acfc536,ijmi5f4ei6,Nick_Dissertation_EX1,1,115,2020-07-08T15:01:45-07:00,2.3360998630524,2,versionA_stim.csv,READVersionB.csv,"Read Version B","Dissertation, read only version B",SHOELACE,TIE,Study2,F,99,119,Test,User,-,,Recall,Recall1,1898,tie,100,1558,1784,1,1,,1
5ed96d809d0c93500acfc536,ijmi5f4ei6,Nick_Dissertation_EX1,1,116,2020-07-08T15:01:49-07:00,3.8863570690155,2,versionA_stim.csv,READVersionB.csv,"Read Version B","Dissertation, read only version B",DRIVER,CAR,Study2,F,106,172,Test,User,-,,Recall,Recall1,3447,car,100,2936,3071,1,1,,1
5ed96d809d0c93500acfc536,ijmi5f4ei6,Nick_Dissertation_EX1,1,117,2020-07-08T15:01:51-07:00,2.280914068222,2,versionA_stim.csv,READVersionB.csv,"Read Version B","Dissertation, read only version B",CLUE,GAME,Study2,F,97,138,Test,User,-,,Recall,Recall1,1843,hint,0,1345,1697,0,0,,1
5ed96d809d0c93500acfc536,ijmi5f4ei6,Nick_Dissertation_EX1,1,118,2020-07-08T15:01:54-07:00,2.749459028244,2,versionA_stim.csv,READVersionB.csv,"Read Version B","Dissertation, read only version B",DETECTIVE,MYSTERY,Study2,F,100,162,Test,User,-,,Recall,Recall1,2199,spy,40,1822,2109,0,0,,1
5ed96d809d0c93500acfc536,ijmi5f4ei6,Nick_Dissertation_EX1,1,119,2020-07-08T15:01:58-07:00,3.7460029125214,2,versionA_stim.csv,READVersionB.csv,"Read Version B","Dissertation, read only version B",CRACKLE,ABLE,Study2,U,162,110,Test,User,-,,Recall,Recall1,2023,,0,-1,-1,0,0,,1
5ed96d809d0c93500acfc536,ijmi5f4ei6,Nick_Dissertation_EX1,1,120,2020-07-08T15:02:00-07:00,2.0840981006622,2,versionA_stim.csv,READVersionB.csv,"Read Version B","Dissertation, read only version B",NAME,HATE,Study2,U,167,131,Test,User,-,,Recall,Recall1,1645,,0,-1,-1,0,0,,1
5ed96d809d0c93500acfc536,ijmi5f4ei6,Nick_Dissertation_EX1,1,121,2020-07-08T15:02:02-07:00,2.0920548439026,2,versionA_stim.csv,READVersionB.csv,"Read Version B","Dissertation, read only version B",MEAT,OBTAIN,Study2,U,161,124,Test,User,-,,Recall,Recall1,1654,,0,-1,-1,0,0,,1
5ed96d809d0c93500acfc536,ijmi5f4ei6,Nick_Dissertation_EX1,1,122,2020-07-08T15:02:07-07:00,5.4648330211639,2,versionA_stim.csv,READVersionB.csv,"Read Version B","Dissertation, read only version B",GIVE,STEAK,Study2,U,158,101,Test,User,-,,Recall,Recall1,5011,,0,-1,-1,0,0,,1
5ed96d809d0c93500acfc536,ijmi5f4ei6,Nick_Dissertation_EX1,1,123,2020-07-08T15:02:09-07:00,1.7364809513092,2,versionA_stim.csv,READVersionB.csv,"Read Version B","Dissertation, read only version B",CAKE,CLOTHES,Study2,U,166,99,Test,User,-,,Recall,Recall1,1233,,0,-1,-1,0,0,,1
5ed96d809d0c93500acfc536,ijmi5f4ei6,Nick_Dissertation_EX1,1,124,2020-07-08T15:02:12-07:00,2.4891090393066,2,versionA_stim.csv,READVersionB.csv,"Read Version B","Dissertation, read only version B",BAD,VILLAIN,Study2,B,118,126,Test,User,-,,Recall,Recall1,2005,,0,-1,-1,0,0,,1
5ed96d809d0c93500acfc536,ijmi5f4ei6,Nick_Dissertation_EX1,1,125,2020-07-08T15:02:19-07:00,7.0048310756683,2,versionA_stim.csv,READVersionB.csv,"Read Version B","Dissertation, read only version B",FRUIT,STRAWBERRY,Study2,B,124,160,Test,User,-,,Recall,Recall1,6509,health,12.5,5533,6220,0,0,,1
5ed96d809d0c93500acfc536,ijmi5f4ei6,Nick_Dissertation_EX1,1,126,2020-07-08T15:02:20-07:00,1.6836268901825,2,versionA_stim.csv,READVersionB.csv,"Read Version B","Dissertation, read only version B",SCALP,HEAD,Study2,F,105,171,Test,User,-,,Recall,Recall1,1250,,0,-1,-1,0,0,,1
5ed96d809d0c93500acfc536,ijmi5f4ei6,Nick_Dissertation_EX1,1,127,2020-07-08T15:02:24-07:00,3.5963971614838,2,versionA_stim.csv,READVersionB.csv,"Read Version B","Dissertation, read only version B",STAR,ACTRESS,Study2,B,120,174,Test,User,-,,Recall,Recall1,2095,,0,-1,-1,0,0,,1
5ed96d809d0c93500acfc536,ijmi5f4ei6,Nick_Dissertation_EX1,1,128,2020-07-08T15:02:27-07:00,2.945417881012,2,versionA_stim.csv,READVersionB.csv,"Read Version B","Dissertation, read only version B",TANTRUM,TEMPER,Study2,S,154,113,Test,User,-,,Recall,Recall1,2475,feud,20,1914,2257,0,0,,1
5ed96d809d0c93500acfc536,ijmi5f4ei6,Nick_Dissertation_EX1,1,129,2020-07-08T15:02:29-07:00,2.4663641452789,2,versionA_stim.csv,READVersionB.csv,"Read Version B","Dissertation, read only version B",Shell,SHAKE,Study2,U,163,155,Test,User,-,,Recall,Recall1,2032,,0,-1,-1,0,0,,1
5ed96d809d0c93500acfc536,ijmi5f4ei6,Nick_Dissertation_EX1,1,130,2020-07-08T15:02:33-07:00,3.608874797821,2,versionA_stim.csv,READVersionB.csv,"Read Version B","Dissertation, read only version B",DEAD,COFFIN,Study2,B,128,164,Test,User,-,,Recall,Recall1,3166,coffin,100,2073,2701,1,1,,1
5ed96d809d0c93500acfc536,ijmi5f4ei6,Nick_Dissertation_EX1,1,131,2020-07-08T15:02:36-07:00,2.9356620311737,2,versionA_stim.csv,READVersionB.csv,"Read Version B","Dissertation, read only version B",CACTUS,PLANT,Study2,F,98,161,Test,User,-,,Recall,Recall1,2488,plant,100,1699,2263,1,1,,1
5ed96d809d0c93500acfc536,ijmi5f4ei6,Nick_Dissertation_EX1,1,132,2020-07-08T15:02:38-07:00,2.5342669487,2,versionA_stim.csv,READVersionB.csv,"Read Version B","Dissertation, read only version B",MOAT,CLEAR,Study2,U,169,147,Test,User,-,,Recall,Recall1,2091,,0,-1,-1,0,0,,1
5ed96d809d0c93500acfc536,ijmi5f4ei6,Nick_Dissertation_EX1,1,133,2020-07-08T15:02:43-07:00,4.6523611545563,2,versionA_stim.csv,READVersionB.csv,"Read Version B","Dissertation, read only version B",LOAN,SIGN,Study2,U,171,150,Test,User,-,,Recall,Recall1,4207,money,22.222222222222,1529,2026,0,0,,1
5ed96d809d0c93500acfc536,ijmi5f4ei6,Nick_Dissertation_EX1,1,134,2020-07-08T15:02:46-07:00,3.4365019798279,2,versionA_stim.csv,READVersionB.csv,"Read Version B","Dissertation, read only version B",AFFECTION,LOVE,Study2,F,115,127,Test,User,-,,Recall,Recall1,1990,love,100,1359,1803,1,1,,1
5ed96d809d0c93500acfc536,ijmi5f4ei6,Nick_Dissertation_EX1,1,135,2020-07-08T15:02:48-07:00,1.8393108844757,2,versionA_stim.csv,READVersionB.csv,"Read Version B","Dissertation, read only version B",RAZOR,SHAVE,Study2,S,136,112,Test,User,-,,Recall,Recall1,1391,,0,-1,-1,0,0,,1
5ed96d809d0c93500acfc536,ijmi5f4ei6,Nick_Dissertation_EX1,1,136,2020-07-08T15:02:53-07:00,5.0608651638031,2,versionA_stim.csv,READVersionB.csv,"Read Version B","Dissertation, read only version B",CHERRY,RED,Study2,F,104,116,Test,User,-,,Recall,Recall1,4597,fruit,25,1342,4425,0,0,,1
5ed96d809d0c93500acfc536,ijmi5f4ei6,Nick_Dissertation_EX1,1,137,2020-07-08T15:02:55-07:00,1.8851318359375,2,versionA_stim.csv,READVersionB.csv,"Read Version B","Dissertation, read only version B",DRY,WET,Study2,S,146,153,Test,User,-,,Recall,Recall1,1444,,0,-1,-1,0,0,,1
5ed96d809d0c93500acfc536,ijmi5f4ei6,Nick_Dissertation_EX1,1,138,2020-07-08T15:02:59-07:00,4.1794390678406,2,versionA_stim.csv,READVersionB.csv,"Read Version B","Dissertation, read only version B",FURRY,DOG,Study2,F,102,104,Test,User,-,,Recall,Recall1,3739,animal,0,1627,3461,0,0,,1
5ed96d809d0c93500acfc536,ijmi5f4ei6,Nick_Dissertation_EX1,1,139,2020-07-08T15:03:00-07:00,1.0601270198822,2,versionA_stim.csv,READVersionB.csv,"Read Version B","Dissertation, read only version B",LEASE,TOIL,Study2,U,170,158,Test,User,-,,Recall,Recall1,721,,0,-1,-1,0,0,,1
5ed96d809d0c93500acfc536,ijmi5f4ei6,Nick_Dissertation_EX1,1,140,2020-07-08T15:03:01-07:00,0.9652841091156,2,versionA_stim.csv,READVersionB.csv,"Read Version B","Dissertation, read only version B",OWN,HAVE,Study2,S,153,117,Test,User,-,,Recall,Recall1,621,,0,-1,-1,0,0,,1
5ed96d809d0c93500acfc536,ijmi5f4ei6,Nick_Dissertation_EX1,1,141,2020-07-08T15:03:03-07:00,1.8064048290253,2,versionA_stim.csv,READVersionB.csv,"Read Version B","Dissertation, read only version B",SHEARS,SCISSORS,Study2,F,112,157,Test,User,-,,Recall,Recall1,1370,,0,-1,-1,0,0,,1
5ed96d809d0c93500acfc536,ijmi5f4ei6,Nick_Dissertation_EX1,1,142,2020-07-08T15:03:06-07:00,2.9692761898041,2,versionA_stim.csv,READVersionB.csv,"Read Version B","Dissertation, read only version B",FISH,SARDINE,Study2,B,130,106,Test,User,-,,Recall,Recall1,2106,,0,-1,-1,0,0,,1
5ed96d809d0c93500acfc536,ijmi5f4ei6,Nick_Dissertation_EX1,1,143,2020-07-08T15:03:07-07:00,1.0613939762115,2,versionA_stim.csv,READVersionB.csv,"Read Version B","Dissertation, read only version B",STRETCH,CLOTH,Study2,U,157,163,Test,User,-,,Recall,Recall1,724,,0,-1,-1,0,0,,1
5ed96d809d0c93500acfc536,ijmi5f4ei6,Nick_Dissertation_EX1,1,144,2020-07-08T15:03:08-07:00,1.1635508537292,2,versionA_stim.csv,READVersionB.csv,"Read Version B","Dissertation, read only version B",BOTH,OUNCE,Study2,U,172,105,Test,User,-,,Recall,Recall1,819,,0,-1,-1,0,0,,1
5ed96d809d0c93500acfc536,ijmi5f4ei6,Nick_Dissertation_EX1,1,145,2020-07-08T15:03:11-07:00,2.7225201129913,2,versionA_stim.csv,READVersionB.csv,"Read Version B","Dissertation, read only version B",RIGHTS,EQUAL,Study2,S,137,132,Test,User,-,,Recall,Recall1,2280,equal,100,1250,1964,1,1,,1
5ed96d809d0c93500acfc536,ijmi5f4ei6,Nick_Dissertation_EX1,1,146,2020-07-08T15:03:13-07:00,2.1525180339813,2,versionA_stim.csv,READVersionB.csv,"Read Version B","Dissertation, read only version B",MASON,JAR,Study2,S,138,146,Test,User,-,,Recall,Recall1,1707,jar,100,1191,1562,1,1,,1
5ed96d809d0c93500acfc536,ijmi5f4ei6,Nick_Dissertation_EX1,1,147,2020-07-08T15:03:16-07:00,2.5889058113098,2,versionA_stim.csv,READVersionB.csv,"Read Version B","Dissertation, read only version B",GONE,AWAY,Study2,S,142,123,Test,User,-,,Recall,Recall1,2134,away,100,1492,1883,1,1,,1
5ed96d809d0c93500acfc536,ijmi5f4ei6,Nick_Dissertation_EX1,1,148,2020-07-08T15:03:18-07:00,2.2742011547089,2,versionA_stim.csv,READVersionB.csv,"Read Version B","Dissertation, read only version B",FIGHT,BRAWL,Study2,B,135,121,Test,User,-,,Recall,Recall1,1824,feud,0,1209,1546,0,0,,1
5ed96d809d0c93500acfc536,ijmi5f4ei6,Nick_Dissertation_EX1,1,149,2020-07-08T15:03:20-07:00,1.7760908603668,2,versionA_stim.csv,READVersionB.csv,"Read Version B","Dissertation, read only version B",MAIN,SCAR,Study2,U,175,140,Test,User,-,,Recall,Recall1,1332,,0,-1,-1,0,0,,1
5ed96d809d0c93500acfc536,ijmi5f4ei6,Nick_Dissertation_EX1,1,150,2020-07-08T15:03:24-07:00,4.4721870422363,2,versionA_stim.csv,READVersionB.csv,"Read Version B","Dissertation, read only version B",MIRROR,CHILDREN,Study2,U,174,118,Test,User,-,,Recall,Recall1,3619,reflect,26.666666666667,1696,3456,0,0,,1
5ed96d809d0c93500acfc536,ijmi5f4ei6,Nick_Dissertation_EX1,1,151,2020-07-08T15:03:28-07:00,3.5807199478149,2,versionA_stim.csv,READVersionB.csv,"Read Version B","Dissertation, read only version B",BIRD,PENGUIN,Study2,B,119,169,Test,User,-,,Recall,Recall1,2144,fly,0,1706,2002,0,0,,1
5ed96d809d0c93500acfc536,ijmi5f4ei6,Nick_Dissertation_EX1,1,152,2020-07-08T15:03:31-07:00,3.2479310035706,2,versionA_stim.csv,READVersionB.csv,"Read Version B","Dissertation, read only version B",LITTER,TRASH,Study2,F,103,166,Test,User,-,,Recall,Recall1,2758,trash,100,1327,2520,1,1,,1
5ed96d809d0c93500acfc536,ijmi5f4ei6,Nick_Dissertation_EX1,1,153,2020-07-08T15:03:37-07:00,5.8699901103973,2,versionA_stim.csv,READVersionB.csv,"Read Version B","Dissertation, read only version B",GLASS,BREAKABLE,Study2,B,127,141,Test,User,-,,Recall,Recall1,4495,case,30.769230769231,3569,4336,0,0,,1
5ed96d809d0c93500acfc536,ijmi5f4ei6,Nick_Dissertation_EX1,1,154,2020-07-08T15:03:40-07:00,3.1508989334106,2,versionA_stim.csv,READVersionB.csv,"Read Version B","Dissertation, read only version B",ROD,REEL,Study2,S,150,129,Test,User,-,,Recall,Recall1,2699,reel,100,1804,2317,1,1,,1
5ed96d809d0c93500acfc536,ijmi5f4ei6,Nick_Dissertation_EX1,1,155,2020-07-08T15:03:42-07:00,1.5289499759674,2,versionA_stim.csv,READVersionB.csv,"Read Version B","Dissertation, read only version B",BASEBALL,LEAGUE,Study2,B,131,125,Test,User,-,,Recall,Recall1,1077,,0,-1,-1,0,0,,1
5ed96d809d0c93500acfc536,ijmi5f4ei6,Nick_Dissertation_EX1,1,156,2020-07-08T15:03:44-07:00,2.0784721374512,2,versionA_stim.csv,READVersionB.csv,"Read Version B","Dissertation, read only version B",CAT,PANTHER,Study2,B,126,154,Test,User,-,,Recall,Recall1,1627,dog,0,1191,1483,0,0,,1
5ed96d809d0c93500acfc536,ijmi5f4ei6,Nick_Dissertation_EX1,1,157,2020-07-08T15:03:45-07:00,1.0243630409241,2,versionA_stim.csv,READVersionB.csv,"Read Version B","Dissertation, read only version B",CHOP,CUT,Study2,F,107,168,Test,User,-,,Recall,Recall1,693,,0,-1,-1,0,0,,1
5ed96d809d0c93500acfc536,ijmi5f4ei6,Nick_Dissertation_EX1,1,158,2020-07-08T15:03:47-07:00,1.6509408950806,2,versionA_stim.csv,READVersionB.csv,"Read Version B","Dissertation, read only version B",BEST,FAVORITE,Study2,B,125,109,Test,User,-,,Recall,Recall1,1059,,0,-1,-1,0,0,,1
5ed96d809d0c93500acfc536,ijmi5f4ei6,Nick_Dissertation_EX1,1,159,2020-07-08T15:03:48-07:00,1.1219871044159,2,versionA_stim.csv,READVersionB.csv,"Read Version B","Dissertation, read only version B",THREAD,THIMBLE,Study2,B,121,108,Test,User,-,,Recall,Recall1,783,,0,-1,-1,0,0,,1
5ed96d809d0c93500acfc536,ijmi5f4ei6,Nick_Dissertation_EX1,1,160,2020-07-08T15:03:51-07:00,3.523414850235,2,versionA_stim.csv,READVersionB.csv,"Read Version B","Dissertation, read only version B",LISTEN,FICTION,Study2,U,164,120,Test,User,-,,Recall,Recall1,2560,hear,0,1620,2216,0,0,,1
5ed96d809d0c93500acfc536,ijmi5f4ei6,Nick_Dissertation_EX1,1,161,2020-07-08T15:03:54-07:00,2.7862241268158,2,versionA_stim.csv,READVersionB.csv,"Read Version B","Dissertation, read only version B",EVEN,REVENGE,Study2,B,122,144,Test,User,-,,Recall,Recall1,1334,,0,-1,-1,0,0,,1
5ed96d809d0c93500acfc536,ijmi5f4ei6,Nick_Dissertation_EX1,1,162,2020-07-08T15:03:58-07:00,3.997053861618,2,versionA_stim.csv,READVersionB.csv,"Read Version B","Dissertation, read only version B",ALONE,LONELY,Study2,S,145,173,Test,User,-,,Recall,Recall1,3544,lonely,100,2490,3197,1,1,,1
5ed96d809d0c93500acfc536,ijmi5f4ei6,Nick_Dissertation_EX1,1,163,2020-07-08T15:04:01-07:00,3.0395770072937,2,versionA_stim.csv,READVersionB.csv,"Read Version B","Dissertation, read only version B",CAR,WINDSHIELD,Study2,B,117,175,Test,User,-,,Recall,Recall1,2598,drive,40,1406,2132,0,0,,1
5ed96d809d0c93500acfc536,ijmi5f4ei6,Nick_Dissertation_EX1,1,164,2020-07-08T15:04:04-07:00,3.420380115509,2,versionA_stim.csv,READVersionB.csv,"Read Version B","Dissertation, read only version B",EARTH,GROUND,Study2,S,144,107,Test,User,-,,Recall,Recall1,2953,planet,16.666666666667,1338,2640,0,0,,1
5ed96d809d0c93500acfc536,ijmi5f4ei6,Nick_Dissertation_EX1,1,165,2020-07-08T15:04:06-07:00,1.22261095047,2,versionA_stim.csv,READVersionB.csv,"Read Version B","Dissertation, read only version B",WRIST,BRACELET,Study2,S,140,122,Test,User,-,,Recall,Recall1,863,,0,-1,-1,0,0,,1
5ed96d809d0c93500acfc536,ijmi5f4ei6,Nick_Dissertation_EX1,1,166,2020-07-08T15:04:09-07:00,3.8526420593262,2,versionA_stim.csv,READVersionB.csv,"Read Version B","Dissertation, read only version B",SAFETY,SEATBELT,Study2,S,147,111,Test,User,-,,Recall,Recall1,2246,,0,-1,-1,0,0,,1
5ed96d809d0c93500acfc536,ijmi5f4ei6,Nick_Dissertation_EX1,1,167,2020-07-08T15:04:11-07:00,1.7810068130493,2,versionA_stim.csv,READVersionB.csv,"Read Version B","Dissertation, read only version B",WATER,DRINK,Study2,S,143,114,Test,User,-,,Recall,Recall1,1220,,0,-1,-1,0,0,,1
5ed96d809d0c93500acfc536,ijmi5f4ei6,Nick_Dissertation_EX1,1,168,2020-07-08T15:04:15-07:00,3.9613831043243,2,versionA_stim.csv,READVersionB.csv,"Read Version B","Dissertation, read only version B",CANDLE,WAX,Study2,S,139,167,Test,User,-,,Recall,Recall1,2484,,0,-1,-1,0,0,,1
5ed96d809d0c93500acfc536,ijmi5f4ei6,Nick_Dissertation_EX1,1,169,2020-07-08T15:04:16-07:00,0.99562907218933,2,versionA_stim.csv,READVersionB.csv,"Read Version B","Dissertation, read only version B",DOCUMENT,PAPER,Study2,F,109,139,Test,User,-,,Recall,Recall1,656,,0,-1,-1,0,0,,1
5ed96d809d0c93500acfc536,ijmi5f4ei6,Nick_Dissertation_EX1,1,170,2020-07-08T15:04:17-07:00,1.27214884758,2,versionA_stim.csv,READVersionB.csv,"Read Version B","Dissertation, read only version B",MULE,DONKEY,Study2,F,108,176,Test,User,-,,Recall,Recall1,927,,0,-1,-1,0,0,,1
5ed96d809d0c93500acfc536,ijmi5f4ei6,Nick_Dissertation_EX1,1,171,2020-07-08T15:04:21-07:00,3.3187410831451,2,versionA_stim.csv,READVersionB.csv,"Read Version B","Dissertation, read only version B",FLEA,TICK,Study2,S,151,133,Test,User,-,,Recall,Recall1,2867,tick,100,1573,2601,1,1,,1
5ed96d809d0c93500acfc536,ijmi5f4ei6,Nick_Dissertation_EX1,1,172,2020-07-08T15:04:22-07:00,1.7054769992828,2,versionA_stim.csv,READVersionB.csv,"Read Version B","Dissertation, read only version B",MONEY,BANKER,Study2,B,132,130,Test,User,-,,Recall,Recall1,1271,,0,-1,-1,0,0,,1
5ed96d809d0c93500acfc536,ijmi5f4ei6,Nick_Dissertation_EX1,1,173,2020-07-08T15:04:26-07:00,3.4142808914185,2,versionA_stim.csv,READVersionB.csv,"Read Version B","Dissertation, read only version B",HONEST,TRUTHFUL,Study2,B,133,136,Test,User,-,,Recall,Recall1,2971,truth,76.923076923077,1877,2273,0,1,,1
5ed96d809d0c93500acfc536,ijmi5f4ei6,Nick_Dissertation_EX1,1,174,2020-07-08T15:04:28-07:00,2.1374001502991,2,versionA_stim.csv,READVersionB.csv,"Read Version B","Dissertation, read only version B",TURN,FLIP,Study2,B,116,98,Test,User,-,,Recall,Recall1,1687,,0,-1,-1,0,0,,1
5ed96d809d0c93500acfc536,ijmi5f4ei6,Nick_Dissertation_EX1,1,175,2020-07-08T15:04:41-07:00,12.689038038254,2,versionA_stim.csv,READVersionB.csv,"Read Version B","Dissertation, read only version B",,,,,,0,Instruct,-,10,"You will now be presented with a new set of word pairs. Please study each pair. Remember that your memory will be tested! When finished, press Enter to move to the next pair.",Initial_Instruct,Instruct4,12240,,,-1,-1,,,,1
5ed96d809d0c93500acfc536,ijmi5f4ei6,Nick_Dissertation_EX1,1,176,2020-07-08T15:04:55-07:00,14.569664955139,2,versionA_stim.csv,READVersionB.csv,"Read Version B","Dissertation, read only version B",SCARE,HIDE,BUFFER1,Buffer,4,3,Study,User,-,,Study/JOL,BUFFER3,13533,,,-1,-1,,,,1
5ed96d809d0c93500acfc536,ijmi5f4ei6,Nick_Dissertation_EX1,1,177,2020-07-08T15:05:02-07:00,6.373645067215,2,versionA_stim.csv,READVersionB.csv,"Read Version B","Dissertation, read only version B",BASEBALL,CATCHER,BUFFER1,Buffer,2,6,Study,User,-,,Study/JOL,BUFFER3,5862,,,-1,-1,,,,1
5ed96d809d0c93500acfc536,ijmi5f4ei6,Nick_Dissertation_EX1,1,178,2020-07-08T15:05:08-07:00,5.981036901474,2,versionA_stim.csv,READVersionB.csv,"Read Version B","Dissertation, read only version B",SPACE,JAM,BUFFER1,Buffer,5,5,Study,User,-,,Study/JOL,BUFFER3,5523,,,-1,-1,,,,1
5ed96d809d0c93500acfc536,ijmi5f4ei6,Nick_Dissertation_EX1,1,179,2020-07-08T15:05:12-07:00,4.5274379253387,2,versionA_stim.csv,READVersionB.csv,"Read Version B","Dissertation, read only version B",TREES,GREEN,BUFFER1,Buffer,1,4,Study,User,-,,Study/JOL,BUFFER3,4075,,,-1,-1,,,,1
5ed96d809d0c93500acfc536,ijmi5f4ei6,Nick_Dissertation_EX1,1,180,2020-07-08T15:05:17-07:00,4.6516799926758,2,versionA_stim.csv,READVersionB.csv,"Read Version B","Dissertation, read only version B",PEANUT,BUTTER,BUFFER1,Buffer,3,2,Study,User,-,,Study/JOL,BUFFER3,4135,,,-1,-1,,,,1
5ed96d809d0c93500acfc536,ijmi5f4ei6,Nick_Dissertation_EX1,1,181,2020-07-08T15:05:19-07:00,2.4538960456848,2,versionA_stim.csv,READVersionB.csv,"Read Version B","Dissertation, read only version B",GREAT,FANTASTIC,Study1,B,35,25,Study,User,-,,Study/JOL,"Study Phase2",1505,,,-1,-1,,,,1
5ed96d809d0c93500acfc536,ijmi5f4ei6,Nick_Dissertation_EX1,1,182,2020-07-08T15:05:22-07:00,2.7268941402435,2,versionA_stim.csv,READVersionB.csv,"Read Version B","Dissertation, read only version B",BLOW,WIND,Study1,S,55,85,Study,User,-,,Study/JOL,"Study Phase2",2291,,,-1,-1,,,,1
5ed96d809d0c93500acfc536,ijmi5f4ei6,Nick_Dissertation_EX1,1,183,2020-07-08T15:05:25-07:00,2.5492949485779,2,versionA_stim.csv,READVersionB.csv,"Read Version B","Dissertation, read only version B",DEATH,BUSINESS,Study1,U,72,32,Study,User,-,,Study/JOL,"Study Phase2",2117,,,-1,-1,,,,1
5ed96d809d0c93500acfc536,ijmi5f4ei6,Nick_Dissertation_EX1,1,184,2020-07-08T15:05:28-07:00,3.0663478374481,2,versionA_stim.csv,READVersionB.csv,"Read Version B","Dissertation, read only version B",WINE,CHEESE,Study1,S,57,49,Study,User,-,,Study/JOL,"Study Phase2",2582,,,-1,-1,,,,1
5ed96d809d0c93500acfc536,ijmi5f4ei6,Nick_Dissertation_EX1,1,185,2020-07-08T15:05:31-07:00,3.6903312206268,2,versionA_stim.csv,READVersionB.csv,"Read Version B","Dissertation, read only version B",ART,LION,Study1,U,79,50,Study,User,-,,Study/JOL,"Study Phase2",2225,,,-1,-1,,,,1
5ed96d809d0c93500acfc536,ijmi5f4ei6,Nick_Dissertation_EX1,1,186,2020-07-08T15:05:35-07:00,3.7943458557129,2,versionA_stim.csv,READVersionB.csv,"Read Version B","Dissertation, read only version B",BABY,CHILD,Study1,S,64,74,Study,User,-,,Study/JOL,"Study Phase2",3349,,,-1,-1,,,,1
5ed96d809d0c93500acfc536,ijmi5f4ei6,Nick_Dissertation_EX1,1,187,2020-07-08T15:06:01-07:00,25.987154960632,2,versionA_stim.csv,READVersionB.csv,"Read Version B","Dissertation, read only version B",LOCATION,SITE,Study1,S,48,20,Study,User,-,,Study/JOL,"Study Phase2",25539,,,-1,-1,,,,1
5ed96d809d0c93500acfc536,ijmi5f4ei6,Nick_Dissertation_EX1,1,188,2020-07-08T15:06:25-07:00,23.699398040771,2,versionA_stim.csv,READVersionB.csv,"Read Version B","Dissertation, read only version B",DUMP,WASTE,Study1,S,49,21,Study,User,-,,Study/JOL,"Study Phase2",23260,,,-1,-1,,,,1
5ed96d809d0c93500acfc536,ijmi5f4ei6,Nick_Dissertation_EX1,1,189,2020-07-08T15:06:27-07:00,2.6636199951172,2,versionA_stim.csv,READVersionB.csv,"Read Version B","Dissertation, read only version B",CHISEL,HAMMER,Study1,F,9,68,Study,User,-,,Study/JOL,"Study Phase2",2230,,,-1,-1,,,,1
5ed96d809d0c93500acfc536,ijmi5f4ei6,Nick_Dissertation_EX1,1,190,2020-07-08T15:06:46-07:00,18.851391077042,2,versionA_stim.csv,READVersionB.csv,"Read Version B","Dissertation, read only version B",HEIGHT,GROWTH,Study1,B,30,47,Study,User,-,,Study/JOL,"Study Phase2",18414,,,-1,-1,,,,1
5ed96d809d0c93500acfc536,ijmi5f4ei6,Nick_Dissertation_EX1,1,191,2020-07-08T15:06:50-07:00,3.8391518592834,2,versionA_stim.csv,READVersionB.csv,"Read Version B","Dissertation, read only version B",HUNGER,FAMINE,Study1,B,40,84,Study,User,-,,Study/JOL,"Study Phase2",2816,,,-1,-1,,,,1
5ed96d809d0c93500acfc536,ijmi5f4ei6,Nick_Dissertation_EX1,1,192,2020-07-08T15:06:52-07:00,2.2150161266327,2,versionA_stim.csv,READVersionB.csv,"Read Version B","Dissertation, read only version B",DISCUSSION,TALK,Study1,F,21,54,Study,User,-,,Study/JOL,"Study Phase2",1771,,,-1,-1,,,,1
5ed96d809d0c93500acfc536,ijmi5f4ei6,Nick_Dissertation_EX1,1,193,2020-07-08T15:06:54-07:00,2.0619678497314,2,versionA_stim.csv,READVersionB.csv,"Read Version B","Dissertation, read only version B",TUNA,FISH,Study1,F,25,82,Study,User,-,,Study/JOL,"Study Phase2",1208,,,-1,-1,,,,1
5ed96d809d0c93500acfc536,ijmi5f4ei6,Nick_Dissertation_EX1,1,194,2020-07-08T15:06:59-07:00,4.2888660430908,2,versionA_stim.csv,READVersionB.csv,"Read Version B","Dissertation, read only version B",BUG,WASP,Study1,B,32,51,Study,User,-,,Study/JOL,"Study Phase2",3849,,,-1,-1,,,,1
5ed96d809d0c93500acfc536,ijmi5f4ei6,Nick_Dissertation_EX1,1,195,2020-07-08T15:07:01-07:00,2.1220209598541,2,versionA_stim.csv,READVersionB.csv,"Read Version B","Dissertation, read only version B",NUMBER,AMOUNT,Study1,S,47,64,Study,User,-,,Study/JOL,"Study Phase2",1689,,,-1,-1,,,,1
5ed96d809d0c93500acfc536,ijmi5f4ei6,Nick_Dissertation_EX1,1,196,2020-07-08T15:07:03-07:00,1.8154981136322,2,versionA_stim.csv,READVersionB.csv,"Read Version B","Dissertation, read only version B",HONEY,BEE,Study1,S,63,66,Study,User,-,,Study/JOL,"Study Phase2",1380,,,-1,-1,,,,1
5ed96d809d0c93500acfc536,ijmi5f4ei6,Nick_Dissertation_EX1,1,197,2020-07-08T15:07:05-07:00,1.8431830406189,2,versionA_stim.csv,READVersionB.csv,"Read Version B","Dissertation, read only version B",SHOE,FOOT,Study1,S,60,36,Study,User,-,,Study/JOL,"Study Phase2",1406,,,-1,-1,,,,1
5ed96d809d0c93500acfc536,ijmi5f4ei6,Nick_Dissertation_EX1,1,198,2020-07-08T15:07:07-07:00,2.7623929977417,2,versionA_stim.csv,READVersionB.csv,"Read Version B","Dissertation, read only version B",HYGIENE,CLEAN,Study1,F,17,53,Study,User,-,,Study/JOL,"Study Phase2",1301,,,-1,-1,,,,1
5ed96d809d0c93500acfc536,ijmi5f4ei6,Nick_Dissertation_EX1,1,199,2020-07-08T15:07:10-07:00,2.6240799427032,2,versionA_stim.csv,READVersionB.csv,"Read Version B","Dissertation, read only version B",PUSHER,CLUTTER,Study1,U,66,33,Study,User,-,,Study/JOL,"Study Phase2",2118,,,-1,-1,,,,1
5ed96d809d0c93500acfc536,ijmi5f4ei6,Nick_Dissertation_EX1,1,200,2020-07-08T15:07:12-07:00,2.4524049758911,2,versionA_stim.csv,READVersionB.csv,"Read Version B","Dissertation, read only version B",PAST,FUTURE,Study1,S,61,27,Study,User,-,,Study/JOL,"Study Phase2",1437,,,-1,-1,,,,1
5ed96d809d0c93500acfc536,ijmi5f4ei6,Nick_Dissertation_EX1,1,201,2020-07-08T15:07:15-07:00,2.2611629962921,2,versionA_stim.csv,READVersionB.csv,"Read Version B","Dissertation, read only version B",DIGESTION,STOMACH,Study1,F,7,48,Study,User,-,,Study/JOL,"Study Phase2",1804,,,-1,-1,,,,1
5ed96d809d0c93500acfc536,ijmi5f4ei6,Nick_Dissertation_EX1,1,202,2020-07-08T15:07:16-07:00,1.7778580188751,2,versionA_stim.csv,READVersionB.csv,"Read Version B","Dissertation, read only version B",KING,VASE,Study1,U,85,55,Study,User,-,,Study/JOL,"Study Phase2",1328,,,-1,-1,,,,1
5ed96d809d0c93500acfc536,ijmi5f4ei6,Nick_Dissertation_EX1,1,203,2020-07-08T15:07:19-07:00,2.2048869132996,2,versionA_stim.csv,READVersionB.csv,"Read Version B","Dissertation, read only version B",WAGE,MONEY,Study1,F,8,30,Study,User,-,,Study/JOL,"Study Phase2",1751,,,-1,-1,,,,1
5ed96d809d0c93500acfc536,ijmi5f4ei6,Nick_Dissertation_EX1,1,204,2020-07-08T15:07:21-07:00,2.0807621479034,2,versionA_stim.csv,READVersionB.csv,"Read Version B","Dissertation, read only version B",DELINQUENT,BAD,Study1,F,6,28,Study,User,-,,Study/JOL,"Study Phase2",1638,,,-1,-1,,,,1
5ed96d809d0c93500acfc536,ijmi5f4ei6,Nick_Dissertation_EX1,1,205,2020-07-08T15:07:23-07:00,2.7002110481262,2,versionA_stim.csv,READVersionB.csv,"Read Version B","Dissertation, read only version B",SMELL,STENCH,Study1,B,42,35,Study,User,-,,Study/JOL,"Study Phase2",2259,,,-1,-1,,,,1
5ed96d809d0c93500acfc536,ijmi5f4ei6,Nick_Dissertation_EX1,1,206,2020-07-08T15:07:26-07:00,2.4690229892731,2,versionA_stim.csv,READVersionB.csv,"Read Version B","Dissertation, read only version B",LETTUCE,SALAD,Study1,S,59,22,Study,User,-,,Study/JOL,"Study Phase2",1888,,,-1,-1,,,,1
5ed96d809d0c93500acfc536,ijmi5f4ei6,Nick_Dissertation_EX1,1,207,2020-07-08T15:07:28-07:00,1.9810309410095,2,versionA_stim.csv,READVersionB.csv,"Read Version B","Dissertation, read only version B",SLEEP,DROWSY,Study1,B,41,75,Study,User,-,,Study/JOL,"Study Phase2",1517,,,-1,-1,,,,1
5ed96d809d0c93500acfc536,ijmi5f4ei6,Nick_Dissertation_EX1,1,208,2020-07-08T15:07:29-07:00,1.5846509933472,2,versionA_stim.csv,READVersionB.csv,"Read Version B","Dissertation, read only version B",SWAN,BIRD,Study1,F,14,70,Study,User,-,,Study/JOL,"Study Phase2",1144,,,-1,-1,,,,1
5ed96d809d0c93500acfc536,ijmi5f4ei6,Nick_Dissertation_EX1,1,209,2020-07-08T15:07:33-07:00,3.2472240924835,2,versionA_stim.csv,READVersionB.csv,"Read Version B","Dissertation, read only version B",CASH,WOULD,Study1,U,83,10,Study,User,-,,Study/JOL,"Study Phase2",1802,,,-1,-1,,,,1
5ed96d809d0c93500acfc536,ijmi5f4ei6,Nick_Dissertation_EX1,1,210,2020-07-08T15:07:34-07:00,1.6972889900208,2,versionA_stim.csv,READVersionB.csv,"Read Version B","Dissertation, read only version B",BALL,RACKET,Study1,B,38,79,Study,User,-,,Study/JOL,"Study Phase2",1254,,,-1,-1,,,,1
5ed96d809d0c93500acfc536,ijmi5f4ei6,Nick_Dissertation_EX1,1,211,2020-07-08T15:07:36-07:00,1.9150898456573,2,versionA_stim.csv,READVersionB.csv,"Read Version B","Dissertation, read only version B",GEOLOGY,ROCK,Study1,F,19,39,Study,User,-,,Study/JOL,"Study Phase2",1475,,,-1,-1,,,,1
5ed96d809d0c93500acfc536,ijmi5f4ei6,Nick_Dissertation_EX1,1,212,2020-07-08T15:07:39-07:00,2.4742450714111,2,versionA_stim.csv,READVersionB.csv,"Read Version B","Dissertation, read only version B",DEBATE,SIGHT,Study1,U,73,42,Study,User,-,,Study/JOL,"Study Phase2",2006,,,-1,-1,,,,1
5ed96d809d0c93500acfc536,ijmi5f4ei6,Nick_Dissertation_EX1,1,213,2020-07-08T15:07:40-07:00,1.7391769886017,2,versionA_stim.csv,READVersionB.csv,"Read Version B","Dissertation, read only version B",BEGIN,END,Study1,S,54,76,Study,User,-,,Study/JOL,"Study Phase2",1289,,,-1,-1,,,,1
5ed96d809d0c93500acfc536,ijmi5f4ei6,Nick_Dissertation_EX1,1,214,2020-07-08T15:07:42-07:00,1.7538669109344,2,versionA_stim.csv,READVersionB.csv,"Read Version B","Dissertation, read only version B",BATHROOM,TOILET,Study1,S,58,38,Study,User,-,,Study/JOL,"Study Phase2",1308,,,-1,-1,,,,1
5ed96d809d0c93500acfc536,ijmi5f4ei6,Nick_Dissertation_EX1,1,215,2020-07-08T15:07:44-07:00,2.1943161487579,2,versionA_stim.csv,READVersionB.csv,"Read Version B","Dissertation, read only version B",STRONG,ACCIDENT,Study1,U,80,46,Study,User,-,,Study/JOL,"Study Phase2",1751,,,-1,-1,,,,1
5ed96d809d0c93500acfc536,ijmi5f4ei6,Nick_Dissertation_EX1,1,216,2020-07-08T15:07:46-07:00,1.6558508872986,2,versionA_stim.csv,READVersionB.csv,"Read Version B","Dissertation, read only version B",MATH,DIVISION,Study1,B,33,81,Study,User,-,,Study/JOL,"Study Phase2",1208,,,-1,-1,,,,1
5ed96d809d0c93500acfc536,ijmi5f4ei6,Nick_Dissertation_EX1,1,217,2020-07-08T15:07:48-07:00,1.7221300601959,2,versionA_stim.csv,READVersionB.csv,"Read Version B","Dissertation, read only version B",LIFT,WOMAN,Study1,U,69,19,Study,User,-,,Study/JOL,"Study Phase2",962,,,-1,-1,,,,1
5ed96d809d0c93500acfc536,ijmi5f4ei6,Nick_Dissertation_EX1,1,218,2020-07-08T15:07:51-07:00,3.0000510215759,2,versionA_stim.csv,READVersionB.csv,"Read Version B","Dissertation, read only version B",ORCHID,FLOWER,Study1,F,24,69,Study,User,-,,Study/JOL,"Study Phase2",1933,,,-1,-1,,,,1
5ed96d809d0c93500acfc536,ijmi5f4ei6,Nick_Dissertation_EX1,1,219,2020-07-08T15:07:52-07:00,1.6753990650177,2,versionA_stim.csv,READVersionB.csv,"Read Version B","Dissertation, read only version B",PAW,DOG,Study1,F,15,40,Study,User,-,,Study/JOL,"Study Phase2",1230,,,-1,-1,,,,1
5ed96d809d0c93500acfc536,ijmi5f4ei6,Nick_Dissertation_EX1,1,220,2020-07-08T15:07:54-07:00,1.549430847168,2,versionA_stim.csv,READVersionB.csv,"Read Version B","Dissertation, read only version B",POP,SODA,Study1,S,56,37,Study,User,-,,Study/JOL,"Study Phase2",1101,,,-1,-1,,,,1
5ed96d809d0c93500acfc536,ijmi5f4ei6,Nick_Dissertation_EX1,1,221,2020-07-08T15:07:56-07:00,1.8975691795349,2,versionA_stim.csv,READVersionB.csv,"Read Version B","Dissertation, read only version B",WAY,OUT,Study1,F,16,65,Study,User,-,,Study/JOL,"Study Phase2",1452,,,-1,-1,,,,1
5ed96d809d0c93500acfc536,ijmi5f4ei6,Nick_Dissertation_EX1,1,222,2020-07-08T15:07:57-07:00,1.1320798397064,2,versionA_stim.csv,READVersionB.csv,"Read Version B","Dissertation, read only version B",HOT,CHILI,Study1,B,37,9,Study,User,-,,Study/JOL,"Study Phase2",784,,,-1,-1,,,,1
5ed96d809d0c93500acfc536,ijmi5f4ei6,Nick_Dissertation_EX1,1,223,2020-07-08T15:07:59-07:00,1.6429929733276,2,versionA_stim.csv,READVersionB.csv,"Read Version B","Dissertation, read only version B",GRILL,BAR,Study1,S,52,8,Study,User,-,,Study/JOL,"Study Phase2",1180,,,-1,-1,,,,1
5ed96d809d0c93500acfc536,ijmi5f4ei6,Nick_Dissertation_EX1,1,224,2020-07-08T15:08:00-07:00,1.249076128006,2,versionA_stim.csv,READVersionB.csv,"Read Version B","Dissertation, read only version B",DRINK,SIP,Study1,B,27,60,Study,User,-,,Study/JOL,"Study Phase2",912,,,-1,-1,,,,1
5ed96d809d0c93500acfc536,ijmi5f4ei6,Nick_Dissertation_EX1,1,225,2020-07-08T15:08:01-07:00,1.4752509593964,2,versionA_stim.csv,READVersionB.csv,"Read Version B","Dissertation, read only version B",DARK,CAVE,Study1,B,28,14,Study,User,-,,Study/JOL,"Study Phase2",1025,,,-1,-1,,,,1
5ed96d809d0c93500acfc536,ijmi5f4ei6,Nick_Dissertation_EX1,1,226,2020-07-08T15:08:03-07:00,1.7649018764496,2,versionA_stim.csv,READVersionB.csv,"Read Version B","Dissertation, read only version B",VALLEY,ADD,Study1,U,82,31,Study,User,-,,Study/JOL,"Study Phase2",1323,,,-1,-1,,,,1
5ed96d809d0c93500acfc536,ijmi5f4ei6,Nick_Dissertation_EX1,1,227,2020-07-08T15:08:05-07:00,1.7163100242615,2,versionA_stim.csv,READVersionB.csv,"Read Version B","Dissertation, read only version B",TAKE,SEIZE,Study1,B,29,72,Study,User,-,,Study/JOL,"Study Phase2",1271,,,-1,-1,,,,1
5ed96d809d0c93500acfc536,ijmi5f4ei6,Nick_Dissertation_EX1,1,228,2020-07-08T15:08:08-07:00,2.9182691574097,2,versionA_stim.csv,READVersionB.csv,"Read Version B","Dissertation, read only version B",DISCOVER,FLOOR,Study1,U,71,16,Study,User,-,,Study/JOL,"Study Phase2",1428,,,-1,-1,,,,1
5ed96d809d0c93500acfc536,ijmi5f4ei6,Nick_Dissertation_EX1,1,229,2020-07-08T15:08:10-07:00,2.1089479923248,2,versionA_stim.csv,READVersionB.csv,"Read Version B","Dissertation, read only version B",ROOT,PLANT,Study1,F,13,11,Study,User,-,,Study/JOL,"Study Phase2",1667,,,-1,-1,,,,1
5ed96d809d0c93500acfc536,ijmi5f4ei6,Nick_Dissertation_EX1,1,230,2020-07-08T15:08:29-07:00,19.304004907608,2,versionA_stim.csv,READVersionB.csv,"Read Version B","Dissertation, read only version B",FIX,HAND,Study1,U,75,23,Study,User,-,,Study/JOL,"Study Phase2",1584,,,-1,-1,,,,1
5ed96d809d0c93500acfc536,ijmi5f4ei6,Nick_Dissertation_EX1,1,231,2020-07-08T15:08:31-07:00,1.50137591362,2,versionA_stim.csv,READVersionB.csv,"Read Version B","Dissertation, read only version B",CREDIT,CARD,Study1,F,23,77,Study,User,-,,Study/JOL,"Study Phase2",1038,,,-1,-1,,,,1
5ed96d809d0c93500acfc536,ijmi5f4ei6,Nick_Dissertation_EX1,1,232,2020-07-08T15:08:32-07:00,1.6928360462189,2,versionA_stim.csv,READVersionB.csv,"Read Version B","Dissertation, read only version B",BRIDGE,WATER,Study1,F,18,17,Study,User,-,,Study/JOL,"Study Phase2",1018,,,-1,-1,,,,1
5ed96d809d0c93500acfc536,ijmi5f4ei6,Nick_Dissertation_EX1,1,233,2020-07-08T15:08:34-07:00,1.9741070270538,2,versionA_stim.csv,READVersionB.csv,"Read Version B","Dissertation, read only version B",PARK,HUNGRY,Study1,U,68,12,Study,User,-,,Study/JOL,"Study Phase2",1271,,,-1,-1,,,,1
5ed96d809d0c93500acfc536,ijmi5f4ei6,Nick_Dissertation_EX1,1,234,2020-07-08T15:08:38-07:00,3.4305720329285,2,versionA_stim.csv,READVersionB.csv,"Read Version B","Dissertation, read only version B",MACHINE,POSITION,Study1,U,76,26,Study,User,-,,Study/JOL,"Study Phase2",2917,,,-1,-1,,,,1
5ed96d809d0c93500acfc536,ijmi5f4ei6,Nick_Dissertation_EX1,1,235,2020-07-08T15:08:39-07:00,1.5776789188385,2,versionA_stim.csv,READVersionB.csv,"Read Version B","Dissertation, read only version B",DIETARY,SACKING,Study1,U,67,63,Study,User,-,,Study/JOL,"Study Phase2",1142,,,-1,-1,,,,1
5ed96d809d0c93500acfc536,ijmi5f4ei6,Nick_Dissertation_EX1,1,236,2020-07-08T15:08:41-07:00,1.6913650035858,2,versionA_stim.csv,READVersionB.csv,"Read Version B","Dissertation, read only version B",HIDE,SICK,Study1,U,84,59,Study,User,-,,Study/JOL,"Study Phase2",1174,,,-1,-1,,,,1
5ed96d809d0c93500acfc536,ijmi5f4ei6,Nick_Dissertation_EX1,1,237,2020-07-08T15:08:43-07:00,1.6680240631104,2,versionA_stim.csv,READVersionB.csv,"Read Version B","Dissertation, read only version B",REVOLUTION,WAR,Study1,F,20,34,Study,User,-,,Study/JOL,"Study Phase2",1078,,,-1,-1,,,,1
5ed96d809d0c93500acfc536,ijmi5f4ei6,Nick_Dissertation_EX1,1,238,2020-07-08T15:08:44-07:00,1.5277240276337,2,versionA_stim.csv,READVersionB.csv,"Read Version B","Dissertation, read only version B",ALLOW,TUCK,Study1,U,78,18,Study,User,-,,Study/JOL,"Study Phase2",963,,,-1,-1,,,,1
5ed96d809d0c93500acfc536,ijmi5f4ei6,Nick_Dissertation_EX1,1,239,2020-07-08T15:08:46-07:00,1.8058869838715,2,versionA_stim.csv,READVersionB.csv,"Read Version B","Dissertation, read only version B",SENTENCE,WORD,Study1,B,31,24,Study,User,-,,Study/JOL,"Study Phase2",1146,,,-1,-1,,,,1
5ed96d809d0c93500acfc536,ijmi5f4ei6,Nick_Dissertation_EX1,1,240,2020-07-08T15:08:48-07:00,1.8184170722961,2,versionA_stim.csv,READVersionB.csv,"Read Version B","Dissertation, read only version B",PLANE,PILOT,Study1,B,44,73,Study,User,-,,Study/JOL,"Study Phase2",1240,,,-1,-1,,,,1
5ed96d809d0c93500acfc536,ijmi5f4ei6,Nick_Dissertation_EX1,1,241,2020-07-08T15:08:50-07:00,2.1116778850555,2,versionA_stim.csv,READVersionB.csv,"Read Version B","Dissertation, read only version B",CLOTHES,ATTIRE,Study1,B,43,29,Study,User,-,,Study/JOL,"Study Phase2",1086,,,-1,-1,,,,1
5ed96d809d0c93500acfc536,ijmi5f4ei6,Nick_Dissertation_EX1,1,242,2020-07-08T15:08:52-07:00,1.4940249919891,2,versionA_stim.csv,READVersionB.csv,"Read Version B","Dissertation, read only version B",BITTER,COLD,Study1,F,12,67,Study,User,-,,Study/JOL,"Study Phase2",1051,,,-1,-1,,,,1
5ed96d809d0c93500acfc536,ijmi5f4ei6,Nick_Dissertation_EX1,1,243,2020-07-08T15:08:53-07:00,1.2338161468506,2,versionA_stim.csv,READVersionB.csv,"Read Version B","Dissertation, read only version B",WORK,CHORE,Study1,B,39,13,Study,User,-,,Study/JOL,"Study Phase2",901,,,-1,-1,,,,1
5ed96d809d0c93500acfc536,ijmi5f4ei6,Nick_Dissertation_EX1,1,244,2020-07-08T15:08:55-07:00,2.0207378864288,2,versionA_stim.csv,READVersionB.csv,"Read Version B","Dissertation, read only version B",KEY,LATCH,Study1,B,36,62,Study,User,-,,Study/JOL,"Study Phase2",1574,,,-1,-1,,,,1
5ed96d809d0c93500acfc536,ijmi5f4ei6,Nick_Dissertation_EX1,1,245,2020-07-08T15:08:56-07:00,1.6490111351013,2,versionA_stim.csv,READVersionB.csv,"Read Version B","Dissertation, read only version B",EDITOR,NEWS,Study1,F,10,44,Study,User,-,,Study/JOL,"Study Phase2",1209,,,-1,-1,,,,1
5ed96d809d0c93500acfc536,ijmi5f4ei6,Nick_Dissertation_EX1,1,246,2020-07-08T15:08:58-07:00,1.5127599239349,2,versionA_stim.csv,READVersionB.csv,"Read Version B","Dissertation, read only version B",FIRE,BLAZE,Study1,B,45,52,Study,User,-,,Study/JOL,"Study Phase2",1069,,,-1,-1,,,,1
5ed96d809d0c93500acfc536,ijmi5f4ei6,Nick_Dissertation_EX1,1,247,2020-07-08T15:09:00-07:00,1.8025710582733,2,versionA_stim.csv,READVersionB.csv,"Read Version B","Dissertation, read only version B",HORNET,STING,Study1,F,11,15,Study,User,-,,Study/JOL,"Study Phase2",1361,,,-1,-1,,,,1
5ed96d809d0c93500acfc536,ijmi5f4ei6,Nick_Dissertation_EX1,1,248,2020-07-08T15:09:01-07:00,1.6139109134674,2,versionA_stim.csv,READVersionB.csv,"Read Version B","Dissertation, read only version B",LAW,ATTORNEY,Study1,B,34,45,Study,User,-,,Study/JOL,"Study Phase2",1162,,,-1,-1,,,,1
5ed96d809d0c93500acfc536,ijmi5f4ei6,Nick_Dissertation_EX1,1,249,2020-07-08T15:09:04-07:00,2.3634119033813,2,versionA_stim.csv,READVersionB.csv,"Read Version B","Dissertation, read only version B",ARTERY,BRONZE,Study1,U,74,57,Study,User,-,,Study/JOL,"Study Phase2",1867,,,-1,-1,,,,1
5ed96d809d0c93500acfc536,ijmi5f4ei6,Nick_Dissertation_EX1,1,250,2020-07-08T15:09:05-07:00,1.7423651218414,2,versionA_stim.csv,READVersionB.csv,"Read Version B","Dissertation, read only version B",SOON,BELT,Study1,U,70,61,Study,User,-,,Study/JOL,"Study Phase2",1296,,,-1,-1,,,,1
5ed96d809d0c93500acfc536,ijmi5f4ei6,Nick_Dissertation_EX1,1,251,2020-07-08T15:09:07-07:00,1.5369899272919,2,versionA_stim.csv,READVersionB.csv,"Read Version B","Dissertation, read only version B",SUGAR,RIDDLE,Study1,U,81,58,Study,User,-,,Study/JOL,"Study Phase2",1096,,,-1,-1,,,,1
5ed96d809d0c93500acfc536,ijmi5f4ei6,Nick_Dissertation_EX1,1,252,2020-07-08T15:09:09-07:00,2.2842800617218,2,versionA_stim.csv,READVersionB.csv,"Read Version B","Dissertation, read only version B",MEANING,DEFINITION,Study1,S,62,86,Study,User,-,,Study/JOL,"Study Phase2",1838,,,-1,-1,,,,1
5ed96d809d0c93500acfc536,ijmi5f4ei6,Nick_Dissertation_EX1,1,253,2020-07-08T15:09:12-07:00,3.1192269325256,2,versionA_stim.csv,READVersionB.csv,"Read Version B","Dissertation, read only version B",KIDNEY,LIVER,Study1,S,53,71,Study,User,-,,Study/JOL,"Study Phase2",2678,,,-1,-1,,,,1
5ed96d809d0c93500acfc536,ijmi5f4ei6,Nick_Dissertation_EX1,1,254,2020-07-08T15:09:14-07:00,1.2352011203766,2,versionA_stim.csv,READVersionB.csv,"Read Version B","Dissertation, read only version B",FULL,ENOUGH,Study1,B,26,43,Study,User,-,,Study/JOL,"Study Phase2",907,,,-1,-1,,,,1
5ed96d809d0c93500acfc536,ijmi5f4ei6,Nick_Dissertation_EX1,1,255,2020-07-08T15:09:15-07:00,1.6491858959198,2,versionA_stim.csv,READVersionB.csv,"Read Version B","Dissertation, read only version B",CIRCLE,ROUND,Study1,S,65,83,Study,User,-,,Study/JOL,"Study Phase2",1199,,,-1,-1,,,,1
5ed96d809d0c93500acfc536,ijmi5f4ei6,Nick_Dissertation_EX1,1,256,2020-07-08T15:09:17-07:00,1.9209270477295,2,versionA_stim.csv,READVersionB.csv,"Read Version B","Dissertation, read only version B",TRIAL,JURY,Study1,S,50,80,Study,User,-,,Study/JOL,"Study Phase2",1478,,,-1,-1,,,,1
5ed96d809d0c93500acfc536,ijmi5f4ei6,Nick_Dissertation_EX1,1,257,2020-07-08T15:09:19-07:00,1.9171879291534,2,versionA_stim.csv,READVersionB.csv,"Read Version B","Dissertation, read only version B",HERD,COW,Study1,F,22,41,Study,User,-,,Study/JOL,"Study Phase2",1040,,,-1,-1,,,,1
5ed96d809d0c93500acfc536,ijmi5f4ei6,Nick_Dissertation_EX1,1,258,2020-07-08T15:09:21-07:00,1.416540145874,2,versionA_stim.csv,READVersionB.csv,"Read Version B","Dissertation, read only version B",DUE,ASSIGNMENT,Study1,S,46,56,Study,User,-,,Study/JOL,"Study Phase2",940,,,-1,-1,,,,1
5ed96d809d0c93500acfc536,ijmi5f4ei6,Nick_Dissertation_EX1,1,259,2020-07-08T15:09:23-07:00,1.9749488830566,2,versionA_stim.csv,READVersionB.csv,"Read Version B","Dissertation, read only version B",ARCHITECTURE,DESIGN,Study1,S,51,7,Study,User,-,,Study/JOL,"Study Phase2",1531,,,-1,-1,,,,1
5ed96d809d0c93500acfc536,ijmi5f4ei6,Nick_Dissertation_EX1,1,260,2020-07-08T15:09:24-07:00,1.3110189437866,2,versionA_stim.csv,READVersionB.csv,"Read Version B","Dissertation, read only version B",HAPPY,CAR,Study1,U,77,78,Study,User,-,,Study/JOL,"Study Phase2",971,,,-1,-1,,,,1
5ed96d809d0c93500acfc536,ijmi5f4ei6,Nick_Dissertation_EX1,1,261,2020-07-08T15:09:25-07:00,1.2437100410461,2,versionA_stim.csv,READVersionB.csv,"Read Version B","Dissertation, read only version B",MALT,CHOCOLATE,BUFFER2,Buffer,88,90,Study,User,-,,Study/JOL,BUFFER4,899,,,-1,-1,,,,1
5ed96d809d0c93500acfc536,ijmi5f4ei6,Nick_Dissertation_EX1,1,262,2020-07-08T15:09:26-07:00,1.1781871318817,2,versionA_stim.csv,READVersionB.csv,"Read Version B","Dissertation, read only version B",SHERRIF,POLICE,BUFFER2,Buffer,87,87,Study,User,-,,Study/JOL,BUFFER4,837,,,-1,-1,,,,1
5ed96d809d0c93500acfc536,ijmi5f4ei6,Nick_Dissertation_EX1,1,263,2020-07-08T15:09:27-07:00,1.1377928256989,2,versionA_stim.csv,READVersionB.csv,"Read Version B","Dissertation, read only version B",MOON,SPACE,BUFFER2,Buffer,89,91,Study,User,-,,Study/JOL,BUFFER4,786,,,-1,-1,,,,1
5ed96d809d0c93500acfc536,ijmi5f4ei6,Nick_Dissertation_EX1,1,264,2020-07-08T15:09:29-07:00,1.2479209899902,2,versionA_stim.csv,READVersionB.csv,"Read Version B","Dissertation, read only version B",THING,STUFF,BUFFER2,Buffer,90,89,Study,User,-,,Study/JOL,BUFFER4,907,,,-1,-1,,,,1
5ed96d809d0c93500acfc536,ijmi5f4ei6,Nick_Dissertation_EX1,1,265,2020-07-08T15:09:29-07:00,0.82309508323669,2,versionA_stim.csv,READVersionB.csv,"Read Version B","Dissertation, read only version B",GEESE,GOOSE,BUFFER2,Buffer,86,88,Study,User,-,,Study/JOL,BUFFER4,486,,,-1,-1,,,,1
5ed96d809d0c93500acfc536,ijmi5f4ei6,Nick_Dissertation_EX1,1,266,2020-07-08T15:09:32-07:00,2.9431099891663,2,versionA_stim.csv,READVersionB.csv,"Read Version B","Dissertation, read only version B",,,,,,0,Instruct,User,-,"You have completed this section. Please press Enter.",Filler_Instruction,Instruct5,2500,,,-1,-1,,,,1
5ed96d809d0c93500acfc536,ijmi5f4ei6,Nick_Dissertation_EX1,1,267,2020-07-08T15:11:33-07:00,120.45901203156,2,versionA_stim.csv,READVersionB.csv,"Read Version B","Dissertation, read only version B",,,,,,0,FreeRecall,120,120,"Please list the 50 US states in reverse alphabetical order (z - a). The task will automatically advance to the next screen after two minutes.",,Filler2,120003,"Vermont Utah Wyoming Wisconsin Washington Nevada New York New Jersey New Mexico New Hampshire Nebraska Louisianna Texas Tennesse Michigan Minessota Maine Masschuetts Arizona Alabama",0,8005,116665,0,0,,1
5ed96d809d0c93500acfc536,ijmi5f4ei6,Nick_Dissertation_EX1,1,268,2020-07-08T15:11:45-07:00,12.278727054596,2,versionA_stim.csv,READVersionB.csv,"Read Version B","Dissertation, read only version B",,,,,,0,Instruct,-,10,"You will now be presented with the first word from each of the previously studied item pairs. Please type the missing word. If you do not know the word, you may guess or press Enter to skip forward to the next pair.",,Instruct6,11207,,,-1,-1,,,,1
5ed96d809d0c93500acfc536,ijmi5f4ei6,Nick_Dissertation_EX1,1,269,2020-07-08T15:11:50-07:00,4.5829038619995,2,versionA_stim.csv,READVersionB.csv,"Read Version B","Dissertation, read only version B",GEOLOGY,ROCK,Study1,F,19,39,Test,User,-,,Recall,Recall2,2704,rock,100,1768,2448,1,1,,1
5ed96d809d0c93500acfc536,ijmi5f4ei6,Nick_Dissertation_EX1,1,270,2020-07-08T15:11:54-07:00,4.5169999599457,2,versionA_stim.csv,READVersionB.csv,"Read Version B","Dissertation, read only version B",BITTER,COLD,Study1,F,12,67,Test,User,-,,Recall,Recall2,3921,,0,-1,-1,0,0,,1
5ed96d809d0c93500acfc536,ijmi5f4ei6,Nick_Dissertation_EX1,1,271,2020-07-08T15:11:59-07:00,4.7184481620789,2,versionA_stim.csv,READVersionB.csv,"Read Version B","Dissertation, read only version B",CLOTHES,ATTIRE,Study1,B,43,29,Test,User,-,,Recall,Recall2,4062,rack,20,3038,3553,0,0,,1
5ed96d809d0c93500acfc536,ijmi5f4ei6,Nick_Dissertation_EX1,1,272,2020-07-08T15:12:03-07:00,3.9929909706116,2,versionA_stim.csv,READVersionB.csv,"Read Version B","Dissertation, read only version B",DEATH,BUSINESS,Study1,U,72,32,Test,User,-,,Recall,Recall2,2849,coffin,28.571428571429,1564,2284,0,0,,1
5ed96d809d0c93500acfc536,ijmi5f4ei6,Nick_Dissertation_EX1,1,273,2020-07-08T15:12:09-07:00,6.0733668804169,2,versionA_stim.csv,READVersionB.csv,"Read Version B","Dissertation, read only version B",BATHROOM,TOILET,Study1,S,58,38,Test,User,-,,Recall,Recall2,5314,toilet,100,3537,5260,1,1,,1
5ed96d809d0c93500acfc536,ijmi5f4ei6,Nick_Dissertation_EX1,1,274,2020-07-08T15:12:13-07:00,4.3569991588593,2,versionA_stim.csv,READVersionB.csv,"Read Version B","Dissertation, read only version B",MEANING,DEFINITION,Study1,S,62,86,Test,User,-,,Recall,Recall2,3159,definition,100,1099,2956,1,1,,1
5ed96d809d0c93500acfc536,ijmi5f4ei6,Nick_Dissertation_EX1,1,275,2020-07-08T15:12:17-07:00,3.8498158454895,2,versionA_stim.csv,READVersionB.csv,"Read Version B","Dissertation, read only version B",PAW,DOG,Study1,F,15,40,Test,User,-,,Recall,Recall2,1805,dog,100,1415,1649,1,1,,1
5ed96d809d0c93500acfc536,ijmi5f4ei6,Nick_Dissertation_EX1,1,276,2020-07-08T15:12:21-07:00,3.3264701366425,2,versionA_stim.csv,READVersionB.csv,"Read Version B","Dissertation, read only version B",MATH,DIVISION,Study1,B,33,81,Test,User,-,,Recall,Recall2,2856,divison,93.333333333333,1723,2582,0,1,,1
5ed96d809d0c93500acfc536,ijmi5f4ei6,Nick_Dissertation_EX1,1,277,2020-07-08T15:12:24-07:00,2.935714006424,2,versionA_stim.csv,READVersionB.csv,"Read Version B","Dissertation, read only version B",CIRCLE,ROUND,Study1,S,65,83,Test,User,-,,Recall,Recall2,2400,round,100,1721,2279,1,1,,1
5ed96d809d0c93500acfc536,ijmi5f4ei6,Nick_Dissertation_EX1,1,278,2020-07-08T15:12:30-07:00,6.7869448661804,2,versionA_stim.csv,READVersionB.csv,"Read Version B","Dissertation, read only version B",ALLOW,TUCK,Study1,U,78,18,Test,User,-,,Recall,Recall2,6304,,0,-1,-1,0,0,,1
5ed96d809d0c93500acfc536,ijmi5f4ei6,Nick_Dissertation_EX1,1,279,2020-07-08T15:12:36-07:00,5.2816181182861,2,versionA_stim.csv,READVersionB.csv,"Read Version B","Dissertation, read only version B",PARK,HUNGRY,Study1,U,68,12,Test,User,-,,Recall,Recall2,4814,,0,-1,-1,0,0,,1
5ed96d809d0c93500acfc536,ijmi5f4ei6,Nick_Dissertation_EX1,1,280,2020-07-08T15:12:39-07:00,3.5310089588165,2,versionA_stim.csv,READVersionB.csv,"Read Version B","Dissertation, read only version B",DUE,ASSIGNMENT,Study1,S,46,56,Test,User,-,,Recall,Recall2,3076,assignment,100,1622,2937,1,1,,1
5ed96d809d0c93500acfc536,ijmi5f4ei6,Nick_Dissertation_EX1,1,281,2020-07-08T15:12:42-07:00,2.5554189682007,2,versionA_stim.csv,READVersionB.csv,"Read Version B","Dissertation, read only version B",HIDE,SICK,Study1,U,84,59,Test,User,-,,Recall,Recall2,2111,,0,-1,-1,0,0,,1
5ed96d809d0c93500acfc536,ijmi5f4ei6,Nick_Dissertation_EX1,1,282,2020-07-08T15:12:47-07:00,5.2784280776978,2,versionA_stim.csv,READVersionB.csv,"Read Version B","Dissertation, read only version B",SHOE,FOOT,Study1,S,60,36,Test,User,-,,Recall,Recall2,4810,foot,100,2017,4691,1,1,,1
5ed96d809d0c93500acfc536,ijmi5f4ei6,Nick_Dissertation_EX1,1,283,2020-07-08T15:12:54-07:00,7.556135892868,2,versionA_stim.csv,READVersionB.csv,"Read Version B","Dissertation, read only version B",WAGE,MONEY,Study1,F,8,30,Test,User,-,,Recall,Recall2,7097,money,100,6086,6610,1,1,,1
5ed96d809d0c93500acfc536,ijmi5f4ei6,Nick_Dissertation_EX1,1,284,2020-07-08T15:12:57-07:00,2.1519780158997,2,versionA_stim.csv,READVersionB.csv,"Read Version B","Dissertation, read only version B",KEY,LATCH,Study1,B,36,62,Test,User,-,,Recall,Recall2,1696,,0,-1,-1,0,0,,1
5ed96d809d0c93500acfc536,ijmi5f4ei6,Nick_Dissertation_EX1,1,285,2020-07-08T15:13:02-07:00,5.1791851520538,2,versionA_stim.csv,READVersionB.csv,"Read Version B","Dissertation, read only version B",BLOW,WIND,Study1,S,55,85,Test,User,-,,Recall,Recall2,4733,,0,-1,-1,0,0,,1
5ed96d809d0c93500acfc536,ijmi5f4ei6,Nick_Dissertation_EX1,1,286,2020-07-08T15:13:03-07:00,1.664608001709,2,versionA_stim.csv,READVersionB.csv,"Read Version B","Dissertation, read only version B",SENTENCE,WORD,Study1,B,31,24,Test,User,-,,Recall,Recall2,1209,,0,-1,-1,0,0,,1
5ed96d809d0c93500acfc536,ijmi5f4ei6,Nick_Dissertation_EX1,1,287,2020-07-08T15:13:07-07:00,3.4360809326172,2,versionA_stim.csv,READVersionB.csv,"Read Version B","Dissertation, read only version B",HEIGHT,GROWTH,Study1,B,30,47,Test,User,-,,Recall,Recall2,1911,,0,-1,-1,0,0,,1
5ed96d809d0c93500acfc536,ijmi5f4ei6,Nick_Dissertation_EX1,1,288,2020-07-08T15:13:11-07:00,4.527172088623,2,versionA_stim.csv,READVersionB.csv,"Read Version B","Dissertation, read only version B",LETTUCE,SALAD,Study1,S,59,22,Test,User,-,,Recall,Recall2,2970,salad,100,2095,2654,1,1,,1
5ed96d809d0c93500acfc536,ijmi5f4ei6,Nick_Dissertation_EX1,1,289,2020-07-08T15:13:19-07:00,8.0191857814789,2,versionA_stim.csv,READVersionB.csv,"Read Version B","Dissertation, read only version B",BUG,WASP,Study1,B,32,51,Test,User,-,,Recall,Recall2,7562,insect,20,6695,7351,0,0,,1
5ed96d809d0c93500acfc536,ijmi5f4ei6,Nick_Dissertation_EX1,1,290,2020-07-08T15:13:22-07:00,2.8995862007141,2,versionA_stim.csv,READVersionB.csv,"Read Version B","Dissertation, read only version B",SUGAR,RIDDLE,Study1,U,81,58,Test,User,-,,Recall,Recall2,1430,,0,-1,-1,0,0,,1
5ed96d809d0c93500acfc536,ijmi5f4ei6,Nick_Dissertation_EX1,1,291,2020-07-08T15:13:27-07:00,4.2289588451385,2,versionA_stim.csv,READVersionB.csv,"Read Version B","Dissertation, read only version B",ARTERY,BRONZE,Study1,U,74,57,Test,User,-,,Recall,Recall2,3775,,0,-1,-1,0,0,,1
5ed96d809d0c93500acfc536,ijmi5f4ei6,Nick_Dissertation_EX1,1,292,2020-07-08T15:13:30-07:00,3.2418220043182,2,versionA_stim.csv,READVersionB.csv,"Read Version B","Dissertation, read only version B",CASH,WOULD,Study1,U,83,10,Test,User,-,,Recall,Recall2,2790,money,20,1148,2410,0,0,,1
5ed96d809d0c93500acfc536,ijmi5f4ei6,Nick_Dissertation_EX1,1,293,2020-07-08T15:13:33-07:00,3.5118479728699,2,versionA_stim.csv,READVersionB.csv,"Read Version B","Dissertation, read only version B",PLANE,PILOT,Study1,B,44,73,Test,User,-,,Recall,Recall2,3065,air,25,2642,2926,0,0,,1
5ed96d809d0c93500acfc536,ijmi5f4ei6,Nick_Dissertation_EX1,1,294,2020-07-08T15:13:35-07:00,1.4988169670105,2,versionA_stim.csv,READVersionB.csv,"Read Version B","Dissertation, read only version B",FULL,ENOUGH,Study1,B,26,43,Test,User,-,,Recall,Recall2,1052,,0,-1,-1,0,0,,1
5ed96d809d0c93500acfc536,ijmi5f4ei6,Nick_Dissertation_EX1,1,295,2020-07-08T15:13:38-07:00,3.3493251800537,2,versionA_stim.csv,READVersionB.csv,"Read Version B","Dissertation, read only version B",DISCOVER,FLOOR,Study1,U,71,16,Test,User,-,,Recall,Recall2,2889,,0,-1,-1,0,0,,1
5ed96d809d0c93500acfc536,ijmi5f4ei6,Nick_Dissertation_EX1,1,296,2020-07-08T15:13:39-07:00,1.2577528953552,2,versionA_stim.csv,READVersionB.csv,"Read Version B","Dissertation, read only version B",GREAT,FANTASTIC,Study1,B,35,25,Test,User,-,,Recall,Recall2,912,,0,-1,-1,0,0,,1
5ed96d809d0c93500acfc536,ijmi5f4ei6,Nick_Dissertation_EX1,1,297,2020-07-08T15:13:43-07:00,3.3602759838104,2,versionA_stim.csv,READVersionB.csv,"Read Version B","Dissertation, read only version B",HUNGER,FAMINE,Study1,B,40,84,Test,User,-,,Recall,Recall2,2750,food,20,2160,2612,0,0,,1
5ed96d809d0c93500acfc536,ijmi5f4ei6,Nick_Dissertation_EX1,1,298,2020-07-08T15:13:46-07:00,3.3916220664978,2,versionA_stim.csv,READVersionB.csv,"Read Version B","Dissertation, read only version B",CHISEL,HAMMER,Study1,F,9,68,Test,User,-,,Recall,Recall2,2700,screw,18.181818181818,1868,2344,0,0,,1
5ed96d809d0c93500acfc536,ijmi5f4ei6,Nick_Dissertation_EX1,1,299,2020-07-08T15:13:49-07:00,3.0071239471436,2,versionA_stim.csv,READVersionB.csv,"Read Version B","Dissertation, read only version B",HAPPY,CAR,Study1,U,77,78,Test,User,-,,Recall,Recall2,2543,sad,33.333333333333,2065,2433,0,0,,1
5ed96d809d0c93500acfc536,ijmi5f4ei6,Nick_Dissertation_EX1,1,300,2020-07-08T15:13:52-07:00,2.2949230670929,2,versionA_stim.csv,READVersionB.csv,"Read Version B","Dissertation, read only version B",DISCUSSION,TALK,Study1,F,21,54,Test,User,-,,Recall,Recall2,1825,,0,-1,-1,0,0,,1
5ed96d809d0c93500acfc536,ijmi5f4ei6,Nick_Dissertation_EX1,1,301,2020-07-08T15:13:54-07:00,2.9719200134277,2,versionA_stim.csv,READVersionB.csv,"Read Version B","Dissertation, read only version B",HONEY,BEE,Study1,S,63,66,Test,User,-,,Recall,Recall2,2516,sweet,50,1505,2239,0,0,,1
5ed96d809d0c93500acfc536,ijmi5f4ei6,Nick_Dissertation_EX1,1,302,2020-07-08T15:13:56-07:00,1.2625920772552,2,versionA_stim.csv,READVersionB.csv,"Read Version B","Dissertation, read only version B",REVOLUTION,WAR,Study1,F,20,34,Test,User,-,,Recall,Recall2,918,,0,-1,-1,0,0,,1
5ed96d809d0c93500acfc536,ijmi5f4ei6,Nick_Dissertation_EX1,1,303,2020-07-08T15:13:57-07:00,1.1396567821503,2,versionA_stim.csv,READVersionB.csv,"Read Version B","Dissertation, read only version B",KING,VASE,Study1,U,85,55,Test,User,-,,Recall,Recall2,782,,0,-1,-1,0,0,,1
5ed96d809d0c93500acfc536,ijmi5f4ei6,Nick_Dissertation_EX1,1,304,2020-07-08T15:13:59-07:00,1.9738121032715,2,versionA_stim.csv,READVersionB.csv,"Read Version B","Dissertation, read only version B",CREDIT,CARD,Study1,F,23,77,Test,User,-,,Recall,Recall2,1525,,0,-1,-1,0,0,,1
5ed96d809d0c93500acfc536,ijmi5f4ei6,Nick_Dissertation_EX1,1,305,2020-07-08T15:14:05-07:00,6.462651014328,2,versionA_stim.csv,READVersionB.csv,"Read Version B","Dissertation, read only version B",PAST,FUTURE,Study1,S,61,27,Test,User,-,,Recall,Recall2,5996,future,100,3048,5873,1,1,,1
5ed96d809d0c93500acfc536,ijmi5f4ei6,Nick_Dissertation_EX1,1,306,2020-07-08T15:14:07-07:00,1.4762890338898,2,versionA_stim.csv,READVersionB.csv,"Read Version B","Dissertation, read only version B",FIRE,BLAZE,Study1,B,45,52,Test,User,-,,Recall,Recall2,1024,,0,-1,-1,0,0,,1
5ed96d809d0c93500acfc536,ijmi5f4ei6,Nick_Dissertation_EX1,1,307,2020-07-08T15:14:11-07:00,3.9033699035645,2,versionA_stim.csv,READVersionB.csv,"Read Version B","Dissertation, read only version B",DIGESTION,STOMACH,Study1,F,7,48,Test,User,-,,Recall,Recall2,3444,food,18.181818181818,2676,3249,0,0,,1
5ed96d809d0c93500acfc536,ijmi5f4ei6,Nick_Dissertation_EX1,1,308,2020-07-08T15:14:15-07:00,3.8070750236511,2,versionA_stim.csv,READVersionB.csv,"Read Version B","Dissertation, read only version B",BRIDGE,WATER,Study1,F,18,17,Test,User,-,,Recall,Recall2,3348,,0,-1,-1,0,0,,1
5ed96d809d0c93500acfc536,ijmi5f4ei6,Nick_Dissertation_EX1,1,309,2020-07-08T15:14:16-07:00,1.6165380477905,2,versionA_stim.csv,READVersionB.csv,"Read Version B","Dissertation, read only version B",HERD,COW,Study1,F,22,41,Test,User,-,,Recall,Recall2,1068,,0,-1,-1,0,0,,1
5ed96d809d0c93500acfc536,ijmi5f4ei6,Nick_Dissertation_EX1,1,310,2020-07-08T15:14:18-07:00,1.8446099758148,2,versionA_stim.csv,READVersionB.csv,"Read Version B","Dissertation, read only version B",DIETARY,SACKING,Study1,U,67,63,Test,User,-,,Recall,Recall2,1391,,0,-1,-1,0,0,,1
5ed96d809d0c93500acfc536,ijmi5f4ei6,Nick_Dissertation_EX1,1,311,2020-07-08T15:14:22-07:00,3.882150888443,2,versionA_stim.csv,READVersionB.csv,"Read Version B","Dissertation, read only version B",DELINQUENT,BAD,Study1,F,6,28,Test,User,-,,Recall,Recall2,3015,,0,-1,-1,0,0,,1
5ed96d809d0c93500acfc536,ijmi5f4ei6,Nick_Dissertation_EX1,1,312,2020-07-08T15:14:26-07:00,4.0183579921722,2,versionA_stim.csv,READVersionB.csv,"Read Version B","Dissertation, read only version B",HYGIENE,CLEAN,Study1,F,17,53,Test,User,-,,Recall,Recall2,3565,,0,-1,-1,0,0,,1
5ed96d809d0c93500acfc536,ijmi5f4ei6,Nick_Dissertation_EX1,1,313,2020-07-08T15:14:27-07:00,1.5102190971375,2,versionA_stim.csv,READVersionB.csv,"Read Version B","Dissertation, read only version B",SWAN,BIRD,Study1,F,14,70,Test,User,-,,Recall,Recall2,1054,,0,-1,-1,0,0,,1
5ed96d809d0c93500acfc536,ijmi5f4ei6,Nick_Dissertation_EX1,1,314,2020-07-08T15:14:30-07:00,2.1244280338287,2,versionA_stim.csv,READVersionB.csv,"Read Version B","Dissertation, read only version B",TRIAL,JURY,Study1,S,50,80,Test,User,-,,Recall,Recall2,1605,,0,-1,-1,0,0,,1
5ed96d809d0c93500acfc536,ijmi5f4ei6,Nick_Dissertation_EX1,1,315,2020-07-08T15:14:33-07:00,3.527174949646,2,versionA_stim.csv,READVersionB.csv,"Read Version B","Dissertation, read only version B",SMELL,STENCH,Study1,B,42,35,Test,User,-,,Recall,Recall2,3069,fresh,36.363636363636,1775,2817,0,0,,1
5ed96d809d0c93500acfc536,ijmi5f4ei6,Nick_Dissertation_EX1,1,316,2020-07-08T15:14:35-07:00,1.6070120334625,2,versionA_stim.csv,READVersionB.csv,"Read Version B","Dissertation, read only version B",TAKE,SEIZE,Study1,B,29,72,Test,User,-,,Recall,Recall2,1115,,0,-1,-1,0,0,,1
5ed96d809d0c93500acfc536,ijmi5f4ei6,Nick_Dissertation_EX1,1,317,2020-07-08T15:14:36-07:00,1.5680549144745,2,versionA_stim.csv,READVersionB.csv,"Read Version B","Dissertation, read only version B",KIDNEY,LIVER,Study1,S,53,71,Test,User,-,,Recall,Recall2,1121,,0,-1,-1,0,0,,1
5ed96d809d0c93500acfc536,ijmi5f4ei6,Nick_Dissertation_EX1,1,318,2020-07-08T15:14:37-07:00,0.97583699226379,2,versionA_stim.csv,READVersionB.csv,"Read Version B","Dissertation, read only version B",PUSHER,CLUTTER,Study1,U,66,33,Test,User,-,,Recall,Recall2,626,,0,-1,-1,0,0,,1
5ed96d809d0c93500acfc536,ijmi5f4ei6,Nick_Dissertation_EX1,1,319,2020-07-08T15:14:38-07:00,1.1537871360779,2,versionA_stim.csv,READVersionB.csv,"Read Version B","Dissertation, read only version B",WAY,OUT,Study1,F,16,65,Test,User,-,,Recall,Recall2,806,,0,-1,-1,0,0,,1
5ed96d809d0c93500acfc536,ijmi5f4ei6,Nick_Dissertation_EX1,1,320,2020-07-08T15:14:42-07:00,3.670569896698,2,versionA_stim.csv,READVersionB.csv,"Read Version B","Dissertation, read only version B",VALLEY,ADD,Study1,U,82,31,Test,User,-,,Recall,Recall2,2186,,0,-1,-1,0,0,,1
5ed96d809d0c93500acfc536,ijmi5f4ei6,Nick_Dissertation_EX1,1,321,2020-07-08T15:14:44-07:00,1.6081790924072,2,versionA_stim.csv,READVersionB.csv,"Read Version B","Dissertation, read only version B",GRILL,BAR,Study1,S,52,8,Test,User,-,,Recall,Recall2,1072,,0,-1,-1,0,0,,1
5ed96d809d0c93500acfc536,ijmi5f4ei6,Nick_Dissertation_EX1,1,322,2020-07-08T15:14:45-07:00,1.0448570251465,2,versionA_stim.csv,READVersionB.csv,"Read Version B","Dissertation, read only version B",BALL,RACKET,Study1,B,38,79,Test,User,-,,Recall,Recall2,696,,0,-1,-1,0,0,,1
5ed96d809d0c93500acfc536,ijmi5f4ei6,Nick_Dissertation_EX1,1,323,2020-07-08T15:14:46-07:00,1.3099758625031,2,versionA_stim.csv,READVersionB.csv,"Read Version B","Dissertation, read only version B",ART,LION,Study1,U,79,50,Test,User,-,,Recall,Recall2,945,,0,-1,-1,0,0,,1
5ed96d809d0c93500acfc536,ijmi5f4ei6,Nick_Dissertation_EX1,1,324,2020-07-08T15:14:47-07:00,1.2954020500183,2,versionA_stim.csv,READVersionB.csv,"Read Version B","Dissertation, read only version B",DEBATE,SIGHT,Study1,U,73,42,Test,User,-,,Recall,Recall2,804,,0,-1,-1,0,0,,1
5ed96d809d0c93500acfc536,ijmi5f4ei6,Nick_Dissertation_EX1,1,325,2020-07-08T15:14:50-07:00,2.717169046402,2,versionA_stim.csv,READVersionB.csv,"Read Version B","Dissertation, read only version B",POP,SODA,Study1,S,56,37,Test,User,-,,Recall,Recall2,2242,soda,100,1669,2077,1,1,,1
5ed96d809d0c93500acfc536,ijmi5f4ei6,Nick_Dissertation_EX1,1,326,2020-07-08T15:14:51-07:00,1.4549260139465,2,versionA_stim.csv,READVersionB.csv,"Read Version B","Dissertation, read only version B",ARCHITECTURE,DESIGN,Study1,S,51,7,Test,User,-,,Recall,Recall2,994,,0,-1,-1,0,0,,1
5ed96d809d0c93500acfc536,ijmi5f4ei6,Nick_Dissertation_EX1,1,327,2020-07-08T15:14:53-07:00,1.4232819080353,2,versionA_stim.csv,READVersionB.csv,"Read Version B","Dissertation, read only version B",LIFT,WOMAN,Study1,U,69,19,Test,User,-,,Recall,Recall2,972,,0,-1,-1,0,0,,1
5ed96d809d0c93500acfc536,ijmi5f4ei6,Nick_Dissertation_EX1,1,328,2020-07-08T15:14:54-07:00,0.93762397766113,2,versionA_stim.csv,READVersionB.csv,"Read Version B","Dissertation, read only version B",WORK,CHORE,Study1,B,39,13,Test,User,-,,Recall,Recall2,586,,0,-1,-1,0,0,,1
5ed96d809d0c93500acfc536,ijmi5f4ei6,Nick_Dissertation_EX1,1,329,2020-07-08T15:14:56-07:00,1.9599430561066,2,versionA_stim.csv,READVersionB.csv,"Read Version B","Dissertation, read only version B",HORNET,STING,Study1,F,11,15,Test,User,-,,Recall,Recall2,1515,,0,-1,-1,0,0,,1
5ed96d809d0c93500acfc536,ijmi5f4ei6,Nick_Dissertation_EX1,1,330,2020-07-08T15:14:57-07:00,1.1529910564423,2,versionA_stim.csv,READVersionB.csv,"Read Version B","Dissertation, read only version B",STRONG,ACCIDENT,Study1,U,80,46,Test,User,-,,Recall,Recall2,804,,0,-1,-1,0,0,,1
5ed96d809d0c93500acfc536,ijmi5f4ei6,Nick_Dissertation_EX1,1,331,2020-07-08T15:14:59-07:00,1.9415500164032,2,versionA_stim.csv,READVersionB.csv,"Read Version B","Dissertation, read only version B",WINE,CHEESE,Study1,S,57,49,Test,User,-,,Recall,Recall2,1495,,0,-1,-1,0,0,,1
5ed96d809d0c93500acfc536,ijmi5f4ei6,Nick_Dissertation_EX1,1,332,2020-07-08T15:15:00-07:00,1.1423590183258,2,versionA_stim.csv,READVersionB.csv,"Read Version B","Dissertation, read only version B",LAW,ATTORNEY,Study1,B,34,45,Test,User,-,,Recall,Recall2,789,,0,-1,-1,0,0,,1
5ed96d809d0c93500acfc536,ijmi5f4ei6,Nick_Dissertation_EX1,1,333,2020-07-08T15:15:03-07:00,2.7912659645081,2,versionA_stim.csv,READVersionB.csv,"Read Version B","Dissertation, read only version B",FIX,HAND,Study1,U,75,23,Test,User,-,,Recall,Recall2,1230,,0,-1,-1,0,0,,1
5ed96d809d0c93500acfc536,ijmi5f4ei6,Nick_Dissertation_EX1,1,334,2020-07-08T15:15:06-07:00,2.7249689102173,2,versionA_stim.csv,READVersionB.csv,"Read Version B","Dissertation, read only version B",BEGIN,END,Study1,S,54,76,Test,User,-,,Recall,Recall2,2256,start,0,1402,1885,0,0,,1
5ed96d809d0c93500acfc536,ijmi5f4ei6,Nick_Dissertation_EX1,1,335,2020-07-08T15:15:09-07:00,3.6026480197906,2,versionA_stim.csv,READVersionB.csv,"Read Version B","Dissertation, read only version B",SOON,BELT,Study1,U,70,61,Test,User,-,,Recall,Recall2,2724,,0,-1,-1,0,0,,1
5ed96d809d0c93500acfc536,ijmi5f4ei6,Nick_Dissertation_EX1,1,336,2020-07-08T15:15:10-07:00,1.2818069458008,2,versionA_stim.csv,READVersionB.csv,"Read Version B","Dissertation, read only version B",MACHINE,POSITION,Study1,U,76,26,Test,User,-,,Recall,Recall2,923,,0,-1,-1,0,0,,1
5ed96d809d0c93500acfc536,ijmi5f4ei6,Nick_Dissertation_EX1,1,337,2020-07-08T15:15:12-07:00,1.5067491531372,2,versionA_stim.csv,READVersionB.csv,"Read Version B","Dissertation, read only version B",EDITOR,NEWS,Study1,F,10,44,Test,User,-,,Recall,Recall2,1007,,0,-1,-1,0,0,,1
5ed96d809d0c93500acfc536,ijmi5f4ei6,Nick_Dissertation_EX1,1,338,2020-07-08T15:15:14-07:00,1.9478859901428,2,versionA_stim.csv,READVersionB.csv,"Read Version B","Dissertation, read only version B",ROOT,PLANT,Study1,F,13,11,Test,User,-,,Recall,Recall2,1483,,0,-1,-1,0,0,,1
5ed96d809d0c93500acfc536,ijmi5f4ei6,Nick_Dissertation_EX1,1,339,2020-07-08T15:15:16-07:00,2.6070339679718,2,versionA_stim.csv,READVersionB.csv,"Read Version B","Dissertation, read only version B",DRINK,SIP,Study1,B,27,60,Test,User,-,,Recall,Recall2,2163,water,0,1382,2002,0,0,,1
5ed96d809d0c93500acfc536,ijmi5f4ei6,Nick_Dissertation_EX1,1,340,2020-07-08T15:15:19-07:00,2.2048590183258,2,versionA_stim.csv,READVersionB.csv,"Read Version B","Dissertation, read only version B",LOCATION,SITE,Study1,S,48,20,Test,User,-,,Recall,Recall2,1757,,0,-1,-1,0,0,,1
5ed96d809d0c93500acfc536,ijmi5f4ei6,Nick_Dissertation_EX1,1,341,2020-07-08T15:15:20-07:00,0.96317195892334,2,versionA_stim.csv,READVersionB.csv,"Read Version B","Dissertation, read only version B",ORCHID,FLOWER,Study1,F,24,69,Test,User,-,,Recall,Recall2,627,,0,-1,-1,0,0,,1
5ed96d809d0c93500acfc536,ijmi5f4ei6,Nick_Dissertation_EX1,1,342,2020-07-08T15:15:21-07:00,0.92099905014038,2,versionA_stim.csv,READVersionB.csv,"Read Version B","Dissertation, read only version B",DUMP,WASTE,Study1,S,49,21,Test,User,-,,Recall,Recall2,571,,0,-1,-1,0,0,,1
5ed96d809d0c93500acfc536,ijmi5f4ei6,Nick_Dissertation_EX1,1,343,2020-07-08T15:15:22-07:00,1.0915088653564,2,versionA_stim.csv,READVersionB.csv,"Read Version B","Dissertation, read only version B",HOT,CHILI,Study1,B,37,9,Test,User,-,,Recall,Recall2,751,,0,-1,-1,0,0,,1
5ed96d809d0c93500acfc536,ijmi5f4ei6,Nick_Dissertation_EX1,1,344,2020-07-08T15:15:22-07:00,0.82985401153564,2,versionA_stim.csv,READVersionB.csv,"Read Version B","Dissertation, read only version B",NUMBER,AMOUNT,Study1,S,47,64,Test,User,-,,Recall,Recall2,484,,0,-1,-1,0,0,,1
5ed96d809d0c93500acfc536,ijmi5f4ei6,Nick_Dissertation_EX1,1,345,2020-07-08T15:15:23-07:00,0.8951370716095,2,versionA_stim.csv,READVersionB.csv,"Read Version B","Dissertation, read only version B",TUNA,FISH,Study1,F,25,82,Test,User,-,,Recall,Recall2,549,,0,-1,-1,0,0,,1
5ed96d809d0c93500acfc536,ijmi5f4ei6,Nick_Dissertation_EX1,1,346,2020-07-08T15:15:27-07:00,4.0666410923004,2,versionA_stim.csv,READVersionB.csv,"Read Version B","Dissertation, read only version B",DARK,CAVE,Study1,B,28,14,Test,User,-,,Recall,Recall2,3612,light,0,2867,3393,0,0,,1
5ed96d809d0c93500acfc536,ijmi5f4ei6,Nick_Dissertation_EX1,1,347,2020-07-08T15:15:29-07:00,1.1842329502106,2,versionA_stim.csv,READVersionB.csv,"Read Version B","Dissertation, read only version B",BABY,CHILD,Study1,S,64,74,Test,User,-,,Recall,Recall2,837,,0,-1,-1,0,0,,1
5ed96d809d0c93500acfc536,ijmi5f4ei6,Nick_Dissertation_EX1,1,348,2020-07-08T15:15:33-07:00,3.9022569656372,2,versionA_stim.csv,READVersionB.csv,"Read Version B","Dissertation, read only version B",SLEEP,DROWSY,Study1,B,41,75,Test,User,-,,Recall,Recall2,1694,,0,-1,-1,0,0,,1
5ed96d809d0c93500acfc536,ijmi5f4ei6,Nick_Dissertation_EX1,1,349,2020-07-08T15:15:35-07:00,2.4746069908142,2,versionA_stim.csv,READVersionB.csv,"Read Version B","Dissertation, read only version B",,,,,,0,Instruct,User,-,"You have completed this section. Please press Enter.",,Instruct7,2029,,,-1,-1,,,,1
5ed96d809d0c93500acfc536,ijmi5f4ei6,Nick_Dissertation_EX1,1,350,2020-07-08T15:15:39-07:00,3.6561799049377,2,versionA_stim.csv,READVersionB.csv,"Read Version B","Dissertation, read only version B",,,,,,0,Instruct,User,-,"The following screen will ask you a few questions abour your experience today. You must complete these questions to receive credit.",,Instruct8,3208,,,-1,-1,,,,1
