Username,ID,ExperimentName,Session,Trial,Date,TimeDif,"Condition Number","Stimuli File","Order File","Condition Description","Condition Notes",Stimuli*Cue,Stimuli*Answer,Stimuli*Shuffle,"Stimuli*Stimuli Notes",Stimuli*Value,Procedure*Item,"Procedure*Trial Type","Procedure*Max Time","Procedure*Min Time",Procedure*Text,"Procedure*Procedure Notes",Procedure*Shuffle,Response*RT,Response*Response,Response*Accuracy,Response*RTfirst,Response*RTlast,Response*strictAcc,Response*lenientAcc,Response*focus,Response*Focus
w990145ANH,nvgt4by37k,Nick_Dissertation_EX1,1,1,2020-05-01T11:11:53-07:00,11.078303098679,1,versionA_stim.csv,READVersionA.csv,"Read Version A","Dissertation, read only version A",,,,,,0,Instruct,-,10,"Please study each of the following word pairs. Remember that your memory will be tested! When finished, press Enter to move to the next pair.",Initial_Instruct,Instruct1,10827,,,-1,-1,,,,1
w990145ANH,nvgt4by37k,Nick_Dissertation_EX1,1,2,2020-05-01T11:11:58-07:00,5.0972309112549,1,versionA_stim.csv,READVersionA.csv,"Read Version A","Dissertation, read only version A",BASEBALL,CATCHER,BUFFER1,Buffer,2,5,Study,User,-,,Study/JOL,BUFFER,4777,,,-1,-1,,,,1
w990145ANH,nvgt4by37k,Nick_Dissertation_EX1,1,3,2020-05-01T11:12:03-07:00,4.5052490234375,1,versionA_stim.csv,READVersionA.csv,"Read Version A","Dissertation, read only version A",TREES,GREEN,BUFFER1,Buffer,1,3,Study,User,-,,Study/JOL,BUFFER,4221,,,-1,-1,,,,1
w990145ANH,nvgt4by37k,Nick_Dissertation_EX1,1,4,2020-05-01T11:12:05-07:00,2.6871380805969,1,versionA_stim.csv,READVersionA.csv,"Read Version A","Dissertation, read only version A",SCARE,HIDE,BUFFER1,Buffer,4,6,Study,User,-,,Study/JOL,BUFFER,2399,,,-1,-1,,,,1
w990145ANH,nvgt4by37k,Nick_Dissertation_EX1,1,5,2020-05-01T11:12:08-07:00,2.5081958770752,1,versionA_stim.csv,READVersionA.csv,"Read Version A","Dissertation, read only version A",SPACE,JAM,BUFFER1,Buffer,5,4,Study,User,-,,Study/JOL,BUFFER,2215,,,-1,-1,,,,1
w990145ANH,nvgt4by37k,Nick_Dissertation_EX1,1,6,2020-05-01T11:12:10-07:00,1.7383849620819,1,versionA_stim.csv,READVersionA.csv,"Read Version A","Dissertation, read only version A",PEANUT,BUTTER,BUFFER1,Buffer,3,2,Study,User,-,,Study/JOL,BUFFER,1464,,,-1,-1,,,,1
w990145ANH,nvgt4by37k,Nick_Dissertation_EX1,1,7,2020-05-01T11:12:12-07:00,1.9420671463013,1,versionA_stim.csv,READVersionA.csv,"Read Version A","Dissertation, read only version A",WAY,OUT,Study1,F,16,17,Study,User,-,,Study/JOL,"Study Phase",1537,,,-1,-1,,,,1
w990145ANH,nvgt4by37k,Nick_Dissertation_EX1,1,8,2020-05-01T11:12:13-07:00,1.7724459171295,1,versionA_stim.csv,READVersionA.csv,"Read Version A","Dissertation, read only version A",PAST,FUTURE,Study1,S,61,56,Study,User,-,,Study/JOL,"Study Phase",1497,,,-1,-1,,,,1
w990145ANH,nvgt4by37k,Nick_Dissertation_EX1,1,9,2020-05-01T11:12:16-07:00,2.1860370635986,1,versionA_stim.csv,READVersionA.csv,"Read Version A","Dissertation, read only version A",SOON,BELT,Study1,U,70,39,Study,User,-,,Study/JOL,"Study Phase",1862,,,-1,-1,,,,1
w990145ANH,nvgt4by37k,Nick_Dissertation_EX1,1,10,2020-05-01T11:12:18-07:00,2.0344879627228,1,versionA_stim.csv,READVersionA.csv,"Read Version A","Dissertation, read only version A",PAW,DOG,Study1,F,15,8,Study,User,-,,Study/JOL,"Study Phase",1681,,,-1,-1,,,,1
w990145ANH,nvgt4by37k,Nick_Dissertation_EX1,1,11,2020-05-01T11:12:20-07:00,1.9983580112457,1,versionA_stim.csv,READVersionA.csv,"Read Version A","Dissertation, read only version A",PUSHER,CLUTTER,Study1,U,66,10,Study,User,-,,Study/JOL,"Study Phase",1714,,,-1,-1,,,,1
w990145ANH,nvgt4by37k,Nick_Dissertation_EX1,1,12,2020-05-01T11:12:21-07:00,1.5455160140991,1,versionA_stim.csv,READVersionA.csv,"Read Version A","Dissertation, read only version A",GRILL,BAR,Study1,S,52,27,Study,User,-,,Study/JOL,"Study Phase",1276,,,-1,-1,,,,1
w990145ANH,nvgt4by37k,Nick_Dissertation_EX1,1,13,2020-05-01T11:12:23-07:00,1.559807062149,1,versionA_stim.csv,READVersionA.csv,"Read Version A","Dissertation, read only version A",SHOE,FOOT,Study1,S,60,20,Study,User,-,,Study/JOL,"Study Phase",1185,,,-1,-1,,,,1
w990145ANH,nvgt4by37k,Nick_Dissertation_EX1,1,14,2020-05-01T11:12:24-07:00,1.3919148445129,1,versionA_stim.csv,READVersionA.csv,"Read Version A","Dissertation, read only version A",CASH,WOULD,Study1,U,83,13,Study,User,-,,Study/JOL,"Study Phase",1109,,,-1,-1,,,,1
w990145ANH,nvgt4by37k,Nick_Dissertation_EX1,1,15,2020-05-01T11:12:26-07:00,2.0446450710297,1,versionA_stim.csv,READVersionA.csv,"Read Version A","Dissertation, read only version A",CIRCLE,ROUND,Study1,S,65,57,Study,User,-,,Study/JOL,"Study Phase",1771,,,-1,-1,,,,1
w990145ANH,nvgt4by37k,Nick_Dissertation_EX1,1,16,2020-05-01T11:12:27-07:00,1.2277719974518,1,versionA_stim.csv,READVersionA.csv,"Read Version A","Dissertation, read only version A",VALLEY,ADD,Study1,U,82,15,Study,User,-,,Study/JOL,"Study Phase",970,,,-1,-1,,,,1
w990145ANH,nvgt4by37k,Nick_Dissertation_EX1,1,17,2020-05-01T11:12:30-07:00,2.5421640872955,1,versionA_stim.csv,READVersionA.csv,"Read Version A","Dissertation, read only version A",LAW,ATTORNEY,Study1,B,34,75,Study,User,-,,Study/JOL,"Study Phase",2205,,,-1,-1,,,,1
w990145ANH,nvgt4by37k,Nick_Dissertation_EX1,1,18,2020-05-01T11:12:32-07:00,2.1079668998718,1,versionA_stim.csv,READVersionA.csv,"Read Version A","Dissertation, read only version A",DISCOVER,FLOOR,Study1,U,71,41,Study,User,-,,Study/JOL,"Study Phase",1834,,,-1,-1,,,,1
w990145ANH,nvgt4by37k,Nick_Dissertation_EX1,1,19,2020-05-01T11:12:34-07:00,1.6246740818024,1,versionA_stim.csv,READVersionA.csv,"Read Version A","Dissertation, read only version A",CREDIT,CARD,Study1,F,23,45,Study,User,-,,Study/JOL,"Study Phase",1326,,,-1,-1,,,,1
w990145ANH,nvgt4by37k,Nick_Dissertation_EX1,1,20,2020-05-01T11:12:36-07:00,2.1863658428192,1,versionA_stim.csv,READVersionA.csv,"Read Version A","Dissertation, read only version A",DIETARY,SACKING,Study1,U,67,44,Study,User,-,,Study/JOL,"Study Phase",1652,,,-1,-1,,,,1
w990145ANH,nvgt4by37k,Nick_Dissertation_EX1,1,21,2020-05-01T11:12:38-07:00,2.2188169956207,1,versionA_stim.csv,READVersionA.csv,"Read Version A","Dissertation, read only version A",SMELL,STENCH,Study1,B,42,22,Study,User,-,,Study/JOL,"Study Phase",1637,,,-1,-1,,,,1
w990145ANH,nvgt4by37k,Nick_Dissertation_EX1,1,22,2020-05-01T11:12:41-07:00,2.9576661586761,1,versionA_stim.csv,READVersionA.csv,"Read Version A","Dissertation, read only version A",LETTUCE,SALAD,Study1,S,59,74,Study,User,-,,Study/JOL,"Study Phase",2075,,,-1,-1,,,,1
w990145ANH,nvgt4by37k,Nick_Dissertation_EX1,1,23,2020-05-01T11:12:44-07:00,3.1556220054626,1,versionA_stim.csv,READVersionA.csv,"Read Version A","Dissertation, read only version A",MATH,DIVISION,Study1,B,33,67,Study,User,-,,Study/JOL,"Study Phase",2635,,,-1,-1,,,,1
w990145ANH,nvgt4by37k,Nick_Dissertation_EX1,1,24,2020-05-01T11:12:48-07:00,3.4082229137421,1,versionA_stim.csv,READVersionA.csv,"Read Version A","Dissertation, read only version A",PARK,HUNGRY,Study1,U,68,47,Study,User,-,,Study/JOL,"Study Phase",3112,,,-1,-1,,,,1
w990145ANH,nvgt4by37k,Nick_Dissertation_EX1,1,25,2020-05-01T11:12:49-07:00,1.6568500995636,1,versionA_stim.csv,READVersionA.csv,"Read Version A","Dissertation, read only version A",LIFT,WOMAN,Study1,U,69,71,Study,User,-,,Study/JOL,"Study Phase",1282,,,-1,-1,,,,1
w990145ANH,nvgt4by37k,Nick_Dissertation_EX1,1,26,2020-05-01T11:12:50-07:00,1.2246599197388,1,versionA_stim.csv,READVersionA.csv,"Read Version A","Dissertation, read only version A",GREAT,FANTASTIC,Study1,B,35,18,Study,User,-,,Study/JOL,"Study Phase",972,,,-1,-1,,,,1
w990145ANH,nvgt4by37k,Nick_Dissertation_EX1,1,27,2020-05-01T11:12:53-07:00,2.1898419857025,1,versionA_stim.csv,READVersionA.csv,"Read Version A","Dissertation, read only version A",BITTER,COLD,Study1,F,12,43,Study,User,-,,Study/JOL,"Study Phase",1898,,,-1,-1,,,,1
w990145ANH,nvgt4by37k,Nick_Dissertation_EX1,1,28,2020-05-01T11:12:55-07:00,2.2912690639496,1,versionA_stim.csv,READVersionA.csv,"Read Version A","Dissertation, read only version A",HOT,CHILI,Study1,B,37,62,Study,User,-,,Study/JOL,"Study Phase",1910,,,-1,-1,,,,1
w990145ANH,nvgt4by37k,Nick_Dissertation_EX1,1,29,2020-05-01T11:12:57-07:00,1.8801038265228,1,versionA_stim.csv,READVersionA.csv,"Read Version A","Dissertation, read only version A",FIX,HAND,Study1,U,75,53,Study,User,-,,Study/JOL,"Study Phase",1565,,,-1,-1,,,,1
w990145ANH,nvgt4by37k,Nick_Dissertation_EX1,1,30,2020-05-01T11:12:59-07:00,1.7262871265411,1,versionA_stim.csv,READVersionA.csv,"Read Version A","Dissertation, read only version A",EDITOR,NEWS,Study1,F,10,70,Study,User,-,,Study/JOL,"Study Phase",1369,,,-1,-1,,,,1
w990145ANH,nvgt4by37k,Nick_Dissertation_EX1,1,31,2020-05-01T11:13:00-07:00,1.4806499481201,1,versionA_stim.csv,READVersionA.csv,"Read Version A","Dissertation, read only version A",BATHROOM,TOILET,Study1,S,58,65,Study,User,-,,Study/JOL,"Study Phase",1212,,,-1,-1,,,,1
w990145ANH,nvgt4by37k,Nick_Dissertation_EX1,1,32,2020-05-01T11:13:01-07:00,1.391410112381,1,versionA_stim.csv,READVersionA.csv,"Read Version A","Dissertation, read only version A",HAPPY,CAR,Study1,U,77,50,Study,User,-,,Study/JOL,"Study Phase",1143,,,-1,-1,,,,1
w990145ANH,nvgt4by37k,Nick_Dissertation_EX1,1,33,2020-05-01T11:13:03-07:00,1.4115760326385,1,versionA_stim.csv,READVersionA.csv,"Read Version A","Dissertation, read only version A",DUE,ASSIGNMENT,Study1,S,46,19,Study,User,-,,Study/JOL,"Study Phase",1132,,,-1,-1,,,,1
w990145ANH,nvgt4by37k,Nick_Dissertation_EX1,1,34,2020-05-01T11:13:05-07:00,2.2953889369965,1,versionA_stim.csv,READVersionA.csv,"Read Version A","Dissertation, read only version A",DRINK,SIP,Study1,B,27,33,Study,User,-,,Study/JOL,"Study Phase",1962,,,-1,-1,,,,1
w990145ANH,nvgt4by37k,Nick_Dissertation_EX1,1,35,2020-05-01T11:13:07-07:00,2.2529439926147,1,versionA_stim.csv,READVersionA.csv,"Read Version A","Dissertation, read only version A",ART,LION,Study1,U,79,16,Study,User,-,,Study/JOL,"Study Phase",1927,,,-1,-1,,,,1
w990145ANH,nvgt4by37k,Nick_Dissertation_EX1,1,36,2020-05-01T11:13:10-07:00,2.9136710166931,1,versionA_stim.csv,READVersionA.csv,"Read Version A","Dissertation, read only version A",KEY,LATCH,Study1,B,36,48,Study,User,-,,Study/JOL,"Study Phase",2516,,,-1,-1,,,,1
w990145ANH,nvgt4by37k,Nick_Dissertation_EX1,1,37,2020-05-01T11:13:12-07:00,1.6329119205475,1,versionA_stim.csv,READVersionA.csv,"Read Version A","Dissertation, read only version A",HUNGER,FAMINE,Study1,B,40,52,Study,User,-,,Study/JOL,"Study Phase",1296,,,-1,-1,,,,1
w990145ANH,nvgt4by37k,Nick_Dissertation_EX1,1,38,2020-05-01T11:13:15-07:00,2.5447220802307,1,versionA_stim.csv,READVersionA.csv,"Read Version A","Dissertation, read only version A",PLANE,PILOT,Study1,B,44,36,Study,User,-,,Study/JOL,"Study Phase",2247,,,-1,-1,,,,1
w990145ANH,nvgt4by37k,Nick_Dissertation_EX1,1,39,2020-05-01T11:13:16-07:00,1.8396220207214,1,versionA_stim.csv,READVersionA.csv,"Read Version A","Dissertation, read only version A",DEBATE,SIGHT,Study1,U,73,81,Study,User,-,,Study/JOL,"Study Phase",1500,,,-1,-1,,,,1
w990145ANH,nvgt4by37k,Nick_Dissertation_EX1,1,40,2020-05-01T11:13:18-07:00,1.1977999210358,1,versionA_stim.csv,READVersionA.csv,"Read Version A","Dissertation, read only version A",BABY,CHILD,Study1,S,64,9,Study,User,-,,Study/JOL,"Study Phase",761,,,-1,-1,,,,1
w990145ANH,nvgt4by37k,Nick_Dissertation_EX1,1,41,2020-05-01T11:13:19-07:00,1.9265749454498,1,versionA_stim.csv,READVersionA.csv,"Read Version A","Dissertation, read only version A",HEIGHT,GROWTH,Study1,B,30,78,Study,User,-,,Study/JOL,"Study Phase",1638,,,-1,-1,,,,1
w990145ANH,nvgt4by37k,Nick_Dissertation_EX1,1,42,2020-05-01T11:13:21-07:00,1.2390360832214,1,versionA_stim.csv,READVersionA.csv,"Read Version A","Dissertation, read only version A",DEATH,BUSINESS,Study1,U,72,83,Study,User,-,,Study/JOL,"Study Phase",880,,,-1,-1,,,,1
w990145ANH,nvgt4by37k,Nick_Dissertation_EX1,1,43,2020-05-01T11:13:22-07:00,1.48481798172,1,versionA_stim.csv,READVersionA.csv,"Read Version A","Dissertation, read only version A",KING,VASE,Study1,U,85,26,Study,User,-,,Study/JOL,"Study Phase",1208,,,-1,-1,,,,1
w990145ANH,nvgt4by37k,Nick_Dissertation_EX1,1,44,2020-05-01T11:13:24-07:00,1.809396982193,1,versionA_stim.csv,READVersionA.csv,"Read Version A","Dissertation, read only version A",ARCHITECTURE,DESIGN,Study1,S,51,80,Study,User,-,,Study/JOL,"Study Phase",1534,,,-1,-1,,,,1
w990145ANH,nvgt4by37k,Nick_Dissertation_EX1,1,45,2020-05-01T11:13:26-07:00,2.386155128479,1,versionA_stim.csv,READVersionA.csv,"Read Version A","Dissertation, read only version A",WORK,CHORE,Study1,B,39,12,Study,User,-,,Study/JOL,"Study Phase",2054,,,-1,-1,,,,1
w990145ANH,nvgt4by37k,Nick_Dissertation_EX1,1,46,2020-05-01T11:13:31-07:00,4.3808348178864,1,versionA_stim.csv,READVersionA.csv,"Read Version A","Dissertation, read only version A",STRONG,ACCIDENT,Study1,U,80,29,Study,User,-,,Study/JOL,"Study Phase",4102,,,-1,-1,,,,1
w990145ANH,nvgt4by37k,Nick_Dissertation_EX1,1,47,2020-05-01T11:13:33-07:00,2.6821291446686,1,versionA_stim.csv,READVersionA.csv,"Read Version A","Dissertation, read only version A",ALLOW,TUCK,Study1,U,78,25,Study,User,-,,Study/JOL,"Study Phase",2375,,,-1,-1,,,,1
w990145ANH,nvgt4by37k,Nick_Dissertation_EX1,1,48,2020-05-01T11:13:35-07:00,1.3104889392853,1,versionA_stim.csv,READVersionA.csv,"Read Version A","Dissertation, read only version A",DELINQUENT,BAD,Study1,F,6,21,Study,User,-,,Study/JOL,"Study Phase",1017,,,-1,-1,,,,1
w990145ANH,nvgt4by37k,Nick_Dissertation_EX1,1,49,2020-05-01T11:13:37-07:00,2.007031917572,1,versionA_stim.csv,READVersionA.csv,"Read Version A","Dissertation, read only version A",WAGE,MONEY,Study1,F,8,82,Study,User,-,,Study/JOL,"Study Phase",1737,,,-1,-1,,,,1
w990145ANH,nvgt4by37k,Nick_Dissertation_EX1,1,50,2020-05-01T11:13:39-07:00,2.0375170707703,1,versionA_stim.csv,READVersionA.csv,"Read Version A","Dissertation, read only version A",DUMP,WASTE,Study1,S,49,55,Study,User,-,,Study/JOL,"Study Phase",1665,,,-1,-1,,,,1
w990145ANH,nvgt4by37k,Nick_Dissertation_EX1,1,51,2020-05-01T11:13:40-07:00,1.4445149898529,1,versionA_stim.csv,READVersionA.csv,"Read Version A","Dissertation, read only version A",POP,SODA,Study1,S,56,60,Study,User,-,,Study/JOL,"Study Phase",1060,,,-1,-1,,,,1
w990145ANH,nvgt4by37k,Nick_Dissertation_EX1,1,52,2020-05-01T11:13:42-07:00,1.3595409393311,1,versionA_stim.csv,READVersionA.csv,"Read Version A","Dissertation, read only version A",NUMBER,AMOUNT,Study1,S,47,23,Study,User,-,,Study/JOL,"Study Phase",1067,,,-1,-1,,,,1
w990145ANH,nvgt4by37k,Nick_Dissertation_EX1,1,53,2020-05-01T11:13:45-07:00,3.4856600761414,1,versionA_stim.csv,READVersionA.csv,"Read Version A","Dissertation, read only version A",CLOTHES,ATTIRE,Study1,B,43,69,Study,User,-,,Study/JOL,"Study Phase",2938,,,-1,-1,,,,1
w990145ANH,nvgt4by37k,Nick_Dissertation_EX1,1,54,2020-05-01T11:13:47-07:00,2.036465883255,1,versionA_stim.csv,READVersionA.csv,"Read Version A","Dissertation, read only version A",TRIAL,JURY,Study1,S,50,14,Study,User,-,,Study/JOL,"Study Phase",1737,,,-1,-1,,,,1
w990145ANH,nvgt4by37k,Nick_Dissertation_EX1,1,55,2020-05-01T11:13:50-07:00,3.2712881565094,1,versionA_stim.csv,READVersionA.csv,"Read Version A","Dissertation, read only version A",LOCATION,SITE,Study1,S,48,73,Study,User,-,,Study/JOL,"Study Phase",2984,,,-1,-1,,,,1
w990145ANH,nvgt4by37k,Nick_Dissertation_EX1,1,56,2020-05-01T11:13:52-07:00,1.1277899742126,1,versionA_stim.csv,READVersionA.csv,"Read Version A","Dissertation, read only version A",MEANING,DEFINITION,Study1,S,62,49,Study,User,-,,Study/JOL,"Study Phase",746,,,-1,-1,,,,1
w990145ANH,nvgt4by37k,Nick_Dissertation_EX1,1,57,2020-05-01T11:13:54-07:00,2.0339028835297,1,versionA_stim.csv,READVersionA.csv,"Read Version A","Dissertation, read only version A",DIGESTION,STOMACH,Study1,F,7,84,Study,User,-,,Study/JOL,"Study Phase",1555,,,-1,-1,,,,1
w990145ANH,nvgt4by37k,Nick_Dissertation_EX1,1,58,2020-05-01T11:13:55-07:00,1.1303889751434,1,versionA_stim.csv,READVersionA.csv,"Read Version A","Dissertation, read only version A",BRIDGE,WATER,Study1,F,18,68,Study,User,-,,Study/JOL,"Study Phase",851,,,-1,-1,,,,1
w990145ANH,nvgt4by37k,Nick_Dissertation_EX1,1,59,2020-05-01T11:13:57-07:00,2.4149880409241,1,versionA_stim.csv,READVersionA.csv,"Read Version A","Dissertation, read only version A",TUNA,FISH,Study1,F,25,11,Study,User,-,,Study/JOL,"Study Phase",2056,,,-1,-1,,,,1
w990145ANH,nvgt4by37k,Nick_Dissertation_EX1,1,60,2020-05-01T11:13:59-07:00,1.4872469902039,1,versionA_stim.csv,READVersionA.csv,"Read Version A","Dissertation, read only version A",ROOT,PLANT,Study1,F,13,34,Study,User,-,,Study/JOL,"Study Phase",1156,,,-1,-1,,,,1
w990145ANH,nvgt4by37k,Nick_Dissertation_EX1,1,61,2020-05-01T11:14:00-07:00,1.6986360549927,1,versionA_stim.csv,READVersionA.csv,"Read Version A","Dissertation, read only version A",ARTERY,BRONZE,Study1,U,74,58,Study,User,-,,Study/JOL,"Study Phase",1422,,,-1,-1,,,,1
w990145ANH,nvgt4by37k,Nick_Dissertation_EX1,1,62,2020-05-01T11:14:02-07:00,1.2324960231781,1,versionA_stim.csv,READVersionA.csv,"Read Version A","Dissertation, read only version A",WINE,CHEESE,Study1,S,57,7,Study,User,-,,Study/JOL,"Study Phase",968,,,-1,-1,,,,1
w990145ANH,nvgt4by37k,Nick_Dissertation_EX1,1,63,2020-05-01T11:14:06-07:00,4.16268491745,1,versionA_stim.csv,READVersionA.csv,"Read Version A","Dissertation, read only version A",BLOW,WIND,Study1,S,55,76,Study,User,-,,Study/JOL,"Study Phase",3893,,,-1,-1,,,,1
w990145ANH,nvgt4by37k,Nick_Dissertation_EX1,1,64,2020-05-01T11:14:08-07:00,2.255716085434,1,versionA_stim.csv,READVersionA.csv,"Read Version A","Dissertation, read only version A",DISCUSSION,TALK,Study1,F,21,63,Study,User,-,,Study/JOL,"Study Phase",1944,,,-1,-1,,,,1
w990145ANH,nvgt4by37k,Nick_Dissertation_EX1,1,65,2020-05-01T11:14:10-07:00,1.8395140171051,1,versionA_stim.csv,READVersionA.csv,"Read Version A","Dissertation, read only version A",BEGIN,END,Study1,S,54,30,Study,User,-,,Study/JOL,"Study Phase",1567,,,-1,-1,,,,1
w990145ANH,nvgt4by37k,Nick_Dissertation_EX1,1,66,2020-05-01T11:14:11-07:00,1.4429259300232,1,versionA_stim.csv,READVersionA.csv,"Read Version A","Dissertation, read only version A",FULL,ENOUGH,Study1,B,26,31,Study,User,-,,Study/JOL,"Study Phase",1179,,,-1,-1,,,,1
w990145ANH,nvgt4by37k,Nick_Dissertation_EX1,1,67,2020-05-01T11:14:13-07:00,1.44371509552,1,versionA_stim.csv,READVersionA.csv,"Read Version A","Dissertation, read only version A",KIDNEY,LIVER,Study1,S,53,51,Study,User,-,,Study/JOL,"Study Phase",1171,,,-1,-1,,,,1
w990145ANH,nvgt4by37k,Nick_Dissertation_EX1,1,68,2020-05-01T11:14:14-07:00,1.4276099205017,1,versionA_stim.csv,READVersionA.csv,"Read Version A","Dissertation, read only version A",FIRE,BLAZE,Study1,B,45,35,Study,User,-,,Study/JOL,"Study Phase",1146,,,-1,-1,,,,1
w990145ANH,nvgt4by37k,Nick_Dissertation_EX1,1,69,2020-05-01T11:14:16-07:00,1.6007571220398,1,versionA_stim.csv,READVersionA.csv,"Read Version A","Dissertation, read only version A",BALL,RACKET,Study1,B,38,24,Study,User,-,,Study/JOL,"Study Phase",1335,,,-1,-1,,,,1
w990145ANH,nvgt4by37k,Nick_Dissertation_EX1,1,70,2020-05-01T11:14:17-07:00,1.4213299751282,1,versionA_stim.csv,READVersionA.csv,"Read Version A","Dissertation, read only version A",HYGIENE,CLEAN,Study1,F,17,64,Study,User,-,,Study/JOL,"Study Phase",1121,,,-1,-1,,,,1
w990145ANH,nvgt4by37k,Nick_Dissertation_EX1,1,71,2020-05-01T11:14:19-07:00,2.0250828266144,1,versionA_stim.csv,READVersionA.csv,"Read Version A","Dissertation, read only version A",SUGAR,RIDDLE,Study1,U,81,42,Study,User,-,,Study/JOL,"Study Phase",1635,,,-1,-1,,,,1
w990145ANH,nvgt4by37k,Nick_Dissertation_EX1,1,72,2020-05-01T11:14:21-07:00,2.0440311431885,1,versionA_stim.csv,READVersionA.csv,"Read Version A","Dissertation, read only version A",REVOLUTION,WAR,Study1,F,20,59,Study,User,-,,Study/JOL,"Study Phase",1807,,,-1,-1,,,,1
w990145ANH,nvgt4by37k,Nick_Dissertation_EX1,1,73,2020-05-01T11:14:23-07:00,1.771164894104,1,versionA_stim.csv,READVersionA.csv,"Read Version A","Dissertation, read only version A",SENTENCE,WORD,Study1,B,31,54,Study,User,-,,Study/JOL,"Study Phase",1531,,,-1,-1,,,,1
w990145ANH,nvgt4by37k,Nick_Dissertation_EX1,1,74,2020-05-01T11:14:25-07:00,1.9105789661407,1,versionA_stim.csv,READVersionA.csv,"Read Version A","Dissertation, read only version A",TAKE,SEIZE,Study1,B,29,72,Study,User,-,,Study/JOL,"Study Phase",1666,,,-1,-1,,,,1
w990145ANH,nvgt4by37k,Nick_Dissertation_EX1,1,75,2020-05-01T11:14:27-07:00,1.6697511672974,1,versionA_stim.csv,READVersionA.csv,"Read Version A","Dissertation, read only version A",DARK,CAVE,Study1,B,28,32,Study,User,-,,Study/JOL,"Study Phase",1427,,,-1,-1,,,,1
w990145ANH,nvgt4by37k,Nick_Dissertation_EX1,1,76,2020-05-01T11:14:28-07:00,1.8083639144897,1,versionA_stim.csv,READVersionA.csv,"Read Version A","Dissertation, read only version A",CHISEL,HAMMER,Study1,F,9,77,Study,User,-,,Study/JOL,"Study Phase",1554,,,-1,-1,,,,1
w990145ANH,nvgt4by37k,Nick_Dissertation_EX1,1,77,2020-05-01T11:14:30-07:00,1.5481691360474,1,versionA_stim.csv,READVersionA.csv,"Read Version A","Dissertation, read only version A",HIDE,SICK,Study1,U,84,79,Study,User,-,,Study/JOL,"Study Phase",1264,,,-1,-1,,,,1
w990145ANH,nvgt4by37k,Nick_Dissertation_EX1,1,78,2020-05-01T11:14:32-07:00,1.8046789169312,1,versionA_stim.csv,READVersionA.csv,"Read Version A","Dissertation, read only version A",SLEEP,DROWSY,Study1,B,41,28,Study,User,-,,Study/JOL,"Study Phase",1417,,,-1,-1,,,,1
w990145ANH,nvgt4by37k,Nick_Dissertation_EX1,1,79,2020-05-01T11:14:34-07:00,2.0632688999176,1,versionA_stim.csv,READVersionA.csv,"Read Version A","Dissertation, read only version A",MACHINE,POSITION,Study1,U,76,61,Study,User,-,,Study/JOL,"Study Phase",1796,,,-1,-1,,,,1
w990145ANH,nvgt4by37k,Nick_Dissertation_EX1,1,80,2020-05-01T11:14:35-07:00,1.5387020111084,1,versionA_stim.csv,READVersionA.csv,"Read Version A","Dissertation, read only version A",SWAN,BIRD,Study1,F,14,38,Study,User,-,,Study/JOL,"Study Phase",1271,,,-1,-1,,,,1
w990145ANH,nvgt4by37k,Nick_Dissertation_EX1,1,81,2020-05-01T11:14:37-07:00,1.7608859539032,1,versionA_stim.csv,READVersionA.csv,"Read Version A","Dissertation, read only version A",ORCHID,FLOWER,Study1,F,24,66,Study,User,-,,Study/JOL,"Study Phase",1374,,,-1,-1,,,,1
w990145ANH,nvgt4by37k,Nick_Dissertation_EX1,1,82,2020-05-01T11:14:39-07:00,2.0397851467133,1,versionA_stim.csv,READVersionA.csv,"Read Version A","Dissertation, read only version A",BUG,WASP,Study1,B,32,86,Study,User,-,,Study/JOL,"Study Phase",1515,,,-1,-1,,,,1
w990145ANH,nvgt4by37k,Nick_Dissertation_EX1,1,83,2020-05-01T11:14:41-07:00,2.0574100017548,1,versionA_stim.csv,READVersionA.csv,"Read Version A","Dissertation, read only version A",GEOLOGY,ROCK,Study1,F,19,85,Study,User,-,,Study/JOL,"Study Phase",1751,,,-1,-1,,,,1
w990145ANH,nvgt4by37k,Nick_Dissertation_EX1,1,84,2020-05-01T11:14:43-07:00,1.7103378772736,1,versionA_stim.csv,READVersionA.csv,"Read Version A","Dissertation, read only version A",HERD,COW,Study1,F,22,46,Study,User,-,,Study/JOL,"Study Phase",1424,,,-1,-1,,,,1
w990145ANH,nvgt4by37k,Nick_Dissertation_EX1,1,85,2020-05-01T11:14:45-07:00,1.7514300346375,1,versionA_stim.csv,READVersionA.csv,"Read Version A","Dissertation, read only version A",HONEY,BEE,Study1,S,63,37,Study,User,-,,Study/JOL,"Study Phase",1470,,,-1,-1,,,,1
w990145ANH,nvgt4by37k,Nick_Dissertation_EX1,1,86,2020-05-01T11:14:47-07:00,2.4532680511475,1,versionA_stim.csv,READVersionA.csv,"Read Version A","Dissertation, read only version A",HORNET,STING,Study1,F,11,40,Study,User,-,,Study/JOL,"Study Phase",2154,,,-1,-1,,,,1
w990145ANH,nvgt4by37k,Nick_Dissertation_EX1,1,87,2020-05-01T11:14:50-07:00,2.9631679058075,1,versionA_stim.csv,READVersionA.csv,"Read Version A","Dissertation, read only version A",MALT,CHOCOLATE,BUFFER2,Buffer,88,87,Study,User,-,,Study/JOL,BUFFER2,2678,,,-1,-1,,,,1
w990145ANH,nvgt4by37k,Nick_Dissertation_EX1,1,88,2020-05-01T11:14:52-07:00,1.6375350952148,1,versionA_stim.csv,READVersionA.csv,"Read Version A","Dissertation, read only version A",GEESE,GOOSE,BUFFER2,Buffer,86,91,Study,User,-,,Study/JOL,BUFFER2,1347,,,-1,-1,,,,1
w990145ANH,nvgt4by37k,Nick_Dissertation_EX1,1,89,2020-05-01T11:14:54-07:00,1.8259129524231,1,versionA_stim.csv,READVersionA.csv,"Read Version A","Dissertation, read only version A",SHERRIF,POLICE,BUFFER2,Buffer,87,90,Study,User,-,,Study/JOL,BUFFER2,1507,,,-1,-1,,,,1
w990145ANH,nvgt4by37k,Nick_Dissertation_EX1,1,90,2020-05-01T11:14:55-07:00,1.7565190792084,1,versionA_stim.csv,READVersionA.csv,"Read Version A","Dissertation, read only version A",THING,STUFF,BUFFER2,Buffer,90,89,Study,User,-,,Study/JOL,BUFFER2,1475,,,-1,-1,,,,1
w990145ANH,nvgt4by37k,Nick_Dissertation_EX1,1,91,2020-05-01T11:14:58-07:00,2.5792949199677,1,versionA_stim.csv,READVersionA.csv,"Read Version A","Dissertation, read only version A",MOON,SPACE,BUFFER2,Buffer,89,88,Study,User,-,,Study/JOL,BUFFER2,2299,,,-1,-1,,,,1
w990145ANH,nvgt4by37k,Nick_Dissertation_EX1,1,92,2020-05-01T11:15:00-07:00,2.3457770347595,1,versionA_stim.csv,READVersionA.csv,"Read Version A","Dissertation, read only version A",,,,,,0,Instruct,User,-,"You have completed this section. Please press Enter.",Filler_Instruction,Instruct2,1917,,,-1,-1,,,,1
w990145ANH,nvgt4by37k,Nick_Dissertation_EX1,1,93,2020-05-01T11:17:01-07:00,120.49602603912,1,versionA_stim.csv,READVersionA.csv,"Read Version A","Dissertation, read only version A",,,,,,0,FreeRecall,120,120,"Please list the 50 US states in alphabetical order. The task will automatically advance to the next screen after two minutes.",,Filler1,120002,"Alabama Alaska Arkansas California Conneticut Delaware Georgia Idaho Illinois Iowa Kentucky Louisiana Maine Maryland Massachussets Mississippi Missouri New Hampshire New Mexico Oregon Pennsylvania",0,7166,119941,0,0,,1
w990145ANH,nvgt4by37k,Nick_Dissertation_EX1,1,94,2020-05-01T11:17:13-07:00,12.67449092865,1,versionA_stim.csv,READVersionA.csv,"Read Version A","Dissertation, read only version A",,,,,,0,Instruct,-,10,"You will now be presented with the first word from each of the previously studied item pairs. Please type the missing word. If you do not know the word, you may guess or press Enter to skip forward to the next pair.",,Instruct3,12290,,,-1,-1,,,,1
w990145ANH,nvgt4by37k,Nick_Dissertation_EX1,1,95,2020-05-01T11:17:16-07:00,2.6414330005646,1,versionA_stim.csv,READVersionA.csv,"Read Version A","Dissertation, read only version A",ART,LION,Study1,U,79,16,Test,User,-,,Recall,Recall1,2371,,0,-1,-1,0,0,,1
w990145ANH,nvgt4by37k,Nick_Dissertation_EX1,1,96,2020-05-01T11:17:20-07:00,3.5202670097351,1,versionA_stim.csv,READVersionA.csv,"Read Version A","Dissertation, read only version A",DELINQUENT,BAD,Study1,F,6,21,Test,User,-,,Recall,Recall1,3229,bad,100,1275,1516,1,1,,1
w990145ANH,nvgt4by37k,Nick_Dissertation_EX1,1,97,2020-05-01T11:17:24-07:00,4.24418592453,1,versionA_stim.csv,READVersionA.csv,"Read Version A","Dissertation, read only version A",CASH,WOULD,Study1,U,83,13,Test,User,-,,Recall,Recall1,3995,money,20,1610,2342,0,0,,1
w990145ANH,nvgt4by37k,Nick_Dissertation_EX1,1,98,2020-05-01T11:17:28-07:00,4.0684731006622,1,versionA_stim.csv,READVersionA.csv,"Read Version A","Dissertation, read only version A",BALL,RACKET,Study1,B,38,24,Test,User,-,,Recall,Recall1,3807,,0,-1,-1,0,0,,1
w990145ANH,nvgt4by37k,Nick_Dissertation_EX1,1,99,2020-05-01T11:17:32-07:00,4.0606610774994,1,versionA_stim.csv,READVersionA.csv,"Read Version A","Dissertation, read only version A",HIDE,SICK,Study1,U,84,79,Test,User,-,,Recall,Recall1,3793,scare,44.444444444444,1468,2141,0,0,,1
w990145ANH,nvgt4by37k,Nick_Dissertation_EX1,1,100,2020-05-01T11:17:34-07:00,1.9445538520813,1,versionA_stim.csv,READVersionA.csv,"Read Version A","Dissertation, read only version A",GREAT,FANTASTIC,Study1,B,35,18,Test,User,-,,Recall,Recall1,1618,,0,-1,-1,0,0,,1
w990145ANH,nvgt4by37k,Nick_Dissertation_EX1,1,101,2020-05-01T11:17:39-07:00,5.0509550571442,1,versionA_stim.csv,READVersionA.csv,"Read Version A","Dissertation, read only version A",KEY,LATCH,Study1,B,36,48,Test,User,-,,Recall,Recall1,4692,latch,100,2466,3201,1,1,,1
w990145ANH,nvgt4by37k,Nick_Dissertation_EX1,1,102,2020-05-01T11:17:47-07:00,8.0836510658264,1,versionA_stim.csv,READVersionA.csv,"Read Version A","Dissertation, read only version A",DIGESTION,STOMACH,Study1,F,7,84,Test,User,-,,Recall,Recall1,7674,stomach,100,1307,6454,1,1,,1
w990145ANH,nvgt4by37k,Nick_Dissertation_EX1,1,103,2020-05-01T11:17:52-07:00,4.8661248683929,1,versionA_stim.csv,READVersionA.csv,"Read Version A","Dissertation, read only version A",PAW,DOG,Study1,F,15,8,Test,User,-,,Recall,Recall1,4576,dog,100,1905,3160,1,1,,1
w990145ANH,nvgt4by37k,Nick_Dissertation_EX1,1,104,2020-05-01T11:17:54-07:00,1.884514093399,1,versionA_stim.csv,READVersionA.csv,"Read Version A","Dissertation, read only version A",DRINK,SIP,Study1,B,27,33,Test,User,-,,Recall,Recall1,1597,,0,-1,-1,0,0,,1
w990145ANH,nvgt4by37k,Nick_Dissertation_EX1,1,105,2020-05-01T11:17:57-07:00,3.4665598869324,1,versionA_stim.csv,READVersionA.csv,"Read Version A","Dissertation, read only version A",TUNA,FISH,Study1,F,25,11,Test,User,-,,Recall,Recall1,3122,fish,100,1330,1799,1,1,,1
w990145ANH,nvgt4by37k,Nick_Dissertation_EX1,1,106,2020-05-01T11:17:59-07:00,2.2042951583862,1,versionA_stim.csv,READVersionA.csv,"Read Version A","Dissertation, read only version A",LOCATION,SITE,Study1,S,48,73,Test,User,-,,Recall,Recall1,1475,,0,-1,-1,0,0,,1
w990145ANH,nvgt4by37k,Nick_Dissertation_EX1,1,107,2020-05-01T11:18:02-07:00,2.5350148677826,1,versionA_stim.csv,READVersionA.csv,"Read Version A","Dissertation, read only version A",MEANING,DEFINITION,Study1,S,62,49,Test,User,-,,Recall,Recall1,2128,,0,-1,-1,0,0,,1
w990145ANH,nvgt4by37k,Nick_Dissertation_EX1,1,108,2020-05-01T11:18:06-07:00,3.8258390426636,1,versionA_stim.csv,READVersionA.csv,"Read Version A","Dissertation, read only version A",PAST,FUTURE,Study1,S,61,56,Test,User,-,,Recall,Recall1,3415,future,100,1311,2030,1,1,,1
w990145ANH,nvgt4by37k,Nick_Dissertation_EX1,1,109,2020-05-01T11:18:08-07:00,1.7472159862518,1,versionA_stim.csv,READVersionA.csv,"Read Version A","Dissertation, read only version A",DISCOVER,FLOOR,Study1,U,71,41,Test,User,-,,Recall,Recall1,1458,,0,-1,-1,0,0,,1
w990145ANH,nvgt4by37k,Nick_Dissertation_EX1,1,110,2020-05-01T11:18:11-07:00,3.5106339454651,1,versionA_stim.csv,READVersionA.csv,"Read Version A","Dissertation, read only version A",ORCHID,FLOWER,Study1,F,24,66,Test,User,-,,Recall,Recall1,3233,flower,100,1113,1838,1,1,,1
w990145ANH,nvgt4by37k,Nick_Dissertation_EX1,1,111,2020-05-01T11:18:12-07:00,1.4287891387939,1,versionA_stim.csv,READVersionA.csv,"Read Version A","Dissertation, read only version A",REVOLUTION,WAR,Study1,F,20,59,Test,User,-,,Recall,Recall1,1121,,0,-1,-1,0,0,,1
w990145ANH,nvgt4by37k,Nick_Dissertation_EX1,1,112,2020-05-01T11:18:14-07:00,1.4722619056702,1,versionA_stim.csv,READVersionA.csv,"Read Version A","Dissertation, read only version A",SLEEP,DROWSY,Study1,B,41,28,Test,User,-,,Recall,Recall1,1186,,0,-1,-1,0,0,,1
w990145ANH,nvgt4by37k,Nick_Dissertation_EX1,1,113,2020-05-01T11:18:16-07:00,1.7527451515198,1,versionA_stim.csv,READVersionA.csv,"Read Version A","Dissertation, read only version A",VALLEY,ADD,Study1,U,82,15,Test,User,-,,Recall,Recall1,1412,,0,-1,-1,0,0,,1
w990145ANH,nvgt4by37k,Nick_Dissertation_EX1,1,114,2020-05-01T11:18:23-07:00,6.9853518009186,1,versionA_stim.csv,READVersionA.csv,"Read Version A","Dissertation, read only version A",ARTERY,BRONZE,Study1,U,74,58,Test,User,-,,Recall,Recall1,6492,bronze,100,1388,4573,1,1,,1
w990145ANH,nvgt4by37k,Nick_Dissertation_EX1,1,115,2020-05-01T11:18:24-07:00,1.2847721576691,1,versionA_stim.csv,READVersionA.csv,"Read Version A","Dissertation, read only version A",CIRCLE,ROUND,Study1,S,65,57,Test,User,-,,Recall,Recall1,1004,,0,-1,-1,0,0,,1
w990145ANH,nvgt4by37k,Nick_Dissertation_EX1,1,116,2020-05-01T11:18:25-07:00,1.3527410030365,1,versionA_stim.csv,READVersionA.csv,"Read Version A","Dissertation, read only version A",FIRE,BLAZE,Study1,B,45,35,Test,User,-,,Recall,Recall1,1068,,0,-1,-1,0,0,,1
w990145ANH,nvgt4by37k,Nick_Dissertation_EX1,1,117,2020-05-01T11:18:27-07:00,1.4704189300537,1,versionA_stim.csv,READVersionA.csv,"Read Version A","Dissertation, read only version A",LIFT,WOMAN,Study1,U,69,71,Test,User,-,,Recall,Recall1,1198,,0,-1,-1,0,0,,1
w990145ANH,nvgt4by37k,Nick_Dissertation_EX1,1,118,2020-05-01T11:18:28-07:00,1.4603979587555,1,versionA_stim.csv,READVersionA.csv,"Read Version A","Dissertation, read only version A",WAGE,MONEY,Study1,F,8,82,Test,User,-,,Recall,Recall1,1165,,0,-1,-1,0,0,,1
w990145ANH,nvgt4by37k,Nick_Dissertation_EX1,1,119,2020-05-01T11:18:30-07:00,1.7696690559387,1,versionA_stim.csv,READVersionA.csv,"Read Version A","Dissertation, read only version A",BABY,CHILD,Study1,S,64,9,Test,User,-,,Recall,Recall1,1483,,0,-1,-1,0,0,,1
w990145ANH,nvgt4by37k,Nick_Dissertation_EX1,1,120,2020-05-01T11:18:31-07:00,1.3118860721588,1,versionA_stim.csv,READVersionA.csv,"Read Version A","Dissertation, read only version A",MATH,DIVISION,Study1,B,33,67,Test,User,-,,Recall,Recall1,981,,0,-1,-1,0,0,,1
w990145ANH,nvgt4by37k,Nick_Dissertation_EX1,1,121,2020-05-01T11:18:33-07:00,1.4666810035706,1,versionA_stim.csv,READVersionA.csv,"Read Version A","Dissertation, read only version A",BITTER,COLD,Study1,F,12,43,Test,User,-,,Recall,Recall1,1162,,0,-1,-1,0,0,,1
w990145ANH,nvgt4by37k,Nick_Dissertation_EX1,1,122,2020-05-01T11:18:39-07:00,5.7542049884796,1,versionA_stim.csv,READVersionA.csv,"Read Version A","Dissertation, read only version A",ROOT,PLANT,Study1,F,13,34,Test,User,-,,Recall,Recall1,5447,grow,0,1938,3264,0,0,,1
w990145ANH,nvgt4by37k,Nick_Dissertation_EX1,1,123,2020-05-01T11:18:40-07:00,1.2529468536377,1,versionA_stim.csv,READVersionA.csv,"Read Version A","Dissertation, read only version A",WAY,OUT,Study1,F,16,17,Test,User,-,,Recall,Recall1,967,,0,-1,-1,0,0,,1
w990145ANH,nvgt4by37k,Nick_Dissertation_EX1,1,124,2020-05-01T11:18:42-07:00,1.829891204834,1,versionA_stim.csv,READVersionA.csv,"Read Version A","Dissertation, read only version A",HOT,CHILI,Study1,B,37,62,Test,User,-,,Recall,Recall1,1534,,0,-1,-1,0,0,,1
w990145ANH,nvgt4by37k,Nick_Dissertation_EX1,1,125,2020-05-01T11:18:44-07:00,1.9209859371185,1,versionA_stim.csv,READVersionA.csv,"Read Version A","Dissertation, read only version A",BRIDGE,WATER,Study1,F,18,68,Test,User,-,,Recall,Recall1,1624,,0,-1,-1,0,0,,1
w990145ANH,nvgt4by37k,Nick_Dissertation_EX1,1,126,2020-05-01T11:18:48-07:00,4.5038230419159,1,versionA_stim.csv,READVersionA.csv,"Read Version A","Dissertation, read only version A",GRILL,BAR,Study1,S,52,27,Test,User,-,,Recall,Recall1,4189,bar,100,1846,2864,1,1,,1
w990145ANH,nvgt4by37k,Nick_Dissertation_EX1,1,127,2020-05-01T11:18:49-07:00,1.4161868095398,1,versionA_stim.csv,READVersionA.csv,"Read Version A","Dissertation, read only version A",HUNGER,FAMINE,Study1,B,40,52,Test,User,-,,Recall,Recall1,1135,,0,-1,-1,0,0,,1
w990145ANH,nvgt4by37k,Nick_Dissertation_EX1,1,128,2020-05-01T11:18:53-07:00,3.1462211608887,1,versionA_stim.csv,READVersionA.csv,"Read Version A","Dissertation, read only version A",HERD,COW,Study1,F,22,46,Test,User,-,,Recall,Recall1,2879,cow,100,1311,1525,1,1,,1
w990145ANH,nvgt4by37k,Nick_Dissertation_EX1,1,129,2020-05-01T11:18:57-07:00,4.2246990203857,1,versionA_stim.csv,READVersionA.csv,"Read Version A","Dissertation, read only version A",GEOLOGY,ROCK,Study1,F,19,85,Test,User,-,,Recall,Recall1,3962,rock,100,1062,2635,1,1,,1
w990145ANH,nvgt4by37k,Nick_Dissertation_EX1,1,130,2020-05-01T11:19:01-07:00,4.6604108810425,1,versionA_stim.csv,READVersionA.csv,"Read Version A","Dissertation, read only version A",PLANE,PILOT,Study1,B,44,36,Test,User,-,,Recall,Recall1,3314,pilot,100,1188,1990,1,1,,1
w990145ANH,nvgt4by37k,Nick_Dissertation_EX1,1,131,2020-05-01T11:19:04-07:00,2.5024521350861,1,versionA_stim.csv,READVersionA.csv,"Read Version A","Dissertation, read only version A",SOON,BELT,Study1,U,70,39,Test,User,-,,Recall,Recall1,1976,,0,-1,-1,0,0,,1
w990145ANH,nvgt4by37k,Nick_Dissertation_EX1,1,132,2020-05-01T11:19:09-07:00,5.110013961792,1,versionA_stim.csv,READVersionA.csv,"Read Version A","Dissertation, read only version A",LETTUCE,SALAD,Study1,S,59,74,Test,User,-,,Recall,Recall1,4764,salad,100,1910,3180,1,1,,1
w990145ANH,nvgt4by37k,Nick_Dissertation_EX1,1,133,2020-05-01T11:19:13-07:00,3.6210029125214,1,versionA_stim.csv,READVersionA.csv,"Read Version A","Dissertation, read only version A",CHISEL,HAMMER,Study1,F,9,77,Test,User,-,,Recall,Recall1,3344,hammer,100,1415,1969,1,1,,1
w990145ANH,nvgt4by37k,Nick_Dissertation_EX1,1,134,2020-05-01T11:19:22-07:00,9.1955819129944,1,versionA_stim.csv,READVersionA.csv,"Read Version A","Dissertation, read only version A",PUSHER,CLUTTER,Study1,U,66,10,Test,User,-,,Recall,Recall1,8901,clutter,100,6328,7585,1,1,,1
w990145ANH,nvgt4by37k,Nick_Dissertation_EX1,1,135,2020-05-01T11:19:24-07:00,2.0692191123962,1,versionA_stim.csv,READVersionA.csv,"Read Version A","Dissertation, read only version A",FULL,ENOUGH,Study1,B,26,31,Test,User,-,,Recall,Recall1,1750,,0,-1,-1,0,0,,1
w990145ANH,nvgt4by37k,Nick_Dissertation_EX1,1,136,2020-05-01T11:19:28-07:00,3.9694941043854,1,versionA_stim.csv,READVersionA.csv,"Read Version A","Dissertation, read only version A",NUMBER,AMOUNT,Study1,S,47,23,Test,User,-,,Recall,Recall1,3636,amount,100,1408,2259,1,1,,1
w990145ANH,nvgt4by37k,Nick_Dissertation_EX1,1,137,2020-05-01T11:19:30-07:00,2.4252870082855,1,versionA_stim.csv,READVersionA.csv,"Read Version A","Dissertation, read only version A",BEGIN,END,Study1,S,54,30,Test,User,-,,Recall,Recall1,1098,,0,-1,-1,0,0,,1
w990145ANH,nvgt4by37k,Nick_Dissertation_EX1,1,138,2020-05-01T11:19:32-07:00,1.4447989463806,1,versionA_stim.csv,READVersionA.csv,"Read Version A","Dissertation, read only version A",ALLOW,TUCK,Study1,U,78,25,Test,User,-,,Recall,Recall1,1035,,0,-1,-1,0,0,,1
w990145ANH,nvgt4by37k,Nick_Dissertation_EX1,1,139,2020-05-01T11:19:35-07:00,3.5520298480988,1,versionA_stim.csv,READVersionA.csv,"Read Version A","Dissertation, read only version A",HORNET,STING,Study1,F,11,40,Test,User,-,,Recall,Recall1,3250,sting,100,1242,2010,1,1,,1
w990145ANH,nvgt4by37k,Nick_Dissertation_EX1,1,140,2020-05-01T11:19:37-07:00,1.3862512111664,1,versionA_stim.csv,READVersionA.csv,"Read Version A","Dissertation, read only version A",BLOW,WIND,Study1,S,55,76,Test,User,-,,Recall,Recall1,1085,,0,-1,-1,0,0,,1
w990145ANH,nvgt4by37k,Nick_Dissertation_EX1,1,141,2020-05-01T11:19:39-07:00,1.9118399620056,1,versionA_stim.csv,READVersionA.csv,"Read Version A","Dissertation, read only version A",LAW,ATTORNEY,Study1,B,34,75,Test,User,-,,Recall,Recall1,1554,,0,-1,-1,0,0,,1
w990145ANH,nvgt4by37k,Nick_Dissertation_EX1,1,142,2020-05-01T11:19:43-07:00,4.2269020080566,1,versionA_stim.csv,READVersionA.csv,"Read Version A","Dissertation, read only version A",WINE,CHEESE,Study1,S,57,7,Test,User,-,,Recall,Recall1,3929,cheese,100,1336,2487,1,1,,1
w990145ANH,nvgt4by37k,Nick_Dissertation_EX1,1,143,2020-05-01T11:19:55-07:00,12.313139915466,1,versionA_stim.csv,READVersionA.csv,"Read Version A","Dissertation, read only version A",DUE,ASSIGNMENT,Study1,S,46,19,Test,User,-,,Recall,Recall1,11980,assignment,100,1960,10552,1,1,,1
w990145ANH,nvgt4by37k,Nick_Dissertation_EX1,1,144,2020-05-01T11:19:59-07:00,3.8814699649811,1,versionA_stim.csv,READVersionA.csv,"Read Version A","Dissertation, read only version A",BATHROOM,TOILET,Study1,S,58,65,Test,User,-,,Recall,Recall1,3557,toilet,100,1641,2368,1,1,,1
w990145ANH,nvgt4by37k,Nick_Dissertation_EX1,1,145,2020-05-01T11:20:04-07:00,4.5885620117188,1,versionA_stim.csv,READVersionA.csv,"Read Version A","Dissertation, read only version A",SUGAR,RIDDLE,Study1,U,81,42,Test,User,-,,Recall,Recall1,3363,,0,-1,-1,0,0,,1
w990145ANH,nvgt4by37k,Nick_Dissertation_EX1,1,146,2020-05-01T11:20:08-07:00,4.0525901317596,1,versionA_stim.csv,READVersionA.csv,"Read Version A","Dissertation, read only version A",HONEY,BEE,Study1,S,63,37,Test,User,-,,Recall,Recall1,2727,bee,100,1173,1546,1,1,,1
w990145ANH,nvgt4by37k,Nick_Dissertation_EX1,1,147,2020-05-01T11:20:12-07:00,4.0194389820099,1,versionA_stim.csv,READVersionA.csv,"Read Version A","Dissertation, read only version A",KING,VASE,Study1,U,85,26,Test,User,-,,Recall,Recall1,3364,queen,22.222222222222,1671,2177,0,0,,1
w990145ANH,nvgt4by37k,Nick_Dissertation_EX1,1,148,2020-05-01T11:20:13-07:00,1.4226229190826,1,versionA_stim.csv,READVersionA.csv,"Read Version A","Dissertation, read only version A",HAPPY,CAR,Study1,U,77,50,Test,User,-,,Recall,Recall1,1108,,0,-1,-1,0,0,,1
w990145ANH,nvgt4by37k,Nick_Dissertation_EX1,1,149,2020-05-01T11:20:19-07:00,6.1213040351868,1,versionA_stim.csv,READVersionA.csv,"Read Version A","Dissertation, read only version A",DEBATE,SIGHT,Study1,U,73,81,Test,User,-,,Recall,Recall1,5752,soon,22.222222222222,2143,3530,0,0,,1
w990145ANH,nvgt4by37k,Nick_Dissertation_EX1,1,150,2020-05-01T11:20:23-07:00,3.3539409637451,1,versionA_stim.csv,READVersionA.csv,"Read Version A","Dissertation, read only version A",TRIAL,JURY,Study1,S,50,14,Test,User,-,,Recall,Recall1,920,,0,-1,-1,0,0,,1
w990145ANH,nvgt4by37k,Nick_Dissertation_EX1,1,151,2020-05-01T11:20:25-07:00,2.3189189434052,1,versionA_stim.csv,READVersionA.csv,"Read Version A","Dissertation, read only version A",STRONG,ACCIDENT,Study1,U,80,29,Test,User,-,,Recall,Recall1,1920,,0,-1,-1,0,0,,1
w990145ANH,nvgt4by37k,Nick_Dissertation_EX1,1,152,2020-05-01T11:20:27-07:00,1.7987260818481,1,versionA_stim.csv,READVersionA.csv,"Read Version A","Dissertation, read only version A",DIETARY,SACKING,Study1,U,67,44,Test,User,-,,Recall,Recall1,1538,,0,-1,-1,0,0,,1
w990145ANH,nvgt4by37k,Nick_Dissertation_EX1,1,153,2020-05-01T11:20:31-07:00,4.4359729290009,1,versionA_stim.csv,READVersionA.csv,"Read Version A","Dissertation, read only version A",SENTENCE,WORD,Study1,B,31,54,Test,User,-,,Recall,Recall1,3092,word,100,1472,1931,1,1,,1
w990145ANH,nvgt4by37k,Nick_Dissertation_EX1,1,154,2020-05-01T11:20:35-07:00,3.6871259212494,1,versionA_stim.csv,READVersionA.csv,"Read Version A","Dissertation, read only version A",KIDNEY,LIVER,Study1,S,53,51,Test,User,-,,Recall,Recall1,3386,liver,100,1066,2195,1,1,,1
w990145ANH,nvgt4by37k,Nick_Dissertation_EX1,1,155,2020-05-01T11:20:37-07:00,2.0683970451355,1,versionA_stim.csv,READVersionA.csv,"Read Version A","Dissertation, read only version A",SWAN,BIRD,Study1,F,14,38,Test,User,-,,Recall,Recall1,1780,,0,-1,-1,0,0,,1
w990145ANH,nvgt4by37k,Nick_Dissertation_EX1,1,156,2020-05-01T11:20:41-07:00,3.8813560009003,1,versionA_stim.csv,READVersionA.csv,"Read Version A","Dissertation, read only version A",WORK,CHORE,Study1,B,39,12,Test,User,-,,Recall,Recall1,3607,chore,100,1866,2358,1,1,,1
w990145ANH,nvgt4by37k,Nick_Dissertation_EX1,1,157,2020-05-01T11:20:43-07:00,1.7635929584503,1,versionA_stim.csv,READVersionA.csv,"Read Version A","Dissertation, read only version A",EDITOR,NEWS,Study1,F,10,70,Test,User,-,,Recall,Recall1,1468,,0,-1,-1,0,0,,1
w990145ANH,nvgt4by37k,Nick_Dissertation_EX1,1,158,2020-05-01T11:20:44-07:00,1.7867112159729,1,versionA_stim.csv,READVersionA.csv,"Read Version A","Dissertation, read only version A",HYGIENE,CLEAN,Study1,F,17,64,Test,User,-,,Recall,Recall1,1507,,0,-1,-1,0,0,,1
w990145ANH,nvgt4by37k,Nick_Dissertation_EX1,1,159,2020-05-01T11:20:46-07:00,1.7686569690704,1,versionA_stim.csv,READVersionA.csv,"Read Version A","Dissertation, read only version A",HEIGHT,GROWTH,Study1,B,30,78,Test,User,-,,Recall,Recall1,1463,,0,-1,-1,0,0,,1
w990145ANH,nvgt4by37k,Nick_Dissertation_EX1,1,160,2020-05-01T11:20:48-07:00,1.9700849056244,1,versionA_stim.csv,READVersionA.csv,"Read Version A","Dissertation, read only version A",SMELL,STENCH,Study1,B,42,22,Test,User,-,,Recall,Recall1,1698,,0,-1,-1,0,0,,1
w990145ANH,nvgt4by37k,Nick_Dissertation_EX1,1,161,2020-05-01T11:20:50-07:00,1.550626039505,1,versionA_stim.csv,READVersionA.csv,"Read Version A","Dissertation, read only version A",DISCUSSION,TALK,Study1,F,21,63,Test,User,-,,Recall,Recall1,1195,,0,-1,-1,0,0,,1
w990145ANH,nvgt4by37k,Nick_Dissertation_EX1,1,162,2020-05-01T11:20:53-07:00,3.3290910720825,1,versionA_stim.csv,READVersionA.csv,"Read Version A","Dissertation, read only version A",BUG,WASP,Study1,B,32,86,Test,User,-,,Recall,Recall1,2970,,0,-1,-1,0,0,,1
w990145ANH,nvgt4by37k,Nick_Dissertation_EX1,1,163,2020-05-01T11:20:54-07:00,1.4099059104919,1,versionA_stim.csv,READVersionA.csv,"Read Version A","Dissertation, read only version A",CLOTHES,ATTIRE,Study1,B,43,69,Test,User,-,,Recall,Recall1,1030,,0,-1,-1,0,0,,1
w990145ANH,nvgt4by37k,Nick_Dissertation_EX1,1,164,2020-05-01T11:20:56-07:00,1.8480219841003,1,versionA_stim.csv,READVersionA.csv,"Read Version A","Dissertation, read only version A",PARK,HUNGRY,Study1,U,68,47,Test,User,-,,Recall,Recall1,1540,,0,-1,-1,0,0,,1
w990145ANH,nvgt4by37k,Nick_Dissertation_EX1,1,165,2020-05-01T11:20:58-07:00,1.5750589370728,1,versionA_stim.csv,READVersionA.csv,"Read Version A","Dissertation, read only version A",CREDIT,CARD,Study1,F,23,45,Test,User,-,,Recall,Recall1,1294,,0,-1,-1,0,0,,1
w990145ANH,nvgt4by37k,Nick_Dissertation_EX1,1,166,2020-05-01T11:20:59-07:00,1.4285390377045,1,versionA_stim.csv,READVersionA.csv,"Read Version A","Dissertation, read only version A",SHOE,FOOT,Study1,S,60,20,Test,User,-,,Recall,Recall1,1139,,0,-1,-1,0,0,,1
w990145ANH,nvgt4by37k,Nick_Dissertation_EX1,1,167,2020-05-01T11:21:01-07:00,1.7784030437469,1,versionA_stim.csv,READVersionA.csv,"Read Version A","Dissertation, read only version A",ARCHITECTURE,DESIGN,Study1,S,51,80,Test,User,-,,Recall,Recall1,1495,,0,-1,-1,0,0,,1
w990145ANH,nvgt4by37k,Nick_Dissertation_EX1,1,168,2020-05-01T11:21:03-07:00,1.9151110649109,1,versionA_stim.csv,READVersionA.csv,"Read Version A","Dissertation, read only version A",DEATH,BUSINESS,Study1,U,72,83,Test,User,-,,Recall,Recall1,1612,,0,-1,-1,0,0,,1
w990145ANH,nvgt4by37k,Nick_Dissertation_EX1,1,169,2020-05-01T11:21:04-07:00,1.286700963974,1,versionA_stim.csv,READVersionA.csv,"Read Version A","Dissertation, read only version A",FIX,HAND,Study1,U,75,53,Test,User,-,,Recall,Recall1,930,,0,-1,-1,0,0,,1
w990145ANH,nvgt4by37k,Nick_Dissertation_EX1,1,170,2020-05-01T11:21:06-07:00,1.8067710399628,1,versionA_stim.csv,READVersionA.csv,"Read Version A","Dissertation, read only version A",MACHINE,POSITION,Study1,U,76,61,Test,User,-,,Recall,Recall1,1507,,0,-1,-1,0,0,,1
w990145ANH,nvgt4by37k,Nick_Dissertation_EX1,1,171,2020-05-01T11:21:10-07:00,4.2391929626465,1,versionA_stim.csv,READVersionA.csv,"Read Version A","Dissertation, read only version A",DUMP,WASTE,Study1,S,49,55,Test,User,-,,Recall,Recall1,3957,,0,-1,-1,0,0,,1
w990145ANH,nvgt4by37k,Nick_Dissertation_EX1,1,172,2020-05-01T11:21:12-07:00,1.3214509487152,1,versionA_stim.csv,READVersionA.csv,"Read Version A","Dissertation, read only version A",TAKE,SEIZE,Study1,B,29,72,Test,User,-,,Recall,Recall1,1025,,0,-1,-1,0,0,,1
w990145ANH,nvgt4by37k,Nick_Dissertation_EX1,1,173,2020-05-01T11:21:13-07:00,1.6546549797058,1,versionA_stim.csv,READVersionA.csv,"Read Version A","Dissertation, read only version A",DARK,CAVE,Study1,B,28,32,Test,User,-,,Recall,Recall1,1234,,0,-1,-1,0,0,,1
w990145ANH,nvgt4by37k,Nick_Dissertation_EX1,1,174,2020-05-01T11:21:17-07:00,3.9577519893646,1,versionA_stim.csv,READVersionA.csv,"Read Version A","Dissertation, read only version A",POP,SODA,Study1,S,56,60,Test,User,-,,Recall,Recall1,3657,soda,100,1335,2459,1,1,,1
w990145ANH,nvgt4by37k,Nick_Dissertation_EX1,1,175,2020-05-01T11:21:29-07:00,11.44345498085,1,versionA_stim.csv,READVersionA.csv,"Read Version A","Dissertation, read only version A",,,,,,0,Instruct,-,10,"You will now be presented with a new set of word pairs. Please study each pair. Remember that your memory will be tested! When finished, press Enter to move to the next pair.",Initial_Instruct,Instruct4,11081,,,-1,-1,,,,1
w990145ANH,nvgt4by37k,Nick_Dissertation_EX1,1,176,2020-05-01T11:21:46-07:00,17.12029504776,1,versionA_stim.csv,READVersionA.csv,"Read Version A","Dissertation, read only version A",CARROT,POTATO,BUFFER3,Buffer,91,95,Study,User,-,,Study/JOL,BUFFER3,16749,,,-1,-1,,,,1
w990145ANH,nvgt4by37k,Nick_Dissertation_EX1,1,177,2020-05-01T11:21:48-07:00,2.2057299613953,1,versionA_stim.csv,READVersionA.csv,"Read Version A","Dissertation, read only version A",NOODLE,STRING,BUFFER3,Buffer,92,94,Study,User,-,,Study/JOL,BUFFER3,1856,,,-1,-1,,,,1
w990145ANH,nvgt4by37k,Nick_Dissertation_EX1,1,178,2020-05-01T11:21:51-07:00,3.1779479980469,1,versionA_stim.csv,READVersionA.csv,"Read Version A","Dissertation, read only version A",ICE,FROZEN,BUFFER3,Buffer,94,96,Study,User,-,,Study/JOL,BUFFER3,2808,,,-1,-1,,,,1
w990145ANH,nvgt4by37k,Nick_Dissertation_EX1,1,179,2020-05-01T11:21:53-07:00,1.5400161743164,1,versionA_stim.csv,READVersionA.csv,"Read Version A","Dissertation, read only version A",SHRIMP,FISH,BUFFER3,Buffer,93,93,Study,User,-,,Study/JOL,BUFFER3,1267,,,-1,-1,,,,1
w990145ANH,nvgt4by37k,Nick_Dissertation_EX1,1,180,2020-05-01T11:21:57-07:00,3.8235189914703,1,versionA_stim.csv,READVersionA.csv,"Read Version A","Dissertation, read only version A",CAMP,ADVENTURE,BUFFER3,Buffer,95,92,Study,User,-,,Study/JOL,BUFFER3,3549,,,-1,-1,,,,1
w990145ANH,nvgt4by37k,Nick_Dissertation_EX1,1,181,2020-05-01T11:21:58-07:00,1.9225800037384,1,versionA_stim.csv,READVersionA.csv,"Read Version A","Dissertation, read only version A",BAD,VILLAIN,Study2,B,118,132,Study,User,-,,Study/JOL,"Study Phase2",1660,,,-1,-1,,,,1
w990145ANH,nvgt4by37k,Nick_Dissertation_EX1,1,182,2020-05-01T11:22:00-07:00,1.4750018119812,1,versionA_stim.csv,READVersionA.csv,"Read Version A","Dissertation, read only version A",FEUD,FIGHT,Study2,F,113,157,Study,User,-,,Study/JOL,"Study Phase2",1207,,,-1,-1,,,,1
w990145ANH,nvgt4by37k,Nick_Dissertation_EX1,1,183,2020-05-01T11:22:02-07:00,2.1994171142578,1,versionA_stim.csv,READVersionA.csv,"Read Version A","Dissertation, read only version A",BIRD,PENGUIN,Study2,B,119,109,Study,User,-,,Study/JOL,"Study Phase2",1904,,,-1,-1,,,,1
w990145ANH,nvgt4by37k,Nick_Dissertation_EX1,1,184,2020-05-01T11:22:04-07:00,1.5726840496063,1,versionA_stim.csv,READVersionA.csv,"Read Version A","Dissertation, read only version A",SAFETY,SEATBELT,Study2,S,147,143,Study,User,-,,Study/JOL,"Study Phase2",1244,,,-1,-1,,,,1
w990145ANH,nvgt4by37k,Nick_Dissertation_EX1,1,185,2020-05-01T11:22:06-07:00,2.0230469703674,1,versionA_stim.csv,READVersionA.csv,"Read Version A","Dissertation, read only version A",BEST,FAVORITE,Study2,B,125,111,Study,User,-,,Study/JOL,"Study Phase2",1717,,,-1,-1,,,,1
w990145ANH,nvgt4by37k,Nick_Dissertation_EX1,1,186,2020-05-01T11:22:08-07:00,1.8486340045929,1,versionA_stim.csv,READVersionA.csv,"Read Version A","Dissertation, read only version A",LITTER,TRASH,Study2,F,103,112,Study,User,-,,Study/JOL,"Study Phase2",1281,,,-1,-1,,,,1
w990145ANH,nvgt4by37k,Nick_Dissertation_EX1,1,187,2020-05-01T11:22:09-07:00,1.3169679641724,1,versionA_stim.csv,READVersionA.csv,"Read Version A","Dissertation, read only version A",FIGHT,BRAWL,Study2,B,135,170,Study,User,-,,Study/JOL,"Study Phase2",1014,,,-1,-1,,,,1
w990145ANH,nvgt4by37k,Nick_Dissertation_EX1,1,188,2020-05-01T11:22:11-07:00,1.742910861969,1,versionA_stim.csv,READVersionA.csv,"Read Version A","Dissertation, read only version A",DETECTIVE,MYSTERY,Study2,F,100,106,Study,User,-,,Study/JOL,"Study Phase2",1217,,,-1,-1,,,,1
w990145ANH,nvgt4by37k,Nick_Dissertation_EX1,1,189,2020-05-01T11:22:13-07:00,2.1076610088348,1,versionA_stim.csv,READVersionA.csv,"Read Version A","Dissertation, read only version A",SCALP,HEAD,Study2,F,105,148,Study,User,-,,Study/JOL,"Study Phase2",1713,,,-1,-1,,,,1
w990145ANH,nvgt4by37k,Nick_Dissertation_EX1,1,190,2020-05-01T11:22:31-07:00,17.861209154129,1,versionA_stim.csv,READVersionA.csv,"Read Version A","Dissertation, read only version A",MULE,DONKEY,Study2,F,108,144,Study,User,-,,Study/JOL,"Study Phase2",1897,,,-1,-1,,,,1
w990145ANH,nvgt4by37k,Nick_Dissertation_EX1,1,191,2020-05-01T11:22:32-07:00,1.3171849250793,1,versionA_stim.csv,READVersionA.csv,"Read Version A","Dissertation, read only version A",FRUIT,STRAWBERRY,Study2,B,124,171,Study,User,-,,Study/JOL,"Study Phase2",1015,,,-1,-1,,,,1
w990145ANH,nvgt4by37k,Nick_Dissertation_EX1,1,192,2020-05-01T11:22:34-07:00,1.6068849563599,1,versionA_stim.csv,READVersionA.csv,"Read Version A","Dissertation, read only version A",DINE,EAT,Study2,F,111,97,Study,User,-,,Study/JOL,"Study Phase2",1308,,,-1,-1,,,,1
w990145ANH,nvgt4by37k,Nick_Dissertation_EX1,1,193,2020-05-01T11:22:36-07:00,1.9883370399475,1,versionA_stim.csv,READVersionA.csv,"Read Version A","Dissertation, read only version A",TEMPERATURE,Morning,Study2,U,173,160,Study,User,-,,Study/JOL,"Study Phase2",1597,,,-1,-1,,,,1
w990145ANH,nvgt4by37k,Nick_Dissertation_EX1,1,194,2020-05-01T11:22:38-07:00,2.786504983902,1,versionA_stim.csv,READVersionA.csv,"Read Version A","Dissertation, read only version A",SUN,TAN,Study2,S,155,139,Study,User,-,,Study/JOL,"Study Phase2",1387,,,-1,-1,,,,1
w990145ANH,nvgt4by37k,Nick_Dissertation_EX1,1,195,2020-05-01T11:22:40-07:00,1.8116450309753,1,versionA_stim.csv,READVersionA.csv,"Read Version A","Dissertation, read only version A",TANTRUM,TEMPER,Study2,S,154,137,Study,User,-,,Study/JOL,"Study Phase2",1466,,,-1,-1,,,,1
w990145ANH,nvgt4by37k,Nick_Dissertation_EX1,1,196,2020-05-01T11:22:43-07:00,2.5768809318542,1,versionA_stim.csv,READVersionA.csv,"Read Version A","Dissertation, read only version A",POP,BALLOON,Study2,B,123,166,Study,User,-,,Study/JOL,"Study Phase2",2157,,,-1,-1,,,,1
w990145ANH,nvgt4by37k,Nick_Dissertation_EX1,1,197,2020-05-01T11:22:44-07:00,1.4099140167236,1,versionA_stim.csv,READVersionA.csv,"Read Version A","Dissertation, read only version A",DEAD,COFFIN,Study2,B,128,141,Study,User,-,,Study/JOL,"Study Phase2",1112,,,-1,-1,,,,1
w990145ANH,nvgt4by37k,Nick_Dissertation_EX1,1,198,2020-05-01T11:22:46-07:00,1.9026980400085,1,versionA_stim.csv,READVersionA.csv,"Read Version A","Dissertation, read only version A",LEASE,TOIL,Study2,U,170,146,Study,User,-,,Study/JOL,"Study Phase2",1577,,,-1,-1,,,,1
w990145ANH,nvgt4by37k,Nick_Dissertation_EX1,1,199,2020-05-01T11:22:49-07:00,2.5444989204407,1,versionA_stim.csv,READVersionA.csv,"Read Version A","Dissertation, read only version A",TURN,FLIP,Study2,B,116,173,Study,User,-,,Study/JOL,"Study Phase2",1192,,,-1,-1,,,,1
w990145ANH,nvgt4by37k,Nick_Dissertation_EX1,1,200,2020-05-01T11:22:51-07:00,2.2296772003174,1,versionA_stim.csv,READVersionA.csv,"Read Version A","Dissertation, read only version A",EVEN,REVENGE,Study2,B,122,121,Study,User,-,,Study/JOL,"Study Phase2",1882,,,-1,-1,,,,1
w990145ANH,nvgt4by37k,Nick_Dissertation_EX1,1,201,2020-05-01T11:22:52-07:00,1.6343069076538,1,versionA_stim.csv,READVersionA.csv,"Read Version A","Dissertation, read only version A",WRIST,BRACELET,Study2,S,140,100,Study,User,-,,Study/JOL,"Study Phase2",1346,,,-1,-1,,,,1
w990145ANH,nvgt4by37k,Nick_Dissertation_EX1,1,202,2020-05-01T11:22:54-07:00,1.4806659221649,1,versionA_stim.csv,READVersionA.csv,"Read Version A","Dissertation, read only version A",EARTH,GROUND,Study2,S,144,134,Study,User,-,,Study/JOL,"Study Phase2",1182,,,-1,-1,,,,1
w990145ANH,nvgt4by37k,Nick_Dissertation_EX1,1,203,2020-05-01T11:22:56-07:00,1.8078191280365,1,versionA_stim.csv,READVersionA.csv,"Read Version A","Dissertation, read only version A",ALONE,LONELY,Study2,S,145,165,Study,User,-,,Study/JOL,"Study Phase2",1489,,,-1,-1,,,,1
w990145ANH,nvgt4by37k,Nick_Dissertation_EX1,1,204,2020-05-01T11:22:57-07:00,1.5733058452606,1,versionA_stim.csv,READVersionA.csv,"Read Version A","Dissertation, read only version A",CHERRY,RED,Study2,F,104,151,Study,User,-,,Study/JOL,"Study Phase2",1244,,,-1,-1,,,,1
w990145ANH,nvgt4by37k,Nick_Dissertation_EX1,1,205,2020-05-01T11:23:00-07:00,2.4770090579987,1,versionA_stim.csv,READVersionA.csv,"Read Version A","Dissertation, read only version A",CAR,WINDSHIELD,Study2,B,117,150,Study,User,-,,Study/JOL,"Study Phase2",1209,,,-1,-1,,,,1
w990145ANH,nvgt4by37k,Nick_Dissertation_EX1,1,206,2020-05-01T11:23:01-07:00,1.7075090408325,1,versionA_stim.csv,READVersionA.csv,"Read Version A","Dissertation, read only version A",Shell,SHAKE,Study2,U,163,147,Study,User,-,,Study/JOL,"Study Phase2",1391,,,-1,-1,,,,1
w990145ANH,nvgt4by37k,Nick_Dissertation_EX1,1,207,2020-05-01T11:23:03-07:00,1.5542559623718,1,versionA_stim.csv,READVersionA.csv,"Read Version A","Dissertation, read only version A",DRY,WET,Study2,S,146,174,Study,User,-,,Study/JOL,"Study Phase2",1198,,,-1,-1,,,,1
w990145ANH,nvgt4by37k,Nick_Dissertation_EX1,1,208,2020-05-01T11:23:04-07:00,1.3161721229553,1,versionA_stim.csv,READVersionA.csv,"Read Version A","Dissertation, read only version A",INCENSE,SMELL,Study2,F,110,152,Study,User,-,,Study/JOL,"Study Phase2",1013,,,-1,-1,,,,1
w990145ANH,nvgt4by37k,Nick_Dissertation_EX1,1,209,2020-05-01T11:23:06-07:00,1.7642018795013,1,versionA_stim.csv,READVersionA.csv,"Read Version A","Dissertation, read only version A",THREAD,THIMBLE,Study2,B,121,175,Study,User,-,,Study/JOL,"Study Phase2",1466,,,-1,-1,,,,1
w990145ANH,nvgt4by37k,Nick_Dissertation_EX1,1,210,2020-05-01T11:23:08-07:00,1.6631231307983,1,versionA_stim.csv,READVersionA.csv,"Read Version A","Dissertation, read only version A",DRIVER,CAR,Study2,F,106,135,Study,User,-,,Study/JOL,"Study Phase2",1361,,,-1,-1,,,,1
w990145ANH,nvgt4by37k,Nick_Dissertation_EX1,1,211,2020-05-01T11:23:09-07:00,1.3352508544922,1,versionA_stim.csv,READVersionA.csv,"Read Version A","Dissertation, read only version A",CHOP,CUT,Study2,F,107,169,Study,User,-,,Study/JOL,"Study Phase2",1044,,,-1,-1,,,,1
w990145ANH,nvgt4by37k,Nick_Dissertation_EX1,1,212,2020-05-01T11:23:12-07:00,2.7930319309235,1,versionA_stim.csv,READVersionA.csv,"Read Version A","Dissertation, read only version A",HONEST,TRUTHFUL,Study2,B,133,138,Study,User,-,,Study/JOL,"Study Phase2",1367,,,-1,-1,,,,1
w990145ANH,nvgt4by37k,Nick_Dissertation_EX1,1,213,2020-05-01T11:23:13-07:00,1.5331032276154,1,versionA_stim.csv,READVersionA.csv,"Read Version A","Dissertation, read only version A",CAT,PANTHER,Study2,B,126,117,Study,User,-,,Study/JOL,"Study Phase2",1241,,,-1,-1,,,,1
w990145ANH,nvgt4by37k,Nick_Dissertation_EX1,1,214,2020-05-01T11:23:15-07:00,1.6700518131256,1,versionA_stim.csv,READVersionA.csv,"Read Version A","Dissertation, read only version A",CACTUS,PLANT,Study2,F,98,145,Study,User,-,,Study/JOL,"Study Phase2",1385,,,-1,-1,,,,1
w990145ANH,nvgt4by37k,Nick_Dissertation_EX1,1,215,2020-05-01T11:23:16-07:00,1.1103241443634,1,versionA_stim.csv,READVersionA.csv,"Read Version A","Dissertation, read only version A",GONE,AWAY,Study2,S,142,101,Study,User,-,,Study/JOL,"Study Phase2",822,,,-1,-1,,,,1
w990145ANH,nvgt4by37k,Nick_Dissertation_EX1,1,216,2020-05-01T11:23:19-07:00,2.4682059288025,1,versionA_stim.csv,READVersionA.csv,"Read Version A","Dissertation, read only version A",ELEMENT,CARBON,Study2,S,141,161,Study,User,-,,Study/JOL,"Study Phase2",2167,,,-1,-1,,,,1
w990145ANH,nvgt4by37k,Nick_Dissertation_EX1,1,217,2020-05-01T11:23:21-07:00,2.6164090633392,1,versionA_stim.csv,READVersionA.csv,"Read Version A","Dissertation, read only version A",MASON,JAR,Study2,S,138,99,Study,User,-,,Study/JOL,"Study Phase2",1315,,,-1,-1,,,,1
w990145ANH,nvgt4by37k,Nick_Dissertation_EX1,1,218,2020-05-01T11:23:22-07:00,0.88932585716248,1,versionA_stim.csv,READVersionA.csv,"Read Version A","Dissertation, read only version A",JUSTICE,MAROON,Study2,U,156,123,Study,User,-,,Study/JOL,"Study Phase2",617,,,-1,-1,,,,1
w990145ANH,nvgt4by37k,Nick_Dissertation_EX1,1,219,2020-05-01T11:23:25-07:00,3.1985521316528,1,versionA_stim.csv,READVersionA.csv,"Read Version A","Dissertation, read only version A",EXTENSION,LONG,Study2,F,96,149,Study,User,-,,Study/JOL,"Study Phase2",2906,,,-1,-1,,,,1
w990145ANH,nvgt4by37k,Nick_Dissertation_EX1,1,220,2020-05-01T11:23:27-07:00,1.5094828605652,1,versionA_stim.csv,READVersionA.csv,"Read Version A","Dissertation, read only version A",STAR,ACTRESS,Study2,B,120,163,Study,User,-,,Study/JOL,"Study Phase2",1225,,,-1,-1,,,,1
w990145ANH,nvgt4by37k,Nick_Dissertation_EX1,1,221,2020-05-01T11:23:28-07:00,1.4123420715332,1,versionA_stim.csv,READVersionA.csv,"Read Version A","Dissertation, read only version A",FISH,SARDINE,Study2,B,130,108,Study,User,-,,Study/JOL,"Study Phase2",1100,,,-1,-1,,,,1
w990145ANH,nvgt4by37k,Nick_Dissertation_EX1,1,222,2020-05-01T11:23:31-07:00,2.3230879306793,1,versionA_stim.csv,READVersionA.csv,"Read Version A","Dissertation, read only version A",FURRY,DOG,Study2,F,102,98,Study,User,-,,Study/JOL,"Study Phase2",2028,,,-1,-1,,,,1
w990145ANH,nvgt4by37k,Nick_Dissertation_EX1,1,223,2020-05-01T11:23:32-07:00,1.5249960422516,1,versionA_stim.csv,READVersionA.csv,"Read Version A","Dissertation, read only version A",CRACKLE,ABLE,Study2,U,162,110,Study,User,-,,Study/JOL,"Study Phase2",1228,,,-1,-1,,,,1
w990145ANH,nvgt4by37k,Nick_Dissertation_EX1,1,224,2020-05-01T11:23:33-07:00,1.2408239841461,1,versionA_stim.csv,READVersionA.csv,"Read Version A","Dissertation, read only version A",FLEA,TICK,Study2,S,151,168,Study,User,-,,Study/JOL,"Study Phase2",896,,,-1,-1,,,,1
w990145ANH,nvgt4by37k,Nick_Dissertation_EX1,1,225,2020-05-01T11:23:35-07:00,1.663321018219,1,versionA_stim.csv,READVersionA.csv,"Read Version A","Dissertation, read only version A",FUZZY,BANG,Study2,U,168,133,Study,User,-,,Study/JOL,"Study Phase2",1355,,,-1,-1,,,,1
w990145ANH,nvgt4by37k,Nick_Dissertation_EX1,1,226,2020-05-01T11:23:37-07:00,2.1929619312286,1,versionA_stim.csv,READVersionA.csv,"Read Version A","Dissertation, read only version A",CAKE,CLOTHES,Study2,U,166,118,Study,User,-,,Study/JOL,"Study Phase2",1760,,,-1,-1,,,,1
w990145ANH,nvgt4by37k,Nick_Dissertation_EX1,1,227,2020-05-01T11:23:39-07:00,1.4716711044312,1,versionA_stim.csv,READVersionA.csv,"Read Version A","Dissertation, read only version A",CANDLE,WAX,Study2,S,139,113,Study,User,-,,Study/JOL,"Study Phase2",1169,,,-1,-1,,,,1
w990145ANH,nvgt4by37k,Nick_Dissertation_EX1,1,228,2020-05-01T11:23:40-07:00,1.5307159423828,1,versionA_stim.csv,READVersionA.csv,"Read Version A","Dissertation, read only version A",MIRROR,CHILDREN,Study2,U,174,140,Study,User,-,,Study/JOL,"Study Phase2",1148,,,-1,-1,,,,1
w990145ANH,nvgt4by37k,Nick_Dissertation_EX1,1,229,2020-05-01T11:23:42-07:00,1.9273550510406,1,versionA_stim.csv,READVersionA.csv,"Read Version A","Dissertation, read only version A",SHOELACE,TIE,Study2,F,99,103,Study,User,-,,Study/JOL,"Study Phase2",1627,,,-1,-1,,,,1
w990145ANH,nvgt4by37k,Nick_Dissertation_EX1,1,230,2020-05-01T11:23:44-07:00,1.6426150798798,1,versionA_stim.csv,READVersionA.csv,"Read Version A","Dissertation, read only version A",VEHICLE,CHARM,Study2,U,160,155,Study,User,-,,Study/JOL,"Study Phase2",1223,,,-1,-1,,,,1
w990145ANH,nvgt4by37k,Nick_Dissertation_EX1,1,231,2020-05-01T11:23:46-07:00,2.1983079910278,1,versionA_stim.csv,READVersionA.csv,"Read Version A","Dissertation, read only version A",SHEARS,SCISSORS,Study2,F,112,136,Study,User,-,,Study/JOL,"Study Phase2",1832,,,-1,-1,,,,1
w990145ANH,nvgt4by37k,Nick_Dissertation_EX1,1,232,2020-05-01T11:23:48-07:00,2.3798098564148,1,versionA_stim.csv,READVersionA.csv,"Read Version A","Dissertation, read only version A",NAME,HATE,Study2,U,167,142,Study,User,-,,Study/JOL,"Study Phase2",2011,,,-1,-1,,,,1
w990145ANH,nvgt4by37k,Nick_Dissertation_EX1,1,233,2020-05-01T11:23:50-07:00,1.2510340213776,1,versionA_stim.csv,READVersionA.csv,"Read Version A","Dissertation, read only version A",LOAN,SIGN,Study2,U,171,131,Study,User,-,,Study/JOL,"Study Phase2",958,,,-1,-1,,,,1
w990145ANH,nvgt4by37k,Nick_Dissertation_EX1,1,234,2020-05-01T11:23:53-07:00,2.9245710372925,1,versionA_stim.csv,READVersionA.csv,"Read Version A","Dissertation, read only version A",SLEEP,NAP,Study2,B,134,162,Study,User,-,,Study/JOL,"Study Phase2",1519,,,-1,-1,,,,1
w990145ANH,nvgt4by37k,Nick_Dissertation_EX1,1,235,2020-05-01T11:23:54-07:00,1.6954560279846,1,versionA_stim.csv,READVersionA.csv,"Read Version A","Dissertation, read only version A",BASEBALL,LEAGUE,Study2,B,131,172,Study,User,-,,Study/JOL,"Study Phase2",1400,,,-1,-1,,,,1
w990145ANH,nvgt4by37k,Nick_Dissertation_EX1,1,236,2020-05-01T11:23:56-07:00,1.5202989578247,1,versionA_stim.csv,READVersionA.csv,"Read Version A","Dissertation, read only version A",PHONE,COMMUNICATION,Study2,S,149,154,Study,User,-,,Study/JOL,"Study Phase2",1185,,,-1,-1,,,,1
w990145ANH,nvgt4by37k,Nick_Dissertation_EX1,1,237,2020-05-01T11:23:58-07:00,2.675498008728,1,versionA_stim.csv,READVersionA.csv,"Read Version A","Dissertation, read only version A",DOCUMENT,PAPER,Study2,F,109,129,Study,User,-,,Study/JOL,"Study Phase2",1270,,,-1,-1,,,,1
w990145ANH,nvgt4by37k,Nick_Dissertation_EX1,1,238,2020-05-01T11:24:00-07:00,1.9445450305939,1,versionA_stim.csv,READVersionA.csv,"Read Version A","Dissertation, read only version A",BOTH,OUNCE,Study2,U,172,127,Study,User,-,,Study/JOL,"Study Phase2",1616,,,-1,-1,,,,1
w990145ANH,nvgt4by37k,Nick_Dissertation_EX1,1,239,2020-05-01T11:24:04-07:00,3.1194140911102,1,versionA_stim.csv,READVersionA.csv,"Read Version A","Dissertation, read only version A",ROD,REEL,Study2,S,150,102,Study,User,-,,Study/JOL,"Study Phase2",1611,,,-1,-1,,,,1
w990145ANH,nvgt4by37k,Nick_Dissertation_EX1,1,240,2020-05-01T11:24:06-07:00,2.2134718894958,1,versionA_stim.csv,READVersionA.csv,"Read Version A","Dissertation, read only version A",MOAT,CLEAR,Study2,U,169,167,Study,User,-,,Study/JOL,"Study Phase2",1851,,,-1,-1,,,,1
w990145ANH,nvgt4by37k,Nick_Dissertation_EX1,1,241,2020-05-01T11:24:08-07:00,2.2648069858551,1,versionA_stim.csv,READVersionA.csv,"Read Version A","Dissertation, read only version A",MAZE,ELECTION,Study2,U,159,128,Study,User,-,,Study/JOL,"Study Phase2",1871,,,-1,-1,,,,1
w990145ANH,nvgt4by37k,Nick_Dissertation_EX1,1,242,2020-05-01T11:24:10-07:00,2.043683052063,1,versionA_stim.csv,READVersionA.csv,"Read Version A","Dissertation, read only version A",RIGHTS,EQUAL,Study2,S,137,119,Study,User,-,,Study/JOL,"Study Phase2",1679,,,-1,-1,,,,1
w990145ANH,nvgt4by37k,Nick_Dissertation_EX1,1,243,2020-05-01T11:24:12-07:00,1.7275099754333,1,versionA_stim.csv,READVersionA.csv,"Read Version A","Dissertation, read only version A",STRETCH,CLOTH,Study2,U,157,153,Study,User,-,,Study/JOL,"Study Phase2",1409,,,-1,-1,,,,1
w990145ANH,nvgt4by37k,Nick_Dissertation_EX1,1,244,2020-05-01T11:24:13-07:00,1.4994289875031,1,versionA_stim.csv,READVersionA.csv,"Read Version A","Dissertation, read only version A",CHILL,COLD,Study2,F,114,122,Study,User,-,,Study/JOL,"Study Phase2",1160,,,-1,-1,,,,1
w990145ANH,nvgt4by37k,Nick_Dissertation_EX1,1,245,2020-05-01T11:24:15-07:00,1.8854379653931,1,versionA_stim.csv,READVersionA.csv,"Read Version A","Dissertation, read only version A",LOUD,NOISE,Study2,S,152,105,Study,User,-,,Study/JOL,"Study Phase2",1272,,,-1,-1,,,,1
w990145ANH,nvgt4by37k,Nick_Dissertation_EX1,1,246,2020-05-01T11:24:17-07:00,1.3982760906219,1,versionA_stim.csv,READVersionA.csv,"Read Version A","Dissertation, read only version A",OWN,HAVE,Study2,S,153,126,Study,User,-,,Study/JOL,"Study Phase2",1107,,,-1,-1,,,,1
w990145ANH,nvgt4by37k,Nick_Dissertation_EX1,1,247,2020-05-01T11:24:18-07:00,1.4677090644836,1,versionA_stim.csv,READVersionA.csv,"Read Version A","Dissertation, read only version A",AFFECTION,LOVE,Study2,F,115,120,Study,User,-,,Study/JOL,"Study Phase2",1168,,,-1,-1,,,,1
w990145ANH,nvgt4by37k,Nick_Dissertation_EX1,1,248,2020-05-01T11:24:19-07:00,1.2602739334106,1,versionA_stim.csv,READVersionA.csv,"Read Version A","Dissertation, read only version A",TRUTH,LIE,Study2,S,148,130,Study,User,-,,Study/JOL,"Study Phase2",963,,,-1,-1,,,,1
w990145ANH,nvgt4by37k,Nick_Dissertation_EX1,1,249,2020-05-01T11:24:21-07:00,1.5574789047241,1,versionA_stim.csv,READVersionA.csv,"Read Version A","Dissertation, read only version A",PLANE,AIRCRAFT,Study2,B,129,125,Study,User,-,,Study/JOL,"Study Phase2",1265,,,-1,-1,,,,1
w990145ANH,nvgt4by37k,Nick_Dissertation_EX1,1,250,2020-05-01T11:24:23-07:00,1.6635890007019,1,versionA_stim.csv,READVersionA.csv,"Read Version A","Dissertation, read only version A",MONEY,BANKER,Study2,B,132,156,Study,User,-,,Study/JOL,"Study Phase2",1333,,,-1,-1,,,,1
w990145ANH,nvgt4by37k,Nick_Dissertation_EX1,1,251,2020-05-01T11:24:24-07:00,1.8920531272888,1,versionA_stim.csv,READVersionA.csv,"Read Version A","Dissertation, read only version A",KEYS,JOKE,Study2,U,165,176,Study,User,-,,Study/JOL,"Study Phase2",1523,,,-1,-1,,,,1
w990145ANH,nvgt4by37k,Nick_Dissertation_EX1,1,252,2020-05-01T11:24:26-07:00,1.381865978241,1,versionA_stim.csv,READVersionA.csv,"Read Version A","Dissertation, read only version A",MAIN,SCAR,Study2,U,175,104,Study,User,-,,Study/JOL,"Study Phase2",1067,,,-1,-1,,,,1
w990145ANH,nvgt4by37k,Nick_Dissertation_EX1,1,253,2020-05-01T11:24:27-07:00,1.7169749736786,1,versionA_stim.csv,READVersionA.csv,"Read Version A","Dissertation, read only version A",LISTEN,FICTION,Study2,U,164,114,Study,User,-,,Study/JOL,"Study Phase2",1380,,,-1,-1,,,,1
w990145ANH,nvgt4by37k,Nick_Dissertation_EX1,1,254,2020-05-01T11:24:29-07:00,1.6859550476074,1,versionA_stim.csv,READVersionA.csv,"Read Version A","Dissertation, read only version A",WATER,DRINK,Study2,S,143,159,Study,User,-,,Study/JOL,"Study Phase2",1382,,,-1,-1,,,,1
w990145ANH,nvgt4by37k,Nick_Dissertation_EX1,1,255,2020-05-01T11:24:31-07:00,1.4297029972076,1,versionA_stim.csv,READVersionA.csv,"Read Version A","Dissertation, read only version A",RAZOR,SHAVE,Study2,S,136,158,Study,User,-,,Study/JOL,"Study Phase2",1125,,,-1,-1,,,,1
w990145ANH,nvgt4by37k,Nick_Dissertation_EX1,1,256,2020-05-01T11:24:32-07:00,1.737753868103,1,versionA_stim.csv,READVersionA.csv,"Read Version A","Dissertation, read only version A",GIVE,STEAK,Study2,U,158,164,Study,User,-,,Study/JOL,"Study Phase2",1430,,,-1,-1,,,,1
w990145ANH,nvgt4by37k,Nick_Dissertation_EX1,1,257,2020-05-01T11:24:34-07:00,1.6385979652405,1,versionA_stim.csv,READVersionA.csv,"Read Version A","Dissertation, read only version A",GLASS,BREAKABLE,Study2,B,127,124,Study,User,-,,Study/JOL,"Study Phase2",1320,,,-1,-1,,,,1
w990145ANH,nvgt4by37k,Nick_Dissertation_EX1,1,258,2020-05-01T11:24:36-07:00,1.5832481384277,1,versionA_stim.csv,READVersionA.csv,"Read Version A","Dissertation, read only version A",ADJOURN,END,Study2,F,101,115,Study,User,-,,Study/JOL,"Study Phase2",1236,,,-1,-1,,,,1
w990145ANH,nvgt4by37k,Nick_Dissertation_EX1,1,259,2020-05-01T11:24:37-07:00,1.4680969715118,1,versionA_stim.csv,READVersionA.csv,"Read Version A","Dissertation, read only version A",MEAT,OBTAIN,Study2,U,161,107,Study,User,-,,Study/JOL,"Study Phase2",1159,,,-1,-1,,,,1
w990145ANH,nvgt4by37k,Nick_Dissertation_EX1,1,260,2020-05-01T11:24:39-07:00,1.5622200965881,1,versionA_stim.csv,READVersionA.csv,"Read Version A","Dissertation, read only version A",CLUE,GAME,Study2,F,97,116,Study,User,-,,Study/JOL,"Study Phase2",1263,,,-1,-1,,,,1
w990145ANH,nvgt4by37k,Nick_Dissertation_EX1,1,261,2020-05-01T11:24:40-07:00,1.4997417926788,1,versionA_stim.csv,READVersionA.csv,"Read Version A","Dissertation, read only version A",DAYS,WEAKS,BUFFER4,Buffer,176,177,Study,User,-,,Study/JOL,BUFFER4,1202,,,-1,-1,,,,1
w990145ANH,nvgt4by37k,Nick_Dissertation_EX1,1,262,2020-05-01T11:24:45-07:00,4.7899889945984,1,versionA_stim.csv,READVersionA.csv,"Read Version A","Dissertation, read only version A",TOOL,SHED,BUFFER4,Buffer,178,181,Study,User,-,,Study/JOL,BUFFER4,4416,,,-1,-1,,,,1
w990145ANH,nvgt4by37k,Nick_Dissertation_EX1,1,263,2020-05-01T11:24:47-07:00,2.3556571006775,1,versionA_stim.csv,READVersionA.csv,"Read Version A","Dissertation, read only version A",SPRING,MARCH,BUFFER4,Buffer,179,179,Study,User,-,,Study/JOL,BUFFER4,2031,,,-1,-1,,,,1
w990145ANH,nvgt4by37k,Nick_Dissertation_EX1,1,264,2020-05-01T11:24:49-07:00,1.7923760414124,1,versionA_stim.csv,READVersionA.csv,"Read Version A","Dissertation, read only version A",MONTH,YEAR,BUFFER4,Buffer,177,178,Study,User,-,,Study/JOL,BUFFER4,1465,,,-1,-1,,,,1
w990145ANH,nvgt4by37k,Nick_Dissertation_EX1,1,265,2020-05-01T11:24:51-07:00,2.0156750679016,1,versionA_stim.csv,READVersionA.csv,"Read Version A","Dissertation, read only version A",OCTOBER,SPOOKY,BUFFER4,Buffer,180,180,Study,User,-,,Study/JOL,BUFFER4,1706,,,-1,-1,,,,1
w990145ANH,nvgt4by37k,Nick_Dissertation_EX1,1,266,2020-05-01T11:24:53-07:00,1.7513868808746,1,versionA_stim.csv,READVersionA.csv,"Read Version A","Dissertation, read only version A",,,,,,0,Instruct,User,-,"You have completed this section. Please press Enter.",Filler_Instruction,Instruct5,1460,,,-1,-1,,,,1
w990145ANH,nvgt4by37k,Nick_Dissertation_EX1,1,267,2020-05-01T11:27:03-07:00,130.10020709038,1,versionA_stim.csv,READVersionA.csv,"Read Version A","Dissertation, read only version A",,,,,,0,FreeRecall,120,120,"Please list the 50 US states in reverse alphabetical order (z - a). The task will automatically advance to the next screen after two minutes.",,Filler2,120008,"wyoming west virginia virginia utah tennessee texas south dakota rhode island pennsylvania oregan ohio north dakota missouri mississippi minnesota michigan maryland louisiana kentucky iowa illinois",0,5090,119801,0,0,,1
w990145ANH,nvgt4by37k,Nick_Dissertation_EX1,1,268,2020-05-01T11:27:15-07:00,11.620461940765,1,versionA_stim.csv,READVersionA.csv,"Read Version A","Dissertation, read only version A",,,,,,0,Instruct,-,10,"You will now be presented with the first word from each of the previously studied item pairs. Please type the missing word. If you do not know the word, you may guess or press Enter to skip forward to the next pair.",,Instruct6,10881,,,-1,-1,,,,1
w990145ANH,nvgt4by37k,Nick_Dissertation_EX1,1,269,2020-05-01T11:27:22-07:00,7.627238035202,1,versionA_stim.csv,READVersionA.csv,"Read Version A","Dissertation, read only version A",WRIST,BRACELET,Study2,S,140,100,Test,User,-,,Recall,Recall2,7316,bracelet,100,3074,7169,1,1,,1
w990145ANH,nvgt4by37k,Nick_Dissertation_EX1,1,270,2020-05-01T11:27:24-07:00,2.2702679634094,1,versionA_stim.csv,READVersionA.csv,"Read Version A","Dissertation, read only version A",CHOP,CUT,Study2,F,107,169,Test,User,-,,Recall,Recall2,1969,cut,100,1272,1611,1,1,,1
w990145ANH,nvgt4by37k,Nick_Dissertation_EX1,1,271,2020-05-01T11:27:26-07:00,1.3893489837646,1,versionA_stim.csv,READVersionA.csv,"Read Version A","Dissertation, read only version A",FIGHT,BRAWL,Study2,B,135,170,Test,User,-,,Recall,Recall2,1047,,0,-1,-1,0,0,,1
w990145ANH,nvgt4by37k,Nick_Dissertation_EX1,1,272,2020-05-01T11:27:28-07:00,1.9840459823608,1,versionA_stim.csv,READVersionA.csv,"Read Version A","Dissertation, read only version A",DRY,WET,Study2,S,146,174,Test,User,-,,Recall,Recall2,1668,wet,100,928,1371,1,1,,1
w990145ANH,nvgt4by37k,Nick_Dissertation_EX1,1,273,2020-05-01T11:27:29-07:00,1.343759059906,1,versionA_stim.csv,READVersionA.csv,"Read Version A","Dissertation, read only version A",GIVE,STEAK,Study2,U,158,164,Test,User,-,,Recall,Recall2,1055,,0,-1,-1,0,0,,1
w990145ANH,nvgt4by37k,Nick_Dissertation_EX1,1,274,2020-05-01T11:27:30-07:00,1.3345859050751,1,versionA_stim.csv,READVersionA.csv,"Read Version A","Dissertation, read only version A",LISTEN,FICTION,Study2,U,164,114,Test,User,-,,Recall,Recall2,1024,,0,-1,-1,0,0,,1
w990145ANH,nvgt4by37k,Nick_Dissertation_EX1,1,275,2020-05-01T11:27:35-07:00,4.8958320617676,1,versionA_stim.csv,READVersionA.csv,"Read Version A","Dissertation, read only version A",WATER,DRINK,Study2,S,143,159,Test,User,-,,Recall,Recall2,4148,,0,1031,1668,0,0,,1
w990145ANH,nvgt4by37k,Nick_Dissertation_EX1,1,276,2020-05-01T11:27:37-07:00,1.9267830848694,1,versionA_stim.csv,READVersionA.csv,"Read Version A","Dissertation, read only version A",MAIN,SCAR,Study2,U,175,104,Test,User,-,,Recall,Recall2,949,,0,-1,-1,0,0,,1
w990145ANH,nvgt4by37k,Nick_Dissertation_EX1,1,277,2020-05-01T11:27:39-07:00,2.1571509838104,1,versionA_stim.csv,READVersionA.csv,"Read Version A","Dissertation, read only version A",DINE,EAT,Study2,F,111,97,Test,User,-,,Recall,Recall2,1526,eat,100,868,1273,1,1,,1
w990145ANH,nvgt4by37k,Nick_Dissertation_EX1,1,278,2020-05-01T11:27:43-07:00,3.8035809993744,1,versionA_stim.csv,READVersionA.csv,"Read Version A","Dissertation, read only version A",BEST,FAVORITE,Study2,B,125,111,Test,User,-,,Recall,Recall2,3103,favorite,100,1515,2864,1,1,,1
w990145ANH,nvgt4by37k,Nick_Dissertation_EX1,1,279,2020-05-01T11:27:45-07:00,1.6584658622742,1,versionA_stim.csv,READVersionA.csv,"Read Version A","Dissertation, read only version A",HONEST,TRUTHFUL,Study2,B,133,138,Test,User,-,,Recall,Recall2,1355,,0,-1,-1,0,0,,1
w990145ANH,nvgt4by37k,Nick_Dissertation_EX1,1,280,2020-05-01T11:27:49-07:00,4.4131631851196,1,versionA_stim.csv,READVersionA.csv,"Read Version A","Dissertation, read only version A",RIGHTS,EQUAL,Study2,S,137,119,Test,User,-,,Recall,Recall2,3890,equal,100,1296,3542,1,1,,1
w990145ANH,nvgt4by37k,Nick_Dissertation_EX1,1,281,2020-05-01T11:27:53-07:00,3.6449058055878,1,versionA_stim.csv,READVersionA.csv,"Read Version A","Dissertation, read only version A",STRETCH,CLOTH,Study2,U,157,153,Test,User,-,,Recall,Recall2,3343,,0,-1,-1,0,0,,1
w990145ANH,nvgt4by37k,Nick_Dissertation_EX1,1,282,2020-05-01T11:27:55-07:00,2.1998450756073,1,versionA_stim.csv,READVersionA.csv,"Read Version A","Dissertation, read only version A",CRACKLE,ABLE,Study2,U,162,110,Test,User,-,,Recall,Recall2,1771,,0,-1,-1,0,0,,1
w990145ANH,nvgt4by37k,Nick_Dissertation_EX1,1,283,2020-05-01T11:27:56-07:00,1.2314200401306,1,versionA_stim.csv,READVersionA.csv,"Read Version A","Dissertation, read only version A",LITTER,TRASH,Study2,F,103,112,Test,User,-,,Recall,Recall2,956,,0,-1,-1,0,0,,1
w990145ANH,nvgt4by37k,Nick_Dissertation_EX1,1,284,2020-05-01T11:28:01-07:00,4.9711458683014,1,versionA_stim.csv,READVersionA.csv,"Read Version A","Dissertation, read only version A",FEUD,FIGHT,Study2,F,113,157,Test,User,-,,Recall,Recall2,4707,fight,100,3698,4214,1,1,,1
w990145ANH,nvgt4by37k,Nick_Dissertation_EX1,1,285,2020-05-01T11:28:04-07:00,2.6875281333923,1,versionA_stim.csv,READVersionA.csv,"Read Version A","Dissertation, read only version A",DEAD,COFFIN,Study2,B,128,141,Test,User,-,,Recall,Recall2,2378,coffin,100,1062,1948,1,1,,1
w990145ANH,nvgt4by37k,Nick_Dissertation_EX1,1,286,2020-05-01T11:28:09-07:00,4.6748218536377,1,versionA_stim.csv,READVersionA.csv,"Read Version A","Dissertation, read only version A",AFFECTION,LOVE,Study2,F,115,120,Test,User,-,,Recall,Recall2,3355,love,100,1143,2859,1,1,,1
w990145ANH,nvgt4by37k,Nick_Dissertation_EX1,1,287,2020-05-01T11:28:11-07:00,1.9994401931763,1,versionA_stim.csv,READVersionA.csv,"Read Version A","Dissertation, read only version A",PHONE,COMMUNICATION,Study2,S,149,154,Test,User,-,,Recall,Recall2,1602,,0,-1,-1,0,0,,1
w990145ANH,nvgt4by37k,Nick_Dissertation_EX1,1,288,2020-05-01T11:28:14-07:00,3.4706289768219,1,versionA_stim.csv,READVersionA.csv,"Read Version A","Dissertation, read only version A",THREAD,THIMBLE,Study2,B,121,175,Test,User,-,,Recall,Recall2,3049,thimble,100,1415,2889,1,1,,1
w990145ANH,nvgt4by37k,Nick_Dissertation_EX1,1,289,2020-05-01T11:28:27-07:00,12.365836858749,1,versionA_stim.csv,READVersionA.csv,"Read Version A","Dissertation, read only version A",CAR,WINDSHIELD,Study2,B,117,150,Test,User,-,,Recall,Recall2,12015,windshield,100,1432,11359,1,1,,1
w990145ANH,nvgt4by37k,Nick_Dissertation_EX1,1,290,2020-05-01T11:28:31-07:00,4.0778970718384,1,versionA_stim.csv,READVersionA.csv,"Read Version A","Dissertation, read only version A",DETECTIVE,MYSTERY,Study2,F,100,106,Test,User,-,,Recall,Recall2,3761,solve,33.333333333333,2687,3522,0,0,,1
w990145ANH,nvgt4by37k,Nick_Dissertation_EX1,1,291,2020-05-01T11:28:34-07:00,3.0281710624695,1,versionA_stim.csv,READVersionA.csv,"Read Version A","Dissertation, read only version A",MULE,DONKEY,Study2,F,108,144,Test,User,-,,Recall,Recall2,2448,donkey,100,1079,2199,1,1,,1
w990145ANH,nvgt4by37k,Nick_Dissertation_EX1,1,292,2020-05-01T11:28:35-07:00,1.4181280136108,1,versionA_stim.csv,READVersionA.csv,"Read Version A","Dissertation, read only version A",OWN,HAVE,Study2,S,153,126,Test,User,-,,Recall,Recall2,982,,0,-1,-1,0,0,,1
w990145ANH,nvgt4by37k,Nick_Dissertation_EX1,1,293,2020-05-01T11:28:37-07:00,1.8415670394897,1,versionA_stim.csv,READVersionA.csv,"Read Version A","Dissertation, read only version A",MONEY,BANKER,Study2,B,132,156,Test,User,-,,Recall,Recall2,1523,,0,-1,-1,0,0,,1
w990145ANH,nvgt4by37k,Nick_Dissertation_EX1,1,294,2020-05-01T11:28:39-07:00,1.6230688095093,1,versionA_stim.csv,READVersionA.csv,"Read Version A","Dissertation, read only version A",LEASE,TOIL,Study2,U,170,146,Test,User,-,,Recall,Recall2,1281,,0,-1,-1,0,0,,1
w990145ANH,nvgt4by37k,Nick_Dissertation_EX1,1,295,2020-05-01T11:28:43-07:00,4.1795091629028,1,versionA_stim.csv,READVersionA.csv,"Read Version A","Dissertation, read only version A",PLANE,AIRCRAFT,Study2,B,129,125,Test,User,-,,Recall,Recall2,3856,pilot,30.769230769231,1049,3348,0,0,,1
w990145ANH,nvgt4by37k,Nick_Dissertation_EX1,1,296,2020-05-01T11:28:46-07:00,3.5627110004425,1,versionA_stim.csv,READVersionA.csv,"Read Version A","Dissertation, read only version A",RAZOR,SHAVE,Study2,S,136,158,Test,User,-,,Recall,Recall2,3247,shave,100,2015,2669,1,1,,1
w990145ANH,nvgt4by37k,Nick_Dissertation_EX1,1,297,2020-05-01T11:28:52-07:00,5.365818977356,1,versionA_stim.csv,READVersionA.csv,"Read Version A","Dissertation, read only version A",MIRROR,CHILDREN,Study2,U,174,140,Test,User,-,,Recall,Recall2,5054,children,100,2384,4605,1,1,,1
w990145ANH,nvgt4by37k,Nick_Dissertation_EX1,1,298,2020-05-01T11:28:56-07:00,4.3676419258118,1,versionA_stim.csv,READVersionA.csv,"Read Version A","Dissertation, read only version A",MOAT,CLEAR,Study2,U,169,167,Test,User,-,,Recall,Recall2,4067,castle,54.545454545455,1631,3872,0,0,,1
w990145ANH,nvgt4by37k,Nick_Dissertation_EX1,1,299,2020-05-01T11:28:58-07:00,1.5509660243988,1,versionA_stim.csv,READVersionA.csv,"Read Version A","Dissertation, read only version A",LOAN,SIGN,Study2,U,171,131,Test,User,-,,Recall,Recall2,1227,,0,-1,-1,0,0,,1
w990145ANH,nvgt4by37k,Nick_Dissertation_EX1,1,300,2020-05-01T11:29:00-07:00,2.4146928787231,1,versionA_stim.csv,READVersionA.csv,"Read Version A","Dissertation, read only version A",DRIVER,CAR,Study2,F,106,135,Test,User,-,,Recall,Recall2,2102,,0,-1,-1,0,0,,1
w990145ANH,nvgt4by37k,Nick_Dissertation_EX1,1,301,2020-05-01T11:29:03-07:00,2.7752180099487,1,versionA_stim.csv,READVersionA.csv,"Read Version A","Dissertation, read only version A",EXTENSION,LONG,Study2,F,96,149,Test,User,-,,Recall,Recall2,2459,long,100,1428,2193,1,1,,1
w990145ANH,nvgt4by37k,Nick_Dissertation_EX1,1,302,2020-05-01T11:29:07-07:00,4.0080211162567,1,versionA_stim.csv,READVersionA.csv,"Read Version A","Dissertation, read only version A",MAZE,ELECTION,Study2,U,159,128,Test,User,-,,Recall,Recall2,3674,,0,1421,1977,0,0,,1
w990145ANH,nvgt4by37k,Nick_Dissertation_EX1,1,303,2020-05-01T11:29:09-07:00,2.3647170066833,1,versionA_stim.csv,READVersionA.csv,"Read Version A","Dissertation, read only version A",CANDLE,WAX,Study2,S,139,113,Test,User,-,,Recall,Recall2,1897,wax,100,956,1553,1,1,,1
w990145ANH,nvgt4by37k,Nick_Dissertation_EX1,1,304,2020-05-01T11:29:11-07:00,1.9702899456024,1,versionA_stim.csv,READVersionA.csv,"Read Version A","Dissertation, read only version A",LOUD,NOISE,Study2,S,152,105,Test,User,-,,Recall,Recall2,1609,,0,-1,-1,0,0,,1
w990145ANH,nvgt4by37k,Nick_Dissertation_EX1,1,305,2020-05-01T11:29:14-07:00,3.1138551235199,1,versionA_stim.csv,READVersionA.csv,"Read Version A","Dissertation, read only version A",TANTRUM,TEMPER,Study2,S,154,137,Test,User,-,,Recall,Recall2,2812,temper,100,1300,2567,1,1,,1
w990145ANH,nvgt4by37k,Nick_Dissertation_EX1,1,306,2020-05-01T11:29:16-07:00,1.6553239822388,1,versionA_stim.csv,READVersionA.csv,"Read Version A","Dissertation, read only version A",BOTH,OUNCE,Study2,U,172,127,Test,User,-,,Recall,Recall2,1338,,0,-1,-1,0,0,,1
w990145ANH,nvgt4by37k,Nick_Dissertation_EX1,1,307,2020-05-01T11:29:19-07:00,2.9863300323486,1,versionA_stim.csv,READVersionA.csv,"Read Version A","Dissertation, read only version A",CACTUS,PLANT,Study2,F,98,145,Test,User,-,,Recall,Recall2,2506,plant,100,1152,2119,1,1,,1
w990145ANH,nvgt4by37k,Nick_Dissertation_EX1,1,308,2020-05-01T11:29:21-07:00,2.0153138637543,1,versionA_stim.csv,READVersionA.csv,"Read Version A","Dissertation, read only version A",CHERRY,RED,Study2,F,104,151,Test,User,-,,Recall,Recall2,1753,red,100,1216,1517,1,1,,1
w990145ANH,nvgt4by37k,Nick_Dissertation_EX1,1,309,2020-05-01T11:29:26-07:00,4.9974880218506,1,versionA_stim.csv,READVersionA.csv,"Read Version A","Dissertation, read only version A",VEHICLE,CHARM,Study2,U,160,155,Test,User,-,,Recall,Recall2,4709,,0,1637,2127,0,0,,1
w990145ANH,nvgt4by37k,Nick_Dissertation_EX1,1,310,2020-05-01T11:29:27-07:00,1.2896189689636,1,versionA_stim.csv,READVersionA.csv,"Read Version A","Dissertation, read only version A",ELEMENT,CARBON,Study2,S,141,161,Test,User,-,,Recall,Recall2,1018,,0,-1,-1,0,0,,1
w990145ANH,nvgt4by37k,Nick_Dissertation_EX1,1,311,2020-05-01T11:29:29-07:00,1.8933100700378,1,versionA_stim.csv,READVersionA.csv,"Read Version A","Dissertation, read only version A",CHILL,COLD,Study2,F,114,122,Test,User,-,,Recall,Recall2,1627,,0,-1,-1,0,0,,1
w990145ANH,nvgt4by37k,Nick_Dissertation_EX1,1,312,2020-05-01T11:29:30-07:00,1.2169098854065,1,versionA_stim.csv,READVersionA.csv,"Read Version A","Dissertation, read only version A",CAT,PANTHER,Study2,B,126,117,Test,User,-,,Recall,Recall2,927,,0,-1,-1,0,0,,1
w990145ANH,nvgt4by37k,Nick_Dissertation_EX1,1,313,2020-05-01T11:29:34-07:00,3.7394850254059,1,versionA_stim.csv,READVersionA.csv,"Read Version A","Dissertation, read only version A",FUZZY,BANG,Study2,U,168,133,Test,User,-,,Recall,Recall2,3476,bang,100,1627,3023,1,1,,1
w990145ANH,nvgt4by37k,Nick_Dissertation_EX1,1,314,2020-05-01T11:29:37-07:00,2.6615359783173,1,versionA_stim.csv,READVersionA.csv,"Read Version A","Dissertation, read only version A",CLUE,GAME,Study2,F,97,116,Test,User,-,,Recall,Recall2,2308,game,100,1412,1887,1,1,,1
w990145ANH,nvgt4by37k,Nick_Dissertation_EX1,1,315,2020-05-01T11:29:38-07:00,1.3281311988831,1,versionA_stim.csv,READVersionA.csv,"Read Version A","Dissertation, read only version A",GONE,AWAY,Study2,S,142,101,Test,User,-,,Recall,Recall2,941,,0,-1,-1,0,0,,1
w990145ANH,nvgt4by37k,Nick_Dissertation_EX1,1,316,2020-05-01T11:29:41-07:00,2.8842689990997,1,versionA_stim.csv,READVersionA.csv,"Read Version A","Dissertation, read only version A",BASEBALL,LEAGUE,Study2,B,131,172,Test,User,-,,Recall,Recall2,2518,catcher,30.769230769231,1066,2087,0,0,,1
w990145ANH,nvgt4by37k,Nick_Dissertation_EX1,1,317,2020-05-01T11:29:49-07:00,7.9064178466797,1,versionA_stim.csv,READVersionA.csv,"Read Version A","Dissertation, read only version A",STAR,ACTRESS,Study2,B,120,163,Test,User,-,,Recall,Recall2,7585,actress,100,1117,7359,1,1,,1
w990145ANH,nvgt4by37k,Nick_Dissertation_EX1,1,318,2020-05-01T11:30:00-07:00,11.330143928528,1,versionA_stim.csv,READVersionA.csv,"Read Version A","Dissertation, read only version A",TEMPERATURE,Morning,Study2,U,173,160,Test,User,-,,Recall,Recall2,10948,morning,100,1652,10558,1,1,,1
w990145ANH,nvgt4by37k,Nick_Dissertation_EX1,1,319,2020-05-01T11:30:02-07:00,2.2368710041046,1,versionA_stim.csv,READVersionA.csv,"Read Version A","Dissertation, read only version A",ADJOURN,END,Study2,F,101,115,Test,User,-,,Recall,Recall2,1945,,0,-1,-1,0,0,,1
w990145ANH,nvgt4by37k,Nick_Dissertation_EX1,1,320,2020-05-01T11:30:04-07:00,1.4617559909821,1,versionA_stim.csv,READVersionA.csv,"Read Version A","Dissertation, read only version A",ALONE,LONELY,Study2,S,145,165,Test,User,-,,Recall,Recall2,1152,,0,-1,-1,0,0,,1
w990145ANH,nvgt4by37k,Nick_Dissertation_EX1,1,321,2020-05-01T11:30:06-07:00,2.0936732292175,1,versionA_stim.csv,READVersionA.csv,"Read Version A","Dissertation, read only version A",BIRD,PENGUIN,Study2,B,119,109,Test,User,-,,Recall,Recall2,1780,,0,-1,-1,0,0,,1
w990145ANH,nvgt4by37k,Nick_Dissertation_EX1,1,322,2020-05-01T11:30:07-07:00,1.5563459396362,1,versionA_stim.csv,READVersionA.csv,"Read Version A","Dissertation, read only version A",TURN,FLIP,Study2,B,116,173,Test,User,-,,Recall,Recall2,1145,,0,-1,-1,0,0,,1
w990145ANH,nvgt4by37k,Nick_Dissertation_EX1,1,323,2020-05-01T11:30:09-07:00,1.4146809577942,1,versionA_stim.csv,READVersionA.csv,"Read Version A","Dissertation, read only version A",GLASS,BREAKABLE,Study2,B,127,124,Test,User,-,,Recall,Recall2,1093,,0,-1,-1,0,0,,1
w990145ANH,nvgt4by37k,Nick_Dissertation_EX1,1,324,2020-05-01T11:30:14-07:00,5.5665950775146,1,versionA_stim.csv,READVersionA.csv,"Read Version A","Dissertation, read only version A",BAD,VILLAIN,Study2,B,118,132,Test,User,-,,Recall,Recall2,5184,villain,100,3210,4708,1,1,,1
w990145ANH,nvgt4by37k,Nick_Dissertation_EX1,1,325,2020-05-01T11:30:18-07:00,3.4375460147858,1,versionA_stim.csv,READVersionA.csv,"Read Version A","Dissertation, read only version A",SHEARS,SCISSORS,Study2,F,112,136,Test,User,-,,Recall,Recall2,3084,scissors,100,1130,2880,1,1,,1
w990145ANH,nvgt4by37k,Nick_Dissertation_EX1,1,326,2020-05-01T11:30:20-07:00,1.9825987815857,1,versionA_stim.csv,READVersionA.csv,"Read Version A","Dissertation, read only version A",DOCUMENT,PAPER,Study2,F,109,129,Test,User,-,,Recall,Recall2,1674,,0,-1,-1,0,0,,1
w990145ANH,nvgt4by37k,Nick_Dissertation_EX1,1,327,2020-05-01T11:30:22-07:00,2.5214021205902,1,versionA_stim.csv,READVersionA.csv,"Read Version A","Dissertation, read only version A",MASON,JAR,Study2,S,138,99,Test,User,-,,Recall,Recall2,2208,jar,100,1477,1753,1,1,,1
w990145ANH,nvgt4by37k,Nick_Dissertation_EX1,1,328,2020-05-01T11:30:26-07:00,3.392345905304,1,versionA_stim.csv,READVersionA.csv,"Read Version A","Dissertation, read only version A",TRUTH,LIE,Study2,S,148,130,Test,User,-,,Recall,Recall2,3072,,0,-1,-1,0,0,,1
w990145ANH,nvgt4by37k,Nick_Dissertation_EX1,1,329,2020-05-01T11:30:33-07:00,7.5568790435791,1,versionA_stim.csv,READVersionA.csv,"Read Version A","Dissertation, read only version A",Shell,SHAKE,Study2,U,163,147,Test,User,-,,Recall,Recall2,7251,,0,1203,5554,0,0,,1
w990145ANH,nvgt4by37k,Nick_Dissertation_EX1,1,330,2020-05-01T11:30:35-07:00,1.9216001033783,1,versionA_stim.csv,READVersionA.csv,"Read Version A","Dissertation, read only version A",EARTH,GROUND,Study2,S,144,134,Test,User,-,,Recall,Recall2,1603,,0,-1,-1,0,0,,1
w990145ANH,nvgt4by37k,Nick_Dissertation_EX1,1,331,2020-05-01T11:30:39-07:00,3.5013558864594,1,versionA_stim.csv,READVersionA.csv,"Read Version A","Dissertation, read only version A",FLEA,TICK,Study2,S,151,168,Test,User,-,,Recall,Recall2,2196,,0,-1,-1,0,0,,1
w990145ANH,nvgt4by37k,Nick_Dissertation_EX1,1,332,2020-05-01T11:30:42-07:00,2.8836400508881,1,versionA_stim.csv,READVersionA.csv,"Read Version A","Dissertation, read only version A",KEYS,JOKE,Study2,U,165,176,Test,User,-,,Recall,Recall2,2328,latch,0,1008,1773,0,0,,1
w990145ANH,nvgt4by37k,Nick_Dissertation_EX1,1,333,2020-05-01T11:30:45-07:00,2.9558210372925,1,versionA_stim.csv,READVersionA.csv,"Read Version A","Dissertation, read only version A",INCENSE,SMELL,Study2,F,110,152,Test,User,-,,Recall,Recall2,2637,smell,100,1031,2117,1,1,,1
w990145ANH,nvgt4by37k,Nick_Dissertation_EX1,1,334,2020-05-01T11:30:46-07:00,1.5516309738159,1,versionA_stim.csv,READVersionA.csv,"Read Version A","Dissertation, read only version A",NAME,HATE,Study2,U,167,142,Test,User,-,,Recall,Recall2,1024,,0,-1,-1,0,0,,1
w990145ANH,nvgt4by37k,Nick_Dissertation_EX1,1,335,2020-05-01T11:30:49-07:00,2.9747040271759,1,versionA_stim.csv,READVersionA.csv,"Read Version A","Dissertation, read only version A",ROD,REEL,Study2,S,150,102,Test,User,-,,Recall,Recall2,2625,reel,100,1119,2263,1,1,,1
w990145ANH,nvgt4by37k,Nick_Dissertation_EX1,1,336,2020-05-01T11:30:54-07:00,4.370423078537,1,versionA_stim.csv,READVersionA.csv,"Read Version A","Dissertation, read only version A",FRUIT,STRAWBERRY,Study2,B,124,171,Test,User,-,,Recall,Recall2,4074,strawberry,100,948,3549,1,1,,1
w990145ANH,nvgt4by37k,Nick_Dissertation_EX1,1,337,2020-05-01T11:30:56-07:00,2.291393995285,1,versionA_stim.csv,READVersionA.csv,"Read Version A","Dissertation, read only version A",SCALP,HEAD,Study2,F,105,148,Test,User,-,,Recall,Recall2,1842,head,100,1143,1540,1,1,,1
w990145ANH,nvgt4by37k,Nick_Dissertation_EX1,1,338,2020-05-01T11:30:58-07:00,2.5961608886719,1,versionA_stim.csv,READVersionA.csv,"Read Version A","Dissertation, read only version A",CAKE,CLOTHES,Study2,U,166,118,Test,User,-,,Recall,Recall2,2025,icing,16.666666666667,1066,1890,0,0,,1
w990145ANH,nvgt4by37k,Nick_Dissertation_EX1,1,339,2020-05-01T11:31:02-07:00,3.3783619403839,1,versionA_stim.csv,READVersionA.csv,"Read Version A","Dissertation, read only version A",SHOELACE,TIE,Study2,F,99,103,Test,User,-,,Recall,Recall2,2087,tie,100,1392,1632,1,1,,1
w990145ANH,nvgt4by37k,Nick_Dissertation_EX1,1,340,2020-05-01T11:31:04-07:00,2.5230691432953,1,versionA_stim.csv,READVersionA.csv,"Read Version A","Dissertation, read only version A",SUN,TAN,Study2,S,155,139,Test,User,-,,Recall,Recall2,2058,tan,100,1206,1633,1,1,,1
w990145ANH,nvgt4by37k,Nick_Dissertation_EX1,1,341,2020-05-01T11:31:07-07:00,2.5216000080109,1,versionA_stim.csv,READVersionA.csv,"Read Version A","Dissertation, read only version A",FURRY,DOG,Study2,F,102,98,Test,User,-,,Recall,Recall2,2163,dog,100,1442,2027,1,1,,1
w990145ANH,nvgt4by37k,Nick_Dissertation_EX1,1,342,2020-05-01T11:31:11-07:00,3.7693428993225,1,versionA_stim.csv,READVersionA.csv,"Read Version A","Dissertation, read only version A",FISH,SARDINE,Study2,B,130,108,Test,User,-,,Recall,Recall2,3451,,0,-1,-1,0,0,,1
w990145ANH,nvgt4by37k,Nick_Dissertation_EX1,1,343,2020-05-01T11:31:14-07:00,3.2560629844666,1,versionA_stim.csv,READVersionA.csv,"Read Version A","Dissertation, read only version A",JUSTICE,MAROON,Study2,U,156,123,Test,User,-,,Recall,Recall2,2965,maroon,100,1389,2510,1,1,,1
w990145ANH,nvgt4by37k,Nick_Dissertation_EX1,1,344,2020-05-01T11:31:15-07:00,1.3383979797363,1,versionA_stim.csv,READVersionA.csv,"Read Version A","Dissertation, read only version A",SLEEP,NAP,Study2,B,134,162,Test,User,-,,Recall,Recall2,1006,,0,-1,-1,0,0,,1
w990145ANH,nvgt4by37k,Nick_Dissertation_EX1,1,345,2020-05-01T11:31:16-07:00,1.3008019924164,1,versionA_stim.csv,READVersionA.csv,"Read Version A","Dissertation, read only version A",EVEN,REVENGE,Study2,B,122,121,Test,User,-,,Recall,Recall2,920,,0,-1,-1,0,0,,1
w990145ANH,nvgt4by37k,Nick_Dissertation_EX1,1,346,2020-05-01T11:31:19-07:00,2.0416920185089,1,versionA_stim.csv,READVersionA.csv,"Read Version A","Dissertation, read only version A",POP,BALLOON,Study2,B,123,166,Test,User,-,,Recall,Recall2,1636,soda,18.181818181818,936,1336,0,0,,1
w990145ANH,nvgt4by37k,Nick_Dissertation_EX1,1,347,2020-05-01T11:31:20-07:00,1.4972820281982,1,versionA_stim.csv,READVersionA.csv,"Read Version A","Dissertation, read only version A",SAFETY,SEATBELT,Study2,S,147,143,Test,User,-,,Recall,Recall2,955,,0,-1,-1,0,0,,1
w990145ANH,nvgt4by37k,Nick_Dissertation_EX1,1,348,2020-05-01T11:31:22-07:00,1.4986760616302,1,versionA_stim.csv,READVersionA.csv,"Read Version A","Dissertation, read only version A",MEAT,OBTAIN,Study2,U,161,107,Test,User,-,,Recall,Recall2,1194,,0,-1,-1,0,0,,1
w990145ANH,nvgt4by37k,Nick_Dissertation_EX1,1,349,2020-05-01T11:31:24-07:00,2.0453689098358,1,versionA_stim.csv,READVersionA.csv,"Read Version A","Dissertation, read only version A",,,,,,0,Instruct,User,-,"You have completed this section. Please press Enter.",,Instruct7,1747,,,-1,-1,,,,1
w990145ANH,nvgt4by37k,Nick_Dissertation_EX1,1,350,2020-05-01T11:31:26-07:00,2.7432370185852,1,versionA_stim.csv,READVersionA.csv,"Read Version A","Dissertation, read only version A",,,,,,0,Instruct,User,-,"The following screen will ask you a few questions abour your experience today. You must complete these questions to receive credit.",,Instruct8,2392,,,-1,-1,,,,1
