Username,ID,ExperimentName,Session,Trial,Date,TimeDif,"Condition Number","Stimuli File","Order File","Condition Description","Condition Notes",Stimuli*Cue,Stimuli*Answer,Stimuli*Shuffle,"Stimuli*Stimuli Notes",Stimuli*Value,Procedure*Item,"Procedure*Trial Type","Procedure*Max Time","Procedure*Min Time",Procedure*Text,"Procedure*Procedure Notes",Procedure*Shuffle,Response*RT,Response*Response,Response*Accuracy,Response*RTfirst,Response*RTlast,Response*strictAcc,Response*lenientAcc,Response*focus,Response*Focus
w10079637_EEL,paaxucwlvw,Nick_Dissertation_EX1,1,1,2020-04-24T13:30:36-07:00,11.889896154404,4,versionC_stim.csv,READVersionD.csv,"Read Version D","Dissertation, read only version D",,,,,,0,Instruct,-,10,"Please study each of the following word pairs. Remember that your memory will be tested! When finished, press Enter to move to the next pair.",Initial_Instruct,Instruct1,11360,,,-1,-1,,,,1
w10079637_EEL,paaxucwlvw,Nick_Dissertation_EX1,1,2,2020-04-24T13:30:39-07:00,3.2490739822388,4,versionC_stim.csv,READVersionD.csv,"Read Version D","Dissertation, read only version D",STRING,NOODLE,BUFFER3,Buffer,92,93,Study,User,-,,Study/JOL,BUFFER,2713,,,-1,-1,,,,1
w10079637_EEL,paaxucwlvw,Nick_Dissertation_EX1,1,3,2020-04-24T13:30:41-07:00,2.1804699897766,4,versionC_stim.csv,READVersionD.csv,"Read Version D","Dissertation, read only version D",POTATO,CARROT,BUFFER3,Buffer,91,94,Study,User,-,,Study/JOL,BUFFER,1509,,,-1,-1,,,,1
w10079637_EEL,paaxucwlvw,Nick_Dissertation_EX1,1,4,2020-04-24T13:30:43-07:00,1.7545070648193,4,versionC_stim.csv,READVersionD.csv,"Read Version D","Dissertation, read only version D",ADVENTURE,CAMP,BUFFER3,Buffer,95,96,Study,User,-,,Study/JOL,BUFFER,1060,,,-1,-1,,,,1
w10079637_EEL,paaxucwlvw,Nick_Dissertation_EX1,1,5,2020-04-24T13:30:45-07:00,1.5446898937225,4,versionC_stim.csv,READVersionD.csv,"Read Version D","Dissertation, read only version D",FROZEN,ICE,BUFFER3,Buffer,94,92,Study,User,-,,Study/JOL,BUFFER,946,,,-1,-1,,,,1
w10079637_EEL,paaxucwlvw,Nick_Dissertation_EX1,1,6,2020-04-24T13:30:46-07:00,1.600044965744,4,versionC_stim.csv,READVersionD.csv,"Read Version D","Dissertation, read only version D",FISH,SHRIMP,BUFFER3,Buffer,93,95,Study,User,-,,Study/JOL,BUFFER,1052,,,-1,-1,,,,1
w10079637_EEL,paaxucwlvw,Nick_Dissertation_EX1,1,7,2020-04-24T13:30:48-07:00,1.6810381412506,4,versionC_stim.csv,READVersionD.csv,"Read Version D","Dissertation, read only version D",SARDINE,FISH,Study2,F,130,135,Study,User,-,,Study/JOL,"Study Phase",1111,,,-1,-1,,,,1
w10079637_EEL,paaxucwlvw,Nick_Dissertation_EX1,1,8,2020-04-24T13:30:49-07:00,1.4509718418121,4,versionC_stim.csv,READVersionD.csv,"Read Version D","Dissertation, read only version D",PAPER,DOCUMENT,Study2,B,109,165,Study,User,-,,Study/JOL,"Study Phase",813,,,-1,-1,,,,1
w10079637_EEL,paaxucwlvw,Nick_Dissertation_EX1,1,9,2020-04-24T13:30:51-07:00,1.5206191539764,4,versionC_stim.csv,READVersionD.csv,"Read Version D","Dissertation, read only version D",CARBON,ELEMENT,Study2,S,141,111,Study,User,-,,Study/JOL,"Study Phase",925,,,-1,-1,,,,1
w10079637_EEL,paaxucwlvw,Nick_Dissertation_EX1,1,10,2020-04-24T13:30:52-07:00,1.1916108131409,4,versionC_stim.csv,READVersionD.csv,"Read Version D","Dissertation, read only version D",WAX,CANDLE,Study2,S,139,176,Study,User,-,,Study/JOL,"Study Phase",729,,,-1,-1,,,,1
w10079637_EEL,paaxucwlvw,Nick_Dissertation_EX1,1,11,2020-04-24T13:30:54-07:00,1.5023241043091,4,versionC_stim.csv,READVersionD.csv,"Read Version D","Dissertation, read only version D",SHAVE,RAZOR,Study2,S,136,132,Study,User,-,,Study/JOL,"Study Phase",893,,,-1,-1,,,,1
w10079637_EEL,paaxucwlvw,Nick_Dissertation_EX1,1,12,2020-04-24T13:30:55-07:00,1.3927121162415,4,versionC_stim.csv,READVersionD.csv,"Read Version D","Dissertation, read only version D",TICK,FLEA,Study2,S,151,166,Study,User,-,,Study/JOL,"Study Phase",878,,,-1,-1,,,,1
w10079637_EEL,paaxucwlvw,Nick_Dissertation_EX1,1,13,2020-04-24T13:30:57-07:00,2.009792804718,4,versionC_stim.csv,READVersionD.csv,"Read Version D","Dissertation, read only version D",CLOTHES,CAKE,Study2,U,166,115,Study,User,-,,Study/JOL,"Study Phase",1433,,,-1,-1,,,,1
w10079637_EEL,paaxucwlvw,Nick_Dissertation_EX1,1,14,2020-04-24T13:30:59-07:00,2.0398461818695,4,versionC_stim.csv,READVersionD.csv,"Read Version D","Dissertation, read only version D",JOKE,KEYS,Study2,U,165,158,Study,User,-,,Study/JOL,"Study Phase",1482,,,-1,-1,,,,1
w10079637_EEL,paaxucwlvw,Nick_Dissertation_EX1,1,15,2020-04-24T13:31:00-07:00,1.4232897758484,4,versionC_stim.csv,READVersionD.csv,"Read Version D","Dissertation, read only version D",ACTRESS,STAR,Study2,F,120,106,Study,User,-,,Study/JOL,"Study Phase",909,,,-1,-1,,,,1
w10079637_EEL,paaxucwlvw,Nick_Dissertation_EX1,1,16,2020-04-24T13:31:02-07:00,1.5279080867767,4,versionC_stim.csv,READVersionD.csv,"Read Version D","Dissertation, read only version D",HATE,NAME,Study2,U,167,103,Study,User,-,,Study/JOL,"Study Phase",834,,,-1,-1,,,,1
w10079637_EEL,paaxucwlvw,Nick_Dissertation_EX1,1,17,2020-04-24T13:31:03-07:00,1.505322933197,4,versionC_stim.csv,READVersionD.csv,"Read Version D","Dissertation, read only version D",PENGUIN,BIRD,Study2,F,119,159,Study,User,-,,Study/JOL,"Study Phase",965,,,-1,-1,,,,1
w10079637_EEL,paaxucwlvw,Nick_Dissertation_EX1,1,18,2020-04-24T13:31:05-07:00,1.5069460868835,4,versionC_stim.csv,READVersionD.csv,"Read Version D","Dissertation, read only version D",BRACELET,WRIST,Study2,S,140,145,Study,User,-,,Study/JOL,"Study Phase",1004,,,-1,-1,,,,1
w10079637_EEL,paaxucwlvw,Nick_Dissertation_EX1,1,19,2020-04-24T13:31:07-07:00,1.5946640968323,4,versionC_stim.csv,READVersionD.csv,"Read Version D","Dissertation, read only version D",BANG,FUZZY,Study2,U,168,124,Study,User,-,,Study/JOL,"Study Phase",1037,,,-1,-1,,,,1
w10079637_EEL,paaxucwlvw,Nick_Dissertation_EX1,1,20,2020-04-24T13:31:08-07:00,1.8156259059906,4,versionC_stim.csv,READVersionD.csv,"Read Version D","Dissertation, read only version D",TEMPER,TANTRUM,Study2,S,154,113,Study,User,-,,Study/JOL,"Study Phase",1288,,,-1,-1,,,,1
w10079637_EEL,paaxucwlvw,Nick_Dissertation_EX1,1,21,2020-04-24T13:31:10-07:00,1.6983330249786,4,versionC_stim.csv,READVersionD.csv,"Read Version D","Dissertation, read only version D",OUNCE,BOTH,Study2,U,172,140,Study,User,-,,Study/JOL,"Study Phase",1181,,,-1,-1,,,,1
w10079637_EEL,paaxucwlvw,Nick_Dissertation_EX1,1,22,2020-04-24T13:31:11-07:00,1.3990368843079,4,versionC_stim.csv,READVersionD.csv,"Read Version D","Dissertation, read only version D",REEL,ROD,Study2,S,150,99,Study,User,-,,Study/JOL,"Study Phase",885,,,-1,-1,,,,1
w10079637_EEL,paaxucwlvw,Nick_Dissertation_EX1,1,23,2020-04-24T13:31:13-07:00,1.7995750904083,4,versionC_stim.csv,READVersionD.csv,"Read Version D","Dissertation, read only version D",ABLE,CRACKLE,Study2,U,162,146,Study,User,-,,Study/JOL,"Study Phase",1268,,,-1,-1,,,,1
w10079637_EEL,paaxucwlvw,Nick_Dissertation_EX1,1,24,2020-04-24T13:31:15-07:00,1.4574999809265,4,versionC_stim.csv,READVersionD.csv,"Read Version D","Dissertation, read only version D",LONELY,ALONE,Study2,S,145,143,Study,User,-,,Study/JOL,"Study Phase",909,,,-1,-1,,,,1
w10079637_EEL,paaxucwlvw,Nick_Dissertation_EX1,1,25,2020-04-24T13:31:16-07:00,1.3921840190887,4,versionC_stim.csv,READVersionD.csv,"Read Version D","Dissertation, read only version D",COLD,CHILL,Study2,B,114,148,Study,User,-,,Study/JOL,"Study Phase",710,,,-1,-1,,,,1
w10079637_EEL,paaxucwlvw,Nick_Dissertation_EX1,1,26,2020-04-24T13:31:18-07:00,1.8413491249084,4,versionC_stim.csv,READVersionD.csv,"Read Version D","Dissertation, read only version D",Morning,TEMPERATURE,Study2,U,173,169,Study,User,-,,Study/JOL,"Study Phase",1266,,,-1,-1,,,,1
w10079637_EEL,paaxucwlvw,Nick_Dissertation_EX1,1,27,2020-04-24T13:31:19-07:00,1.2695288658142,4,versionC_stim.csv,READVersionD.csv,"Read Version D","Dissertation, read only version D",NOISE,LOUD,Study2,S,152,119,Study,User,-,,Study/JOL,"Study Phase",698,,,-1,-1,,,,1
w10079637_EEL,paaxucwlvw,Nick_Dissertation_EX1,1,28,2020-04-24T13:31:20-07:00,1.1814510822296,4,versionC_stim.csv,READVersionD.csv,"Read Version D","Dissertation, read only version D",BRAWL,FIGHT,Study2,F,135,151,Study,User,-,,Study/JOL,"Study Phase",629,,,-1,-1,,,,1
w10079637_EEL,paaxucwlvw,Nick_Dissertation_EX1,1,29,2020-04-24T13:31:22-07:00,1.4281489849091,4,versionC_stim.csv,READVersionD.csv,"Read Version D","Dissertation, read only version D",SCISSORS,SHEARS,Study2,B,112,129,Study,User,-,,Study/JOL,"Study Phase",936,,,-1,-1,,,,1
w10079637_EEL,paaxucwlvw,Nick_Dissertation_EX1,1,30,2020-04-24T13:31:23-07:00,1.299281835556,4,versionC_stim.csv,READVersionD.csv,"Read Version D","Dissertation, read only version D",LOVE,AFFECTION,Study2,B,115,171,Study,User,-,,Study/JOL,"Study Phase",754,,,-1,-1,,,,1
w10079637_EEL,paaxucwlvw,Nick_Dissertation_EX1,1,31,2020-04-24T13:31:25-07:00,1.5043680667877,4,versionC_stim.csv,READVersionD.csv,"Read Version D","Dissertation, read only version D",AWAY,GONE,Study2,S,142,142,Study,User,-,,Study/JOL,"Study Phase",937,,,-1,-1,,,,1
w10079637_EEL,paaxucwlvw,Nick_Dissertation_EX1,1,32,2020-04-24T13:31:26-07:00,1.4738540649414,4,versionC_stim.csv,READVersionD.csv,"Read Version D","Dissertation, read only version D",TOIL,LEASE,Study2,U,170,149,Study,User,-,,Study/JOL,"Study Phase",955,,,-1,-1,,,,1
w10079637_EEL,paaxucwlvw,Nick_Dissertation_EX1,1,33,2020-04-24T13:31:28-07:00,1.6330468654633,4,versionC_stim.csv,READVersionD.csv,"Read Version D","Dissertation, read only version D",HAVE,OWN,Study2,S,153,141,Study,User,-,,Study/JOL,"Study Phase",1045,,,-1,-1,,,,1
w10079637_EEL,paaxucwlvw,Nick_Dissertation_EX1,1,34,2020-04-24T13:31:29-07:00,1.5376992225647,4,versionC_stim.csv,READVersionD.csv,"Read Version D","Dissertation, read only version D",TIE,SHOELACE,Study2,B,99,154,Study,User,-,,Study/JOL,"Study Phase",1030,,,-1,-1,,,,1
w10079637_EEL,paaxucwlvw,Nick_Dissertation_EX1,1,35,2020-04-24T13:31:32-07:00,2.7572028636932,4,versionC_stim.csv,READVersionD.csv,"Read Version D","Dissertation, read only version D",STEAK,GIVE,Study2,U,158,133,Study,User,-,,Study/JOL,"Study Phase",2127,,,-1,-1,,,,1
w10079637_EEL,paaxucwlvw,Nick_Dissertation_EX1,1,36,2020-04-24T13:31:34-07:00,1.727245092392,4,versionC_stim.csv,READVersionD.csv,"Read Version D","Dissertation, read only version D",HEAD,SCALP,Study2,B,105,100,Study,User,-,,Study/JOL,"Study Phase",1080,,,-1,-1,,,,1
w10079637_EEL,paaxucwlvw,Nick_Dissertation_EX1,1,37,2020-04-24T13:31:35-07:00,1.5862379074097,4,versionC_stim.csv,READVersionD.csv,"Read Version D","Dissertation, read only version D",SEATBELT,SAFETY,Study2,S,147,97,Study,User,-,,Study/JOL,"Study Phase",1057,,,-1,-1,,,,1
w10079637_EEL,paaxucwlvw,Nick_Dissertation_EX1,1,38,2020-04-24T13:31:37-07:00,1.3697829246521,4,versionC_stim.csv,READVersionD.csv,"Read Version D","Dissertation, read only version D",WET,DRY,Study2,S,146,175,Study,User,-,,Study/JOL,"Study Phase",800,,,-1,-1,,,,1
w10079637_EEL,paaxucwlvw,Nick_Dissertation_EX1,1,39,2020-04-24T13:31:38-07:00,1.395259141922,4,versionC_stim.csv,READVersionD.csv,"Read Version D","Dissertation, read only version D",FAVORITE,BEST,Study2,F,125,150,Study,User,-,,Study/JOL,"Study Phase",843,,,-1,-1,,,,1
w10079637_EEL,paaxucwlvw,Nick_Dissertation_EX1,1,40,2020-04-24T13:31:40-07:00,1.584930896759,4,versionC_stim.csv,READVersionD.csv,"Read Version D","Dissertation, read only version D",LONG,EXTENSION,Study2,B,96,120,Study,User,-,,Study/JOL,"Study Phase",995,,,-1,-1,,,,1
w10079637_EEL,paaxucwlvw,Nick_Dissertation_EX1,1,41,2020-04-24T13:31:41-07:00,1.5581390857697,4,versionC_stim.csv,READVersionD.csv,"Read Version D","Dissertation, read only version D",BANKER,MONEY,Study2,F,132,128,Study,User,-,,Study/JOL,"Study Phase",1027,,,-1,-1,,,,1
w10079637_EEL,paaxucwlvw,Nick_Dissertation_EX1,1,42,2020-04-24T13:31:43-07:00,1.3970918655396,4,versionC_stim.csv,READVersionD.csv,"Read Version D","Dissertation, read only version D",CHARM,VEHICLE,Study2,U,160,134,Study,User,-,,Study/JOL,"Study Phase",840,,,-1,-1,,,,1
w10079637_EEL,paaxucwlvw,Nick_Dissertation_EX1,1,43,2020-04-24T13:31:45-07:00,1.9951190948486,4,versionC_stim.csv,READVersionD.csv,"Read Version D","Dissertation, read only version D",SHAKE,Shell,Study2,U,163,137,Study,User,-,,Study/JOL,"Study Phase",1309,,,-1,-1,,,,1
w10079637_EEL,paaxucwlvw,Nick_Dissertation_EX1,1,44,2020-04-24T13:31:47-07:00,1.8935739994049,4,versionC_stim.csv,READVersionD.csv,"Read Version D","Dissertation, read only version D",BREAKABLE,GLASS,Study2,F,127,101,Study,User,-,,Study/JOL,"Study Phase",1405,,,-1,-1,,,,1
w10079637_EEL,paaxucwlvw,Nick_Dissertation_EX1,1,45,2020-04-24T13:31:48-07:00,1.8401880264282,4,versionC_stim.csv,READVersionD.csv,"Read Version D","Dissertation, read only version D",SIGN,LOAN,Study2,U,171,157,Study,User,-,,Study/JOL,"Study Phase",1199,,,-1,-1,,,,1
w10079637_EEL,paaxucwlvw,Nick_Dissertation_EX1,1,46,2020-04-24T13:31:50-07:00,1.8658049106598,4,versionC_stim.csv,READVersionD.csv,"Read Version D","Dissertation, read only version D",COFFIN,DEAD,Study2,F,128,160,Study,User,-,,Study/JOL,"Study Phase",1326,,,-1,-1,,,,1
w10079637_EEL,paaxucwlvw,Nick_Dissertation_EX1,1,47,2020-04-24T13:31:52-07:00,1.7241971492767,4,versionC_stim.csv,READVersionD.csv,"Read Version D","Dissertation, read only version D",JAR,MASON,Study2,S,138,125,Study,User,-,,Study/JOL,"Study Phase",1103,,,-1,-1,,,,1
w10079637_EEL,paaxucwlvw,Nick_Dissertation_EX1,1,48,2020-04-24T13:31:54-07:00,1.5211379528046,4,versionC_stim.csv,READVersionD.csv,"Read Version D","Dissertation, read only version D",CHILDREN,MIRROR,Study2,U,174,136,Study,User,-,,Study/JOL,"Study Phase",980,,,-1,-1,,,,1
w10079637_EEL,paaxucwlvw,Nick_Dissertation_EX1,1,49,2020-04-24T13:31:55-07:00,1.6594929695129,4,versionC_stim.csv,READVersionD.csv,"Read Version D","Dissertation, read only version D",OBTAIN,MEAT,Study2,U,161,108,Study,User,-,,Study/JOL,"Study Phase",1128,,,-1,-1,,,,1
w10079637_EEL,paaxucwlvw,Nick_Dissertation_EX1,1,50,2020-04-24T13:31:57-07:00,1.6693360805511,4,versionC_stim.csv,READVersionD.csv,"Read Version D","Dissertation, read only version D",CLOTH,STRETCH,Study2,U,157,130,Study,User,-,,Study/JOL,"Study Phase",1173,,,-1,-1,,,,1
w10079637_EEL,paaxucwlvw,Nick_Dissertation_EX1,1,51,2020-04-24T13:31:58-07:00,1.6278219223022,4,versionC_stim.csv,READVersionD.csv,"Read Version D","Dissertation, read only version D",THIMBLE,THREAD,Study2,F,121,105,Study,User,-,,Study/JOL,"Study Phase",1050,,,-1,-1,,,,1
w10079637_EEL,paaxucwlvw,Nick_Dissertation_EX1,1,52,2020-04-24T13:32:00-07:00,1.249125957489,4,versionC_stim.csv,READVersionD.csv,"Read Version D","Dissertation, read only version D",TAN,SUN,Study2,S,155,110,Study,User,-,,Study/JOL,"Study Phase",675,,,-1,-1,,,,1
w10079637_EEL,paaxucwlvw,Nick_Dissertation_EX1,1,53,2020-04-24T13:32:01-07:00,1.5193190574646,4,versionC_stim.csv,READVersionD.csv,"Read Version D","Dissertation, read only version D",MYSTERY,DETECTIVE,Study2,B,100,138,Study,User,-,,Study/JOL,"Study Phase",986,,,-1,-1,,,,1
w10079637_EEL,paaxucwlvw,Nick_Dissertation_EX1,1,54,2020-04-24T13:32:03-07:00,1.9342200756073,4,versionC_stim.csv,READVersionD.csv,"Read Version D","Dissertation, read only version D",STRAWBERRY,FRUIT,Study2,F,124,121,Study,User,-,,Study/JOL,"Study Phase",1392,,,-1,-1,,,,1
w10079637_EEL,paaxucwlvw,Nick_Dissertation_EX1,1,55,2020-04-24T13:32:05-07:00,1.4558718204498,4,versionC_stim.csv,READVersionD.csv,"Read Version D","Dissertation, read only version D",SCAR,MAIN,Study2,U,175,127,Study,User,-,,Study/JOL,"Study Phase",945,,,-1,-1,,,,1
w10079637_EEL,paaxucwlvw,Nick_Dissertation_EX1,1,56,2020-04-24T13:32:06-07:00,1.3478510379791,4,versionC_stim.csv,READVersionD.csv,"Read Version D","Dissertation, read only version D",WINDSHIELD,CAR,Study2,F,117,144,Study,User,-,,Study/JOL,"Study Phase",803,,,-1,-1,,,,1
w10079637_EEL,paaxucwlvw,Nick_Dissertation_EX1,1,57,2020-04-24T13:32:07-07:00,1.3344030380249,4,versionC_stim.csv,READVersionD.csv,"Read Version D","Dissertation, read only version D",TRUTHFUL,HONEST,Study2,F,133,156,Study,User,-,,Study/JOL,"Study Phase",765,,,-1,-1,,,,1
w10079637_EEL,paaxucwlvw,Nick_Dissertation_EX1,1,58,2020-04-24T13:32:09-07:00,1.4717009067535,4,versionC_stim.csv,READVersionD.csv,"Read Version D","Dissertation, read only version D",FICTION,LISTEN,Study2,U,164,116,Study,User,-,,Study/JOL,"Study Phase",899,,,-1,-1,,,,1
w10079637_EEL,paaxucwlvw,Nick_Dissertation_EX1,1,59,2020-04-24T13:32:10-07:00,1.2571921348572,4,versionC_stim.csv,READVersionD.csv,"Read Version D","Dissertation, read only version D",CAR,DRIVER,Study2,B,106,139,Study,User,-,,Study/JOL,"Study Phase",688,,,-1,-1,,,,1
w10079637_EEL,paaxucwlvw,Nick_Dissertation_EX1,1,60,2020-04-24T13:32:12-07:00,1.5476958751678,4,versionC_stim.csv,READVersionD.csv,"Read Version D","Dissertation, read only version D",END,ADJOURN,Study2,B,101,114,Study,User,-,,Study/JOL,"Study Phase",1064,,,-1,-1,,,,1
w10079637_EEL,paaxucwlvw,Nick_Dissertation_EX1,1,61,2020-04-24T13:32:13-07:00,1.3154120445251,4,versionC_stim.csv,READVersionD.csv,"Read Version D","Dissertation, read only version D",GAME,CLUE,Study2,B,97,174,Study,User,-,,Study/JOL,"Study Phase",747,,,-1,-1,,,,1
w10079637_EEL,paaxucwlvw,Nick_Dissertation_EX1,1,62,2020-04-24T13:32:14-07:00,1.5560159683228,4,versionC_stim.csv,READVersionD.csv,"Read Version D","Dissertation, read only version D",NAP,SLEEP,Study2,F,134,102,Study,User,-,,Study/JOL,"Study Phase",1017,,,-1,-1,,,,1
w10079637_EEL,paaxucwlvw,Nick_Dissertation_EX1,1,63,2020-04-24T13:32:17-07:00,2.0335080623627,4,versionC_stim.csv,READVersionD.csv,"Read Version D","Dissertation, read only version D",PLANT,CACTUS,Study2,B,98,161,Study,User,-,,Study/JOL,"Study Phase",1515,,,-1,-1,,,,1
w10079637_EEL,paaxucwlvw,Nick_Dissertation_EX1,1,64,2020-04-24T13:32:18-07:00,1.4169471263885,4,versionC_stim.csv,READVersionD.csv,"Read Version D","Dissertation, read only version D",SMELL,INCENSE,Study2,B,110,109,Study,User,-,,Study/JOL,"Study Phase",894,,,-1,-1,,,,1
w10079637_EEL,paaxucwlvw,Nick_Dissertation_EX1,1,65,2020-04-24T13:32:19-07:00,1.503310918808,4,versionC_stim.csv,READVersionD.csv,"Read Version D","Dissertation, read only version D",COMMUNICATION,PHONE,Study2,S,149,122,Study,User,-,,Study/JOL,"Study Phase",926,,,-1,-1,,,,1
w10079637_EEL,paaxucwlvw,Nick_Dissertation_EX1,1,66,2020-04-24T13:32:21-07:00,1.4615139961243,4,versionC_stim.csv,READVersionD.csv,"Read Version D","Dissertation, read only version D",LIE,TRUTH,Study2,S,148,153,Study,User,-,,Study/JOL,"Study Phase",837,,,-1,-1,,,,1
w10079637_EEL,paaxucwlvw,Nick_Dissertation_EX1,1,67,2020-04-24T13:32:22-07:00,1.187441110611,4,versionC_stim.csv,READVersionD.csv,"Read Version D","Dissertation, read only version D",DONKEY,MULE,Study2,B,108,131,Study,User,-,,Study/JOL,"Study Phase",566,,,-1,-1,,,,1
w10079637_EEL,paaxucwlvw,Nick_Dissertation_EX1,1,68,2020-04-24T13:32:23-07:00,1.2295658588409,4,versionC_stim.csv,READVersionD.csv,"Read Version D","Dissertation, read only version D",REVENGE,EVEN,Study2,F,122,117,Study,User,-,,Study/JOL,"Study Phase",647,,,-1,-1,,,,1
w10079637_EEL,paaxucwlvw,Nick_Dissertation_EX1,1,69,2020-04-24T13:32:24-07:00,1.1866059303284,4,versionC_stim.csv,READVersionD.csv,"Read Version D","Dissertation, read only version D",GROUND,EARTH,Study2,S,144,107,Study,User,-,,Study/JOL,"Study Phase",582,,,-1,-1,,,,1
w10079637_EEL,paaxucwlvw,Nick_Dissertation_EX1,1,70,2020-04-24T13:32:26-07:00,1.013277053833,4,versionC_stim.csv,READVersionD.csv,"Read Version D","Dissertation, read only version D",CLEAR,MOAT,Study2,U,169,123,Study,User,-,,Study/JOL,"Study Phase",404,,,-1,-1,,,,1
w10079637_EEL,paaxucwlvw,Nick_Dissertation_EX1,1,71,2020-04-24T13:32:27-07:00,1.1100029945374,4,versionC_stim.csv,READVersionD.csv,"Read Version D","Dissertation, read only version D",BALLOON,POP,Study2,F,123,155,Study,User,-,,Study/JOL,"Study Phase",560,,,-1,-1,,,,1
w10079637_EEL,paaxucwlvw,Nick_Dissertation_EX1,1,72,2020-04-24T13:32:28-07:00,1.1369919776917,4,versionC_stim.csv,READVersionD.csv,"Read Version D","Dissertation, read only version D",DRINK,WATER,Study2,S,143,172,Study,User,-,,Study/JOL,"Study Phase",548,,,-1,-1,,,,1
w10079637_EEL,paaxucwlvw,Nick_Dissertation_EX1,1,73,2020-04-24T13:32:30-07:00,1.8333451747894,4,versionC_stim.csv,READVersionD.csv,"Read Version D","Dissertation, read only version D",ELECTION,MAZE,Study2,U,159,112,Study,User,-,,Study/JOL,"Study Phase",1282,,,-1,-1,,,,1
w10079637_EEL,paaxucwlvw,Nick_Dissertation_EX1,1,74,2020-04-24T13:32:31-07:00,1.1173799037933,4,versionC_stim.csv,READVersionD.csv,"Read Version D","Dissertation, read only version D",EAT,DINE,Study2,B,111,104,Study,User,-,,Study/JOL,"Study Phase",551,,,-1,-1,,,,1
w10079637_EEL,paaxucwlvw,Nick_Dissertation_EX1,1,75,2020-04-24T13:32:32-07:00,1.030385017395,4,versionC_stim.csv,READVersionD.csv,"Read Version D","Dissertation, read only version D",MAROON,JUSTICE,Study2,U,156,167,Study,User,-,,Study/JOL,"Study Phase",559,,,-1,-1,,,,1
w10079637_EEL,paaxucwlvw,Nick_Dissertation_EX1,1,76,2020-04-24T13:32:33-07:00,1.2683088779449,4,versionC_stim.csv,READVersionD.csv,"Read Version D","Dissertation, read only version D",DOG,FURRY,Study2,B,102,163,Study,User,-,,Study/JOL,"Study Phase",736,,,-1,-1,,,,1
w10079637_EEL,paaxucwlvw,Nick_Dissertation_EX1,1,77,2020-04-24T13:32:34-07:00,1.0812029838562,4,versionC_stim.csv,READVersionD.csv,"Read Version D","Dissertation, read only version D",TRASH,LITTER,Study2,B,103,126,Study,User,-,,Study/JOL,"Study Phase",581,,,-1,-1,,,,1
w10079637_EEL,paaxucwlvw,Nick_Dissertation_EX1,1,78,2020-04-24T13:32:36-07:00,1.7838079929352,4,versionC_stim.csv,READVersionD.csv,"Read Version D","Dissertation, read only version D",LEAGUE,BASEBALL,Study2,F,131,164,Study,User,-,,Study/JOL,"Study Phase",1219,,,-1,-1,,,,1
w10079637_EEL,paaxucwlvw,Nick_Dissertation_EX1,1,79,2020-04-24T13:32:37-07:00,1.1409950256348,4,versionC_stim.csv,READVersionD.csv,"Read Version D","Dissertation, read only version D",VILLAIN,BAD,Study2,F,118,152,Study,User,-,,Study/JOL,"Study Phase",593,,,-1,-1,,,,1
w10079637_EEL,paaxucwlvw,Nick_Dissertation_EX1,1,80,2020-04-24T13:32:38-07:00,0.83171510696411,4,versionC_stim.csv,READVersionD.csv,"Read Version D","Dissertation, read only version D",AIRCRAFT,PLANE,Study2,F,129,168,Study,User,-,,Study/JOL,"Study Phase",321,,,-1,-1,,,,1
w10079637_EEL,paaxucwlvw,Nick_Dissertation_EX1,1,81,2020-04-24T13:32:39-07:00,1.210128068924,4,versionC_stim.csv,READVersionD.csv,"Read Version D","Dissertation, read only version D",FLIP,TURN,Study2,F,116,162,Study,User,-,,Study/JOL,"Study Phase",684,,,-1,-1,,,,1
w10079637_EEL,paaxucwlvw,Nick_Dissertation_EX1,1,82,2020-04-24T13:32:41-07:00,1.5870208740234,4,versionC_stim.csv,READVersionD.csv,"Read Version D","Dissertation, read only version D",FIGHT,FEUD,Study2,B,113,173,Study,User,-,,Study/JOL,"Study Phase",956,,,-1,-1,,,,1
w10079637_EEL,paaxucwlvw,Nick_Dissertation_EX1,1,83,2020-04-24T13:32:42-07:00,1.2992150783539,4,versionC_stim.csv,READVersionD.csv,"Read Version D","Dissertation, read only version D",EQUAL,RIGHTS,Study2,S,137,147,Study,User,-,,Study/JOL,"Study Phase",768,,,-1,-1,,,,1
w10079637_EEL,paaxucwlvw,Nick_Dissertation_EX1,1,84,2020-04-24T13:32:43-07:00,1.4088370800018,4,versionC_stim.csv,READVersionD.csv,"Read Version D","Dissertation, read only version D",RED,CHERRY,Study2,B,104,170,Study,User,-,,Study/JOL,"Study Phase",782,,,-1,-1,,,,1
w10079637_EEL,paaxucwlvw,Nick_Dissertation_EX1,1,85,2020-04-24T13:32:45-07:00,1.448157787323,4,versionC_stim.csv,READVersionD.csv,"Read Version D","Dissertation, read only version D",CUT,CHOP,Study2,B,107,98,Study,User,-,,Study/JOL,"Study Phase",793,,,-1,-1,,,,1
w10079637_EEL,paaxucwlvw,Nick_Dissertation_EX1,1,86,2020-04-24T13:32:46-07:00,1.3463370800018,4,versionC_stim.csv,READVersionD.csv,"Read Version D","Dissertation, read only version D",PANTHER,CAT,Study2,F,126,118,Study,User,-,,Study/JOL,"Study Phase",768,,,-1,-1,,,,1
w10079637_EEL,paaxucwlvw,Nick_Dissertation_EX1,1,87,2020-04-24T13:32:47-07:00,1.2179009914398,4,versionC_stim.csv,READVersionD.csv,"Read Version D","Dissertation, read only version D",SHED,TOOL,BUFFER4,Buffer,178,181,Study,User,-,,Study/JOL,BUFFER2,639,,,-1,-1,,,,1
w10079637_EEL,paaxucwlvw,Nick_Dissertation_EX1,1,88,2020-04-24T13:32:49-07:00,1.2815780639648,4,versionC_stim.csv,READVersionD.csv,"Read Version D","Dissertation, read only version D",MARCH,SPRING,BUFFER4,Buffer,179,179,Study,User,-,,Study/JOL,BUFFER2,626,,,-1,-1,,,,1
w10079637_EEL,paaxucwlvw,Nick_Dissertation_EX1,1,89,2020-04-24T13:32:50-07:00,1.2176110744476,4,versionC_stim.csv,READVersionD.csv,"Read Version D","Dissertation, read only version D",YEAR,MONTH,BUFFER4,Buffer,177,178,Study,User,-,,Study/JOL,BUFFER2,698,,,-1,-1,,,,1
w10079637_EEL,paaxucwlvw,Nick_Dissertation_EX1,1,90,2020-04-24T13:32:51-07:00,1.0417068004608,4,versionC_stim.csv,READVersionD.csv,"Read Version D","Dissertation, read only version D",WEAKS,DAYS,BUFFER4,Buffer,176,177,Study,User,-,,Study/JOL,BUFFER2,524,,,-1,-1,,,,1
w10079637_EEL,paaxucwlvw,Nick_Dissertation_EX1,1,91,2020-04-24T13:32:52-07:00,1.2840449810028,4,versionC_stim.csv,READVersionD.csv,"Read Version D","Dissertation, read only version D",SPOOKY,OCTOBER,BUFFER4,Buffer,180,180,Study,User,-,,Study/JOL,BUFFER2,649,,,-1,-1,,,,1
w10079637_EEL,paaxucwlvw,Nick_Dissertation_EX1,1,92,2020-04-24T13:32:55-07:00,2.7059271335602,4,versionC_stim.csv,READVersionD.csv,"Read Version D","Dissertation, read only version D",,,,,,0,Instruct,User,-,"You have completed this section. Please press Enter.",Filler_Instruction,Instruct2,2160,,,-1,-1,,,,1
w10079637_EEL,paaxucwlvw,Nick_Dissertation_EX1,1,93,2020-04-24T13:34:55-07:00,120.61436700821,4,versionC_stim.csv,READVersionD.csv,"Read Version D","Dissertation, read only version D",,,,,,0,FreeRecall,120,120,"Please list the 50 US states in alphabetical order. The task will automatically advance to the next screen after two minutes.",,Filler1,120003,"alabama arkansas california deleware georgia iowa kansas louisiana mississippi main new hampshire new york oklahoma pensilvania texas washington ",0,25455,119584,0,0,,0.987
w10079637_EEL,paaxucwlvw,Nick_Dissertation_EX1,1,94,2020-04-24T13:35:10-07:00,14.714016914368,4,versionC_stim.csv,READVersionD.csv,"Read Version D","Dissertation, read only version D",,,,,,0,Instruct,-,10,"You will now be presented with the first word from each of the previously studied item pairs. Please type the missing word. If you do not know the word, you may guess or press Enter to skip forward to the next pair.",,Instruct3,14147,,,-1,-1,,,,0.718
w10079637_EEL,paaxucwlvw,Nick_Dissertation_EX1,1,95,2020-04-24T13:35:14-07:00,3.3047320842743,4,versionC_stim.csv,READVersionD.csv,"Read Version D","Dissertation, read only version D",REEL,ROD,Study2,S,150,99,Test,User,-,,Recall,Recall1,2759,rod,100,1839,2293,1,1,,1
w10079637_EEL,paaxucwlvw,Nick_Dissertation_EX1,1,96,2020-04-24T13:35:18-07:00,4.4759829044342,4,versionC_stim.csv,READVersionD.csv,"Read Version D","Dissertation, read only version D",END,ADJOURN,Study2,B,101,114,Test,User,-,,Recall,Recall1,4048,"adjorn ",92.307692307692,1731,3773,0,1,,1
w10079637_EEL,paaxucwlvw,Nick_Dissertation_EX1,1,97,2020-04-24T13:35:21-07:00,2.6378979682922,4,versionC_stim.csv,READVersionD.csv,"Read Version D","Dissertation, read only version D",AWAY,GONE,Study2,S,142,142,Test,User,-,,Recall,Recall1,2220,gone,100,1637,1964,1,1,,1
w10079637_EEL,paaxucwlvw,Nick_Dissertation_EX1,1,98,2020-04-24T13:35:24-07:00,2.9122931957245,4,versionC_stim.csv,READVersionD.csv,"Read Version D","Dissertation, read only version D",LIE,TRUTH,Study2,S,148,153,Test,User,-,,Recall,Recall1,2458,truth,100,1532,2118,1,1,,1
w10079637_EEL,paaxucwlvw,Nick_Dissertation_EX1,1,99,2020-04-24T13:35:26-07:00,2.1010489463806,4,versionC_stim.csv,READVersionD.csv,"Read Version D","Dissertation, read only version D",TICK,FLEA,Study2,S,151,166,Test,User,-,,Recall,Recall1,1670,flea,100,1021,1392,1,1,,1
w10079637_EEL,paaxucwlvw,Nick_Dissertation_EX1,1,100,2020-04-24T13:35:28-07:00,2.8374588489532,4,versionC_stim.csv,READVersionD.csv,"Read Version D","Dissertation, read only version D",CARBON,ELEMENT,Study2,S,141,111,Test,User,-,,Recall,Recall1,2385,element,100,1110,2003,1,1,,1
w10079637_EEL,paaxucwlvw,Nick_Dissertation_EX1,1,101,2020-04-24T13:35:34-07:00,5.7476961612701,4,versionC_stim.csv,READVersionD.csv,"Read Version D","Dissertation, read only version D",LONG,EXTENSION,Study2,B,96,120,Test,User,-,,Recall,Recall1,5324,extension,100,2408,4993,1,1,,1
w10079637_EEL,paaxucwlvw,Nick_Dissertation_EX1,1,102,2020-04-24T13:35:42-07:00,7.4038689136505,4,versionC_stim.csv,READVersionD.csv,"Read Version D","Dissertation, read only version D",STRAWBERRY,FRUIT,Study2,F,124,121,Test,User,-,,Recall,Recall1,6968,fruit,100,5495,6449,1,1,,1
w10079637_EEL,paaxucwlvw,Nick_Dissertation_EX1,1,103,2020-04-24T13:35:46-07:00,4.0005691051483,4,versionC_stim.csv,READVersionD.csv,"Read Version D","Dissertation, read only version D",MYSTERY,DETECTIVE,Study2,B,100,138,Test,User,-,,Recall,Recall1,3553,murder,26.666666666667,2338,3212,0,0,,1
w10079637_EEL,paaxucwlvw,Nick_Dissertation_EX1,1,104,2020-04-24T13:35:50-07:00,4.7606959342957,4,versionC_stim.csv,READVersionD.csv,"Read Version D","Dissertation, read only version D",COLD,CHILL,Study2,B,114,148,Test,User,-,,Recall,Recall1,4335,ice,25,3786,4079,0,0,,1
w10079637_EEL,paaxucwlvw,Nick_Dissertation_EX1,1,105,2020-04-24T13:35:54-07:00,3.2279109954834,4,versionC_stim.csv,READVersionD.csv,"Read Version D","Dissertation, read only version D",TRUTHFUL,HONEST,Study2,F,133,156,Test,User,-,,Recall,Recall1,2796,lie,22.222222222222,1987,2495,0,0,,1
w10079637_EEL,paaxucwlvw,Nick_Dissertation_EX1,1,106,2020-04-24T13:35:59-07:00,5.753485918045,4,versionC_stim.csv,READVersionD.csv,"Read Version D","Dissertation, read only version D",FICTION,LISTEN,Study2,U,164,116,Test,User,-,,Recall,Recall1,5341,truth,18.181818181818,3955,5021,0,0,,1
w10079637_EEL,paaxucwlvw,Nick_Dissertation_EX1,1,107,2020-04-24T13:36:05-07:00,5.271842956543,4,versionC_stim.csv,READVersionD.csv,"Read Version D","Dissertation, read only version D",EAT,DINE,Study2,B,111,104,Test,User,-,,Recall,Recall1,4830,eat,28.571428571429,4160,4573,0,0,,1
w10079637_EEL,paaxucwlvw,Nick_Dissertation_EX1,1,108,2020-04-24T13:36:07-07:00,2.5014810562134,4,versionC_stim.csv,READVersionD.csv,"Read Version D","Dissertation, read only version D",PANTHER,CAT,Study2,F,126,118,Test,User,-,,Recall,Recall1,2048,cat,100,1428,1827,1,1,,1
w10079637_EEL,paaxucwlvw,Nick_Dissertation_EX1,1,109,2020-04-24T13:36:10-07:00,3.3398439884186,4,versionC_stim.csv,READVersionD.csv,"Read Version D","Dissertation, read only version D",PLANT,CACTUS,Study2,B,98,161,Test,User,-,,Recall,Recall1,2933,cactus,100,1415,2647,1,1,,1
w10079637_EEL,paaxucwlvw,Nick_Dissertation_EX1,1,110,2020-04-24T13:36:13-07:00,2.5621609687805,4,versionC_stim.csv,READVersionD.csv,"Read Version D","Dissertation, read only version D",NAP,SLEEP,Study2,F,134,102,Test,User,-,,Recall,Recall1,2152,sleep,100,1293,1856,1,1,,1
w10079637_EEL,paaxucwlvw,Nick_Dissertation_EX1,1,111,2020-04-24T13:36:16-07:00,3.0675330162048,4,versionC_stim.csv,READVersionD.csv,"Read Version D","Dissertation, read only version D",JOKE,KEYS,Study2,U,165,158,Test,User,-,,Recall,Recall1,2644,keys,100,1963,2371,1,1,,1
w10079637_EEL,paaxucwlvw,Nick_Dissertation_EX1,1,112,2020-04-24T13:36:20-07:00,3.7851870059967,4,versionC_stim.csv,READVersionD.csv,"Read Version D","Dissertation, read only version D",CUT,CHOP,Study2,B,107,98,Test,User,-,,Recall,Recall1,3362,shears,20,2205,3072,0,0,,1
w10079637_EEL,paaxucwlvw,Nick_Dissertation_EX1,1,113,2020-04-24T13:36:23-07:00,3.0135061740875,4,versionC_stim.csv,READVersionD.csv,"Read Version D","Dissertation, read only version D",CLOTH,STRETCH,Study2,U,157,130,Test,User,-,,Recall,Recall1,2572,stretch,100,1250,2254,1,1,,1
w10079637_EEL,paaxucwlvw,Nick_Dissertation_EX1,1,114,2020-04-24T13:36:28-07:00,5.3453288078308,4,versionC_stim.csv,READVersionD.csv,"Read Version D","Dissertation, read only version D",CLEAR,MOAT,Study2,U,169,123,Test,User,-,,Recall,Recall1,4931,plastic,36.363636363636,2334,4723,0,0,,1
w10079637_EEL,paaxucwlvw,Nick_Dissertation_EX1,1,115,2020-04-24T13:36:31-07:00,2.4254059791565,4,versionC_stim.csv,READVersionD.csv,"Read Version D","Dissertation, read only version D",SIGN,LOAN,Study2,U,171,157,Test,User,-,,Recall,Recall1,1981,name,25,1464,1756,0,0,,1
w10079637_EEL,paaxucwlvw,Nick_Dissertation_EX1,1,116,2020-04-24T13:36:34-07:00,3.1127710342407,4,versionC_stim.csv,READVersionD.csv,"Read Version D","Dissertation, read only version D",COMMUNICATION,PHONE,Study2,S,149,122,Test,User,-,,Recall,Recall1,2735,speak,40,1718,2431,0,0,,1
w10079637_EEL,paaxucwlvw,Nick_Dissertation_EX1,1,117,2020-04-24T13:36:40-07:00,6.256007194519,4,versionC_stim.csv,READVersionD.csv,"Read Version D","Dissertation, read only version D",SHAKE,Shell,Study2,U,163,137,Test,User,-,,Recall,Recall1,5832,handle,36.363636363636,1997,5643,0,0,,1
w10079637_EEL,paaxucwlvw,Nick_Dissertation_EX1,1,118,2020-04-24T13:36:43-07:00,2.6417708396912,4,versionC_stim.csv,READVersionD.csv,"Read Version D","Dissertation, read only version D",WET,DRY,Study2,S,146,175,Test,User,-,,Recall,Recall1,2256,dry,100,1572,1920,1,1,,1
w10079637_EEL,paaxucwlvw,Nick_Dissertation_EX1,1,119,2020-04-24T13:36:46-07:00,3.4507761001587,4,versionC_stim.csv,READVersionD.csv,"Read Version D","Dissertation, read only version D",PAPER,DOCUMENT,Study2,B,109,165,Test,User,-,,Recall,Recall1,3010,document,100,1791,2778,1,1,,1
w10079637_EEL,paaxucwlvw,Nick_Dissertation_EX1,1,120,2020-04-24T13:36:49-07:00,3.0518798828125,4,versionC_stim.csv,READVersionD.csv,"Read Version D","Dissertation, read only version D",CHILDREN,MIRROR,Study2,U,174,136,Test,User,-,,Recall,Recall1,2641,baby,0,1997,2310,0,0,,1
w10079637_EEL,paaxucwlvw,Nick_Dissertation_EX1,1,121,2020-04-24T13:36:54-07:00,4.5020270347595,4,versionC_stim.csv,READVersionD.csv,"Read Version D","Dissertation, read only version D",REVENGE,EVEN,Study2,F,122,117,Test,User,-,,Recall,Recall1,4095,take,25,2466,3869,0,0,,1
w10079637_EEL,paaxucwlvw,Nick_Dissertation_EX1,1,122,2020-04-24T13:36:57-07:00,3.202544927597,4,versionC_stim.csv,READVersionD.csv,"Read Version D","Dissertation, read only version D",FIGHT,FEUD,Study2,B,113,173,Test,User,-,,Recall,Recall1,2527,hit,0,2126,2347,0,0,,1
w10079637_EEL,paaxucwlvw,Nick_Dissertation_EX1,1,123,2020-04-24T13:37:03-07:00,5.9087491035461,4,versionC_stim.csv,READVersionD.csv,"Read Version D","Dissertation, read only version D",TOIL,LEASE,Study2,U,170,149,Test,User,-,,Recall,Recall1,5486,nap,25,4987,5231,0,0,,1
w10079637_EEL,paaxucwlvw,Nick_Dissertation_EX1,1,124,2020-04-24T13:37:05-07:00,2.142991065979,4,versionC_stim.csv,READVersionD.csv,"Read Version D","Dissertation, read only version D",HAVE,OWN,Study2,S,153,141,Test,User,-,,Recall,Recall1,1715,take,0,1154,1457,0,0,,1
w10079637_EEL,paaxucwlvw,Nick_Dissertation_EX1,1,125,2020-04-24T13:37:09-07:00,3.6294460296631,4,versionC_stim.csv,READVersionD.csv,"Read Version D","Dissertation, read only version D",BREAKABLE,GLASS,Study2,F,127,101,Test,User,-,,Recall,Recall1,3254,glass,100,1364,3072,1,1,,1
w10079637_EEL,paaxucwlvw,Nick_Dissertation_EX1,1,126,2020-04-24T13:37:11-07:00,2.4545178413391,4,versionC_stim.csv,READVersionD.csv,"Read Version D","Dissertation, read only version D",MAROON,JUSTICE,Study2,U,156,167,Test,User,-,,Recall,Recall1,2045,red,20,1537,1821,0,0,,1
w10079637_EEL,paaxucwlvw,Nick_Dissertation_EX1,1,127,2020-04-24T13:37:15-07:00,3.4810540676117,4,versionC_stim.csv,READVersionD.csv,"Read Version D","Dissertation, read only version D",STEAK,GIVE,Study2,U,158,133,Test,User,-,,Recall,Recall1,3101,give,100,2069,2834,1,1,,1
w10079637_EEL,paaxucwlvw,Nick_Dissertation_EX1,1,128,2020-04-24T13:37:17-07:00,2.4823429584503,4,versionC_stim.csv,READVersionD.csv,"Read Version D","Dissertation, read only version D",NOISE,LOUD,Study2,S,152,119,Test,User,-,,Recall,Recall1,2066,loud,100,1149,1711,1,1,,1
w10079637_EEL,paaxucwlvw,Nick_Dissertation_EX1,1,129,2020-04-24T13:37:20-07:00,3.2458779811859,4,versionC_stim.csv,READVersionD.csv,"Read Version D","Dissertation, read only version D",AIRCRAFT,PLANE,Study2,F,129,168,Test,User,-,,Recall,Recall1,2837,plane,100,2036,2547,1,1,,1
w10079637_EEL,paaxucwlvw,Nick_Dissertation_EX1,1,130,2020-04-24T13:37:23-07:00,2.8511559963226,4,versionC_stim.csv,READVersionD.csv,"Read Version D","Dissertation, read only version D",LONELY,ALONE,Study2,S,145,143,Test,User,-,,Recall,Recall1,2430,alone,100,1498,2134,1,1,,1
w10079637_EEL,paaxucwlvw,Nick_Dissertation_EX1,1,131,2020-04-24T13:37:26-07:00,2.8577201366425,4,versionC_stim.csv,READVersionD.csv,"Read Version D","Dissertation, read only version D",FLIP,TURN,Study2,F,116,162,Test,User,-,,Recall,Recall1,2463,house,22.222222222222,1722,2180,0,0,,1
w10079637_EEL,paaxucwlvw,Nick_Dissertation_EX1,1,132,2020-04-24T13:37:29-07:00,3.0115280151367,4,versionC_stim.csv,READVersionD.csv,"Read Version D","Dissertation, read only version D",ELECTION,MAZE,Study2,U,159,112,Test,User,-,,Recall,Recall1,2584,"mayor ",44.444444444444,1388,2342,0,0,,1
w10079637_EEL,paaxucwlvw,Nick_Dissertation_EX1,1,133,2020-04-24T13:37:31-07:00,2.4712820053101,4,versionC_stim.csv,READVersionD.csv,"Read Version D","Dissertation, read only version D",SEATBELT,SAFETY,Study2,S,147,97,Test,User,-,,Recall,Recall1,2061,car,22.222222222222,1515,1840,0,0,,1
w10079637_EEL,paaxucwlvw,Nick_Dissertation_EX1,1,134,2020-04-24T13:37:36-07:00,4.8900678157806,4,versionC_stim.csv,READVersionD.csv,"Read Version D","Dissertation, read only version D",SHAVE,RAZOR,Study2,S,136,132,Test,User,-,,Recall,Recall1,4478,shear,40,3459,4152,0,0,,1
w10079637_EEL,paaxucwlvw,Nick_Dissertation_EX1,1,135,2020-04-24T13:37:39-07:00,2.7811391353607,4,versionC_stim.csv,READVersionD.csv,"Read Version D","Dissertation, read only version D",CLOTHES,CAKE,Study2,U,166,115,Test,User,-,,Recall,Recall1,2410,stretch,18.181818181818,1116,2092,0,0,,1
w10079637_EEL,paaxucwlvw,Nick_Dissertation_EX1,1,136,2020-04-24T13:37:41-07:00,2.023087978363,4,versionC_stim.csv,READVersionD.csv,"Read Version D","Dissertation, read only version D",BALLOON,POP,Study2,F,123,155,Test,User,-,,Recall,Recall1,1630,pop,100,1189,1421,1,1,,1
w10079637_EEL,paaxucwlvw,Nick_Dissertation_EX1,1,137,2020-04-24T13:37:44-07:00,2.5588209629059,4,versionC_stim.csv,READVersionD.csv,"Read Version D","Dissertation, read only version D",HATE,NAME,Study2,U,167,103,Test,User,-,,Recall,Recall1,2142,love,25,1528,1953,0,0,,1
w10079637_EEL,paaxucwlvw,Nick_Dissertation_EX1,1,138,2020-04-24T13:37:46-07:00,2.2373280525208,4,versionC_stim.csv,READVersionD.csv,"Read Version D","Dissertation, read only version D",ABLE,CRACKLE,Study2,U,162,146,Test,User,-,,Recall,Recall1,1856,to,0,1453,1586,0,0,,1
w10079637_EEL,paaxucwlvw,Nick_Dissertation_EX1,1,139,2020-04-24T13:37:51-07:00,4.9613349437714,4,versionC_stim.csv,READVersionD.csv,"Read Version D","Dissertation, read only version D",HEAD,SCALP,Study2,B,105,100,Test,User,-,,Recall,Recall1,4566,scapl,80,1442,4341,0,1,,1
w10079637_EEL,paaxucwlvw,Nick_Dissertation_EX1,1,140,2020-04-24T13:37:53-07:00,2.4719049930573,4,versionC_stim.csv,READVersionD.csv,"Read Version D","Dissertation, read only version D",BANKER,MONEY,Study2,F,132,128,Test,User,-,,Recall,Recall1,2081,money,100,1262,1763,1,1,,1
w10079637_EEL,paaxucwlvw,Nick_Dissertation_EX1,1,141,2020-04-24T13:37:56-07:00,2.9188759326935,4,versionC_stim.csv,READVersionD.csv,"Read Version D","Dissertation, read only version D",Morning,TEMPERATURE,Study2,U,173,169,Test,User,-,,Recall,Recall1,2497,night,12.5,1723,2295,0,0,,1
w10079637_EEL,paaxucwlvw,Nick_Dissertation_EX1,1,142,2020-04-24T13:37:59-07:00,2.3562700748444,4,versionC_stim.csv,READVersionD.csv,"Read Version D","Dissertation, read only version D",SCISSORS,SHEARS,Study2,B,112,129,Test,User,-,,Recall,Recall1,1935,shear,90.909090909091,936,1603,0,1,,1
w10079637_EEL,paaxucwlvw,Nick_Dissertation_EX1,1,143,2020-04-24T13:38:02-07:00,3.8275539875031,4,versionC_stim.csv,READVersionD.csv,"Read Version D","Dissertation, read only version D",BANG,FUZZY,Study2,U,168,124,Test,User,-,,Recall,Recall1,3419,pop,0,2914,3204,0,0,,1
w10079637_EEL,paaxucwlvw,Nick_Dissertation_EX1,1,144,2020-04-24T13:38:05-07:00,2.279559135437,4,versionC_stim.csv,READVersionD.csv,"Read Version D","Dissertation, read only version D",OBTAIN,MEAT,Study2,U,161,108,Test,User,-,,Recall,Recall1,1893,take,25,1300,1658,0,0,,1
w10079637_EEL,paaxucwlvw,Nick_Dissertation_EX1,1,145,2020-04-24T13:38:08-07:00,3.5594778060913,4,versionC_stim.csv,READVersionD.csv,"Read Version D","Dissertation, read only version D",SARDINE,FISH,Study2,F,130,135,Test,User,-,,Recall,Recall1,3136,fish,100,1793,2586,1,1,,1
w10079637_EEL,paaxucwlvw,Nick_Dissertation_EX1,1,146,2020-04-24T13:38:11-07:00,3.0785670280457,4,versionC_stim.csv,READVersionD.csv,"Read Version D","Dissertation, read only version D",EQUAL,RIGHTS,Study2,S,137,147,Test,User,-,,Recall,Recall1,2639,lesser,16.666666666667,1431,2399,0,0,,1
w10079637_EEL,paaxucwlvw,Nick_Dissertation_EX1,1,147,2020-04-24T13:38:14-07:00,2.2346770763397,4,versionC_stim.csv,READVersionD.csv,"Read Version D","Dissertation, read only version D",JAR,MASON,Study2,S,138,125,Test,User,-,,Recall,Recall1,1834,mason,100,1055,1583,1,1,,1
w10079637_EEL,paaxucwlvw,Nick_Dissertation_EX1,1,148,2020-04-24T13:38:17-07:00,2.9935219287872,4,versionC_stim.csv,READVersionD.csv,"Read Version D","Dissertation, read only version D",THIMBLE,THREAD,Study2,F,121,105,Test,User,-,,Recall,Recall1,2563,thread,100,1394,2333,1,1,,1
w10079637_EEL,paaxucwlvw,Nick_Dissertation_EX1,1,149,2020-04-24T13:38:20-07:00,3.8342299461365,4,versionC_stim.csv,READVersionD.csv,"Read Version D","Dissertation, read only version D",OUNCE,BOTH,Study2,U,172,140,Test,User,-,,Recall,Recall1,3468,pound,22.222222222222,2242,3311,0,0,,1
w10079637_EEL,paaxucwlvw,Nick_Dissertation_EX1,1,150,2020-04-24T13:38:23-07:00,2.3271560668945,4,versionC_stim.csv,READVersionD.csv,"Read Version D","Dissertation, read only version D",WAX,CANDLE,Study2,S,139,176,Test,User,-,,Recall,Recall1,1915,candle,100,1094,1713,1,1,,1
w10079637_EEL,paaxucwlvw,Nick_Dissertation_EX1,1,151,2020-04-24T13:38:25-07:00,2.6779310703278,4,versionC_stim.csv,READVersionD.csv,"Read Version D","Dissertation, read only version D",TIE,SHOELACE,Study2,B,99,154,Test,User,-,,Recall,Recall1,2238,shirt,30.769230769231,1243,2036,0,0,,1
w10079637_EEL,paaxucwlvw,Nick_Dissertation_EX1,1,152,2020-04-24T13:38:30-07:00,4.7215819358826,4,versionC_stim.csv,READVersionD.csv,"Read Version D","Dissertation, read only version D",CHARM,VEHICLE,Study2,U,160,134,Test,User,-,,Recall,Recall1,4167,love,36.363636363636,3546,3973,0,0,,1
w10079637_EEL,paaxucwlvw,Nick_Dissertation_EX1,1,153,2020-04-24T13:38:34-07:00,3.42733502388,4,versionC_stim.csv,READVersionD.csv,"Read Version D","Dissertation, read only version D",SMELL,INCENSE,Study2,B,110,109,Test,User,-,,Recall,Recall1,2994,wax,0,2076,2661,0,0,,1
w10079637_EEL,paaxucwlvw,Nick_Dissertation_EX1,1,154,2020-04-24T13:38:38-07:00,4.1758580207825,4,versionC_stim.csv,READVersionD.csv,"Read Version D","Dissertation, read only version D",CAR,DRIVER,Study2,B,106,139,Test,User,-,,Recall,Recall1,3727,drive,90.909090909091,2819,3499,0,1,,1
w10079637_EEL,paaxucwlvw,Nick_Dissertation_EX1,1,155,2020-04-24T13:38:40-07:00,2.3710079193115,4,versionC_stim.csv,READVersionD.csv,"Read Version D","Dissertation, read only version D",GAME,CLUE,Study2,B,97,174,Test,User,-,,Recall,Recall1,1906,play,25,1199,1583,0,0,,1
w10079637_EEL,paaxucwlvw,Nick_Dissertation_EX1,1,156,2020-04-24T13:38:48-07:00,7.7588431835175,4,versionC_stim.csv,READVersionD.csv,"Read Version D","Dissertation, read only version D",TRASH,LITTER,Study2,B,103,126,Test,User,-,,Recall,Recall1,7369,old,22.222222222222,6762,7106,0,0,,1
w10079637_EEL,paaxucwlvw,Nick_Dissertation_EX1,1,157,2020-04-24T13:38:51-07:00,2.7468898296356,4,versionC_stim.csv,READVersionD.csv,"Read Version D","Dissertation, read only version D",VILLAIN,BAD,Study2,F,118,152,Test,User,-,,Recall,Recall1,2317,bad,100,1252,1638,1,1,,1
w10079637_EEL,paaxucwlvw,Nick_Dissertation_EX1,1,158,2020-04-24T13:38:53-07:00,2.0888049602509,4,versionC_stim.csv,READVersionD.csv,"Read Version D","Dissertation, read only version D",DOG,FURRY,Study2,B,102,163,Test,User,-,,Recall,Recall1,1681,cat,0,1088,1403,0,0,,1
w10079637_EEL,paaxucwlvw,Nick_Dissertation_EX1,1,159,2020-04-24T13:38:55-07:00,2.6016089916229,4,versionC_stim.csv,READVersionD.csv,"Read Version D","Dissertation, read only version D",BRAWL,FIGHT,Study2,F,135,151,Test,User,-,,Recall,Recall1,2118,fight,100,1295,1922,1,1,,1
w10079637_EEL,paaxucwlvw,Nick_Dissertation_EX1,1,160,2020-04-24T13:38:58-07:00,2.6499691009521,4,versionC_stim.csv,READVersionD.csv,"Read Version D","Dissertation, read only version D",COFFIN,DEAD,Study2,F,128,160,Test,User,-,,Recall,Recall1,2234,dead,100,1085,1991,1,1,,1
w10079637_EEL,paaxucwlvw,Nick_Dissertation_EX1,1,161,2020-04-24T13:39:02-07:00,4.0347819328308,4,versionC_stim.csv,READVersionD.csv,"Read Version D","Dissertation, read only version D",DRINK,WATER,Study2,S,143,172,Test,User,-,,Recall,Recall1,3592,water,100,2841,3440,1,1,,1
w10079637_EEL,paaxucwlvw,Nick_Dissertation_EX1,1,162,2020-04-24T13:39:05-07:00,2.766725063324,4,versionC_stim.csv,READVersionD.csv,"Read Version D","Dissertation, read only version D",PENGUIN,BIRD,Study2,F,119,159,Test,User,-,,Recall,Recall1,2316,bird,100,1378,1852,1,1,,1
w10079637_EEL,paaxucwlvw,Nick_Dissertation_EX1,1,163,2020-04-24T13:39:08-07:00,3.0185821056366,4,versionC_stim.csv,READVersionD.csv,"Read Version D","Dissertation, read only version D",LOVE,AFFECTION,Study2,B,115,171,Test,User,-,,Recall,Recall1,2593,affection,100,1072,2332,1,1,,1
w10079637_EEL,paaxucwlvw,Nick_Dissertation_EX1,1,164,2020-04-24T13:39:12-07:00,4.4375789165497,4,versionC_stim.csv,READVersionD.csv,"Read Version D","Dissertation, read only version D",BRACELET,WRIST,Study2,S,140,145,Test,User,-,,Recall,Recall1,4014,wear,44.444444444444,1749,3673,0,0,,1
w10079637_EEL,paaxucwlvw,Nick_Dissertation_EX1,1,165,2020-04-24T13:39:16-07:00,3.4553899765015,4,versionC_stim.csv,READVersionD.csv,"Read Version D","Dissertation, read only version D",FAVORITE,BEST,Study2,F,125,150,Test,User,-,,Recall,Recall1,3025,good,0,2145,2805,0,0,,1
w10079637_EEL,paaxucwlvw,Nick_Dissertation_EX1,1,166,2020-04-24T13:39:18-07:00,2.1192519664764,4,versionC_stim.csv,READVersionD.csv,"Read Version D","Dissertation, read only version D",TAN,SUN,Study2,S,155,110,Test,User,-,,Recall,Recall1,1621,sun,100,1153,1397,1,1,,1
w10079637_EEL,paaxucwlvw,Nick_Dissertation_EX1,1,167,2020-04-24T13:39:20-07:00,2.6716661453247,4,versionC_stim.csv,READVersionD.csv,"Read Version D","Dissertation, read only version D",TEMPER,TANTRUM,Study2,S,154,113,Test,User,-,,Recall,Recall1,2235,anger,50,1407,2000,0,0,,1
w10079637_EEL,paaxucwlvw,Nick_Dissertation_EX1,1,168,2020-04-24T13:39:23-07:00,2.0390028953552,4,versionC_stim.csv,READVersionD.csv,"Read Version D","Dissertation, read only version D",DONKEY,MULE,Study2,B,108,131,Test,User,-,,Recall,Recall1,1621,mule,100,1021,1422,1,1,,1
w10079637_EEL,paaxucwlvw,Nick_Dissertation_EX1,1,169,2020-04-24T13:39:25-07:00,2.5244209766388,4,versionC_stim.csv,READVersionD.csv,"Read Version D","Dissertation, read only version D",LEAGUE,BASEBALL,Study2,F,131,164,Test,User,-,,Recall,Recall1,1836,ball,66.666666666667,1282,1671,0,0,,1
w10079637_EEL,paaxucwlvw,Nick_Dissertation_EX1,1,170,2020-04-24T13:39:29-07:00,3.6456520557404,4,versionC_stim.csv,READVersionD.csv,"Read Version D","Dissertation, read only version D",SCAR,MAIN,Study2,U,175,127,Test,User,-,,Recall,Recall1,3207,hurt,0,1716,2749,0,0,,1
w10079637_EEL,paaxucwlvw,Nick_Dissertation_EX1,1,171,2020-04-24T13:39:32-07:00,3.1888999938965,4,versionC_stim.csv,READVersionD.csv,"Read Version D","Dissertation, read only version D",ACTRESS,STAR,Study2,F,120,106,Test,User,-,,Recall,Recall1,2767,star,100,1851,2210,1,1,,1
w10079637_EEL,paaxucwlvw,Nick_Dissertation_EX1,1,172,2020-04-24T13:39:35-07:00,3.0523688793182,4,versionC_stim.csv,READVersionD.csv,"Read Version D","Dissertation, read only version D",GROUND,EARTH,Study2,S,144,107,Test,User,-,,Recall,Recall1,2634,grass,20,1632,2469,0,0,,1
w10079637_EEL,paaxucwlvw,Nick_Dissertation_EX1,1,173,2020-04-24T13:39:41-07:00,6.1059939861298,4,versionC_stim.csv,READVersionD.csv,"Read Version D","Dissertation, read only version D",RED,CHERRY,Study2,B,104,170,Test,User,-,,Recall,Recall1,5676,maroon,16.666666666667,1820,5429,0,0,,1
w10079637_EEL,paaxucwlvw,Nick_Dissertation_EX1,1,174,2020-04-24T13:39:43-07:00,2.2135231494904,4,versionC_stim.csv,READVersionD.csv,"Read Version D","Dissertation, read only version D",WINDSHIELD,CAR,Study2,F,117,144,Test,User,-,,Recall,Recall1,1692,car,100,1161,1482,1,1,,1
w10079637_EEL,paaxucwlvw,Nick_Dissertation_EX1,1,175,2020-04-24T13:39:55-07:00,12.065225839615,4,versionC_stim.csv,READVersionD.csv,"Read Version D","Dissertation, read only version D",,,,,,0,Instruct,-,10,"You will now be presented with a new set of word pairs. Please study each pair. Remember that your memory will be tested! When finished, press Enter to move to the next pair.",Initial_Instruct,Instruct4,11613,,,-1,-1,,,,1
w10079637_EEL,paaxucwlvw,Nick_Dissertation_EX1,1,176,2020-04-24T13:39:57-07:00,1.8391270637512,4,versionC_stim.csv,READVersionD.csv,"Read Version D","Dissertation, read only version D",JAM,SPACE,BUFFER1,Buffer,5,5,Study,User,-,,Study/JOL,BUFFER3,1415,,,-1,-1,,,,1
w10079637_EEL,paaxucwlvw,Nick_Dissertation_EX1,1,177,2020-04-24T13:39:58-07:00,1.2341780662537,4,versionC_stim.csv,READVersionD.csv,"Read Version D","Dissertation, read only version D",BUTTER,PEANUT,BUFFER1,Buffer,3,4,Study,User,-,,Study/JOL,BUFFER3,744,,,-1,-1,,,,1
w10079637_EEL,paaxucwlvw,Nick_Dissertation_EX1,1,178,2020-04-24T13:40:00-07:00,1.299064874649,4,versionC_stim.csv,READVersionD.csv,"Read Version D","Dissertation, read only version D",HIDE,SCARE,BUFFER1,Buffer,4,6,Study,User,-,,Study/JOL,BUFFER3,868,,,-1,-1,,,,1
w10079637_EEL,paaxucwlvw,Nick_Dissertation_EX1,1,179,2020-04-24T13:40:01-07:00,1.161208152771,4,versionC_stim.csv,READVersionD.csv,"Read Version D","Dissertation, read only version D",CATCHER,BASEBALL,BUFFER1,Buffer,2,3,Study,User,-,,Study/JOL,BUFFER3,715,,,-1,-1,,,,1
w10079637_EEL,paaxucwlvw,Nick_Dissertation_EX1,1,180,2020-04-24T13:40:02-07:00,1.085175037384,4,versionC_stim.csv,READVersionD.csv,"Read Version D","Dissertation, read only version D",GREEN,TREES,BUFFER1,Buffer,1,2,Study,User,-,,Study/JOL,BUFFER3,673,,,-1,-1,,,,1
w10079637_EEL,paaxucwlvw,Nick_Dissertation_EX1,1,181,2020-04-24T13:40:03-07:00,1.1121490001678,4,versionC_stim.csv,READVersionD.csv,"Read Version D","Dissertation, read only version D",PLANT,ROOT,Study1,B,13,80,Study,User,-,,Study/JOL,"Study Phase2",646,,,-1,-1,,,,1
w10079637_EEL,paaxucwlvw,Nick_Dissertation_EX1,1,182,2020-04-24T13:40:05-07:00,1.9235680103302,4,versionC_stim.csv,READVersionD.csv,"Read Version D","Dissertation, read only version D",STING,HORNET,Study1,B,11,28,Study,User,-,,Study/JOL,"Study Phase2",1478,,,-1,-1,,,,1
w10079637_EEL,paaxucwlvw,Nick_Dissertation_EX1,1,183,2020-04-24T13:40:07-07:00,1.5948758125305,4,versionC_stim.csv,READVersionD.csv,"Read Version D","Dissertation, read only version D",ACCIDENT,STRONG,Study1,U,80,60,Study,User,-,,Study/JOL,"Study Phase2",1167,,,-1,-1,,,,1
w10079637_EEL,paaxucwlvw,Nick_Dissertation_EX1,1,184,2020-04-24T13:40:08-07:00,1.3605291843414,4,versionC_stim.csv,READVersionD.csv,"Read Version D","Dissertation, read only version D",DEFINITION,MEANING,Study1,S,62,17,Study,User,-,,Study/JOL,"Study Phase2",912,,,-1,-1,,,,1
w10079637_EEL,paaxucwlvw,Nick_Dissertation_EX1,1,185,2020-04-24T13:40:09-07:00,1.1482839584351,4,versionC_stim.csv,READVersionD.csv,"Read Version D","Dissertation, read only version D",PILOT,PLANE,Study1,F,44,75,Study,User,-,,Study/JOL,"Study Phase2",701,,,-1,-1,,,,1
w10079637_EEL,paaxucwlvw,Nick_Dissertation_EX1,1,186,2020-04-24T13:40:11-07:00,1.4875378608704,4,versionC_stim.csv,READVersionD.csv,"Read Version D","Dissertation, read only version D",TUCK,ALLOW,Study1,U,78,82,Study,User,-,,Study/JOL,"Study Phase2",1051,,,-1,-1,,,,1
w10079637_EEL,paaxucwlvw,Nick_Dissertation_EX1,1,187,2020-04-24T13:40:12-07:00,1.3364651203156,4,versionC_stim.csv,READVersionD.csv,"Read Version D","Dissertation, read only version D",DIVISION,MATH,Study1,F,33,16,Study,User,-,,Study/JOL,"Study Phase2",892,,,-1,-1,,,,1
w10079637_EEL,paaxucwlvw,Nick_Dissertation_EX1,1,188,2020-04-24T13:40:13-07:00,1.122260093689,4,versionC_stim.csv,READVersionD.csv,"Read Version D","Dissertation, read only version D",CAVE,DARK,Study1,F,28,67,Study,User,-,,Study/JOL,"Study Phase2",703,,,-1,-1,,,,1
w10079637_EEL,paaxucwlvw,Nick_Dissertation_EX1,1,189,2020-04-24T13:40:15-07:00,1.6423079967499,4,versionC_stim.csv,READVersionD.csv,"Read Version D","Dissertation, read only version D",STENCH,SMELL,Study1,F,42,86,Study,User,-,,Study/JOL,"Study Phase2",1226,,,-1,-1,,,,1
w10079637_EEL,paaxucwlvw,Nick_Dissertation_EX1,1,190,2020-04-24T13:40:16-07:00,1.1537008285522,4,versionC_stim.csv,READVersionD.csv,"Read Version D","Dissertation, read only version D",ATTIRE,CLOTHES,Study1,F,43,11,Study,User,-,,Study/JOL,"Study Phase2",718,,,-1,-1,,,,1
w10079637_EEL,paaxucwlvw,Nick_Dissertation_EX1,1,191,2020-04-24T13:40:17-07:00,1.2676560878754,4,versionC_stim.csv,READVersionD.csv,"Read Version D","Dissertation, read only version D",WATER,BRIDGE,Study1,B,18,79,Study,User,-,,Study/JOL,"Study Phase2",824,,,-1,-1,,,,1
w10079637_EEL,paaxucwlvw,Nick_Dissertation_EX1,1,192,2020-04-24T13:40:18-07:00,1.0699360370636,4,versionC_stim.csv,READVersionD.csv,"Read Version D","Dissertation, read only version D",LATCH,KEY,Study1,F,36,57,Study,User,-,,Study/JOL,"Study Phase2",657,,,-1,-1,,,,1
w10079637_EEL,paaxucwlvw,Nick_Dissertation_EX1,1,193,2020-04-24T13:40:19-07:00,1.3170239925385,4,versionC_stim.csv,READVersionD.csv,"Read Version D","Dissertation, read only version D",LIVER,KIDNEY,Study1,S,53,83,Study,User,-,,Study/JOL,"Study Phase2",864,,,-1,-1,,,,1
w10079637_EEL,paaxucwlvw,Nick_Dissertation_EX1,1,194,2020-04-24T13:40:21-07:00,1.3765790462494,4,versionC_stim.csv,READVersionD.csv,"Read Version D","Dissertation, read only version D",FAMINE,HUNGER,Study1,F,40,23,Study,User,-,,Study/JOL,"Study Phase2",964,,,-1,-1,,,,1
w10079637_EEL,paaxucwlvw,Nick_Dissertation_EX1,1,195,2020-04-24T13:40:22-07:00,1.1274809837341,4,versionC_stim.csv,READVersionD.csv,"Read Version D","Dissertation, read only version D",ATTORNEY,LAW,Study1,F,34,19,Study,User,-,,Study/JOL,"Study Phase2",717,,,-1,-1,,,,1
w10079637_EEL,paaxucwlvw,Nick_Dissertation_EX1,1,196,2020-04-24T13:40:23-07:00,1.1835219860077,4,versionC_stim.csv,READVersionD.csv,"Read Version D","Dissertation, read only version D",SEIZE,TAKE,Study1,F,29,12,Study,User,-,,Study/JOL,"Study Phase2",734,,,-1,-1,,,,1
w10079637_EEL,paaxucwlvw,Nick_Dissertation_EX1,1,197,2020-04-24T13:40:24-07:00,1.0864958763123,4,versionC_stim.csv,READVersionD.csv,"Read Version D","Dissertation, read only version D",FOOT,SHOE,Study1,S,60,69,Study,User,-,,Study/JOL,"Study Phase2",683,,,-1,-1,,,,1
w10079637_EEL,paaxucwlvw,Nick_Dissertation_EX1,1,198,2020-04-24T13:40:25-07:00,1.037260055542,4,versionC_stim.csv,READVersionD.csv,"Read Version D","Dissertation, read only version D",RACKET,BALL,Study1,F,38,13,Study,User,-,,Study/JOL,"Study Phase2",632,,,-1,-1,,,,1
w10079637_EEL,paaxucwlvw,Nick_Dissertation_EX1,1,199,2020-04-24T13:40:27-07:00,1.2595069408417,4,versionC_stim.csv,READVersionD.csv,"Read Version D","Dissertation, read only version D",END,BEGIN,Study1,S,54,21,Study,User,-,,Study/JOL,"Study Phase2",847,,,-1,-1,,,,1
w10079637_EEL,paaxucwlvw,Nick_Dissertation_EX1,1,200,2020-04-24T13:40:28-07:00,1.2387900352478,4,versionC_stim.csv,READVersionD.csv,"Read Version D","Dissertation, read only version D",DOG,PAW,Study1,B,15,35,Study,User,-,,Study/JOL,"Study Phase2",823,,,-1,-1,,,,1
w10079637_EEL,paaxucwlvw,Nick_Dissertation_EX1,1,201,2020-04-24T13:40:29-07:00,1.1069779396057,4,versionC_stim.csv,READVersionD.csv,"Read Version D","Dissertation, read only version D",WORD,SENTENCE,Study1,F,31,24,Study,User,-,,Study/JOL,"Study Phase2",698,,,-1,-1,,,,1
w10079637_EEL,paaxucwlvw,Nick_Dissertation_EX1,1,202,2020-04-24T13:40:30-07:00,1.0003130435944,4,versionC_stim.csv,READVersionD.csv,"Read Version D","Dissertation, read only version D",WOULD,CASH,Study1,U,83,31,Study,User,-,,Study/JOL,"Study Phase2",554,,,-1,-1,,,,1
w10079637_EEL,paaxucwlvw,Nick_Dissertation_EX1,1,203,2020-04-24T13:40:31-07:00,0.98710703849792,4,versionC_stim.csv,READVersionD.csv,"Read Version D","Dissertation, read only version D",CHEESE,WINE,Study1,S,57,61,Study,User,-,,Study/JOL,"Study Phase2",564,,,-1,-1,,,,1
w10079637_EEL,paaxucwlvw,Nick_Dissertation_EX1,1,204,2020-04-24T13:40:32-07:00,0.9677619934082,4,versionC_stim.csv,READVersionD.csv,"Read Version D","Dissertation, read only version D",SITE,LOCATION,Study1,S,48,62,Study,User,-,,Study/JOL,"Study Phase2",549,,,-1,-1,,,,1
w10079637_EEL,paaxucwlvw,Nick_Dissertation_EX1,1,205,2020-04-24T13:40:33-07:00,0.93329000473022,4,versionC_stim.csv,READVersionD.csv,"Read Version D","Dissertation, read only version D",NEWS,EDITOR,Study1,B,10,45,Study,User,-,,Study/JOL,"Study Phase2",513,,,-1,-1,,,,1
w10079637_EEL,paaxucwlvw,Nick_Dissertation_EX1,1,206,2020-04-24T13:40:34-07:00,1.0008111000061,4,versionC_stim.csv,READVersionD.csv,"Read Version D","Dissertation, read only version D",BUSINESS,DEATH,Study1,U,72,56,Study,User,-,,Study/JOL,"Study Phase2",587,,,-1,-1,,,,1
w10079637_EEL,paaxucwlvw,Nick_Dissertation_EX1,1,207,2020-04-24T13:40:35-07:00,0.91699385643005,4,versionC_stim.csv,READVersionD.csv,"Read Version D","Dissertation, read only version D",CAR,HAPPY,Study1,U,77,26,Study,User,-,,Study/JOL,"Study Phase2",445,,,-1,-1,,,,1
w10079637_EEL,paaxucwlvw,Nick_Dissertation_EX1,1,208,2020-04-24T13:40:36-07:00,1.1573081016541,4,versionC_stim.csv,READVersionD.csv,"Read Version D","Dissertation, read only version D",SIGHT,DEBATE,Study1,U,73,64,Study,User,-,,Study/JOL,"Study Phase2",711,,,-1,-1,,,,1
w10079637_EEL,paaxucwlvw,Nick_Dissertation_EX1,1,209,2020-04-24T13:40:37-07:00,1.2006008625031,4,versionC_stim.csv,READVersionD.csv,"Read Version D","Dissertation, read only version D",SALAD,LETTUCE,Study1,S,59,18,Study,User,-,,Study/JOL,"Study Phase2",721,,,-1,-1,,,,1
w10079637_EEL,paaxucwlvw,Nick_Dissertation_EX1,1,210,2020-04-24T13:40:38-07:00,1.3291790485382,4,versionC_stim.csv,READVersionD.csv,"Read Version D","Dissertation, read only version D",WAR,REVOLUTION,Study1,B,20,27,Study,User,-,,Study/JOL,"Study Phase2",895,,,-1,-1,,,,1
w10079637_EEL,paaxucwlvw,Nick_Dissertation_EX1,1,211,2020-04-24T13:40:40-07:00,1.2100410461426,4,versionC_stim.csv,READVersionD.csv,"Read Version D","Dissertation, read only version D",CLUTTER,PUSHER,Study1,U,66,50,Study,User,-,,Study/JOL,"Study Phase2",781,,,-1,-1,,,,1
w10079637_EEL,paaxucwlvw,Nick_Dissertation_EX1,1,212,2020-04-24T13:40:41-07:00,1.0887360572815,4,versionC_stim.csv,READVersionD.csv,"Read Version D","Dissertation, read only version D",COLD,BITTER,Study1,B,12,41,Study,User,-,,Study/JOL,"Study Phase2",678,,,-1,-1,,,,1
w10079637_EEL,paaxucwlvw,Nick_Dissertation_EX1,1,213,2020-04-24T13:40:42-07:00,1.4852859973907,4,versionC_stim.csv,READVersionD.csv,"Read Version D","Dissertation, read only version D",SACKING,DIETARY,Study1,U,67,49,Study,User,-,,Study/JOL,"Study Phase2",1044,,,-1,-1,,,,1
w10079637_EEL,paaxucwlvw,Nick_Dissertation_EX1,1,214,2020-04-24T13:40:43-07:00,1.2875828742981,4,versionC_stim.csv,READVersionD.csv,"Read Version D","Dissertation, read only version D",HAMMER,CHISEL,Study1,B,9,22,Study,User,-,,Study/JOL,"Study Phase2",866,,,-1,-1,,,,1
w10079637_EEL,paaxucwlvw,Nick_Dissertation_EX1,1,215,2020-04-24T13:40:44-07:00,1.0149900913239,4,versionC_stim.csv,READVersionD.csv,"Read Version D","Dissertation, read only version D",SIP,DRINK,Study1,F,27,30,Study,User,-,,Study/JOL,"Study Phase2",591,,,-1,-1,,,,1
w10079637_EEL,paaxucwlvw,Nick_Dissertation_EX1,1,216,2020-04-24T13:40:45-07:00,0.84874796867371,4,versionC_stim.csv,READVersionD.csv,"Read Version D","Dissertation, read only version D",BRONZE,ARTERY,Study1,U,74,52,Study,User,-,,Study/JOL,"Study Phase2",371,,,-1,-1,,,,1
w10079637_EEL,paaxucwlvw,Nick_Dissertation_EX1,1,217,2020-04-24T13:40:47-07:00,1.9799230098724,4,versionC_stim.csv,READVersionD.csv,"Read Version D","Dissertation, read only version D",BAD,DELINQUENT,Study1,B,6,39,Study,User,-,,Study/JOL,"Study Phase2",1566,,,-1,-1,,,,1
w10079637_EEL,paaxucwlvw,Nick_Dissertation_EX1,1,218,2020-04-24T13:40:48-07:00,1.0537130832672,4,versionC_stim.csv,READVersionD.csv,"Read Version D","Dissertation, read only version D",ROCK,GEOLOGY,Study1,B,19,14,Study,User,-,,Study/JOL,"Study Phase2",612,,,-1,-1,,,,1
w10079637_EEL,paaxucwlvw,Nick_Dissertation_EX1,1,219,2020-04-24T13:40:49-07:00,1.0345528125763,4,versionC_stim.csv,READVersionD.csv,"Read Version D","Dissertation, read only version D",WASTE,DUMP,Study1,S,49,48,Study,User,-,,Study/JOL,"Study Phase2",573,,,-1,-1,,,,1
w10079637_EEL,paaxucwlvw,Nick_Dissertation_EX1,1,220,2020-04-24T13:40:50-07:00,1.0030801296234,4,versionC_stim.csv,READVersionD.csv,"Read Version D","Dissertation, read only version D",SODA,POP,Study1,S,56,42,Study,User,-,,Study/JOL,"Study Phase2",583,,,-1,-1,,,,1
w10079637_EEL,paaxucwlvw,Nick_Dissertation_EX1,1,221,2020-04-24T13:40:51-07:00,1.0598108768463,4,versionC_stim.csv,READVersionD.csv,"Read Version D","Dissertation, read only version D",MONEY,WAGE,Study1,B,8,7,Study,User,-,,Study/JOL,"Study Phase2",619,,,-1,-1,,,,1
w10079637_EEL,paaxucwlvw,Nick_Dissertation_EX1,1,222,2020-04-24T13:40:53-07:00,1.1822919845581,4,versionC_stim.csv,READVersionD.csv,"Read Version D","Dissertation, read only version D",ADD,VALLEY,Study1,U,82,84,Study,User,-,,Study/JOL,"Study Phase2",725,,,-1,-1,,,,1
w10079637_EEL,paaxucwlvw,Nick_Dissertation_EX1,1,223,2020-04-24T13:40:54-07:00,1.1505961418152,4,versionC_stim.csv,READVersionD.csv,"Read Version D","Dissertation, read only version D",ROUND,CIRCLE,Study1,S,65,15,Study,User,-,,Study/JOL,"Study Phase2",697,,,-1,-1,,,,1
w10079637_EEL,paaxucwlvw,Nick_Dissertation_EX1,1,224,2020-04-24T13:40:55-07:00,1.1055359840393,4,versionC_stim.csv,READVersionD.csv,"Read Version D","Dissertation, read only version D",COW,HERD,Study1,B,22,51,Study,User,-,,Study/JOL,"Study Phase2",683,,,-1,-1,,,,1
w10079637_EEL,paaxucwlvw,Nick_Dissertation_EX1,1,225,2020-04-24T13:40:56-07:00,1.1364099979401,4,versionC_stim.csv,READVersionD.csv,"Read Version D","Dissertation, read only version D",BLAZE,FIRE,Study1,F,45,65,Study,User,-,,Study/JOL,"Study Phase2",720,,,-1,-1,,,,1
w10079637_EEL,paaxucwlvw,Nick_Dissertation_EX1,1,226,2020-04-24T13:40:57-07:00,0.91738986968994,4,versionC_stim.csv,READVersionD.csv,"Read Version D","Dissertation, read only version D",BIRD,SWAN,Study1,B,14,29,Study,User,-,,Study/JOL,"Study Phase2",479,,,-1,-1,,,,1
w10079637_EEL,paaxucwlvw,Nick_Dissertation_EX1,1,227,2020-04-24T13:40:58-07:00,1.0270822048187,4,versionC_stim.csv,READVersionD.csv,"Read Version D","Dissertation, read only version D",CHILI,HOT,Study1,F,37,34,Study,User,-,,Study/JOL,"Study Phase2",590,,,-1,-1,,,,1
w10079637_EEL,paaxucwlvw,Nick_Dissertation_EX1,1,228,2020-04-24T13:40:59-07:00,1.0359978675842,4,versionC_stim.csv,READVersionD.csv,"Read Version D","Dissertation, read only version D",CLEAN,HYGIENE,Study1,B,17,37,Study,User,-,,Study/JOL,"Study Phase2",585,,,-1,-1,,,,1
w10079637_EEL,paaxucwlvw,Nick_Dissertation_EX1,1,229,2020-04-24T13:41:00-07:00,1.0453600883484,4,versionC_stim.csv,READVersionD.csv,"Read Version D","Dissertation, read only version D",FUTURE,PAST,Study1,S,61,32,Study,User,-,,Study/JOL,"Study Phase2",603,,,-1,-1,,,,1
w10079637_EEL,paaxucwlvw,Nick_Dissertation_EX1,1,230,2020-04-24T13:41:01-07:00,1.1917798519135,4,versionC_stim.csv,READVersionD.csv,"Read Version D","Dissertation, read only version D",DESIGN,ARCHITECTURE,Study1,S,51,53,Study,User,-,,Study/JOL,"Study Phase2",786,,,-1,-1,,,,1
w10079637_EEL,paaxucwlvw,Nick_Dissertation_EX1,1,231,2020-04-24T13:41:02-07:00,1.0017590522766,4,versionC_stim.csv,READVersionD.csv,"Read Version D","Dissertation, read only version D",FLOOR,DISCOVER,Study1,U,71,63,Study,User,-,,Study/JOL,"Study Phase2",555,,,-1,-1,,,,1
w10079637_EEL,paaxucwlvw,Nick_Dissertation_EX1,1,232,2020-04-24T13:41:03-07:00,1.0517129898071,4,versionC_stim.csv,READVersionD.csv,"Read Version D","Dissertation, read only version D",FLOWER,ORCHID,Study1,B,24,66,Study,User,-,,Study/JOL,"Study Phase2",634,,,-1,-1,,,,1
w10079637_EEL,paaxucwlvw,Nick_Dissertation_EX1,1,233,2020-04-24T13:41:04-07:00,0.92730808258057,4,versionC_stim.csv,READVersionD.csv,"Read Version D","Dissertation, read only version D",BELT,SOON,Study1,U,70,85,Study,User,-,,Study/JOL,"Study Phase2",498,,,-1,-1,,,,1
w10079637_EEL,paaxucwlvw,Nick_Dissertation_EX1,1,234,2020-04-24T13:41:05-07:00,1.0315909385681,4,versionC_stim.csv,READVersionD.csv,"Read Version D","Dissertation, read only version D",GROWTH,HEIGHT,Study1,F,30,71,Study,User,-,,Study/JOL,"Study Phase2",592,,,-1,-1,,,,1
w10079637_EEL,paaxucwlvw,Nick_Dissertation_EX1,1,235,2020-04-24T13:41:06-07:00,1.0197041034698,4,versionC_stim.csv,READVersionD.csv,"Read Version D","Dissertation, read only version D",BAR,GRILL,Study1,S,52,25,Study,User,-,,Study/JOL,"Study Phase2",522,,,-1,-1,,,,1
w10079637_EEL,paaxucwlvw,Nick_Dissertation_EX1,1,236,2020-04-24T13:41:07-07:00,0.9924578666687,4,versionC_stim.csv,READVersionD.csv,"Read Version D","Dissertation, read only version D",HUNGRY,PARK,Study1,U,68,78,Study,User,-,,Study/JOL,"Study Phase2",543,,,-1,-1,,,,1
w10079637_EEL,paaxucwlvw,Nick_Dissertation_EX1,1,237,2020-04-24T13:41:08-07:00,1.0292179584503,4,versionC_stim.csv,READVersionD.csv,"Read Version D","Dissertation, read only version D",OUT,WAY,Study1,B,16,70,Study,User,-,,Study/JOL,"Study Phase2",598,,,-1,-1,,,,1
w10079637_EEL,paaxucwlvw,Nick_Dissertation_EX1,1,238,2020-04-24T13:41:10-07:00,1.2577831745148,4,versionC_stim.csv,READVersionD.csv,"Read Version D","Dissertation, read only version D",FANTASTIC,GREAT,Study1,F,35,9,Study,User,-,,Study/JOL,"Study Phase2",780,,,-1,-1,,,,1
w10079637_EEL,paaxucwlvw,Nick_Dissertation_EX1,1,239,2020-04-24T13:41:11-07:00,1.0226759910583,4,versionC_stim.csv,READVersionD.csv,"Read Version D","Dissertation, read only version D",LION,ART,Study1,U,79,8,Study,User,-,,Study/JOL,"Study Phase2",610,,,-1,-1,,,,1
w10079637_EEL,paaxucwlvw,Nick_Dissertation_EX1,1,240,2020-04-24T13:41:11-07:00,0.90738391876221,4,versionC_stim.csv,READVersionD.csv,"Read Version D","Dissertation, read only version D",BEE,HONEY,Study1,S,63,46,Study,User,-,,Study/JOL,"Study Phase2",487,,,-1,-1,,,,1
w10079637_EEL,paaxucwlvw,Nick_Dissertation_EX1,1,241,2020-04-24T13:41:12-07:00,0.98074007034302,4,versionC_stim.csv,READVersionD.csv,"Read Version D","Dissertation, read only version D",WASP,BUG,Study1,F,32,33,Study,User,-,,Study/JOL,"Study Phase2",539,,,-1,-1,,,,1
w10079637_EEL,paaxucwlvw,Nick_Dissertation_EX1,1,242,2020-04-24T13:41:13-07:00,1.0014350414276,4,versionC_stim.csv,READVersionD.csv,"Read Version D","Dissertation, read only version D",RIDDLE,SUGAR,Study1,U,81,43,Study,User,-,,Study/JOL,"Study Phase2",560,,,-1,-1,,,,1
w10079637_EEL,paaxucwlvw,Nick_Dissertation_EX1,1,243,2020-04-24T13:41:15-07:00,1.1742448806763,4,versionC_stim.csv,READVersionD.csv,"Read Version D","Dissertation, read only version D",CARD,CREDIT,Study1,B,23,10,Study,User,-,,Study/JOL,"Study Phase2",611,,,-1,-1,,,,1
w10079637_EEL,paaxucwlvw,Nick_Dissertation_EX1,1,244,2020-04-24T13:41:16-07:00,1.1220400333405,4,versionC_stim.csv,READVersionD.csv,"Read Version D","Dissertation, read only version D",JURY,TRIAL,Study1,S,50,47,Study,User,-,,Study/JOL,"Study Phase2",664,,,-1,-1,,,,1
w10079637_EEL,paaxucwlvw,Nick_Dissertation_EX1,1,245,2020-04-24T13:41:17-07:00,0.8816249370575,4,versionC_stim.csv,READVersionD.csv,"Read Version D","Dissertation, read only version D",VASE,KING,Study1,U,85,44,Study,User,-,,Study/JOL,"Study Phase2",433,,,-1,-1,,,,1
w10079637_EEL,paaxucwlvw,Nick_Dissertation_EX1,1,246,2020-04-24T13:41:18-07:00,1.1814911365509,4,versionC_stim.csv,READVersionD.csv,"Read Version D","Dissertation, read only version D",STOMACH,DIGESTION,Study1,B,7,38,Study,User,-,,Study/JOL,"Study Phase2",748,,,-1,-1,,,,1
w10079637_EEL,paaxucwlvw,Nick_Dissertation_EX1,1,247,2020-04-24T13:41:19-07:00,1.2978899478912,4,versionC_stim.csv,READVersionD.csv,"Read Version D","Dissertation, read only version D",POSITION,MACHINE,Study1,U,76,55,Study,User,-,,Study/JOL,"Study Phase2",832,,,-1,-1,,,,1
w10079637_EEL,paaxucwlvw,Nick_Dissertation_EX1,1,248,2020-04-24T13:41:20-07:00,1.0719220638275,4,versionC_stim.csv,READVersionD.csv,"Read Version D","Dissertation, read only version D",ASSIGNMENT,DUE,Study1,S,46,76,Study,User,-,,Study/JOL,"Study Phase2",635,,,-1,-1,,,,1
w10079637_EEL,paaxucwlvw,Nick_Dissertation_EX1,1,249,2020-04-24T13:41:21-07:00,1.007915019989,4,versionC_stim.csv,READVersionD.csv,"Read Version D","Dissertation, read only version D",ENOUGH,FULL,Study1,F,26,20,Study,User,-,,Study/JOL,"Study Phase2",599,,,-1,-1,,,,1
w10079637_EEL,paaxucwlvw,Nick_Dissertation_EX1,1,250,2020-04-24T13:41:22-07:00,1.0699069499969,4,versionC_stim.csv,READVersionD.csv,"Read Version D","Dissertation, read only version D",CHORE,WORK,Study1,F,39,74,Study,User,-,,Study/JOL,"Study Phase2",647,,,-1,-1,,,,1
w10079637_EEL,paaxucwlvw,Nick_Dissertation_EX1,1,251,2020-04-24T13:41:23-07:00,1.0607089996338,4,versionC_stim.csv,READVersionD.csv,"Read Version D","Dissertation, read only version D",FISH,TUNA,Study1,B,25,54,Study,User,-,,Study/JOL,"Study Phase2",670,,,-1,-1,,,,1
w10079637_EEL,paaxucwlvw,Nick_Dissertation_EX1,1,252,2020-04-24T13:41:24-07:00,0.99599194526672,4,versionC_stim.csv,READVersionD.csv,"Read Version D","Dissertation, read only version D",WOMAN,LIFT,Study1,U,69,77,Study,User,-,,Study/JOL,"Study Phase2",598,,,-1,-1,,,,1
w10079637_EEL,paaxucwlvw,Nick_Dissertation_EX1,1,253,2020-04-24T13:41:25-07:00,1.0740079879761,4,versionC_stim.csv,READVersionD.csv,"Read Version D","Dissertation, read only version D",TALK,DISCUSSION,Study1,B,21,72,Study,User,-,,Study/JOL,"Study Phase2",622,,,-1,-1,,,,1
w10079637_EEL,paaxucwlvw,Nick_Dissertation_EX1,1,254,2020-04-24T13:41:26-07:00,1.0670828819275,4,versionC_stim.csv,READVersionD.csv,"Read Version D","Dissertation, read only version D",SICK,HIDE,Study1,U,84,59,Study,User,-,,Study/JOL,"Study Phase2",619,,,-1,-1,,,,1
w10079637_EEL,paaxucwlvw,Nick_Dissertation_EX1,1,255,2020-04-24T13:41:28-07:00,1.0374801158905,4,versionC_stim.csv,READVersionD.csv,"Read Version D","Dissertation, read only version D",TOILET,BATHROOM,Study1,S,58,40,Study,User,-,,Study/JOL,"Study Phase2",605,,,-1,-1,,,,1
w10079637_EEL,paaxucwlvw,Nick_Dissertation_EX1,1,256,2020-04-24T13:41:29-07:00,1.1112530231476,4,versionC_stim.csv,READVersionD.csv,"Read Version D","Dissertation, read only version D",DROWSY,SLEEP,Study1,F,41,36,Study,User,-,,Study/JOL,"Study Phase2",662,,,-1,-1,,,,1
w10079637_EEL,paaxucwlvw,Nick_Dissertation_EX1,1,257,2020-04-24T13:41:30-07:00,1.0936069488525,4,versionC_stim.csv,READVersionD.csv,"Read Version D","Dissertation, read only version D",AMOUNT,NUMBER,Study1,S,47,81,Study,User,-,,Study/JOL,"Study Phase2",651,,,-1,-1,,,,1
w10079637_EEL,paaxucwlvw,Nick_Dissertation_EX1,1,258,2020-04-24T13:41:31-07:00,0.80427312850952,4,versionC_stim.csv,READVersionD.csv,"Read Version D","Dissertation, read only version D",CHILD,BABY,Study1,S,64,58,Study,User,-,,Study/JOL,"Study Phase2",373,,,-1,-1,,,,1
w10079637_EEL,paaxucwlvw,Nick_Dissertation_EX1,1,259,2020-04-24T13:41:31-07:00,0.92963695526123,4,versionC_stim.csv,READVersionD.csv,"Read Version D","Dissertation, read only version D",WIND,BLOW,Study1,S,55,73,Study,User,-,,Study/JOL,"Study Phase2",486,,,-1,-1,,,,1
w10079637_EEL,paaxucwlvw,Nick_Dissertation_EX1,1,260,2020-04-24T13:41:32-07:00,0.83683300018311,4,versionC_stim.csv,READVersionD.csv,"Read Version D","Dissertation, read only version D",HAND,FIX,Study1,U,75,68,Study,User,-,,Study/JOL,"Study Phase2",390,,,-1,-1,,,,1
w10079637_EEL,paaxucwlvw,Nick_Dissertation_EX1,1,261,2020-04-24T13:41:33-07:00,0.94933199882507,4,versionC_stim.csv,READVersionD.csv,"Read Version D","Dissertation, read only version D",CHOCOLATE,MALT,BUFFER2,Buffer,88,89,Study,User,-,,Study/JOL,BUFFER4,507,,,-1,-1,,,,1
w10079637_EEL,paaxucwlvw,Nick_Dissertation_EX1,1,262,2020-04-24T13:41:34-07:00,1.190582036972,4,versionC_stim.csv,READVersionD.csv,"Read Version D","Dissertation, read only version D",POLICE,SHERRIF,BUFFER2,Buffer,87,91,Study,User,-,,Study/JOL,BUFFER4,711,,,-1,-1,,,,1
w10079637_EEL,paaxucwlvw,Nick_Dissertation_EX1,1,263,2020-04-24T13:41:36-07:00,1.1067578792572,4,versionC_stim.csv,READVersionD.csv,"Read Version D","Dissertation, read only version D",SPACE,MOON,BUFFER2,Buffer,89,90,Study,User,-,,Study/JOL,BUFFER4,640,,,-1,-1,,,,1
w10079637_EEL,paaxucwlvw,Nick_Dissertation_EX1,1,264,2020-04-24T13:41:37-07:00,1.1986870765686,4,versionC_stim.csv,READVersionD.csv,"Read Version D","Dissertation, read only version D",STUFF,THING,BUFFER2,Buffer,90,88,Study,User,-,,Study/JOL,BUFFER4,777,,,-1,-1,,,,1
w10079637_EEL,paaxucwlvw,Nick_Dissertation_EX1,1,265,2020-04-24T13:41:38-07:00,1.0057718753815,4,versionC_stim.csv,READVersionD.csv,"Read Version D","Dissertation, read only version D",GOOSE,GEESE,BUFFER2,Buffer,86,87,Study,User,-,,Study/JOL,BUFFER4,456,,,-1,-1,,,,1
w10079637_EEL,paaxucwlvw,Nick_Dissertation_EX1,1,266,2020-04-24T13:41:46-07:00,8.4599139690399,4,versionC_stim.csv,READVersionD.csv,"Read Version D","Dissertation, read only version D",,,,,,0,Instruct,User,-,"You have completed this section. Please press Enter.",Filler_Instruction,Instruct5,8024,,,-1,-1,,,,1
w10079637_EEL,paaxucwlvw,Nick_Dissertation_EX1,1,267,2020-04-24T13:43:48-07:00,121.59020900726,4,versionC_stim.csv,READVersionD.csv,"Read Version D","Dissertation, read only version D",,,,,,0,FreeRecall,120,120,"Please list the 50 US states in reverse alphabetical order (z - a). The task will automatically advance to the next screen after two minutes.",,Filler2,120006,"washington texas pensilvania oklahoma new york new hampshire main mississippi maryand ",0,26071,119358,0,0,,1
w10079637_EEL,paaxucwlvw,Nick_Dissertation_EX1,1,268,2020-04-24T13:44:00-07:00,12.220159053802,4,versionC_stim.csv,READVersionD.csv,"Read Version D","Dissertation, read only version D",,,,,,0,Instruct,-,10,"You will now be presented with the first word from each of the previously studied item pairs. Please type the missing word. If you do not know the word, you may guess or press Enter to skip forward to the next pair.",,Instruct6,11607,,,-1,-1,,,,1
w10079637_EEL,paaxucwlvw,Nick_Dissertation_EX1,1,269,2020-04-24T13:44:04-07:00,3.6085419654846,4,versionC_stim.csv,READVersionD.csv,"Read Version D","Dissertation, read only version D",CLUTTER,PUSHER,Study1,U,66,50,Test,User,-,,Recall,Recall2,3035,trash,36.363636363636,1970,2657,0,0,,1
w10079637_EEL,paaxucwlvw,Nick_Dissertation_EX1,1,270,2020-04-24T13:44:07-07:00,2.991268157959,4,versionC_stim.csv,READVersionD.csv,"Read Version D","Dissertation, read only version D",SITE,LOCATION,Study1,S,48,62,Test,User,-,,Recall,Recall2,2575,go,20,2174,2329,0,0,,1
w10079637_EEL,paaxucwlvw,Nick_Dissertation_EX1,1,271,2020-04-24T13:44:12-07:00,5.4362950325012,4,versionC_stim.csv,READVersionD.csv,"Read Version D","Dissertation, read only version D",GROWTH,HEIGHT,Study1,F,30,71,Test,User,-,,Recall,Recall2,5016,tree,20,2438,4863,0,0,,1
w10079637_EEL,paaxucwlvw,Nick_Dissertation_EX1,1,272,2020-04-24T13:44:15-07:00,2.8948068618774,4,versionC_stim.csv,READVersionD.csv,"Read Version D","Dissertation, read only version D",BAD,DELINQUENT,Study1,B,6,39,Test,User,-,,Recall,Recall2,2474,good,14.285714285714,1425,2238,0,0,,1
w10079637_EEL,paaxucwlvw,Nick_Dissertation_EX1,1,273,2020-04-24T13:44:18-07:00,2.7830150127411,4,versionC_stim.csv,READVersionD.csv,"Read Version D","Dissertation, read only version D",HAMMER,CHISEL,Study1,B,9,22,Test,User,-,,Recall,Recall2,2352,chisel,100,1078,2009,1,1,,1
w10079637_EEL,paaxucwlvw,Nick_Dissertation_EX1,1,274,2020-04-24T13:44:21-07:00,2.8560650348663,4,versionC_stim.csv,READVersionD.csv,"Read Version D","Dissertation, read only version D",DIVISION,MATH,Study1,F,33,16,Test,User,-,,Recall,Recall2,2414,math,100,1701,2179,1,1,,1
w10079637_EEL,paaxucwlvw,Nick_Dissertation_EX1,1,275,2020-04-24T13:44:23-07:00,2.1375660896301,4,versionC_stim.csv,READVersionD.csv,"Read Version D","Dissertation, read only version D",ASSIGNMENT,DUE,Study1,S,46,76,Test,User,-,,Recall,Recall2,1708,die,66.666666666667,1255,1498,0,0,,1
w10079637_EEL,paaxucwlvw,Nick_Dissertation_EX1,1,276,2020-04-24T13:44:26-07:00,3.7372348308563,4,versionC_stim.csv,READVersionD.csv,"Read Version D","Dissertation, read only version D",DESIGN,ARCHITECTURE,Study1,S,51,53,Test,User,-,,Recall,Recall2,3297,clothes,31.578947368421,2025,3068,0,0,,1
w10079637_EEL,paaxucwlvw,Nick_Dissertation_EX1,1,277,2020-04-24T13:44:29-07:00,2.0938031673431,4,versionC_stim.csv,READVersionD.csv,"Read Version D","Dissertation, read only version D",BLAZE,FIRE,Study1,F,45,65,Test,User,-,,Recall,Recall2,1612,fire,100,1049,1475,1,1,,1
w10079637_EEL,paaxucwlvw,Nick_Dissertation_EX1,1,278,2020-04-24T13:44:32-07:00,3.1141138076782,4,versionC_stim.csv,READVersionD.csv,"Read Version D","Dissertation, read only version D",ATTORNEY,LAW,Study1,F,34,19,Test,User,-,,Recall,Recall2,2706,law,100,1828,2179,1,1,,1
w10079637_EEL,paaxucwlvw,Nick_Dissertation_EX1,1,279,2020-04-24T13:44:36-07:00,4.7411251068115,4,versionC_stim.csv,READVersionD.csv,"Read Version D","Dissertation, read only version D",POSITION,MACHINE,Study1,U,76,55,Test,User,-,,Recall,Recall2,4300,,0,-1,-1,0,0,,1
w10079637_EEL,paaxucwlvw,Nick_Dissertation_EX1,1,280,2020-04-24T13:44:38-07:00,1.5120830535889,4,versionC_stim.csv,READVersionD.csv,"Read Version D","Dissertation, read only version D",SEIZE,TAKE,Study1,F,29,12,Test,User,-,,Recall,Recall2,1095,,0,-1,-1,0,0,,1
w10079637_EEL,paaxucwlvw,Nick_Dissertation_EX1,1,281,2020-04-24T13:44:41-07:00,3.5120060443878,4,versionC_stim.csv,READVersionD.csv,"Read Version D","Dissertation, read only version D",WOMAN,LIFT,Study1,U,69,77,Test,User,-,,Recall,Recall2,3093,girl,25,1849,2897,0,0,,1
w10079637_EEL,paaxucwlvw,Nick_Dissertation_EX1,1,282,2020-04-24T13:44:44-07:00,2.5150418281555,4,versionC_stim.csv,READVersionD.csv,"Read Version D","Dissertation, read only version D",PLANT,ROOT,Study1,B,13,80,Test,User,-,,Recall,Recall2,2078,root,100,1211,1860,1,1,,1
w10079637_EEL,paaxucwlvw,Nick_Dissertation_EX1,1,283,2020-04-24T13:44:47-07:00,2.6356370449066,4,versionC_stim.csv,READVersionD.csv,"Read Version D","Dissertation, read only version D",RIDDLE,SUGAR,Study1,U,81,43,Test,User,-,,Recall,Recall2,2222,joke,0,1588,2010,0,0,,1
w10079637_EEL,paaxucwlvw,Nick_Dissertation_EX1,1,284,2020-04-24T13:44:50-07:00,3.5201640129089,4,versionC_stim.csv,READVersionD.csv,"Read Version D","Dissertation, read only version D",WAR,REVOLUTION,Study1,B,20,27,Test,User,-,,Recall,Recall2,3056,revolution,100,1031,2758,1,1,,1
w10079637_EEL,paaxucwlvw,Nick_Dissertation_EX1,1,285,2020-04-24T13:44:52-07:00,1.5122289657593,4,versionC_stim.csv,READVersionD.csv,"Read Version D","Dissertation, read only version D",CAR,HAPPY,Study1,U,77,26,Test,User,-,,Recall,Recall2,1064,,0,-1,-1,0,0,,1
w10079637_EEL,paaxucwlvw,Nick_Dissertation_EX1,1,286,2020-04-24T13:44:55-07:00,3.4067709445953,4,versionC_stim.csv,READVersionD.csv,"Read Version D","Dissertation, read only version D",TUCK,ALLOW,Study1,U,78,82,Test,User,-,,Recall,Recall2,2976,drive,0,1224,2700,0,0,,1
w10079637_EEL,paaxucwlvw,Nick_Dissertation_EX1,1,287,2020-04-24T13:45:00-07:00,5.2220551967621,4,versionC_stim.csv,READVersionD.csv,"Read Version D","Dissertation, read only version D",AMOUNT,NUMBER,Study1,S,47,81,Test,User,-,,Recall,Recall2,4799,money,36.363636363636,1964,4559,0,0,,1
w10079637_EEL,paaxucwlvw,Nick_Dissertation_EX1,1,288,2020-04-24T13:45:03-07:00,2.7955408096313,4,versionC_stim.csv,READVersionD.csv,"Read Version D","Dissertation, read only version D",WIND,BLOW,Study1,S,55,73,Test,User,-,,Recall,Recall2,2355,keys,0,1807,2189,0,0,,1
w10079637_EEL,paaxucwlvw,Nick_Dissertation_EX1,1,289,2020-04-24T13:45:05-07:00,2.2073221206665,4,versionC_stim.csv,READVersionD.csv,"Read Version D","Dissertation, read only version D",FUTURE,PAST,Study1,S,61,32,Test,User,-,,Recall,Recall2,1747,,0,-1,-1,0,0,,1
w10079637_EEL,paaxucwlvw,Nick_Dissertation_EX1,1,290,2020-04-24T13:45:10-07:00,5.2144980430603,4,versionC_stim.csv,READVersionD.csv,"Read Version D","Dissertation, read only version D",BRONZE,ARTERY,Study1,U,74,52,Test,User,-,,Recall,Recall2,4791,medal,18.181818181818,1293,4060,0,0,,1
w10079637_EEL,paaxucwlvw,Nick_Dissertation_EX1,1,291,2020-04-24T13:45:14-07:00,3.3326909542084,4,versionC_stim.csv,READVersionD.csv,"Read Version D","Dissertation, read only version D",COW,HERD,Study1,B,22,51,Test,User,-,,Recall,Recall2,2879,horse,44.444444444444,2054,2688,0,0,,1
w10079637_EEL,paaxucwlvw,Nick_Dissertation_EX1,1,292,2020-04-24T13:45:18-07:00,3.7888100147247,4,versionC_stim.csv,READVersionD.csv,"Read Version D","Dissertation, read only version D",FOOT,SHOE,Study1,S,60,69,Test,User,-,,Recall,Recall2,3352,inch,25,2653,3089,0,0,,1
w10079637_EEL,paaxucwlvw,Nick_Dissertation_EX1,1,293,2020-04-24T13:45:20-07:00,2.5658268928528,4,versionC_stim.csv,READVersionD.csv,"Read Version D","Dissertation, read only version D",FLOWER,ORCHID,Study1,B,24,66,Test,User,-,,Recall,Recall2,2129,pot,22.222222222222,1089,1849,0,0,,1
w10079637_EEL,paaxucwlvw,Nick_Dissertation_EX1,1,294,2020-04-24T13:45:22-07:00,2.2143981456757,4,versionC_stim.csv,READVersionD.csv,"Read Version D","Dissertation, read only version D",HUNGRY,PARK,Study1,U,68,78,Test,User,-,,Recall,Recall2,1754,eat,28.571428571429,1166,1555,0,0,,1
w10079637_EEL,paaxucwlvw,Nick_Dissertation_EX1,1,295,2020-04-24T13:45:26-07:00,3.9452269077301,4,versionC_stim.csv,READVersionD.csv,"Read Version D","Dissertation, read only version D",STENCH,SMELL,Study1,F,42,86,Test,User,-,,Recall,Recall2,3504,smell,100,998,3312,1,1,,1
w10079637_EEL,paaxucwlvw,Nick_Dissertation_EX1,1,296,2020-04-24T13:45:29-07:00,2.6199541091919,4,versionC_stim.csv,READVersionD.csv,"Read Version D","Dissertation, read only version D",CHEESE,WINE,Study1,S,57,61,Test,User,-,,Recall,Recall2,2197,wine,100,1604,1936,1,1,,1
w10079637_EEL,paaxucwlvw,Nick_Dissertation_EX1,1,297,2020-04-24T13:45:32-07:00,3.2356038093567,4,versionC_stim.csv,READVersionD.csv,"Read Version D","Dissertation, read only version D",FAMINE,HUNGER,Study1,F,40,23,Test,User,-,,Recall,Recall2,2807,hungry,83.333333333333,1272,2499,0,1,,1
w10079637_EEL,paaxucwlvw,Nick_Dissertation_EX1,1,298,2020-04-24T13:45:35-07:00,2.8229691982269,4,versionC_stim.csv,READVersionD.csv,"Read Version D","Dissertation, read only version D",ENOUGH,FULL,Study1,F,26,20,Test,User,-,,Recall,Recall2,2378,said,0,1197,2176,0,0,,1
w10079637_EEL,paaxucwlvw,Nick_Dissertation_EX1,1,299,2020-04-24T13:45:41-07:00,6.1147248744965,4,versionC_stim.csv,READVersionD.csv,"Read Version D","Dissertation, read only version D",TOILET,BATHROOM,Study1,S,58,40,Test,User,-,,Recall,Recall2,5686,bathroom,100,4049,5415,1,1,,1
w10079637_EEL,paaxucwlvw,Nick_Dissertation_EX1,1,300,2020-04-24T13:45:45-07:00,4.1872069835663,4,versionC_stim.csv,READVersionD.csv,"Read Version D","Dissertation, read only version D",MONEY,WAGE,Study1,B,8,7,Test,User,-,,Recall,Recall2,3736,amount,20,2270,3156,0,0,,1
w10079637_EEL,paaxucwlvw,Nick_Dissertation_EX1,1,301,2020-04-24T13:45:48-07:00,3.1927280426025,4,versionC_stim.csv,READVersionD.csv,"Read Version D","Dissertation, read only version D",ADD,VALLEY,Study1,U,82,84,Test,User,-,,Recall,Recall2,2754,due,22.222222222222,1844,2178,0,0,,1
w10079637_EEL,paaxucwlvw,Nick_Dissertation_EX1,1,302,2020-04-24T13:45:54-07:00,5.2164409160614,4,versionC_stim.csv,READVersionD.csv,"Read Version D","Dissertation, read only version D",ATTIRE,CLOTHES,Study1,F,43,11,Test,User,-,,Recall,Recall2,4766,law,20,3873,4545,0,0,,1
w10079637_EEL,paaxucwlvw,Nick_Dissertation_EX1,1,303,2020-04-24T13:45:56-07:00,2.6718201637268,4,versionC_stim.csv,READVersionD.csv,"Read Version D","Dissertation, read only version D",WORD,SENTENCE,Study1,F,31,24,Test,User,-,,Recall,Recall2,2233,,0,-1,-1,0,0,,1
w10079637_EEL,paaxucwlvw,Nick_Dissertation_EX1,1,304,2020-04-24T13:45:59-07:00,2.9518039226532,4,versionC_stim.csv,READVersionD.csv,"Read Version D","Dissertation, read only version D",WOULD,CASH,Study1,U,83,31,Test,User,-,,Recall,Recall2,2500,do,0,979,2169,0,0,,1
w10079637_EEL,paaxucwlvw,Nick_Dissertation_EX1,1,305,2020-04-24T13:46:04-07:00,4.2297699451447,4,versionC_stim.csv,READVersionD.csv,"Read Version D","Dissertation, read only version D",SACKING,DIETARY,Study1,U,67,49,Test,User,-,,Recall,Recall2,3784,path,18.181818181818,2938,3492,0,0,,1
w10079637_EEL,paaxucwlvw,Nick_Dissertation_EX1,1,306,2020-04-24T13:46:06-07:00,2.7762739658356,4,versionC_stim.csv,READVersionD.csv,"Read Version D","Dissertation, read only version D",FISH,TUNA,Study1,B,25,54,Test,User,-,,Recall,Recall2,2321,tuna,100,1314,2135,1,1,,1
w10079637_EEL,paaxucwlvw,Nick_Dissertation_EX1,1,307,2020-04-24T13:46:11-07:00,4.2913291454315,4,versionC_stim.csv,READVersionD.csv,"Read Version D","Dissertation, read only version D",ACCIDENT,STRONG,Study1,U,80,60,Test,User,-,,Recall,Recall2,3857,bad,0,3329,3658,0,0,,1
w10079637_EEL,paaxucwlvw,Nick_Dissertation_EX1,1,308,2020-04-24T13:46:14-07:00,3.2027130126953,4,versionC_stim.csv,READVersionD.csv,"Read Version D","Dissertation, read only version D",SALAD,LETTUCE,Study1,S,59,18,Test,User,-,,Recall,Recall2,2772,lettuce,100,1371,2457,1,1,,1
w10079637_EEL,paaxucwlvw,Nick_Dissertation_EX1,1,309,2020-04-24T13:46:17-07:00,3.1124308109283,4,versionC_stim.csv,READVersionD.csv,"Read Version D","Dissertation, read only version D",CARD,CREDIT,Study1,B,23,10,Test,User,-,,Recall,Recall2,2654,money,18.181818181818,1678,2316,0,0,,1
w10079637_EEL,paaxucwlvw,Nick_Dissertation_EX1,1,310,2020-04-24T13:46:20-07:00,3.3085780143738,4,versionC_stim.csv,READVersionD.csv,"Read Version D","Dissertation, read only version D",CLEAN,HYGIENE,Study1,B,17,37,Test,User,-,,Recall,Recall2,2855,sheets,46.153846153846,1557,2654,0,0,,1
w10079637_EEL,paaxucwlvw,Nick_Dissertation_EX1,1,311,2020-04-24T13:46:26-07:00,5.7280039787292,4,versionC_stim.csv,READVersionD.csv,"Read Version D","Dissertation, read only version D",BUSINESS,DEATH,Study1,U,72,56,Test,User,-,,Recall,Recall2,5289,death,100,1733,4639,1,1,,1
w10079637_EEL,paaxucwlvw,Nick_Dissertation_EX1,1,312,2020-04-24T13:46:29-07:00,2.7020649909973,4,versionC_stim.csv,READVersionD.csv,"Read Version D","Dissertation, read only version D",SIGHT,DEBATE,Study1,U,73,64,Test,User,-,,Recall,Recall2,2319,car,22.222222222222,1723,2103,0,0,,1
w10079637_EEL,paaxucwlvw,Nick_Dissertation_EX1,1,313,2020-04-24T13:46:34-07:00,5.3060221672058,4,versionC_stim.csv,READVersionD.csv,"Read Version D","Dissertation, read only version D",SIP,DRINK,Study1,F,27,30,Test,User,-,,Recall,Recall2,4863,drinl,80,3637,4576,0,1,,1
w10079637_EEL,paaxucwlvw,Nick_Dissertation_EX1,1,314,2020-04-24T13:46:38-07:00,4.2871799468994,4,versionC_stim.csv,READVersionD.csv,"Read Version D","Dissertation, read only version D",FLOOR,DISCOVER,Study1,U,71,63,Test,User,-,,Recall,Recall2,3848,fall,0,1938,3686,0,0,,1
w10079637_EEL,paaxucwlvw,Nick_Dissertation_EX1,1,315,2020-04-24T13:46:42-07:00,3.8990039825439,4,versionC_stim.csv,READVersionD.csv,"Read Version D","Dissertation, read only version D",SICK,HIDE,Study1,U,84,59,Test,User,-,,Recall,Recall2,3460,stomach,18.181818181818,2114,3092,0,0,,1
w10079637_EEL,paaxucwlvw,Nick_Dissertation_EX1,1,316,2020-04-24T13:46:49-07:00,6.6918001174927,4,versionC_stim.csv,READVersionD.csv,"Read Version D","Dissertation, read only version D",PILOT,PLANE,Study1,F,44,75,Test,User,-,,Recall,Recall2,6241,,0,4797,4797,0,0,,1
w10079637_EEL,paaxucwlvw,Nick_Dissertation_EX1,1,317,2020-04-24T13:46:52-07:00,3.2335598468781,4,versionC_stim.csv,READVersionD.csv,"Read Version D","Dissertation, read only version D",FANTASTIC,GREAT,Study1,F,35,9,Test,User,-,,Recall,Recall2,2805,,0,-1,-1,0,0,,1
w10079637_EEL,paaxucwlvw,Nick_Dissertation_EX1,1,318,2020-04-24T13:46:55-07:00,2.9970669746399,4,versionC_stim.csv,READVersionD.csv,"Read Version D","Dissertation, read only version D",BAR,GRILL,Study1,S,52,25,Test,User,-,,Recall,Recall2,2577,grill,100,1203,1859,1,1,,1
w10079637_EEL,paaxucwlvw,Nick_Dissertation_EX1,1,319,2020-04-24T13:46:58-07:00,2.7445960044861,4,versionC_stim.csv,READVersionD.csv,"Read Version D","Dissertation, read only version D",WASTE,DUMP,Study1,S,49,48,Test,User,-,,Recall,Recall2,2303,trash,0,1212,2000,0,0,,1
w10079637_EEL,paaxucwlvw,Nick_Dissertation_EX1,1,320,2020-04-24T13:47:00-07:00,1.9447979927063,4,versionC_stim.csv,READVersionD.csv,"Read Version D","Dissertation, read only version D",SODA,POP,Study1,S,56,42,Test,User,-,,Recall,Recall2,1500,pop,100,952,1250,1,1,,1
w10079637_EEL,paaxucwlvw,Nick_Dissertation_EX1,1,321,2020-04-24T13:47:03-07:00,2.9805021286011,4,versionC_stim.csv,READVersionD.csv,"Read Version D","Dissertation, read only version D",LATCH,KEY,Study1,F,36,57,Test,User,-,,Recall,Recall2,2546,key,100,1883,2195,1,1,,1
w10079637_EEL,paaxucwlvw,Nick_Dissertation_EX1,1,322,2020-04-24T13:47:07-07:00,3.9035918712616,4,versionC_stim.csv,READVersionD.csv,"Read Version D","Dissertation, read only version D",DEFINITION,MEANING,Study1,S,62,17,Test,User,-,,Recall,Recall2,3463,word,0,2658,3156,0,0,,1
w10079637_EEL,paaxucwlvw,Nick_Dissertation_EX1,1,323,2020-04-24T13:47:10-07:00,3.5825769901276,4,versionC_stim.csv,READVersionD.csv,"Read Version D","Dissertation, read only version D",CAVE,DARK,Study1,F,28,67,Test,User,-,,Recall,Recall2,3129,cavern,40,2100,2758,0,0,,1
w10079637_EEL,paaxucwlvw,Nick_Dissertation_EX1,1,324,2020-04-24T13:47:13-07:00,3.0899732112885,4,versionC_stim.csv,READVersionD.csv,"Read Version D","Dissertation, read only version D",CHILD,BABY,Study1,S,64,58,Test,User,-,,Recall,Recall2,2638,adult,22.222222222222,1481,2418,0,0,,1
w10079637_EEL,paaxucwlvw,Nick_Dissertation_EX1,1,325,2020-04-24T13:47:17-07:00,3.5260808467865,4,versionC_stim.csv,READVersionD.csv,"Read Version D","Dissertation, read only version D",CHORE,WORK,Study1,F,39,74,Test,User,-,,Recall,Recall2,3092,work,100,1939,2747,1,1,,1
w10079637_EEL,paaxucwlvw,Nick_Dissertation_EX1,1,326,2020-04-24T13:47:20-07:00,2.6751379966736,4,versionC_stim.csv,READVersionD.csv,"Read Version D","Dissertation, read only version D",ROUND,CIRCLE,Study1,S,65,15,Test,User,-,,Recall,Recall2,2241,circle,100,1187,1996,1,1,,1
w10079637_EEL,paaxucwlvw,Nick_Dissertation_EX1,1,327,2020-04-24T13:47:22-07:00,2.7646820545197,4,versionC_stim.csv,READVersionD.csv,"Read Version D","Dissertation, read only version D",VASE,KING,Study1,U,85,44,Test,User,-,,Recall,Recall2,2313,flower,0,1198,2135,0,0,,1
w10079637_EEL,paaxucwlvw,Nick_Dissertation_EX1,1,328,2020-04-24T13:47:25-07:00,2.1963679790497,4,versionC_stim.csv,READVersionD.csv,"Read Version D","Dissertation, read only version D",COLD,BITTER,Study1,B,12,41,Test,User,-,,Recall,Recall2,1777,ice,44.444444444444,1278,1567,0,0,,1
w10079637_EEL,paaxucwlvw,Nick_Dissertation_EX1,1,329,2020-04-24T13:47:27-07:00,2.0867590904236,4,versionC_stim.csv,READVersionD.csv,"Read Version D","Dissertation, read only version D",TALK,DISCUSSION,Study1,B,21,72,Test,User,-,,Recall,Recall2,1667,word,14.285714285714,991,1436,0,0,,1
w10079637_EEL,paaxucwlvw,Nick_Dissertation_EX1,1,330,2020-04-24T13:47:29-07:00,2.3378238677979,4,versionC_stim.csv,READVersionD.csv,"Read Version D","Dissertation, read only version D",LION,ART,Study1,U,79,8,Test,User,-,,Recall,Recall2,1894,art,100,1091,1651,1,1,,1
w10079637_EEL,paaxucwlvw,Nick_Dissertation_EX1,1,331,2020-04-24T13:47:34-07:00,5.239324092865,4,versionC_stim.csv,READVersionD.csv,"Read Version D","Dissertation, read only version D",STOMACH,DIGESTION,Study1,B,7,38,Test,User,-,,Recall,Recall2,4802,hurt,15.384615384615,1189,4560,0,0,,1
w10079637_EEL,paaxucwlvw,Nick_Dissertation_EX1,1,332,2020-04-24T13:47:37-07:00,2.4111938476562,4,versionC_stim.csv,READVersionD.csv,"Read Version D","Dissertation, read only version D",CHILI,HOT,Study1,F,37,34,Test,User,-,,Recall,Recall2,1976,hot,100,1552,1791,1,1,,1
w10079637_EEL,paaxucwlvw,Nick_Dissertation_EX1,1,333,2020-04-24T13:47:41-07:00,4.6310300827026,4,versionC_stim.csv,READVersionD.csv,"Read Version D","Dissertation, read only version D",BEE,HONEY,Study1,S,63,46,Test,User,-,,Recall,Recall2,4202,sting,20,1132,3683,0,0,,1
w10079637_EEL,paaxucwlvw,Nick_Dissertation_EX1,1,334,2020-04-24T13:47:45-07:00,3.3705620765686,4,versionC_stim.csv,READVersionD.csv,"Read Version D","Dissertation, read only version D",LIVER,KIDNEY,Study1,S,53,83,Test,User,-,,Recall,Recall2,2954,lamb,0,1978,2412,0,0,,1
w10079637_EEL,paaxucwlvw,Nick_Dissertation_EX1,1,335,2020-04-24T13:47:49-07:00,4.1421580314636,4,versionC_stim.csv,READVersionD.csv,"Read Version D","Dissertation, read only version D",BELT,SOON,Study1,U,70,85,Test,User,-,,Recall,Recall2,3721,;atch,0,2814,3459,0,0,,1
w10079637_EEL,paaxucwlvw,Nick_Dissertation_EX1,1,336,2020-04-24T13:47:51-07:00,2.6825549602509,4,versionC_stim.csv,READVersionD.csv,"Read Version D","Dissertation, read only version D",WATER,BRIDGE,Study1,B,18,79,Test,User,-,,Recall,Recall2,2271,drinl,36.363636363636,1305,1944,0,0,,1
w10079637_EEL,paaxucwlvw,Nick_Dissertation_EX1,1,337,2020-04-24T13:47:54-07:00,2.8548438549042,4,versionC_stim.csv,READVersionD.csv,"Read Version D","Dissertation, read only version D",RACKET,BALL,Study1,F,38,13,Test,User,-,,Recall,Recall2,2414,ball,100,1290,1724,1,1,,1
w10079637_EEL,paaxucwlvw,Nick_Dissertation_EX1,1,338,2020-04-24T13:47:58-07:00,3.2462160587311,4,versionC_stim.csv,READVersionD.csv,"Read Version D","Dissertation, read only version D",NEWS,EDITOR,Study1,B,10,45,Test,User,-,,Recall,Recall2,2822,tv,25,2297,2526,0,0,,1
w10079637_EEL,paaxucwlvw,Nick_Dissertation_EX1,1,339,2020-04-24T13:48:00-07:00,2.7957589626312,4,versionC_stim.csv,READVersionD.csv,"Read Version D","Dissertation, read only version D",HAND,FIX,Study1,U,75,68,Test,User,-,,Recall,Recall2,2327,hit,33.333333333333,1562,1901,0,0,,1
w10079637_EEL,paaxucwlvw,Nick_Dissertation_EX1,1,340,2020-04-24T13:48:03-07:00,2.2962231636047,4,versionC_stim.csv,READVersionD.csv,"Read Version D","Dissertation, read only version D",OUT,WAY,Study1,B,16,70,Test,User,-,,Recall,Recall2,1853,,0,-1,-1,0,0,,1
w10079637_EEL,paaxucwlvw,Nick_Dissertation_EX1,1,341,2020-04-24T13:48:05-07:00,2.5904288291931,4,versionC_stim.csv,READVersionD.csv,"Read Version D","Dissertation, read only version D",END,BEGIN,Study1,S,54,21,Test,User,-,,Recall,Recall2,2148,near,22.222222222222,1406,1880,0,0,,1
w10079637_EEL,paaxucwlvw,Nick_Dissertation_EX1,1,342,2020-04-24T13:48:08-07:00,2.9141061306,4,versionC_stim.csv,READVersionD.csv,"Read Version D","Dissertation, read only version D",ROCK,GEOLOGY,Study1,B,19,14,Test,User,-,,Recall,Recall2,2467,geology,100,1269,2223,1,1,,1
w10079637_EEL,paaxucwlvw,Nick_Dissertation_EX1,1,343,2020-04-24T13:48:11-07:00,2.8860578536987,4,versionC_stim.csv,READVersionD.csv,"Read Version D","Dissertation, read only version D",BIRD,SWAN,Study1,B,14,29,Test,User,-,,Recall,Recall2,2506,sing,50,1175,2306,0,0,,1
w10079637_EEL,paaxucwlvw,Nick_Dissertation_EX1,1,344,2020-04-24T13:48:14-07:00,3.4754500389099,4,versionC_stim.csv,READVersionD.csv,"Read Version D","Dissertation, read only version D",DROWSY,SLEEP,Study1,F,41,36,Test,User,-,,Recall,Recall2,3033,sleep,100,2020,2706,1,1,,1
w10079637_EEL,paaxucwlvw,Nick_Dissertation_EX1,1,345,2020-04-24T13:48:17-07:00,2.9826700687408,4,versionC_stim.csv,READVersionD.csv,"Read Version D","Dissertation, read only version D",STING,HORNET,Study1,B,11,28,Test,User,-,,Recall,Recall2,2542,wasp,0,1543,2106,0,0,,1
w10079637_EEL,paaxucwlvw,Nick_Dissertation_EX1,1,346,2020-04-24T13:48:21-07:00,3.7799119949341,4,versionC_stim.csv,READVersionD.csv,"Read Version D","Dissertation, read only version D",JURY,TRIAL,Study1,S,50,47,Test,User,-,,Recall,Recall2,3252,law,25,2405,3034,0,0,,1
w10079637_EEL,paaxucwlvw,Nick_Dissertation_EX1,1,347,2020-04-24T13:48:24-07:00,2.5974318981171,4,versionC_stim.csv,READVersionD.csv,"Read Version D","Dissertation, read only version D",WASP,BUG,Study1,F,32,33,Test,User,-,,Recall,Recall2,2107,bee,33.333333333333,1658,1940,0,0,,1
w10079637_EEL,paaxucwlvw,Nick_Dissertation_EX1,1,348,2020-04-24T13:48:27-07:00,3.3982071876526,4,versionC_stim.csv,READVersionD.csv,"Read Version D","Dissertation, read only version D",DOG,PAW,Study1,B,15,35,Test,User,-,,Recall,Recall2,2973,cat,33.333333333333,2426,2720,0,0,,1
w10079637_EEL,paaxucwlvw,Nick_Dissertation_EX1,1,349,2020-04-24T13:48:29-07:00,1.641569852829,4,versionC_stim.csv,READVersionD.csv,"Read Version D","Dissertation, read only version D",,,,,,0,Instruct,User,-,"You have completed this section. Please press Enter.",,Instruct7,1231,,,-1,-1,,,,1
w10079637_EEL,paaxucwlvw,Nick_Dissertation_EX1,1,350,2020-04-24T13:48:32-07:00,3.6239869594574,4,versionC_stim.csv,READVersionD.csv,"Read Version D","Dissertation, read only version D",,,,,,0,Instruct,User,-,"The following screen will ask you a few questions abour your experience today. You must complete these questions to receive credit.",,Instruct8,3188,,,-1,-1,,,,1
