Username,ID,ExperimentName,Session,Trial,Date,TimeDif,"Condition Number","Stimuli File","Order File","Condition Description","Condition Notes",Stimuli*Cue,Stimuli*Answer,Stimuli*Shuffle,"Stimuli*Stimuli Notes",Stimuli*Value,Procedure*Item,"Procedure*Trial Type","Procedure*Max Time","Procedure*Min Time",Procedure*Text,"Procedure*Procedure Notes",Procedure*Shuffle,Response*RT,Response*Response,Response*Accuracy,Response*RTfirst,Response*RTlast,Response*strictAcc,Response*lenientAcc,Response*focus,Response*Focus
w982047,l3jm8zvd9e,Nick_Dissertation_EX1,1,1,2020-04-06T07:50:26-07:00,11.313963890076,2,versionA_stim.csv,READVersionB.csv,"Read Version B","Dissertation, read only version B",,,,,,0,Instruct,-,10,"Please study each of the following word pairs. Remember that your memory will be tested! When finished, press Enter to move to the next pair.",Initial_Instruct,Instruct1,10804,,,-1,-1,,,,1
w982047,l3jm8zvd9e,Nick_Dissertation_EX1,1,2,2020-04-06T07:50:33-07:00,6.9451010227203,2,versionA_stim.csv,READVersionB.csv,"Read Version B","Dissertation, read only version B",ICE,FROZEN,BUFFER3,Buffer,94,94,Study,User,-,,Study/JOL,BUFFER,6449,,,-1,-1,,,,1
w982047,l3jm8zvd9e,Nick_Dissertation_EX1,1,3,2020-04-06T07:50:43-07:00,9.8434119224548,2,versionA_stim.csv,READVersionB.csv,"Read Version B","Dissertation, read only version B",SHRIMP,FISH,BUFFER3,Buffer,93,93,Study,User,-,,Study/JOL,BUFFER,7664,,,-1,-1,,,,1
w982047,l3jm8zvd9e,Nick_Dissertation_EX1,1,4,2020-04-06T07:50:49-07:00,6.7126569747925,2,versionA_stim.csv,READVersionB.csv,"Read Version B","Dissertation, read only version B",CAMP,ADVENTURE,BUFFER3,Buffer,95,92,Study,User,-,,Study/JOL,BUFFER,5082,,,-1,-1,,,,1
w982047,l3jm8zvd9e,Nick_Dissertation_EX1,1,5,2020-04-06T07:50:55-07:00,5.4287509918213,2,versionA_stim.csv,READVersionB.csv,"Read Version B","Dissertation, read only version B",NOODLE,STRING,BUFFER3,Buffer,92,95,Study,User,-,,Study/JOL,BUFFER,5012,,,-1,-1,,,,1
w982047,l3jm8zvd9e,Nick_Dissertation_EX1,1,6,2020-04-06T07:50:58-07:00,3.2006351947784,2,versionA_stim.csv,READVersionB.csv,"Read Version B","Dissertation, read only version B",CARROT,POTATO,BUFFER3,Buffer,91,96,Study,User,-,,Study/JOL,BUFFER,2782,,,-1,-1,,,,1
w982047,l3jm8zvd9e,Nick_Dissertation_EX1,1,7,2020-04-06T07:51:00-07:00,2.3685219287872,2,versionA_stim.csv,READVersionB.csv,"Read Version B","Dissertation, read only version B",OWN,HAVE,Study2,S,153,155,Study,User,-,,Study/JOL,"Study Phase",1953,,,-1,-1,,,,1
w982047,l3jm8zvd9e,Nick_Dissertation_EX1,1,8,2020-04-06T07:51:04-07:00,3.36443400383,2,versionA_stim.csv,READVersionB.csv,"Read Version B","Dissertation, read only version B",DRY,WET,Study2,S,146,152,Study,User,-,,Study/JOL,"Study Phase",2934,,,-1,-1,,,,1
w982047,l3jm8zvd9e,Nick_Dissertation_EX1,1,9,2020-04-06T07:51:06-07:00,1.7556600570679,2,versionA_stim.csv,READVersionB.csv,"Read Version B","Dissertation, read only version B",AFFECTION,LOVE,Study2,F,115,135,Study,User,-,,Study/JOL,"Study Phase",1342,,,-1,-1,,,,1
w982047,l3jm8zvd9e,Nick_Dissertation_EX1,1,10,2020-04-06T07:51:09-07:00,3.4019107818604,2,versionA_stim.csv,READVersionB.csv,"Read Version B","Dissertation, read only version B",RIGHTS,EQUAL,Study2,S,137,99,Study,User,-,,Study/JOL,"Study Phase",3008,,,-1,-1,,,,1
w982047,l3jm8zvd9e,Nick_Dissertation_EX1,1,11,2020-04-06T07:51:14-07:00,5.2214770317078,2,versionA_stim.csv,READVersionB.csv,"Read Version B","Dissertation, read only version B",GIVE,STEAK,Study2,U,158,132,Study,User,-,,Study/JOL,"Study Phase",4812,,,-1,-1,,,,1
w982047,l3jm8zvd9e,Nick_Dissertation_EX1,1,12,2020-04-06T07:51:19-07:00,4.7360529899597,2,versionA_stim.csv,READVersionB.csv,"Read Version B","Dissertation, read only version B",MAIN,SCAR,Study2,U,175,98,Study,User,-,,Study/JOL,"Study Phase",4308,,,-1,-1,,,,1
w982047,l3jm8zvd9e,Nick_Dissertation_EX1,1,13,2020-04-06T07:51:22-07:00,3.4705421924591,2,versionA_stim.csv,READVersionB.csv,"Read Version B","Dissertation, read only version B",CAKE,CLOTHES,Study2,U,166,123,Study,User,-,,Study/JOL,"Study Phase",3059,,,-1,-1,,,,1
w982047,l3jm8zvd9e,Nick_Dissertation_EX1,1,14,2020-04-06T07:51:25-07:00,2.8702218532562,2,versionA_stim.csv,READVersionB.csv,"Read Version B","Dissertation, read only version B",ROD,REEL,Study2,S,150,119,Study,User,-,,Study/JOL,"Study Phase",2478,,,-1,-1,,,,1
w982047,l3jm8zvd9e,Nick_Dissertation_EX1,1,15,2020-04-06T07:51:32-07:00,6.931116104126,2,versionA_stim.csv,READVersionB.csv,"Read Version B","Dissertation, read only version B",MASON,JAR,Study2,S,138,127,Study,User,-,,Study/JOL,"Study Phase",6525,,,-1,-1,,,,0.788
w982047,l3jm8zvd9e,Nick_Dissertation_EX1,1,16,2020-04-06T07:51:34-07:00,2.2065498828888,2,versionA_stim.csv,READVersionB.csv,"Read Version B","Dissertation, read only version B",GLASS,BREAKABLE,Study2,B,127,163,Study,User,-,,Study/JOL,"Study Phase",1738,,,-1,-1,,,,1
w982047,l3jm8zvd9e,Nick_Dissertation_EX1,1,17,2020-04-06T07:51:37-07:00,2.853746175766,2,versionA_stim.csv,READVersionB.csv,"Read Version B","Dissertation, read only version B",DEAD,COFFIN,Study2,B,128,158,Study,User,-,,Study/JOL,"Study Phase",2381,,,-1,-1,,,,1
w982047,l3jm8zvd9e,Nick_Dissertation_EX1,1,18,2020-04-06T07:51:40-07:00,3.0756928920746,2,versionA_stim.csv,READVersionB.csv,"Read Version B","Dissertation, read only version B",PLANE,AIRCRAFT,Study2,B,129,101,Study,User,-,,Study/JOL,"Study Phase",2668,,,-1,-1,,,,1
w982047,l3jm8zvd9e,Nick_Dissertation_EX1,1,19,2020-04-06T07:51:44-07:00,3.6580739021301,2,versionA_stim.csv,READVersionB.csv,"Read Version B","Dissertation, read only version B",DETECTIVE,MYSTERY,Study2,F,100,128,Study,User,-,,Study/JOL,"Study Phase",3267,,,-1,-1,,,,1
w982047,l3jm8zvd9e,Nick_Dissertation_EX1,1,20,2020-04-06T07:51:48-07:00,4.2768590450287,2,versionA_stim.csv,READVersionB.csv,"Read Version B","Dissertation, read only version B",FIGHT,BRAWL,Study2,B,135,147,Study,User,-,,Study/JOL,"Study Phase",3875,,,-1,-1,,,,1
w982047,l3jm8zvd9e,Nick_Dissertation_EX1,1,21,2020-04-06T07:51:52-07:00,3.3457460403442,2,versionA_stim.csv,READVersionB.csv,"Read Version B","Dissertation, read only version B",CHOP,CUT,Study2,F,107,136,Study,User,-,,Study/JOL,"Study Phase",2957,,,-1,-1,,,,1
w982047,l3jm8zvd9e,Nick_Dissertation_EX1,1,22,2020-04-06T07:51:54-07:00,2.2758839130402,2,versionA_stim.csv,READVersionB.csv,"Read Version B","Dissertation, read only version B",FEUD,FIGHT,Study2,F,113,143,Study,User,-,,Study/JOL,"Study Phase",1853,,,-1,-1,,,,1
w982047,l3jm8zvd9e,Nick_Dissertation_EX1,1,23,2020-04-06T07:51:56-07:00,2.2051730155945,2,versionA_stim.csv,READVersionB.csv,"Read Version B","Dissertation, read only version B",HONEST,TRUTHFUL,Study2,B,133,107,Study,User,-,,Study/JOL,"Study Phase",1774,,,-1,-1,,,,1
w982047,l3jm8zvd9e,Nick_Dissertation_EX1,1,24,2020-04-06T07:52:00-07:00,4.1078860759735,2,versionA_stim.csv,READVersionB.csv,"Read Version B","Dissertation, read only version B",MAZE,ELECTION,Study2,U,159,100,Study,User,-,,Study/JOL,"Study Phase",3667,,,-1,-1,,,,1
w982047,l3jm8zvd9e,Nick_Dissertation_EX1,1,25,2020-04-06T07:52:03-07:00,3.1572821140289,2,versionA_stim.csv,READVersionB.csv,"Read Version B","Dissertation, read only version B",CAR,WINDSHIELD,Study2,B,117,170,Study,User,-,,Study/JOL,"Study Phase",2751,,,-1,-1,,,,1
w982047,l3jm8zvd9e,Nick_Dissertation_EX1,1,26,2020-04-06T07:52:06-07:00,2.2611658573151,2,versionA_stim.csv,READVersionB.csv,"Read Version B","Dissertation, read only version B",MOAT,CLEAR,Study2,U,169,169,Study,User,-,,Study/JOL,"Study Phase",1848,,,-1,-1,,,,1
w982047,l3jm8zvd9e,Nick_Dissertation_EX1,1,27,2020-04-06T07:52:09-07:00,3.4757099151611,2,versionA_stim.csv,READVersionB.csv,"Read Version B","Dissertation, read only version B",CAT,PANTHER,Study2,B,126,154,Study,User,-,,Study/JOL,"Study Phase",3063,,,-1,-1,,,,1
w982047,l3jm8zvd9e,Nick_Dissertation_EX1,1,28,2020-04-06T07:52:12-07:00,2.8865070343018,2,versionA_stim.csv,READVersionB.csv,"Read Version B","Dissertation, read only version B",SHOELACE,TIE,Study2,F,99,166,Study,User,-,,Study/JOL,"Study Phase",2483,,,-1,-1,,,,1
w982047,l3jm8zvd9e,Nick_Dissertation_EX1,1,29,2020-04-06T07:52:15-07:00,2.6817820072174,2,versionA_stim.csv,READVersionB.csv,"Read Version B","Dissertation, read only version B",TEMPERATURE,Morning,Study2,U,173,109,Study,User,-,,Study/JOL,"Study Phase",2267,,,-1,-1,,,,1
w982047,l3jm8zvd9e,Nick_Dissertation_EX1,1,30,2020-04-06T07:52:18-07:00,3.142834186554,2,versionA_stim.csv,READVersionB.csv,"Read Version B","Dissertation, read only version B",SLEEP,NAP,Study2,B,134,97,Study,User,-,,Study/JOL,"Study Phase",2733,,,-1,-1,,,,1
w982047,l3jm8zvd9e,Nick_Dissertation_EX1,1,31,2020-04-06T07:52:21-07:00,2.8331038951874,2,versionA_stim.csv,READVersionB.csv,"Read Version B","Dissertation, read only version B",THREAD,THIMBLE,Study2,B,121,167,Study,User,-,,Study/JOL,"Study Phase",2437,,,-1,-1,,,,1
w982047,l3jm8zvd9e,Nick_Dissertation_EX1,1,32,2020-04-06T07:52:23-07:00,2.5108830928802,2,versionA_stim.csv,READVersionB.csv,"Read Version B","Dissertation, read only version B",FRUIT,STRAWBERRY,Study2,B,124,121,Study,User,-,,Study/JOL,"Study Phase",2105,,,-1,-1,,,,1
w982047,l3jm8zvd9e,Nick_Dissertation_EX1,1,33,2020-04-06T07:52:26-07:00,3.1944568157196,2,versionA_stim.csv,READVersionB.csv,"Read Version B","Dissertation, read only version B",DOCUMENT,PAPER,Study2,F,109,175,Study,User,-,,Study/JOL,"Study Phase",2661,,,-1,-1,,,,1
w982047,l3jm8zvd9e,Nick_Dissertation_EX1,1,34,2020-04-06T07:52:30-07:00,3.2473421096802,2,versionA_stim.csv,READVersionB.csv,"Read Version B","Dissertation, read only version B",BOTH,OUNCE,Study2,U,172,115,Study,User,-,,Study/JOL,"Study Phase",2837,,,-1,-1,,,,1
w982047,l3jm8zvd9e,Nick_Dissertation_EX1,1,35,2020-04-06T07:52:33-07:00,3.0092430114746,2,versionA_stim.csv,READVersionB.csv,"Read Version B","Dissertation, read only version B",ALONE,LONELY,Study2,S,145,106,Study,User,-,,Study/JOL,"Study Phase",2579,,,-1,-1,,,,1
w982047,l3jm8zvd9e,Nick_Dissertation_EX1,1,36,2020-04-06T07:52:34-07:00,1.8759188652039,2,versionA_stim.csv,READVersionB.csv,"Read Version B","Dissertation, read only version B",STAR,ACTRESS,Study2,B,120,156,Study,User,-,,Study/JOL,"Study Phase",1488,,,-1,-1,,,,1
w982047,l3jm8zvd9e,Nick_Dissertation_EX1,1,37,2020-04-06T07:52:37-07:00,2.9455490112305,2,versionA_stim.csv,READVersionB.csv,"Read Version B","Dissertation, read only version B",SAFETY,SEATBELT,Study2,S,147,125,Study,User,-,,Study/JOL,"Study Phase",2553,,,-1,-1,,,,1
w982047,l3jm8zvd9e,Nick_Dissertation_EX1,1,38,2020-04-06T07:52:40-07:00,2.9201281070709,2,versionA_stim.csv,READVersionB.csv,"Read Version B","Dissertation, read only version B",DINE,EAT,Study2,F,111,173,Study,User,-,,Study/JOL,"Study Phase",2510,,,-1,-1,,,,1
w982047,l3jm8zvd9e,Nick_Dissertation_EX1,1,39,2020-04-06T07:52:43-07:00,2.9278769493103,2,versionA_stim.csv,READVersionB.csv,"Read Version B","Dissertation, read only version B",EARTH,GROUND,Study2,S,144,131,Study,User,-,,Study/JOL,"Study Phase",2539,,,-1,-1,,,,1
w982047,l3jm8zvd9e,Nick_Dissertation_EX1,1,40,2020-04-06T07:52:46-07:00,2.8365240097046,2,versionA_stim.csv,READVersionB.csv,"Read Version B","Dissertation, read only version B",FISH,SARDINE,Study2,B,130,159,Study,User,-,,Study/JOL,"Study Phase",2437,,,-1,-1,,,,1
w982047,l3jm8zvd9e,Nick_Dissertation_EX1,1,41,2020-04-06T07:52:49-07:00,2.997740983963,2,versionA_stim.csv,READVersionB.csv,"Read Version B","Dissertation, read only version B",ADJOURN,END,Study2,F,101,164,Study,User,-,,Study/JOL,"Study Phase",2597,,,-1,-1,,,,1
w982047,l3jm8zvd9e,Nick_Dissertation_EX1,1,42,2020-04-06T07:52:52-07:00,2.7384219169617,2,versionA_stim.csv,READVersionB.csv,"Read Version B","Dissertation, read only version B",BEST,FAVORITE,Study2,B,125,142,Study,User,-,,Study/JOL,"Study Phase",2352,,,-1,-1,,,,1
w982047,l3jm8zvd9e,Nick_Dissertation_EX1,1,43,2020-04-06T07:52:54-07:00,1.8502810001373,2,versionA_stim.csv,READVersionB.csv,"Read Version B","Dissertation, read only version B",JUSTICE,MAROON,Study2,U,156,141,Study,User,-,,Study/JOL,"Study Phase",1459,,,-1,-1,,,,1
w982047,l3jm8zvd9e,Nick_Dissertation_EX1,1,44,2020-04-06T07:52:58-07:00,3.9495069980621,2,versionA_stim.csv,READVersionB.csv,"Read Version B","Dissertation, read only version B",FURRY,DOG,Study2,F,102,157,Study,User,-,,Study/JOL,"Study Phase",3390,,,-1,-1,,,,1
w982047,l3jm8zvd9e,Nick_Dissertation_EX1,1,45,2020-04-06T07:53:00-07:00,2.7384080886841,2,versionA_stim.csv,READVersionB.csv,"Read Version B","Dissertation, read only version B",LOAN,SIGN,Study2,U,171,168,Study,User,-,,Study/JOL,"Study Phase",2280,,,-1,-1,,,,1
w982047,l3jm8zvd9e,Nick_Dissertation_EX1,1,46,2020-04-06T07:53:03-07:00,2.2420201301575,2,versionA_stim.csv,READVersionB.csv,"Read Version B","Dissertation, read only version B",CACTUS,PLANT,Study2,F,98,122,Study,User,-,,Study/JOL,"Study Phase",1846,,,-1,-1,,,,1
w982047,l3jm8zvd9e,Nick_Dissertation_EX1,1,47,2020-04-06T07:53:05-07:00,2.561812877655,2,versionA_stim.csv,READVersionB.csv,"Read Version B","Dissertation, read only version B",LEASE,TOIL,Study2,U,170,171,Study,User,-,,Study/JOL,"Study Phase",2171,,,-1,-1,,,,1
w982047,l3jm8zvd9e,Nick_Dissertation_EX1,1,48,2020-04-06T07:53:08-07:00,2.6338970661163,2,versionA_stim.csv,READVersionB.csv,"Read Version B","Dissertation, read only version B",BIRD,PENGUIN,Study2,B,119,108,Study,User,-,,Study/JOL,"Study Phase",2242,,,-1,-1,,,,1
w982047,l3jm8zvd9e,Nick_Dissertation_EX1,1,49,2020-04-06T07:53:10-07:00,2.2674739360809,2,versionA_stim.csv,READVersionB.csv,"Read Version B","Dissertation, read only version B",TANTRUM,TEMPER,Study2,S,154,161,Study,User,-,,Study/JOL,"Study Phase",1862,,,-1,-1,,,,1
w982047,l3jm8zvd9e,Nick_Dissertation_EX1,1,50,2020-04-06T07:53:13-07:00,2.4465959072113,2,versionA_stim.csv,READVersionB.csv,"Read Version B","Dissertation, read only version B",Shell,SHAKE,Study2,U,163,149,Study,User,-,,Study/JOL,"Study Phase",2031,,,-1,-1,,,,1
w982047,l3jm8zvd9e,Nick_Dissertation_EX1,1,51,2020-04-06T07:53:15-07:00,2.0826921463013,2,versionA_stim.csv,READVersionB.csv,"Read Version B","Dissertation, read only version B",WRIST,BRACELET,Study2,S,140,105,Study,User,-,,Study/JOL,"Study Phase",1696,,,-1,-1,,,,1
w982047,l3jm8zvd9e,Nick_Dissertation_EX1,1,52,2020-04-06T07:53:16-07:00,1.6399898529053,2,versionA_stim.csv,READVersionB.csv,"Read Version B","Dissertation, read only version B",LISTEN,FICTION,Study2,U,164,153,Study,User,-,,Study/JOL,"Study Phase",1242,,,-1,-1,,,,1
w982047,l3jm8zvd9e,Nick_Dissertation_EX1,1,53,2020-04-06T07:53:19-07:00,2.3213400840759,2,versionA_stim.csv,READVersionB.csv,"Read Version B","Dissertation, read only version B",MIRROR,CHILDREN,Study2,U,174,133,Study,User,-,,Study/JOL,"Study Phase",1933,,,-1,-1,,,,1
w982047,l3jm8zvd9e,Nick_Dissertation_EX1,1,54,2020-04-06T07:53:21-07:00,2.4119031429291,2,versionA_stim.csv,READVersionB.csv,"Read Version B","Dissertation, read only version B",MEAT,OBTAIN,Study2,U,161,113,Study,User,-,,Study/JOL,"Study Phase",1994,,,-1,-1,,,,1
w982047,l3jm8zvd9e,Nick_Dissertation_EX1,1,55,2020-04-06T07:53:24-07:00,3.2460908889771,2,versionA_stim.csv,READVersionB.csv,"Read Version B","Dissertation, read only version B",CHILL,COLD,Study2,F,114,138,Study,User,-,,Study/JOL,"Study Phase",2840,,,-1,-1,,,,1
w982047,l3jm8zvd9e,Nick_Dissertation_EX1,1,56,2020-04-06T07:53:27-07:00,2.2644629478455,2,versionA_stim.csv,READVersionB.csv,"Read Version B","Dissertation, read only version B",STRETCH,CLOTH,Study2,U,157,151,Study,User,-,,Study/JOL,"Study Phase",1860,,,-1,-1,,,,1
w982047,l3jm8zvd9e,Nick_Dissertation_EX1,1,57,2020-04-06T07:53:28-07:00,1.6883540153503,2,versionA_stim.csv,READVersionB.csv,"Read Version B","Dissertation, read only version B",PHONE,COMMUNICATION,Study2,S,149,134,Study,User,-,,Study/JOL,"Study Phase",1295,,,-1,-1,,,,1
w982047,l3jm8zvd9e,Nick_Dissertation_EX1,1,58,2020-04-06T07:53:30-07:00,2.2339460849762,2,versionA_stim.csv,READVersionB.csv,"Read Version B","Dissertation, read only version B",NAME,HATE,Study2,U,167,114,Study,User,-,,Study/JOL,"Study Phase",1851,,,-1,-1,,,,1
w982047,l3jm8zvd9e,Nick_Dissertation_EX1,1,59,2020-04-06T07:53:32-07:00,1.6949608325958,2,versionA_stim.csv,READVersionB.csv,"Read Version B","Dissertation, read only version B",RAZOR,SHAVE,Study2,S,136,139,Study,User,-,,Study/JOL,"Study Phase",1303,,,-1,-1,,,,1
w982047,l3jm8zvd9e,Nick_Dissertation_EX1,1,60,2020-04-06T07:53:34-07:00,2.0375871658325,2,versionA_stim.csv,READVersionB.csv,"Read Version B","Dissertation, read only version B",DRIVER,CAR,Study2,F,106,129,Study,User,-,,Study/JOL,"Study Phase",1636,,,-1,-1,,,,1
w982047,l3jm8zvd9e,Nick_Dissertation_EX1,1,61,2020-04-06T07:53:37-07:00,2.4952900409698,2,versionA_stim.csv,READVersionB.csv,"Read Version B","Dissertation, read only version B",CHERRY,RED,Study2,F,104,117,Study,User,-,,Study/JOL,"Study Phase",2105,,,-1,-1,,,,1
w982047,l3jm8zvd9e,Nick_Dissertation_EX1,1,62,2020-04-06T07:53:39-07:00,2.320298910141,2,versionA_stim.csv,READVersionB.csv,"Read Version B","Dissertation, read only version B",CLUE,GAME,Study2,F,97,146,Study,User,-,,Study/JOL,"Study Phase",1901,,,-1,-1,,,,1
w982047,l3jm8zvd9e,Nick_Dissertation_EX1,1,63,2020-04-06T07:53:41-07:00,1.9755620956421,2,versionA_stim.csv,READVersionB.csv,"Read Version B","Dissertation, read only version B",BAD,VILLAIN,Study2,B,118,160,Study,User,-,,Study/JOL,"Study Phase",1561,,,-1,-1,,,,1
w982047,l3jm8zvd9e,Nick_Dissertation_EX1,1,64,2020-04-06T07:53:43-07:00,1.9523618221283,2,versionA_stim.csv,READVersionB.csv,"Read Version B","Dissertation, read only version B",GONE,AWAY,Study2,S,142,118,Study,User,-,,Study/JOL,"Study Phase",1513,,,-1,-1,,,,1
w982047,l3jm8zvd9e,Nick_Dissertation_EX1,1,65,2020-04-06T07:53:45-07:00,2.3297691345215,2,versionA_stim.csv,READVersionB.csv,"Read Version B","Dissertation, read only version B",SHEARS,SCISSORS,Study2,F,112,140,Study,User,-,,Study/JOL,"Study Phase",1760,,,-1,-1,,,,1
w982047,l3jm8zvd9e,Nick_Dissertation_EX1,1,66,2020-04-06T07:53:47-07:00,2.1118788719177,2,versionA_stim.csv,READVersionB.csv,"Read Version B","Dissertation, read only version B",EVEN,REVENGE,Study2,B,122,104,Study,User,-,,Study/JOL,"Study Phase",1711,,,-1,-1,,,,1
w982047,l3jm8zvd9e,Nick_Dissertation_EX1,1,67,2020-04-06T07:53:50-07:00,2.4415969848633,2,versionA_stim.csv,READVersionB.csv,"Read Version B","Dissertation, read only version B",FUZZY,BANG,Study2,U,168,145,Study,User,-,,Study/JOL,"Study Phase",2028,,,-1,-1,,,,1
w982047,l3jm8zvd9e,Nick_Dissertation_EX1,1,68,2020-04-06T07:53:52-07:00,1.9515609741211,2,versionA_stim.csv,READVersionB.csv,"Read Version B","Dissertation, read only version B",MONEY,BANKER,Study2,B,132,120,Study,User,-,,Study/JOL,"Study Phase",1561,,,-1,-1,,,,1
w982047,l3jm8zvd9e,Nick_Dissertation_EX1,1,69,2020-04-06T07:53:54-07:00,2.3646171092987,2,versionA_stim.csv,READVersionB.csv,"Read Version B","Dissertation, read only version B",CANDLE,WAX,Study2,S,139,148,Study,User,-,,Study/JOL,"Study Phase",1942,,,-1,-1,,,,1
w982047,l3jm8zvd9e,Nick_Dissertation_EX1,1,70,2020-04-06T07:53:56-07:00,2.2192389965057,2,versionA_stim.csv,READVersionB.csv,"Read Version B","Dissertation, read only version B",SCALP,HEAD,Study2,F,105,130,Study,User,-,,Study/JOL,"Study Phase",1756,,,-1,-1,,,,1
w982047,l3jm8zvd9e,Nick_Dissertation_EX1,1,71,2020-04-06T07:53:59-07:00,2.8276379108429,2,versionA_stim.csv,READVersionB.csv,"Read Version B","Dissertation, read only version B",TRUTH,LIE,Study2,S,148,116,Study,User,-,,Study/JOL,"Study Phase",2373,,,-1,-1,,,,1
w982047,l3jm8zvd9e,Nick_Dissertation_EX1,1,72,2020-04-06T07:54:02-07:00,2.4322600364685,2,versionA_stim.csv,READVersionB.csv,"Read Version B","Dissertation, read only version B",FLEA,TICK,Study2,S,151,103,Study,User,-,,Study/JOL,"Study Phase",1992,,,-1,-1,,,,1
w982047,l3jm8zvd9e,Nick_Dissertation_EX1,1,73,2020-04-06T07:54:04-07:00,2.6377940177917,2,versionA_stim.csv,READVersionB.csv,"Read Version B","Dissertation, read only version B",VEHICLE,CHARM,Study2,U,160,112,Study,User,-,,Study/JOL,"Study Phase",2239,,,-1,-1,,,,1
w982047,l3jm8zvd9e,Nick_Dissertation_EX1,1,74,2020-04-06T07:54:07-07:00,2.4250299930573,2,versionA_stim.csv,READVersionB.csv,"Read Version B","Dissertation, read only version B",WATER,DRINK,Study2,S,143,176,Study,User,-,,Study/JOL,"Study Phase",2031,,,-1,-1,,,,1
w982047,l3jm8zvd9e,Nick_Dissertation_EX1,1,75,2020-04-06T07:54:09-07:00,2.0279531478882,2,versionA_stim.csv,READVersionB.csv,"Read Version B","Dissertation, read only version B",INCENSE,SMELL,Study2,F,110,172,Study,User,-,,Study/JOL,"Study Phase",1615,,,-1,-1,,,,1
w982047,l3jm8zvd9e,Nick_Dissertation_EX1,1,76,2020-04-06T07:54:11-07:00,1.9934618473053,2,versionA_stim.csv,READVersionB.csv,"Read Version B","Dissertation, read only version B",POP,BALLOON,Study2,B,123,174,Study,User,-,,Study/JOL,"Study Phase",1620,,,-1,-1,,,,1
w982047,l3jm8zvd9e,Nick_Dissertation_EX1,1,77,2020-04-06T07:54:13-07:00,1.9596569538116,2,versionA_stim.csv,READVersionB.csv,"Read Version B","Dissertation, read only version B",LOUD,NOISE,Study2,S,152,110,Study,User,-,,Study/JOL,"Study Phase",1590,,,-1,-1,,,,1
w982047,l3jm8zvd9e,Nick_Dissertation_EX1,1,78,2020-04-06T07:54:15-07:00,2.7516710758209,2,versionA_stim.csv,READVersionB.csv,"Read Version B","Dissertation, read only version B",BASEBALL,LEAGUE,Study2,B,131,124,Study,User,-,,Study/JOL,"Study Phase",2378,,,-1,-1,,,,1
w982047,l3jm8zvd9e,Nick_Dissertation_EX1,1,79,2020-04-06T07:54:18-07:00,2.557186126709,2,versionA_stim.csv,READVersionB.csv,"Read Version B","Dissertation, read only version B",EXTENSION,LONG,Study2,F,96,102,Study,User,-,,Study/JOL,"Study Phase",2161,,,-1,-1,,,,1
w982047,l3jm8zvd9e,Nick_Dissertation_EX1,1,80,2020-04-06T07:54:21-07:00,2.7916889190674,2,versionA_stim.csv,READVersionB.csv,"Read Version B","Dissertation, read only version B",TURN,FLIP,Study2,B,116,150,Study,User,-,,Study/JOL,"Study Phase",2333,,,-1,-1,,,,1
w982047,l3jm8zvd9e,Nick_Dissertation_EX1,1,81,2020-04-06T07:54:24-07:00,2.7753109931946,2,versionA_stim.csv,READVersionB.csv,"Read Version B","Dissertation, read only version B",LITTER,TRASH,Study2,F,103,111,Study,User,-,,Study/JOL,"Study Phase",2017,,,-1,-1,,,,1
w982047,l3jm8zvd9e,Nick_Dissertation_EX1,1,82,2020-04-06T07:54:27-07:00,3.1677610874176,2,versionA_stim.csv,READVersionB.csv,"Read Version B","Dissertation, read only version B",KEYS,JOKE,Study2,U,165,162,Study,User,-,,Study/JOL,"Study Phase",2038,,,-1,-1,,,,1
w982047,l3jm8zvd9e,Nick_Dissertation_EX1,1,83,2020-04-06T07:54:28-07:00,1.4854309558868,2,versionA_stim.csv,READVersionB.csv,"Read Version B","Dissertation, read only version B",CRACKLE,ABLE,Study2,U,162,165,Study,User,-,,Study/JOL,"Study Phase",1079,,,-1,-1,,,,1
w982047,l3jm8zvd9e,Nick_Dissertation_EX1,1,84,2020-04-06T07:54:31-07:00,3.0831909179688,2,versionA_stim.csv,READVersionB.csv,"Read Version B","Dissertation, read only version B",MULE,DONKEY,Study2,F,108,126,Study,User,-,,Study/JOL,"Study Phase",2632,,,-1,-1,,,,1
w982047,l3jm8zvd9e,Nick_Dissertation_EX1,1,85,2020-04-06T07:54:34-07:00,2.2800879478455,2,versionA_stim.csv,READVersionB.csv,"Read Version B","Dissertation, read only version B",ELEMENT,CARBON,Study2,S,141,144,Study,User,-,,Study/JOL,"Study Phase",1876,,,-1,-1,,,,1
w982047,l3jm8zvd9e,Nick_Dissertation_EX1,1,86,2020-04-06T07:54:36-07:00,2.0850939750671,2,versionA_stim.csv,READVersionB.csv,"Read Version B","Dissertation, read only version B",SUN,TAN,Study2,S,155,137,Study,User,-,,Study/JOL,"Study Phase",1660,,,-1,-1,,,,1
w982047,l3jm8zvd9e,Nick_Dissertation_EX1,1,87,2020-04-06T07:54:37-07:00,1.4603450298309,2,versionA_stim.csv,READVersionB.csv,"Read Version B","Dissertation, read only version B",TOOL,SHED,BUFFER4,Buffer,178,181,Study,User,-,,Study/JOL,BUFFER2,1080,,,-1,-1,,,,1
w982047,l3jm8zvd9e,Nick_Dissertation_EX1,1,88,2020-04-06T07:54:39-07:00,2.0068981647491,2,versionA_stim.csv,READVersionB.csv,"Read Version B","Dissertation, read only version B",MONTH,YEAR,BUFFER4,Buffer,177,177,Study,User,-,,Study/JOL,BUFFER2,1626,,,-1,-1,,,,1
w982047,l3jm8zvd9e,Nick_Dissertation_EX1,1,89,2020-04-06T07:54:41-07:00,1.9363429546356,2,versionA_stim.csv,READVersionB.csv,"Read Version B","Dissertation, read only version B",OCTOBER,SPOOKY,BUFFER4,Buffer,180,178,Study,User,-,,Study/JOL,BUFFER2,1575,,,-1,-1,,,,1
w982047,l3jm8zvd9e,Nick_Dissertation_EX1,1,90,2020-04-06T07:54:43-07:00,2.313572883606,2,versionA_stim.csv,READVersionB.csv,"Read Version B","Dissertation, read only version B",SPRING,MARCH,BUFFER4,Buffer,179,179,Study,User,-,,Study/JOL,BUFFER2,1325,,,-1,-1,,,,1
w982047,l3jm8zvd9e,Nick_Dissertation_EX1,1,91,2020-04-06T07:54:47-07:00,4.1425499916077,2,versionA_stim.csv,READVersionB.csv,"Read Version B","Dissertation, read only version B",DAYS,WEAKS,BUFFER4,Buffer,176,180,Study,User,-,,Study/JOL,BUFFER2,3645,,,-1,-1,,,,1
w982047,l3jm8zvd9e,Nick_Dissertation_EX1,1,92,2020-04-06T07:54:50-07:00,2.7244651317596,2,versionA_stim.csv,READVersionB.csv,"Read Version B","Dissertation, read only version B",,,,,,0,Instruct,User,-,"You have completed this section. Please press Enter.",Filler_Instruction,Instruct2,2308,,,-1,-1,,,,1
w982047,l3jm8zvd9e,Nick_Dissertation_EX1,1,93,2020-04-06T07:56:51-07:00,120.95442605019,2,versionA_stim.csv,READVersionB.csv,"Read Version B","Dissertation, read only version B",,,,,,0,FreeRecall,120,120,"Please list the 50 US states in alphabetical order. The task will automatically advance to the next screen after two minutes.",,Filler1,120004,"Alabama, Alaska, California, Colorado, Connecticut, Delaware, Georgia, Hawaii, Idaho, Illinois, Indiana, Kansas, Louisiana, Maine, Missouri, Mississippi, New Jersey, New Mexico, Ohio, Pennsylvania, ",0,5181,119720,0,0,,1
w982047,l3jm8zvd9e,Nick_Dissertation_EX1,1,94,2020-04-06T07:57:05-07:00,13.782912969589,2,versionA_stim.csv,READVersionB.csv,"Read Version B","Dissertation, read only version B",,,,,,0,Instruct,-,10,"You will now be presented with the first word from each of the previously studied item pairs. Please type the missing word. If you do not know the word, you may guess or press Enter to skip forward to the next pair.",,Instruct3,13148,,,-1,-1,,,,1
w982047,l3jm8zvd9e,Nick_Dissertation_EX1,1,95,2020-04-06T07:57:12-07:00,6.859228849411,2,versionA_stim.csv,READVersionB.csv,"Read Version B","Dissertation, read only version B",ALONE,LONELY,Study2,S,145,106,Test,User,-,,Recall,Recall1,6287,LONELY,100,1779,3272,1,1,,1
w982047,l3jm8zvd9e,Nick_Dissertation_EX1,1,96,2020-04-06T07:57:16-07:00,4.6139709949493,2,versionA_stim.csv,READVersionB.csv,"Read Version B","Dissertation, read only version B",SAFETY,SEATBELT,Study2,S,147,125,Test,User,-,,Recall,Recall1,4148,SEATBELT,100,1428,2969,1,1,,1
w982047,l3jm8zvd9e,Nick_Dissertation_EX1,1,97,2020-04-06T07:57:21-07:00,4.5417811870575,2,versionA_stim.csv,READVersionB.csv,"Read Version B","Dissertation, read only version B",STRETCH,CLOTH,Study2,U,157,151,Test,User,-,,Recall,Recall1,4073,LEGS,22.222222222222,2422,2883,0,0,,1
w982047,l3jm8zvd9e,Nick_Dissertation_EX1,1,98,2020-04-06T07:57:24-07:00,3.5179619789124,2,versionA_stim.csv,READVersionB.csv,"Read Version B","Dissertation, read only version B",SLEEP,NAP,Study2,B,134,97,Test,User,-,,Recall,Recall1,3044,NAP,100,1430,1708,1,1,,1
w982047,l3jm8zvd9e,Nick_Dissertation_EX1,1,99,2020-04-06T07:57:28-07:00,3.3246018886566,2,versionA_stim.csv,READVersionB.csv,"Read Version B","Dissertation, read only version B",MAZE,ELECTION,Study2,U,159,100,Test,User,-,,Recall,Recall1,2872,ELECTION,100,1236,2291,1,1,,1
w982047,l3jm8zvd9e,Nick_Dissertation_EX1,1,100,2020-04-06T07:57:33-07:00,5.3920271396637,2,versionA_stim.csv,READVersionB.csv,"Read Version B","Dissertation, read only version B",WRIST,BRACELET,Study2,S,140,105,Test,User,-,,Recall,Recall1,4986,BRACELET,100,2013,3671,1,1,,1
w982047,l3jm8zvd9e,Nick_Dissertation_EX1,1,101,2020-04-06T07:57:37-07:00,3.6281018257141,2,versionA_stim.csv,READVersionB.csv,"Read Version B","Dissertation, read only version B",DETECTIVE,MYSTERY,Study2,F,100,128,Test,User,-,,Recall,Recall1,3179,,0,-1,-1,0,0,,1
w982047,l3jm8zvd9e,Nick_Dissertation_EX1,1,102,2020-04-06T07:57:43-07:00,6.6392140388489,2,versionA_stim.csv,READVersionB.csv,"Read Version B","Dissertation, read only version B",EVEN,REVENGE,Study2,B,122,104,Test,User,-,,Recall,Recall1,6192,REVENGE,100,3541,5128,1,1,,1
w982047,l3jm8zvd9e,Nick_Dissertation_EX1,1,103,2020-04-06T07:57:49-07:00,5.93279504776,2,versionA_stim.csv,READVersionB.csv,"Read Version B","Dissertation, read only version B",MIRROR,CHILDREN,Study2,U,174,133,Test,User,-,,Recall,Recall1,5477,CHILDREN,100,2521,3612,1,1,,1
w982047,l3jm8zvd9e,Nick_Dissertation_EX1,1,104,2020-04-06T07:57:52-07:00,2.5725750923157,2,versionA_stim.csv,READVersionB.csv,"Read Version B","Dissertation, read only version B",CACTUS,PLANT,Study2,F,98,122,Test,User,-,,Recall,Recall1,2119,PLANT,100,1068,1541,1,1,,1
w982047,l3jm8zvd9e,Nick_Dissertation_EX1,1,105,2020-04-06T07:57:55-07:00,3.0889499187469,2,versionA_stim.csv,READVersionB.csv,"Read Version B","Dissertation, read only version B",JUSTICE,MAROON,Study2,U,156,141,Test,User,-,,Recall,Recall1,2670,,0,-1,-1,0,0,,1
w982047,l3jm8zvd9e,Nick_Dissertation_EX1,1,106,2020-04-06T07:57:58-07:00,2.9400730133057,2,versionA_stim.csv,READVersionB.csv,"Read Version B","Dissertation, read only version B",OWN,HAVE,Study2,S,153,155,Test,User,-,,Recall,Recall1,2533,,0,-1,-1,0,0,,1
w982047,l3jm8zvd9e,Nick_Dissertation_EX1,1,107,2020-04-06T07:58:03-07:00,4.8952469825745,2,versionA_stim.csv,READVersionB.csv,"Read Version B","Dissertation, read only version B",FEUD,FIGHT,Study2,F,113,143,Test,User,-,,Recall,Recall1,4273,FIGHT,100,1806,2324,1,1,,1
w982047,l3jm8zvd9e,Nick_Dissertation_EX1,1,108,2020-04-06T07:58:07-07:00,3.6838510036469,2,versionA_stim.csv,READVersionB.csv,"Read Version B","Dissertation, read only version B",DINE,EAT,Study2,F,111,173,Test,User,-,,Recall,Recall1,3218,EAT,100,1105,1385,1,1,,1
w982047,l3jm8zvd9e,Nick_Dissertation_EX1,1,109,2020-04-06T07:58:11-07:00,4.080659866333,2,versionA_stim.csv,READVersionB.csv,"Read Version B","Dissertation, read only version B",RAZOR,SHAVE,Study2,S,136,139,Test,User,-,,Recall,Recall1,3621,SHAVE,100,1336,2041,1,1,,1
w982047,l3jm8zvd9e,Nick_Dissertation_EX1,1,110,2020-04-06T07:58:15-07:00,4.8145070075989,2,versionA_stim.csv,READVersionB.csv,"Read Version B","Dissertation, read only version B",THREAD,THIMBLE,Study2,B,121,167,Test,User,-,,Recall,Recall1,4325,NEEDLE,30.769230769231,1735,2532,0,0,,1
w982047,l3jm8zvd9e,Nick_Dissertation_EX1,1,111,2020-04-06T07:58:21-07:00,5.967010974884,2,versionA_stim.csv,READVersionB.csv,"Read Version B","Dissertation, read only version B",MOAT,CLEAR,Study2,U,169,169,Test,User,-,,Recall,Recall1,5510,BOAT,22.222222222222,2453,3343,0,0,,1
w982047,l3jm8zvd9e,Nick_Dissertation_EX1,1,112,2020-04-06T07:58:24-07:00,2.24675822258,2,versionA_stim.csv,READVersionB.csv,"Read Version B","Dissertation, read only version B",PHONE,COMMUNICATION,Study2,S,149,134,Test,User,-,,Recall,Recall1,1760,,0,-1,-1,0,0,,1
w982047,l3jm8zvd9e,Nick_Dissertation_EX1,1,113,2020-04-06T07:58:28-07:00,4.5582349300385,2,versionA_stim.csv,READVersionB.csv,"Read Version B","Dissertation, read only version B",CAKE,CLOTHES,Study2,U,166,123,Test,User,-,,Recall,Recall1,4069,CLOTHES,100,1007,2807,1,1,,1
w982047,l3jm8zvd9e,Nick_Dissertation_EX1,1,114,2020-04-06T07:58:35-07:00,6.5782868862152,2,versionA_stim.csv,READVersionB.csv,"Read Version B","Dissertation, read only version B",TRUTH,LIE,Study2,S,148,116,Test,User,-,,Recall,Recall1,6106,HONESTY,20,2382,4766,0,0,,1
w982047,l3jm8zvd9e,Nick_Dissertation_EX1,1,115,2020-04-06T07:58:47-07:00,11.892415046692,2,versionA_stim.csv,READVersionB.csv,"Read Version B","Dissertation, read only version B",GIVE,STEAK,Study2,U,158,132,Test,User,-,,Recall,Recall1,11416,,0,-1,-1,0,0,,1
w982047,l3jm8zvd9e,Nick_Dissertation_EX1,1,116,2020-04-06T07:58:48-07:00,1.7290060520172,2,versionA_stim.csv,READVersionB.csv,"Read Version B","Dissertation, read only version B",LOAN,SIGN,Study2,U,171,168,Test,User,-,,Recall,Recall1,1193,,0,-1,-1,0,0,,1
w982047,l3jm8zvd9e,Nick_Dissertation_EX1,1,117,2020-04-06T07:58:53-07:00,4.5030779838562,2,versionA_stim.csv,READVersionB.csv,"Read Version B","Dissertation, read only version B",SHEARS,SCISSORS,Study2,F,112,140,Test,User,-,,Recall,Recall1,4087,SCISSORS,100,1277,2970,1,1,,1
w982047,l3jm8zvd9e,Nick_Dissertation_EX1,1,118,2020-04-06T07:58:58-07:00,4.6040270328522,2,versionA_stim.csv,READVersionB.csv,"Read Version B","Dissertation, read only version B",PLANE,AIRCRAFT,Study2,B,129,101,Test,User,-,,Recall,Recall1,4165,AIRCRAFT,100,1201,2559,1,1,,1
w982047,l3jm8zvd9e,Nick_Dissertation_EX1,1,119,2020-04-06T07:59:01-07:00,3.4380888938904,2,versionA_stim.csv,READVersionB.csv,"Read Version B","Dissertation, read only version B",INCENSE,SMELL,Study2,F,110,172,Test,User,-,,Recall,Recall1,3019,SMELL,100,1062,1651,1,1,,1
w982047,l3jm8zvd9e,Nick_Dissertation_EX1,1,120,2020-04-06T07:59:05-07:00,3.569267988205,2,versionA_stim.csv,READVersionB.csv,"Read Version B","Dissertation, read only version B",KEYS,JOKE,Study2,U,165,162,Test,User,-,,Recall,Recall1,3137,,0,-1,-1,0,0,,1
w982047,l3jm8zvd9e,Nick_Dissertation_EX1,1,121,2020-04-06T07:59:06-07:00,1.4200789928436,2,versionA_stim.csv,READVersionB.csv,"Read Version B","Dissertation, read only version B",BIRD,PENGUIN,Study2,B,119,108,Test,User,-,,Recall,Recall1,1032,,0,-1,-1,0,0,,1
w982047,l3jm8zvd9e,Nick_Dissertation_EX1,1,122,2020-04-06T07:59:10-07:00,4.0444049835205,2,versionA_stim.csv,READVersionB.csv,"Read Version B","Dissertation, read only version B",NAME,HATE,Study2,U,167,114,Test,User,-,,Recall,Recall1,3664,HATE,100,1403,1849,1,1,,1
w982047,l3jm8zvd9e,Nick_Dissertation_EX1,1,123,2020-04-06T07:59:14-07:00,3.6158220767975,2,versionA_stim.csv,READVersionB.csv,"Read Version B","Dissertation, read only version B",CHOP,CUT,Study2,F,107,136,Test,User,-,,Recall,Recall1,3205,,0,-1,-1,0,0,,1
w982047,l3jm8zvd9e,Nick_Dissertation_EX1,1,124,2020-04-06T07:59:17-07:00,3.6962110996246,2,versionA_stim.csv,READVersionB.csv,"Read Version B","Dissertation, read only version B",CAR,WINDSHIELD,Study2,B,117,170,Test,User,-,,Recall,Recall1,3298,,0,-1,-1,0,0,,1
w982047,l3jm8zvd9e,Nick_Dissertation_EX1,1,125,2020-04-06T07:59:23-07:00,5.3500499725342,2,versionA_stim.csv,READVersionB.csv,"Read Version B","Dissertation, read only version B",ROD,REEL,Study2,S,150,119,Test,User,-,,Recall,Recall1,4941,REEL,100,2892,3393,1,1,,1
w982047,l3jm8zvd9e,Nick_Dissertation_EX1,1,126,2020-04-06T07:59:27-07:00,3.8352239131927,2,versionA_stim.csv,READVersionB.csv,"Read Version B","Dissertation, read only version B",WATER,DRINK,Study2,S,143,176,Test,User,-,,Recall,Recall1,3412,,0,-1,-1,0,0,,1
w982047,l3jm8zvd9e,Nick_Dissertation_EX1,1,127,2020-04-06T07:59:35-07:00,8.3648190498352,2,versionA_stim.csv,READVersionB.csv,"Read Version B","Dissertation, read only version B",FISH,SARDINE,Study2,B,130,159,Test,User,-,,Recall,Recall1,7911,SARDINES,93.333333333333,3093,6739,0,1,,1
w982047,l3jm8zvd9e,Nick_Dissertation_EX1,1,128,2020-04-06T07:59:36-07:00,1.484354019165,2,versionA_stim.csv,READVersionB.csv,"Read Version B","Dissertation, read only version B",DRIVER,CAR,Study2,F,106,129,Test,User,-,,Recall,Recall1,1023,,0,-1,-1,0,0,,1
w982047,l3jm8zvd9e,Nick_Dissertation_EX1,1,129,2020-04-06T07:59:40-07:00,3.4543550014496,2,versionA_stim.csv,READVersionB.csv,"Read Version B","Dissertation, read only version B",CLUE,GAME,Study2,F,97,146,Test,User,-,,Recall,Recall1,3049,GAME,100,1242,1720,1,1,,1
w982047,l3jm8zvd9e,Nick_Dissertation_EX1,1,130,2020-04-06T07:59:44-07:00,4.4031050205231,2,versionA_stim.csv,READVersionB.csv,"Read Version B","Dissertation, read only version B",SUN,TAN,Study2,S,155,137,Test,User,-,,Recall,Recall1,2966,TAN,100,1281,1679,1,1,,1
w982047,l3jm8zvd9e,Nick_Dissertation_EX1,1,131,2020-04-06T07:59:46-07:00,1.5293688774109,2,versionA_stim.csv,READVersionB.csv,"Read Version B","Dissertation, read only version B",CAT,PANTHER,Study2,B,126,154,Test,User,-,,Recall,Recall1,1096,,0,-1,-1,0,0,,1
w982047,l3jm8zvd9e,Nick_Dissertation_EX1,1,132,2020-04-06T07:59:48-07:00,2.0998551845551,2,versionA_stim.csv,READVersionB.csv,"Read Version B","Dissertation, read only version B",EXTENSION,LONG,Study2,F,96,102,Test,User,-,,Recall,Recall1,1716,,0,-1,-1,0,0,,1
w982047,l3jm8zvd9e,Nick_Dissertation_EX1,1,133,2020-04-06T07:59:51-07:00,3.423907995224,2,versionA_stim.csv,READVersionB.csv,"Read Version B","Dissertation, read only version B",LOUD,NOISE,Study2,S,152,110,Test,User,-,,Recall,Recall1,3010,NOISE,100,1107,1785,1,1,,1
w982047,l3jm8zvd9e,Nick_Dissertation_EX1,1,134,2020-04-06T07:59:53-07:00,1.8170919418335,2,versionA_stim.csv,READVersionB.csv,"Read Version B","Dissertation, read only version B",LISTEN,FICTION,Study2,U,164,153,Test,User,-,,Recall,Recall1,1338,,0,-1,-1,0,0,,1
w982047,l3jm8zvd9e,Nick_Dissertation_EX1,1,135,2020-04-06T07:59:58-07:00,4.931361913681,2,versionA_stim.csv,READVersionB.csv,"Read Version B","Dissertation, read only version B",ADJOURN,END,Study2,F,101,164,Test,User,-,,Recall,Recall1,3507,END,100,1434,1687,1,1,,1
w982047,l3jm8zvd9e,Nick_Dissertation_EX1,1,136,2020-04-06T08:00:02-07:00,3.8822939395905,2,versionA_stim.csv,READVersionB.csv,"Read Version B","Dissertation, read only version B",SCALP,HEAD,Study2,F,105,130,Test,User,-,,Recall,Recall1,3298,HEAD,100,1113,1557,1,1,,1
w982047,l3jm8zvd9e,Nick_Dissertation_EX1,1,137,2020-04-06T08:00:10-07:00,8.2513830661774,2,versionA_stim.csv,READVersionB.csv,"Read Version B","Dissertation, read only version B",GLASS,BREAKABLE,Study2,B,127,163,Test,User,-,,Recall,Recall1,7818,BREAKABLE,100,2030,5840,1,1,,1
w982047,l3jm8zvd9e,Nick_Dissertation_EX1,1,138,2020-04-06T08:00:14-07:00,3.7272260189056,2,versionA_stim.csv,READVersionB.csv,"Read Version B","Dissertation, read only version B",SHOELACE,TIE,Study2,F,99,166,Test,User,-,,Recall,Recall1,3251,TIE,100,1355,1846,1,1,,1
w982047,l3jm8zvd9e,Nick_Dissertation_EX1,1,139,2020-04-06T08:00:16-07:00,1.6228470802307,2,versionA_stim.csv,READVersionB.csv,"Read Version B","Dissertation, read only version B",DEAD,COFFIN,Study2,B,128,158,Test,User,-,,Recall,Recall1,1066,,0,-1,-1,0,0,,1
w982047,l3jm8zvd9e,Nick_Dissertation_EX1,1,140,2020-04-06T08:00:21-07:00,5.205766916275,2,versionA_stim.csv,READVersionB.csv,"Read Version B","Dissertation, read only version B",DRY,WET,Study2,S,146,152,Test,User,-,,Recall,Recall1,4793,WET,100,1954,2368,1,1,,1
w982047,l3jm8zvd9e,Nick_Dissertation_EX1,1,141,2020-04-06T08:00:22-07:00,1.450679063797,2,versionA_stim.csv,READVersionB.csv,"Read Version B","Dissertation, read only version B",VEHICLE,CHARM,Study2,U,160,112,Test,User,-,,Recall,Recall1,996,,0,-1,-1,0,0,,1
w982047,l3jm8zvd9e,Nick_Dissertation_EX1,1,142,2020-04-06T08:00:26-07:00,3.8224458694458,2,versionA_stim.csv,READVersionB.csv,"Read Version B","Dissertation, read only version B",FIGHT,BRAWL,Study2,B,135,147,Test,User,-,,Recall,Recall1,3409,FEUD,0,1348,1934,0,0,,1
w982047,l3jm8zvd9e,Nick_Dissertation_EX1,1,143,2020-04-06T08:00:28-07:00,1.5628221035004,2,versionA_stim.csv,READVersionB.csv,"Read Version B","Dissertation, read only version B",EARTH,GROUND,Study2,S,144,131,Test,User,-,,Recall,Recall1,1117,,0,-1,-1,0,0,,1
w982047,l3jm8zvd9e,Nick_Dissertation_EX1,1,144,2020-04-06T08:00:33-07:00,5.2936339378357,2,versionA_stim.csv,READVersionB.csv,"Read Version B","Dissertation, read only version B",LITTER,TRASH,Study2,F,103,111,Test,User,-,,Recall,Recall1,4898,KITTEN,18.181818181818,2027,2814,0,0,,1
w982047,l3jm8zvd9e,Nick_Dissertation_EX1,1,145,2020-04-06T08:00:35-07:00,2.5097019672394,2,versionA_stim.csv,READVersionB.csv,"Read Version B","Dissertation, read only version B",BOTH,OUNCE,Study2,U,172,115,Test,User,-,,Recall,Recall1,1071,,0,-1,-1,0,0,,1
w982047,l3jm8zvd9e,Nick_Dissertation_EX1,1,146,2020-04-06T08:00:39-07:00,3.4009909629822,2,versionA_stim.csv,READVersionB.csv,"Read Version B","Dissertation, read only version B",GONE,AWAY,Study2,S,142,118,Test,User,-,,Recall,Recall1,3004,,0,-1,-1,0,0,,1
w982047,l3jm8zvd9e,Nick_Dissertation_EX1,1,147,2020-04-06T08:00:45-07:00,5.7980341911316,2,versionA_stim.csv,READVersionB.csv,"Read Version B","Dissertation, read only version B",HONEST,TRUTHFUL,Study2,B,133,107,Test,User,-,,Recall,Recall1,5374,TRUTHFUL,100,1848,3256,1,1,,1
w982047,l3jm8zvd9e,Nick_Dissertation_EX1,1,148,2020-04-06T08:00:53-07:00,8.7580089569092,2,versionA_stim.csv,READVersionB.csv,"Read Version B","Dissertation, read only version B",CANDLE,WAX,Study2,S,139,148,Test,User,-,,Recall,Recall1,8302,WAX,100,2167,6626,1,1,,1
w982047,l3jm8zvd9e,Nick_Dissertation_EX1,1,149,2020-04-06T08:00:55-07:00,1.4236419200897,2,versionA_stim.csv,READVersionB.csv,"Read Version B","Dissertation, read only version B",LEASE,TOIL,Study2,U,170,171,Test,User,-,,Recall,Recall1,977,,0,-1,-1,0,0,,1
w982047,l3jm8zvd9e,Nick_Dissertation_EX1,1,150,2020-04-06T08:01:00-07:00,5.3052489757538,2,versionA_stim.csv,READVersionB.csv,"Read Version B","Dissertation, read only version B",FRUIT,STRAWBERRY,Study2,B,124,121,Test,User,-,,Recall,Recall1,4908,STRAWBERRY,100,1336,2921,1,1,,1
w982047,l3jm8zvd9e,Nick_Dissertation_EX1,1,151,2020-04-06T08:01:02-07:00,1.470890045166,2,versionA_stim.csv,READVersionB.csv,"Read Version B","Dissertation, read only version B",BEST,FAVORITE,Study2,B,125,142,Test,User,-,,Recall,Recall1,909,,0,-1,-1,0,0,,1
w982047,l3jm8zvd9e,Nick_Dissertation_EX1,1,152,2020-04-06T08:01:07-07:00,5.2190449237823,2,versionA_stim.csv,READVersionB.csv,"Read Version B","Dissertation, read only version B",POP,BALLOON,Study2,B,123,174,Test,User,-,,Recall,Recall1,4824,,0,-1,-1,0,0,,1
w982047,l3jm8zvd9e,Nick_Dissertation_EX1,1,153,2020-04-06T08:01:08-07:00,1.2916531562805,2,versionA_stim.csv,READVersionB.csv,"Read Version B","Dissertation, read only version B",TURN,FLIP,Study2,B,116,150,Test,User,-,,Recall,Recall1,881,,0,-1,-1,0,0,,1
w982047,l3jm8zvd9e,Nick_Dissertation_EX1,1,154,2020-04-06T08:01:12-07:00,4.0615818500519,2,versionA_stim.csv,READVersionB.csv,"Read Version B","Dissertation, read only version B",FLEA,TICK,Study2,S,151,103,Test,User,-,,Recall,Recall1,3644,TICK,100,976,1455,1,1,,1
w982047,l3jm8zvd9e,Nick_Dissertation_EX1,1,155,2020-04-06T08:01:14-07:00,1.5078370571136,2,versionA_stim.csv,READVersionB.csv,"Read Version B","Dissertation, read only version B",FUZZY,BANG,Study2,U,168,145,Test,User,-,,Recall,Recall1,1060,,0,-1,-1,0,0,,1
w982047,l3jm8zvd9e,Nick_Dissertation_EX1,1,156,2020-04-06T08:01:15-07:00,1.4070661067963,2,versionA_stim.csv,READVersionB.csv,"Read Version B","Dissertation, read only version B",ELEMENT,CARBON,Study2,S,141,144,Test,User,-,,Recall,Recall1,1002,,0,-1,-1,0,0,,1
w982047,l3jm8zvd9e,Nick_Dissertation_EX1,1,157,2020-04-06T08:01:18-07:00,3.4351830482483,2,versionA_stim.csv,READVersionB.csv,"Read Version B","Dissertation, read only version B",CHERRY,RED,Study2,F,104,117,Test,User,-,,Recall,Recall1,3025,RED,100,1317,1649,1,1,,1
w982047,l3jm8zvd9e,Nick_Dissertation_EX1,1,158,2020-04-06T08:01:24-07:00,5.539871931076,2,versionA_stim.csv,READVersionB.csv,"Read Version B","Dissertation, read only version B",Shell,SHAKE,Study2,U,163,149,Test,User,-,,Recall,Recall1,5090,,0,-1,-1,0,0,,1
w982047,l3jm8zvd9e,Nick_Dissertation_EX1,1,159,2020-04-06T08:01:25-07:00,1.451287984848,2,versionA_stim.csv,READVersionB.csv,"Read Version B","Dissertation, read only version B",FURRY,DOG,Study2,F,102,157,Test,User,-,,Recall,Recall1,974,,0,-1,-1,0,0,,1
w982047,l3jm8zvd9e,Nick_Dissertation_EX1,1,160,2020-04-06T08:01:34-07:00,9.0629868507385,2,versionA_stim.csv,READVersionB.csv,"Read Version B","Dissertation, read only version B",MEAT,OBTAIN,Study2,U,161,113,Test,User,-,,Recall,Recall1,8611,OBTAIN,100,2247,7450,1,1,,1
w982047,l3jm8zvd9e,Nick_Dissertation_EX1,1,161,2020-04-06T08:01:36-07:00,1.5831270217896,2,versionA_stim.csv,READVersionB.csv,"Read Version B","Dissertation, read only version B",CRACKLE,ABLE,Study2,U,162,165,Test,User,-,,Recall,Recall1,1117,,0,-1,-1,0,0,,1
w982047,l3jm8zvd9e,Nick_Dissertation_EX1,1,162,2020-04-06T08:01:37-07:00,1.3841991424561,2,versionA_stim.csv,READVersionB.csv,"Read Version B","Dissertation, read only version B",MULE,DONKEY,Study2,F,108,126,Test,User,-,,Recall,Recall1,984,,0,-1,-1,0,0,,1
w982047,l3jm8zvd9e,Nick_Dissertation_EX1,1,163,2020-04-06T08:01:41-07:00,3.3203420639038,2,versionA_stim.csv,READVersionB.csv,"Read Version B","Dissertation, read only version B",MASON,JAR,Study2,S,138,127,Test,User,-,,Recall,Recall1,2914,JAR,100,1091,1369,1,1,,1
w982047,l3jm8zvd9e,Nick_Dissertation_EX1,1,164,2020-04-06T08:01:44-07:00,3.3956289291382,2,versionA_stim.csv,READVersionB.csv,"Read Version B","Dissertation, read only version B",AFFECTION,LOVE,Study2,F,115,135,Test,User,-,,Recall,Recall1,2922,LOVE,100,1304,1746,1,1,,1
w982047,l3jm8zvd9e,Nick_Dissertation_EX1,1,165,2020-04-06T08:01:48-07:00,3.8620760440826,2,versionA_stim.csv,READVersionB.csv,"Read Version B","Dissertation, read only version B",TANTRUM,TEMPER,Study2,S,154,161,Test,User,-,,Recall,Recall1,3403,TEMPER,100,1217,1898,1,1,,1
w982047,l3jm8zvd9e,Nick_Dissertation_EX1,1,166,2020-04-06T08:01:49-07:00,1.3695359230042,2,versionA_stim.csv,READVersionB.csv,"Read Version B","Dissertation, read only version B",STAR,ACTRESS,Study2,B,120,156,Test,User,-,,Recall,Recall1,946,,0,-1,-1,0,0,,1
w982047,l3jm8zvd9e,Nick_Dissertation_EX1,1,167,2020-04-06T08:01:54-07:00,4.7247409820557,2,versionA_stim.csv,READVersionB.csv,"Read Version B","Dissertation, read only version B",BASEBALL,LEAGUE,Study2,B,131,124,Test,User,-,,Recall,Recall1,4332,GLOVE,36.363636363636,2321,3106,0,0,,1
w982047,l3jm8zvd9e,Nick_Dissertation_EX1,1,168,2020-04-06T08:01:58-07:00,3.5782070159912,2,versionA_stim.csv,READVersionB.csv,"Read Version B","Dissertation, read only version B",TEMPERATURE,Morning,Study2,U,173,109,Test,User,-,,Recall,Recall1,3120,MORNING,100,1166,1918,1,1,,1
w982047,l3jm8zvd9e,Nick_Dissertation_EX1,1,169,2020-04-06T08:01:59-07:00,1.6061959266663,2,versionA_stim.csv,READVersionB.csv,"Read Version B","Dissertation, read only version B",CHILL,COLD,Study2,F,114,138,Test,User,-,,Recall,Recall1,1200,,0,-1,-1,0,0,,1
w982047,l3jm8zvd9e,Nick_Dissertation_EX1,1,170,2020-04-06T08:02:01-07:00,1.2133531570435,2,versionA_stim.csv,READVersionB.csv,"Read Version B","Dissertation, read only version B",DOCUMENT,PAPER,Study2,F,109,175,Test,User,-,,Recall,Recall1,835,,0,-1,-1,0,0,,1
w982047,l3jm8zvd9e,Nick_Dissertation_EX1,1,171,2020-04-06T08:02:06-07:00,5.2521989345551,2,versionA_stim.csv,READVersionB.csv,"Read Version B","Dissertation, read only version B",BAD,VILLAIN,Study2,B,118,160,Test,User,-,,Recall,Recall1,4859,GOOD,0,3195,3648,0,0,,1
w982047,l3jm8zvd9e,Nick_Dissertation_EX1,1,172,2020-04-06T08:02:07-07:00,1.7141509056091,2,versionA_stim.csv,READVersionB.csv,"Read Version B","Dissertation, read only version B",MAIN,SCAR,Study2,U,175,98,Test,User,-,,Recall,Recall1,929,,0,-1,-1,0,0,,1
w982047,l3jm8zvd9e,Nick_Dissertation_EX1,1,173,2020-04-06T08:02:09-07:00,1.3800570964813,2,versionA_stim.csv,READVersionB.csv,"Read Version B","Dissertation, read only version B",RIGHTS,EQUAL,Study2,S,137,99,Test,User,-,,Recall,Recall1,966,,0,-1,-1,0,0,,1
w982047,l3jm8zvd9e,Nick_Dissertation_EX1,1,174,2020-04-06T08:02:12-07:00,3.1929218769073,2,versionA_stim.csv,READVersionB.csv,"Read Version B","Dissertation, read only version B",MONEY,BANKER,Study2,B,132,120,Test,User,-,,Recall,Recall1,2745,,0,-1,-1,0,0,,1
w982047,l3jm8zvd9e,Nick_Dissertation_EX1,1,175,2020-04-06T08:02:26-07:00,13.895755052567,2,versionA_stim.csv,READVersionB.csv,"Read Version B","Dissertation, read only version B",,,,,,0,Instruct,-,10,"You will now be presented with a new set of word pairs. Please study each pair. Remember that your memory will be tested! When finished, press Enter to move to the next pair.",Initial_Instruct,Instruct4,13421,,,-1,-1,,,,1
w982047,l3jm8zvd9e,Nick_Dissertation_EX1,1,176,2020-04-06T08:02:28-07:00,1.9626841545105,2,versionA_stim.csv,READVersionB.csv,"Read Version B","Dissertation, read only version B",PEANUT,BUTTER,BUFFER1,Buffer,3,2,Study,User,-,,Study/JOL,BUFFER3,1484,,,-1,-1,,,,1
w982047,l3jm8zvd9e,Nick_Dissertation_EX1,1,177,2020-04-06T08:02:29-07:00,1.4194729328156,2,versionA_stim.csv,READVersionB.csv,"Read Version B","Dissertation, read only version B",SPACE,JAM,BUFFER1,Buffer,5,3,Study,User,-,,Study/JOL,BUFFER3,1031,,,-1,-1,,,,1
w982047,l3jm8zvd9e,Nick_Dissertation_EX1,1,178,2020-04-06T08:02:31-07:00,1.8853569030762,2,versionA_stim.csv,READVersionB.csv,"Read Version B","Dissertation, read only version B",SCARE,HIDE,BUFFER1,Buffer,4,4,Study,User,-,,Study/JOL,BUFFER3,1485,,,-1,-1,,,,1
w982047,l3jm8zvd9e,Nick_Dissertation_EX1,1,179,2020-04-06T08:02:33-07:00,1.8351111412048,2,versionA_stim.csv,READVersionB.csv,"Read Version B","Dissertation, read only version B",BASEBALL,CATCHER,BUFFER1,Buffer,2,6,Study,User,-,,Study/JOL,BUFFER3,1465,,,-1,-1,,,,1
w982047,l3jm8zvd9e,Nick_Dissertation_EX1,1,180,2020-04-06T08:02:35-07:00,1.8486018180847,2,versionA_stim.csv,READVersionB.csv,"Read Version B","Dissertation, read only version B",TREES,GREEN,BUFFER1,Buffer,1,5,Study,User,-,,Study/JOL,BUFFER3,1455,,,-1,-1,,,,1
w982047,l3jm8zvd9e,Nick_Dissertation_EX1,1,181,2020-04-06T08:02:37-07:00,2.0879740715027,2,versionA_stim.csv,READVersionB.csv,"Read Version B","Dissertation, read only version B",HIDE,SICK,Study1,U,84,48,Study,User,-,,Study/JOL,"Study Phase2",1719,,,-1,-1,,,,1
w982047,l3jm8zvd9e,Nick_Dissertation_EX1,1,182,2020-04-06T08:02:39-07:00,2.0254240036011,2,versionA_stim.csv,READVersionB.csv,"Read Version B","Dissertation, read only version B",DISCOVER,FLOOR,Study1,U,71,7,Study,User,-,,Study/JOL,"Study Phase2",1579,,,-1,-1,,,,1
w982047,l3jm8zvd9e,Nick_Dissertation_EX1,1,183,2020-04-06T08:02:41-07:00,2.1978130340576,2,versionA_stim.csv,READVersionB.csv,"Read Version B","Dissertation, read only version B",SWAN,BIRD,Study1,F,14,38,Study,User,-,,Study/JOL,"Study Phase2",1790,,,-1,-1,,,,1
w982047,l3jm8zvd9e,Nick_Dissertation_EX1,1,184,2020-04-06T08:02:43-07:00,1.9159059524536,2,versionA_stim.csv,READVersionB.csv,"Read Version B","Dissertation, read only version B",BLOW,WIND,Study1,S,55,70,Study,User,-,,Study/JOL,"Study Phase2",1496,,,-1,-1,,,,1
w982047,l3jm8zvd9e,Nick_Dissertation_EX1,1,185,2020-04-06T08:02:45-07:00,1.5516290664673,2,versionA_stim.csv,READVersionB.csv,"Read Version B","Dissertation, read only version B",BALL,RACKET,Study1,B,38,19,Study,User,-,,Study/JOL,"Study Phase2",1154,,,-1,-1,,,,1
w982047,l3jm8zvd9e,Nick_Dissertation_EX1,1,186,2020-04-06T08:02:46-07:00,1.558935880661,2,versionA_stim.csv,READVersionB.csv,"Read Version B","Dissertation, read only version B",TRIAL,JURY,Study1,S,50,52,Study,User,-,,Study/JOL,"Study Phase2",1167,,,-1,-1,,,,1
w982047,l3jm8zvd9e,Nick_Dissertation_EX1,1,187,2020-04-06T08:02:48-07:00,1.5543291568756,2,versionA_stim.csv,READVersionB.csv,"Read Version B","Dissertation, read only version B",GEOLOGY,ROCK,Study1,F,19,58,Study,User,-,,Study/JOL,"Study Phase2",1070,,,-1,-1,,,,1
w982047,l3jm8zvd9e,Nick_Dissertation_EX1,1,188,2020-04-06T08:02:50-07:00,1.8010919094086,2,versionA_stim.csv,READVersionB.csv,"Read Version B","Dissertation, read only version B",STRONG,ACCIDENT,Study1,U,80,81,Study,User,-,,Study/JOL,"Study Phase2",1394,,,-1,-1,,,,1
w982047,l3jm8zvd9e,Nick_Dissertation_EX1,1,189,2020-04-06T08:02:52-07:00,1.9507551193237,2,versionA_stim.csv,READVersionB.csv,"Read Version B","Dissertation, read only version B",PUSHER,CLUTTER,Study1,U,66,46,Study,User,-,,Study/JOL,"Study Phase2",1573,,,-1,-1,,,,1
w982047,l3jm8zvd9e,Nick_Dissertation_EX1,1,190,2020-04-06T08:02:54-07:00,2.287446975708,2,versionA_stim.csv,READVersionB.csv,"Read Version B","Dissertation, read only version B",ARTERY,BRONZE,Study1,U,74,33,Study,User,-,,Study/JOL,"Study Phase2",1839,,,-1,-1,,,,1
w982047,l3jm8zvd9e,Nick_Dissertation_EX1,1,191,2020-04-06T08:02:56-07:00,2.1799659729004,2,versionA_stim.csv,READVersionB.csv,"Read Version B","Dissertation, read only version B",EDITOR,NEWS,Study1,F,10,54,Study,User,-,,Study/JOL,"Study Phase2",768,,,-1,-1,,,,1
w982047,l3jm8zvd9e,Nick_Dissertation_EX1,1,192,2020-04-06T08:02:58-07:00,1.782114982605,2,versionA_stim.csv,READVersionB.csv,"Read Version B","Dissertation, read only version B",SMELL,STENCH,Study1,B,42,59,Study,User,-,,Study/JOL,"Study Phase2",1380,,,-1,-1,,,,1
w982047,l3jm8zvd9e,Nick_Dissertation_EX1,1,193,2020-04-06T08:03:00-07:00,1.7315559387207,2,versionA_stim.csv,READVersionB.csv,"Read Version B","Dissertation, read only version B",HOT,CHILI,Study1,B,37,42,Study,User,-,,Study/JOL,"Study Phase2",1353,,,-1,-1,,,,1
w982047,l3jm8zvd9e,Nick_Dissertation_EX1,1,194,2020-04-06T08:03:01-07:00,1.4258570671082,2,versionA_stim.csv,READVersionB.csv,"Read Version B","Dissertation, read only version B",BITTER,COLD,Study1,F,12,12,Study,User,-,,Study/JOL,"Study Phase2",1046,,,-1,-1,,,,1
w982047,l3jm8zvd9e,Nick_Dissertation_EX1,1,195,2020-04-06T08:03:03-07:00,1.5895130634308,2,versionA_stim.csv,READVersionB.csv,"Read Version B","Dissertation, read only version B",CLOTHES,ATTIRE,Study1,B,43,32,Study,User,-,,Study/JOL,"Study Phase2",1213,,,-1,-1,,,,1
w982047,l3jm8zvd9e,Nick_Dissertation_EX1,1,196,2020-04-06T08:03:04-07:00,1.409334897995,2,versionA_stim.csv,READVersionB.csv,"Read Version B","Dissertation, read only version B",WINE,CHEESE,Study1,S,57,47,Study,User,-,,Study/JOL,"Study Phase2",1029,,,-1,-1,,,,1
w982047,l3jm8zvd9e,Nick_Dissertation_EX1,1,197,2020-04-06T08:03:06-07:00,1.7522640228271,2,versionA_stim.csv,READVersionB.csv,"Read Version B","Dissertation, read only version B",LOCATION,SITE,Study1,S,48,82,Study,User,-,,Study/JOL,"Study Phase2",1347,,,-1,-1,,,,1
w982047,l3jm8zvd9e,Nick_Dissertation_EX1,1,198,2020-04-06T08:03:07-07:00,1.6779918670654,2,versionA_stim.csv,READVersionB.csv,"Read Version B","Dissertation, read only version B",ALLOW,TUCK,Study1,U,78,24,Study,User,-,,Study/JOL,"Study Phase2",1305,,,-1,-1,,,,1
w982047,l3jm8zvd9e,Nick_Dissertation_EX1,1,199,2020-04-06T08:03:09-07:00,1.5698401927948,2,versionA_stim.csv,READVersionB.csv,"Read Version B","Dissertation, read only version B",PARK,HUNGRY,Study1,U,68,27,Study,User,-,,Study/JOL,"Study Phase2",1194,,,-1,-1,,,,1
w982047,l3jm8zvd9e,Nick_Dissertation_EX1,1,200,2020-04-06T08:03:12-07:00,2.6618618965149,2,versionA_stim.csv,READVersionB.csv,"Read Version B","Dissertation, read only version B",SHOE,FOOT,Study1,S,60,76,Study,User,-,,Study/JOL,"Study Phase2",1516,,,-1,-1,,,,1
w982047,l3jm8zvd9e,Nick_Dissertation_EX1,1,201,2020-04-06T08:03:14-07:00,2.7396669387817,2,versionA_stim.csv,READVersionB.csv,"Read Version B","Dissertation, read only version B",KEY,LATCH,Study1,B,36,9,Study,User,-,,Study/JOL,"Study Phase2",1205,,,-1,-1,,,,1
w982047,l3jm8zvd9e,Nick_Dissertation_EX1,1,202,2020-04-06T08:03:16-07:00,1.5120429992676,2,versionA_stim.csv,READVersionB.csv,"Read Version B","Dissertation, read only version B",ORCHID,FLOWER,Study1,F,24,36,Study,User,-,,Study/JOL,"Study Phase2",1128,,,-1,-1,,,,1
w982047,l3jm8zvd9e,Nick_Dissertation_EX1,1,203,2020-04-06T08:03:17-07:00,1.3563079833984,2,versionA_stim.csv,READVersionB.csv,"Read Version B","Dissertation, read only version B",WAY,OUT,Study1,F,16,60,Study,User,-,,Study/JOL,"Study Phase2",970,,,-1,-1,,,,1
w982047,l3jm8zvd9e,Nick_Dissertation_EX1,1,204,2020-04-06T08:03:19-07:00,1.5687770843506,2,versionA_stim.csv,READVersionB.csv,"Read Version B","Dissertation, read only version B",NUMBER,AMOUNT,Study1,S,47,40,Study,User,-,,Study/JOL,"Study Phase2",1179,,,-1,-1,,,,1
w982047,l3jm8zvd9e,Nick_Dissertation_EX1,1,205,2020-04-06T08:03:20-07:00,1.5570919513702,2,versionA_stim.csv,READVersionB.csv,"Read Version B","Dissertation, read only version B",FIRE,BLAZE,Study1,B,45,68,Study,User,-,,Study/JOL,"Study Phase2",1190,,,-1,-1,,,,1
w982047,l3jm8zvd9e,Nick_Dissertation_EX1,1,206,2020-04-06T08:03:22-07:00,1.6618001461029,2,versionA_stim.csv,READVersionB.csv,"Read Version B","Dissertation, read only version B",DRINK,SIP,Study1,B,27,39,Study,User,-,,Study/JOL,"Study Phase2",1273,,,-1,-1,,,,1
w982047,l3jm8zvd9e,Nick_Dissertation_EX1,1,207,2020-04-06T08:03:24-07:00,1.8784618377686,2,versionA_stim.csv,READVersionB.csv,"Read Version B","Dissertation, read only version B",DIETARY,SACKING,Study1,U,67,17,Study,User,-,,Study/JOL,"Study Phase2",1504,,,-1,-1,,,,1
w982047,l3jm8zvd9e,Nick_Dissertation_EX1,1,208,2020-04-06T08:03:25-07:00,1.5435631275177,2,versionA_stim.csv,READVersionB.csv,"Read Version B","Dissertation, read only version B",HONEY,BEE,Study1,S,63,25,Study,User,-,,Study/JOL,"Study Phase2",1176,,,-1,-1,,,,1
w982047,l3jm8zvd9e,Nick_Dissertation_EX1,1,209,2020-04-06T08:03:27-07:00,1.8371028900146,2,versionA_stim.csv,READVersionB.csv,"Read Version B","Dissertation, read only version B",MEANING,DEFINITION,Study1,S,62,78,Study,User,-,,Study/JOL,"Study Phase2",1449,,,-1,-1,,,,1
w982047,l3jm8zvd9e,Nick_Dissertation_EX1,1,210,2020-04-06T08:03:29-07:00,1.6954669952393,2,versionA_stim.csv,READVersionB.csv,"Read Version B","Dissertation, read only version B",BUG,WASP,Study1,B,32,53,Study,User,-,,Study/JOL,"Study Phase2",1316,,,-1,-1,,,,1
w982047,l3jm8zvd9e,Nick_Dissertation_EX1,1,211,2020-04-06T08:03:31-07:00,1.960764169693,2,versionA_stim.csv,READVersionB.csv,"Read Version B","Dissertation, read only version B",ART,LION,Study1,U,79,63,Study,User,-,,Study/JOL,"Study Phase2",1583,,,-1,-1,,,,1
w982047,l3jm8zvd9e,Nick_Dissertation_EX1,1,212,2020-04-06T08:03:33-07:00,2.0842719078064,2,versionA_stim.csv,READVersionB.csv,"Read Version B","Dissertation, read only version B",ROOT,PLANT,Study1,F,13,61,Study,User,-,,Study/JOL,"Study Phase2",1708,,,-1,-1,,,,1
w982047,l3jm8zvd9e,Nick_Dissertation_EX1,1,213,2020-04-06T08:03:35-07:00,2.0498380661011,2,versionA_stim.csv,READVersionB.csv,"Read Version B","Dissertation, read only version B",LIFT,WOMAN,Study1,U,69,14,Study,User,-,,Study/JOL,"Study Phase2",1657,,,-1,-1,,,,1
w982047,l3jm8zvd9e,Nick_Dissertation_EX1,1,214,2020-04-06T08:03:37-07:00,2.0901639461517,2,versionA_stim.csv,READVersionB.csv,"Read Version B","Dissertation, read only version B",HEIGHT,GROWTH,Study1,B,30,55,Study,User,-,,Study/JOL,"Study Phase2",1684,,,-1,-1,,,,1
w982047,l3jm8zvd9e,Nick_Dissertation_EX1,1,215,2020-04-06T08:03:39-07:00,2.086816072464,2,versionA_stim.csv,READVersionB.csv,"Read Version B","Dissertation, read only version B",HUNGER,FAMINE,Study1,B,40,10,Study,User,-,,Study/JOL,"Study Phase2",1715,,,-1,-1,,,,1
w982047,l3jm8zvd9e,Nick_Dissertation_EX1,1,216,2020-04-06T08:03:41-07:00,2.0813539028168,2,versionA_stim.csv,READVersionB.csv,"Read Version B","Dissertation, read only version B",DEATH,BUSINESS,Study1,U,72,85,Study,User,-,,Study/JOL,"Study Phase2",1708,,,-1,-1,,,,1
w982047,l3jm8zvd9e,Nick_Dissertation_EX1,1,217,2020-04-06T08:03:44-07:00,2.22079205513,2,versionA_stim.csv,READVersionB.csv,"Read Version B","Dissertation, read only version B",LAW,ATTORNEY,Study1,B,34,73,Study,User,-,,Study/JOL,"Study Phase2",1801,,,-1,-1,,,,1
w982047,l3jm8zvd9e,Nick_Dissertation_EX1,1,218,2020-04-06T08:03:45-07:00,1.834578037262,2,versionA_stim.csv,READVersionB.csv,"Read Version B","Dissertation, read only version B",DEBATE,SIGHT,Study1,U,73,11,Study,User,-,,Study/JOL,"Study Phase2",1420,,,-1,-1,,,,1
w982047,l3jm8zvd9e,Nick_Dissertation_EX1,1,219,2020-04-06T08:03:47-07:00,1.8120799064636,2,versionA_stim.csv,READVersionB.csv,"Read Version B","Dissertation, read only version B",SUGAR,RIDDLE,Study1,U,81,15,Study,User,-,,Study/JOL,"Study Phase2",1422,,,-1,-1,,,,1
w982047,l3jm8zvd9e,Nick_Dissertation_EX1,1,220,2020-04-06T08:03:49-07:00,1.7224819660187,2,versionA_stim.csv,READVersionB.csv,"Read Version B","Dissertation, read only version B",TUNA,FISH,Study1,F,25,86,Study,User,-,,Study/JOL,"Study Phase2",1336,,,-1,-1,,,,1
w982047,l3jm8zvd9e,Nick_Dissertation_EX1,1,221,2020-04-06T08:03:51-07:00,1.9157140254974,2,versionA_stim.csv,READVersionB.csv,"Read Version B","Dissertation, read only version B",DISCUSSION,TALK,Study1,F,21,44,Study,User,-,,Study/JOL,"Study Phase2",1539,,,-1,-1,,,,1
w982047,l3jm8zvd9e,Nick_Dissertation_EX1,1,222,2020-04-06T08:03:53-07:00,1.6949501037598,2,versionA_stim.csv,READVersionB.csv,"Read Version B","Dissertation, read only version B",WORK,CHORE,Study1,B,39,77,Study,User,-,,Study/JOL,"Study Phase2",1312,,,-1,-1,,,,1
w982047,l3jm8zvd9e,Nick_Dissertation_EX1,1,223,2020-04-06T08:03:54-07:00,1.6803958415985,2,versionA_stim.csv,READVersionB.csv,"Read Version B","Dissertation, read only version B",DELINQUENT,BAD,Study1,F,6,26,Study,User,-,,Study/JOL,"Study Phase2",1300,,,-1,-1,,,,1
w982047,l3jm8zvd9e,Nick_Dissertation_EX1,1,224,2020-04-06T08:03:56-07:00,1.8629829883575,2,versionA_stim.csv,READVersionB.csv,"Read Version B","Dissertation, read only version B",DIGESTION,STOMACH,Study1,F,7,79,Study,User,-,,Study/JOL,"Study Phase2",1452,,,-1,-1,,,,1
w982047,l3jm8zvd9e,Nick_Dissertation_EX1,1,225,2020-04-06T08:03:57-07:00,1.314845085144,2,versionA_stim.csv,READVersionB.csv,"Read Version B","Dissertation, read only version B",CREDIT,CARD,Study1,F,23,45,Study,User,-,,Study/JOL,"Study Phase2",936,,,-1,-1,,,,1
w982047,l3jm8zvd9e,Nick_Dissertation_EX1,1,226,2020-04-06T08:03:59-07:00,1.577800989151,2,versionA_stim.csv,READVersionB.csv,"Read Version B","Dissertation, read only version B",CIRCLE,ROUND,Study1,S,65,62,Study,User,-,,Study/JOL,"Study Phase2",1205,,,-1,-1,,,,1
w982047,l3jm8zvd9e,Nick_Dissertation_EX1,1,227,2020-04-06T08:04:01-07:00,1.6495759487152,2,versionA_stim.csv,READVersionB.csv,"Read Version B","Dissertation, read only version B",PAST,FUTURE,Study1,S,61,13,Study,User,-,,Study/JOL,"Study Phase2",1266,,,-1,-1,,,,1
w982047,l3jm8zvd9e,Nick_Dissertation_EX1,1,228,2020-04-06T08:04:02-07:00,1.300194978714,2,versionA_stim.csv,READVersionB.csv,"Read Version B","Dissertation, read only version B",SENTENCE,WORD,Study1,B,31,84,Study,User,-,,Study/JOL,"Study Phase2",928,,,-1,-1,,,,1
w982047,l3jm8zvd9e,Nick_Dissertation_EX1,1,229,2020-04-06T08:04:04-07:00,1.6735761165619,2,versionA_stim.csv,READVersionB.csv,"Read Version B","Dissertation, read only version B",SLEEP,DROWSY,Study1,B,41,83,Study,User,-,,Study/JOL,"Study Phase2",1301,,,-1,-1,,,,1
w982047,l3jm8zvd9e,Nick_Dissertation_EX1,1,230,2020-04-06T08:04:06-07:00,2.0845589637756,2,versionA_stim.csv,READVersionB.csv,"Read Version B","Dissertation, read only version B",MATH,DIVISION,Study1,B,33,49,Study,User,-,,Study/JOL,"Study Phase2",1699,,,-1,-1,,,,1
w982047,l3jm8zvd9e,Nick_Dissertation_EX1,1,231,2020-04-06T08:04:07-07:00,1.2390820980072,2,versionA_stim.csv,READVersionB.csv,"Read Version B","Dissertation, read only version B",WAGE,MONEY,Study1,F,8,71,Study,User,-,,Study/JOL,"Study Phase2",871,,,-1,-1,,,,1
w982047,l3jm8zvd9e,Nick_Dissertation_EX1,1,232,2020-04-06T08:04:08-07:00,1.5356688499451,2,versionA_stim.csv,READVersionB.csv,"Read Version B","Dissertation, read only version B",DARK,CAVE,Study1,B,28,23,Study,User,-,,Study/JOL,"Study Phase2",1130,,,-1,-1,,,,1
w982047,l3jm8zvd9e,Nick_Dissertation_EX1,1,233,2020-04-06T08:04:10-07:00,1.5014519691467,2,versionA_stim.csv,READVersionB.csv,"Read Version B","Dissertation, read only version B",MACHINE,POSITION,Study1,U,76,64,Study,User,-,,Study/JOL,"Study Phase2",1120,,,-1,-1,,,,1
w982047,l3jm8zvd9e,Nick_Dissertation_EX1,1,234,2020-04-06T08:04:11-07:00,1.3911821842194,2,versionA_stim.csv,READVersionB.csv,"Read Version B","Dissertation, read only version B",BABY,CHILD,Study1,S,64,67,Study,User,-,,Study/JOL,"Study Phase2",1009,,,-1,-1,,,,1
w982047,l3jm8zvd9e,Nick_Dissertation_EX1,1,235,2020-04-06T08:04:13-07:00,1.4699559211731,2,versionA_stim.csv,READVersionB.csv,"Read Version B","Dissertation, read only version B",KIDNEY,LIVER,Study1,S,53,65,Study,User,-,,Study/JOL,"Study Phase2",1087,,,-1,-1,,,,1
w982047,l3jm8zvd9e,Nick_Dissertation_EX1,1,236,2020-04-06T08:04:14-07:00,1.653706073761,2,versionA_stim.csv,READVersionB.csv,"Read Version B","Dissertation, read only version B",VALLEY,ADD,Study1,U,82,30,Study,User,-,,Study/JOL,"Study Phase2",1285,,,-1,-1,,,,1
w982047,l3jm8zvd9e,Nick_Dissertation_EX1,1,237,2020-04-06T08:04:16-07:00,1.4794459342957,2,versionA_stim.csv,READVersionB.csv,"Read Version B","Dissertation, read only version B",KING,VASE,Study1,U,85,16,Study,User,-,,Study/JOL,"Study Phase2",1098,,,-1,-1,,,,1
w982047,l3jm8zvd9e,Nick_Dissertation_EX1,1,238,2020-04-06T08:04:17-07:00,1.4866528511047,2,versionA_stim.csv,READVersionB.csv,"Read Version B","Dissertation, read only version B",TAKE,SEIZE,Study1,B,29,18,Study,User,-,,Study/JOL,"Study Phase2",1105,,,-1,-1,,,,1
w982047,l3jm8zvd9e,Nick_Dissertation_EX1,1,239,2020-04-06T08:04:19-07:00,1.6983511447906,2,versionA_stim.csv,READVersionB.csv,"Read Version B","Dissertation, read only version B",PAW,DOG,Study1,F,15,28,Study,User,-,,Study/JOL,"Study Phase2",1309,,,-1,-1,,,,1
w982047,l3jm8zvd9e,Nick_Dissertation_EX1,1,240,2020-04-06T08:04:21-07:00,1.7478160858154,2,versionA_stim.csv,READVersionB.csv,"Read Version B","Dissertation, read only version B",FIX,HAND,Study1,U,75,34,Study,User,-,,Study/JOL,"Study Phase2",1359,,,-1,-1,,,,1
w982047,l3jm8zvd9e,Nick_Dissertation_EX1,1,241,2020-04-06T08:04:24-07:00,2.7529289722443,2,versionA_stim.csv,READVersionB.csv,"Read Version B","Dissertation, read only version B",CASH,WOULD,Study1,U,83,66,Study,User,-,,Study/JOL,"Study Phase2",1315,,,-1,-1,,,,1
w982047,l3jm8zvd9e,Nick_Dissertation_EX1,1,242,2020-04-06T08:04:25-07:00,1.5122950077057,2,versionA_stim.csv,READVersionB.csv,"Read Version B","Dissertation, read only version B",BEGIN,END,Study1,S,54,50,Study,User,-,,Study/JOL,"Study Phase2",1088,,,-1,-1,,,,1
w982047,l3jm8zvd9e,Nick_Dissertation_EX1,1,243,2020-04-06T08:04:26-07:00,1.2391619682312,2,versionA_stim.csv,READVersionB.csv,"Read Version B","Dissertation, read only version B",DUE,ASSIGNMENT,Study1,S,46,41,Study,User,-,,Study/JOL,"Study Phase2",867,,,-1,-1,,,,1
w982047,l3jm8zvd9e,Nick_Dissertation_EX1,1,244,2020-04-06T08:04:28-07:00,1.3934569358826,2,versionA_stim.csv,READVersionB.csv,"Read Version B","Dissertation, read only version B",BRIDGE,WATER,Study1,F,18,57,Study,User,-,,Study/JOL,"Study Phase2",1018,,,-1,-1,,,,1
w982047,l3jm8zvd9e,Nick_Dissertation_EX1,1,245,2020-04-06T08:04:29-07:00,1.6834990978241,2,versionA_stim.csv,READVersionB.csv,"Read Version B","Dissertation, read only version B",LETTUCE,SALAD,Study1,S,59,20,Study,User,-,,Study/JOL,"Study Phase2",1316,,,-1,-1,,,,1
w982047,l3jm8zvd9e,Nick_Dissertation_EX1,1,246,2020-04-06T08:04:31-07:00,1.412477016449,2,versionA_stim.csv,READVersionB.csv,"Read Version B","Dissertation, read only version B",SOON,BELT,Study1,U,70,72,Study,User,-,,Study/JOL,"Study Phase2",1031,,,-1,-1,,,,1
w982047,l3jm8zvd9e,Nick_Dissertation_EX1,1,247,2020-04-06T08:04:32-07:00,1.2827589511871,2,versionA_stim.csv,READVersionB.csv,"Read Version B","Dissertation, read only version B",POP,SODA,Study1,S,56,80,Study,User,-,,Study/JOL,"Study Phase2",899,,,-1,-1,,,,1
w982047,l3jm8zvd9e,Nick_Dissertation_EX1,1,248,2020-04-06T08:04:34-07:00,1.4063520431519,2,versionA_stim.csv,READVersionB.csv,"Read Version B","Dissertation, read only version B",FULL,ENOUGH,Study1,B,26,35,Study,User,-,,Study/JOL,"Study Phase2",1034,,,-1,-1,,,,1
w982047,l3jm8zvd9e,Nick_Dissertation_EX1,1,249,2020-04-06T08:04:35-07:00,1.4126768112183,2,versionA_stim.csv,READVersionB.csv,"Read Version B","Dissertation, read only version B",HERD,COW,Study1,F,22,21,Study,User,-,,Study/JOL,"Study Phase2",1013,,,-1,-1,,,,1
w982047,l3jm8zvd9e,Nick_Dissertation_EX1,1,250,2020-04-06T08:04:36-07:00,1.3888070583344,2,versionA_stim.csv,READVersionB.csv,"Read Version B","Dissertation, read only version B",BATHROOM,TOILET,Study1,S,58,31,Study,User,-,,Study/JOL,"Study Phase2",996,,,-1,-1,,,,1
w982047,l3jm8zvd9e,Nick_Dissertation_EX1,1,251,2020-04-06T08:04:38-07:00,1.6307129859924,2,versionA_stim.csv,READVersionB.csv,"Read Version B","Dissertation, read only version B",ARCHITECTURE,DESIGN,Study1,S,51,43,Study,User,-,,Study/JOL,"Study Phase2",1260,,,-1,-1,,,,1
w982047,l3jm8zvd9e,Nick_Dissertation_EX1,1,252,2020-04-06T08:04:39-07:00,1.3084011077881,2,versionA_stim.csv,READVersionB.csv,"Read Version B","Dissertation, read only version B",HAPPY,CAR,Study1,U,77,69,Study,User,-,,Study/JOL,"Study Phase2",927,,,-1,-1,,,,1
w982047,l3jm8zvd9e,Nick_Dissertation_EX1,1,253,2020-04-06T08:04:41-07:00,1.5446820259094,2,versionA_stim.csv,READVersionB.csv,"Read Version B","Dissertation, read only version B",DUMP,WASTE,Study1,S,49,8,Study,User,-,,Study/JOL,"Study Phase2",1173,,,-1,-1,,,,1
w982047,l3jm8zvd9e,Nick_Dissertation_EX1,1,254,2020-04-06T08:04:42-07:00,1.5008039474487,2,versionA_stim.csv,READVersionB.csv,"Read Version B","Dissertation, read only version B",HORNET,STING,Study1,F,11,75,Study,User,-,,Study/JOL,"Study Phase2",1128,,,-1,-1,,,,1
w982047,l3jm8zvd9e,Nick_Dissertation_EX1,1,255,2020-04-06T08:04:44-07:00,1.3995649814606,2,versionA_stim.csv,READVersionB.csv,"Read Version B","Dissertation, read only version B",GRILL,BAR,Study1,S,52,74,Study,User,-,,Study/JOL,"Study Phase2",974,,,-1,-1,,,,1
w982047,l3jm8zvd9e,Nick_Dissertation_EX1,1,256,2020-04-06T08:04:46-07:00,1.8976690769196,2,versionA_stim.csv,READVersionB.csv,"Read Version B","Dissertation, read only version B",REVOLUTION,WAR,Study1,F,20,37,Study,User,-,,Study/JOL,"Study Phase2",1526,,,-1,-1,,,,1
w982047,l3jm8zvd9e,Nick_Dissertation_EX1,1,257,2020-04-06T08:04:47-07:00,1.8267018795013,2,versionA_stim.csv,READVersionB.csv,"Read Version B","Dissertation, read only version B",HYGIENE,CLEAN,Study1,F,17,56,Study,User,-,,Study/JOL,"Study Phase2",1447,,,-1,-1,,,,1
w982047,l3jm8zvd9e,Nick_Dissertation_EX1,1,258,2020-04-06T08:04:49-07:00,1.4336969852448,2,versionA_stim.csv,READVersionB.csv,"Read Version B","Dissertation, read only version B",PLANE,PILOT,Study1,B,44,29,Study,User,-,,Study/JOL,"Study Phase2",1050,,,-1,-1,,,,1
w982047,l3jm8zvd9e,Nick_Dissertation_EX1,1,259,2020-04-06T08:04:51-07:00,1.7204859256744,2,versionA_stim.csv,READVersionB.csv,"Read Version B","Dissertation, read only version B",CHISEL,HAMMER,Study1,F,9,22,Study,User,-,,Study/JOL,"Study Phase2",1341,,,-1,-1,,,,1
w982047,l3jm8zvd9e,Nick_Dissertation_EX1,1,260,2020-04-06T08:04:52-07:00,1.2448091506958,2,versionA_stim.csv,READVersionB.csv,"Read Version B","Dissertation, read only version B",GREAT,FANTASTIC,Study1,B,35,51,Study,User,-,,Study/JOL,"Study Phase2",873,,,-1,-1,,,,1
w982047,l3jm8zvd9e,Nick_Dissertation_EX1,1,261,2020-04-06T08:04:53-07:00,1.5685448646545,2,versionA_stim.csv,READVersionB.csv,"Read Version B","Dissertation, read only version B",THING,STUFF,BUFFER2,Buffer,90,89,Study,User,-,,Study/JOL,BUFFER4,1183,,,-1,-1,,,,1
w982047,l3jm8zvd9e,Nick_Dissertation_EX1,1,262,2020-04-06T08:04:55-07:00,1.594437122345,2,versionA_stim.csv,READVersionB.csv,"Read Version B","Dissertation, read only version B",MOON,SPACE,BUFFER2,Buffer,89,90,Study,User,-,,Study/JOL,BUFFER4,1200,,,-1,-1,,,,1
w982047,l3jm8zvd9e,Nick_Dissertation_EX1,1,263,2020-04-06T08:04:58-07:00,3.0301718711853,2,versionA_stim.csv,READVersionB.csv,"Read Version B","Dissertation, read only version B",SHERRIF,POLICE,BUFFER2,Buffer,87,88,Study,User,-,,Study/JOL,BUFFER4,2534,,,-1,-1,,,,1
w982047,l3jm8zvd9e,Nick_Dissertation_EX1,1,264,2020-04-06T08:05:00-07:00,1.8660800457001,2,versionA_stim.csv,READVersionB.csv,"Read Version B","Dissertation, read only version B",GEESE,GOOSE,BUFFER2,Buffer,86,91,Study,User,-,,Study/JOL,BUFFER4,1426,,,-1,-1,,,,1
w982047,l3jm8zvd9e,Nick_Dissertation_EX1,1,265,2020-04-06T08:05:01-07:00,1.349277973175,2,versionA_stim.csv,READVersionB.csv,"Read Version B","Dissertation, read only version B",MALT,CHOCOLATE,BUFFER2,Buffer,88,87,Study,User,-,,Study/JOL,BUFFER4,960,,,-1,-1,,,,1
w982047,l3jm8zvd9e,Nick_Dissertation_EX1,1,266,2020-04-06T08:05:03-07:00,2.1230480670929,2,versionA_stim.csv,READVersionB.csv,"Read Version B","Dissertation, read only version B",,,,,,0,Instruct,User,-,"You have completed this section. Please press Enter.",Filler_Instruction,Instruct5,1686,,,-1,-1,,,,1
w982047,l3jm8zvd9e,Nick_Dissertation_EX1,1,267,2020-04-06T08:07:04-07:00,120.91337990761,2,versionA_stim.csv,READVersionB.csv,"Read Version B","Dissertation, read only version B",,,,,,0,FreeRecall,120,120,"Please list the 50 US states in reverse alphabetical order (z - a). The task will automatically advance to the next screen after two minutes.",,Filler2,120002,"Washington, Virginia, Utah, Texas, South Dakota, Rhode Island, Pennsylvania, Ohio, North Dakota, New York, New Mexico, New Jersey, Montana, Mississippi, Missouri, Maine, ",0,19293,119269,0,0,,1
w982047,l3jm8zvd9e,Nick_Dissertation_EX1,1,268,2020-04-06T08:07:16-07:00,11.368363142014,2,versionA_stim.csv,READVersionB.csv,"Read Version B","Dissertation, read only version B",,,,,,0,Instruct,-,10,"You will now be presented with the first word from each of the previously studied item pairs. Please type the missing word. If you do not know the word, you may guess or press Enter to skip forward to the next pair.",,Instruct6,10663,,,-1,-1,,,,1
w982047,l3jm8zvd9e,Nick_Dissertation_EX1,1,269,2020-04-06T08:07:20-07:00,4.1908159255981,2,versionA_stim.csv,READVersionB.csv,"Read Version B","Dissertation, read only version B",MEANING,DEFINITION,Study1,S,62,78,Test,User,-,,Recall,Recall2,3585,,0,-1,-1,0,0,,1
w982047,l3jm8zvd9e,Nick_Dissertation_EX1,1,270,2020-04-06T08:07:23-07:00,3.08451795578,2,versionA_stim.csv,READVersionB.csv,"Read Version B","Dissertation, read only version B",HOT,CHILI,Study1,B,37,42,Test,User,-,,Recall,Recall2,2662,,0,-1,-1,0,0,,1
w982047,l3jm8zvd9e,Nick_Dissertation_EX1,1,271,2020-04-06T08:07:28-07:00,4.6698501110077,2,versionA_stim.csv,READVersionB.csv,"Read Version B","Dissertation, read only version B",PLANE,PILOT,Study1,B,44,29,Test,User,-,,Recall,Recall2,4197,AIRCRAFT,30.769230769231,1317,3096,0,0,,1
w982047,l3jm8zvd9e,Nick_Dissertation_EX1,1,272,2020-04-06T08:07:30-07:00,2.4574549198151,2,versionA_stim.csv,READVersionB.csv,"Read Version B","Dissertation, read only version B",REVOLUTION,WAR,Study1,F,20,37,Test,User,-,,Recall,Recall2,2003,,0,-1,-1,0,0,,1
w982047,l3jm8zvd9e,Nick_Dissertation_EX1,1,273,2020-04-06T08:07:31-07:00,1.3793499469757,2,versionA_stim.csv,READVersionB.csv,"Read Version B","Dissertation, read only version B",DISCUSSION,TALK,Study1,F,21,44,Test,User,-,,Recall,Recall2,963,,0,-1,-1,0,0,,1
w982047,l3jm8zvd9e,Nick_Dissertation_EX1,1,274,2020-04-06T08:07:38-07:00,6.1013751029968,2,versionA_stim.csv,READVersionB.csv,"Read Version B","Dissertation, read only version B",BALL,RACKET,Study1,B,38,19,Test,User,-,,Recall,Recall2,5689,GAME,40,2927,3614,0,0,,1
w982047,l3jm8zvd9e,Nick_Dissertation_EX1,1,275,2020-04-06T08:07:42-07:00,4.7497611045837,2,versionA_stim.csv,READVersionB.csv,"Read Version B","Dissertation, read only version B",HUNGER,FAMINE,Study1,B,40,10,Test,User,-,,Recall,Recall2,4287,FOOD,20,2000,2613,0,0,,1
w982047,l3jm8zvd9e,Nick_Dissertation_EX1,1,276,2020-04-06T08:07:46-07:00,3.4648668766022,2,versionA_stim.csv,READVersionB.csv,"Read Version B","Dissertation, read only version B",DELINQUENT,BAD,Study1,F,6,26,Test,User,-,,Recall,Recall2,2967,BAD,100,1408,1684,1,1,,1
w982047,l3jm8zvd9e,Nick_Dissertation_EX1,1,277,2020-04-06T08:07:50-07:00,3.7586650848389,2,versionA_stim.csv,READVersionB.csv,"Read Version B","Dissertation, read only version B",BRIDGE,WATER,Study1,F,18,57,Test,User,-,,Recall,Recall2,3314,WATER,100,962,1575,1,1,,1
w982047,l3jm8zvd9e,Nick_Dissertation_EX1,1,278,2020-04-06T08:07:51-07:00,1.7092318534851,2,versionA_stim.csv,READVersionB.csv,"Read Version B","Dissertation, read only version B",EDITOR,NEWS,Study1,F,10,54,Test,User,-,,Recall,Recall2,1140,,0,-1,-1,0,0,,1
w982047,l3jm8zvd9e,Nick_Dissertation_EX1,1,279,2020-04-06T08:07:55-07:00,3.7787890434265,2,versionA_stim.csv,READVersionB.csv,"Read Version B","Dissertation, read only version B",GEOLOGY,ROCK,Study1,F,19,58,Test,User,-,,Recall,Recall2,3372,ROCKS,88.888888888889,1322,1884,0,1,,1
w982047,l3jm8zvd9e,Nick_Dissertation_EX1,1,280,2020-04-06T08:07:58-07:00,2.9950520992279,2,versionA_stim.csv,READVersionB.csv,"Read Version B","Dissertation, read only version B",HAPPY,CAR,Study1,U,77,69,Test,User,-,,Recall,Recall2,2559,CAR,100,1164,1456,1,1,,1
w982047,l3jm8zvd9e,Nick_Dissertation_EX1,1,281,2020-04-06T08:08:02-07:00,3.6077539920807,2,versionA_stim.csv,READVersionB.csv,"Read Version B","Dissertation, read only version B",ORCHID,FLOWER,Study1,F,24,36,Test,User,-,,Recall,Recall2,3154,FLOWER,100,1103,1866,1,1,,1
w982047,l3jm8zvd9e,Nick_Dissertation_EX1,1,282,2020-04-06T08:08:06-07:00,4.1180899143219,2,versionA_stim.csv,READVersionB.csv,"Read Version B","Dissertation, read only version B",SLEEP,DROWSY,Study1,B,41,83,Test,User,-,,Recall,Recall2,3621,NAP,0,1149,2158,0,0,,1
w982047,l3jm8zvd9e,Nick_Dissertation_EX1,1,283,2020-04-06T08:08:15-07:00,9.3742649555206,2,versionA_stim.csv,READVersionB.csv,"Read Version B","Dissertation, read only version B",HIDE,SICK,Study1,U,84,48,Test,User,-,,Recall,Recall2,8905,SEEK,50,6761,7573,0,0,,1
w982047,l3jm8zvd9e,Nick_Dissertation_EX1,1,284,2020-04-06T08:08:17-07:00,1.7120201587677,2,versionA_stim.csv,READVersionB.csv,"Read Version B","Dissertation, read only version B",LOCATION,SITE,Study1,S,48,82,Test,User,-,,Recall,Recall2,1133,,0,-1,-1,0,0,,1
w982047,l3jm8zvd9e,Nick_Dissertation_EX1,1,285,2020-04-06T08:08:22-07:00,5.3537769317627,2,versionA_stim.csv,READVersionB.csv,"Read Version B","Dissertation, read only version B",VALLEY,ADD,Study1,U,82,30,Test,User,-,,Recall,Recall2,4863,ADD,100,2459,3049,1,1,,1
w982047,l3jm8zvd9e,Nick_Dissertation_EX1,1,286,2020-04-06T08:08:24-07:00,1.3596298694611,2,versionA_stim.csv,READVersionB.csv,"Read Version B","Dissertation, read only version B",FIX,HAND,Study1,U,75,34,Test,User,-,,Recall,Recall2,897,,0,-1,-1,0,0,,1
w982047,l3jm8zvd9e,Nick_Dissertation_EX1,1,287,2020-04-06T08:08:27-07:00,3.915717124939,2,versionA_stim.csv,READVersionB.csv,"Read Version B","Dissertation, read only version B",HONEY,BEE,Study1,S,63,25,Test,User,-,,Recall,Recall2,3366,BEE,100,1785,2113,1,1,,1
w982047,l3jm8zvd9e,Nick_Dissertation_EX1,1,288,2020-04-06T08:08:32-07:00,4.5594999790192,2,versionA_stim.csv,READVersionB.csv,"Read Version B","Dissertation, read only version B",HYGIENE,CLEAN,Study1,F,17,56,Test,User,-,,Recall,Recall2,4122,TEETH,20,1632,2637,0,0,,1
w982047,l3jm8zvd9e,Nick_Dissertation_EX1,1,289,2020-04-06T08:08:33-07:00,1.3969049453735,2,versionA_stim.csv,READVersionB.csv,"Read Version B","Dissertation, read only version B",PARK,HUNGRY,Study1,U,68,27,Test,User,-,,Recall,Recall2,953,,0,-1,-1,0,0,,1
w982047,l3jm8zvd9e,Nick_Dissertation_EX1,1,290,2020-04-06T08:08:35-07:00,1.4606840610504,2,versionA_stim.csv,READVersionB.csv,"Read Version B","Dissertation, read only version B",MATH,DIVISION,Study1,B,33,49,Test,User,-,,Recall,Recall2,1058,,0,-1,-1,0,0,,1
w982047,l3jm8zvd9e,Nick_Dissertation_EX1,1,291,2020-04-06T08:08:38-07:00,2.9238119125366,2,versionA_stim.csv,READVersionB.csv,"Read Version B","Dissertation, read only version B",DEBATE,SIGHT,Study1,U,73,11,Test,User,-,,Recall,Recall2,2518,,0,-1,-1,0,0,,1
w982047,l3jm8zvd9e,Nick_Dissertation_EX1,1,292,2020-04-06T08:08:39-07:00,1.4860780239105,2,versionA_stim.csv,READVersionB.csv,"Read Version B","Dissertation, read only version B",MACHINE,POSITION,Study1,U,76,64,Test,User,-,,Recall,Recall2,1059,,0,-1,-1,0,0,,1
w982047,l3jm8zvd9e,Nick_Dissertation_EX1,1,293,2020-04-06T08:08:44-07:00,4.4805641174316,2,versionA_stim.csv,READVersionB.csv,"Read Version B","Dissertation, read only version B",DIGESTION,STOMACH,Study1,F,7,79,Test,User,-,,Recall,Recall2,4023,STOMACH,100,1566,2914,1,1,,1
w982047,l3jm8zvd9e,Nick_Dissertation_EX1,1,294,2020-04-06T08:08:47-07:00,3.2968490123749,2,versionA_stim.csv,READVersionB.csv,"Read Version B","Dissertation, read only version B",SWAN,BIRD,Study1,F,14,38,Test,User,-,,Recall,Recall2,2852,BIRD,100,965,1498,1,1,,1
w982047,l3jm8zvd9e,Nick_Dissertation_EX1,1,295,2020-04-06T08:08:51-07:00,4.2504398822784,2,versionA_stim.csv,READVersionB.csv,"Read Version B","Dissertation, read only version B",SMELL,STENCH,Study1,B,42,59,Test,User,-,,Recall,Recall2,3818,INCENSE,30.769230769231,1197,2449,0,0,,1
w982047,l3jm8zvd9e,Nick_Dissertation_EX1,1,296,2020-04-06T08:08:53-07:00,1.5106589794159,2,versionA_stim.csv,READVersionB.csv,"Read Version B","Dissertation, read only version B",TRIAL,JURY,Study1,S,50,52,Test,User,-,,Recall,Recall2,1061,,0,-1,-1,0,0,,1
w982047,l3jm8zvd9e,Nick_Dissertation_EX1,1,297,2020-04-06T08:08:54-07:00,1.4939410686493,2,versionA_stim.csv,READVersionB.csv,"Read Version B","Dissertation, read only version B",DISCOVER,FLOOR,Study1,U,71,7,Test,User,-,,Recall,Recall2,1088,,0,-1,-1,0,0,,1
w982047,l3jm8zvd9e,Nick_Dissertation_EX1,1,298,2020-04-06T08:08:59-07:00,4.5152819156647,2,versionA_stim.csv,READVersionB.csv,"Read Version B","Dissertation, read only version B",HEIGHT,GROWTH,Study1,B,30,55,Test,User,-,,Recall,Recall2,4112,WEIGHT,33.333333333333,1586,2314,0,0,,1
w982047,l3jm8zvd9e,Nick_Dissertation_EX1,1,299,2020-04-06T08:09:03-07:00,4.4695971012115,2,versionA_stim.csv,READVersionB.csv,"Read Version B","Dissertation, read only version B",FIRE,BLAZE,Study1,B,45,68,Test,User,-,,Recall,Recall2,4026,HOT,0,1973,2371,0,0,,1
w982047,l3jm8zvd9e,Nick_Dissertation_EX1,1,300,2020-04-06T08:09:12-07:00,9.0934069156647,2,versionA_stim.csv,READVersionB.csv,"Read Version B","Dissertation, read only version B",STRONG,ACCIDENT,Study1,U,80,81,Test,User,-,,Recall,Recall2,8620,ACCIDENT,100,4984,6832,1,1,,1
w982047,l3jm8zvd9e,Nick_Dissertation_EX1,1,301,2020-04-06T08:09:20-07:00,7.2758350372314,2,versionA_stim.csv,READVersionB.csv,"Read Version B","Dissertation, read only version B",NUMBER,AMOUNT,Study1,S,47,40,Test,User,-,,Recall,Recall2,6744,AMOUNT,100,4246,5192,1,1,,1
w982047,l3jm8zvd9e,Nick_Dissertation_EX1,1,302,2020-04-06T08:09:23-07:00,3.4301681518555,2,versionA_stim.csv,READVersionB.csv,"Read Version B","Dissertation, read only version B",WAY,OUT,Study1,F,16,60,Test,User,-,,Recall,Recall2,2901,OUT,100,1083,1405,1,1,,1
w982047,l3jm8zvd9e,Nick_Dissertation_EX1,1,303,2020-04-06T08:09:28-07:00,4.7265868186951,2,versionA_stim.csv,READVersionB.csv,"Read Version B","Dissertation, read only version B",DEATH,BUSINESS,Study1,U,72,85,Test,User,-,,Recall,Recall2,4266,COFFIN,28.571428571429,1631,2516,0,0,,1
w982047,l3jm8zvd9e,Nick_Dissertation_EX1,1,304,2020-04-06T08:09:31-07:00,3.0701839923859,2,versionA_stim.csv,READVersionB.csv,"Read Version B","Dissertation, read only version B",CASH,WOULD,Study1,U,83,66,Test,User,-,,Recall,Recall2,2625,MONEY,20,878,1540,0,0,,1
w982047,l3jm8zvd9e,Nick_Dissertation_EX1,1,305,2020-04-06T08:09:35-07:00,3.846363067627,2,versionA_stim.csv,READVersionB.csv,"Read Version B","Dissertation, read only version B",KING,VASE,Study1,U,85,16,Test,User,-,,Recall,Recall2,3349,VASE,100,1433,1925,1,1,,1
w982047,l3jm8zvd9e,Nick_Dissertation_EX1,1,306,2020-04-06T08:09:39-07:00,4.7092130184174,2,versionA_stim.csv,READVersionB.csv,"Read Version B","Dissertation, read only version B",HORNET,STING,Study1,F,11,75,Test,User,-,,Recall,Recall2,3277,STING,100,1155,1859,1,1,,1
w982047,l3jm8zvd9e,Nick_Dissertation_EX1,1,307,2020-04-06T08:09:41-07:00,1.7522768974304,2,versionA_stim.csv,READVersionB.csv,"Read Version B","Dissertation, read only version B",ART,LION,Study1,U,79,63,Test,User,-,,Recall,Recall2,1321,,0,-1,-1,0,0,,1
w982047,l3jm8zvd9e,Nick_Dissertation_EX1,1,308,2020-04-06T08:09:46-07:00,5.2318232059479,2,versionA_stim.csv,READVersionB.csv,"Read Version B","Dissertation, read only version B",SOON,BELT,Study1,U,70,72,Test,User,-,,Recall,Recall2,4830,ENOUGH,20,1849,2951,0,0,,1
w982047,l3jm8zvd9e,Nick_Dissertation_EX1,1,309,2020-04-06T08:09:50-07:00,3.9236888885498,2,versionA_stim.csv,READVersionB.csv,"Read Version B","Dissertation, read only version B",CREDIT,CARD,Study1,F,23,45,Test,User,-,,Recall,Recall2,3469,CARD,100,1146,1694,1,1,,1
w982047,l3jm8zvd9e,Nick_Dissertation_EX1,1,310,2020-04-06T08:09:52-07:00,1.3328809738159,2,versionA_stim.csv,READVersionB.csv,"Read Version B","Dissertation, read only version B",ALLOW,TUCK,Study1,U,78,24,Test,User,-,,Recall,Recall2,895,,0,-1,-1,0,0,,1
w982047,l3jm8zvd9e,Nick_Dissertation_EX1,1,311,2020-04-06T08:09:54-07:00,2.5232839584351,2,versionA_stim.csv,READVersionB.csv,"Read Version B","Dissertation, read only version B",DIETARY,SACKING,Study1,U,67,17,Test,User,-,,Recall,Recall2,2112,,0,-1,-1,0,0,,1
w982047,l3jm8zvd9e,Nick_Dissertation_EX1,1,312,2020-04-06T08:09:58-07:00,3.4149980545044,2,versionA_stim.csv,READVersionB.csv,"Read Version B","Dissertation, read only version B",PAW,DOG,Study1,F,15,28,Test,User,-,,Recall,Recall2,2997,DOG,100,1332,1677,1,1,,1
w982047,l3jm8zvd9e,Nick_Dissertation_EX1,1,313,2020-04-06T08:09:59-07:00,1.4746789932251,2,versionA_stim.csv,READVersionB.csv,"Read Version B","Dissertation, read only version B",DUE,ASSIGNMENT,Study1,S,46,41,Test,User,-,,Recall,Recall2,1037,,0,-1,-1,0,0,,1
w982047,l3jm8zvd9e,Nick_Dissertation_EX1,1,314,2020-04-06T08:10:04-07:00,4.5692291259766,2,versionA_stim.csv,READVersionB.csv,"Read Version B","Dissertation, read only version B",KEY,LATCH,Study1,B,36,9,Test,User,-,,Recall,Recall2,4132,,0,-1,-1,0,0,,1
w982047,l3jm8zvd9e,Nick_Dissertation_EX1,1,315,2020-04-06T08:10:08-07:00,4.3903877735138,2,versionA_stim.csv,READVersionB.csv,"Read Version B","Dissertation, read only version B",CIRCLE,ROUND,Study1,S,65,62,Test,User,-,,Recall,Recall2,3936,ALLOW,20,2116,2819,0,0,,1
w982047,l3jm8zvd9e,Nick_Dissertation_EX1,1,316,2020-04-06T08:10:10-07:00,1.6315531730652,2,versionA_stim.csv,READVersionB.csv,"Read Version B","Dissertation, read only version B",TAKE,SEIZE,Study1,B,29,18,Test,User,-,,Recall,Recall2,1186,,0,-1,-1,0,0,,1
w982047,l3jm8zvd9e,Nick_Dissertation_EX1,1,317,2020-04-06T08:10:11-07:00,1.3746299743652,2,versionA_stim.csv,READVersionB.csv,"Read Version B","Dissertation, read only version B",LIFT,WOMAN,Study1,U,69,14,Test,User,-,,Recall,Recall2,943,,0,-1,-1,0,0,,1
w982047,l3jm8zvd9e,Nick_Dissertation_EX1,1,318,2020-04-06T08:10:16-07:00,5.2373230457306,2,versionA_stim.csv,READVersionB.csv,"Read Version B","Dissertation, read only version B",ARTERY,BRONZE,Study1,U,74,33,Test,User,-,,Recall,Recall2,4823,BRONZE,100,1892,3299,1,1,,1
w982047,l3jm8zvd9e,Nick_Dissertation_EX1,1,319,2020-04-06T08:10:21-07:00,4.9488379955292,2,versionA_stim.csv,READVersionB.csv,"Read Version B","Dissertation, read only version B",CLOTHES,ATTIRE,Study1,B,43,32,Test,User,-,,Recall,Recall2,4334,CAR,44.444444444444,2421,2753,0,0,,1
w982047,l3jm8zvd9e,Nick_Dissertation_EX1,1,320,2020-04-06T08:10:23-07:00,1.6269989013672,2,versionA_stim.csv,READVersionB.csv,"Read Version B","Dissertation, read only version B",DARK,CAVE,Study1,B,28,23,Test,User,-,,Recall,Recall2,906,,0,-1,-1,0,0,,1
w982047,l3jm8zvd9e,Nick_Dissertation_EX1,1,321,2020-04-06T08:10:24-07:00,1.27614402771,2,versionA_stim.csv,READVersionB.csv,"Read Version B","Dissertation, read only version B",LETTUCE,SALAD,Study1,S,59,20,Test,User,-,,Recall,Recall2,846,,0,-1,-1,0,0,,1
w982047,l3jm8zvd9e,Nick_Dissertation_EX1,1,322,2020-04-06T08:10:33-07:00,9.0478329658508,2,versionA_stim.csv,READVersionB.csv,"Read Version B","Dissertation, read only version B",ROOT,PLANT,Study1,F,13,61,Test,User,-,,Recall,Recall2,1266,,0,-1,-1,0,0,,1
w982047,l3jm8zvd9e,Nick_Dissertation_EX1,1,323,2020-04-06T08:10:37-07:00,4.0366361141205,2,versionA_stim.csv,READVersionB.csv,"Read Version B","Dissertation, read only version B",TUNA,FISH,Study1,F,25,86,Test,User,-,,Recall,Recall2,3381,FISH,100,2153,2579,1,1,,1
w982047,l3jm8zvd9e,Nick_Dissertation_EX1,1,324,2020-04-06T08:10:40-07:00,2.5464680194855,2,versionA_stim.csv,READVersionB.csv,"Read Version B","Dissertation, read only version B",BLOW,WIND,Study1,S,55,70,Test,User,-,,Recall,Recall2,1091,,0,-1,-1,0,0,,1
w982047,l3jm8zvd9e,Nick_Dissertation_EX1,1,325,2020-04-06T08:10:45-07:00,5.040796995163,2,versionA_stim.csv,READVersionB.csv,"Read Version B","Dissertation, read only version B",DUMP,WASTE,Study1,S,49,8,Test,User,-,,Recall,Recall2,4623,TRASH,40,2180,2946,0,0,,1
w982047,l3jm8zvd9e,Nick_Dissertation_EX1,1,326,2020-04-06T08:10:46-07:00,1.3917229175568,2,versionA_stim.csv,READVersionB.csv,"Read Version B","Dissertation, read only version B",CHISEL,HAMMER,Study1,F,9,22,Test,User,-,,Recall,Recall2,967,,0,-1,-1,0,0,,1
w982047,l3jm8zvd9e,Nick_Dissertation_EX1,1,327,2020-04-06T08:10:51-07:00,4.72931599617,2,versionA_stim.csv,READVersionB.csv,"Read Version B","Dissertation, read only version B",ARCHITECTURE,DESIGN,Study1,S,51,43,Test,User,-,,Recall,Recall2,4289,DESIGN,100,1650,2512,1,1,,1
w982047,l3jm8zvd9e,Nick_Dissertation_EX1,1,328,2020-04-06T08:10:53-07:00,2.150710105896,2,versionA_stim.csv,READVersionB.csv,"Read Version B","Dissertation, read only version B",PAST,FUTURE,Study1,S,61,13,Test,User,-,,Recall,Recall2,1714,,0,-1,-1,0,0,,1
w982047,l3jm8zvd9e,Nick_Dissertation_EX1,1,329,2020-04-06T08:10:57-07:00,4.151303768158,2,versionA_stim.csv,READVersionB.csv,"Read Version B","Dissertation, read only version B",BABY,CHILD,Study1,S,64,67,Test,User,-,,Recall,Recall2,3736,CHILD,100,1559,2197,1,1,,1
w982047,l3jm8zvd9e,Nick_Dissertation_EX1,1,330,2020-04-06T08:10:59-07:00,1.3908162117004,2,versionA_stim.csv,READVersionB.csv,"Read Version B","Dissertation, read only version B",POP,SODA,Study1,S,56,80,Test,User,-,,Recall,Recall2,964,,0,-1,-1,0,0,,1
w982047,l3jm8zvd9e,Nick_Dissertation_EX1,1,331,2020-04-06T08:11:05-07:00,5.9756479263306,2,versionA_stim.csv,READVersionB.csv,"Read Version B","Dissertation, read only version B",PUSHER,CLUTTER,Study1,U,66,46,Test,User,-,,Recall,Recall2,5533,C,25,3973,3973,0,0,,1
w982047,l3jm8zvd9e,Nick_Dissertation_EX1,1,332,2020-04-06T08:11:06-07:00,1.3991799354553,2,versionA_stim.csv,READVersionB.csv,"Read Version B","Dissertation, read only version B",BITTER,COLD,Study1,F,12,12,Test,User,-,,Recall,Recall2,942,,0,-1,-1,0,0,,1
w982047,l3jm8zvd9e,Nick_Dissertation_EX1,1,333,2020-04-06T08:11:12-07:00,6.359363079071,2,versionA_stim.csv,READVersionB.csv,"Read Version B","Dissertation, read only version B",WAGE,MONEY,Study1,F,8,71,Test,User,-,,Recall,Recall2,5939,PAY,25,4648,5142,0,0,,1
w982047,l3jm8zvd9e,Nick_Dissertation_EX1,1,334,2020-04-06T08:11:14-07:00,1.6553900241852,2,versionA_stim.csv,READVersionB.csv,"Read Version B","Dissertation, read only version B",WORK,CHORE,Study1,B,39,77,Test,User,-,,Recall,Recall2,1189,,0,-1,-1,0,0,,1
w982047,l3jm8zvd9e,Nick_Dissertation_EX1,1,335,2020-04-06T08:11:17-07:00,3.0616049766541,2,versionA_stim.csv,READVersionB.csv,"Read Version B","Dissertation, read only version B",SUGAR,RIDDLE,Study1,U,81,15,Test,User,-,,Recall,Recall2,2615,B,0,1584,1584,0,0,,1
w982047,l3jm8zvd9e,Nick_Dissertation_EX1,1,336,2020-04-06T08:11:20-07:00,3.1610090732574,2,versionA_stim.csv,READVersionB.csv,"Read Version B","Dissertation, read only version B",SENTENCE,WORD,Study1,B,31,84,Test,User,-,,Recall,Recall2,2672,WORD,100,1621,2164,1,1,,1
w982047,l3jm8zvd9e,Nick_Dissertation_EX1,1,337,2020-04-06T08:11:22-07:00,1.4032328128815,2,versionA_stim.csv,READVersionB.csv,"Read Version B","Dissertation, read only version B",GRILL,BAR,Study1,S,52,74,Test,User,-,,Recall,Recall2,970,,0,-1,-1,0,0,,1
w982047,l3jm8zvd9e,Nick_Dissertation_EX1,1,338,2020-04-06T08:11:25-07:00,2.8716039657593,2,versionA_stim.csv,READVersionB.csv,"Read Version B","Dissertation, read only version B",BEGIN,END,Study1,S,54,50,Test,User,-,,Recall,Recall2,2403,END,100,1415,1744,1,1,,1
w982047,l3jm8zvd9e,Nick_Dissertation_EX1,1,339,2020-04-06T08:11:28-07:00,3.7416751384735,2,versionA_stim.csv,READVersionB.csv,"Read Version B","Dissertation, read only version B",BATHROOM,TOILET,Study1,S,58,31,Test,User,-,,Recall,Recall2,3217,TOILET,100,1454,2261,1,1,,1
w982047,l3jm8zvd9e,Nick_Dissertation_EX1,1,340,2020-04-06T08:11:30-07:00,1.7826199531555,2,versionA_stim.csv,READVersionB.csv,"Read Version B","Dissertation, read only version B",DRINK,SIP,Study1,B,27,39,Test,User,-,,Recall,Recall2,1327,,0,-1,-1,0,0,,1
w982047,l3jm8zvd9e,Nick_Dissertation_EX1,1,341,2020-04-06T08:11:34-07:00,3.9989910125732,2,versionA_stim.csv,READVersionB.csv,"Read Version B","Dissertation, read only version B",BUG,WASP,Study1,B,32,53,Test,User,-,,Recall,Recall2,3577,,0,-1,-1,0,0,,1
w982047,l3jm8zvd9e,Nick_Dissertation_EX1,1,342,2020-04-06T08:11:37-07:00,2.7948980331421,2,versionA_stim.csv,READVersionB.csv,"Read Version B","Dissertation, read only version B",HERD,COW,Study1,F,22,21,Test,User,-,,Recall,Recall2,2327,COW,100,1246,1665,1,1,,1
w982047,l3jm8zvd9e,Nick_Dissertation_EX1,1,343,2020-04-06T08:11:39-07:00,2.4678950309753,2,versionA_stim.csv,READVersionB.csv,"Read Version B","Dissertation, read only version B",FULL,ENOUGH,Study1,B,26,35,Test,User,-,,Recall,Recall2,1964,,0,-1,-1,0,0,,1
w982047,l3jm8zvd9e,Nick_Dissertation_EX1,1,344,2020-04-06T08:12:05-07:00,25.952472925186,2,versionA_stim.csv,READVersionB.csv,"Read Version B","Dissertation, read only version B",WINE,CHEESE,Study1,S,57,47,Test,User,-,,Recall,Recall2,3781,CHEESE,100,1671,2883,1,1,,1
w982047,l3jm8zvd9e,Nick_Dissertation_EX1,1,345,2020-04-06T08:12:15-07:00,9.302127122879,2,versionA_stim.csv,READVersionB.csv,"Read Version B","Dissertation, read only version B",SHOE,FOOT,Study1,S,60,76,Test,User,-,,Recall,Recall2,8627,LACE,0,6528,8162,0,0,,1
w982047,l3jm8zvd9e,Nick_Dissertation_EX1,1,346,2020-04-06T08:12:18-07:00,3.5667788982391,2,versionA_stim.csv,READVersionB.csv,"Read Version B","Dissertation, read only version B",GREAT,FANTASTIC,Study1,B,35,51,Test,User,-,,Recall,Recall2,2825,GOOD,0,1743,2267,0,0,,1
w982047,l3jm8zvd9e,Nick_Dissertation_EX1,1,347,2020-04-06T08:12:21-07:00,2.5030720233917,2,versionA_stim.csv,READVersionB.csv,"Read Version B","Dissertation, read only version B",KIDNEY,LIVER,Study1,S,53,65,Test,User,-,,Recall,Recall2,2036,LIVER,100,987,1587,1,1,,1
w982047,l3jm8zvd9e,Nick_Dissertation_EX1,1,348,2020-04-06T08:12:30-07:00,9.2815170288086,2,versionA_stim.csv,READVersionB.csv,"Read Version B","Dissertation, read only version B",LAW,ATTORNEY,Study1,B,34,73,Test,User,-,,Recall,Recall2,8790,ATTORNEY,100,1566,4585,1,1,,1
w982047,l3jm8zvd9e,Nick_Dissertation_EX1,1,349,2020-04-06T08:12:32-07:00,2.3187170028687,2,versionA_stim.csv,READVersionB.csv,"Read Version B","Dissertation, read only version B",,,,,,0,Instruct,User,-,"You have completed this section. Please press Enter.",,Instruct7,1720,,,-1,-1,,,,1
w982047,l3jm8zvd9e,Nick_Dissertation_EX1,1,350,2020-04-06T08:12:35-07:00,3.0236518383026,2,versionA_stim.csv,READVersionB.csv,"Read Version B","Dissertation, read only version B",,,,,,0,Instruct,User,-,"The following screen will ask you a few questions abour your experience today. You must complete these questions to receive credit.",,Instruct8,2574,,,-1,-1,,,,1
