Username,ID,ExperimentName,Session,Trial,Date,TimeDif,"Condition Number","Stimuli File","Order File","Condition Description","Condition Notes",Stimuli*Cue,Stimuli*Answer,Stimuli*Shuffle,"Stimuli*Stimuli Notes",Stimuli*Value,Procedure*Item,"Procedure*Trial Type","Procedure*Max Time","Procedure*Min Time",Procedure*Text,"Procedure*Procedure Notes",Procedure*Shuffle,Response*RT,Response*Response,Response*Accuracy,Response*RTfirst,Response*RTlast,Response*strictAcc,Response*lenientAcc,Response*focus,Response*Focus
w10005410,tfom6ldks0,Nick_Dissertation_EX1,1,1,2020-04-20T16:21:04-07:00,10.488731145859,2,versionA_stim.csv,READVersionB.csv,"Read Version B","Dissertation, read only version B",,,,,,0,Instruct,-,10,"Please study each of the following word pairs. Remember that your memory will be tested! When finished, press Enter to move to the next pair.",Initial_Instruct,Instruct1,10240,,,-1,-1,,,,1
w10005410,tfom6ldks0,Nick_Dissertation_EX1,1,2,2020-04-20T16:21:08-07:00,4.5807318687439,2,versionA_stim.csv,READVersionB.csv,"Read Version B","Dissertation, read only version B",CARROT,POTATO,BUFFER3,Buffer,91,93,Study,User,-,,Study/JOL,BUFFER,4181,,,-1,-1,,,,1
w10005410,tfom6ldks0,Nick_Dissertation_EX1,1,3,2020-04-20T16:21:32-07:00,23.31912612915,2,versionA_stim.csv,READVersionB.csv,"Read Version B","Dissertation, read only version B",CAMP,ADVENTURE,BUFFER3,Buffer,95,94,Study,User,-,,Study/JOL,BUFFER,4737,,,-1,-1,,,,0.958
w10005410,tfom6ldks0,Nick_Dissertation_EX1,1,4,2020-04-20T16:21:39-07:00,7.5158109664917,2,versionA_stim.csv,READVersionB.csv,"Read Version B","Dissertation, read only version B",NOODLE,STRING,BUFFER3,Buffer,92,96,Study,User,-,,Study/JOL,BUFFER,1621,,,-1,-1,,,,0.889
w10005410,tfom6ldks0,Nick_Dissertation_EX1,1,5,2020-04-20T16:21:48-07:00,8.9205348491669,2,versionA_stim.csv,READVersionB.csv,"Read Version B","Dissertation, read only version B",ICE,FROZEN,BUFFER3,Buffer,94,92,Study,User,-,,Study/JOL,BUFFER,8605,,,-1,-1,,,,1
w10005410,tfom6ldks0,Nick_Dissertation_EX1,1,6,2020-04-20T16:21:55-07:00,6.7678771018982,2,versionA_stim.csv,READVersionB.csv,"Read Version B","Dissertation, read only version B",SHRIMP,FISH,BUFFER3,Buffer,93,95,Study,User,-,,Study/JOL,BUFFER,1576,,,-1,-1,,,,0.875
w10005410,tfom6ldks0,Nick_Dissertation_EX1,1,7,2020-04-20T16:22:01-07:00,6.1641988754272,2,versionA_stim.csv,READVersionB.csv,"Read Version B","Dissertation, read only version B",TURN,FLIP,Study2,B,116,172,Study,User,-,,Study/JOL,"Study Phase",1228,,,-1,-1,,,,0.857
w10005410,tfom6ldks0,Nick_Dissertation_EX1,1,8,2020-04-20T16:22:12-07:00,10.745059013367,2,versionA_stim.csv,READVersionB.csv,"Read Version B","Dissertation, read only version B",NAME,HATE,Study2,U,167,124,Study,User,-,,Study/JOL,"Study Phase",10431,,,-1,-1,,,,1
w10005410,tfom6ldks0,Nick_Dissertation_EX1,1,9,2020-04-20T16:22:19-07:00,6.9636251926422,2,versionA_stim.csv,READVersionB.csv,"Read Version B","Dissertation, read only version B",OWN,HAVE,Study2,S,153,173,Study,User,-,,Study/JOL,"Study Phase",2144,,,-1,-1,,,,0.909
w10005410,tfom6ldks0,Nick_Dissertation_EX1,1,10,2020-04-20T16:22:28-07:00,9.6821749210358,2,versionA_stim.csv,READVersionB.csv,"Read Version B","Dissertation, read only version B",INCENSE,SMELL,Study2,F,110,175,Study,User,-,,Study/JOL,"Study Phase",2434,,,-1,-1,,,,0.923
w10005410,tfom6ldks0,Nick_Dissertation_EX1,1,11,2020-04-20T16:22:35-07:00,6.3007750511169,2,versionA_stim.csv,READVersionB.csv,"Read Version B","Dissertation, read only version B",STRETCH,CLOTH,Study2,U,157,161,Study,User,-,,Study/JOL,"Study Phase",1353,,,-1,-1,,,,0.857
w10005410,tfom6ldks0,Nick_Dissertation_EX1,1,12,2020-04-20T16:22:41-07:00,6.5717089176178,2,versionA_stim.csv,READVersionB.csv,"Read Version B","Dissertation, read only version B",SLEEP,NAP,Study2,B,134,138,Study,User,-,,Study/JOL,"Study Phase",1631,,,-1,-1,,,,0.889
w10005410,tfom6ldks0,Nick_Dissertation_EX1,1,13,2020-04-20T16:22:46-07:00,5.1730539798737,2,versionA_stim.csv,READVersionB.csv,"Read Version B","Dissertation, read only version B",LISTEN,FICTION,Study2,U,164,174,Study,User,-,,Study/JOL,"Study Phase",1212,,,-1,-1,,,,0.857
w10005410,tfom6ldks0,Nick_Dissertation_EX1,1,14,2020-04-20T16:23:13-07:00,26.259589910507,2,versionA_stim.csv,READVersionB.csv,"Read Version B","Dissertation, read only version B",MAIN,SCAR,Study2,U,175,105,Study,User,-,,Study/JOL,"Study Phase",19390,,,-1,-1,,,,0.99
w10005410,tfom6ldks0,Nick_Dissertation_EX1,1,15,2020-04-20T16:23:15-07:00,2.0739250183105,2,versionA_stim.csv,READVersionB.csv,"Read Version B","Dissertation, read only version B",RIGHTS,EQUAL,Study2,S,137,109,Study,User,-,,Study/JOL,"Study Phase",1814,,,-1,-1,,,,1
w10005410,tfom6ldks0,Nick_Dissertation_EX1,1,16,2020-04-20T16:23:17-07:00,1.8501620292664,2,versionA_stim.csv,READVersionB.csv,"Read Version B","Dissertation, read only version B",KEYS,JOKE,Study2,U,165,111,Study,User,-,,Study/JOL,"Study Phase",1591,,,-1,-1,,,,1
w10005410,tfom6ldks0,Nick_Dissertation_EX1,1,17,2020-04-20T16:23:23-07:00,5.9906470775604,2,versionA_stim.csv,READVersionB.csv,"Read Version B","Dissertation, read only version B",LOAN,SIGN,Study2,U,171,154,Study,User,-,,Study/JOL,"Study Phase",1747,,,-1,-1,,,,0.889
w10005410,tfom6ldks0,Nick_Dissertation_EX1,1,18,2020-04-20T16:23:24-07:00,1.223228931427,2,versionA_stim.csv,READVersionB.csv,"Read Version B","Dissertation, read only version B",FURRY,DOG,Study2,F,102,126,Study,User,-,,Study/JOL,"Study Phase",969,,,-1,-1,,,,1
w10005410,tfom6ldks0,Nick_Dissertation_EX1,1,19,2020-04-20T16:23:25-07:00,1.5129959583282,2,versionA_stim.csv,READVersionB.csv,"Read Version B","Dissertation, read only version B",MAZE,ELECTION,Study2,U,159,144,Study,User,-,,Study/JOL,"Study Phase",1280,,,-1,-1,,,,1
w10005410,tfom6ldks0,Nick_Dissertation_EX1,1,20,2020-04-20T16:23:27-07:00,1.8403611183167,2,versionA_stim.csv,READVersionB.csv,"Read Version B","Dissertation, read only version B",MOAT,CLEAR,Study2,U,169,158,Study,User,-,,Study/JOL,"Study Phase",1608,,,-1,-1,,,,1
w10005410,tfom6ldks0,Nick_Dissertation_EX1,1,21,2020-04-20T16:23:29-07:00,2.1025328636169,2,versionA_stim.csv,READVersionB.csv,"Read Version B","Dissertation, read only version B",TRUTH,LIE,Study2,S,148,141,Study,User,-,,Study/JOL,"Study Phase",1871,,,-1,-1,,,,1
w10005410,tfom6ldks0,Nick_Dissertation_EX1,1,22,2020-04-20T16:23:31-07:00,1.6237621307373,2,versionA_stim.csv,READVersionB.csv,"Read Version B","Dissertation, read only version B",LEASE,TOIL,Study2,U,170,162,Study,User,-,,Study/JOL,"Study Phase",1391,,,-1,-1,,,,1
w10005410,tfom6ldks0,Nick_Dissertation_EX1,1,23,2020-04-20T16:23:33-07:00,1.7558469772339,2,versionA_stim.csv,READVersionB.csv,"Read Version B","Dissertation, read only version B",HONEST,TRUTHFUL,Study2,B,133,119,Study,User,-,,Study/JOL,"Study Phase",1524,,,-1,-1,,,,1
w10005410,tfom6ldks0,Nick_Dissertation_EX1,1,24,2020-04-20T16:23:34-07:00,1.2465291023254,2,versionA_stim.csv,READVersionB.csv,"Read Version B","Dissertation, read only version B",STAR,ACTRESS,Study2,B,120,137,Study,User,-,,Study/JOL,"Study Phase",1020,,,-1,-1,,,,1
w10005410,tfom6ldks0,Nick_Dissertation_EX1,1,25,2020-04-20T16:23:35-07:00,1.021833896637,2,versionA_stim.csv,READVersionB.csv,"Read Version B","Dissertation, read only version B",VEHICLE,CHARM,Study2,U,160,176,Study,User,-,,Study/JOL,"Study Phase",792,,,-1,-1,,,,1
w10005410,tfom6ldks0,Nick_Dissertation_EX1,1,26,2020-04-20T16:23:36-07:00,1.005765914917,2,versionA_stim.csv,READVersionB.csv,"Read Version B","Dissertation, read only version B",BOTH,OUNCE,Study2,U,172,130,Study,User,-,,Study/JOL,"Study Phase",781,,,-1,-1,,,,1
w10005410,tfom6ldks0,Nick_Dissertation_EX1,1,27,2020-04-20T16:23:37-07:00,0.79586911201477,2,versionA_stim.csv,READVersionB.csv,"Read Version B","Dissertation, read only version B",LITTER,TRASH,Study2,F,103,171,Study,User,-,,Study/JOL,"Study Phase",566,,,-1,-1,,,,1
w10005410,tfom6ldks0,Nick_Dissertation_EX1,1,28,2020-04-20T16:23:38-07:00,0.71998190879822,2,versionA_stim.csv,READVersionB.csv,"Read Version B","Dissertation, read only version B",MULE,DONKEY,Study2,F,108,118,Study,User,-,,Study/JOL,"Study Phase",486,,,-1,-1,,,,1
w10005410,tfom6ldks0,Nick_Dissertation_EX1,1,29,2020-04-20T16:23:38-07:00,0.93248915672302,2,versionA_stim.csv,READVersionB.csv,"Read Version B","Dissertation, read only version B",DETECTIVE,MYSTERY,Study2,F,100,127,Study,User,-,,Study/JOL,"Study Phase",702,,,-1,-1,,,,1
w10005410,tfom6ldks0,Nick_Dissertation_EX1,1,30,2020-04-20T16:23:39-07:00,0.80238890647888,2,versionA_stim.csv,READVersionB.csv,"Read Version B","Dissertation, read only version B",FLEA,TICK,Study2,S,151,163,Study,User,-,,Study/JOL,"Study Phase",566,,,-1,-1,,,,1
w10005410,tfom6ldks0,Nick_Dissertation_EX1,1,31,2020-04-20T16:23:40-07:00,0.68297290802002,2,versionA_stim.csv,READVersionB.csv,"Read Version B","Dissertation, read only version B",ROD,REEL,Study2,S,150,98,Study,User,-,,Study/JOL,"Study Phase",450,,,-1,-1,,,,1
w10005410,tfom6ldks0,Nick_Dissertation_EX1,1,32,2020-04-20T16:23:41-07:00,0.82962703704834,2,versionA_stim.csv,READVersionB.csv,"Read Version B","Dissertation, read only version B",EVEN,REVENGE,Study2,B,122,113,Study,User,-,,Study/JOL,"Study Phase",599,,,-1,-1,,,,1
w10005410,tfom6ldks0,Nick_Dissertation_EX1,1,33,2020-04-20T16:23:41-07:00,0.73760294914246,2,versionA_stim.csv,READVersionB.csv,"Read Version B","Dissertation, read only version B",CAR,WINDSHIELD,Study2,B,117,101,Study,User,-,,Study/JOL,"Study Phase",510,,,-1,-1,,,,1
w10005410,tfom6ldks0,Nick_Dissertation_EX1,1,34,2020-04-20T16:23:43-07:00,1.1511001586914,2,versionA_stim.csv,READVersionB.csv,"Read Version B","Dissertation, read only version B",GONE,AWAY,Study2,S,142,160,Study,User,-,,Study/JOL,"Study Phase",915,,,-1,-1,,,,1
w10005410,tfom6ldks0,Nick_Dissertation_EX1,1,35,2020-04-20T16:23:44-07:00,1.0822379589081,2,versionA_stim.csv,READVersionB.csv,"Read Version B","Dissertation, read only version B",CAKE,CLOTHES,Study2,U,166,164,Study,User,-,,Study/JOL,"Study Phase",847,,,-1,-1,,,,1
w10005410,tfom6ldks0,Nick_Dissertation_EX1,1,36,2020-04-20T16:23:51-07:00,7.0142650604248,2,versionA_stim.csv,READVersionB.csv,"Read Version B","Dissertation, read only version B",RAZOR,SHAVE,Study2,S,136,159,Study,User,-,,Study/JOL,"Study Phase",6703,,,-1,-1,,,,1
w10005410,tfom6ldks0,Nick_Dissertation_EX1,1,37,2020-04-20T16:23:52-07:00,0.89301896095276,2,versionA_stim.csv,READVersionB.csv,"Read Version B","Dissertation, read only version B",BIRD,PENGUIN,Study2,B,119,125,Study,User,-,,Study/JOL,"Study Phase",637,,,-1,-1,,,,1
w10005410,tfom6ldks0,Nick_Dissertation_EX1,1,38,2020-04-20T16:23:53-07:00,0.88035202026367,2,versionA_stim.csv,READVersionB.csv,"Read Version B","Dissertation, read only version B",CANDLE,WAX,Study2,S,139,116,Study,User,-,,Study/JOL,"Study Phase",651,,,-1,-1,,,,1
w10005410,tfom6ldks0,Nick_Dissertation_EX1,1,39,2020-04-20T16:23:53-07:00,0.88420796394348,2,versionA_stim.csv,READVersionB.csv,"Read Version B","Dissertation, read only version B",JUSTICE,MAROON,Study2,U,156,104,Study,User,-,,Study/JOL,"Study Phase",647,,,-1,-1,,,,1
w10005410,tfom6ldks0,Nick_Dissertation_EX1,1,40,2020-04-20T16:23:55-07:00,1.836030960083,2,versionA_stim.csv,READVersionB.csv,"Read Version B","Dissertation, read only version B",DOCUMENT,PAPER,Study2,F,109,168,Study,User,-,,Study/JOL,"Study Phase",592,,,-1,-1,,,,1
w10005410,tfom6ldks0,Nick_Dissertation_EX1,1,41,2020-04-20T16:23:58-07:00,3.0957319736481,2,versionA_stim.csv,READVersionB.csv,"Read Version B","Dissertation, read only version B",DRY,WET,Study2,S,146,152,Study,User,-,,Study/JOL,"Study Phase",1446,,,-1,-1,,,,1
w10005410,tfom6ldks0,Nick_Dissertation_EX1,1,42,2020-04-20T16:23:59-07:00,0.99959802627563,2,versionA_stim.csv,READVersionB.csv,"Read Version B","Dissertation, read only version B",EARTH,GROUND,Study2,S,144,169,Study,User,-,,Study/JOL,"Study Phase",765,,,-1,-1,,,,1
w10005410,tfom6ldks0,Nick_Dissertation_EX1,1,43,2020-04-20T16:24:00-07:00,1.0726571083069,2,versionA_stim.csv,READVersionB.csv,"Read Version B","Dissertation, read only version B",EXTENSION,LONG,Study2,F,96,122,Study,User,-,,Study/JOL,"Study Phase",834,,,-1,-1,,,,1
w10005410,tfom6ldks0,Nick_Dissertation_EX1,1,44,2020-04-20T16:24:01-07:00,0.99717998504639,2,versionA_stim.csv,READVersionB.csv,"Read Version B","Dissertation, read only version B",FEUD,FIGHT,Study2,F,113,136,Study,User,-,,Study/JOL,"Study Phase",755,,,-1,-1,,,,1
w10005410,tfom6ldks0,Nick_Dissertation_EX1,1,45,2020-04-20T16:24:02-07:00,1.0078818798065,2,versionA_stim.csv,READVersionB.csv,"Read Version B","Dissertation, read only version B",DRIVER,CAR,Study2,F,106,165,Study,User,-,,Study/JOL,"Study Phase",769,,,-1,-1,,,,1
w10005410,tfom6ldks0,Nick_Dissertation_EX1,1,46,2020-04-20T16:24:03-07:00,0.92016196250916,2,versionA_stim.csv,READVersionB.csv,"Read Version B","Dissertation, read only version B",CHERRY,RED,Study2,F,104,103,Study,User,-,,Study/JOL,"Study Phase",680,,,-1,-1,,,,1
w10005410,tfom6ldks0,Nick_Dissertation_EX1,1,47,2020-04-20T16:24:04-07:00,0.9770040512085,2,versionA_stim.csv,READVersionB.csv,"Read Version B","Dissertation, read only version B",SUN,TAN,Study2,S,155,155,Study,User,-,,Study/JOL,"Study Phase",734,,,-1,-1,,,,1
w10005410,tfom6ldks0,Nick_Dissertation_EX1,1,48,2020-04-20T16:24:05-07:00,0.94141316413879,2,versionA_stim.csv,READVersionB.csv,"Read Version B","Dissertation, read only version B",WATER,DRINK,Study2,S,143,123,Study,User,-,,Study/JOL,"Study Phase",683,,,-1,-1,,,,1
w10005410,tfom6ldks0,Nick_Dissertation_EX1,1,49,2020-04-20T16:24:06-07:00,0.91709995269775,2,versionA_stim.csv,READVersionB.csv,"Read Version B","Dissertation, read only version B",BASEBALL,LEAGUE,Study2,B,131,142,Study,User,-,,Study/JOL,"Study Phase",674,,,-1,-1,,,,1
w10005410,tfom6ldks0,Nick_Dissertation_EX1,1,50,2020-04-20T16:24:07-07:00,0.97895002365112,2,versionA_stim.csv,READVersionB.csv,"Read Version B","Dissertation, read only version B",AFFECTION,LOVE,Study2,F,115,156,Study,User,-,,Study/JOL,"Study Phase",733,,,-1,-1,,,,1
w10005410,tfom6ldks0,Nick_Dissertation_EX1,1,51,2020-04-20T16:24:08-07:00,0.93866395950317,2,versionA_stim.csv,READVersionB.csv,"Read Version B","Dissertation, read only version B",MIRROR,CHILDREN,Study2,U,174,110,Study,User,-,,Study/JOL,"Study Phase",707,,,-1,-1,,,,1
w10005410,tfom6ldks0,Nick_Dissertation_EX1,1,52,2020-04-20T16:24:09-07:00,0.86148190498352,2,versionA_stim.csv,READVersionB.csv,"Read Version B","Dissertation, read only version B",FUZZY,BANG,Study2,U,168,97,Study,User,-,,Study/JOL,"Study Phase",615,,,-1,-1,,,,1
w10005410,tfom6ldks0,Nick_Dissertation_EX1,1,53,2020-04-20T16:24:10-07:00,0.91377305984497,2,versionA_stim.csv,READVersionB.csv,"Read Version B","Dissertation, read only version B",DEAD,COFFIN,Study2,B,128,128,Study,User,-,,Study/JOL,"Study Phase",668,,,-1,-1,,,,1
w10005410,tfom6ldks0,Nick_Dissertation_EX1,1,54,2020-04-20T16:24:11-07:00,0.99770188331604,2,versionA_stim.csv,READVersionB.csv,"Read Version B","Dissertation, read only version B",SCALP,HEAD,Study2,F,105,139,Study,User,-,,Study/JOL,"Study Phase",729,,,-1,-1,,,,1
w10005410,tfom6ldks0,Nick_Dissertation_EX1,1,55,2020-04-20T16:24:12-07:00,0.77899718284607,2,versionA_stim.csv,READVersionB.csv,"Read Version B","Dissertation, read only version B",GIVE,STEAK,Study2,U,158,147,Study,User,-,,Study/JOL,"Study Phase",539,,,-1,-1,,,,1
w10005410,tfom6ldks0,Nick_Dissertation_EX1,1,56,2020-04-20T16:24:12-07:00,0.79679894447327,2,versionA_stim.csv,READVersionB.csv,"Read Version B","Dissertation, read only version B",BAD,VILLAIN,Study2,B,118,146,Study,User,-,,Study/JOL,"Study Phase",555,,,-1,-1,,,,1
w10005410,tfom6ldks0,Nick_Dissertation_EX1,1,57,2020-04-20T16:24:13-07:00,0.77898788452148,2,versionA_stim.csv,READVersionB.csv,"Read Version B","Dissertation, read only version B",WRIST,BRACELET,Study2,S,140,157,Study,User,-,,Study/JOL,"Study Phase",543,,,-1,-1,,,,1
w10005410,tfom6ldks0,Nick_Dissertation_EX1,1,58,2020-04-20T16:24:14-07:00,0.7905330657959,2,versionA_stim.csv,READVersionB.csv,"Read Version B","Dissertation, read only version B",ALONE,LONELY,Study2,S,145,106,Study,User,-,,Study/JOL,"Study Phase",555,,,-1,-1,,,,1
w10005410,tfom6ldks0,Nick_Dissertation_EX1,1,59,2020-04-20T16:24:15-07:00,1.0022699832916,2,versionA_stim.csv,READVersionB.csv,"Read Version B","Dissertation, read only version B",CLUE,GAME,Study2,F,97,145,Study,User,-,,Study/JOL,"Study Phase",750,,,-1,-1,,,,1
w10005410,tfom6ldks0,Nick_Dissertation_EX1,1,60,2020-04-20T16:24:16-07:00,1.0677769184113,2,versionA_stim.csv,READVersionB.csv,"Read Version B","Dissertation, read only version B",SAFETY,SEATBELT,Study2,S,147,100,Study,User,-,,Study/JOL,"Study Phase",813,,,-1,-1,,,,1
w10005410,tfom6ldks0,Nick_Dissertation_EX1,1,61,2020-04-20T16:24:17-07:00,1.3735492229462,2,versionA_stim.csv,READVersionB.csv,"Read Version B","Dissertation, read only version B",ELEMENT,CARBON,Study2,S,141,102,Study,User,-,,Study/JOL,"Study Phase",1132,,,-1,-1,,,,1
w10005410,tfom6ldks0,Nick_Dissertation_EX1,1,62,2020-04-20T16:24:18-07:00,0.72376084327698,2,versionA_stim.csv,READVersionB.csv,"Read Version B","Dissertation, read only version B",FISH,SARDINE,Study2,B,130,108,Study,User,-,,Study/JOL,"Study Phase",404,,,-1,-1,,,,1
w10005410,tfom6ldks0,Nick_Dissertation_EX1,1,63,2020-04-20T16:24:20-07:00,1.6379041671753,2,versionA_stim.csv,READVersionB.csv,"Read Version B","Dissertation, read only version B",CHILL,COLD,Study2,F,114,140,Study,User,-,,Study/JOL,"Study Phase",1364,,,-1,-1,,,,1
w10005410,tfom6ldks0,Nick_Dissertation_EX1,1,64,2020-04-20T16:24:21-07:00,0.77118492126465,2,versionA_stim.csv,READVersionB.csv,"Read Version B","Dissertation, read only version B",CACTUS,PLANT,Study2,F,98,166,Study,User,-,,Study/JOL,"Study Phase",509,,,-1,-1,,,,1
w10005410,tfom6ldks0,Nick_Dissertation_EX1,1,65,2020-04-20T16:24:21-07:00,0.83387303352356,2,versionA_stim.csv,READVersionB.csv,"Read Version B","Dissertation, read only version B",TEMPERATURE,Morning,Study2,U,173,153,Study,User,-,,Study/JOL,"Study Phase",591,,,-1,-1,,,,1
w10005410,tfom6ldks0,Nick_Dissertation_EX1,1,66,2020-04-20T16:24:22-07:00,0.84599590301514,2,versionA_stim.csv,READVersionB.csv,"Read Version B","Dissertation, read only version B",ADJOURN,END,Study2,F,101,112,Study,User,-,,Study/JOL,"Study Phase",614,,,-1,-1,,,,1
w10005410,tfom6ldks0,Nick_Dissertation_EX1,1,67,2020-04-20T16:24:23-07:00,0.81131792068481,2,versionA_stim.csv,READVersionB.csv,"Read Version B","Dissertation, read only version B",PHONE,COMMUNICATION,Study2,S,149,117,Study,User,-,,Study/JOL,"Study Phase",583,,,-1,-1,,,,1
w10005410,tfom6ldks0,Nick_Dissertation_EX1,1,68,2020-04-20T16:24:24-07:00,1.2039120197296,2,versionA_stim.csv,READVersionB.csv,"Read Version B","Dissertation, read only version B",MEAT,OBTAIN,Study2,U,161,150,Study,User,-,,Study/JOL,"Study Phase",961,,,-1,-1,,,,1
w10005410,tfom6ldks0,Nick_Dissertation_EX1,1,69,2020-04-20T16:24:27-07:00,2.7421112060547,2,versionA_stim.csv,READVersionB.csv,"Read Version B","Dissertation, read only version B",BEST,FAVORITE,Study2,B,125,114,Study,User,-,,Study/JOL,"Study Phase",1494,,,-1,-1,,,,1
w10005410,tfom6ldks0,Nick_Dissertation_EX1,1,70,2020-04-20T16:24:32-07:00,4.8920037746429,2,versionA_stim.csv,READVersionB.csv,"Read Version B","Dissertation, read only version B",POP,BALLOON,Study2,B,123,132,Study,User,-,,Study/JOL,"Study Phase",1264,,,-1,-1,,,,1
w10005410,tfom6ldks0,Nick_Dissertation_EX1,1,71,2020-04-20T16:24:33-07:00,1.5766730308533,2,versionA_stim.csv,READVersionB.csv,"Read Version B","Dissertation, read only version B",SHOELACE,TIE,Study2,F,99,120,Study,User,-,,Study/JOL,"Study Phase",1338,,,-1,-1,,,,1
w10005410,tfom6ldks0,Nick_Dissertation_EX1,1,72,2020-04-20T16:24:35-07:00,1.0786650180817,2,versionA_stim.csv,READVersionB.csv,"Read Version B","Dissertation, read only version B",DINE,EAT,Study2,F,111,167,Study,User,-,,Study/JOL,"Study Phase",851,,,-1,-1,,,,1
w10005410,tfom6ldks0,Nick_Dissertation_EX1,1,73,2020-04-20T16:24:35-07:00,0.85631799697876,2,versionA_stim.csv,READVersionB.csv,"Read Version B","Dissertation, read only version B",FRUIT,STRAWBERRY,Study2,B,124,134,Study,User,-,,Study/JOL,"Study Phase",623,,,-1,-1,,,,1
w10005410,tfom6ldks0,Nick_Dissertation_EX1,1,74,2020-04-20T16:24:36-07:00,0.81350207328796,2,versionA_stim.csv,READVersionB.csv,"Read Version B","Dissertation, read only version B",CRACKLE,ABLE,Study2,U,162,133,Study,User,-,,Study/JOL,"Study Phase",568,,,-1,-1,,,,1
w10005410,tfom6ldks0,Nick_Dissertation_EX1,1,75,2020-04-20T16:24:37-07:00,0.88587808609009,2,versionA_stim.csv,READVersionB.csv,"Read Version B","Dissertation, read only version B",GLASS,BREAKABLE,Study2,B,127,151,Study,User,-,,Study/JOL,"Study Phase",657,,,-1,-1,,,,1
w10005410,tfom6ldks0,Nick_Dissertation_EX1,1,76,2020-04-20T16:24:38-07:00,0.8060348033905,2,versionA_stim.csv,READVersionB.csv,"Read Version B","Dissertation, read only version B",CAT,PANTHER,Study2,B,126,131,Study,User,-,,Study/JOL,"Study Phase",573,,,-1,-1,,,,1
w10005410,tfom6ldks0,Nick_Dissertation_EX1,1,77,2020-04-20T16:24:39-07:00,0.8140721321106,2,versionA_stim.csv,READVersionB.csv,"Read Version B","Dissertation, read only version B",TANTRUM,TEMPER,Study2,S,154,107,Study,User,-,,Study/JOL,"Study Phase",562,,,-1,-1,,,,1
w10005410,tfom6ldks0,Nick_Dissertation_EX1,1,78,2020-04-20T16:24:39-07:00,0.74180507659912,2,versionA_stim.csv,READVersionB.csv,"Read Version B","Dissertation, read only version B",FIGHT,BRAWL,Study2,B,135,99,Study,User,-,,Study/JOL,"Study Phase",502,,,-1,-1,,,,1
w10005410,tfom6ldks0,Nick_Dissertation_EX1,1,79,2020-04-20T16:24:40-07:00,0.78134489059448,2,versionA_stim.csv,READVersionB.csv,"Read Version B","Dissertation, read only version B",MASON,JAR,Study2,S,138,121,Study,User,-,,Study/JOL,"Study Phase",552,,,-1,-1,,,,1
w10005410,tfom6ldks0,Nick_Dissertation_EX1,1,80,2020-04-20T16:24:41-07:00,0.8455228805542,2,versionA_stim.csv,READVersionB.csv,"Read Version B","Dissertation, read only version B",PLANE,AIRCRAFT,Study2,B,129,170,Study,User,-,,Study/JOL,"Study Phase",610,,,-1,-1,,,,1
w10005410,tfom6ldks0,Nick_Dissertation_EX1,1,81,2020-04-20T16:24:42-07:00,0.894287109375,2,versionA_stim.csv,READVersionB.csv,"Read Version B","Dissertation, read only version B",CHOP,CUT,Study2,F,107,148,Study,User,-,,Study/JOL,"Study Phase",662,,,-1,-1,,,,1
w10005410,tfom6ldks0,Nick_Dissertation_EX1,1,82,2020-04-20T16:24:43-07:00,0.83434104919434,2,versionA_stim.csv,READVersionB.csv,"Read Version B","Dissertation, read only version B",SHEARS,SCISSORS,Study2,F,112,129,Study,User,-,,Study/JOL,"Study Phase",607,,,-1,-1,,,,1
w10005410,tfom6ldks0,Nick_Dissertation_EX1,1,83,2020-04-20T16:24:44-07:00,0.83268785476685,2,versionA_stim.csv,READVersionB.csv,"Read Version B","Dissertation, read only version B",Shell,SHAKE,Study2,U,163,143,Study,User,-,,Study/JOL,"Study Phase",602,,,-1,-1,,,,1
w10005410,tfom6ldks0,Nick_Dissertation_EX1,1,84,2020-04-20T16:24:44-07:00,0.79118704795837,2,versionA_stim.csv,READVersionB.csv,"Read Version B","Dissertation, read only version B",LOUD,NOISE,Study2,S,152,149,Study,User,-,,Study/JOL,"Study Phase",561,,,-1,-1,,,,1
w10005410,tfom6ldks0,Nick_Dissertation_EX1,1,85,2020-04-20T16:24:45-07:00,0.76088809967041,2,versionA_stim.csv,READVersionB.csv,"Read Version B","Dissertation, read only version B",MONEY,BANKER,Study2,B,132,135,Study,User,-,,Study/JOL,"Study Phase",498,,,-1,-1,,,,1
w10005410,tfom6ldks0,Nick_Dissertation_EX1,1,86,2020-04-20T16:24:46-07:00,0.72875189781189,2,versionA_stim.csv,READVersionB.csv,"Read Version B","Dissertation, read only version B",THREAD,THIMBLE,Study2,B,121,115,Study,User,-,,Study/JOL,"Study Phase",495,,,-1,-1,,,,1
w10005410,tfom6ldks0,Nick_Dissertation_EX1,1,87,2020-04-20T16:24:47-07:00,0.72897911071777,2,versionA_stim.csv,READVersionB.csv,"Read Version B","Dissertation, read only version B",DAYS,WEAKS,BUFFER4,Buffer,176,180,Study,User,-,,Study/JOL,BUFFER2,494,,,-1,-1,,,,1
w10005410,tfom6ldks0,Nick_Dissertation_EX1,1,88,2020-04-20T16:24:48-07:00,1.2263360023499,2,versionA_stim.csv,READVersionB.csv,"Read Version B","Dissertation, read only version B",OCTOBER,SPOOKY,BUFFER4,Buffer,180,177,Study,User,-,,Study/JOL,BUFFER2,991,,,-1,-1,,,,1
w10005410,tfom6ldks0,Nick_Dissertation_EX1,1,89,2020-04-20T16:24:49-07:00,0.78985095024109,2,versionA_stim.csv,READVersionB.csv,"Read Version B","Dissertation, read only version B",SPRING,MARCH,BUFFER4,Buffer,179,178,Study,User,-,,Study/JOL,BUFFER2,550,,,-1,-1,,,,1
w10005410,tfom6ldks0,Nick_Dissertation_EX1,1,90,2020-04-20T16:24:49-07:00,0.78400897979736,2,versionA_stim.csv,READVersionB.csv,"Read Version B","Dissertation, read only version B",TOOL,SHED,BUFFER4,Buffer,178,181,Study,User,-,,Study/JOL,BUFFER2,550,,,-1,-1,,,,1
w10005410,tfom6ldks0,Nick_Dissertation_EX1,1,91,2020-04-20T16:24:50-07:00,0.74860310554504,2,versionA_stim.csv,READVersionB.csv,"Read Version B","Dissertation, read only version B",MONTH,YEAR,BUFFER4,Buffer,177,179,Study,User,-,,Study/JOL,BUFFER2,519,,,-1,-1,,,,1
w10005410,tfom6ldks0,Nick_Dissertation_EX1,1,92,2020-04-20T16:24:59-07:00,8.6976130008698,2,versionA_stim.csv,READVersionB.csv,"Read Version B","Dissertation, read only version B",,,,,,0,Instruct,User,-,"You have completed this section. Please press Enter.",Filler_Instruction,Instruct2,1909,,,-1,-1,,,,0.9
w10005410,tfom6ldks0,Nick_Dissertation_EX1,1,93,2020-04-20T16:26:59-07:00,120.38061189651,2,versionA_stim.csv,READVersionB.csv,"Read Version B","Dissertation, read only version B",,,,,,0,FreeRecall,120,120,"Please list the 50 US states in alphabetical order. The task will automatically advance to the next screen after two minutes.",,Filler1,120002,"alabama Alaska arizona Arkansas california Colorado Connecticut delaware Florida georgia hawaii Idaho Illinois indiana iow ",0,26031,119403,0,0,,1
w10005410,tfom6ldks0,Nick_Dissertation_EX1,1,94,2020-04-20T16:27:20-07:00,20.813272953033,2,versionA_stim.csv,READVersionB.csv,"Read Version B","Dissertation, read only version B",,,,,,0,Instruct,-,10,"You will now be presented with the first word from each of the previously studied item pairs. Please type the missing word. If you do not know the word, you may guess or press Enter to skip forward to the next pair.",,Instruct3,20496,,,913,10623,,,,1
w10005410,tfom6ldks0,Nick_Dissertation_EX1,1,95,2020-04-20T16:27:41-07:00,20.70557308197,2,versionA_stim.csv,READVersionB.csv,"Read Version B","Dissertation, read only version B",CAKE,CLOTHES,Study2,U,166,164,Test,User,-,,Recall,Recall1,20225,snack,16.666666666667,18451,19891,0,0,,1
w10005410,tfom6ldks0,Nick_Dissertation_EX1,1,96,2020-04-20T16:27:47-07:00,5.7315590381622,2,versionA_stim.csv,READVersionB.csv,"Read Version B","Dissertation, read only version B",BIRD,PENGUIN,Study2,B,119,125,Test,User,-,,Recall,Recall1,5338,,0,3425,3947,0,0,,1
w10005410,tfom6ldks0,Nick_Dissertation_EX1,1,97,2020-04-20T16:27:57-07:00,10.675843954086,2,versionA_stim.csv,READVersionB.csv,"Read Version B","Dissertation, read only version B",CANDLE,WAX,Study2,S,139,116,Test,User,-,,Recall,Recall1,4384,wax,100,2221,2808,1,1,,0.955
w10005410,tfom6ldks0,Nick_Dissertation_EX1,1,98,2020-04-20T16:28:10-07:00,13.123733997345,2,versionA_stim.csv,READVersionB.csv,"Read Version B","Dissertation, read only version B",OWN,HAVE,Study2,S,153,173,Test,User,-,,Recall,Recall1,5793,mine,25,3568,4758,0,0,,0.966
w10005410,tfom6ldks0,Nick_Dissertation_EX1,1,99,2020-04-20T16:28:18-07:00,7.824963092804,2,versionA_stim.csv,READVersionB.csv,"Read Version B","Dissertation, read only version B",FISH,SARDINE,Study2,B,130,108,Test,User,-,,Recall,Recall1,7501,shrimp,46.153846153846,5002,6092,0,0,,1
w10005410,tfom6ldks0,Nick_Dissertation_EX1,1,100,2020-04-20T16:28:23-07:00,4.6000390052795,2,versionA_stim.csv,READVersionB.csv,"Read Version B","Dissertation, read only version B",PLANE,AIRCRAFT,Study2,B,129,170,Test,User,-,,Recall,Recall1,4288,,0,-1,-1,0,0,,1
w10005410,tfom6ldks0,Nick_Dissertation_EX1,1,101,2020-04-20T16:28:37-07:00,14.308824777603,2,versionA_stim.csv,READVersionB.csv,"Read Version B","Dissertation, read only version B",FUZZY,BANG,Study2,U,168,97,Test,User,-,,Recall,Recall1,13993,,0,-1,-1,0,0,,1
w10005410,tfom6ldks0,Nick_Dissertation_EX1,1,102,2020-04-20T16:28:45-07:00,7.5665280818939,2,versionA_stim.csv,READVersionB.csv,"Read Version B","Dissertation, read only version B",POP,BALLOON,Study2,B,123,132,Test,User,-,,Recall,Recall1,7237,balloon,100,3621,5651,1,1,,1
w10005410,tfom6ldks0,Nick_Dissertation_EX1,1,103,2020-04-20T16:28:49-07:00,3.9023621082306,2,versionA_stim.csv,READVersionB.csv,"Read Version B","Dissertation, read only version B",CHERRY,RED,Study2,F,104,103,Test,User,-,,Recall,Recall1,3579,icecream,36.363636363636,1805,3210,0,0,,1
w10005410,tfom6ldks0,Nick_Dissertation_EX1,1,104,2020-04-20T16:28:54-07:00,5.8010039329529,2,versionA_stim.csv,READVersionB.csv,"Read Version B","Dissertation, read only version B",WATER,DRINK,Study2,S,143,123,Test,User,-,,Recall,Recall1,5477,,0,-1,-1,0,0,,1
w10005410,tfom6ldks0,Nick_Dissertation_EX1,1,105,2020-04-20T16:29:02-07:00,7.2595720291138,2,versionA_stim.csv,READVersionB.csv,"Read Version B","Dissertation, read only version B",EARTH,GROUND,Study2,S,144,169,Test,User,-,,Recall,Recall1,6946,,0,-1,-1,0,0,,1
w10005410,tfom6ldks0,Nick_Dissertation_EX1,1,106,2020-04-20T16:29:05-07:00,3.8219828605652,2,versionA_stim.csv,READVersionB.csv,"Read Version B","Dissertation, read only version B",LITTER,TRASH,Study2,F,103,171,Test,User,-,,Recall,Recall1,3504,trash,100,1998,2973,1,1,,1
w10005410,tfom6ldks0,Nick_Dissertation_EX1,1,107,2020-04-20T16:29:14-07:00,8.8714530467987,2,versionA_stim.csv,READVersionB.csv,"Read Version B","Dissertation, read only version B",DRY,WET,Study2,S,146,152,Test,User,-,,Recall,Recall1,8019,wet,100,7322,7770,1,1,,1
w10005410,tfom6ldks0,Nick_Dissertation_EX1,1,108,2020-04-20T16:29:23-07:00,8.6430721282959,2,versionA_stim.csv,READVersionB.csv,"Read Version B","Dissertation, read only version B",RIGHTS,EQUAL,Study2,S,137,109,Test,User,-,,Recall,Recall1,3147,equal,100,1424,2571,1,1,,0.938
w10005410,tfom6ldks0,Nick_Dissertation_EX1,1,109,2020-04-20T16:29:40-07:00,17.366539001465,2,versionA_stim.csv,READVersionB.csv,"Read Version B","Dissertation, read only version B",DOCUMENT,PAPER,Study2,F,109,168,Test,User,-,,Recall,Recall1,17044,,0,-1,-1,0,0,,1
w10005410,tfom6ldks0,Nick_Dissertation_EX1,1,110,2020-04-20T16:29:51-07:00,10.59246301651,2,versionA_stim.csv,READVersionB.csv,"Read Version B","Dissertation, read only version B",EXTENSION,LONG,Study2,F,96,122,Test,User,-,,Recall,Recall1,4600,cord,25,1810,2314,0,0,,0.957
w10005410,tfom6ldks0,Nick_Dissertation_EX1,1,111,2020-04-20T16:29:55-07:00,3.8917880058289,2,versionA_stim.csv,READVersionB.csv,"Read Version B","Dissertation, read only version B",SCALP,HEAD,Study2,F,105,139,Test,User,-,,Recall,Recall1,3554,oil,0,2293,2675,0,0,,1
w10005410,tfom6ldks0,Nick_Dissertation_EX1,1,112,2020-04-20T16:30:17-07:00,22.201232910156,2,versionA_stim.csv,READVersionB.csv,"Read Version B","Dissertation, read only version B",NAME,HATE,Study2,U,167,124,Test,User,-,,Recall,Recall1,21882,match,44.444444444444,20046,20918,0,0,,1
w10005410,tfom6ldks0,Nick_Dissertation_EX1,1,113,2020-04-20T16:30:23-07:00,5.7283699512482,2,versionA_stim.csv,READVersionB.csv,"Read Version B","Dissertation, read only version B",FLEA,TICK,Study2,S,151,163,Test,User,-,,Recall,Recall1,5388,market,20,3099,5258,0,0,,1
w10005410,tfom6ldks0,Nick_Dissertation_EX1,1,114,2020-04-20T16:30:25-07:00,1.8664569854736,2,versionA_stim.csv,READVersionB.csv,"Read Version B","Dissertation, read only version B",CRACKLE,ABLE,Study2,U,162,133,Test,User,-,,Recall,Recall1,1575,,0,-1,-1,0,0,,1
w10005410,tfom6ldks0,Nick_Dissertation_EX1,1,115,2020-04-20T16:30:26-07:00,1.6309630870819,2,versionA_stim.csv,READVersionB.csv,"Read Version B","Dissertation, read only version B",MAIN,SCAR,Study2,U,175,105,Test,User,-,,Recall,Recall1,1399,,0,-1,-1,0,0,,1
w10005410,tfom6ldks0,Nick_Dissertation_EX1,1,116,2020-04-20T16:30:27-07:00,0.8480179309845,2,versionA_stim.csv,READVersionB.csv,"Read Version B","Dissertation, read only version B",STAR,ACTRESS,Study2,B,120,137,Test,User,-,,Recall,Recall1,608,,0,-1,-1,0,0,,1
w10005410,tfom6ldks0,Nick_Dissertation_EX1,1,117,2020-04-20T16:30:29-07:00,1.4799590110779,2,versionA_stim.csv,READVersionB.csv,"Read Version B","Dissertation, read only version B",FURRY,DOG,Study2,F,102,126,Test,User,-,,Recall,Recall1,1249,,0,-1,-1,0,0,,1
w10005410,tfom6ldks0,Nick_Dissertation_EX1,1,118,2020-04-20T16:30:35-07:00,6.4243841171265,2,versionA_stim.csv,READVersionB.csv,"Read Version B","Dissertation, read only version B",BOTH,OUNCE,Study2,U,172,130,Test,User,-,,Recall,Recall1,1598,,0,-1,-1,0,0,,0.875
w10005410,tfom6ldks0,Nick_Dissertation_EX1,1,119,2020-04-20T16:30:36-07:00,1.4111328125,2,versionA_stim.csv,READVersionB.csv,"Read Version B","Dissertation, read only version B",DRIVER,CAR,Study2,F,106,165,Test,User,-,,Recall,Recall1,1154,,0,-1,-1,0,0,,1
w10005410,tfom6ldks0,Nick_Dissertation_EX1,1,120,2020-04-20T16:30:42-07:00,5.8529710769653,2,versionA_stim.csv,READVersionB.csv,"Read Version B","Dissertation, read only version B",SUN,TAN,Study2,S,155,155,Test,User,-,,Recall,Recall1,5521,moon,28.571428571429,3943,4446,0,0,,1
w10005410,tfom6ldks0,Nick_Dissertation_EX1,1,121,2020-04-20T16:30:43-07:00,0.93179893493652,2,versionA_stim.csv,READVersionB.csv,"Read Version B","Dissertation, read only version B",BAD,VILLAIN,Study2,B,118,146,Test,User,-,,Recall,Recall1,677,,0,-1,-1,0,0,,1
w10005410,tfom6ldks0,Nick_Dissertation_EX1,1,122,2020-04-20T16:30:44-07:00,1.0058660507202,2,versionA_stim.csv,READVersionB.csv,"Read Version B","Dissertation, read only version B",SLEEP,NAP,Study2,B,134,138,Test,User,-,,Recall,Recall1,771,,0,-1,-1,0,0,,1
w10005410,tfom6ldks0,Nick_Dissertation_EX1,1,123,2020-04-20T16:30:45-07:00,1.0556969642639,2,versionA_stim.csv,READVersionB.csv,"Read Version B","Dissertation, read only version B",MONEY,BANKER,Study2,B,132,135,Test,User,-,,Recall,Recall1,829,,0,-1,-1,0,0,,1
w10005410,tfom6ldks0,Nick_Dissertation_EX1,1,124,2020-04-20T16:30:46-07:00,0.90488505363464,2,versionA_stim.csv,READVersionB.csv,"Read Version B","Dissertation, read only version B",ALONE,LONELY,Study2,S,145,106,Test,User,-,,Recall,Recall1,680,,0,-1,-1,0,0,,1
w10005410,tfom6ldks0,Nick_Dissertation_EX1,1,125,2020-04-20T16:30:47-07:00,1.2413599491119,2,versionA_stim.csv,READVersionB.csv,"Read Version B","Dissertation, read only version B",MIRROR,CHILDREN,Study2,U,174,110,Test,User,-,,Recall,Recall1,1004,,0,-1,-1,0,0,,1
w10005410,tfom6ldks0,Nick_Dissertation_EX1,1,126,2020-04-20T16:30:48-07:00,0.82447099685669,2,versionA_stim.csv,READVersionB.csv,"Read Version B","Dissertation, read only version B",CHOP,CUT,Study2,F,107,148,Test,User,-,,Recall,Recall1,593,,0,-1,-1,0,0,,1
w10005410,tfom6ldks0,Nick_Dissertation_EX1,1,127,2020-04-20T16:30:49-07:00,1.0775661468506,2,versionA_stim.csv,READVersionB.csv,"Read Version B","Dissertation, read only version B",CAR,WINDSHIELD,Study2,B,117,101,Test,User,-,,Recall,Recall1,841,,0,-1,-1,0,0,,1
w10005410,tfom6ldks0,Nick_Dissertation_EX1,1,128,2020-04-20T16:30:51-07:00,2.0320358276367,2,versionA_stim.csv,READVersionB.csv,"Read Version B","Dissertation, read only version B",BASEBALL,LEAGUE,Study2,B,131,142,Test,User,-,,Recall,Recall1,1790,,0,-1,-1,0,0,,1
w10005410,tfom6ldks0,Nick_Dissertation_EX1,1,129,2020-04-20T16:30:52-07:00,0.99057507514954,2,versionA_stim.csv,READVersionB.csv,"Read Version B","Dissertation, read only version B",MASON,JAR,Study2,S,138,121,Test,User,-,,Recall,Recall1,761,,0,-1,-1,0,0,,1
w10005410,tfom6ldks0,Nick_Dissertation_EX1,1,130,2020-04-20T16:30:54-07:00,2.0038559436798,2,versionA_stim.csv,READVersionB.csv,"Read Version B","Dissertation, read only version B",ROD,REEL,Study2,S,150,98,Test,User,-,,Recall,Recall1,1762,,0,-1,-1,0,0,,1
w10005410,tfom6ldks0,Nick_Dissertation_EX1,1,131,2020-04-20T16:30:56-07:00,1.2851791381836,2,versionA_stim.csv,READVersionB.csv,"Read Version B","Dissertation, read only version B",ADJOURN,END,Study2,F,101,112,Test,User,-,,Recall,Recall1,1053,,0,-1,-1,0,0,,1
w10005410,tfom6ldks0,Nick_Dissertation_EX1,1,132,2020-04-20T16:31:07-07:00,11.487457036972,2,versionA_stim.csv,READVersionB.csv,"Read Version B","Dissertation, read only version B",CACTUS,PLANT,Study2,F,98,166,Test,User,-,,Recall,Recall1,2869,plant,100,1790,2553,1,1,,0.933
w10005410,tfom6ldks0,Nick_Dissertation_EX1,1,133,2020-04-20T16:31:10-07:00,3.2798388004303,2,versionA_stim.csv,READVersionB.csv,"Read Version B","Dissertation, read only version B",DEAD,COFFIN,Study2,B,128,128,Test,User,-,,Recall,Recall1,2955,,0,-1,-1,0,0,,1
w10005410,tfom6ldks0,Nick_Dissertation_EX1,1,134,2020-04-20T16:31:12-07:00,1.1661682128906,2,versionA_stim.csv,READVersionB.csv,"Read Version B","Dissertation, read only version B",DINE,EAT,Study2,F,111,167,Test,User,-,,Recall,Recall1,874,,0,-1,-1,0,0,,1
w10005410,tfom6ldks0,Nick_Dissertation_EX1,1,135,2020-04-20T16:31:12-07:00,0.87859487533569,2,versionA_stim.csv,READVersionB.csv,"Read Version B","Dissertation, read only version B",DETECTIVE,MYSTERY,Study2,F,100,127,Test,User,-,,Recall,Recall1,640,,0,-1,-1,0,0,,1
w10005410,tfom6ldks0,Nick_Dissertation_EX1,1,136,2020-04-20T16:31:13-07:00,0.97172498703003,2,versionA_stim.csv,READVersionB.csv,"Read Version B","Dissertation, read only version B",STRETCH,CLOTH,Study2,U,157,161,Test,User,-,,Recall,Recall1,726,,0,-1,-1,0,0,,1
w10005410,tfom6ldks0,Nick_Dissertation_EX1,1,137,2020-04-20T16:31:14-07:00,0.828449010849,2,versionA_stim.csv,READVersionB.csv,"Read Version B","Dissertation, read only version B",THREAD,THIMBLE,Study2,B,121,115,Test,User,-,,Recall,Recall1,597,,0,-1,-1,0,0,,1
w10005410,tfom6ldks0,Nick_Dissertation_EX1,1,138,2020-04-20T16:31:15-07:00,0.94562602043152,2,versionA_stim.csv,READVersionB.csv,"Read Version B","Dissertation, read only version B",GLASS,BREAKABLE,Study2,B,127,151,Test,User,-,,Recall,Recall1,719,,0,-1,-1,0,0,,1
w10005410,tfom6ldks0,Nick_Dissertation_EX1,1,139,2020-04-20T16:31:17-07:00,1.535248041153,2,versionA_stim.csv,READVersionB.csv,"Read Version B","Dissertation, read only version B",VEHICLE,CHARM,Study2,U,160,176,Test,User,-,,Recall,Recall1,1296,,0,-1,-1,0,0,,1
w10005410,tfom6ldks0,Nick_Dissertation_EX1,1,140,2020-04-20T16:31:18-07:00,0.93655586242676,2,versionA_stim.csv,READVersionB.csv,"Read Version B","Dissertation, read only version B",CAT,PANTHER,Study2,B,126,131,Test,User,-,,Recall,Recall1,696,,0,-1,-1,0,0,,1
w10005410,tfom6ldks0,Nick_Dissertation_EX1,1,141,2020-04-20T16:31:19-07:00,1.2479209899902,2,versionA_stim.csv,READVersionB.csv,"Read Version B","Dissertation, read only version B",GONE,AWAY,Study2,S,142,160,Test,User,-,,Recall,Recall1,1008,,0,-1,-1,0,0,,1
w10005410,tfom6ldks0,Nick_Dissertation_EX1,1,142,2020-04-20T16:31:20-07:00,0.77462220191956,2,versionA_stim.csv,READVersionB.csv,"Read Version B","Dissertation, read only version B",LISTEN,FICTION,Study2,U,164,174,Test,User,-,,Recall,Recall1,545,,0,-1,-1,0,0,,1
w10005410,tfom6ldks0,Nick_Dissertation_EX1,1,143,2020-04-20T16:31:33-07:00,13.687372922897,2,versionA_stim.csv,READVersionB.csv,"Read Version B","Dissertation, read only version B",RAZOR,SHAVE,Study2,S,136,159,Test,User,-,,Recall,Recall1,6247,shave,100,5385,5944,1,1,,0.969
w10005410,tfom6ldks0,Nick_Dissertation_EX1,1,144,2020-04-20T16:32:05-07:00,31.411659002304,2,versionA_stim.csv,READVersionB.csv,"Read Version B","Dissertation, read only version B",AFFECTION,LOVE,Study2,F,115,156,Test,User,-,,Recall,Recall1,24591,love,100,23887,24386,1,1,,0.992
w10005410,tfom6ldks0,Nick_Dissertation_EX1,1,145,2020-04-20T16:32:44-07:00,39.328892946243,2,versionA_stim.csv,READVersionB.csv,"Read Version B","Dissertation, read only version B",BEST,FAVORITE,Study2,B,125,114,Test,User,-,,Recall,Recall1,39010,,0,-1,-1,0,0,,1
w10005410,tfom6ldks0,Nick_Dissertation_EX1,1,146,2020-04-20T16:33:03-07:00,19.321841955185,2,versionA_stim.csv,READVersionB.csv,"Read Version B","Dissertation, read only version B",SHOELACE,TIE,Study2,F,99,120,Test,User,-,,Recall,Recall1,18998,tie,100,18178,18567,1,1,,1
w10005410,tfom6ldks0,Nick_Dissertation_EX1,1,147,2020-04-20T16:33:21-07:00,17.766158103943,2,versionA_stim.csv,READVersionB.csv,"Read Version B","Dissertation, read only version B",FRUIT,STRAWBERRY,Study2,B,124,134,Test,User,-,,Recall,Recall1,17446,strawberry,100,14315,16475,1,1,,1
w10005410,tfom6ldks0,Nick_Dissertation_EX1,1,148,2020-04-20T16:33:27-07:00,6.0172019004822,2,versionA_stim.csv,READVersionB.csv,"Read Version B","Dissertation, read only version B",CHILL,COLD,Study2,F,114,140,Test,User,-,,Recall,Recall1,971,,0,-1,-1,0,0,,0.8
w10005410,tfom6ldks0,Nick_Dissertation_EX1,1,149,2020-04-20T16:33:48-07:00,20.801717996597,2,versionA_stim.csv,READVersionB.csv,"Read Version B","Dissertation, read only version B",FEUD,FIGHT,Study2,F,113,136,Test,User,-,,Recall,Recall1,20478,,0,-1,-1,0,0,,1
w10005410,tfom6ldks0,Nick_Dissertation_EX1,1,150,2020-04-20T16:34:01-07:00,12.700481176376,2,versionA_stim.csv,READVersionB.csv,"Read Version B","Dissertation, read only version B",WRIST,BRACELET,Study2,S,140,157,Test,User,-,,Recall,Recall1,12378,bracelet,100,7159,10770,1,1,,1
w10005410,tfom6ldks0,Nick_Dissertation_EX1,1,151,2020-04-20T16:34:14-07:00,12.864040851593,2,versionA_stim.csv,READVersionB.csv,"Read Version B","Dissertation, read only version B",Shell,SHAKE,Study2,U,163,143,Test,User,-,,Recall,Recall1,12533,,0,-1,-1,0,0,,1
w10005410,tfom6ldks0,Nick_Dissertation_EX1,1,152,2020-04-20T16:34:37-07:00,23.350223064423,2,versionA_stim.csv,READVersionB.csv,"Read Version B","Dissertation, read only version B",LOUD,NOISE,Study2,S,152,149,Test,User,-,,Recall,Recall1,23009,noise,100,22087,22847,1,1,,1
w10005410,tfom6ldks0,Nick_Dissertation_EX1,1,153,2020-04-20T16:34:39-07:00,2.1207020282745,2,versionA_stim.csv,READVersionB.csv,"Read Version B","Dissertation, read only version B",EVEN,REVENGE,Study2,B,122,113,Test,User,-,,Recall,Recall1,1856,,0,-1,-1,0,0,,1
w10005410,tfom6ldks0,Nick_Dissertation_EX1,1,154,2020-04-20T16:34:48-07:00,9.1999809741974,2,versionA_stim.csv,READVersionB.csv,"Read Version B","Dissertation, read only version B",ELEMENT,CARBON,Study2,S,141,102,Test,User,-,,Recall,Recall1,2479,carbon,100,1248,2186,1,1,,0.923
w10005410,tfom6ldks0,Nick_Dissertation_EX1,1,155,2020-04-20T16:34:58-07:00,9.9156980514526,2,versionA_stim.csv,READVersionB.csv,"Read Version B","Dissertation, read only version B",TANTRUM,TEMPER,Study2,S,154,107,Test,User,-,,Recall,Recall1,9587,,0,-1,-1,0,0,,1
w10005410,tfom6ldks0,Nick_Dissertation_EX1,1,156,2020-04-20T16:35:08-07:00,9.9352939128876,2,versionA_stim.csv,READVersionB.csv,"Read Version B","Dissertation, read only version B",TRUTH,LIE,Study2,S,148,141,Test,User,-,,Recall,Recall1,9604,,0,8728,8728,0,0,,1
w10005410,tfom6ldks0,Nick_Dissertation_EX1,1,157,2020-04-20T16:35:14-07:00,5.6721320152283,2,versionA_stim.csv,READVersionB.csv,"Read Version B","Dissertation, read only version B",FIGHT,BRAWL,Study2,B,135,99,Test,User,-,,Recall,Recall1,1145,,0,-1,-1,0,0,,0.833
w10005410,tfom6ldks0,Nick_Dissertation_EX1,1,158,2020-04-20T16:35:21-07:00,7.0149409770966,2,versionA_stim.csv,READVersionB.csv,"Read Version B","Dissertation, read only version B",LEASE,TOIL,Study2,U,170,162,Test,User,-,,Recall,Recall1,1210,,0,-1,-1,0,0,,0.833
w10005410,tfom6ldks0,Nick_Dissertation_EX1,1,159,2020-04-20T16:35:36-07:00,15.169886112213,2,versionA_stim.csv,READVersionB.csv,"Read Version B","Dissertation, read only version B",PHONE,COMMUNICATION,Study2,S,149,117,Test,User,-,,Recall,Recall1,14362,communication,100,12065,14036,1,1,,1
w10005410,tfom6ldks0,Nick_Dissertation_EX1,1,160,2020-04-20T16:36:19-07:00,42.625963926315,2,versionA_stim.csv,READVersionB.csv,"Read Version B","Dissertation, read only version B",JUSTICE,MAROON,Study2,U,156,104,Test,User,-,,Recall,Recall1,42292,maroon,100,41022,42063,1,1,,1
w10005410,tfom6ldks0,Nick_Dissertation_EX1,1,161,2020-04-20T16:36:20-07:00,1.0438139438629,2,versionA_stim.csv,READVersionB.csv,"Read Version B","Dissertation, read only version B",KEYS,JOKE,Study2,U,165,111,Test,User,-,,Recall,Recall1,777,,0,-1,-1,0,0,,1
w10005410,tfom6ldks0,Nick_Dissertation_EX1,1,162,2020-04-20T16:36:21-07:00,0.9519579410553,2,versionA_stim.csv,READVersionB.csv,"Read Version B","Dissertation, read only version B",MULE,DONKEY,Study2,F,108,118,Test,User,-,,Recall,Recall1,715,,0,-1,-1,0,0,,1
w10005410,tfom6ldks0,Nick_Dissertation_EX1,1,163,2020-04-20T16:36:21-07:00,0.86934900283813,2,versionA_stim.csv,READVersionB.csv,"Read Version B","Dissertation, read only version B",LOAN,SIGN,Study2,U,171,154,Test,User,-,,Recall,Recall1,626,,0,-1,-1,0,0,,1
w10005410,tfom6ldks0,Nick_Dissertation_EX1,1,164,2020-04-20T16:36:29-07:00,7.7347741127014,2,versionA_stim.csv,READVersionB.csv,"Read Version B","Dissertation, read only version B",HONEST,TRUTHFUL,Study2,B,133,119,Test,User,-,,Recall,Recall1,2594,,0,-1,-1,0,0,,0.923
w10005410,tfom6ldks0,Nick_Dissertation_EX1,1,165,2020-04-20T16:36:30-07:00,1.1962568759918,2,versionA_stim.csv,READVersionB.csv,"Read Version B","Dissertation, read only version B",MAZE,ELECTION,Study2,U,159,144,Test,User,-,,Recall,Recall1,938,,0,-1,-1,0,0,,1
w10005410,tfom6ldks0,Nick_Dissertation_EX1,1,166,2020-04-20T16:36:31-07:00,0.8514301776886,2,versionA_stim.csv,READVersionB.csv,"Read Version B","Dissertation, read only version B",MOAT,CLEAR,Study2,U,169,158,Test,User,-,,Recall,Recall1,614,,0,-1,-1,0,0,,1
w10005410,tfom6ldks0,Nick_Dissertation_EX1,1,167,2020-04-20T16:36:32-07:00,0.81877994537354,2,versionA_stim.csv,READVersionB.csv,"Read Version B","Dissertation, read only version B",SHEARS,SCISSORS,Study2,F,112,129,Test,User,-,,Recall,Recall1,577,,0,-1,-1,0,0,,1
w10005410,tfom6ldks0,Nick_Dissertation_EX1,1,168,2020-04-20T16:36:33-07:00,1.1121079921722,2,versionA_stim.csv,READVersionB.csv,"Read Version B","Dissertation, read only version B",GIVE,STEAK,Study2,U,158,147,Test,User,-,,Recall,Recall1,861,,0,-1,-1,0,0,,1
w10005410,tfom6ldks0,Nick_Dissertation_EX1,1,169,2020-04-20T16:36:34-07:00,0.95566892623901,2,versionA_stim.csv,READVersionB.csv,"Read Version B","Dissertation, read only version B",INCENSE,SMELL,Study2,F,110,175,Test,User,-,,Recall,Recall1,713,,0,-1,-1,0,0,,1
w10005410,tfom6ldks0,Nick_Dissertation_EX1,1,170,2020-04-20T16:36:36-07:00,1.8017110824585,2,versionA_stim.csv,READVersionB.csv,"Read Version B","Dissertation, read only version B",TURN,FLIP,Study2,B,116,172,Test,User,-,,Recall,Recall1,1554,,0,-1,-1,0,0,,1
w10005410,tfom6ldks0,Nick_Dissertation_EX1,1,171,2020-04-20T16:36:53-07:00,17.607333898544,2,versionA_stim.csv,READVersionB.csv,"Read Version B","Dissertation, read only version B",MEAT,OBTAIN,Study2,U,161,150,Test,User,-,,Recall,Recall1,17284,,0,15853,15853,0,0,,1
w10005410,tfom6ldks0,Nick_Dissertation_EX1,1,172,2020-04-20T16:37:02-07:00,8.2165360450745,2,versionA_stim.csv,READVersionB.csv,"Read Version B","Dissertation, read only version B",SAFETY,SEATBELT,Study2,S,147,100,Test,User,-,,Recall,Recall1,7875,,0,-1,-1,0,0,,1
w10005410,tfom6ldks0,Nick_Dissertation_EX1,1,173,2020-04-20T16:37:03-07:00,1.2703161239624,2,versionA_stim.csv,READVersionB.csv,"Read Version B","Dissertation, read only version B",TEMPERATURE,Morning,Study2,U,173,153,Test,User,-,,Recall,Recall1,1007,,0,-1,-1,0,0,,1
w10005410,tfom6ldks0,Nick_Dissertation_EX1,1,174,2020-04-20T16:37:04-07:00,0.77141880989075,2,versionA_stim.csv,READVersionB.csv,"Read Version B","Dissertation, read only version B",CLUE,GAME,Study2,F,97,145,Test,User,-,,Recall,Recall1,541,,0,-1,-1,0,0,,1
w10005410,tfom6ldks0,Nick_Dissertation_EX1,1,175,2020-04-20T16:37:16-07:00,12.074767112732,2,versionA_stim.csv,READVersionB.csv,"Read Version B","Dissertation, read only version B",,,,,,0,Instruct,-,10,"You will now be presented with a new set of word pairs. Please study each pair. Remember that your memory will be tested! When finished, press Enter to move to the next pair.",Initial_Instruct,Instruct4,11755,,,-1,-1,,,,1
w10005410,tfom6ldks0,Nick_Dissertation_EX1,1,176,2020-04-20T16:37:22-07:00,6.2985019683838,2,versionA_stim.csv,READVersionB.csv,"Read Version B","Dissertation, read only version B",TREES,GREEN,BUFFER1,Buffer,1,5,Study,User,-,,Study/JOL,BUFFER3,5947,,,-1,-1,,,,1
w10005410,tfom6ldks0,Nick_Dissertation_EX1,1,177,2020-04-20T16:37:24-07:00,1.9044759273529,2,versionA_stim.csv,READVersionB.csv,"Read Version B","Dissertation, read only version B",SCARE,HIDE,BUFFER1,Buffer,4,2,Study,User,-,,Study/JOL,BUFFER3,1635,,,-1,-1,,,,1
w10005410,tfom6ldks0,Nick_Dissertation_EX1,1,178,2020-04-20T16:37:26-07:00,1.4754190444946,2,versionA_stim.csv,READVersionB.csv,"Read Version B","Dissertation, read only version B",PEANUT,BUTTER,BUFFER1,Buffer,3,6,Study,User,-,,Study/JOL,BUFFER3,1232,,,-1,-1,,,,1
w10005410,tfom6ldks0,Nick_Dissertation_EX1,1,179,2020-04-20T16:37:27-07:00,1.4362709522247,2,versionA_stim.csv,READVersionB.csv,"Read Version B","Dissertation, read only version B",BASEBALL,CATCHER,BUFFER1,Buffer,2,3,Study,User,-,,Study/JOL,BUFFER3,1088,,,-1,-1,,,,1
w10005410,tfom6ldks0,Nick_Dissertation_EX1,1,180,2020-04-20T16:37:28-07:00,1.3035340309143,2,versionA_stim.csv,READVersionB.csv,"Read Version B","Dissertation, read only version B",SPACE,JAM,BUFFER1,Buffer,5,4,Study,User,-,,Study/JOL,BUFFER3,1063,,,-1,-1,,,,1
w10005410,tfom6ldks0,Nick_Dissertation_EX1,1,181,2020-04-20T16:37:30-07:00,1.3854851722717,2,versionA_stim.csv,READVersionB.csv,"Read Version B","Dissertation, read only version B",PAW,DOG,Study1,F,15,16,Study,User,-,,Study/JOL,"Study Phase2",1143,,,-1,-1,,,,1
w10005410,tfom6ldks0,Nick_Dissertation_EX1,1,182,2020-04-20T16:37:31-07:00,1.2284789085388,2,versionA_stim.csv,READVersionB.csv,"Read Version B","Dissertation, read only version B",HERD,COW,Study1,F,22,15,Study,User,-,,Study/JOL,"Study Phase2",989,,,-1,-1,,,,1
w10005410,tfom6ldks0,Nick_Dissertation_EX1,1,183,2020-04-20T16:37:32-07:00,1.0379769802094,2,versionA_stim.csv,READVersionB.csv,"Read Version B","Dissertation, read only version B",BABY,CHILD,Study1,S,64,38,Study,User,-,,Study/JOL,"Study Phase2",809,,,-1,-1,,,,1
w10005410,tfom6ldks0,Nick_Dissertation_EX1,1,184,2020-04-20T16:37:33-07:00,1.0060079097748,2,versionA_stim.csv,READVersionB.csv,"Read Version B","Dissertation, read only version B",FIRE,BLAZE,Study1,B,45,61,Study,User,-,,Study/JOL,"Study Phase2",775,,,-1,-1,,,,1
w10005410,tfom6ldks0,Nick_Dissertation_EX1,1,185,2020-04-20T16:37:34-07:00,0.95346903800964,2,versionA_stim.csv,READVersionB.csv,"Read Version B","Dissertation, read only version B",KEY,LATCH,Study1,B,36,31,Study,User,-,,Study/JOL,"Study Phase2",717,,,-1,-1,,,,1
w10005410,tfom6ldks0,Nick_Dissertation_EX1,1,186,2020-04-20T16:37:35-07:00,1.3853709697723,2,versionA_stim.csv,READVersionB.csv,"Read Version B","Dissertation, read only version B",BATHROOM,TOILET,Study1,S,58,55,Study,User,-,,Study/JOL,"Study Phase2",1146,,,-1,-1,,,,1
w10005410,tfom6ldks0,Nick_Dissertation_EX1,1,187,2020-04-20T16:37:36-07:00,1.0614330768585,2,versionA_stim.csv,READVersionB.csv,"Read Version B","Dissertation, read only version B",GRILL,BAR,Study1,S,52,60,Study,User,-,,Study/JOL,"Study Phase2",823,,,-1,-1,,,,1
w10005410,tfom6ldks0,Nick_Dissertation_EX1,1,188,2020-04-20T16:37:37-07:00,0.95909690856934,2,versionA_stim.csv,READVersionB.csv,"Read Version B","Dissertation, read only version B",SUGAR,RIDDLE,Study1,U,81,64,Study,User,-,,Study/JOL,"Study Phase2",725,,,-1,-1,,,,1
w10005410,tfom6ldks0,Nick_Dissertation_EX1,1,189,2020-04-20T16:37:39-07:00,1.9317111968994,2,versionA_stim.csv,READVersionB.csv,"Read Version B","Dissertation, read only version B",LETTUCE,SALAD,Study1,S,59,36,Study,User,-,,Study/JOL,"Study Phase2",1703,,,-1,-1,,,,1
w10005410,tfom6ldks0,Nick_Dissertation_EX1,1,190,2020-04-20T16:37:40-07:00,1.1613428592682,2,versionA_stim.csv,READVersionB.csv,"Read Version B","Dissertation, read only version B",SENTENCE,WORD,Study1,B,31,19,Study,User,-,,Study/JOL,"Study Phase2",912,,,-1,-1,,,,1
w10005410,tfom6ldks0,Nick_Dissertation_EX1,1,191,2020-04-20T16:37:41-07:00,0.98588299751282,2,versionA_stim.csv,READVersionB.csv,"Read Version B","Dissertation, read only version B",MACHINE,POSITION,Study1,U,76,43,Study,User,-,,Study/JOL,"Study Phase2",740,,,-1,-1,,,,1
w10005410,tfom6ldks0,Nick_Dissertation_EX1,1,192,2020-04-20T16:37:42-07:00,0.94576406478882,2,versionA_stim.csv,READVersionB.csv,"Read Version B","Dissertation, read only version B",DIGESTION,STOMACH,Study1,F,7,69,Study,User,-,,Study/JOL,"Study Phase2",710,,,-1,-1,,,,1
w10005410,tfom6ldks0,Nick_Dissertation_EX1,1,193,2020-04-20T16:37:43-07:00,1.1953449249268,2,versionA_stim.csv,READVersionB.csv,"Read Version B","Dissertation, read only version B",DISCUSSION,TALK,Study1,F,21,80,Study,User,-,,Study/JOL,"Study Phase2",958,,,-1,-1,,,,1
w10005410,tfom6ldks0,Nick_Dissertation_EX1,1,194,2020-04-20T16:37:44-07:00,0.89255714416504,2,versionA_stim.csv,READVersionB.csv,"Read Version B","Dissertation, read only version B",HYGIENE,CLEAN,Study1,F,17,62,Study,User,-,,Study/JOL,"Study Phase2",648,,,-1,-1,,,,1
w10005410,tfom6ldks0,Nick_Dissertation_EX1,1,195,2020-04-20T16:37:45-07:00,0.70882296562195,2,versionA_stim.csv,READVersionB.csv,"Read Version B","Dissertation, read only version B",PUSHER,CLUTTER,Study1,U,66,22,Study,User,-,,Study/JOL,"Study Phase2",468,,,-1,-1,,,,1
w10005410,tfom6ldks0,Nick_Dissertation_EX1,1,196,2020-04-20T16:37:46-07:00,0.95207691192627,2,versionA_stim.csv,READVersionB.csv,"Read Version B","Dissertation, read only version B",CIRCLE,ROUND,Study1,S,65,10,Study,User,-,,Study/JOL,"Study Phase2",550,,,-1,-1,,,,1
w10005410,tfom6ldks0,Nick_Dissertation_EX1,1,197,2020-04-20T16:37:47-07:00,0.9423520565033,2,versionA_stim.csv,READVersionB.csv,"Read Version B","Dissertation, read only version B",LIFT,WOMAN,Study1,U,69,68,Study,User,-,,Study/JOL,"Study Phase2",692,,,-1,-1,,,,1
w10005410,tfom6ldks0,Nick_Dissertation_EX1,1,198,2020-04-20T16:37:48-07:00,0.98518705368042,2,versionA_stim.csv,READVersionB.csv,"Read Version B","Dissertation, read only version B",HIDE,SICK,Study1,U,84,63,Study,User,-,,Study/JOL,"Study Phase2",744,,,-1,-1,,,,1
w10005410,tfom6ldks0,Nick_Dissertation_EX1,1,199,2020-04-20T16:37:49-07:00,1.0327489376068,2,versionA_stim.csv,READVersionB.csv,"Read Version B","Dissertation, read only version B",PAST,FUTURE,Study1,S,61,33,Study,User,-,,Study/JOL,"Study Phase2",782,,,-1,-1,,,,1
w10005410,tfom6ldks0,Nick_Dissertation_EX1,1,200,2020-04-20T16:37:51-07:00,1.7310540676117,2,versionA_stim.csv,READVersionB.csv,"Read Version B","Dissertation, read only version B",TAKE,SEIZE,Study1,B,29,84,Study,User,-,,Study/JOL,"Study Phase2",1486,,,-1,-1,,,,1
w10005410,tfom6ldks0,Nick_Dissertation_EX1,1,201,2020-04-20T16:37:52-07:00,1.0780489444733,2,versionA_stim.csv,READVersionB.csv,"Read Version B","Dissertation, read only version B",SHOE,FOOT,Study1,S,60,66,Study,User,-,,Study/JOL,"Study Phase2",840,,,-1,-1,,,,1
w10005410,tfom6ldks0,Nick_Dissertation_EX1,1,202,2020-04-20T16:37:53-07:00,1.1456789970398,2,versionA_stim.csv,READVersionB.csv,"Read Version B","Dissertation, read only version B",WORK,CHORE,Study1,B,39,14,Study,User,-,,Study/JOL,"Study Phase2",910,,,-1,-1,,,,1
w10005410,tfom6ldks0,Nick_Dissertation_EX1,1,203,2020-04-20T16:37:54-07:00,1.3099498748779,2,versionA_stim.csv,READVersionB.csv,"Read Version B","Dissertation, read only version B",ARCHITECTURE,DESIGN,Study1,S,51,35,Study,User,-,,Study/JOL,"Study Phase2",1068,,,-1,-1,,,,1
w10005410,tfom6ldks0,Nick_Dissertation_EX1,1,204,2020-04-20T16:37:55-07:00,0.9389340877533,2,versionA_stim.csv,READVersionB.csv,"Read Version B","Dissertation, read only version B",CHISEL,HAMMER,Study1,F,9,42,Study,User,-,,Study/JOL,"Study Phase2",696,,,-1,-1,,,,1
w10005410,tfom6ldks0,Nick_Dissertation_EX1,1,205,2020-04-20T16:37:57-07:00,1.6556420326233,2,versionA_stim.csv,READVersionB.csv,"Read Version B","Dissertation, read only version B",VALLEY,ADD,Study1,U,82,44,Study,User,-,,Study/JOL,"Study Phase2",1417,,,-1,-1,,,,1
w10005410,tfom6ldks0,Nick_Dissertation_EX1,1,206,2020-04-20T16:37:58-07:00,0.68932890892029,2,versionA_stim.csv,READVersionB.csv,"Read Version B","Dissertation, read only version B",CREDIT,CARD,Study1,F,23,48,Study,User,-,,Study/JOL,"Study Phase2",452,,,-1,-1,,,,1
w10005410,tfom6ldks0,Nick_Dissertation_EX1,1,207,2020-04-20T16:37:58-07:00,0.52768898010254,2,versionA_stim.csv,READVersionB.csv,"Read Version B","Dissertation, read only version B",BUG,WASP,Study1,B,32,21,Study,User,-,,Study/JOL,"Study Phase2",264,,,-1,-1,,,,1
w10005410,tfom6ldks0,Nick_Dissertation_EX1,1,208,2020-04-20T16:37:59-07:00,0.51567506790161,2,versionA_stim.csv,READVersionB.csv,"Read Version B","Dissertation, read only version B",WAGE,MONEY,Study1,F,8,52,Study,User,-,,Study/JOL,"Study Phase2",255,,,-1,-1,,,,1
w10005410,tfom6ldks0,Nick_Dissertation_EX1,1,209,2020-04-20T16:37:59-07:00,0.68575692176819,2,versionA_stim.csv,READVersionB.csv,"Read Version B","Dissertation, read only version B",DUMP,WASTE,Study1,S,49,51,Study,User,-,,Study/JOL,"Study Phase2",441,,,-1,-1,,,,1
w10005410,tfom6ldks0,Nick_Dissertation_EX1,1,210,2020-04-20T16:38:00-07:00,0.70671010017395,2,versionA_stim.csv,READVersionB.csv,"Read Version B","Dissertation, read only version B",LOCATION,SITE,Study1,S,48,12,Study,User,-,,Study/JOL,"Study Phase2",464,,,-1,-1,,,,1
w10005410,tfom6ldks0,Nick_Dissertation_EX1,1,211,2020-04-20T16:38:01-07:00,0.7437469959259,2,versionA_stim.csv,READVersionB.csv,"Read Version B","Dissertation, read only version B",CLOTHES,ATTIRE,Study1,B,43,59,Study,User,-,,Study/JOL,"Study Phase2",482,,,-1,-1,,,,1
w10005410,tfom6ldks0,Nick_Dissertation_EX1,1,212,2020-04-20T16:38:01-07:00,0.58760404586792,2,versionA_stim.csv,READVersionB.csv,"Read Version B","Dissertation, read only version B",WAY,OUT,Study1,F,16,78,Study,User,-,,Study/JOL,"Study Phase2",343,,,-1,-1,,,,1
w10005410,tfom6ldks0,Nick_Dissertation_EX1,1,213,2020-04-20T16:38:02-07:00,0.69073987007141,2,versionA_stim.csv,READVersionB.csv,"Read Version B","Dissertation, read only version B",ARTERY,BRONZE,Study1,U,74,72,Study,User,-,,Study/JOL,"Study Phase2",447,,,-1,-1,,,,1
w10005410,tfom6ldks0,Nick_Dissertation_EX1,1,214,2020-04-20T16:38:03-07:00,0.91079902648926,2,versionA_stim.csv,READVersionB.csv,"Read Version B","Dissertation, read only version B",TRIAL,JURY,Study1,S,50,25,Study,User,-,,Study/JOL,"Study Phase2",673,,,-1,-1,,,,1
w10005410,tfom6ldks0,Nick_Dissertation_EX1,1,215,2020-04-20T16:38:04-07:00,0.64677596092224,2,versionA_stim.csv,READVersionB.csv,"Read Version B","Dissertation, read only version B",DELINQUENT,BAD,Study1,F,6,47,Study,User,-,,Study/JOL,"Study Phase2",400,,,-1,-1,,,,1
w10005410,tfom6ldks0,Nick_Dissertation_EX1,1,216,2020-04-20T16:38:04-07:00,0.73660707473755,2,versionA_stim.csv,READVersionB.csv,"Read Version B","Dissertation, read only version B",DRINK,SIP,Study1,B,27,83,Study,User,-,,Study/JOL,"Study Phase2",492,,,-1,-1,,,,1
w10005410,tfom6ldks0,Nick_Dissertation_EX1,1,217,2020-04-20T16:38:05-07:00,0.74671792984009,2,versionA_stim.csv,READVersionB.csv,"Read Version B","Dissertation, read only version B",MATH,DIVISION,Study1,B,33,57,Study,User,-,,Study/JOL,"Study Phase2",500,,,-1,-1,,,,1
w10005410,tfom6ldks0,Nick_Dissertation_EX1,1,218,2020-04-20T16:38:06-07:00,0.68335103988647,2,versionA_stim.csv,READVersionB.csv,"Read Version B","Dissertation, read only version B",HEIGHT,GROWTH,Study1,B,30,13,Study,User,-,,Study/JOL,"Study Phase2",443,,,-1,-1,,,,1
w10005410,tfom6ldks0,Nick_Dissertation_EX1,1,219,2020-04-20T16:38:07-07:00,0.87005615234375,2,versionA_stim.csv,READVersionB.csv,"Read Version B","Dissertation, read only version B",SLEEP,DROWSY,Study1,B,41,30,Study,User,-,,Study/JOL,"Study Phase2",630,,,-1,-1,,,,1
w10005410,tfom6ldks0,Nick_Dissertation_EX1,1,220,2020-04-20T16:38:08-07:00,1.1623849868774,2,versionA_stim.csv,READVersionB.csv,"Read Version B","Dissertation, read only version B",HONEY,BEE,Study1,S,63,67,Study,User,-,,Study/JOL,"Study Phase2",927,,,-1,-1,,,,1
w10005410,tfom6ldks0,Nick_Dissertation_EX1,1,221,2020-04-20T16:38:09-07:00,0.90097594261169,2,versionA_stim.csv,READVersionB.csv,"Read Version B","Dissertation, read only version B",PLANE,PILOT,Study1,B,44,75,Study,User,-,,Study/JOL,"Study Phase2",626,,,-1,-1,,,,1
w10005410,tfom6ldks0,Nick_Dissertation_EX1,1,222,2020-04-20T16:38:09-07:00,0.7007520198822,2,versionA_stim.csv,READVersionB.csv,"Read Version B","Dissertation, read only version B",DEATH,BUSINESS,Study1,U,72,50,Study,User,-,,Study/JOL,"Study Phase2",460,,,-1,-1,,,,1
w10005410,tfom6ldks0,Nick_Dissertation_EX1,1,223,2020-04-20T16:38:10-07:00,0.52708506584167,2,versionA_stim.csv,READVersionB.csv,"Read Version B","Dissertation, read only version B",KIDNEY,LIVER,Study1,S,53,8,Study,User,-,,Study/JOL,"Study Phase2",293,,,-1,-1,,,,1
w10005410,tfom6ldks0,Nick_Dissertation_EX1,1,224,2020-04-20T16:38:10-07:00,0.43518781661987,2,versionA_stim.csv,READVersionB.csv,"Read Version B","Dissertation, read only version B",EDITOR,NEWS,Study1,F,10,45,Study,User,-,,Study/JOL,"Study Phase2",197,,,-1,-1,,,,1
w10005410,tfom6ldks0,Nick_Dissertation_EX1,1,225,2020-04-20T16:38:11-07:00,0.52651119232178,2,versionA_stim.csv,READVersionB.csv,"Read Version B","Dissertation, read only version B",CASH,WOULD,Study1,U,83,37,Study,User,-,,Study/JOL,"Study Phase2",272,,,-1,-1,,,,1
w10005410,tfom6ldks0,Nick_Dissertation_EX1,1,226,2020-04-20T16:38:11-07:00,0.62971496582031,2,versionA_stim.csv,READVersionB.csv,"Read Version B","Dissertation, read only version B",LAW,ATTORNEY,Study1,B,34,56,Study,User,-,,Study/JOL,"Study Phase2",384,,,-1,-1,,,,1
w10005410,tfom6ldks0,Nick_Dissertation_EX1,1,227,2020-04-20T16:38:12-07:00,0.7828209400177,2,versionA_stim.csv,READVersionB.csv,"Read Version B","Dissertation, read only version B",TUNA,FISH,Study1,F,25,27,Study,User,-,,Study/JOL,"Study Phase2",444,,,-1,-1,,,,1
w10005410,tfom6ldks0,Nick_Dissertation_EX1,1,228,2020-04-20T16:38:13-07:00,0.65031790733337,2,versionA_stim.csv,READVersionB.csv,"Read Version B","Dissertation, read only version B",DISCOVER,FLOOR,Study1,U,71,73,Study,User,-,,Study/JOL,"Study Phase2",382,,,-1,-1,,,,1
w10005410,tfom6ldks0,Nick_Dissertation_EX1,1,229,2020-04-20T16:38:13-07:00,0.54311418533325,2,versionA_stim.csv,READVersionB.csv,"Read Version B","Dissertation, read only version B",DUE,ASSIGNMENT,Study1,S,46,58,Study,User,-,,Study/JOL,"Study Phase2",277,,,-1,-1,,,,1
w10005410,tfom6ldks0,Nick_Dissertation_EX1,1,230,2020-04-20T16:38:14-07:00,0.58257293701172,2,versionA_stim.csv,READVersionB.csv,"Read Version B","Dissertation, read only version B",REVOLUTION,WAR,Study1,F,20,28,Study,User,-,,Study/JOL,"Study Phase2",322,,,-1,-1,,,,1
w10005410,tfom6ldks0,Nick_Dissertation_EX1,1,231,2020-04-20T16:38:15-07:00,0.68886303901672,2,versionA_stim.csv,READVersionB.csv,"Read Version B","Dissertation, read only version B",NUMBER,AMOUNT,Study1,S,47,53,Study,User,-,,Study/JOL,"Study Phase2",444,,,-1,-1,,,,1
w10005410,tfom6ldks0,Nick_Dissertation_EX1,1,232,2020-04-20T16:38:15-07:00,0.64939785003662,2,versionA_stim.csv,READVersionB.csv,"Read Version B","Dissertation, read only version B",GREAT,FANTASTIC,Study1,B,35,32,Study,User,-,,Study/JOL,"Study Phase2",398,,,-1,-1,,,,1
w10005410,tfom6ldks0,Nick_Dissertation_EX1,1,233,2020-04-20T16:38:16-07:00,0.3695650100708,2,versionA_stim.csv,READVersionB.csv,"Read Version B","Dissertation, read only version B",KING,VASE,Study1,U,85,86,Study,User,-,,Study/JOL,"Study Phase2",118,,,-1,-1,,,,1
w10005410,tfom6ldks0,Nick_Dissertation_EX1,1,234,2020-04-20T16:38:16-07:00,0.62802696228027,2,versionA_stim.csv,READVersionB.csv,"Read Version B","Dissertation, read only version B",WINE,CHEESE,Study1,S,57,18,Study,User,-,,Study/JOL,"Study Phase2",383,,,-1,-1,,,,1
w10005410,tfom6ldks0,Nick_Dissertation_EX1,1,235,2020-04-20T16:38:17-07:00,0.71753907203674,2,versionA_stim.csv,READVersionB.csv,"Read Version B","Dissertation, read only version B",SWAN,BIRD,Study1,F,14,17,Study,User,-,,Study/JOL,"Study Phase2",473,,,-1,-1,,,,1
w10005410,tfom6ldks0,Nick_Dissertation_EX1,1,236,2020-04-20T16:38:18-07:00,0.70087289810181,2,versionA_stim.csv,READVersionB.csv,"Read Version B","Dissertation, read only version B",SMELL,STENCH,Study1,B,42,34,Study,User,-,,Study/JOL,"Study Phase2",435,,,-1,-1,,,,1
w10005410,tfom6ldks0,Nick_Dissertation_EX1,1,237,2020-04-20T16:38:18-07:00,0.66664600372314,2,versionA_stim.csv,READVersionB.csv,"Read Version B","Dissertation, read only version B",BLOW,WIND,Study1,S,55,76,Study,User,-,,Study/JOL,"Study Phase2",328,,,-1,-1,,,,1
w10005410,tfom6ldks0,Nick_Dissertation_EX1,1,238,2020-04-20T16:38:19-07:00,0.83034014701843,2,versionA_stim.csv,READVersionB.csv,"Read Version B","Dissertation, read only version B",PARK,HUNGRY,Study1,U,68,26,Study,User,-,,Study/JOL,"Study Phase2",405,,,-1,-1,,,,1
w10005410,tfom6ldks0,Nick_Dissertation_EX1,1,239,2020-04-20T16:38:20-07:00,0.39108991622925,2,versionA_stim.csv,READVersionB.csv,"Read Version B","Dissertation, read only version B",FIX,HAND,Study1,U,75,46,Study,User,-,,Study/JOL,"Study Phase2",130,,,-1,-1,,,,1
w10005410,tfom6ldks0,Nick_Dissertation_EX1,1,240,2020-04-20T16:38:20-07:00,0.46835494041443,2,versionA_stim.csv,READVersionB.csv,"Read Version B","Dissertation, read only version B",HORNET,STING,Study1,F,11,41,Study,User,-,,Study/JOL,"Study Phase2",205,,,-1,-1,,,,1
w10005410,tfom6ldks0,Nick_Dissertation_EX1,1,241,2020-04-20T16:38:21-07:00,0.68678402900696,2,versionA_stim.csv,READVersionB.csv,"Read Version B","Dissertation, read only version B",HAPPY,CAR,Study1,U,77,74,Study,User,-,,Study/JOL,"Study Phase2",430,,,-1,-1,,,,1
w10005410,tfom6ldks0,Nick_Dissertation_EX1,1,242,2020-04-20T16:38:22-07:00,0.80826997756958,2,versionA_stim.csv,READVersionB.csv,"Read Version B","Dissertation, read only version B",ART,LION,Study1,U,79,81,Study,User,-,,Study/JOL,"Study Phase2",548,,,-1,-1,,,,1
w10005410,tfom6ldks0,Nick_Dissertation_EX1,1,243,2020-04-20T16:38:22-07:00,0.68621110916138,2,versionA_stim.csv,READVersionB.csv,"Read Version B","Dissertation, read only version B",BALL,RACKET,Study1,B,38,77,Study,User,-,,Study/JOL,"Study Phase2",438,,,-1,-1,,,,1
w10005410,tfom6ldks0,Nick_Dissertation_EX1,1,244,2020-04-20T16:38:23-07:00,0.41785097122192,2,versionA_stim.csv,READVersionB.csv,"Read Version B","Dissertation, read only version B",FULL,ENOUGH,Study1,B,26,39,Study,User,-,,Study/JOL,"Study Phase2",168,,,-1,-1,,,,1
w10005410,tfom6ldks0,Nick_Dissertation_EX1,1,245,2020-04-20T16:38:23-07:00,0.4672679901123,2,versionA_stim.csv,READVersionB.csv,"Read Version B","Dissertation, read only version B",POP,SODA,Study1,S,56,82,Study,User,-,,Study/JOL,"Study Phase2",212,,,-1,-1,,,,1
w10005410,tfom6ldks0,Nick_Dissertation_EX1,1,246,2020-04-20T16:38:24-07:00,0.41236710548401,2,versionA_stim.csv,READVersionB.csv,"Read Version B","Dissertation, read only version B",HUNGER,FAMINE,Study1,B,40,70,Study,User,-,,Study/JOL,"Study Phase2",160,,,-1,-1,,,,1
w10005410,tfom6ldks0,Nick_Dissertation_EX1,1,247,2020-04-20T16:38:24-07:00,0.75572204589844,2,versionA_stim.csv,READVersionB.csv,"Read Version B","Dissertation, read only version B",MEANING,DEFINITION,Study1,S,62,65,Study,User,-,,Study/JOL,"Study Phase2",494,,,-1,-1,,,,1
w10005410,tfom6ldks0,Nick_Dissertation_EX1,1,248,2020-04-20T16:38:25-07:00,0.63423585891724,2,versionA_stim.csv,READVersionB.csv,"Read Version B","Dissertation, read only version B",ALLOW,TUCK,Study1,U,78,20,Study,User,-,,Study/JOL,"Study Phase2",378,,,-1,-1,,,,1
w10005410,tfom6ldks0,Nick_Dissertation_EX1,1,249,2020-04-20T16:38:26-07:00,0.61143493652344,2,versionA_stim.csv,READVersionB.csv,"Read Version B","Dissertation, read only version B",ORCHID,FLOWER,Study1,F,24,11,Study,User,-,,Study/JOL,"Study Phase2",364,,,-1,-1,,,,1
w10005410,tfom6ldks0,Nick_Dissertation_EX1,1,250,2020-04-20T16:38:26-07:00,0.51841616630554,2,versionA_stim.csv,READVersionB.csv,"Read Version B","Dissertation, read only version B",STRONG,ACCIDENT,Study1,U,80,54,Study,User,-,,Study/JOL,"Study Phase2",269,,,-1,-1,,,,1
w10005410,tfom6ldks0,Nick_Dissertation_EX1,1,251,2020-04-20T16:38:27-07:00,0.59857702255249,2,versionA_stim.csv,READVersionB.csv,"Read Version B","Dissertation, read only version B",BRIDGE,WATER,Study1,F,18,29,Study,User,-,,Study/JOL,"Study Phase2",353,,,-1,-1,,,,1
w10005410,tfom6ldks0,Nick_Dissertation_EX1,1,252,2020-04-20T16:38:27-07:00,0.6477108001709,2,versionA_stim.csv,READVersionB.csv,"Read Version B","Dissertation, read only version B",BITTER,COLD,Study1,F,12,23,Study,User,-,,Study/JOL,"Study Phase2",405,,,-1,-1,,,,1
w10005410,tfom6ldks0,Nick_Dissertation_EX1,1,253,2020-04-20T16:38:28-07:00,0.7212290763855,2,versionA_stim.csv,READVersionB.csv,"Read Version B","Dissertation, read only version B",SOON,BELT,Study1,U,70,24,Study,User,-,,Study/JOL,"Study Phase2",478,,,-1,-1,,,,1
w10005410,tfom6ldks0,Nick_Dissertation_EX1,1,254,2020-04-20T16:38:29-07:00,0.7020149230957,2,versionA_stim.csv,READVersionB.csv,"Read Version B","Dissertation, read only version B",DEBATE,SIGHT,Study1,U,73,49,Study,User,-,,Study/JOL,"Study Phase2",451,,,-1,-1,,,,1
w10005410,tfom6ldks0,Nick_Dissertation_EX1,1,255,2020-04-20T16:38:30-07:00,0.71007013320923,2,versionA_stim.csv,READVersionB.csv,"Read Version B","Dissertation, read only version B",ROOT,PLANT,Study1,F,13,40,Study,User,-,,Study/JOL,"Study Phase2",459,,,-1,-1,,,,1
w10005410,tfom6ldks0,Nick_Dissertation_EX1,1,256,2020-04-20T16:38:30-07:00,0.66447997093201,2,versionA_stim.csv,READVersionB.csv,"Read Version B","Dissertation, read only version B",DARK,CAVE,Study1,B,28,71,Study,User,-,,Study/JOL,"Study Phase2",409,,,-1,-1,,,,1
w10005410,tfom6ldks0,Nick_Dissertation_EX1,1,257,2020-04-20T16:38:31-07:00,0.69194793701172,2,versionA_stim.csv,READVersionB.csv,"Read Version B","Dissertation, read only version B",DIETARY,SACKING,Study1,U,67,85,Study,User,-,,Study/JOL,"Study Phase2",443,,,-1,-1,,,,1
w10005410,tfom6ldks0,Nick_Dissertation_EX1,1,258,2020-04-20T16:38:32-07:00,0.69113206863403,2,versionA_stim.csv,READVersionB.csv,"Read Version B","Dissertation, read only version B",BEGIN,END,Study1,S,54,7,Study,User,-,,Study/JOL,"Study Phase2",438,,,-1,-1,,,,1
w10005410,tfom6ldks0,Nick_Dissertation_EX1,1,259,2020-04-20T16:38:32-07:00,0.73808193206787,2,versionA_stim.csv,READVersionB.csv,"Read Version B","Dissertation, read only version B",HOT,CHILI,Study1,B,37,79,Study,User,-,,Study/JOL,"Study Phase2",496,,,-1,-1,,,,1
w10005410,tfom6ldks0,Nick_Dissertation_EX1,1,260,2020-04-20T16:38:33-07:00,0.71798205375671,2,versionA_stim.csv,READVersionB.csv,"Read Version B","Dissertation, read only version B",GEOLOGY,ROCK,Study1,F,19,9,Study,User,-,,Study/JOL,"Study Phase2",474,,,-1,-1,,,,1
w10005410,tfom6ldks0,Nick_Dissertation_EX1,1,261,2020-04-20T16:38:34-07:00,0.61934304237366,2,versionA_stim.csv,READVersionB.csv,"Read Version B","Dissertation, read only version B",SHERRIF,POLICE,BUFFER2,Buffer,87,88,Study,User,-,,Study/JOL,BUFFER4,370,,,-1,-1,,,,1
w10005410,tfom6ldks0,Nick_Dissertation_EX1,1,262,2020-04-20T16:38:34-07:00,0.67020487785339,2,versionA_stim.csv,READVersionB.csv,"Read Version B","Dissertation, read only version B",THING,STUFF,BUFFER2,Buffer,90,91,Study,User,-,,Study/JOL,BUFFER4,429,,,-1,-1,,,,1
w10005410,tfom6ldks0,Nick_Dissertation_EX1,1,263,2020-04-20T16:38:35-07:00,0.67583608627319,2,versionA_stim.csv,READVersionB.csv,"Read Version B","Dissertation, read only version B",GEESE,GOOSE,BUFFER2,Buffer,86,89,Study,User,-,,Study/JOL,BUFFER4,423,,,-1,-1,,,,1
w10005410,tfom6ldks0,Nick_Dissertation_EX1,1,264,2020-04-20T16:38:36-07:00,0.70752596855164,2,versionA_stim.csv,READVersionB.csv,"Read Version B","Dissertation, read only version B",MALT,CHOCOLATE,BUFFER2,Buffer,88,90,Study,User,-,,Study/JOL,BUFFER4,459,,,-1,-1,,,,1
w10005410,tfom6ldks0,Nick_Dissertation_EX1,1,265,2020-04-20T16:38:36-07:00,0.69263911247253,2,versionA_stim.csv,READVersionB.csv,"Read Version B","Dissertation, read only version B",MOON,SPACE,BUFFER2,Buffer,89,87,Study,User,-,,Study/JOL,BUFFER4,443,,,-1,-1,,,,1
w10005410,tfom6ldks0,Nick_Dissertation_EX1,1,266,2020-04-20T16:38:41-07:00,4.7753129005432,2,versionA_stim.csv,READVersionB.csv,"Read Version B","Dissertation, read only version B",,,,,,0,Instruct,User,-,"You have completed this section. Please press Enter.",Filler_Instruction,Instruct5,4462,,,-1,-1,,,,1
w10005410,tfom6ldks0,Nick_Dissertation_EX1,1,267,2020-04-20T16:40:42-07:00,120.37158513069,2,versionA_stim.csv,READVersionB.csv,"Read Version B","Dissertation, read only version B",,,,,,0,FreeRecall,120,120,"Please list the 50 US states in reverse alphabetical order (z - a). The task will automatically advance to the next screen after two minutes.",,Filler2,120002,"wyoming Wisconsin West Virginia Washington virginia Vermont Utah texas Tennessee south Dakota ",0,12042,113242,0,0,,1
w10005410,tfom6ldks0,Nick_Dissertation_EX1,1,268,2020-04-20T16:40:59-07:00,17.171421766281,2,versionA_stim.csv,READVersionB.csv,"Read Version B","Dissertation, read only version B",,,,,,0,Instruct,-,10,"You will now be presented with the first word from each of the previously studied item pairs. Please type the missing word. If you do not know the word, you may guess or press Enter to skip forward to the next pair.",,Instruct6,16815,,,-1,-1,,,,1
w10005410,tfom6ldks0,Nick_Dissertation_EX1,1,269,2020-04-20T16:41:05-07:00,5.9473421573639,2,versionA_stim.csv,READVersionB.csv,"Read Version B","Dissertation, read only version B",KIDNEY,LIVER,Study1,S,53,8,Test,User,-,,Recall,Recall2,5611,ston,0,4619,5345,0,0,,1
w10005410,tfom6ldks0,Nick_Dissertation_EX1,1,270,2020-04-20T16:41:06-07:00,1.4169120788574,2,versionA_stim.csv,READVersionB.csv,"Read Version B","Dissertation, read only version B",CIRCLE,ROUND,Study1,S,65,10,Test,User,-,,Recall,Recall2,1143,,0,-1,-1,0,0,,1
w10005410,tfom6ldks0,Nick_Dissertation_EX1,1,271,2020-04-20T16:41:12-07:00,5.4269769191742,2,versionA_stim.csv,READVersionB.csv,"Read Version B","Dissertation, read only version B",STRONG,ACCIDENT,Study1,U,80,54,Test,User,-,,Recall,Recall2,1098,,0,-1,-1,0,0,,0.833
w10005410,tfom6ldks0,Nick_Dissertation_EX1,1,272,2020-04-20T16:41:14-07:00,2.6673078536987,2,versionA_stim.csv,READVersionB.csv,"Read Version B","Dissertation, read only version B",DIETARY,SACKING,Study1,U,67,85,Test,User,-,,Recall,Recall2,2312,,0,-1,-1,0,0,,1
w10005410,tfom6ldks0,Nick_Dissertation_EX1,1,273,2020-04-20T16:41:15-07:00,1.1707770824432,2,versionA_stim.csv,READVersionB.csv,"Read Version B","Dissertation, read only version B",CHISEL,HAMMER,Study1,F,9,42,Test,User,-,,Recall,Recall2,751,,0,-1,-1,0,0,,1
w10005410,tfom6ldks0,Nick_Dissertation_EX1,1,274,2020-04-20T16:41:16-07:00,1.1118650436401,2,versionA_stim.csv,READVersionB.csv,"Read Version B","Dissertation, read only version B",ARCHITECTURE,DESIGN,Study1,S,51,35,Test,User,-,,Recall,Recall2,854,,0,-1,-1,0,0,,1
w10005410,tfom6ldks0,Nick_Dissertation_EX1,1,275,2020-04-20T16:41:22-07:00,5.8329119682312,2,versionA_stim.csv,READVersionB.csv,"Read Version B","Dissertation, read only version B",LAW,ATTORNEY,Study1,B,34,56,Test,User,-,,Recall,Recall2,682,,0,-1,-1,0,0,,0.75
w10005410,tfom6ldks0,Nick_Dissertation_EX1,1,276,2020-04-20T16:41:25-07:00,3.1199851036072,2,versionA_stim.csv,READVersionB.csv,"Read Version B","Dissertation, read only version B",CLOTHES,ATTIRE,Study1,B,43,59,Test,User,-,,Recall,Recall2,931,,0,-1,-1,0,0,,1
w10005410,tfom6ldks0,Nick_Dissertation_EX1,1,277,2020-04-20T16:41:33-07:00,7.3858759403229,2,versionA_stim.csv,READVersionB.csv,"Read Version B","Dissertation, read only version B",BRIDGE,WATER,Study1,F,18,29,Test,User,-,,Recall,Recall2,7057,water,100,5223,6136,1,1,,1
w10005410,tfom6ldks0,Nick_Dissertation_EX1,1,278,2020-04-20T16:41:35-07:00,1.7743098735809,2,versionA_stim.csv,READVersionB.csv,"Read Version B","Dissertation, read only version B",MACHINE,POSITION,Study1,U,76,43,Test,User,-,,Recall,Recall2,1508,,0,-1,-1,0,0,,1
w10005410,tfom6ldks0,Nick_Dissertation_EX1,1,279,2020-04-20T16:41:35-07:00,0.49310708045959,2,versionA_stim.csv,READVersionB.csv,"Read Version B","Dissertation, read only version B",PLANE,PILOT,Study1,B,44,75,Test,User,-,,Recall,Recall2,247,,0,-1,-1,0,0,,1
w10005410,tfom6ldks0,Nick_Dissertation_EX1,1,280,2020-04-20T16:41:37-07:00,1.7584459781647,2,versionA_stim.csv,READVersionB.csv,"Read Version B","Dissertation, read only version B",TUNA,FISH,Study1,F,25,27,Test,User,-,,Recall,Recall2,1518,,0,-1,-1,0,0,,1
w10005410,tfom6ldks0,Nick_Dissertation_EX1,1,281,2020-04-20T16:41:45-07:00,7.8432159423828,2,versionA_stim.csv,READVersionB.csv,"Read Version B","Dissertation, read only version B",GREAT,FANTASTIC,Study1,B,35,32,Test,User,-,,Recall,Recall2,7528,nice,46.153846153846,6632,7378,0,0,,1
w10005410,tfom6ldks0,Nick_Dissertation_EX1,1,282,2020-04-20T16:41:46-07:00,1.487095117569,2,versionA_stim.csv,READVersionB.csv,"Read Version B","Dissertation, read only version B",SMELL,STENCH,Study1,B,42,34,Test,User,-,,Recall,Recall2,1228,,0,-1,-1,0,0,,1
w10005410,tfom6ldks0,Nick_Dissertation_EX1,1,283,2020-04-20T16:41:55-07:00,8.387510061264,2,versionA_stim.csv,READVersionB.csv,"Read Version B","Dissertation, read only version B",DARK,CAVE,Study1,B,28,71,Test,User,-,,Recall,Recall2,2288,hide,25,1693,2149,0,0,,0.917
w10005410,tfom6ldks0,Nick_Dissertation_EX1,1,284,2020-04-20T16:41:55-07:00,0.66312980651855,2,versionA_stim.csv,READVersionB.csv,"Read Version B","Dissertation, read only version B",LETTUCE,SALAD,Study1,S,59,36,Test,User,-,,Recall,Recall2,392,,0,-1,-1,0,0,,1
w10005410,tfom6ldks0,Nick_Dissertation_EX1,1,285,2020-04-20T16:41:59-07:00,3.9043052196503,2,versionA_stim.csv,READVersionB.csv,"Read Version B","Dissertation, read only version B",FIRE,BLAZE,Study1,B,45,61,Test,User,-,,Recall,Recall2,3570,,0,-1,-1,0,0,,1
w10005410,tfom6ldks0,Nick_Dissertation_EX1,1,286,2020-04-20T16:42:00-07:00,0.97940397262573,2,versionA_stim.csv,READVersionB.csv,"Read Version B","Dissertation, read only version B",NUMBER,AMOUNT,Study1,S,47,53,Test,User,-,,Recall,Recall2,714,,0,-1,-1,0,0,,1
w10005410,tfom6ldks0,Nick_Dissertation_EX1,1,287,2020-04-20T16:42:06-07:00,5.7604219913483,2,versionA_stim.csv,READVersionB.csv,"Read Version B","Dissertation, read only version B",SLEEP,DROWSY,Study1,B,41,30,Test,User,-,,Recall,Recall2,5445,,0,-1,-1,0,0,,1
w10005410,tfom6ldks0,Nick_Dissertation_EX1,1,288,2020-04-20T16:42:07-07:00,1.2073359489441,2,versionA_stim.csv,READVersionB.csv,"Read Version B","Dissertation, read only version B",VALLEY,ADD,Study1,U,82,44,Test,User,-,,Recall,Recall2,941,,0,-1,-1,0,0,,1
w10005410,tfom6ldks0,Nick_Dissertation_EX1,1,289,2020-04-20T16:42:13-07:00,5.950131893158,2,versionA_stim.csv,READVersionB.csv,"Read Version B","Dissertation, read only version B",KEY,LATCH,Study1,B,36,31,Test,User,-,,Recall,Recall2,1085,,0,-1,-1,0,0,,0.833
w10005410,tfom6ldks0,Nick_Dissertation_EX1,1,290,2020-04-20T16:42:14-07:00,1.1392669677734,2,versionA_stim.csv,READVersionB.csv,"Read Version B","Dissertation, read only version B",PUSHER,CLUTTER,Study1,U,66,22,Test,User,-,,Recall,Recall2,681,,0,-1,-1,0,0,,1
w10005410,tfom6ldks0,Nick_Dissertation_EX1,1,291,2020-04-20T16:42:16-07:00,1.7112510204315,2,versionA_stim.csv,READVersionB.csv,"Read Version B","Dissertation, read only version B",MATH,DIVISION,Study1,B,33,57,Test,User,-,,Recall,Recall2,1417,,0,-1,-1,0,0,,1
w10005410,tfom6ldks0,Nick_Dissertation_EX1,1,292,2020-04-20T16:42:17-07:00,0.90287613868713,2,versionA_stim.csv,READVersionB.csv,"Read Version B","Dissertation, read only version B",WAGE,MONEY,Study1,F,8,52,Test,User,-,,Recall,Recall2,663,,0,-1,-1,0,0,,1
w10005410,tfom6ldks0,Nick_Dissertation_EX1,1,293,2020-04-20T16:42:18-07:00,1.5459630489349,2,versionA_stim.csv,READVersionB.csv,"Read Version B","Dissertation, read only version B",SENTENCE,WORD,Study1,B,31,19,Test,User,-,,Recall,Recall2,1297,,0,-1,-1,0,0,,1
w10005410,tfom6ldks0,Nick_Dissertation_EX1,1,294,2020-04-20T16:42:20-07:00,1.9770798683167,2,versionA_stim.csv,READVersionB.csv,"Read Version B","Dissertation, read only version B",WAY,OUT,Study1,F,16,78,Test,User,-,,Recall,Recall2,1731,,0,-1,-1,0,0,,1
w10005410,tfom6ldks0,Nick_Dissertation_EX1,1,295,2020-04-20T16:42:22-07:00,1.8954949378967,2,versionA_stim.csv,READVersionB.csv,"Read Version B","Dissertation, read only version B",BATHROOM,TOILET,Study1,S,58,55,Test,User,-,,Recall,Recall2,1656,,0,-1,-1,0,0,,1
w10005410,tfom6ldks0,Nick_Dissertation_EX1,1,296,2020-04-20T16:42:24-07:00,2.0598981380463,2,versionA_stim.csv,READVersionB.csv,"Read Version B","Dissertation, read only version B",ARTERY,BRONZE,Study1,U,74,72,Test,User,-,,Recall,Recall2,1809,,0,-1,-1,0,0,,1
w10005410,tfom6ldks0,Nick_Dissertation_EX1,1,297,2020-04-20T16:42:28-07:00,4.0075628757477,2,versionA_stim.csv,READVersionB.csv,"Read Version B","Dissertation, read only version B",HIDE,SICK,Study1,U,84,63,Test,User,-,,Recall,Recall2,3671,dark,25,2704,3351,0,0,,1
w10005410,tfom6ldks0,Nick_Dissertation_EX1,1,298,2020-04-20T16:42:34-07:00,5.8635201454163,2,versionA_stim.csv,READVersionB.csv,"Read Version B","Dissertation, read only version B",DEBATE,SIGHT,Study1,U,73,49,Test,User,-,,Recall,Recall2,1199,,0,-1,-1,0,0,,0.833
w10005410,tfom6ldks0,Nick_Dissertation_EX1,1,299,2020-04-20T16:42:35-07:00,1.3081388473511,2,versionA_stim.csv,READVersionB.csv,"Read Version B","Dissertation, read only version B",TRIAL,JURY,Study1,S,50,25,Test,User,-,,Recall,Recall2,1006,,0,-1,-1,0,0,,1
w10005410,tfom6ldks0,Nick_Dissertation_EX1,1,300,2020-04-20T16:42:43-07:00,7.3175129890442,2,versionA_stim.csv,READVersionB.csv,"Read Version B","Dissertation, read only version B",DIGESTION,STOMACH,Study1,F,7,69,Test,User,-,,Recall,Recall2,957,,0,-1,-1,0,0,,0.8
w10005410,tfom6ldks0,Nick_Dissertation_EX1,1,301,2020-04-20T16:42:44-07:00,1.054603099823,2,versionA_stim.csv,READVersionB.csv,"Read Version B","Dissertation, read only version B",WORK,CHORE,Study1,B,39,14,Test,User,-,,Recall,Recall2,778,,0,-1,-1,0,0,,1
w10005410,tfom6ldks0,Nick_Dissertation_EX1,1,302,2020-04-20T16:42:45-07:00,0.84954309463501,2,versionA_stim.csv,READVersionB.csv,"Read Version B","Dissertation, read only version B",ART,LION,Study1,U,79,81,Test,User,-,,Recall,Recall2,593,,0,-1,-1,0,0,,1
w10005410,tfom6ldks0,Nick_Dissertation_EX1,1,303,2020-04-20T16:42:52-07:00,6.9440870285034,2,versionA_stim.csv,READVersionB.csv,"Read Version B","Dissertation, read only version B",BEGIN,END,Study1,S,54,7,Test,User,-,,Recall,Recall2,6511,key,33.333333333333,1883,6166,0,0,,1
w10005410,tfom6ldks0,Nick_Dissertation_EX1,1,304,2020-04-20T16:42:53-07:00,1.2601637840271,2,versionA_stim.csv,READVersionB.csv,"Read Version B","Dissertation, read only version B",BABY,CHILD,Study1,S,64,38,Test,User,-,,Recall,Recall2,990,,0,-1,-1,0,0,,1
w10005410,tfom6ldks0,Nick_Dissertation_EX1,1,305,2020-04-20T16:42:53-07:00,0.2842001914978,2,versionA_stim.csv,READVersionB.csv,"Read Version B","Dissertation, read only version B",GEOLOGY,ROCK,Study1,F,19,9,Test,User,-,,Recall,Recall2,37,,0,-1,-1,0,0,,1
w10005410,tfom6ldks0,Nick_Dissertation_EX1,1,306,2020-04-20T16:42:54-07:00,1.2407720088959,2,versionA_stim.csv,READVersionB.csv,"Read Version B","Dissertation, read only version B",PARK,HUNGRY,Study1,U,68,26,Test,User,-,,Recall,Recall2,996,,0,-1,-1,0,0,,1
w10005410,tfom6ldks0,Nick_Dissertation_EX1,1,307,2020-04-20T16:42:55-07:00,0.98298382759094,2,versionA_stim.csv,READVersionB.csv,"Read Version B","Dissertation, read only version B",GRILL,BAR,Study1,S,52,60,Test,User,-,,Recall,Recall2,732,,0,-1,-1,0,0,,1
w10005410,tfom6ldks0,Nick_Dissertation_EX1,1,308,2020-04-20T16:42:57-07:00,1.530620098114,2,versionA_stim.csv,READVersionB.csv,"Read Version B","Dissertation, read only version B",FIX,HAND,Study1,U,75,46,Test,User,-,,Recall,Recall2,1285,,0,-1,-1,0,0,,1
w10005410,tfom6ldks0,Nick_Dissertation_EX1,1,309,2020-04-20T16:42:58-07:00,1.0351998806,2,versionA_stim.csv,READVersionB.csv,"Read Version B","Dissertation, read only version B",BLOW,WIND,Study1,S,55,76,Test,User,-,,Recall,Recall2,779,,0,-1,-1,0,0,,1
w10005410,tfom6ldks0,Nick_Dissertation_EX1,1,310,2020-04-20T16:42:59-07:00,0.897292137146,2,versionA_stim.csv,READVersionB.csv,"Read Version B","Dissertation, read only version B",EDITOR,NEWS,Study1,F,10,45,Test,User,-,,Recall,Recall2,645,,0,-1,-1,0,0,,1
w10005410,tfom6ldks0,Nick_Dissertation_EX1,1,311,2020-04-20T16:43:08-07:00,9.4457139968872,2,versionA_stim.csv,READVersionB.csv,"Read Version B","Dissertation, read only version B",SHOE,FOOT,Study1,S,60,66,Test,User,-,,Recall,Recall2,1917,lace,0,1307,1826,0,0,,0.9
w10005410,tfom6ldks0,Nick_Dissertation_EX1,1,312,2020-04-20T16:43:10-07:00,2.1207468509674,2,versionA_stim.csv,READVersionB.csv,"Read Version B","Dissertation, read only version B",SOON,BELT,Study1,U,70,24,Test,User,-,,Recall,Recall2,1844,,0,-1,-1,0,0,,1
w10005410,tfom6ldks0,Nick_Dissertation_EX1,1,313,2020-04-20T16:43:11-07:00,0.9031879901886,2,versionA_stim.csv,READVersionB.csv,"Read Version B","Dissertation, read only version B",HORNET,STING,Study1,F,11,41,Test,User,-,,Recall,Recall2,590,,0,-1,-1,0,0,,1
w10005410,tfom6ldks0,Nick_Dissertation_EX1,1,314,2020-04-20T16:43:12-07:00,0.92548823356628,2,versionA_stim.csv,READVersionB.csv,"Read Version B","Dissertation, read only version B",KING,VASE,Study1,U,85,86,Test,User,-,,Recall,Recall2,671,,0,-1,-1,0,0,,1
w10005410,tfom6ldks0,Nick_Dissertation_EX1,1,315,2020-04-20T16:43:13-07:00,0.80117392539978,2,versionA_stim.csv,READVersionB.csv,"Read Version B","Dissertation, read only version B",ALLOW,TUCK,Study1,U,78,20,Test,User,-,,Recall,Recall2,545,,0,-1,-1,0,0,,1
w10005410,tfom6ldks0,Nick_Dissertation_EX1,1,316,2020-04-20T16:43:17-07:00,4.4109039306641,2,versionA_stim.csv,READVersionB.csv,"Read Version B","Dissertation, read only version B",DELINQUENT,BAD,Study1,F,6,47,Test,User,-,,Recall,Recall2,4075,,0,-1,-1,0,0,,1
w10005410,tfom6ldks0,Nick_Dissertation_EX1,1,317,2020-04-20T16:43:18-07:00,0.81627011299133,2,versionA_stim.csv,READVersionB.csv,"Read Version B","Dissertation, read only version B",DISCOVER,FLOOR,Study1,U,71,73,Test,User,-,,Recall,Recall2,513,,0,-1,-1,0,0,,1
w10005410,tfom6ldks0,Nick_Dissertation_EX1,1,318,2020-04-20T16:43:19-07:00,1.1473309993744,2,versionA_stim.csv,READVersionB.csv,"Read Version B","Dissertation, read only version B",BUG,WASP,Study1,B,32,21,Test,User,-,,Recall,Recall2,893,,0,-1,-1,0,0,,1
w10005410,tfom6ldks0,Nick_Dissertation_EX1,1,319,2020-04-20T16:43:20-07:00,0.88972997665405,2,versionA_stim.csv,READVersionB.csv,"Read Version B","Dissertation, read only version B",FULL,ENOUGH,Study1,B,26,39,Test,User,-,,Recall,Recall2,639,,0,-1,-1,0,0,,1
w10005410,tfom6ldks0,Nick_Dissertation_EX1,1,320,2020-04-20T16:43:26-07:00,6.0569968223572,2,versionA_stim.csv,READVersionB.csv,"Read Version B","Dissertation, read only version B",CASH,WOULD,Study1,U,83,37,Test,User,-,,Recall,Recall2,5736,money,20,2661,5403,0,0,,1
w10005410,tfom6ldks0,Nick_Dissertation_EX1,1,321,2020-04-20T16:43:28-07:00,1.2441341876984,2,versionA_stim.csv,READVersionB.csv,"Read Version B","Dissertation, read only version B",HYGIENE,CLEAN,Study1,F,17,62,Test,User,-,,Recall,Recall2,964,,0,-1,-1,0,0,,1
w10005410,tfom6ldks0,Nick_Dissertation_EX1,1,322,2020-04-20T16:43:28-07:00,0.90073394775391,2,versionA_stim.csv,READVersionB.csv,"Read Version B","Dissertation, read only version B",DUE,ASSIGNMENT,Study1,S,46,58,Test,User,-,,Recall,Recall2,636,,0,-1,-1,0,0,,1
w10005410,tfom6ldks0,Nick_Dissertation_EX1,1,323,2020-04-20T16:43:29-07:00,0.65984797477722,2,versionA_stim.csv,READVersionB.csv,"Read Version B","Dissertation, read only version B",DEATH,BUSINESS,Study1,U,72,50,Test,User,-,,Recall,Recall2,402,,0,-1,-1,0,0,,1
w10005410,tfom6ldks0,Nick_Dissertation_EX1,1,324,2020-04-20T16:43:30-07:00,1.0630540847778,2,versionA_stim.csv,READVersionB.csv,"Read Version B","Dissertation, read only version B",WINE,CHEESE,Study1,S,57,18,Test,User,-,,Recall,Recall2,803,,0,-1,-1,0,0,,1
w10005410,tfom6ldks0,Nick_Dissertation_EX1,1,325,2020-04-20T16:43:31-07:00,1.128201007843,2,versionA_stim.csv,READVersionB.csv,"Read Version B","Dissertation, read only version B",PAST,FUTURE,Study1,S,61,33,Test,User,-,,Recall,Recall2,866,,0,-1,-1,0,0,,1
w10005410,tfom6ldks0,Nick_Dissertation_EX1,1,326,2020-04-20T16:43:32-07:00,0.74706983566284,2,versionA_stim.csv,READVersionB.csv,"Read Version B","Dissertation, read only version B",ORCHID,FLOWER,Study1,F,24,11,Test,User,-,,Recall,Recall2,493,,0,-1,-1,0,0,,1
w10005410,tfom6ldks0,Nick_Dissertation_EX1,1,327,2020-04-20T16:43:33-07:00,0.71108603477478,2,versionA_stim.csv,READVersionB.csv,"Read Version B","Dissertation, read only version B",CREDIT,CARD,Study1,F,23,48,Test,User,-,,Recall,Recall2,453,,0,-1,-1,0,0,,1
w10005410,tfom6ldks0,Nick_Dissertation_EX1,1,328,2020-04-20T16:43:34-07:00,0.98698496818542,2,versionA_stim.csv,READVersionB.csv,"Read Version B","Dissertation, read only version B",HONEY,BEE,Study1,S,63,67,Test,User,-,,Recall,Recall2,733,,0,-1,-1,0,0,,1
w10005410,tfom6ldks0,Nick_Dissertation_EX1,1,329,2020-04-20T16:43:35-07:00,0.98342609405518,2,versionA_stim.csv,READVersionB.csv,"Read Version B","Dissertation, read only version B",SUGAR,RIDDLE,Study1,U,81,64,Test,User,-,,Recall,Recall2,735,,0,-1,-1,0,0,,1
w10005410,tfom6ldks0,Nick_Dissertation_EX1,1,330,2020-04-20T16:43:36-07:00,0.81845593452454,2,versionA_stim.csv,READVersionB.csv,"Read Version B","Dissertation, read only version B",POP,SODA,Study1,S,56,82,Test,User,-,,Recall,Recall2,547,,0,-1,-1,0,0,,1
w10005410,tfom6ldks0,Nick_Dissertation_EX1,1,331,2020-04-20T16:43:36-07:00,0.74678111076355,2,versionA_stim.csv,READVersionB.csv,"Read Version B","Dissertation, read only version B",MEANING,DEFINITION,Study1,S,62,65,Test,User,-,,Recall,Recall2,506,,0,-1,-1,0,0,,1
w10005410,tfom6ldks0,Nick_Dissertation_EX1,1,332,2020-04-20T16:43:37-07:00,0.67694902420044,2,versionA_stim.csv,READVersionB.csv,"Read Version B","Dissertation, read only version B",REVOLUTION,WAR,Study1,F,20,28,Test,User,-,,Recall,Recall2,426,,0,-1,-1,0,0,,1
w10005410,tfom6ldks0,Nick_Dissertation_EX1,1,333,2020-04-20T16:43:38-07:00,0.66461086273193,2,versionA_stim.csv,READVersionB.csv,"Read Version B","Dissertation, read only version B",HOT,CHILI,Study1,B,37,79,Test,User,-,,Recall,Recall2,395,,0,-1,-1,0,0,,1
w10005410,tfom6ldks0,Nick_Dissertation_EX1,1,334,2020-04-20T16:43:39-07:00,0.91200709342957,2,versionA_stim.csv,READVersionB.csv,"Read Version B","Dissertation, read only version B",ROOT,PLANT,Study1,F,13,40,Test,User,-,,Recall,Recall2,665,,0,-1,-1,0,0,,1
w10005410,tfom6ldks0,Nick_Dissertation_EX1,1,335,2020-04-20T16:43:39-07:00,0.75750684738159,2,versionA_stim.csv,READVersionB.csv,"Read Version B","Dissertation, read only version B",HEIGHT,GROWTH,Study1,B,30,13,Test,User,-,,Recall,Recall2,513,,0,-1,-1,0,0,,1
w10005410,tfom6ldks0,Nick_Dissertation_EX1,1,336,2020-04-20T16:43:40-07:00,0.73087215423584,2,versionA_stim.csv,READVersionB.csv,"Read Version B","Dissertation, read only version B",LOCATION,SITE,Study1,S,48,12,Test,User,-,,Recall,Recall2,478,,0,-1,-1,0,0,,1
w10005410,tfom6ldks0,Nick_Dissertation_EX1,1,337,2020-04-20T16:43:41-07:00,0.75337195396423,2,versionA_stim.csv,READVersionB.csv,"Read Version B","Dissertation, read only version B",HAPPY,CAR,Study1,U,77,74,Test,User,-,,Recall,Recall2,500,,0,-1,-1,0,0,,1
w10005410,tfom6ldks0,Nick_Dissertation_EX1,1,338,2020-04-20T16:43:42-07:00,0.97846508026123,2,versionA_stim.csv,READVersionB.csv,"Read Version B","Dissertation, read only version B",LIFT,WOMAN,Study1,U,69,68,Test,User,-,,Recall,Recall2,728,,0,-1,-1,0,0,,1
w10005410,tfom6ldks0,Nick_Dissertation_EX1,1,339,2020-04-20T16:43:44-07:00,2.0475749969482,2,versionA_stim.csv,READVersionB.csv,"Read Version B","Dissertation, read only version B",DRINK,SIP,Study1,B,27,83,Test,User,-,,Recall,Recall2,1790,,0,-1,-1,0,0,,1
w10005410,tfom6ldks0,Nick_Dissertation_EX1,1,340,2020-04-20T16:43:44-07:00,0.64727783203125,2,versionA_stim.csv,READVersionB.csv,"Read Version B","Dissertation, read only version B",PAW,DOG,Study1,F,15,16,Test,User,-,,Recall,Recall2,393,,0,-1,-1,0,0,,1
w10005410,tfom6ldks0,Nick_Dissertation_EX1,1,341,2020-04-20T16:43:45-07:00,0.75192213058472,2,versionA_stim.csv,READVersionB.csv,"Read Version B","Dissertation, read only version B",DISCUSSION,TALK,Study1,F,21,80,Test,User,-,,Recall,Recall2,487,,0,-1,-1,0,0,,1
w10005410,tfom6ldks0,Nick_Dissertation_EX1,1,342,2020-04-20T16:43:46-07:00,0.76812696456909,2,versionA_stim.csv,READVersionB.csv,"Read Version B","Dissertation, read only version B",SWAN,BIRD,Study1,F,14,17,Test,User,-,,Recall,Recall2,513,,0,-1,-1,0,0,,1
w10005410,tfom6ldks0,Nick_Dissertation_EX1,1,343,2020-04-20T16:43:47-07:00,0.93770408630371,2,versionA_stim.csv,READVersionB.csv,"Read Version B","Dissertation, read only version B",HERD,COW,Study1,F,22,15,Test,User,-,,Recall,Recall2,679,,0,-1,-1,0,0,,1
w10005410,tfom6ldks0,Nick_Dissertation_EX1,1,344,2020-04-20T16:43:48-07:00,0.65868782997131,2,versionA_stim.csv,READVersionB.csv,"Read Version B","Dissertation, read only version B",BALL,RACKET,Study1,B,38,77,Test,User,-,,Recall,Recall2,404,,0,-1,-1,0,0,,1
w10005410,tfom6ldks0,Nick_Dissertation_EX1,1,345,2020-04-20T16:43:48-07:00,0.70617818832397,2,versionA_stim.csv,READVersionB.csv,"Read Version B","Dissertation, read only version B",HUNGER,FAMINE,Study1,B,40,70,Test,User,-,,Recall,Recall2,449,,0,-1,-1,0,0,,1
w10005410,tfom6ldks0,Nick_Dissertation_EX1,1,346,2020-04-20T16:43:49-07:00,0.58070993423462,2,versionA_stim.csv,READVersionB.csv,"Read Version B","Dissertation, read only version B",TAKE,SEIZE,Study1,B,29,84,Test,User,-,,Recall,Recall2,326,,0,-1,-1,0,0,,1
w10005410,tfom6ldks0,Nick_Dissertation_EX1,1,347,2020-04-20T16:43:50-07:00,1.2567920684814,2,versionA_stim.csv,READVersionB.csv,"Read Version B","Dissertation, read only version B",BITTER,COLD,Study1,F,12,23,Test,User,-,,Recall,Recall2,618,,0,-1,-1,0,0,,1
w10005410,tfom6ldks0,Nick_Dissertation_EX1,1,348,2020-04-20T16:43:51-07:00,0.84464383125305,2,versionA_stim.csv,READVersionB.csv,"Read Version B","Dissertation, read only version B",DUMP,WASTE,Study1,S,49,51,Test,User,-,,Recall,Recall2,591,,0,-1,-1,0,0,,1
w10005410,tfom6ldks0,Nick_Dissertation_EX1,1,349,2020-04-20T16:43:58-07:00,7.4463469982147,2,versionA_stim.csv,READVersionB.csv,"Read Version B","Dissertation, read only version B",,,,,,0,Instruct,User,-,"You have completed this section. Please press Enter.",,Instruct7,3166,,,-1,-1,,,,1
w10005410,tfom6ldks0,Nick_Dissertation_EX1,1,350,2020-04-20T16:44:06-07:00,7.7538809776306,2,versionA_stim.csv,READVersionB.csv,"Read Version B","Dissertation, read only version B",,,,,,0,Instruct,User,-,"The following screen will ask you a few questions abour your experience today. You must complete these questions to receive credit.",,Instruct8,1525,,,-1,-1,,,,0.875
