Username,ID,ExperimentName,Session,Trial,Date,TimeDif,"Condition Number","Stimuli File","Order File","Condition Description","Condition Notes",Stimuli*Cue,Stimuli*Answer,Stimuli*Shuffle,"Stimuli*Stimuli Notes",Stimuli*Value,Procedure*Item,"Procedure*Trial Type","Procedure*Max Time","Procedure*Min Time",Procedure*Text,"Procedure*Procedure Notes",Procedure*Shuffle,Response*RT,Response*Response,Response*Accuracy,Response*RTfirst,Response*RTlast,Response*strictAcc,Response*lenientAcc,Response*focus,Response*Focus
5f4f8e8f9213e9056223e128,1456df83rr,Nick_Dissertation_EX1,1,1,2020-10-24T10:23:53-07:00,11.79666018486,3,versionC_stim.csv,READVersionC.csv,"Read Version C","Dissertation, read only version C",,,,,,0,Instruct,-,10,"Please study each of the following word pairs. Remember that your memory will be tested! When finished, press Enter to move to the next pair.",Initial_Instruct,Instruct1,11505,,,-1,-1,,,,1
5f4f8e8f9213e9056223e128,1456df83rr,Nick_Dissertation_EX1,1,2,2020-10-24T10:23:56-07:00,2.770430803299,3,versionC_stim.csv,READVersionC.csv,"Read Version C","Dissertation, read only version C",JAM,SPACE,BUFFER1,Buffer,5,6,Study,User,-,,Study/JOL,BUFFER,2349,,,-1,-1,,,,1
5f4f8e8f9213e9056223e128,1456df83rr,Nick_Dissertation_EX1,1,3,2020-10-24T10:24:00-07:00,3.352648973465,3,versionC_stim.csv,READVersionC.csv,"Read Version C","Dissertation, read only version C",HIDE,SCARE,BUFFER1,Buffer,4,3,Study,User,-,,Study/JOL,BUFFER,2935,,,-1,-1,,,,1
5f4f8e8f9213e9056223e128,1456df83rr,Nick_Dissertation_EX1,1,4,2020-10-24T10:24:01-07:00,1.6613221168518,3,versionC_stim.csv,READVersionC.csv,"Read Version C","Dissertation, read only version C",GREEN,TREES,BUFFER1,Buffer,1,2,Study,User,-,,Study/JOL,BUFFER,1361,,,-1,-1,,,,1
5f4f8e8f9213e9056223e128,1456df83rr,Nick_Dissertation_EX1,1,5,2020-10-24T10:24:03-07:00,2.0376570224762,3,versionC_stim.csv,READVersionC.csv,"Read Version C","Dissertation, read only version C",CATCHER,BASEBALL,BUFFER1,Buffer,2,4,Study,User,-,,Study/JOL,BUFFER,1735,,,-1,-1,,,,1
5f4f8e8f9213e9056223e128,1456df83rr,Nick_Dissertation_EX1,1,6,2020-10-24T10:24:05-07:00,1.940929889679,3,versionC_stim.csv,READVersionC.csv,"Read Version C","Dissertation, read only version C",BUTTER,PEANUT,BUFFER1,Buffer,3,5,Study,User,-,,Study/JOL,BUFFER,1639,,,-1,-1,,,,1
5f4f8e8f9213e9056223e128,1456df83rr,Nick_Dissertation_EX1,1,7,2020-10-24T10:24:07-07:00,2.1250040531158,3,versionC_stim.csv,READVersionC.csv,"Read Version C","Dissertation, read only version C",BAR,GRILL,Study1,S,52,21,Study,User,-,,Study/JOL,"Study Phase",1826,,,-1,-1,,,,1
5f4f8e8f9213e9056223e128,1456df83rr,Nick_Dissertation_EX1,1,8,2020-10-24T10:24:09-07:00,1.9065771102905,3,versionC_stim.csv,READVersionC.csv,"Read Version C","Dissertation, read only version C",DEFINITION,MEANING,Study1,S,62,9,Study,User,-,,Study/JOL,"Study Phase",1603,,,-1,-1,,,,1
5f4f8e8f9213e9056223e128,1456df83rr,Nick_Dissertation_EX1,1,9,2020-10-24T10:24:12-07:00,2.3798599243164,3,versionC_stim.csv,READVersionC.csv,"Read Version C","Dissertation, read only version C",TUCK,ALLOW,Study1,U,78,36,Study,User,-,,Study/JOL,"Study Phase",1933,,,-1,-1,,,,1
5f4f8e8f9213e9056223e128,1456df83rr,Nick_Dissertation_EX1,1,10,2020-10-24T10:24:13-07:00,1.6623718738556,3,versionC_stim.csv,READVersionC.csv,"Read Version C","Dissertation, read only version C",DROWSY,SLEEP,Study1,F,41,44,Study,User,-,,Study/JOL,"Study Phase",1360,,,-1,-1,,,,1
5f4f8e8f9213e9056223e128,1456df83rr,Nick_Dissertation_EX1,1,11,2020-10-24T10:24:15-07:00,1.9589371681213,3,versionC_stim.csv,READVersionC.csv,"Read Version C","Dissertation, read only version C",COLD,BITTER,Study1,B,12,45,Study,User,-,,Study/JOL,"Study Phase",1658,,,-1,-1,,,,1
5f4f8e8f9213e9056223e128,1456df83rr,Nick_Dissertation_EX1,1,12,2020-10-24T10:24:17-07:00,1.9534928798676,3,versionC_stim.csv,READVersionC.csv,"Read Version C","Dissertation, read only version C",CLUTTER,PUSHER,Study1,U,66,67,Study,User,-,,Study/JOL,"Study Phase",1656,,,-1,-1,,,,1
5f4f8e8f9213e9056223e128,1456df83rr,Nick_Dissertation_EX1,1,13,2020-10-24T10:24:19-07:00,1.6973850727081,3,versionC_stim.csv,READVersionC.csv,"Read Version C","Dissertation, read only version C",WOMAN,LIFT,Study1,U,69,73,Study,User,-,,Study/JOL,"Study Phase",1400,,,-1,-1,,,,1
5f4f8e8f9213e9056223e128,1456df83rr,Nick_Dissertation_EX1,1,14,2020-10-24T10:24:21-07:00,1.6025519371033,3,versionC_stim.csv,READVersionC.csv,"Read Version C","Dissertation, read only version C",ENOUGH,FULL,Study1,F,26,41,Study,User,-,,Study/JOL,"Study Phase",1303,,,-1,-1,,,,1
5f4f8e8f9213e9056223e128,1456df83rr,Nick_Dissertation_EX1,1,15,2020-10-24T10:24:23-07:00,1.9834711551666,3,versionC_stim.csv,READVersionC.csv,"Read Version C","Dissertation, read only version C",FANTASTIC,GREAT,Study1,F,35,13,Study,User,-,,Study/JOL,"Study Phase",1680,,,-1,-1,,,,1
5f4f8e8f9213e9056223e128,1456df83rr,Nick_Dissertation_EX1,1,16,2020-10-24T10:24:24-07:00,1.7501139640808,3,versionC_stim.csv,READVersionC.csv,"Read Version C","Dissertation, read only version C",CLEAN,HYGIENE,Study1,B,17,74,Study,User,-,,Study/JOL,"Study Phase",1448,,,-1,-1,,,,1
5f4f8e8f9213e9056223e128,1456df83rr,Nick_Dissertation_EX1,1,17,2020-10-24T10:24:26-07:00,1.9078509807587,3,versionC_stim.csv,READVersionC.csv,"Read Version C","Dissertation, read only version C",BELT,SOON,Study1,U,70,33,Study,User,-,,Study/JOL,"Study Phase",1606,,,-1,-1,,,,1
5f4f8e8f9213e9056223e128,1456df83rr,Nick_Dissertation_EX1,1,18,2020-10-24T10:24:28-07:00,2.1828179359436,3,versionC_stim.csv,READVersionC.csv,"Read Version C","Dissertation, read only version C",FLOWER,ORCHID,Study1,B,24,81,Study,User,-,,Study/JOL,"Study Phase",1883,,,-1,-1,,,,1
5f4f8e8f9213e9056223e128,1456df83rr,Nick_Dissertation_EX1,1,19,2020-10-24T10:24:32-07:00,3.3687889575958,3,versionC_stim.csv,READVersionC.csv,"Read Version C","Dissertation, read only version C",ASSIGNMENT,DUE,Study1,S,46,80,Study,User,-,,Study/JOL,"Study Phase",2953,,,-1,-1,,,,1
5f4f8e8f9213e9056223e128,1456df83rr,Nick_Dissertation_EX1,1,20,2020-10-24T10:24:33-07:00,1.4610090255737,3,versionC_stim.csv,READVersionC.csv,"Read Version C","Dissertation, read only version C",FAMINE,HUNGER,Study1,F,40,57,Study,User,-,,Study/JOL,"Study Phase",1163,,,-1,-1,,,,1
5f4f8e8f9213e9056223e128,1456df83rr,Nick_Dissertation_EX1,1,21,2020-10-24T10:24:35-07:00,1.3846070766449,3,versionC_stim.csv,READVersionC.csv,"Read Version C","Dissertation, read only version C",COW,HERD,Study1,B,22,20,Study,User,-,,Study/JOL,"Study Phase",1082,,,-1,-1,,,,1
5f4f8e8f9213e9056223e128,1456df83rr,Nick_Dissertation_EX1,1,22,2020-10-24T10:24:36-07:00,1.5591180324554,3,versionC_stim.csv,READVersionC.csv,"Read Version C","Dissertation, read only version C",AMOUNT,NUMBER,Study1,S,47,52,Study,User,-,,Study/JOL,"Study Phase",1247,,,-1,-1,,,,1
5f4f8e8f9213e9056223e128,1456df83rr,Nick_Dissertation_EX1,1,23,2020-10-24T10:24:38-07:00,1.6092028617859,3,versionC_stim.csv,READVersionC.csv,"Read Version C","Dissertation, read only version C",WIND,BLOW,Study1,S,55,31,Study,User,-,,Study/JOL,"Study Phase",1311,,,-1,-1,,,,1
5f4f8e8f9213e9056223e128,1456df83rr,Nick_Dissertation_EX1,1,24,2020-10-24T10:24:39-07:00,1.6536221504211,3,versionC_stim.csv,READVersionC.csv,"Read Version C","Dissertation, read only version C",LION,ART,Study1,U,79,30,Study,User,-,,Study/JOL,"Study Phase",1356,,,-1,-1,,,,1
5f4f8e8f9213e9056223e128,1456df83rr,Nick_Dissertation_EX1,1,25,2020-10-24T10:24:41-07:00,1.6153919696808,3,versionC_stim.csv,READVersionC.csv,"Read Version C","Dissertation, read only version C",SALAD,LETTUCE,Study1,S,59,69,Study,User,-,,Study/JOL,"Study Phase",1314,,,-1,-1,,,,1
5f4f8e8f9213e9056223e128,1456df83rr,Nick_Dissertation_EX1,1,26,2020-10-24T10:24:43-07:00,1.5474510192871,3,versionC_stim.csv,READVersionC.csv,"Read Version C","Dissertation, read only version C",WASP,BUG,Study1,F,32,18,Study,User,-,,Study/JOL,"Study Phase",1247,,,-1,-1,,,,1
5f4f8e8f9213e9056223e128,1456df83rr,Nick_Dissertation_EX1,1,27,2020-10-24T10:24:46-07:00,3.9413459300995,3,versionC_stim.csv,READVersionC.csv,"Read Version C","Dissertation, read only version C",ATTORNEY,LAW,Study1,F,34,53,Study,User,-,,Study/JOL,"Study Phase",3526,,,-1,-1,,,,1
5f4f8e8f9213e9056223e128,1456df83rr,Nick_Dissertation_EX1,1,28,2020-10-24T10:24:49-07:00,2.0748579502106,3,versionC_stim.csv,READVersionC.csv,"Read Version C","Dissertation, read only version C",LATCH,KEY,Study1,F,36,75,Study,User,-,,Study/JOL,"Study Phase",1772,,,-1,-1,,,,1
5f4f8e8f9213e9056223e128,1456df83rr,Nick_Dissertation_EX1,1,29,2020-10-24T10:24:50-07:00,1.4301109313965,3,versionC_stim.csv,READVersionC.csv,"Read Version C","Dissertation, read only version C",SIGHT,DEBATE,Study1,U,73,55,Study,User,-,,Study/JOL,"Study Phase",1129,,,-1,-1,,,,1
5f4f8e8f9213e9056223e128,1456df83rr,Nick_Dissertation_EX1,1,30,2020-10-24T10:24:51-07:00,1.2397890090942,3,versionC_stim.csv,READVersionC.csv,"Read Version C","Dissertation, read only version C",STENCH,SMELL,Study1,F,42,82,Study,User,-,,Study/JOL,"Study Phase",937,,,-1,-1,,,,1
5f4f8e8f9213e9056223e128,1456df83rr,Nick_Dissertation_EX1,1,31,2020-10-24T10:24:53-07:00,2.0106091499329,3,versionC_stim.csv,READVersionC.csv,"Read Version C","Dissertation, read only version C",ROUND,CIRCLE,Study1,S,65,65,Study,User,-,,Study/JOL,"Study Phase",1712,,,-1,-1,,,,1
5f4f8e8f9213e9056223e128,1456df83rr,Nick_Dissertation_EX1,1,32,2020-10-24T10:24:54-07:00,1.1500198841095,3,versionC_stim.csv,READVersionC.csv,"Read Version C","Dissertation, read only version C",BEE,HONEY,Study1,S,63,50,Study,User,-,,Study/JOL,"Study Phase",850,,,-1,-1,,,,1
5f4f8e8f9213e9056223e128,1456df83rr,Nick_Dissertation_EX1,1,33,2020-10-24T10:24:56-07:00,1.4212009906769,3,versionC_stim.csv,READVersionC.csv,"Read Version C","Dissertation, read only version C",MONEY,WAGE,Study1,B,8,11,Study,User,-,,Study/JOL,"Study Phase",1121,,,-1,-1,,,,1
5f4f8e8f9213e9056223e128,1456df83rr,Nick_Dissertation_EX1,1,34,2020-10-24T10:24:57-07:00,1.6058580875397,3,versionC_stim.csv,READVersionC.csv,"Read Version C","Dissertation, read only version C",VASE,KING,Study1,U,85,66,Study,User,-,,Study/JOL,"Study Phase",1308,,,-1,-1,,,,1
5f4f8e8f9213e9056223e128,1456df83rr,Nick_Dissertation_EX1,1,35,2020-10-24T10:24:59-07:00,1.5775389671326,3,versionC_stim.csv,READVersionC.csv,"Read Version C","Dissertation, read only version C",WOULD,CASH,Study1,U,83,25,Study,User,-,,Study/JOL,"Study Phase",1279,,,-1,-1,,,,1
5f4f8e8f9213e9056223e128,1456df83rr,Nick_Dissertation_EX1,1,36,2020-10-24T10:25:00-07:00,1.3065009117126,3,versionC_stim.csv,READVersionC.csv,"Read Version C","Dissertation, read only version C",SICK,HIDE,Study1,U,84,84,Study,User,-,,Study/JOL,"Study Phase",1008,,,-1,-1,,,,1
5f4f8e8f9213e9056223e128,1456df83rr,Nick_Dissertation_EX1,1,37,2020-10-24T10:25:02-07:00,1.3171350955963,3,versionC_stim.csv,READVersionC.csv,"Read Version C","Dissertation, read only version C",JURY,TRIAL,Study1,S,50,77,Study,User,-,,Study/JOL,"Study Phase",1016,,,-1,-1,,,,1
5f4f8e8f9213e9056223e128,1456df83rr,Nick_Dissertation_EX1,1,38,2020-10-24T10:25:03-07:00,1.2304499149323,3,versionC_stim.csv,READVersionC.csv,"Read Version C","Dissertation, read only version C",ATTIRE,CLOTHES,Study1,F,43,37,Study,User,-,,Study/JOL,"Study Phase",926,,,-1,-1,,,,1
5f4f8e8f9213e9056223e128,1456df83rr,Nick_Dissertation_EX1,1,39,2020-10-24T10:25:04-07:00,1.3132882118225,3,versionC_stim.csv,READVersionC.csv,"Read Version C","Dissertation, read only version C",BAD,DELINQUENT,Study1,B,6,28,Study,User,-,,Study/JOL,"Study Phase",1013,,,-1,-1,,,,1
5f4f8e8f9213e9056223e128,1456df83rr,Nick_Dissertation_EX1,1,40,2020-10-24T10:25:05-07:00,1.1770977973938,3,versionC_stim.csv,READVersionC.csv,"Read Version C","Dissertation, read only version C",STOMACH,DIGESTION,Study1,B,7,39,Study,User,-,,Study/JOL,"Study Phase",881,,,-1,-1,,,,1
5f4f8e8f9213e9056223e128,1456df83rr,Nick_Dissertation_EX1,1,41,2020-10-24T10:25:07-07:00,1.3668780326843,3,versionC_stim.csv,READVersionC.csv,"Read Version C","Dissertation, read only version C",DOG,PAW,Study1,B,15,7,Study,User,-,,Study/JOL,"Study Phase",1071,,,-1,-1,,,,1
5f4f8e8f9213e9056223e128,1456df83rr,Nick_Dissertation_EX1,1,42,2020-10-24T10:25:08-07:00,1.1468200683594,3,versionC_stim.csv,READVersionC.csv,"Read Version C","Dissertation, read only version C",WORD,SENTENCE,Study1,F,31,85,Study,User,-,,Study/JOL,"Study Phase",851,,,-1,-1,,,,1
5f4f8e8f9213e9056223e128,1456df83rr,Nick_Dissertation_EX1,1,43,2020-10-24T10:25:09-07:00,1.2800590991974,3,versionC_stim.csv,READVersionC.csv,"Read Version C","Dissertation, read only version C",ADD,VALLEY,Study1,U,82,34,Study,User,-,,Study/JOL,"Study Phase",972,,,-1,-1,,,,1
5f4f8e8f9213e9056223e128,1456df83rr,Nick_Dissertation_EX1,1,44,2020-10-24T10:25:10-07:00,1.319403886795,3,versionC_stim.csv,READVersionC.csv,"Read Version C","Dissertation, read only version C",SODA,POP,Study1,S,56,19,Study,User,-,,Study/JOL,"Study Phase",1019,,,-1,-1,,,,1
5f4f8e8f9213e9056223e128,1456df83rr,Nick_Dissertation_EX1,1,45,2020-10-24T10:25:12-07:00,2.0277569293976,3,versionC_stim.csv,READVersionC.csv,"Read Version C","Dissertation, read only version C",FLOOR,DISCOVER,Study1,U,71,38,Study,User,-,,Study/JOL,"Study Phase",1731,,,-1,-1,,,,1
5f4f8e8f9213e9056223e128,1456df83rr,Nick_Dissertation_EX1,1,46,2020-10-24T10:25:14-07:00,1.4221251010895,3,versionC_stim.csv,READVersionC.csv,"Read Version C","Dissertation, read only version C",TOILET,BATHROOM,Study1,S,58,83,Study,User,-,,Study/JOL,"Study Phase",1126,,,-1,-1,,,,1
5f4f8e8f9213e9056223e128,1456df83rr,Nick_Dissertation_EX1,1,47,2020-10-24T10:25:16-07:00,1.7140419483185,3,versionC_stim.csv,READVersionC.csv,"Read Version C","Dissertation, read only version C",WATER,BRIDGE,Study1,B,18,16,Study,User,-,,Study/JOL,"Study Phase",1393,,,-1,-1,,,,1
5f4f8e8f9213e9056223e128,1456df83rr,Nick_Dissertation_EX1,1,48,2020-10-24T10:25:17-07:00,1.3771290779114,3,versionC_stim.csv,READVersionC.csv,"Read Version C","Dissertation, read only version C",SEIZE,TAKE,Study1,F,29,27,Study,User,-,,Study/JOL,"Study Phase",1073,,,-1,-1,,,,1
5f4f8e8f9213e9056223e128,1456df83rr,Nick_Dissertation_EX1,1,49,2020-10-24T10:25:18-07:00,1.2660429477692,3,versionC_stim.csv,READVersionC.csv,"Read Version C","Dissertation, read only version C",DIVISION,MATH,Study1,F,33,42,Study,User,-,,Study/JOL,"Study Phase",966,,,-1,-1,,,,1
5f4f8e8f9213e9056223e128,1456df83rr,Nick_Dissertation_EX1,1,50,2020-10-24T10:25:20-07:00,1.6191029548645,3,versionC_stim.csv,READVersionC.csv,"Read Version C","Dissertation, read only version C",RIDDLE,SUGAR,Study1,U,81,43,Study,User,-,,Study/JOL,"Study Phase",1319,,,-1,-1,,,,1
5f4f8e8f9213e9056223e128,1456df83rr,Nick_Dissertation_EX1,1,51,2020-10-24T10:25:22-07:00,1.6613099575043,3,versionC_stim.csv,READVersionC.csv,"Read Version C","Dissertation, read only version C",CHILD,BABY,Study1,S,64,47,Study,User,-,,Study/JOL,"Study Phase",1362,,,-1,-1,,,,1
5f4f8e8f9213e9056223e128,1456df83rr,Nick_Dissertation_EX1,1,52,2020-10-24T10:25:23-07:00,1.6277589797974,3,versionC_stim.csv,READVersionC.csv,"Read Version C","Dissertation, read only version C",HAND,FIX,Study1,U,75,68,Study,User,-,,Study/JOL,"Study Phase",1330,,,-1,-1,,,,1
5f4f8e8f9213e9056223e128,1456df83rr,Nick_Dissertation_EX1,1,53,2020-10-24T10:25:25-07:00,1.4885911941528,3,versionC_stim.csv,READVersionC.csv,"Read Version C","Dissertation, read only version C",BRONZE,ARTERY,Study1,U,74,79,Study,User,-,,Study/JOL,"Study Phase",1190,,,-1,-1,,,,1
5f4f8e8f9213e9056223e128,1456df83rr,Nick_Dissertation_EX1,1,54,2020-10-24T10:25:26-07:00,1.5225868225098,3,versionC_stim.csv,READVersionC.csv,"Read Version C","Dissertation, read only version C",SACKING,DIETARY,Study1,U,67,49,Study,User,-,,Study/JOL,"Study Phase",1221,,,-1,-1,,,,1
5f4f8e8f9213e9056223e128,1456df83rr,Nick_Dissertation_EX1,1,55,2020-10-24T10:25:28-07:00,1.7498052120209,3,versionC_stim.csv,READVersionC.csv,"Read Version C","Dissertation, read only version C",BUSINESS,DEATH,Study1,U,72,35,Study,User,-,,Study/JOL,"Study Phase",1369,,,-1,-1,,,,1
5f4f8e8f9213e9056223e128,1456df83rr,Nick_Dissertation_EX1,1,56,2020-10-24T10:25:31-07:00,2.7106537818909,3,versionC_stim.csv,READVersionC.csv,"Read Version C","Dissertation, read only version C",STING,HORNET,Study1,B,11,70,Study,User,-,,Study/JOL,"Study Phase",1404,,,-1,-1,,,,1
5f4f8e8f9213e9056223e128,1456df83rr,Nick_Dissertation_EX1,1,57,2020-10-24T10:25:32-07:00,1.6576700210571,3,versionC_stim.csv,READVersionC.csv,"Read Version C","Dissertation, read only version C",NEWS,EDITOR,Study1,B,10,22,Study,User,-,,Study/JOL,"Study Phase",1359,,,-1,-1,,,,1
5f4f8e8f9213e9056223e128,1456df83rr,Nick_Dissertation_EX1,1,58,2020-10-24T10:25:34-07:00,1.6238570213318,3,versionC_stim.csv,READVersionC.csv,"Read Version C","Dissertation, read only version C",CHILI,HOT,Study1,F,37,48,Study,User,-,,Study/JOL,"Study Phase",1317,,,-1,-1,,,,1
5f4f8e8f9213e9056223e128,1456df83rr,Nick_Dissertation_EX1,1,59,2020-10-24T10:25:36-07:00,1.6086070537567,3,versionC_stim.csv,READVersionC.csv,"Read Version C","Dissertation, read only version C",PILOT,PLANE,Study1,F,44,78,Study,User,-,,Study/JOL,"Study Phase",1309,,,-1,-1,,,,1
5f4f8e8f9213e9056223e128,1456df83rr,Nick_Dissertation_EX1,1,60,2020-10-24T10:25:38-07:00,1.9731049537659,3,versionC_stim.csv,READVersionC.csv,"Read Version C","Dissertation, read only version C",LIVER,KIDNEY,Study1,S,53,86,Study,User,-,,Study/JOL,"Study Phase",1665,,,-1,-1,,,,1
5f4f8e8f9213e9056223e128,1456df83rr,Nick_Dissertation_EX1,1,61,2020-10-24T10:25:39-07:00,1.8295550346375,3,versionC_stim.csv,READVersionC.csv,"Read Version C","Dissertation, read only version C",SIP,DRINK,Study1,F,27,54,Study,User,-,,Study/JOL,"Study Phase",1528,,,-1,-1,,,,1
5f4f8e8f9213e9056223e128,1456df83rr,Nick_Dissertation_EX1,1,62,2020-10-24T10:25:41-07:00,1.9090259075165,3,versionC_stim.csv,READVersionC.csv,"Read Version C","Dissertation, read only version C",FUTURE,PAST,Study1,S,61,62,Study,User,-,,Study/JOL,"Study Phase",1607,,,-1,-1,,,,1
5f4f8e8f9213e9056223e128,1456df83rr,Nick_Dissertation_EX1,1,63,2020-10-24T10:25:43-07:00,1.7643661499023,3,versionC_stim.csv,READVersionC.csv,"Read Version C","Dissertation, read only version C",WAR,REVOLUTION,Study1,B,20,61,Study,User,-,,Study/JOL,"Study Phase",1465,,,-1,-1,,,,1
5f4f8e8f9213e9056223e128,1456df83rr,Nick_Dissertation_EX1,1,64,2020-10-24T10:25:45-07:00,1.500834941864,3,versionC_stim.csv,READVersionC.csv,"Read Version C","Dissertation, read only version C",CAR,HAPPY,Study1,U,77,46,Study,User,-,,Study/JOL,"Study Phase",1202,,,-1,-1,,,,1
5f4f8e8f9213e9056223e128,1456df83rr,Nick_Dissertation_EX1,1,65,2020-10-24T10:25:46-07:00,1.2031400203705,3,versionC_stim.csv,READVersionC.csv,"Read Version C","Dissertation, read only version C",POSITION,MACHINE,Study1,U,76,32,Study,User,-,,Study/JOL,"Study Phase",901,,,-1,-1,,,,1
5f4f8e8f9213e9056223e128,1456df83rr,Nick_Dissertation_EX1,1,66,2020-10-24T10:25:47-07:00,1.4291350841522,3,versionC_stim.csv,READVersionC.csv,"Read Version C","Dissertation, read only version C",ROCK,GEOLOGY,Study1,B,19,10,Study,User,-,,Study/JOL,"Study Phase",1130,,,-1,-1,,,,1
5f4f8e8f9213e9056223e128,1456df83rr,Nick_Dissertation_EX1,1,67,2020-10-24T10:25:49-07:00,1.5427520275116,3,versionC_stim.csv,READVersionC.csv,"Read Version C","Dissertation, read only version C",FISH,TUNA,Study1,B,25,40,Study,User,-,,Study/JOL,"Study Phase",1245,,,-1,-1,,,,1
5f4f8e8f9213e9056223e128,1456df83rr,Nick_Dissertation_EX1,1,68,2020-10-24T10:25:50-07:00,1.5564308166504,3,versionC_stim.csv,READVersionC.csv,"Read Version C","Dissertation, read only version C",WASTE,DUMP,Study1,S,49,58,Study,User,-,,Study/JOL,"Study Phase",1246,,,-1,-1,,,,1
5f4f8e8f9213e9056223e128,1456df83rr,Nick_Dissertation_EX1,1,69,2020-10-24T10:25:52-07:00,1.4478981494904,3,versionC_stim.csv,READVersionC.csv,"Read Version C","Dissertation, read only version C",BLAZE,FIRE,Study1,F,45,12,Study,User,-,,Study/JOL,"Study Phase",1133,,,-1,-1,,,,1
5f4f8e8f9213e9056223e128,1456df83rr,Nick_Dissertation_EX1,1,70,2020-10-24T10:25:53-07:00,1.6008620262146,3,versionC_stim.csv,READVersionC.csv,"Read Version C","Dissertation, read only version C",END,BEGIN,Study1,S,54,59,Study,User,-,,Study/JOL,"Study Phase",1302,,,-1,-1,,,,1
5f4f8e8f9213e9056223e128,1456df83rr,Nick_Dissertation_EX1,1,71,2020-10-24T10:25:55-07:00,1.2818009853363,3,versionC_stim.csv,READVersionC.csv,"Read Version C","Dissertation, read only version C",DESIGN,ARCHITECTURE,Study1,S,51,26,Study,User,-,,Study/JOL,"Study Phase",980,,,-1,-1,,,,1
5f4f8e8f9213e9056223e128,1456df83rr,Nick_Dissertation_EX1,1,72,2020-10-24T10:25:57-07:00,2.416286945343,3,versionC_stim.csv,READVersionC.csv,"Read Version C","Dissertation, read only version C",ACCIDENT,STRONG,Study1,U,80,64,Study,User,-,,Study/JOL,"Study Phase",2000,,,-1,-1,,,,1
5f4f8e8f9213e9056223e128,1456df83rr,Nick_Dissertation_EX1,1,73,2020-10-24T10:25:58-07:00,1.4865710735321,3,versionC_stim.csv,READVersionC.csv,"Read Version C","Dissertation, read only version C",BIRD,SWAN,Study1,B,14,63,Study,User,-,,Study/JOL,"Study Phase",1174,,,-1,-1,,,,1
5f4f8e8f9213e9056223e128,1456df83rr,Nick_Dissertation_EX1,1,74,2020-10-24T10:26:01-07:00,2.5165848731995,3,versionC_stim.csv,READVersionC.csv,"Read Version C","Dissertation, read only version C",CHEESE,WINE,Study1,S,57,15,Study,User,-,,Study/JOL,"Study Phase",2094,,,-1,-1,,,,1
5f4f8e8f9213e9056223e128,1456df83rr,Nick_Dissertation_EX1,1,75,2020-10-24T10:26:02-07:00,1.2249960899353,3,versionC_stim.csv,READVersionC.csv,"Read Version C","Dissertation, read only version C",OUT,WAY,Study1,B,16,14,Study,User,-,,Study/JOL,"Study Phase",920,,,-1,-1,,,,1
5f4f8e8f9213e9056223e128,1456df83rr,Nick_Dissertation_EX1,1,76,2020-10-24T10:26:04-07:00,1.6079668998718,3,versionC_stim.csv,READVersionC.csv,"Read Version C","Dissertation, read only version C",HUNGRY,PARK,Study1,U,68,76,Study,User,-,,Study/JOL,"Study Phase",1306,,,-1,-1,,,,1
5f4f8e8f9213e9056223e128,1456df83rr,Nick_Dissertation_EX1,1,77,2020-10-24T10:26:05-07:00,1.538535118103,3,versionC_stim.csv,READVersionC.csv,"Read Version C","Dissertation, read only version C",CHORE,WORK,Study1,F,39,72,Study,User,-,,Study/JOL,"Study Phase",1237,,,-1,-1,,,,1
5f4f8e8f9213e9056223e128,1456df83rr,Nick_Dissertation_EX1,1,78,2020-10-24T10:26:07-07:00,1.5359740257263,3,versionC_stim.csv,READVersionC.csv,"Read Version C","Dissertation, read only version C",RACKET,BALL,Study1,F,38,71,Study,User,-,,Study/JOL,"Study Phase",1233,,,-1,-1,,,,1
5f4f8e8f9213e9056223e128,1456df83rr,Nick_Dissertation_EX1,1,79,2020-10-24T10:26:08-07:00,1.5566718578339,3,versionC_stim.csv,READVersionC.csv,"Read Version C","Dissertation, read only version C",SITE,LOCATION,Study1,S,48,8,Study,User,-,,Study/JOL,"Study Phase",1247,,,-1,-1,,,,1
5f4f8e8f9213e9056223e128,1456df83rr,Nick_Dissertation_EX1,1,80,2020-10-24T10:26:10-07:00,1.4122650623322,3,versionC_stim.csv,READVersionC.csv,"Read Version C","Dissertation, read only version C",CARD,CREDIT,Study1,B,23,60,Study,User,-,,Study/JOL,"Study Phase",1106,,,-1,-1,,,,1
5f4f8e8f9213e9056223e128,1456df83rr,Nick_Dissertation_EX1,1,81,2020-10-24T10:26:11-07:00,1.155247926712,3,versionC_stim.csv,READVersionC.csv,"Read Version C","Dissertation, read only version C",CAVE,DARK,Study1,F,28,29,Study,User,-,,Study/JOL,"Study Phase",854,,,-1,-1,,,,1
5f4f8e8f9213e9056223e128,1456df83rr,Nick_Dissertation_EX1,1,82,2020-10-24T10:26:12-07:00,1.3680400848389,3,versionC_stim.csv,READVersionC.csv,"Read Version C","Dissertation, read only version C",GROWTH,HEIGHT,Study1,F,30,51,Study,User,-,,Study/JOL,"Study Phase",1065,,,-1,-1,,,,1
5f4f8e8f9213e9056223e128,1456df83rr,Nick_Dissertation_EX1,1,83,2020-10-24T10:26:14-07:00,1.1616408824921,3,versionC_stim.csv,READVersionC.csv,"Read Version C","Dissertation, read only version C",HAMMER,CHISEL,Study1,B,9,56,Study,User,-,,Study/JOL,"Study Phase",862,,,-1,-1,,,,1
5f4f8e8f9213e9056223e128,1456df83rr,Nick_Dissertation_EX1,1,84,2020-10-24T10:26:15-07:00,1.4699921607971,3,versionC_stim.csv,READVersionC.csv,"Read Version C","Dissertation, read only version C",PLANT,ROOT,Study1,B,13,17,Study,User,-,,Study/JOL,"Study Phase",1162,,,-1,-1,,,,1
5f4f8e8f9213e9056223e128,1456df83rr,Nick_Dissertation_EX1,1,85,2020-10-24T10:26:16-07:00,1.1655838489532,3,versionC_stim.csv,READVersionC.csv,"Read Version C","Dissertation, read only version C",TALK,DISCUSSION,Study1,B,21,24,Study,User,-,,Study/JOL,"Study Phase",862,,,-1,-1,,,,1
5f4f8e8f9213e9056223e128,1456df83rr,Nick_Dissertation_EX1,1,86,2020-10-24T10:26:18-07:00,1.5500481128693,3,versionC_stim.csv,READVersionC.csv,"Read Version C","Dissertation, read only version C",FOOT,SHOE,Study1,S,60,23,Study,User,-,,Study/JOL,"Study Phase",1248,,,-1,-1,,,,1
5f4f8e8f9213e9056223e128,1456df83rr,Nick_Dissertation_EX1,1,87,2020-10-24T10:26:19-07:00,1.3678469657898,3,versionC_stim.csv,READVersionC.csv,"Read Version C","Dissertation, read only version C",POLICE,SHERRIF,BUFFER2,Buffer,87,91,Study,User,-,,Study/JOL,BUFFER2,1063,,,-1,-1,,,,1
5f4f8e8f9213e9056223e128,1456df83rr,Nick_Dissertation_EX1,1,88,2020-10-24T10:26:20-07:00,1.2771608829498,3,versionC_stim.csv,READVersionC.csv,"Read Version C","Dissertation, read only version C",GOOSE,GEESE,BUFFER2,Buffer,86,89,Study,User,-,,Study/JOL,BUFFER2,970,,,-1,-1,,,,1
5f4f8e8f9213e9056223e128,1456df83rr,Nick_Dissertation_EX1,1,89,2020-10-24T10:26:22-07:00,1.4387559890747,3,versionC_stim.csv,READVersionC.csv,"Read Version C","Dissertation, read only version C",STUFF,THING,BUFFER2,Buffer,90,88,Study,User,-,,Study/JOL,BUFFER2,1137,,,-1,-1,,,,1
5f4f8e8f9213e9056223e128,1456df83rr,Nick_Dissertation_EX1,1,90,2020-10-24T10:26:23-07:00,1.4803631305695,3,versionC_stim.csv,READVersionC.csv,"Read Version C","Dissertation, read only version C",CHOCOLATE,MALT,BUFFER2,Buffer,88,90,Study,User,-,,Study/JOL,BUFFER2,1173,,,-1,-1,,,,1
5f4f8e8f9213e9056223e128,1456df83rr,Nick_Dissertation_EX1,1,91,2020-10-24T10:26:25-07:00,1.3189749717712,3,versionC_stim.csv,READVersionC.csv,"Read Version C","Dissertation, read only version C",SPACE,MOON,BUFFER2,Buffer,89,87,Study,User,-,,Study/JOL,BUFFER2,1019,,,-1,-1,,,,1
5f4f8e8f9213e9056223e128,1456df83rr,Nick_Dissertation_EX1,1,92,2020-10-24T10:26:26-07:00,1.6120970249176,3,versionC_stim.csv,READVersionC.csv,"Read Version C","Dissertation, read only version C",,,,,,0,Instruct,User,-,"You have completed this section. Please press Enter.",Filler_Instruction,Instruct2,1311,,,-1,-1,,,,1
5f4f8e8f9213e9056223e128,1456df83rr,Nick_Dissertation_EX1,1,93,2020-10-24T10:28:27-07:00,120.41679501534,3,versionC_stim.csv,READVersionC.csv,"Read Version C","Dissertation, read only version C",,,,,,0,FreeRecall,120,120,"Please list the 50 US states in alphabetical order. The task will automatically advance to the next screen after two minutes.",,Filler1,120002,"Alabama Alaska California Florida Hawaii Maine Maryland New York North Dakota South Dakota Texas ",0,6622,103588,0,0,,1
5f4f8e8f9213e9056223e128,1456df83rr,Nick_Dissertation_EX1,1,94,2020-10-24T10:28:42-07:00,14.987299919128,3,versionC_stim.csv,READVersionC.csv,"Read Version C","Dissertation, read only version C",,,,,,0,Instruct,-,10,"You will now be presented with the first word from each of the previously studied item pairs. Please type the missing word. If you do not know the word, you may guess or press Enter to skip forward to the next pair.",,Instruct3,14548,,,-1,-1,,,,1
5f4f8e8f9213e9056223e128,1456df83rr,Nick_Dissertation_EX1,1,95,2020-10-24T10:28:47-07:00,5.7265329360962,3,versionC_stim.csv,READVersionC.csv,"Read Version C","Dissertation, read only version C",CHEESE,WINE,Study1,S,57,15,Test,User,-,,Recall,Recall1,5303,,0,-1,-1,0,0,,1
5f4f8e8f9213e9056223e128,1456df83rr,Nick_Dissertation_EX1,1,96,2020-10-24T10:28:52-07:00,4.184454202652,3,versionC_stim.csv,READVersionC.csv,"Read Version C","Dissertation, read only version C",ATTORNEY,LAW,Study1,F,34,53,Test,User,-,,Recall,Recall1,3757,LAW,100,2018,3412,1,1,,1
5f4f8e8f9213e9056223e128,1456df83rr,Nick_Dissertation_EX1,1,97,2020-10-24T10:28:56-07:00,4.4625129699707,3,versionC_stim.csv,READVersionC.csv,"Read Version C","Dissertation, read only version C",STOMACH,DIGESTION,Study1,B,7,39,Test,User,-,,Recall,Recall1,4042,,0,-1,-1,0,0,,1
5f4f8e8f9213e9056223e128,1456df83rr,Nick_Dissertation_EX1,1,98,2020-10-24T10:28:59-07:00,2.6114950180054,3,versionC_stim.csv,READVersionC.csv,"Read Version C","Dissertation, read only version C",JURY,TRIAL,Study1,S,50,77,Test,User,-,,Recall,Recall1,2190,JUDGE,0,1545,1898,0,0,,1
5f4f8e8f9213e9056223e128,1456df83rr,Nick_Dissertation_EX1,1,99,2020-10-24T10:29:02-07:00,3.0791008472443,3,versionC_stim.csv,READVersionC.csv,"Read Version C","Dissertation, read only version C",RIDDLE,SUGAR,Study1,U,81,43,Test,User,-,,Recall,Recall1,2660,ANSWER,36.363636363636,1615,2341,0,0,,1
5f4f8e8f9213e9056223e128,1456df83rr,Nick_Dissertation_EX1,1,100,2020-10-24T10:29:04-07:00,2.3404259681702,3,versionC_stim.csv,READVersionC.csv,"Read Version C","Dissertation, read only version C",CLUTTER,PUSHER,Study1,U,66,67,Test,User,-,,Recall,Recall1,1911,,0,-1,-1,0,0,,1
5f4f8e8f9213e9056223e128,1456df83rr,Nick_Dissertation_EX1,1,101,2020-10-24T10:29:08-07:00,3.7809181213379,3,versionC_stim.csv,READVersionC.csv,"Read Version C","Dissertation, read only version C",WATER,BRIDGE,Study1,B,18,16,Test,User,-,,Recall,Recall1,3360,,0,2706,2706,0,0,,1
5f4f8e8f9213e9056223e128,1456df83rr,Nick_Dissertation_EX1,1,102,2020-10-24T10:29:11-07:00,3.1079590320587,3,versionC_stim.csv,READVersionC.csv,"Read Version C","Dissertation, read only version C",SALAD,LETTUCE,Study1,S,59,69,Test,User,-,,Recall,Recall1,2683,GREEN,33.333333333333,1669,2393,0,0,,1
5f4f8e8f9213e9056223e128,1456df83rr,Nick_Dissertation_EX1,1,103,2020-10-24T10:29:13-07:00,2.1072280406952,3,versionC_stim.csv,READVersionC.csv,"Read Version C","Dissertation, read only version C",STENCH,SMELL,Study1,F,42,82,Test,User,-,,Recall,Recall1,1799,,0,-1,-1,0,0,,1
5f4f8e8f9213e9056223e128,1456df83rr,Nick_Dissertation_EX1,1,104,2020-10-24T10:29:15-07:00,2.3839268684387,3,versionC_stim.csv,READVersionC.csv,"Read Version C","Dissertation, read only version C",RACKET,BALL,Study1,F,38,71,Test,User,-,,Recall,Recall1,1861,BALL,100,1330,1634,1,1,,1
5f4f8e8f9213e9056223e128,1456df83rr,Nick_Dissertation_EX1,1,105,2020-10-24T10:29:19-07:00,3.4819390773773,3,versionC_stim.csv,READVersionC.csv,"Read Version C","Dissertation, read only version C",CLEAN,HYGIENE,Study1,B,17,74,Test,User,-,,Recall,Recall1,3062,,0,-1,-1,0,0,,1
5f4f8e8f9213e9056223e128,1456df83rr,Nick_Dissertation_EX1,1,106,2020-10-24T10:29:23-07:00,4.3237209320068,3,versionC_stim.csv,READVersionC.csv,"Read Version C","Dissertation, read only version C",ROCK,GEOLOGY,Study1,B,19,10,Test,User,-,,Recall,Recall1,3903,,0,-1,-1,0,0,,1
5f4f8e8f9213e9056223e128,1456df83rr,Nick_Dissertation_EX1,1,107,2020-10-24T10:29:26-07:00,2.5965180397034,3,versionC_stim.csv,READVersionC.csv,"Read Version C","Dissertation, read only version C",SIP,DRINK,Study1,F,27,54,Test,User,-,,Recall,Recall1,2170,DRINK,100,1413,1912,1,1,,1
5f4f8e8f9213e9056223e128,1456df83rr,Nick_Dissertation_EX1,1,108,2020-10-24T10:29:29-07:00,3.3233110904694,3,versionC_stim.csv,READVersionC.csv,"Read Version C","Dissertation, read only version C",SITE,LOCATION,Study1,S,48,8,Test,User,-,,Recall,Recall1,2897,WEB,0,2181,2419,0,0,,1
5f4f8e8f9213e9056223e128,1456df83rr,Nick_Dissertation_EX1,1,109,2020-10-24T10:29:34-07:00,5.1981608867645,3,versionC_stim.csv,READVersionC.csv,"Read Version C","Dissertation, read only version C",POSITION,MACHINE,Study1,U,76,32,Test,User,-,,Recall,Recall1,4765,,0,-1,-1,0,0,,1
5f4f8e8f9213e9056223e128,1456df83rr,Nick_Dissertation_EX1,1,110,2020-10-24T10:29:40-07:00,5.2157669067383,3,versionC_stim.csv,READVersionC.csv,"Read Version C","Dissertation, read only version C",VASE,KING,Study1,U,85,66,Test,User,-,,Recall,Recall1,4774,,0,-1,-1,0,0,,1
5f4f8e8f9213e9056223e128,1456df83rr,Nick_Dissertation_EX1,1,111,2020-10-24T10:29:43-07:00,3.3770551681519,3,versionC_stim.csv,READVersionC.csv,"Read Version C","Dissertation, read only version C",BELT,SOON,Study1,U,70,33,Test,User,-,,Recall,Recall1,2954,SOON,100,2327,2638,1,1,,1
5f4f8e8f9213e9056223e128,1456df83rr,Nick_Dissertation_EX1,1,112,2020-10-24T10:29:47-07:00,3.7648730278015,3,versionC_stim.csv,READVersionC.csv,"Read Version C","Dissertation, read only version C",ACCIDENT,STRONG,Study1,U,80,64,Test,User,-,,Recall,Recall1,3338,,0,-1,-1,0,0,,1
5f4f8e8f9213e9056223e128,1456df83rr,Nick_Dissertation_EX1,1,113,2020-10-24T10:29:51-07:00,3.9112899303436,3,versionC_stim.csv,READVersionC.csv,"Read Version C","Dissertation, read only version C",BAR,GRILL,Study1,S,52,21,Test,User,-,,Recall,Recall1,3489,GRILL,100,2761,3292,1,1,,1
5f4f8e8f9213e9056223e128,1456df83rr,Nick_Dissertation_EX1,1,114,2020-10-24T10:29:54-07:00,3.4884178638458,3,versionC_stim.csv,READVersionC.csv,"Read Version C","Dissertation, read only version C",WOMAN,LIFT,Study1,U,69,73,Test,User,-,,Recall,Recall1,3062,,0,-1,-1,0,0,,1
5f4f8e8f9213e9056223e128,1456df83rr,Nick_Dissertation_EX1,1,115,2020-10-24T10:29:56-07:00,1.8912441730499,3,versionC_stim.csv,READVersionC.csv,"Read Version C","Dissertation, read only version C",ASSIGNMENT,DUE,Study1,S,46,80,Test,User,-,,Recall,Recall1,1586,DUE,100,962,1178,1,1,,1
5f4f8e8f9213e9056223e128,1456df83rr,Nick_Dissertation_EX1,1,116,2020-10-24T10:29:59-07:00,2.5541749000549,3,versionC_stim.csv,READVersionC.csv,"Read Version C","Dissertation, read only version C",PILOT,PLANE,Study1,F,44,78,Test,User,-,,Recall,Recall1,2123,,0,-1,-1,0,0,,1
5f4f8e8f9213e9056223e128,1456df83rr,Nick_Dissertation_EX1,1,117,2020-10-24T10:30:02-07:00,3.0928471088409,3,versionC_stim.csv,READVersionC.csv,"Read Version C","Dissertation, read only version C",DEFINITION,MEANING,Study1,S,62,9,Test,User,-,,Recall,Recall1,2674,MEANING,100,1835,2408,1,1,,1
5f4f8e8f9213e9056223e128,1456df83rr,Nick_Dissertation_EX1,1,118,2020-10-24T10:30:06-07:00,4.3109140396118,3,versionC_stim.csv,READVersionC.csv,"Read Version C","Dissertation, read only version C",WIND,BLOW,Study1,S,55,31,Test,User,-,,Recall,Recall1,3888,BLOW,100,2862,3608,1,1,,1
5f4f8e8f9213e9056223e128,1456df83rr,Nick_Dissertation_EX1,1,119,2020-10-24T10:30:18-07:00,11.600209951401,3,versionC_stim.csv,READVersionC.csv,"Read Version C","Dissertation, read only version C",BRONZE,ARTERY,Study1,U,74,79,Test,User,-,,Recall,Recall1,11174,BLOOD,0,10244,10690,0,0,,1
5f4f8e8f9213e9056223e128,1456df83rr,Nick_Dissertation_EX1,1,120,2020-10-24T10:30:20-07:00,2.0056338310242,3,versionC_stim.csv,READVersionC.csv,"Read Version C","Dissertation, read only version C",BEE,HONEY,Study1,S,63,50,Test,User,-,,Recall,Recall1,1685,HONEY,100,1052,1453,1,1,,1
5f4f8e8f9213e9056223e128,1456df83rr,Nick_Dissertation_EX1,1,121,2020-10-24T10:30:23-07:00,3.3867130279541,3,versionC_stim.csv,READVersionC.csv,"Read Version C","Dissertation, read only version C",CAR,HAPPY,Study1,U,77,46,Test,User,-,,Recall,Recall1,2969,HAPPY,100,2354,2773,1,1,,1
5f4f8e8f9213e9056223e128,1456df83rr,Nick_Dissertation_EX1,1,122,2020-10-24T10:30:26-07:00,3.1445171833038,3,versionC_stim.csv,READVersionC.csv,"Read Version C","Dissertation, read only version C",ROUND,CIRCLE,Study1,S,65,65,Test,User,-,,Recall,Recall1,2722,,0,-1,-1,0,0,,1
5f4f8e8f9213e9056223e128,1456df83rr,Nick_Dissertation_EX1,1,123,2020-10-24T10:30:28-07:00,2.0727498531342,3,versionC_stim.csv,READVersionC.csv,"Read Version C","Dissertation, read only version C",SODA,POP,Study1,S,56,19,Test,User,-,,Recall,Recall1,1760,POP,100,1207,1406,1,1,,1
5f4f8e8f9213e9056223e128,1456df83rr,Nick_Dissertation_EX1,1,124,2020-10-24T10:30:32-07:00,3.7181570529938,3,versionC_stim.csv,READVersionC.csv,"Read Version C","Dissertation, read only version C",COW,HERD,Study1,B,22,20,Test,User,-,,Recall,Recall1,3287,HERD,100,2561,2990,1,1,,1
5f4f8e8f9213e9056223e128,1456df83rr,Nick_Dissertation_EX1,1,125,2020-10-24T10:30:41-07:00,9.0973200798035,3,versionC_stim.csv,READVersionC.csv,"Read Version C","Dissertation, read only version C",HAND,FIX,Study1,U,75,68,Test,User,-,,Recall,Recall1,8667,GESTURE,0,7008,8525,0,0,,1
5f4f8e8f9213e9056223e128,1456df83rr,Nick_Dissertation_EX1,1,126,2020-10-24T10:30:43-07:00,1.9478769302368,3,versionC_stim.csv,READVersionC.csv,"Read Version C","Dissertation, read only version C",BIRD,SWAN,Study1,B,14,63,Test,User,-,,Recall,Recall1,1631,,0,-1,-1,0,0,,1
5f4f8e8f9213e9056223e128,1456df83rr,Nick_Dissertation_EX1,1,127,2020-10-24T10:30:46-07:00,3.3356399536133,3,versionC_stim.csv,READVersionC.csv,"Read Version C","Dissertation, read only version C",STING,HORNET,Study1,B,11,70,Test,User,-,,Recall,Recall1,2915,BEE,22.222222222222,1308,2715,0,0,,1
5f4f8e8f9213e9056223e128,1456df83rr,Nick_Dissertation_EX1,1,128,2020-10-24T10:30:48-07:00,1.4594440460205,3,versionC_stim.csv,READVersionC.csv,"Read Version C","Dissertation, read only version C",WAR,REVOLUTION,Study1,B,20,61,Test,User,-,,Recall,Recall1,1154,,0,-1,-1,0,0,,1
5f4f8e8f9213e9056223e128,1456df83rr,Nick_Dissertation_EX1,1,129,2020-10-24T10:30:51-07:00,2.9018070697784,3,versionC_stim.csv,READVersionC.csv,"Read Version C","Dissertation, read only version C",CHORE,WORK,Study1,F,39,72,Test,User,-,,Recall,Recall1,2482,,0,-1,-1,0,0,,1
5f4f8e8f9213e9056223e128,1456df83rr,Nick_Dissertation_EX1,1,130,2020-10-24T10:30:54-07:00,3.2492530345917,3,versionC_stim.csv,READVersionC.csv,"Read Version C","Dissertation, read only version C",FUTURE,PAST,Study1,S,61,62,Test,User,-,,Recall,Recall1,2817,,0,-1,-1,0,0,,1
5f4f8e8f9213e9056223e128,1456df83rr,Nick_Dissertation_EX1,1,131,2020-10-24T10:30:56-07:00,2.382248878479,3,versionC_stim.csv,READVersionC.csv,"Read Version C","Dissertation, read only version C",CHILD,BABY,Study1,S,64,47,Test,User,-,,Recall,Recall1,1902,,0,-1,-1,0,0,,1
5f4f8e8f9213e9056223e128,1456df83rr,Nick_Dissertation_EX1,1,132,2020-10-24T10:30:59-07:00,2.412360906601,3,versionC_stim.csv,READVersionC.csv,"Read Version C","Dissertation, read only version C",SICK,HIDE,Study1,U,84,84,Test,User,-,,Recall,Recall1,1983,,0,-1,-1,0,0,,1
5f4f8e8f9213e9056223e128,1456df83rr,Nick_Dissertation_EX1,1,133,2020-10-24T10:31:04-07:00,5.7811071872711,3,versionC_stim.csv,READVersionC.csv,"Read Version C","Dissertation, read only version C",AMOUNT,NUMBER,Study1,S,47,52,Test,User,-,,Recall,Recall1,5347,NUMBER,100,4409,5021,1,1,,1
5f4f8e8f9213e9056223e128,1456df83rr,Nick_Dissertation_EX1,1,134,2020-10-24T10:31:21-07:00,16.559572935104,3,versionC_stim.csv,READVersionC.csv,"Read Version C","Dissertation, read only version C",DOG,PAW,Study1,B,15,7,Test,User,-,,Recall,Recall1,16131,,0,-1,-1,0,0,,1
5f4f8e8f9213e9056223e128,1456df83rr,Nick_Dissertation_EX1,1,135,2020-10-24T10:31:24-07:00,2.8165888786316,3,versionC_stim.csv,READVersionC.csv,"Read Version C","Dissertation, read only version C",LION,ART,Study1,U,79,30,Test,User,-,,Recall,Recall1,2395,,0,-1,-1,0,0,,1
5f4f8e8f9213e9056223e128,1456df83rr,Nick_Dissertation_EX1,1,136,2020-10-24T10:31:26-07:00,2.3857450485229,3,versionC_stim.csv,READVersionC.csv,"Read Version C","Dissertation, read only version C",OUT,WAY,Study1,B,16,14,Test,User,-,,Recall,Recall1,1956,,0,-1,-1,0,0,,1
5f4f8e8f9213e9056223e128,1456df83rr,Nick_Dissertation_EX1,1,137,2020-10-24T10:31:31-07:00,4.4322221279144,3,versionC_stim.csv,READVersionC.csv,"Read Version C","Dissertation, read only version C",HAMMER,CHISEL,Study1,B,9,56,Test,User,-,,Recall,Recall1,4011,,0,-1,-1,0,0,,1
5f4f8e8f9213e9056223e128,1456df83rr,Nick_Dissertation_EX1,1,138,2020-10-24T10:31:34-07:00,3.0928068161011,3,versionC_stim.csv,READVersionC.csv,"Read Version C","Dissertation, read only version C",DESIGN,ARCHITECTURE,Study1,S,51,26,Test,User,-,,Recall,Recall1,2666,,0,-1,-1,0,0,,1
5f4f8e8f9213e9056223e128,1456df83rr,Nick_Dissertation_EX1,1,139,2020-10-24T10:31:38-07:00,4.7414200305939,3,versionC_stim.csv,READVersionC.csv,"Read Version C","Dissertation, read only version C",GROWTH,HEIGHT,Study1,F,30,51,Test,User,-,,Recall,Recall1,4309,FLOWER,16.666666666667,3321,4120,0,0,,1
5f4f8e8f9213e9056223e128,1456df83rr,Nick_Dissertation_EX1,1,140,2020-10-24T10:31:41-07:00,2.1158151626587,3,versionC_stim.csv,READVersionC.csv,"Read Version C","Dissertation, read only version C",CARD,CREDIT,Study1,B,23,60,Test,User,-,,Recall,Recall1,1809,,0,-1,-1,0,0,,1
5f4f8e8f9213e9056223e128,1456df83rr,Nick_Dissertation_EX1,1,141,2020-10-24T10:31:44-07:00,3.6563849449158,3,versionC_stim.csv,READVersionC.csv,"Read Version C","Dissertation, read only version C",PLANT,ROOT,Study1,B,13,17,Test,User,-,,Recall,Recall1,3228,GREEN,22.222222222222,2245,2998,0,0,,1
5f4f8e8f9213e9056223e128,1456df83rr,Nick_Dissertation_EX1,1,142,2020-10-24T10:31:47-07:00,2.3816800117493,3,versionC_stim.csv,READVersionC.csv,"Read Version C","Dissertation, read only version C",BLAZE,FIRE,Study1,F,45,12,Test,User,-,,Recall,Recall1,1908,,0,-1,-1,0,0,,1
5f4f8e8f9213e9056223e128,1456df83rr,Nick_Dissertation_EX1,1,143,2020-10-24T10:31:48-07:00,1.837238073349,3,versionC_stim.csv,READVersionC.csv,"Read Version C","Dissertation, read only version C",ATTIRE,CLOTHES,Study1,F,43,37,Test,User,-,,Recall,Recall1,1531,,0,-1,-1,0,0,,1
5f4f8e8f9213e9056223e128,1456df83rr,Nick_Dissertation_EX1,1,144,2020-10-24T10:31:52-07:00,3.3885908126831,3,versionC_stim.csv,READVersionC.csv,"Read Version C","Dissertation, read only version C",FISH,TUNA,Study1,B,25,40,Test,User,-,,Recall,Recall1,2955,,0,-1,-1,0,0,,1
5f4f8e8f9213e9056223e128,1456df83rr,Nick_Dissertation_EX1,1,145,2020-10-24T10:31:55-07:00,3.0361061096191,3,versionC_stim.csv,READVersionC.csv,"Read Version C","Dissertation, read only version C",MONEY,WAGE,Study1,B,8,11,Test,User,-,,Recall,Recall1,2605,,0,-1,-1,0,0,,1
5f4f8e8f9213e9056223e128,1456df83rr,Nick_Dissertation_EX1,1,146,2020-10-24T10:31:58-07:00,2.6210808753967,3,versionC_stim.csv,READVersionC.csv,"Read Version C","Dissertation, read only version C",END,BEGIN,Study1,S,54,59,Test,User,-,,Recall,Recall1,2196,,0,-1,-1,0,0,,1
5f4f8e8f9213e9056223e128,1456df83rr,Nick_Dissertation_EX1,1,147,2020-10-24T10:32:00-07:00,2.9359500408173,3,versionC_stim.csv,READVersionC.csv,"Read Version C","Dissertation, read only version C",WOULD,CASH,Study1,U,83,25,Test,User,-,,Recall,Recall1,2515,,0,-1,-1,0,0,,1
5f4f8e8f9213e9056223e128,1456df83rr,Nick_Dissertation_EX1,1,148,2020-10-24T10:32:03-07:00,2.9914479255676,3,versionC_stim.csv,READVersionC.csv,"Read Version C","Dissertation, read only version C",FLOWER,ORCHID,Study1,B,24,81,Test,User,-,,Recall,Recall1,2563,GREEN,18.181818181818,1694,2290,0,0,,1
5f4f8e8f9213e9056223e128,1456df83rr,Nick_Dissertation_EX1,1,149,2020-10-24T10:32:07-07:00,3.3488121032715,3,versionC_stim.csv,READVersionC.csv,"Read Version C","Dissertation, read only version C",TALK,DISCUSSION,Study1,B,21,24,Test,User,-,,Recall,Recall1,2922,,0,-1,-1,0,0,,1
5f4f8e8f9213e9056223e128,1456df83rr,Nick_Dissertation_EX1,1,150,2020-10-24T10:32:10-07:00,2.943186044693,3,versionC_stim.csv,READVersionC.csv,"Read Version C","Dissertation, read only version C",WASP,BUG,Study1,F,32,18,Test,User,-,,Recall,Recall1,2514,STING,25,1798,2278,0,0,,1
5f4f8e8f9213e9056223e128,1456df83rr,Nick_Dissertation_EX1,1,151,2020-10-24T10:32:13-07:00,3.2484359741211,3,versionC_stim.csv,READVersionC.csv,"Read Version C","Dissertation, read only version C",DIVISION,MATH,Study1,F,33,42,Test,User,-,,Recall,Recall1,2822,,0,-1,-1,0,0,,1
5f4f8e8f9213e9056223e128,1456df83rr,Nick_Dissertation_EX1,1,152,2020-10-24T10:32:15-07:00,2.0457320213318,3,versionC_stim.csv,READVersionC.csv,"Read Version C","Dissertation, read only version C",CHILI,HOT,Study1,F,37,48,Test,User,-,,Recall,Recall1,1719,,0,-1,-1,0,0,,1
5f4f8e8f9213e9056223e128,1456df83rr,Nick_Dissertation_EX1,1,153,2020-10-24T10:32:20-07:00,5.4075858592987,3,versionC_stim.csv,READVersionC.csv,"Read Version C","Dissertation, read only version C",BUSINESS,DEATH,Study1,U,72,35,Test,User,-,,Recall,Recall1,4983,,0,-1,-1,0,0,,1
5f4f8e8f9213e9056223e128,1456df83rr,Nick_Dissertation_EX1,1,154,2020-10-24T10:32:23-07:00,2.5695362091064,3,versionC_stim.csv,READVersionC.csv,"Read Version C","Dissertation, read only version C",HUNGRY,PARK,Study1,U,68,76,Test,User,-,,Recall,Recall1,2143,FOOD,0,1645,1980,0,0,,1
5f4f8e8f9213e9056223e128,1456df83rr,Nick_Dissertation_EX1,1,155,2020-10-24T10:32:25-07:00,2.3834528923035,3,versionC_stim.csv,READVersionC.csv,"Read Version C","Dissertation, read only version C",LATCH,KEY,Study1,F,36,75,Test,User,-,,Recall,Recall1,984,,0,-1,-1,0,0,,1
5f4f8e8f9213e9056223e128,1456df83rr,Nick_Dissertation_EX1,1,156,2020-10-24T10:32:35-07:00,9.9527809619904,3,versionC_stim.csv,READVersionC.csv,"Read Version C","Dissertation, read only version C",ADD,VALLEY,Study1,U,82,34,Test,User,-,,Recall,Recall1,9526,,0,-1,-1,0,0,,1
5f4f8e8f9213e9056223e128,1456df83rr,Nick_Dissertation_EX1,1,157,2020-10-24T10:32:38-07:00,2.3843190670013,3,versionC_stim.csv,READVersionC.csv,"Read Version C","Dissertation, read only version C",FOOT,SHOE,Study1,S,60,23,Test,User,-,,Recall,Recall1,1914,,0,-1,-1,0,0,,1
5f4f8e8f9213e9056223e128,1456df83rr,Nick_Dissertation_EX1,1,158,2020-10-24T10:32:41-07:00,3.4106740951538,3,versionC_stim.csv,READVersionC.csv,"Read Version C","Dissertation, read only version C",LIVER,KIDNEY,Study1,S,53,86,Test,User,-,,Recall,Recall1,2983,,0,-1,-1,0,0,,1
5f4f8e8f9213e9056223e128,1456df83rr,Nick_Dissertation_EX1,1,159,2020-10-24T10:32:47-07:00,5.6575479507446,3,versionC_stim.csv,READVersionC.csv,"Read Version C","Dissertation, read only version C",ENOUGH,FULL,Study1,F,26,41,Test,User,-,,Recall,Recall1,5232,,0,-1,-1,0,0,,1
5f4f8e8f9213e9056223e128,1456df83rr,Nick_Dissertation_EX1,1,160,2020-10-24T10:32:50-07:00,3.2509989738464,3,versionC_stim.csv,READVersionC.csv,"Read Version C","Dissertation, read only version C",FAMINE,HUNGER,Study1,F,40,57,Test,User,-,,Recall,Recall1,2819,HUNGER,100,1854,2459,1,1,,1
5f4f8e8f9213e9056223e128,1456df83rr,Nick_Dissertation_EX1,1,161,2020-10-24T10:32:52-07:00,1.7535600662231,3,versionC_stim.csv,READVersionC.csv,"Read Version C","Dissertation, read only version C",WORD,SENTENCE,Study1,F,31,85,Test,User,-,,Recall,Recall1,1445,,0,-1,-1,0,0,,1
5f4f8e8f9213e9056223e128,1456df83rr,Nick_Dissertation_EX1,1,162,2020-10-24T10:32:56-07:00,4.092423915863,3,versionC_stim.csv,READVersionC.csv,"Read Version C","Dissertation, read only version C",TOILET,BATHROOM,Study1,S,58,83,Test,User,-,,Recall,Recall1,3666,BATHROOM,100,2472,3251,1,1,,1
5f4f8e8f9213e9056223e128,1456df83rr,Nick_Dissertation_EX1,1,163,2020-10-24T10:33:02-07:00,6.2067649364471,3,versionC_stim.csv,READVersionC.csv,"Read Version C","Dissertation, read only version C",SIGHT,DEBATE,Study1,U,73,55,Test,User,-,,Recall,Recall1,5779,,0,-1,-1,0,0,,1
5f4f8e8f9213e9056223e128,1456df83rr,Nick_Dissertation_EX1,1,164,2020-10-24T10:33:08-07:00,6.3660690784454,3,versionC_stim.csv,READVersionC.csv,"Read Version C","Dissertation, read only version C",WASTE,DUMP,Study1,S,49,58,Test,User,-,,Recall,Recall1,5933,,0,-1,-1,0,0,,1
5f4f8e8f9213e9056223e128,1456df83rr,Nick_Dissertation_EX1,1,165,2020-10-24T10:33:11-07:00,2.9936010837555,3,versionC_stim.csv,READVersionC.csv,"Read Version C","Dissertation, read only version C",FLOOR,DISCOVER,Study1,U,71,38,Test,User,-,,Recall,Recall1,1680,,0,-1,-1,0,0,,1
5f4f8e8f9213e9056223e128,1456df83rr,Nick_Dissertation_EX1,1,166,2020-10-24T10:33:16-07:00,4.1147909164429,3,versionC_stim.csv,READVersionC.csv,"Read Version C","Dissertation, read only version C",SEIZE,TAKE,Study1,F,29,27,Test,User,-,,Recall,Recall1,2577,,0,-1,-1,0,0,,1
5f4f8e8f9213e9056223e128,1456df83rr,Nick_Dissertation_EX1,1,167,2020-10-24T10:33:19-07:00,3.082221031189,3,versionC_stim.csv,READVersionC.csv,"Read Version C","Dissertation, read only version C",SACKING,DIETARY,Study1,U,67,49,Test,User,-,,Recall,Recall1,2659,,0,-1,-1,0,0,,1
5f4f8e8f9213e9056223e128,1456df83rr,Nick_Dissertation_EX1,1,168,2020-10-24T10:33:21-07:00,2.1145918369293,3,versionC_stim.csv,READVersionC.csv,"Read Version C","Dissertation, read only version C",CAVE,DARK,Study1,F,28,29,Test,User,-,,Recall,Recall1,1809,,0,-1,-1,0,0,,1
5f4f8e8f9213e9056223e128,1456df83rr,Nick_Dissertation_EX1,1,169,2020-10-24T10:33:27-07:00,6.0615880489349,3,versionC_stim.csv,READVersionC.csv,"Read Version C","Dissertation, read only version C",DROWSY,SLEEP,Study1,F,41,44,Test,User,-,,Recall,Recall1,5635,SLEEP,100,4220,5469,1,1,,1
5f4f8e8f9213e9056223e128,1456df83rr,Nick_Dissertation_EX1,1,170,2020-10-24T10:33:30-07:00,2.8969819545746,3,versionC_stim.csv,READVersionC.csv,"Read Version C","Dissertation, read only version C",TUCK,ALLOW,Study1,U,78,36,Test,User,-,,Recall,Recall1,2466,,0,-1,-1,0,0,,1
5f4f8e8f9213e9056223e128,1456df83rr,Nick_Dissertation_EX1,1,171,2020-10-24T10:33:35-07:00,4.7761270999908,3,versionC_stim.csv,READVersionC.csv,"Read Version C","Dissertation, read only version C",BAD,DELINQUENT,Study1,B,6,28,Test,User,-,,Recall,Recall1,4350,,0,-1,-1,0,0,,1
5f4f8e8f9213e9056223e128,1456df83rr,Nick_Dissertation_EX1,1,172,2020-10-24T10:33:36-07:00,1.3341128826141,3,versionC_stim.csv,READVersionC.csv,"Read Version C","Dissertation, read only version C",FANTASTIC,GREAT,Study1,F,35,13,Test,User,-,,Recall,Recall1,1027,,0,-1,-1,0,0,,1
5f4f8e8f9213e9056223e128,1456df83rr,Nick_Dissertation_EX1,1,173,2020-10-24T10:33:40-07:00,4.3358511924744,3,versionC_stim.csv,READVersionC.csv,"Read Version C","Dissertation, read only version C",COLD,BITTER,Study1,B,12,45,Test,User,-,,Recall,Recall1,3900,,0,-1,-1,0,0,,1
5f4f8e8f9213e9056223e128,1456df83rr,Nick_Dissertation_EX1,1,174,2020-10-24T10:33:44-07:00,3.7118589878082,3,versionC_stim.csv,READVersionC.csv,"Read Version C","Dissertation, read only version C",NEWS,EDITOR,Study1,B,10,22,Test,User,-,,Recall,Recall1,3286,,0,-1,-1,0,0,,1
5f4f8e8f9213e9056223e128,1456df83rr,Nick_Dissertation_EX1,1,175,2020-10-24T10:33:59-07:00,15.173774003983,3,versionC_stim.csv,READVersionC.csv,"Read Version C","Dissertation, read only version C",,,,,,0,Instruct,-,10,"You will now be presented with a new set of word pairs. Please study each pair. Remember that your memory will be tested! When finished, press Enter to move to the next pair.",Initial_Instruct,Instruct4,14750,,,-1,-1,,,,1
5f4f8e8f9213e9056223e128,1456df83rr,Nick_Dissertation_EX1,1,176,2020-10-24T10:34:02-07:00,3.4117708206177,3,versionC_stim.csv,READVersionC.csv,"Read Version C","Dissertation, read only version C",ADVENTURE,CAMP,BUFFER3,Buffer,95,92,Study,User,-,,Study/JOL,BUFFER3,2974,,,-1,-1,,,,1
5f4f8e8f9213e9056223e128,1456df83rr,Nick_Dissertation_EX1,1,177,2020-10-24T10:34:05-07:00,2.0344882011414,3,versionC_stim.csv,READVersionC.csv,"Read Version C","Dissertation, read only version C",FISH,SHRIMP,BUFFER3,Buffer,93,95,Study,User,-,,Study/JOL,BUFFER3,1711,,,-1,-1,,,,1
5f4f8e8f9213e9056223e128,1456df83rr,Nick_Dissertation_EX1,1,178,2020-10-24T10:34:07-07:00,2.0858149528503,3,versionC_stim.csv,READVersionC.csv,"Read Version C","Dissertation, read only version C",STRING,NOODLE,BUFFER3,Buffer,92,96,Study,User,-,,Study/JOL,BUFFER3,1761,,,-1,-1,,,,1
5f4f8e8f9213e9056223e128,1456df83rr,Nick_Dissertation_EX1,1,179,2020-10-24T10:34:09-07:00,2.3731958866119,3,versionC_stim.csv,READVersionC.csv,"Read Version C","Dissertation, read only version C",POTATO,CARROT,BUFFER3,Buffer,91,93,Study,User,-,,Study/JOL,BUFFER3,1947,,,-1,-1,,,,1
5f4f8e8f9213e9056223e128,1456df83rr,Nick_Dissertation_EX1,1,180,2020-10-24T10:34:11-07:00,1.9067311286926,3,versionC_stim.csv,READVersionC.csv,"Read Version C","Dissertation, read only version C",FROZEN,ICE,BUFFER3,Buffer,94,94,Study,User,-,,Study/JOL,BUFFER3,1588,,,-1,-1,,,,1
5f4f8e8f9213e9056223e128,1456df83rr,Nick_Dissertation_EX1,1,181,2020-10-24T10:34:13-07:00,1.9225130081177,3,versionC_stim.csv,READVersionC.csv,"Read Version C","Dissertation, read only version C",PLANT,CACTUS,Study2,B,98,118,Study,User,-,,Study/JOL,"Study Phase2",1612,,,-1,-1,,,,1
5f4f8e8f9213e9056223e128,1456df83rr,Nick_Dissertation_EX1,1,182,2020-10-24T10:34:15-07:00,2.0666399002075,3,versionC_stim.csv,READVersionC.csv,"Read Version C","Dissertation, read only version C",PAPER,DOCUMENT,Study2,B,109,104,Study,User,-,,Study/JOL,"Study Phase2",1760,,,-1,-1,,,,1
5f4f8e8f9213e9056223e128,1456df83rr,Nick_Dissertation_EX1,1,183,2020-10-24T10:34:18-07:00,3.046658039093,3,versionC_stim.csv,READVersionC.csv,"Read Version C","Dissertation, read only version C",SIGN,LOAN,Study2,U,171,122,Study,User,-,,Study/JOL,"Study Phase2",2623,,,-1,-1,,,,1
5f4f8e8f9213e9056223e128,1456df83rr,Nick_Dissertation_EX1,1,184,2020-10-24T10:34:20-07:00,2.385283946991,3,versionC_stim.csv,READVersionC.csv,"Read Version C","Dissertation, read only version C",TRUTHFUL,HONEST,Study2,F,133,143,Study,User,-,,Study/JOL,"Study Phase2",1920,,,-1,-1,,,,1
5f4f8e8f9213e9056223e128,1456df83rr,Nick_Dissertation_EX1,1,185,2020-10-24T10:34:23-07:00,2.3858790397644,3,versionC_stim.csv,READVersionC.csv,"Read Version C","Dissertation, read only version C",CAR,DRIVER,Study2,B,106,127,Study,User,-,,Study/JOL,"Study Phase2",1934,,,-1,-1,,,,1
5f4f8e8f9213e9056223e128,1456df83rr,Nick_Dissertation_EX1,1,186,2020-10-24T10:34:25-07:00,2.5522220134735,3,versionC_stim.csv,READVersionC.csv,"Read Version C","Dissertation, read only version C",DRINK,WATER,Study2,S,143,144,Study,User,-,,Study/JOL,"Study Phase2",2126,,,-1,-1,,,,1
5f4f8e8f9213e9056223e128,1456df83rr,Nick_Dissertation_EX1,1,187,2020-10-24T10:34:28-07:00,2.3979558944702,3,versionC_stim.csv,READVersionC.csv,"Read Version C","Dissertation, read only version C",PANTHER,CAT,Study2,F,126,109,Study,User,-,,Study/JOL,"Study Phase2",1922,,,-1,-1,,,,1
5f4f8e8f9213e9056223e128,1456df83rr,Nick_Dissertation_EX1,1,188,2020-10-24T10:34:30-07:00,2.6855301856995,3,versionC_stim.csv,READVersionC.csv,"Read Version C","Dissertation, read only version C",TAN,SUN,Study2,S,155,126,Study,User,-,,Study/JOL,"Study Phase2",2250,,,-1,-1,,,,1
5f4f8e8f9213e9056223e128,1456df83rr,Nick_Dissertation_EX1,1,189,2020-10-24T10:34:33-07:00,2.3878948688507,3,versionC_stim.csv,READVersionC.csv,"Read Version C","Dissertation, read only version C",TOIL,LEASE,Study2,U,170,139,Study,User,-,,Study/JOL,"Study Phase2",1885,,,-1,-1,,,,1
5f4f8e8f9213e9056223e128,1456df83rr,Nick_Dissertation_EX1,1,190,2020-10-24T10:34:35-07:00,1.8029451370239,3,versionC_stim.csv,READVersionC.csv,"Read Version C","Dissertation, read only version C",FICTION,LISTEN,Study2,U,164,150,Study,User,-,,Study/JOL,"Study Phase2",1495,,,-1,-1,,,,1
5f4f8e8f9213e9056223e128,1456df83rr,Nick_Dissertation_EX1,1,191,2020-10-24T10:34:37-07:00,2.811182975769,3,versionC_stim.csv,READVersionC.csv,"Read Version C","Dissertation, read only version C",Morning,TEMPERATURE,Study2,U,173,123,Study,User,-,,Study/JOL,"Study Phase2",2385,,,-1,-1,,,,1
5f4f8e8f9213e9056223e128,1456df83rr,Nick_Dissertation_EX1,1,192,2020-10-24T10:34:41-07:00,3.4240388870239,3,versionC_stim.csv,READVersionC.csv,"Read Version C","Dissertation, read only version C",CLEAR,MOAT,Study2,U,169,121,Study,User,-,,Study/JOL,"Study Phase2",2986,,,-1,-1,,,,1
5f4f8e8f9213e9056223e128,1456df83rr,Nick_Dissertation_EX1,1,193,2020-10-24T10:34:44-07:00,3.0540270805359,3,versionC_stim.csv,READVersionC.csv,"Read Version C","Dissertation, read only version C",NOISE,LOUD,Study2,S,152,172,Study,User,-,,Study/JOL,"Study Phase2",1732,,,-1,-1,,,,1
5f4f8e8f9213e9056223e128,1456df83rr,Nick_Dissertation_EX1,1,194,2020-10-24T10:34:47-07:00,2.7570149898529,3,versionC_stim.csv,READVersionC.csv,"Read Version C","Dissertation, read only version C",SCISSORS,SHEARS,Study2,B,112,156,Study,User,-,,Study/JOL,"Study Phase2",2334,,,-1,-1,,,,1
5f4f8e8f9213e9056223e128,1456df83rr,Nick_Dissertation_EX1,1,195,2020-10-24T10:34:49-07:00,2.5708808898926,3,versionC_stim.csv,READVersionC.csv,"Read Version C","Dissertation, read only version C",BALLOON,POP,Study2,F,123,129,Study,User,-,,Study/JOL,"Study Phase2",2149,,,-1,-1,,,,1
5f4f8e8f9213e9056223e128,1456df83rr,Nick_Dissertation_EX1,1,196,2020-10-24T10:34:52-07:00,2.8847100734711,3,versionC_stim.csv,READVersionC.csv,"Read Version C","Dissertation, read only version C",ABLE,CRACKLE,Study2,U,162,171,Study,User,-,,Study/JOL,"Study Phase2",2457,,,-1,-1,,,,1
5f4f8e8f9213e9056223e128,1456df83rr,Nick_Dissertation_EX1,1,197,2020-10-24T10:34:55-07:00,3.3018469810486,3,versionC_stim.csv,READVersionC.csv,"Read Version C","Dissertation, read only version C",BRAWL,FIGHT,Study2,F,135,101,Study,User,-,,Study/JOL,"Study Phase2",2872,,,-1,-1,,,,1
5f4f8e8f9213e9056223e128,1456df83rr,Nick_Dissertation_EX1,1,198,2020-10-24T10:34:58-07:00,2.5238370895386,3,versionC_stim.csv,READVersionC.csv,"Read Version C","Dissertation, read only version C",SARDINE,FISH,Study2,F,130,164,Study,User,-,,Study/JOL,"Study Phase2",2096,,,-1,-1,,,,1
5f4f8e8f9213e9056223e128,1456df83rr,Nick_Dissertation_EX1,1,199,2020-10-24T10:35:00-07:00,1.8530719280243,3,versionC_stim.csv,READVersionC.csv,"Read Version C","Dissertation, read only version C",LIE,TRUTH,Study2,S,148,111,Study,User,-,,Study/JOL,"Study Phase2",1542,,,-1,-1,,,,1
5f4f8e8f9213e9056223e128,1456df83rr,Nick_Dissertation_EX1,1,200,2020-10-24T10:35:02-07:00,2.6025049686432,3,versionC_stim.csv,READVersionC.csv,"Read Version C","Dissertation, read only version C",BANKER,MONEY,Study2,F,132,146,Study,User,-,,Study/JOL,"Study Phase2",2179,,,-1,-1,,,,1
5f4f8e8f9213e9056223e128,1456df83rr,Nick_Dissertation_EX1,1,201,2020-10-24T10:35:04-07:00,1.7288370132446,3,versionC_stim.csv,READVersionC.csv,"Read Version C","Dissertation, read only version C",HEAD,SCALP,Study2,B,105,168,Study,User,-,,Study/JOL,"Study Phase2",1410,,,-1,-1,,,,1
5f4f8e8f9213e9056223e128,1456df83rr,Nick_Dissertation_EX1,1,202,2020-10-24T10:35:06-07:00,1.6382069587708,3,versionC_stim.csv,READVersionC.csv,"Read Version C","Dissertation, read only version C",RED,CHERRY,Study2,B,104,114,Study,User,-,,Study/JOL,"Study Phase2",1332,,,-1,-1,,,,1
5f4f8e8f9213e9056223e128,1456df83rr,Nick_Dissertation_EX1,1,203,2020-10-24T10:35:08-07:00,2.3523230552673,3,versionC_stim.csv,READVersionC.csv,"Read Version C","Dissertation, read only version C",REEL,ROD,Study2,S,150,142,Study,User,-,,Study/JOL,"Study Phase2",1857,,,-1,-1,,,,1
5f4f8e8f9213e9056223e128,1456df83rr,Nick_Dissertation_EX1,1,204,2020-10-24T10:35:10-07:00,1.8216729164124,3,versionC_stim.csv,READVersionC.csv,"Read Version C","Dissertation, read only version C",OBTAIN,MEAT,Study2,U,161,163,Study,User,-,,Study/JOL,"Study Phase2",1511,,,-1,-1,,,,1
5f4f8e8f9213e9056223e128,1456df83rr,Nick_Dissertation_EX1,1,205,2020-10-24T10:35:13-07:00,3.0786020755768,3,versionC_stim.csv,READVersionC.csv,"Read Version C","Dissertation, read only version C",SCAR,MAIN,Study2,U,175,166,Study,User,-,,Study/JOL,"Study Phase2",2650,,,-1,-1,,,,1
5f4f8e8f9213e9056223e128,1456df83rr,Nick_Dissertation_EX1,1,206,2020-10-24T10:35:15-07:00,1.8626010417938,3,versionC_stim.csv,READVersionC.csv,"Read Version C","Dissertation, read only version C",ACTRESS,STAR,Study2,F,120,145,Study,User,-,,Study/JOL,"Study Phase2",1545,,,-1,-1,,,,1
5f4f8e8f9213e9056223e128,1456df83rr,Nick_Dissertation_EX1,1,207,2020-10-24T10:35:19-07:00,3.7475619316101,3,versionC_stim.csv,READVersionC.csv,"Read Version C","Dissertation, read only version C",VILLAIN,BAD,Study2,F,118,99,Study,User,-,,Study/JOL,"Study Phase2",3324,,,-1,-1,,,,1
5f4f8e8f9213e9056223e128,1456df83rr,Nick_Dissertation_EX1,1,208,2020-10-24T10:35:21-07:00,2.7456090450287,3,versionC_stim.csv,READVersionC.csv,"Read Version C","Dissertation, read only version C",REVENGE,EVEN,Study2,F,122,106,Study,User,-,,Study/JOL,"Study Phase2",2321,,,-1,-1,,,,1
5f4f8e8f9213e9056223e128,1456df83rr,Nick_Dissertation_EX1,1,209,2020-10-24T10:35:24-07:00,2.4766039848328,3,versionC_stim.csv,READVersionC.csv,"Read Version C","Dissertation, read only version C",EAT,DINE,Study2,B,111,125,Study,User,-,,Study/JOL,"Study Phase2",2051,,,-1,-1,,,,1
5f4f8e8f9213e9056223e128,1456df83rr,Nick_Dissertation_EX1,1,210,2020-10-24T10:35:26-07:00,1.9586389064789,3,versionC_stim.csv,READVersionC.csv,"Read Version C","Dissertation, read only version C",PENGUIN,BIRD,Study2,F,119,107,Study,User,-,,Study/JOL,"Study Phase2",1642,,,-1,-1,,,,1
5f4f8e8f9213e9056223e128,1456df83rr,Nick_Dissertation_EX1,1,211,2020-10-24T10:35:29-07:00,2.8264081478119,3,versionC_stim.csv,READVersionC.csv,"Read Version C","Dissertation, read only version C",CHILDREN,MIRROR,Study2,U,174,135,Study,User,-,,Study/JOL,"Study Phase2",2400,,,-1,-1,,,,1
5f4f8e8f9213e9056223e128,1456df83rr,Nick_Dissertation_EX1,1,212,2020-10-24T10:35:30-07:00,1.7762570381165,3,versionC_stim.csv,READVersionC.csv,"Read Version C","Dissertation, read only version C",ELECTION,MAZE,Study2,U,159,175,Study,User,-,,Study/JOL,"Study Phase2",1462,,,-1,-1,,,,1
5f4f8e8f9213e9056223e128,1456df83rr,Nick_Dissertation_EX1,1,213,2020-10-24T10:35:32-07:00,1.98268699646,3,versionC_stim.csv,READVersionC.csv,"Read Version C","Dissertation, read only version C",NAP,SLEEP,Study2,F,134,140,Study,User,-,,Study/JOL,"Study Phase2",1659,,,-1,-1,,,,1
5f4f8e8f9213e9056223e128,1456df83rr,Nick_Dissertation_EX1,1,214,2020-10-24T10:35:35-07:00,2.7260680198669,3,versionC_stim.csv,READVersionC.csv,"Read Version C","Dissertation, read only version C",WINDSHIELD,CAR,Study2,F,117,133,Study,User,-,,Study/JOL,"Study Phase2",2297,,,-1,-1,,,,1
5f4f8e8f9213e9056223e128,1456df83rr,Nick_Dissertation_EX1,1,215,2020-10-24T10:35:37-07:00,2.058296918869,3,versionC_stim.csv,READVersionC.csv,"Read Version C","Dissertation, read only version C",TRASH,LITTER,Study2,B,103,153,Study,User,-,,Study/JOL,"Study Phase2",1744,,,-1,-1,,,,1
5f4f8e8f9213e9056223e128,1456df83rr,Nick_Dissertation_EX1,1,216,2020-10-24T10:35:39-07:00,1.7432239055634,3,versionC_stim.csv,READVersionC.csv,"Read Version C","Dissertation, read only version C",LONG,EXTENSION,Study2,B,96,128,Study,User,-,,Study/JOL,"Study Phase2",1433,,,-1,-1,,,,1
5f4f8e8f9213e9056223e128,1456df83rr,Nick_Dissertation_EX1,1,217,2020-10-24T10:35:41-07:00,2.6374790668488,3,versionC_stim.csv,READVersionC.csv,"Read Version C","Dissertation, read only version C",COFFIN,DEAD,Study2,F,128,108,Study,User,-,,Study/JOL,"Study Phase2",2205,,,-1,-1,,,,1
5f4f8e8f9213e9056223e128,1456df83rr,Nick_Dissertation_EX1,1,218,2020-10-24T10:35:44-07:00,2.3738970756531,3,versionC_stim.csv,READVersionC.csv,"Read Version C","Dissertation, read only version C",COLD,CHILL,Study2,B,114,165,Study,User,-,,Study/JOL,"Study Phase2",1836,,,-1,-1,,,,1
5f4f8e8f9213e9056223e128,1456df83rr,Nick_Dissertation_EX1,1,219,2020-10-24T10:35:46-07:00,2.3871879577637,3,versionC_stim.csv,READVersionC.csv,"Read Version C","Dissertation, read only version C",DONKEY,MULE,Study2,B,108,120,Study,User,-,,Study/JOL,"Study Phase2",1874,,,-1,-1,,,,1
5f4f8e8f9213e9056223e128,1456df83rr,Nick_Dissertation_EX1,1,220,2020-10-24T10:35:49-07:00,2.9936320781708,3,versionC_stim.csv,READVersionC.csv,"Read Version C","Dissertation, read only version C",SMELL,INCENSE,Study2,B,110,155,Study,User,-,,Study/JOL,"Study Phase2",2535,,,-1,-1,,,,1
5f4f8e8f9213e9056223e128,1456df83rr,Nick_Dissertation_EX1,1,221,2020-10-24T10:35:53-07:00,3.3847239017487,3,versionC_stim.csv,READVersionC.csv,"Read Version C","Dissertation, read only version C",FIGHT,FEUD,Study2,B,113,162,Study,User,-,,Study/JOL,"Study Phase2",2961,,,-1,-1,,,,1
5f4f8e8f9213e9056223e128,1456df83rr,Nick_Dissertation_EX1,1,222,2020-10-24T10:35:55-07:00,1.9899160861969,3,versionC_stim.csv,READVersionC.csv,"Read Version C","Dissertation, read only version C",JAR,MASON,Study2,S,138,119,Study,User,-,,Study/JOL,"Study Phase2",1677,,,-1,-1,,,,1
5f4f8e8f9213e9056223e128,1456df83rr,Nick_Dissertation_EX1,1,223,2020-10-24T10:35:58-07:00,3.4504158496857,3,versionC_stim.csv,READVersionC.csv,"Read Version C","Dissertation, read only version C",CHARM,VEHICLE,Study2,U,160,160,Study,User,-,,Study/JOL,"Study Phase2",3024,,,-1,-1,,,,1
5f4f8e8f9213e9056223e128,1456df83rr,Nick_Dissertation_EX1,1,224,2020-10-24T10:36:01-07:00,3.03568816185,3,versionC_stim.csv,READVersionC.csv,"Read Version C","Dissertation, read only version C",CLOTH,STRETCH,Study2,U,157,169,Study,User,-,,Study/JOL,"Study Phase2",2607,,,-1,-1,,,,1
5f4f8e8f9213e9056223e128,1456df83rr,Nick_Dissertation_EX1,1,225,2020-10-24T10:36:03-07:00,1.6466720104218,3,versionC_stim.csv,READVersionC.csv,"Read Version C","Dissertation, read only version C",STEAK,GIVE,Study2,U,158,97,Study,User,-,,Study/JOL,"Study Phase2",1335,,,-1,-1,,,,1
5f4f8e8f9213e9056223e128,1456df83rr,Nick_Dissertation_EX1,1,226,2020-10-24T10:36:05-07:00,1.8316428661346,3,versionC_stim.csv,READVersionC.csv,"Read Version C","Dissertation, read only version C",EQUAL,RIGHTS,Study2,S,137,147,Study,User,-,,Study/JOL,"Study Phase2",1515,,,-1,-1,,,,1
5f4f8e8f9213e9056223e128,1456df83rr,Nick_Dissertation_EX1,1,227,2020-10-24T10:36:06-07:00,1.709734916687,3,versionC_stim.csv,READVersionC.csv,"Read Version C","Dissertation, read only version C",DOG,FURRY,Study2,B,102,117,Study,User,-,,Study/JOL,"Study Phase2",1392,,,-1,-1,,,,1
5f4f8e8f9213e9056223e128,1456df83rr,Nick_Dissertation_EX1,1,228,2020-10-24T10:36:08-07:00,1.4487571716309,3,versionC_stim.csv,READVersionC.csv,"Read Version C","Dissertation, read only version C",WAX,CANDLE,Study2,S,139,102,Study,User,-,,Study/JOL,"Study Phase2",1138,,,-1,-1,,,,1
5f4f8e8f9213e9056223e128,1456df83rr,Nick_Dissertation_EX1,1,229,2020-10-24T10:36:09-07:00,1.510153055191,3,versionC_stim.csv,READVersionC.csv,"Read Version C","Dissertation, read only version C",TEMPER,TANTRUM,Study2,S,154,154,Study,User,-,,Study/JOL,"Study Phase2",1201,,,-1,-1,,,,1
5f4f8e8f9213e9056223e128,1456df83rr,Nick_Dissertation_EX1,1,230,2020-10-24T10:36:11-07:00,2.0196719169617,3,versionC_stim.csv,READVersionC.csv,"Read Version C","Dissertation, read only version C",GAME,CLUE,Study2,B,97,103,Study,User,-,,Study/JOL,"Study Phase2",1711,,,-1,-1,,,,1
5f4f8e8f9213e9056223e128,1456df83rr,Nick_Dissertation_EX1,1,231,2020-10-24T10:36:17-07:00,5.343493938446,3,versionC_stim.csv,READVersionC.csv,"Read Version C","Dissertation, read only version C",SHAKE,Shell,Study2,U,163,100,Study,User,-,,Study/JOL,"Study Phase2",4917,,,-1,-1,,,,1
5f4f8e8f9213e9056223e128,1456df83rr,Nick_Dissertation_EX1,1,232,2020-10-24T10:36:19-07:00,1.9629521369934,3,versionC_stim.csv,READVersionC.csv,"Read Version C","Dissertation, read only version C",GROUND,EARTH,Study2,S,144,105,Study,User,-,,Study/JOL,"Study Phase2",1643,,,-1,-1,,,,1
5f4f8e8f9213e9056223e128,1456df83rr,Nick_Dissertation_EX1,1,233,2020-10-24T10:36:21-07:00,2.5518369674683,3,versionC_stim.csv,READVersionC.csv,"Read Version C","Dissertation, read only version C",BANG,FUZZY,Study2,U,168,136,Study,User,-,,Study/JOL,"Study Phase2",2124,,,-1,-1,,,,1
5f4f8e8f9213e9056223e128,1456df83rr,Nick_Dissertation_EX1,1,234,2020-10-24T10:36:25-07:00,4.2283189296722,3,versionC_stim.csv,READVersionC.csv,"Read Version C","Dissertation, read only version C",JOKE,KEYS,Study2,U,165,149,Study,User,-,,Study/JOL,"Study Phase2",3794,,,-1,-1,,,,1
5f4f8e8f9213e9056223e128,1456df83rr,Nick_Dissertation_EX1,1,235,2020-10-24T10:36:28-07:00,2.403373003006,3,versionC_stim.csv,READVersionC.csv,"Read Version C","Dissertation, read only version C",AWAY,GONE,Study2,S,142,116,Study,User,-,,Study/JOL,"Study Phase2",1975,,,-1,-1,,,,1
5f4f8e8f9213e9056223e128,1456df83rr,Nick_Dissertation_EX1,1,236,2020-10-24T10:36:30-07:00,2.4972939491272,3,versionC_stim.csv,READVersionC.csv,"Read Version C","Dissertation, read only version C",BRACELET,WRIST,Study2,S,140,167,Study,User,-,,Study/JOL,"Study Phase2",2067,,,-1,-1,,,,1
5f4f8e8f9213e9056223e128,1456df83rr,Nick_Dissertation_EX1,1,237,2020-10-24T10:36:32-07:00,1.435133934021,3,versionC_stim.csv,READVersionC.csv,"Read Version C","Dissertation, read only version C",FLIP,TURN,Study2,F,116,124,Study,User,-,,Study/JOL,"Study Phase2",1121,,,-1,-1,,,,1
5f4f8e8f9213e9056223e128,1456df83rr,Nick_Dissertation_EX1,1,238,2020-10-24T10:36:33-07:00,1.6766290664673,3,versionC_stim.csv,READVersionC.csv,"Read Version C","Dissertation, read only version C",TICK,FLEA,Study2,S,151,131,Study,User,-,,Study/JOL,"Study Phase2",1366,,,-1,-1,,,,1
5f4f8e8f9213e9056223e128,1456df83rr,Nick_Dissertation_EX1,1,239,2020-10-24T10:36:35-07:00,1.5716300010681,3,versionC_stim.csv,READVersionC.csv,"Read Version C","Dissertation, read only version C",STRAWBERRY,FRUIT,Study2,F,124,170,Study,User,-,,Study/JOL,"Study Phase2",1264,,,-1,-1,,,,1
5f4f8e8f9213e9056223e128,1456df83rr,Nick_Dissertation_EX1,1,240,2020-10-24T10:36:37-07:00,2.390202999115,3,versionC_stim.csv,READVersionC.csv,"Read Version C","Dissertation, read only version C",SEATBELT,SAFETY,Study2,S,147,152,Study,User,-,,Study/JOL,"Study Phase2",1927,,,-1,-1,,,,1
5f4f8e8f9213e9056223e128,1456df83rr,Nick_Dissertation_EX1,1,241,2020-10-24T10:36:39-07:00,1.9302821159363,3,versionC_stim.csv,READVersionC.csv,"Read Version C","Dissertation, read only version C",FAVORITE,BEST,Study2,F,125,173,Study,User,-,,Study/JOL,"Study Phase2",1613,,,-1,-1,,,,1
5f4f8e8f9213e9056223e128,1456df83rr,Nick_Dissertation_EX1,1,242,2020-10-24T10:36:41-07:00,1.9243898391724,3,versionC_stim.csv,READVersionC.csv,"Read Version C","Dissertation, read only version C",LOVE,AFFECTION,Study2,B,115,151,Study,User,-,,Study/JOL,"Study Phase2",1608,,,-1,-1,,,,1
5f4f8e8f9213e9056223e128,1456df83rr,Nick_Dissertation_EX1,1,243,2020-10-24T10:36:43-07:00,2.1243441104889,3,versionC_stim.csv,READVersionC.csv,"Read Version C","Dissertation, read only version C",END,ADJOURN,Study2,B,101,113,Study,User,-,,Study/JOL,"Study Phase2",1816,,,-1,-1,,,,1
5f4f8e8f9213e9056223e128,1456df83rr,Nick_Dissertation_EX1,1,244,2020-10-24T10:36:47-07:00,3.4581508636475,3,versionC_stim.csv,READVersionC.csv,"Read Version C","Dissertation, read only version C",OUNCE,BOTH,Study2,U,172,134,Study,User,-,,Study/JOL,"Study Phase2",3033,,,-1,-1,,,,1
5f4f8e8f9213e9056223e128,1456df83rr,Nick_Dissertation_EX1,1,245,2020-10-24T10:36:49-07:00,2.3850920200348,3,versionC_stim.csv,READVersionC.csv,"Read Version C","Dissertation, read only version C",CARBON,ELEMENT,Study2,S,141,158,Study,User,-,,Study/JOL,"Study Phase2",1843,,,-1,-1,,,,1
5f4f8e8f9213e9056223e128,1456df83rr,Nick_Dissertation_EX1,1,246,2020-10-24T10:36:51-07:00,2.0163350105286,3,versionC_stim.csv,READVersionC.csv,"Read Version C","Dissertation, read only version C",LONELY,ALONE,Study2,S,145,157,Study,User,-,,Study/JOL,"Study Phase2",1709,,,-1,-1,,,,1
5f4f8e8f9213e9056223e128,1456df83rr,Nick_Dissertation_EX1,1,247,2020-10-24T10:36:53-07:00,2.0960211753845,3,versionC_stim.csv,READVersionC.csv,"Read Version C","Dissertation, read only version C",CUT,CHOP,Study2,B,107,138,Study,User,-,,Study/JOL,"Study Phase2",1777,,,-1,-1,,,,1
5f4f8e8f9213e9056223e128,1456df83rr,Nick_Dissertation_EX1,1,248,2020-10-24T10:36:55-07:00,1.8348138332367,3,versionC_stim.csv,READVersionC.csv,"Read Version C","Dissertation, read only version C",TIE,SHOELACE,Study2,B,99,161,Study,User,-,,Study/JOL,"Study Phase2",1518,,,-1,-1,,,,1
5f4f8e8f9213e9056223e128,1456df83rr,Nick_Dissertation_EX1,1,249,2020-10-24T10:36:57-07:00,1.7564601898193,3,versionC_stim.csv,READVersionC.csv,"Read Version C","Dissertation, read only version C",SHAVE,RAZOR,Study2,S,136,132,Study,User,-,,Study/JOL,"Study Phase2",1445,,,-1,-1,,,,1
5f4f8e8f9213e9056223e128,1456df83rr,Nick_Dissertation_EX1,1,250,2020-10-24T10:36:59-07:00,2.4099328517914,3,versionC_stim.csv,READVersionC.csv,"Read Version C","Dissertation, read only version C",BREAKABLE,GLASS,Study2,F,127,159,Study,User,-,,Study/JOL,"Study Phase2",1977,,,-1,-1,,,,1
5f4f8e8f9213e9056223e128,1456df83rr,Nick_Dissertation_EX1,1,251,2020-10-24T10:37:02-07:00,2.4458930492401,3,versionC_stim.csv,READVersionC.csv,"Read Version C","Dissertation, read only version C",CLOTHES,CAKE,Study2,U,166,112,Study,User,-,,Study/JOL,"Study Phase2",2019,,,-1,-1,,,,1
5f4f8e8f9213e9056223e128,1456df83rr,Nick_Dissertation_EX1,1,252,2020-10-24T10:37:04-07:00,2.3447768688202,3,versionC_stim.csv,READVersionC.csv,"Read Version C","Dissertation, read only version C",MAROON,JUSTICE,Study2,U,156,115,Study,User,-,,Study/JOL,"Study Phase2",1920,,,-1,-1,,,,1
5f4f8e8f9213e9056223e128,1456df83rr,Nick_Dissertation_EX1,1,253,2020-10-24T10:37:05-07:00,1.3595860004425,3,versionC_stim.csv,READVersionC.csv,"Read Version C","Dissertation, read only version C",MYSTERY,DETECTIVE,Study2,B,100,98,Study,User,-,,Study/JOL,"Study Phase2",1042,,,-1,-1,,,,1
5f4f8e8f9213e9056223e128,1456df83rr,Nick_Dissertation_EX1,1,254,2020-10-24T10:37:08-07:00,2.8760311603546,3,versionC_stim.csv,READVersionC.csv,"Read Version C","Dissertation, read only version C",LEAGUE,BASEBALL,Study2,F,131,148,Study,User,-,,Study/JOL,"Study Phase2",2441,,,-1,-1,,,,1
5f4f8e8f9213e9056223e128,1456df83rr,Nick_Dissertation_EX1,1,255,2020-10-24T10:37:10-07:00,1.6849780082703,3,versionC_stim.csv,READVersionC.csv,"Read Version C","Dissertation, read only version C",HATE,NAME,Study2,U,167,141,Study,User,-,,Study/JOL,"Study Phase2",1366,,,-1,-1,,,,1
5f4f8e8f9213e9056223e128,1456df83rr,Nick_Dissertation_EX1,1,256,2020-10-24T10:37:14-07:00,4.1941208839417,3,versionC_stim.csv,READVersionC.csv,"Read Version C","Dissertation, read only version C",AIRCRAFT,PLANE,Study2,F,129,110,Study,User,-,,Study/JOL,"Study Phase2",3750,,,-1,-1,,,,1
5f4f8e8f9213e9056223e128,1456df83rr,Nick_Dissertation_EX1,1,257,2020-10-24T10:37:16-07:00,1.4594860076904,3,versionC_stim.csv,READVersionC.csv,"Read Version C","Dissertation, read only version C",WET,DRY,Study2,S,146,130,Study,User,-,,Study/JOL,"Study Phase2",1147,,,-1,-1,,,,1
5f4f8e8f9213e9056223e128,1456df83rr,Nick_Dissertation_EX1,1,258,2020-10-24T10:37:18-07:00,2.0929629802704,3,versionC_stim.csv,READVersionC.csv,"Read Version C","Dissertation, read only version C",COMMUNICATION,PHONE,Study2,S,149,174,Study,User,-,,Study/JOL,"Study Phase2",1785,,,-1,-1,,,,1
5f4f8e8f9213e9056223e128,1456df83rr,Nick_Dissertation_EX1,1,259,2020-10-24T10:37:19-07:00,1.4839119911194,3,versionC_stim.csv,READVersionC.csv,"Read Version C","Dissertation, read only version C",THIMBLE,THREAD,Study2,F,121,176,Study,User,-,,Study/JOL,"Study Phase2",1168,,,-1,-1,,,,1
5f4f8e8f9213e9056223e128,1456df83rr,Nick_Dissertation_EX1,1,260,2020-10-24T10:37:21-07:00,1.7658860683441,3,versionC_stim.csv,READVersionC.csv,"Read Version C","Dissertation, read only version C",HAVE,OWN,Study2,S,153,137,Study,User,-,,Study/JOL,"Study Phase2",1455,,,-1,-1,,,,1
5f4f8e8f9213e9056223e128,1456df83rr,Nick_Dissertation_EX1,1,261,2020-10-24T10:37:26-07:00,5.4820170402527,3,versionC_stim.csv,READVersionC.csv,"Read Version C","Dissertation, read only version C",SHED,TOOL,BUFFER4,Buffer,178,178,Study,User,-,,Study/JOL,BUFFER4,5057,,,-1,-1,,,,1
5f4f8e8f9213e9056223e128,1456df83rr,Nick_Dissertation_EX1,1,262,2020-10-24T10:37:30-07:00,3.5236160755157,3,versionC_stim.csv,READVersionC.csv,"Read Version C","Dissertation, read only version C",SPOOKY,OCTOBER,BUFFER4,Buffer,180,177,Study,User,-,,Study/JOL,BUFFER4,3093,,,-1,-1,,,,1
5f4f8e8f9213e9056223e128,1456df83rr,Nick_Dissertation_EX1,1,263,2020-10-24T10:37:35-07:00,4.8723928928375,3,versionC_stim.csv,READVersionC.csv,"Read Version C","Dissertation, read only version C",WEAKS,DAYS,BUFFER4,Buffer,176,180,Study,User,-,,Study/JOL,BUFFER4,4439,,,-1,-1,,,,1
5f4f8e8f9213e9056223e128,1456df83rr,Nick_Dissertation_EX1,1,264,2020-10-24T10:37:37-07:00,1.7178549766541,3,versionC_stim.csv,READVersionC.csv,"Read Version C","Dissertation, read only version C",YEAR,MONTH,BUFFER4,Buffer,177,181,Study,User,-,,Study/JOL,BUFFER4,1408,,,-1,-1,,,,1
5f4f8e8f9213e9056223e128,1456df83rr,Nick_Dissertation_EX1,1,265,2020-10-24T10:37:38-07:00,1.7613990306854,3,versionC_stim.csv,READVersionC.csv,"Read Version C","Dissertation, read only version C",MARCH,SPRING,BUFFER4,Buffer,179,179,Study,User,-,,Study/JOL,BUFFER4,1452,,,-1,-1,,,,1
5f4f8e8f9213e9056223e128,1456df83rr,Nick_Dissertation_EX1,1,266,2020-10-24T10:37:39-07:00,1.112242937088,3,versionC_stim.csv,READVersionC.csv,"Read Version C","Dissertation, read only version C",,,,,,0,Instruct,User,-,"You have completed this section. Please press Enter.",Filler_Instruction,Instruct5,802,,,-1,-1,,,,1
5f4f8e8f9213e9056223e128,1456df83rr,Nick_Dissertation_EX1,1,267,2020-10-24T10:39:40-07:00,120.43530607224,3,versionC_stim.csv,READVersionC.csv,"Read Version C","Dissertation, read only version C",,,,,,0,FreeRecall,120,120,"Please list the 50 US states in reverse alphabetical order (z - a). The task will automatically advance to the next screen after two minutes.",,Filler2,120001,"South Dakota Texas North Dakota New York New Mexico Nevada Maryland Maine Hawaii Florida California Alaska Alabama ",0,4254,108529,0,0,,1
5f4f8e8f9213e9056223e128,1456df83rr,Nick_Dissertation_EX1,1,268,2020-10-24T10:39:58-07:00,17.698770046234,3,versionC_stim.csv,READVersionC.csv,"Read Version C","Dissertation, read only version C",,,,,,0,Instruct,-,10,"You will now be presented with the first word from each of the previously studied item pairs. Please type the missing word. If you do not know the word, you may guess or press Enter to skip forward to the next pair.",,Instruct6,17262,,,-1,-1,,,,1
5f4f8e8f9213e9056223e128,1456df83rr,Nick_Dissertation_EX1,1,269,2020-10-24T10:40:01-07:00,3.7662999629974,3,versionC_stim.csv,READVersionC.csv,"Read Version C","Dissertation, read only version C",LONELY,ALONE,Study2,S,145,157,Test,User,-,,Recall,Recall2,3331,ALONE,100,1405,3180,1,1,,1
5f4f8e8f9213e9056223e128,1456df83rr,Nick_Dissertation_EX1,1,270,2020-10-24T10:40:04-07:00,3.157341003418,3,versionC_stim.csv,READVersionC.csv,"Read Version C","Dissertation, read only version C",BANG,FUZZY,Study2,U,168,136,Test,User,-,,Recall,Recall2,2722,,0,-1,-1,0,0,,1
5f4f8e8f9213e9056223e128,1456df83rr,Nick_Dissertation_EX1,1,271,2020-10-24T10:40:11-07:00,6.5393269062042,3,versionC_stim.csv,READVersionC.csv,"Read Version C","Dissertation, read only version C",MYSTERY,DETECTIVE,Study2,B,100,98,Test,User,-,,Recall,Recall2,6112,DETECTIVE,100,2576,5973,1,1,,1
5f4f8e8f9213e9056223e128,1456df83rr,Nick_Dissertation_EX1,1,272,2020-10-24T10:40:14-07:00,2.8126060962677,3,versionC_stim.csv,READVersionC.csv,"Read Version C","Dissertation, read only version C",COMMUNICATION,PHONE,Study2,S,149,174,Test,User,-,,Recall,Recall2,2376,KEY,25,1858,2099,0,0,,1
5f4f8e8f9213e9056223e128,1456df83rr,Nick_Dissertation_EX1,1,273,2020-10-24T10:40:16-07:00,1.9281408786774,3,versionC_stim.csv,READVersionC.csv,"Read Version C","Dissertation, read only version C",DOG,FURRY,Study2,B,102,117,Test,User,-,,Recall,Recall2,1604,FURRY,100,998,1354,1,1,,1
5f4f8e8f9213e9056223e128,1456df83rr,Nick_Dissertation_EX1,1,274,2020-10-24T10:40:20-07:00,4.7162201404572,3,versionC_stim.csv,READVersionC.csv,"Read Version C","Dissertation, read only version C",STEAK,GIVE,Study2,U,158,97,Test,User,-,,Recall,Recall2,4286,,0,-1,-1,0,0,,1
5f4f8e8f9213e9056223e128,1456df83rr,Nick_Dissertation_EX1,1,275,2020-10-24T10:40:24-07:00,3.4844620227814,3,versionC_stim.csv,READVersionC.csv,"Read Version C","Dissertation, read only version C",EAT,DINE,Study2,B,111,125,Test,User,-,,Recall,Recall2,3050,,0,-1,-1,0,0,,1
5f4f8e8f9213e9056223e128,1456df83rr,Nick_Dissertation_EX1,1,276,2020-10-24T10:40:26-07:00,2.5137338638306,3,versionC_stim.csv,READVersionC.csv,"Read Version C","Dissertation, read only version C",SHAVE,RAZOR,Study2,S,136,132,Test,User,-,,Recall,Recall2,2087,RAZOR,100,965,1868,1,1,,1
5f4f8e8f9213e9056223e128,1456df83rr,Nick_Dissertation_EX1,1,277,2020-10-24T10:40:30-07:00,3.2424731254578,3,versionC_stim.csv,READVersionC.csv,"Read Version C","Dissertation, read only version C",SCISSORS,SHEARS,Study2,B,112,156,Test,User,-,,Recall,Recall2,2811,SHEARS,100,1834,2638,1,1,,1
5f4f8e8f9213e9056223e128,1456df83rr,Nick_Dissertation_EX1,1,278,2020-10-24T10:40:32-07:00,2.4305689334869,3,versionC_stim.csv,READVersionC.csv,"Read Version C","Dissertation, read only version C",CAR,DRIVER,Study2,B,106,127,Test,User,-,,Recall,Recall2,1998,DRIVER,100,1244,1876,1,1,,1
5f4f8e8f9213e9056223e128,1456df83rr,Nick_Dissertation_EX1,1,279,2020-10-24T10:40:34-07:00,1.9598190784454,3,versionC_stim.csv,READVersionC.csv,"Read Version C","Dissertation, read only version C",GAME,CLUE,Study2,B,97,103,Test,User,-,,Recall,Recall2,1643,CLUE,100,1245,1514,1,1,,1
5f4f8e8f9213e9056223e128,1456df83rr,Nick_Dissertation_EX1,1,280,2020-10-24T10:40:50-07:00,15.734652042389,3,versionC_stim.csv,READVersionC.csv,"Read Version C","Dissertation, read only version C",FICTION,LISTEN,Study2,U,164,150,Test,User,-,,Recall,Recall2,15305,READABLE,14.285714285714,13008,14904,0,0,,1
5f4f8e8f9213e9056223e128,1456df83rr,Nick_Dissertation_EX1,1,281,2020-10-24T10:40:52-07:00,2.5006458759308,3,versionC_stim.csv,READVersionC.csv,"Read Version C","Dissertation, read only version C",SMELL,INCENSE,Study2,B,110,155,Test,User,-,,Recall,Recall2,2054,,0,-1,-1,0,0,,1
5f4f8e8f9213e9056223e128,1456df83rr,Nick_Dissertation_EX1,1,282,2020-10-24T10:40:55-07:00,2.931184053421,3,versionC_stim.csv,READVersionC.csv,"Read Version C","Dissertation, read only version C",CARBON,ELEMENT,Study2,S,141,158,Test,User,-,,Recall,Recall2,2496,ELEMENT,100,1210,2357,1,1,,1
5f4f8e8f9213e9056223e128,1456df83rr,Nick_Dissertation_EX1,1,283,2020-10-24T10:40:59-07:00,3.838525056839,3,versionC_stim.csv,READVersionC.csv,"Read Version C","Dissertation, read only version C",LOVE,AFFECTION,Study2,B,115,151,Test,User,-,,Recall,Recall2,3407,,0,2425,2425,0,0,,1
5f4f8e8f9213e9056223e128,1456df83rr,Nick_Dissertation_EX1,1,284,2020-10-24T10:41:01-07:00,1.5004298686981,3,versionC_stim.csv,READVersionC.csv,"Read Version C","Dissertation, read only version C",LONG,EXTENSION,Study2,B,96,128,Test,User,-,,Recall,Recall2,1182,,0,-1,-1,0,0,,1
5f4f8e8f9213e9056223e128,1456df83rr,Nick_Dissertation_EX1,1,285,2020-10-24T10:41:02-07:00,1.8096160888672,3,versionC_stim.csv,READVersionC.csv,"Read Version C","Dissertation, read only version C",AIRCRAFT,PLANE,Study2,F,129,110,Test,User,-,,Recall,Recall2,1493,PLANE,100,998,1358,1,1,,1
5f4f8e8f9213e9056223e128,1456df83rr,Nick_Dissertation_EX1,1,286,2020-10-24T10:41:05-07:00,2.8855090141296,3,versionC_stim.csv,READVersionC.csv,"Read Version C","Dissertation, read only version C",TICK,FLEA,Study2,S,151,131,Test,User,-,,Recall,Recall2,2455,FLEA,100,1828,2218,1,1,,1
5f4f8e8f9213e9056223e128,1456df83rr,Nick_Dissertation_EX1,1,287,2020-10-24T10:41:11-07:00,5.9000010490417,3,versionC_stim.csv,READVersionC.csv,"Read Version C","Dissertation, read only version C",SHAKE,Shell,Study2,U,163,100,Test,User,-,,Recall,Recall2,5472,,0,-1,-1,0,0,,1
5f4f8e8f9213e9056223e128,1456df83rr,Nick_Dissertation_EX1,1,288,2020-10-24T10:41:13-07:00,2.01238489151,3,versionC_stim.csv,READVersionC.csv,"Read Version C","Dissertation, read only version C",REEL,ROD,Study2,S,150,142,Test,User,-,,Recall,Recall2,1693,ROD,100,1232,1435,1,1,,1
5f4f8e8f9213e9056223e128,1456df83rr,Nick_Dissertation_EX1,1,289,2020-10-24T10:41:18-07:00,5.2784559726715,3,versionC_stim.csv,READVersionC.csv,"Read Version C","Dissertation, read only version C",RED,CHERRY,Study2,B,104,114,Test,User,-,,Recall,Recall2,4846,,0,-1,-1,0,0,,1
5f4f8e8f9213e9056223e128,1456df83rr,Nick_Dissertation_EX1,1,290,2020-10-24T10:41:22-07:00,3.1361260414124,3,versionC_stim.csv,READVersionC.csv,"Read Version C","Dissertation, read only version C",FLIP,TURN,Study2,F,116,124,Test,User,-,,Recall,Recall2,2707,,0,-1,-1,0,0,,1
5f4f8e8f9213e9056223e128,1456df83rr,Nick_Dissertation_EX1,1,291,2020-10-24T10:41:27-07:00,5.458811044693,3,versionC_stim.csv,READVersionC.csv,"Read Version C","Dissertation, read only version C",TIE,SHOELACE,Study2,B,99,161,Test,User,-,,Recall,Recall2,5022,SHOELACE,100,3964,4882,1,1,,1
5f4f8e8f9213e9056223e128,1456df83rr,Nick_Dissertation_EX1,1,292,2020-10-24T10:41:30-07:00,2.60142993927,3,versionC_stim.csv,READVersionC.csv,"Read Version C","Dissertation, read only version C",ACTRESS,STAR,Study2,F,120,145,Test,User,-,,Recall,Recall2,2172,STAR,100,1299,1852,1,1,,1
5f4f8e8f9213e9056223e128,1456df83rr,Nick_Dissertation_EX1,1,293,2020-10-24T10:41:34-07:00,4.3430819511414,3,versionC_stim.csv,READVersionC.csv,"Read Version C","Dissertation, read only version C",HATE,NAME,Study2,U,167,141,Test,User,-,,Recall,Recall2,3916,NAME,100,3467,3741,1,1,,1
5f4f8e8f9213e9056223e128,1456df83rr,Nick_Dissertation_EX1,1,294,2020-10-24T10:41:37-07:00,2.4841370582581,3,versionC_stim.csv,READVersionC.csv,"Read Version C","Dissertation, read only version C",BRAWL,FIGHT,Study2,F,135,101,Test,User,-,,Recall,Recall2,2047,FIGHT,100,1152,1490,1,1,,1
5f4f8e8f9213e9056223e128,1456df83rr,Nick_Dissertation_EX1,1,295,2020-10-24T10:41:39-07:00,2.8005080223083,3,versionC_stim.csv,READVersionC.csv,"Read Version C","Dissertation, read only version C",LIE,TRUTH,Study2,S,148,111,Test,User,-,,Recall,Recall2,2361,TRUTH,100,1640,2097,1,1,,1
5f4f8e8f9213e9056223e128,1456df83rr,Nick_Dissertation_EX1,1,296,2020-10-24T10:41:45-07:00,5.5964748859406,3,versionC_stim.csv,READVersionC.csv,"Read Version C","Dissertation, read only version C",FAVORITE,BEST,Study2,F,125,173,Test,User,-,,Recall,Recall2,5157,BEST,100,4595,4999,1,1,,1
5f4f8e8f9213e9056223e128,1456df83rr,Nick_Dissertation_EX1,1,297,2020-10-24T10:41:47-07:00,2.576122045517,3,versionC_stim.csv,READVersionC.csv,"Read Version C","Dissertation, read only version C",SCAR,MAIN,Study2,U,175,166,Test,User,-,,Recall,Recall2,2135,,0,-1,-1,0,0,,1
5f4f8e8f9213e9056223e128,1456df83rr,Nick_Dissertation_EX1,1,298,2020-10-24T10:41:49-07:00,1.894504070282,3,versionC_stim.csv,READVersionC.csv,"Read Version C","Dissertation, read only version C",REVENGE,EVEN,Study2,F,122,106,Test,User,-,,Recall,Recall2,1576,,0,-1,-1,0,0,,1
5f4f8e8f9213e9056223e128,1456df83rr,Nick_Dissertation_EX1,1,299,2020-10-24T10:41:51-07:00,1.9045360088348,3,versionC_stim.csv,READVersionC.csv,"Read Version C","Dissertation, read only version C",TOIL,LEASE,Study2,U,170,139,Test,User,-,,Recall,Recall2,1591,,0,-1,-1,0,0,,1
5f4f8e8f9213e9056223e128,1456df83rr,Nick_Dissertation_EX1,1,300,2020-10-24T10:41:54-07:00,2.3934378623962,3,versionC_stim.csv,READVersionC.csv,"Read Version C","Dissertation, read only version C",VILLAIN,BAD,Study2,F,118,99,Test,User,-,,Recall,Recall2,1930,,0,-1,-1,0,0,,1
5f4f8e8f9213e9056223e128,1456df83rr,Nick_Dissertation_EX1,1,301,2020-10-24T10:41:58-07:00,4.3479251861572,3,versionC_stim.csv,READVersionC.csv,"Read Version C","Dissertation, read only version C",DRINK,WATER,Study2,S,143,144,Test,User,-,,Recall,Recall2,3918,,0,-1,-1,0,0,,1
5f4f8e8f9213e9056223e128,1456df83rr,Nick_Dissertation_EX1,1,302,2020-10-24T10:42:02-07:00,3.5846738815308,3,versionC_stim.csv,READVersionC.csv,"Read Version C","Dissertation, read only version C",COLD,CHILL,Study2,B,114,165,Test,User,-,,Recall,Recall2,3143,,0,-1,-1,0,0,,1
5f4f8e8f9213e9056223e128,1456df83rr,Nick_Dissertation_EX1,1,303,2020-10-24T10:42:05-07:00,3.8611109256744,3,versionC_stim.csv,READVersionC.csv,"Read Version C","Dissertation, read only version C",HEAD,SCALP,Study2,B,105,168,Test,User,-,,Recall,Recall2,3426,,0,-1,-1,0,0,,1
5f4f8e8f9213e9056223e128,1456df83rr,Nick_Dissertation_EX1,1,304,2020-10-24T10:42:09-07:00,3.1213290691376,3,versionC_stim.csv,READVersionC.csv,"Read Version C","Dissertation, read only version C",PAPER,DOCUMENT,Study2,B,109,104,Test,User,-,,Recall,Recall2,2689,DOCUMENT,100,1624,2395,1,1,,1
5f4f8e8f9213e9056223e128,1456df83rr,Nick_Dissertation_EX1,1,305,2020-10-24T10:42:15-07:00,6.0350999832153,3,versionC_stim.csv,READVersionC.csv,"Read Version C","Dissertation, read only version C",LEAGUE,BASEBALL,Study2,F,131,148,Test,User,-,,Recall,Recall2,5601,,0,-1,-1,0,0,,1
5f4f8e8f9213e9056223e128,1456df83rr,Nick_Dissertation_EX1,1,306,2020-10-24T10:42:18-07:00,3.1525139808655,3,versionC_stim.csv,READVersionC.csv,"Read Version C","Dissertation, read only version C",BRACELET,WRIST,Study2,S,140,167,Test,User,-,,Recall,Recall2,2720,WRIST,100,982,2478,1,1,,1
5f4f8e8f9213e9056223e128,1456df83rr,Nick_Dissertation_EX1,1,307,2020-10-24T10:42:20-07:00,2.0152540206909,3,versionC_stim.csv,READVersionC.csv,"Read Version C","Dissertation, read only version C",DONKEY,MULE,Study2,B,108,120,Test,User,-,,Recall,Recall2,1698,MULE,100,997,1466,1,1,,1
5f4f8e8f9213e9056223e128,1456df83rr,Nick_Dissertation_EX1,1,308,2020-10-24T10:42:23-07:00,3.5153610706329,3,versionC_stim.csv,READVersionC.csv,"Read Version C","Dissertation, read only version C",TRUTHFUL,HONEST,Study2,F,133,143,Test,User,-,,Recall,Recall2,3083,HONESTY,92.307692307692,2011,2739,0,1,,1
5f4f8e8f9213e9056223e128,1456df83rr,Nick_Dissertation_EX1,1,309,2020-10-24T10:42:29-07:00,5.3783810138702,3,versionC_stim.csv,READVersionC.csv,"Read Version C","Dissertation, read only version C",NOISE,LOUD,Study2,S,152,172,Test,User,-,,Recall,Recall2,4946,,0,-1,-1,0,0,,1
5f4f8e8f9213e9056223e128,1456df83rr,Nick_Dissertation_EX1,1,310,2020-10-24T10:42:31-07:00,2.7110300064087,3,versionC_stim.csv,READVersionC.csv,"Read Version C","Dissertation, read only version C",PANTHER,CAT,Study2,F,126,109,Test,User,-,,Recall,Recall2,2261,JAGUAR,22.222222222222,1332,2001,0,0,,1
5f4f8e8f9213e9056223e128,1456df83rr,Nick_Dissertation_EX1,1,311,2020-10-24T10:42:34-07:00,2.1412868499756,3,versionC_stim.csv,READVersionC.csv,"Read Version C","Dissertation, read only version C",SARDINE,FISH,Study2,F,130,164,Test,User,-,,Recall,Recall2,1829,,0,-1,-1,0,0,,1
5f4f8e8f9213e9056223e128,1456df83rr,Nick_Dissertation_EX1,1,312,2020-10-24T10:42:37-07:00,3.8480451107025,3,versionC_stim.csv,READVersionC.csv,"Read Version C","Dissertation, read only version C",TRASH,LITTER,Study2,B,103,153,Test,User,-,,Recall,Recall2,3421,,0,-1,-1,0,0,,1
5f4f8e8f9213e9056223e128,1456df83rr,Nick_Dissertation_EX1,1,313,2020-10-24T10:42:53-07:00,15.455153942108,3,versionC_stim.csv,READVersionC.csv,"Read Version C","Dissertation, read only version C",HAVE,OWN,Study2,S,153,137,Test,User,-,,Recall,Recall2,15018,NICE,28.571428571429,12901,14580,0,0,,1
5f4f8e8f9213e9056223e128,1456df83rr,Nick_Dissertation_EX1,1,314,2020-10-24T10:42:55-07:00,1.9832921028137,3,versionC_stim.csv,READVersionC.csv,"Read Version C","Dissertation, read only version C",BALLOON,POP,Study2,F,123,129,Test,User,-,,Recall,Recall2,1652,POP,100,1185,1372,1,1,,1
5f4f8e8f9213e9056223e128,1456df83rr,Nick_Dissertation_EX1,1,315,2020-10-24T10:42:57-07:00,1.9428429603577,3,versionC_stim.csv,READVersionC.csv,"Read Version C","Dissertation, read only version C",JAR,MASON,Study2,S,138,119,Test,User,-,,Recall,Recall2,1624,MASON,100,975,1383,1,1,,1
5f4f8e8f9213e9056223e128,1456df83rr,Nick_Dissertation_EX1,1,316,2020-10-24T10:43:00-07:00,3.2122230529785,3,versionC_stim.csv,READVersionC.csv,"Read Version C","Dissertation, read only version C",Morning,TEMPERATURE,Study2,U,173,123,Test,User,-,,Recall,Recall2,2783,,0,-1,-1,0,0,,1
5f4f8e8f9213e9056223e128,1456df83rr,Nick_Dissertation_EX1,1,317,2020-10-24T10:43:04-07:00,3.8955838680267,3,versionC_stim.csv,READVersionC.csv,"Read Version C","Dissertation, read only version C",TAN,SUN,Study2,S,155,126,Test,User,-,,Recall,Recall2,3467,,0,-1,-1,0,0,,1
5f4f8e8f9213e9056223e128,1456df83rr,Nick_Dissertation_EX1,1,318,2020-10-24T10:43:06-07:00,2.3921179771423,3,versionC_stim.csv,READVersionC.csv,"Read Version C","Dissertation, read only version C",CUT,CHOP,Study2,B,107,138,Test,User,-,,Recall,Recall2,1918,CHOP,100,1221,1688,1,1,,1
5f4f8e8f9213e9056223e128,1456df83rr,Nick_Dissertation_EX1,1,319,2020-10-24T10:43:08-07:00,1.7385501861572,3,versionC_stim.csv,READVersionC.csv,"Read Version C","Dissertation, read only version C",WINDSHIELD,CAR,Study2,F,117,133,Test,User,-,,Recall,Recall2,1410,,0,-1,-1,0,0,,1
5f4f8e8f9213e9056223e128,1456df83rr,Nick_Dissertation_EX1,1,320,2020-10-24T10:43:14-07:00,5.853789806366,3,versionC_stim.csv,READVersionC.csv,"Read Version C","Dissertation, read only version C",SIGN,LOAN,Study2,U,171,122,Test,User,-,,Recall,Recall2,5420,,0,-1,-1,0,0,,1
5f4f8e8f9213e9056223e128,1456df83rr,Nick_Dissertation_EX1,1,321,2020-10-24T10:43:18-07:00,3.8983759880066,3,versionC_stim.csv,READVersionC.csv,"Read Version C","Dissertation, read only version C",PLANT,CACTUS,Study2,B,98,118,Test,User,-,,Recall,Recall2,3457,,0,-1,-1,0,0,,1
5f4f8e8f9213e9056223e128,1456df83rr,Nick_Dissertation_EX1,1,322,2020-10-24T10:43:21-07:00,3.004830121994,3,versionC_stim.csv,READVersionC.csv,"Read Version C","Dissertation, read only version C",BREAKABLE,GLASS,Study2,F,127,159,Test,User,-,,Recall,Recall2,2569,GLASS,100,1750,2319,1,1,,1
5f4f8e8f9213e9056223e128,1456df83rr,Nick_Dissertation_EX1,1,323,2020-10-24T10:43:23-07:00,2.1309299468994,3,versionC_stim.csv,READVersionC.csv,"Read Version C","Dissertation, read only version C",COFFIN,DEAD,Study2,F,128,108,Test,User,-,,Recall,Recall2,1807,,0,-1,-1,0,0,,1
5f4f8e8f9213e9056223e128,1456df83rr,Nick_Dissertation_EX1,1,324,2020-10-24T10:43:27-07:00,4.2004730701447,3,versionC_stim.csv,READVersionC.csv,"Read Version C","Dissertation, read only version C",EQUAL,RIGHTS,Study2,S,137,147,Test,User,-,,Recall,Recall2,3712,,0,-1,-1,0,0,,1
5f4f8e8f9213e9056223e128,1456df83rr,Nick_Dissertation_EX1,1,325,2020-10-24T10:43:29-07:00,1.8392238616943,3,versionC_stim.csv,READVersionC.csv,"Read Version C","Dissertation, read only version C",END,ADJOURN,Study2,B,101,113,Test,User,-,,Recall,Recall2,1513,,0,-1,-1,0,0,,1
5f4f8e8f9213e9056223e128,1456df83rr,Nick_Dissertation_EX1,1,326,2020-10-24T10:43:34-07:00,5.4254500865936,3,versionC_stim.csv,READVersionC.csv,"Read Version C","Dissertation, read only version C",CHILDREN,MIRROR,Study2,U,174,135,Test,User,-,,Recall,Recall2,4990,,0,-1,-1,0,0,,1
5f4f8e8f9213e9056223e128,1456df83rr,Nick_Dissertation_EX1,1,327,2020-10-24T10:43:37-07:00,2.8880219459534,3,versionC_stim.csv,READVersionC.csv,"Read Version C","Dissertation, read only version C",ELECTION,MAZE,Study2,U,159,175,Test,User,-,,Recall,Recall2,2455,VOTE,25,1814,2178,0,0,,1
5f4f8e8f9213e9056223e128,1456df83rr,Nick_Dissertation_EX1,1,328,2020-10-24T10:43:40-07:00,2.4404561519623,3,versionC_stim.csv,READVersionC.csv,"Read Version C","Dissertation, read only version C",CLOTH,STRETCH,Study2,U,157,169,Test,User,-,,Recall,Recall2,2000,,0,-1,-1,0,0,,1
5f4f8e8f9213e9056223e128,1456df83rr,Nick_Dissertation_EX1,1,329,2020-10-24T10:43:43-07:00,2.9383738040924,3,versionC_stim.csv,READVersionC.csv,"Read Version C","Dissertation, read only version C",CLOTHES,CAKE,Study2,U,166,112,Test,User,-,,Recall,Recall2,2491,,0,-1,-1,0,0,,1
5f4f8e8f9213e9056223e128,1456df83rr,Nick_Dissertation_EX1,1,330,2020-10-24T10:43:47-07:00,4.3062801361084,3,versionC_stim.csv,READVersionC.csv,"Read Version C","Dissertation, read only version C",PENGUIN,BIRD,Study2,F,119,107,Test,User,-,,Recall,Recall2,2870,,0,-1,-1,0,0,,1
5f4f8e8f9213e9056223e128,1456df83rr,Nick_Dissertation_EX1,1,331,2020-10-24T10:43:50-07:00,2.74285197258,3,versionC_stim.csv,READVersionC.csv,"Read Version C","Dissertation, read only version C",BANKER,MONEY,Study2,F,132,146,Test,User,-,,Recall,Recall2,2310,,0,-1,-1,0,0,,1
5f4f8e8f9213e9056223e128,1456df83rr,Nick_Dissertation_EX1,1,332,2020-10-24T10:43:54-07:00,4.1633100509644,3,versionC_stim.csv,READVersionC.csv,"Read Version C","Dissertation, read only version C",MAROON,JUSTICE,Study2,U,156,115,Test,User,-,,Recall,Recall2,3731,,0,-1,-1,0,0,,1
5f4f8e8f9213e9056223e128,1456df83rr,Nick_Dissertation_EX1,1,333,2020-10-24T10:43:57-07:00,3.1363580226898,3,versionC_stim.csv,READVersionC.csv,"Read Version C","Dissertation, read only version C",CLEAR,MOAT,Study2,U,169,121,Test,User,-,,Recall,Recall2,2692,,0,-1,-1,0,0,,1
5f4f8e8f9213e9056223e128,1456df83rr,Nick_Dissertation_EX1,1,334,2020-10-24T10:44:00-07:00,3.0264308452606,3,versionC_stim.csv,READVersionC.csv,"Read Version C","Dissertation, read only version C",GROUND,EARTH,Study2,S,144,105,Test,User,-,,Recall,Recall2,2586,,0,-1,-1,0,0,,1
5f4f8e8f9213e9056223e128,1456df83rr,Nick_Dissertation_EX1,1,335,2020-10-24T10:44:09-07:00,8.8003671169281,3,versionC_stim.csv,READVersionC.csv,"Read Version C","Dissertation, read only version C",FIGHT,FEUD,Study2,B,113,162,Test,User,-,,Recall,Recall2,8367,BRAWL,0,6787,8118,0,0,,1
5f4f8e8f9213e9056223e128,1456df83rr,Nick_Dissertation_EX1,1,336,2020-10-24T10:44:12-07:00,3.6843059062958,3,versionC_stim.csv,READVersionC.csv,"Read Version C","Dissertation, read only version C",CHARM,VEHICLE,Study2,U,160,160,Test,User,-,,Recall,Recall2,3245,,0,-1,-1,0,0,,1
5f4f8e8f9213e9056223e128,1456df83rr,Nick_Dissertation_EX1,1,337,2020-10-24T10:44:17-07:00,4.453770160675,3,versionC_stim.csv,READVersionC.csv,"Read Version C","Dissertation, read only version C",JOKE,KEYS,Study2,U,165,149,Test,User,-,,Recall,Recall2,4016,,0,-1,-1,0,0,,1
5f4f8e8f9213e9056223e128,1456df83rr,Nick_Dissertation_EX1,1,338,2020-10-24T10:44:20-07:00,3.3636648654938,3,versionC_stim.csv,READVersionC.csv,"Read Version C","Dissertation, read only version C",NAP,SLEEP,Study2,F,134,140,Test,User,-,,Recall,Recall2,2926,SLEEP,100,1518,2655,1,1,,1
5f4f8e8f9213e9056223e128,1456df83rr,Nick_Dissertation_EX1,1,339,2020-10-24T10:44:24-07:00,3.8042540550232,3,versionC_stim.csv,READVersionC.csv,"Read Version C","Dissertation, read only version C",WET,DRY,Study2,S,146,130,Test,User,-,,Recall,Recall2,3367,DRY,100,2630,2936,1,1,,1
5f4f8e8f9213e9056223e128,1456df83rr,Nick_Dissertation_EX1,1,340,2020-10-24T10:44:27-07:00,2.394660949707,3,versionC_stim.csv,READVersionC.csv,"Read Version C","Dissertation, read only version C",AWAY,GONE,Study2,S,142,116,Test,User,-,,Recall,Recall2,1917,GONE,100,1091,1595,1,1,,1
5f4f8e8f9213e9056223e128,1456df83rr,Nick_Dissertation_EX1,1,341,2020-10-24T10:44:31-07:00,4.1243889331818,3,versionC_stim.csv,READVersionC.csv,"Read Version C","Dissertation, read only version C",THIMBLE,THREAD,Study2,F,121,176,Test,User,-,,Recall,Recall2,3697,THUMB,36.363636363636,1228,3285,0,0,,1
5f4f8e8f9213e9056223e128,1456df83rr,Nick_Dissertation_EX1,1,342,2020-10-24T10:44:34-07:00,3.254646062851,3,versionC_stim.csv,READVersionC.csv,"Read Version C","Dissertation, read only version C",SEATBELT,SAFETY,Study2,S,147,152,Test,User,-,,Recall,Recall2,2813,SAFETY,100,1494,2492,1,1,,1
5f4f8e8f9213e9056223e128,1456df83rr,Nick_Dissertation_EX1,1,343,2020-10-24T10:44:37-07:00,2.8156099319458,3,versionC_stim.csv,READVersionC.csv,"Read Version C","Dissertation, read only version C",STRAWBERRY,FRUIT,Study2,F,124,170,Test,User,-,,Recall,Recall2,2381,FRUIT,100,1437,2113,1,1,,1
5f4f8e8f9213e9056223e128,1456df83rr,Nick_Dissertation_EX1,1,344,2020-10-24T10:44:41-07:00,4.1593370437622,3,versionC_stim.csv,READVersionC.csv,"Read Version C","Dissertation, read only version C",OUNCE,BOTH,Study2,U,172,134,Test,User,-,,Recall,Recall2,3724,BOTH,100,1700,3189,1,1,,1
5f4f8e8f9213e9056223e128,1456df83rr,Nick_Dissertation_EX1,1,345,2020-10-24T10:44:45-07:00,4.0878219604492,3,versionC_stim.csv,READVersionC.csv,"Read Version C","Dissertation, read only version C",WAX,CANDLE,Study2,S,139,102,Test,User,-,,Recall,Recall2,3646,CANDLE,100,1109,3214,1,1,,1
5f4f8e8f9213e9056223e128,1456df83rr,Nick_Dissertation_EX1,1,346,2020-10-24T10:44:48-07:00,2.7701010704041,3,versionC_stim.csv,READVersionC.csv,"Read Version C","Dissertation, read only version C",OBTAIN,MEAT,Study2,U,161,163,Test,User,-,,Recall,Recall2,2333,,0,-1,-1,0,0,,1
5f4f8e8f9213e9056223e128,1456df83rr,Nick_Dissertation_EX1,1,347,2020-10-24T10:44:50-07:00,2.4041640758514,3,versionC_stim.csv,READVersionC.csv,"Read Version C","Dissertation, read only version C",ABLE,CRACKLE,Study2,U,162,171,Test,User,-,,Recall,Recall2,1971,,0,-1,-1,0,0,,1
5f4f8e8f9213e9056223e128,1456df83rr,Nick_Dissertation_EX1,1,348,2020-10-24T10:44:54-07:00,3.6887969970703,3,versionC_stim.csv,READVersionC.csv,"Read Version C","Dissertation, read only version C",TEMPER,TANTRUM,Study2,S,154,154,Test,User,-,,Recall,Recall2,3247,TANTRUM,100,1125,2872,1,1,,1
5f4f8e8f9213e9056223e128,1456df83rr,Nick_Dissertation_EX1,1,349,2020-10-24T10:44:55-07:00,1.5799448490143,3,versionC_stim.csv,READVersionC.csv,"Read Version C","Dissertation, read only version C",,,,,,0,Instruct,User,-,"You have completed this section. Please press Enter.",,Instruct7,1266,,,-1,-1,,,,1
5f4f8e8f9213e9056223e128,1456df83rr,Nick_Dissertation_EX1,1,350,2020-10-24T10:44:57-07:00,1.9783041477203,3,versionC_stim.csv,READVersionC.csv,"Read Version C","Dissertation, read only version C",,,,,,0,Instruct,User,-,"The following screen will ask you a few questions abour your experience today. You must complete these questions to receive credit.",,Instruct8,1655,,,-1,-1,,,,1
