Username,ID,ExperimentName,Session,Trial,Date,TimeDif,"Condition Number","Stimuli File","Order File","Condition Description","Condition Notes",Stimuli*Cue,Stimuli*Answer,Stimuli*Shuffle,"Stimuli*Stimuli Notes",Stimuli*Value,Procedure*Item,"Procedure*Trial Type","Procedure*Max Time","Procedure*Min Time",Procedure*Text,"Procedure*Procedure Notes",Procedure*Shuffle,Response*RT,Response*Response,Response*Accuracy,Response*RTfirst,Response*RTlast,Response*strictAcc,Response*lenientAcc,Response*focus,Response*Focus
5f8f54f056dee01a45a09147,8yqu7u2lwa,Nick_Dissertation_EX1,1,1,2020-10-24T12:16:50-07:00,13.724714994431,2,versionA_stim.csv,READVersionB.csv,"Read Version B","Dissertation, read only version B",,,,,,0,Instruct,-,10,"Please study each of the following word pairs. Remember that your memory will be tested! When finished, press Enter to move to the next pair.",Initial_Instruct,Instruct1,13345,,,-1,-1,,,,1
5f8f54f056dee01a45a09147,8yqu7u2lwa,Nick_Dissertation_EX1,1,2,2020-10-24T12:16:55-07:00,5.3316121101379,2,versionA_stim.csv,READVersionB.csv,"Read Version B","Dissertation, read only version B",NOODLE,STRING,BUFFER3,Buffer,92,94,Study,User,-,,Study/JOL,BUFFER,4976,,,-1,-1,,,,1
5f8f54f056dee01a45a09147,8yqu7u2lwa,Nick_Dissertation_EX1,1,3,2020-10-24T12:17:00-07:00,4.6786649227142,2,versionA_stim.csv,READVersionB.csv,"Read Version B","Dissertation, read only version B",CAMP,ADVENTURE,BUFFER3,Buffer,95,92,Study,User,-,,Study/JOL,BUFFER,4131,,,-1,-1,,,,1
5f8f54f056dee01a45a09147,8yqu7u2lwa,Nick_Dissertation_EX1,1,4,2020-10-24T12:17:03-07:00,3.7982621192932,2,versionA_stim.csv,READVersionB.csv,"Read Version B","Dissertation, read only version B",ICE,FROZEN,BUFFER3,Buffer,94,95,Study,User,-,,Study/JOL,BUFFER,3475,,,-1,-1,,,,1
5f8f54f056dee01a45a09147,8yqu7u2lwa,Nick_Dissertation_EX1,1,5,2020-10-24T12:17:08-07:00,4.3751258850098,2,versionA_stim.csv,READVersionB.csv,"Read Version B","Dissertation, read only version B",CARROT,POTATO,BUFFER3,Buffer,91,96,Study,User,-,,Study/JOL,BUFFER,3897,,,-1,-1,,,,1
5f8f54f056dee01a45a09147,8yqu7u2lwa,Nick_Dissertation_EX1,1,6,2020-10-24T12:17:11-07:00,2.7739210128784,2,versionA_stim.csv,READVersionB.csv,"Read Version B","Dissertation, read only version B",SHRIMP,FISH,BUFFER3,Buffer,93,93,Study,User,-,,Study/JOL,BUFFER,2440,,,-1,-1,,,,1
5f8f54f056dee01a45a09147,8yqu7u2lwa,Nick_Dissertation_EX1,1,7,2020-10-24T12:17:15-07:00,4.3782460689545,2,versionA_stim.csv,READVersionB.csv,"Read Version B","Dissertation, read only version B",BIRD,PENGUIN,Study2,B,119,100,Study,User,-,,Study/JOL,"Study Phase",3998,,,-1,-1,,,,1
5f8f54f056dee01a45a09147,8yqu7u2lwa,Nick_Dissertation_EX1,1,8,2020-10-24T12:17:21-07:00,6.0748689174652,2,versionA_stim.csv,READVersionB.csv,"Read Version B","Dissertation, read only version B",FRUIT,STRAWBERRY,Study2,B,124,113,Study,User,-,,Study/JOL,"Study Phase",5594,,,-1,-1,,,,1
5f8f54f056dee01a45a09147,8yqu7u2lwa,Nick_Dissertation_EX1,1,9,2020-10-24T12:17:28-07:00,6.4528031349182,2,versionA_stim.csv,READVersionB.csv,"Read Version B","Dissertation, read only version B",STRETCH,CLOTH,Study2,U,157,141,Study,User,-,,Study/JOL,"Study Phase",5947,,,-1,-1,,,,1
5f8f54f056dee01a45a09147,8yqu7u2lwa,Nick_Dissertation_EX1,1,10,2020-10-24T12:17:33-07:00,5.3869178295135,2,versionA_stim.csv,READVersionB.csv,"Read Version B","Dissertation, read only version B",CAT,PANTHER,Study2,B,126,149,Study,User,-,,Study/JOL,"Study Phase",5079,,,-1,-1,,,,1
5f8f54f056dee01a45a09147,8yqu7u2lwa,Nick_Dissertation_EX1,1,11,2020-10-24T12:17:38-07:00,5.4024980068207,2,versionA_stim.csv,READVersionB.csv,"Read Version B","Dissertation, read only version B",KEYS,JOKE,Study2,U,165,174,Study,User,-,,Study/JOL,"Study Phase",4952,,,-1,-1,,,,1
5f8f54f056dee01a45a09147,8yqu7u2lwa,Nick_Dissertation_EX1,1,12,2020-10-24T12:17:45-07:00,6.917414188385,2,versionA_stim.csv,READVersionB.csv,"Read Version B","Dissertation, read only version B",MEAT,OBTAIN,Study2,U,161,173,Study,User,-,,Study/JOL,"Study Phase",6592,,,-1,-1,,,,1
5f8f54f056dee01a45a09147,8yqu7u2lwa,Nick_Dissertation_EX1,1,13,2020-10-24T12:17:58-07:00,12.50782084465,2,versionA_stim.csv,READVersionB.csv,"Read Version B","Dissertation, read only version B",EARTH,GROUND,Study2,S,144,160,Study,User,-,,Study/JOL,"Study Phase",12149,,,-1,-1,,,,0.643
5f8f54f056dee01a45a09147,8yqu7u2lwa,Nick_Dissertation_EX1,1,14,2020-10-24T12:18:05-07:00,7.6092431545258,2,versionA_stim.csv,READVersionB.csv,"Read Version B","Dissertation, read only version B",CAR,WINDSHIELD,Study2,B,117,168,Study,User,-,,Study/JOL,"Study Phase",2421,,,-1,-1,,,,1
5f8f54f056dee01a45a09147,8yqu7u2lwa,Nick_Dissertation_EX1,1,15,2020-10-24T12:18:08-07:00,2.9599289894104,2,versionA_stim.csv,READVersionB.csv,"Read Version B","Dissertation, read only version B",POP,BALLOON,Study2,B,123,151,Study,User,-,,Study/JOL,"Study Phase",2304,,,-1,-1,,,,1
5f8f54f056dee01a45a09147,8yqu7u2lwa,Nick_Dissertation_EX1,1,16,2020-10-24T12:18:11-07:00,2.5923919677734,2,versionA_stim.csv,READVersionB.csv,"Read Version B","Dissertation, read only version B",PHONE,COMMUNICATION,Study2,S,149,137,Study,User,-,,Study/JOL,"Study Phase",1933,,,-1,-1,,,,1
5f8f54f056dee01a45a09147,8yqu7u2lwa,Nick_Dissertation_EX1,1,17,2020-10-24T12:18:14-07:00,2.7962260246277,2,versionA_stim.csv,READVersionB.csv,"Read Version B","Dissertation, read only version B",MONEY,BANKER,Study2,B,132,172,Study,User,-,,Study/JOL,"Study Phase",2412,,,-1,-1,,,,1
5f8f54f056dee01a45a09147,8yqu7u2lwa,Nick_Dissertation_EX1,1,18,2020-10-24T12:18:16-07:00,2.3919479846954,2,versionA_stim.csv,READVersionB.csv,"Read Version B","Dissertation, read only version B",CHERRY,RED,Study2,F,104,98,Study,User,-,,Study/JOL,"Study Phase",1954,,,-1,-1,,,,1
5f8f54f056dee01a45a09147,8yqu7u2lwa,Nick_Dissertation_EX1,1,19,2020-10-24T12:18:21-07:00,4.9586408138275,2,versionA_stim.csv,READVersionB.csv,"Read Version B","Dissertation, read only version B",ROD,REEL,Study2,S,150,142,Study,User,-,,Study/JOL,"Study Phase",4183,,,-1,-1,,,,1
5f8f54f056dee01a45a09147,8yqu7u2lwa,Nick_Dissertation_EX1,1,20,2020-10-24T12:18:26-07:00,5.2181751728058,2,versionA_stim.csv,READVersionB.csv,"Read Version B","Dissertation, read only version B",CHOP,CUT,Study2,F,107,107,Study,User,-,,Study/JOL,"Study Phase",4822,,,-1,-1,,,,1
5f8f54f056dee01a45a09147,8yqu7u2lwa,Nick_Dissertation_EX1,1,21,2020-10-24T12:18:32-07:00,6.1744349002838,2,versionA_stim.csv,READVersionB.csv,"Read Version B","Dissertation, read only version B",DRIVER,CAR,Study2,F,106,176,Study,User,-,,Study/JOL,"Study Phase",5727,,,-1,-1,,,,1
5f8f54f056dee01a45a09147,8yqu7u2lwa,Nick_Dissertation_EX1,1,22,2020-10-24T12:18:35-07:00,2.4885709285736,2,versionA_stim.csv,READVersionB.csv,"Read Version B","Dissertation, read only version B",GIVE,STEAK,Study2,U,158,147,Study,User,-,,Study/JOL,"Study Phase",2153,,,-1,-1,,,,1
5f8f54f056dee01a45a09147,8yqu7u2lwa,Nick_Dissertation_EX1,1,23,2020-10-24T12:18:39-07:00,4.2966420650482,2,versionA_stim.csv,READVersionB.csv,"Read Version B","Dissertation, read only version B",CRACKLE,ABLE,Study2,U,162,165,Study,User,-,,Study/JOL,"Study Phase",3822,,,-1,-1,,,,1
5f8f54f056dee01a45a09147,8yqu7u2lwa,Nick_Dissertation_EX1,1,24,2020-10-24T12:18:42-07:00,2.2803640365601,2,versionA_stim.csv,READVersionB.csv,"Read Version B","Dissertation, read only version B",SAFETY,SEATBELT,Study2,S,147,152,Study,User,-,,Study/JOL,"Study Phase",1946,,,-1,-1,,,,1
5f8f54f056dee01a45a09147,8yqu7u2lwa,Nick_Dissertation_EX1,1,25,2020-10-24T12:18:44-07:00,2.0270190238953,2,versionA_stim.csv,READVersionB.csv,"Read Version B","Dissertation, read only version B",ALONE,LONELY,Study2,S,145,167,Study,User,-,,Study/JOL,"Study Phase",1710,,,-1,-1,,,,1
5f8f54f056dee01a45a09147,8yqu7u2lwa,Nick_Dissertation_EX1,1,26,2020-10-24T12:18:45-07:00,1.5271980762482,2,versionA_stim.csv,READVersionB.csv,"Read Version B","Dissertation, read only version B",FURRY,DOG,Study2,F,102,130,Study,User,-,,Study/JOL,"Study Phase",1209,,,-1,-1,,,,1
5f8f54f056dee01a45a09147,8yqu7u2lwa,Nick_Dissertation_EX1,1,27,2020-10-24T12:18:48-07:00,2.588241815567,2,versionA_stim.csv,READVersionB.csv,"Read Version B","Dissertation, read only version B",EVEN,REVENGE,Study2,B,122,164,Study,User,-,,Study/JOL,"Study Phase",2098,,,-1,-1,,,,1
5f8f54f056dee01a45a09147,8yqu7u2lwa,Nick_Dissertation_EX1,1,28,2020-10-24T12:18:49-07:00,1.6351280212402,2,versionA_stim.csv,READVersionB.csv,"Read Version B","Dissertation, read only version B",BEST,FAVORITE,Study2,B,125,131,Study,User,-,,Study/JOL,"Study Phase",1132,,,-1,-1,,,,1
5f8f54f056dee01a45a09147,8yqu7u2lwa,Nick_Dissertation_EX1,1,29,2020-10-24T12:18:52-07:00,2.2329921722412,2,versionA_stim.csv,READVersionB.csv,"Read Version B","Dissertation, read only version B",DOCUMENT,PAPER,Study2,F,109,150,Study,User,-,,Study/JOL,"Study Phase",1908,,,-1,-1,,,,1
5f8f54f056dee01a45a09147,8yqu7u2lwa,Nick_Dissertation_EX1,1,30,2020-10-24T12:18:53-07:00,1.8540079593658,2,versionA_stim.csv,READVersionB.csv,"Read Version B","Dissertation, read only version B",LOAN,SIGN,Study2,U,171,156,Study,User,-,,Study/JOL,"Study Phase",1510,,,-1,-1,,,,1
5f8f54f056dee01a45a09147,8yqu7u2lwa,Nick_Dissertation_EX1,1,31,2020-10-24T12:18:56-07:00,2.3804879188538,2,versionA_stim.csv,READVersionB.csv,"Read Version B","Dissertation, read only version B",MIRROR,CHILDREN,Study2,U,174,128,Study,User,-,,Study/JOL,"Study Phase",1850,,,-1,-1,,,,1
5f8f54f056dee01a45a09147,8yqu7u2lwa,Nick_Dissertation_EX1,1,32,2020-10-24T12:18:58-07:00,1.8853530883789,2,versionA_stim.csv,READVersionB.csv,"Read Version B","Dissertation, read only version B",GLASS,BREAKABLE,Study2,B,127,109,Study,User,-,,Study/JOL,"Study Phase",1451,,,-1,-1,,,,1
5f8f54f056dee01a45a09147,8yqu7u2lwa,Nick_Dissertation_EX1,1,33,2020-10-24T12:19:01-07:00,3.5535478591919,2,versionA_stim.csv,READVersionB.csv,"Read Version B","Dissertation, read only version B",EXTENSION,LONG,Study2,F,96,116,Study,User,-,,Study/JOL,"Study Phase",2992,,,-1,-1,,,,1
5f8f54f056dee01a45a09147,8yqu7u2lwa,Nick_Dissertation_EX1,1,34,2020-10-24T12:19:04-07:00,2.6976070404053,2,versionA_stim.csv,READVersionB.csv,"Read Version B","Dissertation, read only version B",MOAT,CLEAR,Study2,U,169,158,Study,User,-,,Study/JOL,"Study Phase",2315,,,-1,-1,,,,1
5f8f54f056dee01a45a09147,8yqu7u2lwa,Nick_Dissertation_EX1,1,35,2020-10-24T12:19:44-07:00,40.50598692894,2,versionA_stim.csv,READVersionB.csv,"Read Version B","Dissertation, read only version B",CAKE,CLOTHES,Study2,U,166,135,Study,User,-,,Study/JOL,"Study Phase",39967,,,-1,-1,,,,0.535
5f8f54f056dee01a45a09147,8yqu7u2lwa,Nick_Dissertation_EX1,1,36,2020-10-24T12:19:53-07:00,8.8163499832153,2,versionA_stim.csv,READVersionB.csv,"Read Version B","Dissertation, read only version B",LITTER,TRASH,Study2,F,103,162,Study,User,-,,Study/JOL,"Study Phase",8419,,,-1,-1,,,,1
5f8f54f056dee01a45a09147,8yqu7u2lwa,Nick_Dissertation_EX1,1,37,2020-10-24T12:19:58-07:00,4.8484420776367,2,versionA_stim.csv,READVersionB.csv,"Read Version B","Dissertation, read only version B",BOTH,OUNCE,Study2,U,172,114,Study,User,-,,Study/JOL,"Study Phase",2314,,,-1,-1,,,,1
5f8f54f056dee01a45a09147,8yqu7u2lwa,Nick_Dissertation_EX1,1,38,2020-10-24T12:20:00-07:00,2.0100040435791,2,versionA_stim.csv,READVersionB.csv,"Read Version B","Dissertation, read only version B",FUZZY,BANG,Study2,U,168,166,Study,User,-,,Study/JOL,"Study Phase",1432,,,-1,-1,,,,1
5f8f54f056dee01a45a09147,8yqu7u2lwa,Nick_Dissertation_EX1,1,39,2020-10-24T12:21:09-07:00,68.450041055679,2,versionA_stim.csv,READVersionB.csv,"Read Version B","Dissertation, read only version B",RAZOR,SHAVE,Study2,S,136,102,Study,User,-,,Study/JOL,"Study Phase",67951,,,-1,-1,,,,1
5f8f54f056dee01a45a09147,8yqu7u2lwa,Nick_Dissertation_EX1,1,40,2020-10-24T12:21:26-07:00,17.820230960846,2,versionA_stim.csv,READVersionB.csv,"Read Version B","Dissertation, read only version B",MULE,DONKEY,Study2,F,108,157,Study,User,-,,Study/JOL,"Study Phase",17314,,,-1,-1,,,,1
5f8f54f056dee01a45a09147,8yqu7u2lwa,Nick_Dissertation_EX1,1,41,2020-10-24T12:21:40-07:00,14.146943092346,2,versionA_stim.csv,READVersionB.csv,"Read Version B","Dissertation, read only version B",DETECTIVE,MYSTERY,Study2,F,100,106,Study,User,-,,Study/JOL,"Study Phase",13657,,,-1,-1,,,,1
5f8f54f056dee01a45a09147,8yqu7u2lwa,Nick_Dissertation_EX1,1,42,2020-10-24T12:21:53-07:00,12.375488996506,2,versionA_stim.csv,READVersionB.csv,"Read Version B","Dissertation, read only version B",TURN,FLIP,Study2,B,116,155,Study,User,-,,Study/JOL,"Study Phase",11771,,,-1,-1,,,,1
5f8f54f056dee01a45a09147,8yqu7u2lwa,Nick_Dissertation_EX1,1,43,2020-10-24T12:23:17-07:00,84.143629789352,2,versionA_stim.csv,READVersionB.csv,"Read Version B","Dissertation, read only version B",CHILL,COLD,Study2,F,114,133,Study,User,-,,Study/JOL,"Study Phase",83615,,,-1,-1,,,,1
5f8f54f056dee01a45a09147,8yqu7u2lwa,Nick_Dissertation_EX1,1,44,2020-10-24T12:23:18-07:00,1.409725189209,2,versionA_stim.csv,READVersionB.csv,"Read Version B","Dissertation, read only version B",WRIST,BRACELET,Study2,S,140,122,Study,User,-,,Study/JOL,"Study Phase",932,,,-1,-1,,,,1
5f8f54f056dee01a45a09147,8yqu7u2lwa,Nick_Dissertation_EX1,1,45,2020-10-24T12:23:57-07:00,38.703773975372,2,versionA_stim.csv,READVersionB.csv,"Read Version B","Dissertation, read only version B",RIGHTS,EQUAL,Study2,S,137,143,Study,User,-,,Study/JOL,"Study Phase",38374,,,-1,-1,,,,1
5f8f54f056dee01a45a09147,8yqu7u2lwa,Nick_Dissertation_EX1,1,46,2020-10-24T12:24:00-07:00,3.1137719154358,2,versionA_stim.csv,READVersionB.csv,"Read Version B","Dissertation, read only version B",TRUTH,LIE,Study2,S,148,139,Study,User,-,,Study/JOL,"Study Phase",2747,,,-1,-1,,,,1
5f8f54f056dee01a45a09147,8yqu7u2lwa,Nick_Dissertation_EX1,1,47,2020-10-24T12:24:02-07:00,1.3298029899597,2,versionA_stim.csv,READVersionB.csv,"Read Version B","Dissertation, read only version B",GONE,AWAY,Study2,S,142,163,Study,User,-,,Study/JOL,"Study Phase",990,,,-1,-1,,,,1
5f8f54f056dee01a45a09147,8yqu7u2lwa,Nick_Dissertation_EX1,1,48,2020-10-24T12:26:33-07:00,151.30458712578,2,versionA_stim.csv,READVersionB.csv,"Read Version B","Dissertation, read only version B",NAME,HATE,Study2,U,167,120,Study,User,-,,Study/JOL,"Study Phase",150881,,,-1,-1,,,,1
5f8f54f056dee01a45a09147,8yqu7u2lwa,Nick_Dissertation_EX1,1,49,2020-10-24T12:26:42-07:00,9.2159738540649,2,versionA_stim.csv,READVersionB.csv,"Read Version B","Dissertation, read only version B",STAR,ACTRESS,Study2,B,120,126,Study,User,-,,Study/JOL,"Study Phase",8765,,,8706,8706,,,,1
5f8f54f056dee01a45a09147,8yqu7u2lwa,Nick_Dissertation_EX1,1,50,2020-10-24T12:26:49-07:00,7.3574090003967,2,versionA_stim.csv,READVersionB.csv,"Read Version B","Dissertation, read only version B",BAD,VILLAIN,Study2,B,118,103,Study,User,-,,Study/JOL,"Study Phase",6897,,,6759,6759,,,,1
5f8f54f056dee01a45a09147,8yqu7u2lwa,Nick_Dissertation_EX1,1,51,2020-10-24T12:26:53-07:00,3.7099139690399,2,versionA_stim.csv,READVersionB.csv,"Read Version B","Dissertation, read only version B",LISTEN,FICTION,Study2,U,164,146,Study,User,-,,Study/JOL,"Study Phase",3295,,,3142,3142,,,,1
5f8f54f056dee01a45a09147,8yqu7u2lwa,Nick_Dissertation_EX1,1,52,2020-10-24T12:27:19-07:00,25.814488172531,2,versionA_stim.csv,READVersionB.csv,"Read Version B","Dissertation, read only version B",FIGHT,BRAWL,Study2,B,135,170,Study,User,-,,Study/JOL,"Study Phase",25514,,,-1,-1,,,,1
5f8f54f056dee01a45a09147,8yqu7u2lwa,Nick_Dissertation_EX1,1,53,2020-10-24T12:27:27-07:00,7.6200799942017,2,versionA_stim.csv,READVersionB.csv,"Read Version B","Dissertation, read only version B",ADJOURN,END,Study2,F,101,111,Study,User,-,,Study/JOL,"Study Phase",7302,,,-1,-1,,,,1
5f8f54f056dee01a45a09147,8yqu7u2lwa,Nick_Dissertation_EX1,1,54,2020-10-24T12:27:29-07:00,2.4675970077515,2,versionA_stim.csv,READVersionB.csv,"Read Version B","Dissertation, read only version B",MASON,JAR,Study2,S,138,136,Study,User,-,,Study/JOL,"Study Phase",2162,,,-1,-1,,,,1
5f8f54f056dee01a45a09147,8yqu7u2lwa,Nick_Dissertation_EX1,1,55,2020-10-24T12:27:43-07:00,14.147552013397,2,versionA_stim.csv,READVersionB.csv,"Read Version B","Dissertation, read only version B",FISH,SARDINE,Study2,B,130,159,Study,User,-,,Study/JOL,"Study Phase",13756,,,-1,-1,,,,1
5f8f54f056dee01a45a09147,8yqu7u2lwa,Nick_Dissertation_EX1,1,56,2020-10-24T12:27:55-07:00,11.54180598259,2,versionA_stim.csv,READVersionB.csv,"Read Version B","Dissertation, read only version B",FLEA,TICK,Study2,S,151,119,Study,User,-,,Study/JOL,"Study Phase",11131,,,11011,11011,,,,1
5f8f54f056dee01a45a09147,8yqu7u2lwa,Nick_Dissertation_EX1,1,57,2020-10-24T12:27:56-07:00,1.0531888008118,2,versionA_stim.csv,READVersionB.csv,"Read Version B","Dissertation, read only version B",BASEBALL,LEAGUE,Study2,B,131,101,Study,User,-,,Study/JOL,"Study Phase",704,,,565,565,,,,1
5f8f54f056dee01a45a09147,8yqu7u2lwa,Nick_Dissertation_EX1,1,58,2020-10-24T12:28:05-07:00,9.4956471920013,2,versionA_stim.csv,READVersionB.csv,"Read Version B","Dissertation, read only version B",WATER,DRINK,Study2,S,143,104,Study,User,-,,Study/JOL,"Study Phase",9178,,,9047,9047,,,,1
5f8f54f056dee01a45a09147,8yqu7u2lwa,Nick_Dissertation_EX1,1,59,2020-10-24T12:28:08-07:00,2.7042818069458,2,versionA_stim.csv,READVersionB.csv,"Read Version B","Dissertation, read only version B",DRY,WET,Study2,S,146,123,Study,User,-,,Study/JOL,"Study Phase",1851,,,1708,1709,,,,1
5f8f54f056dee01a45a09147,8yqu7u2lwa,Nick_Dissertation_EX1,1,60,2020-10-24T12:28:11-07:00,2.5158882141113,2,versionA_stim.csv,READVersionB.csv,"Read Version B","Dissertation, read only version B",THREAD,THIMBLE,Study2,B,121,117,Study,User,-,,Study/JOL,"Study Phase",2017,,,1917,1917,,,,1
5f8f54f056dee01a45a09147,8yqu7u2lwa,Nick_Dissertation_EX1,1,61,2020-10-24T12:28:16-07:00,5.7160339355469,2,versionA_stim.csv,READVersionB.csv,"Read Version B","Dissertation, read only version B",AFFECTION,LOVE,Study2,F,115,154,Study,User,-,,Study/JOL,"Study Phase",5133,,,-1,-1,,,,1
5f8f54f056dee01a45a09147,8yqu7u2lwa,Nick_Dissertation_EX1,1,62,2020-10-24T12:28:34-07:00,17.687314033508,2,versionA_stim.csv,READVersionB.csv,"Read Version B","Dissertation, read only version B",SCALP,HEAD,Study2,F,105,112,Study,User,-,,Study/JOL,"Study Phase",17349,,,17249,17249,,,,0.385
5f8f54f056dee01a45a09147,8yqu7u2lwa,Nick_Dissertation_EX1,1,63,2020-10-24T12:28:38-07:00,4.0001349449158,2,versionA_stim.csv,READVersionB.csv,"Read Version B","Dissertation, read only version B",MAZE,ELECTION,Study2,U,159,175,Study,User,-,,Study/JOL,"Study Phase",3643,,,3559,3559,,,,1
5f8f54f056dee01a45a09147,8yqu7u2lwa,Nick_Dissertation_EX1,1,64,2020-10-24T12:28:40-07:00,1.8568789958954,2,versionA_stim.csv,READVersionB.csv,"Read Version B","Dissertation, read only version B",PLANE,AIRCRAFT,Study2,B,129,169,Study,User,-,,Study/JOL,"Study Phase",1527,,,1386,1386,,,,1
5f8f54f056dee01a45a09147,8yqu7u2lwa,Nick_Dissertation_EX1,1,65,2020-10-24T12:28:46-07:00,6.6054749488831,2,versionA_stim.csv,READVersionB.csv,"Read Version B","Dissertation, read only version B",FEUD,FIGHT,Study2,F,113,118,Study,User,-,,Study/JOL,"Study Phase",6039,,,5942,5942,,,,1
5f8f54f056dee01a45a09147,8yqu7u2lwa,Nick_Dissertation_EX1,1,66,2020-10-24T12:28:51-07:00,4.6584379673004,2,versionA_stim.csv,READVersionB.csv,"Read Version B","Dissertation, read only version B",VEHICLE,CHARM,Study2,U,160,97,Study,User,-,,Study/JOL,"Study Phase",2712,,,-1,-1,,,,1
5f8f54f056dee01a45a09147,8yqu7u2lwa,Nick_Dissertation_EX1,1,67,2020-10-24T12:28:56-07:00,4.8192961215973,2,versionA_stim.csv,READVersionB.csv,"Read Version B","Dissertation, read only version B",ELEMENT,CARBON,Study2,S,141,110,Study,User,-,,Study/JOL,"Study Phase",4459,,,-1,-1,,,,1
5f8f54f056dee01a45a09147,8yqu7u2lwa,Nick_Dissertation_EX1,1,68,2020-10-24T12:28:58-07:00,1.9020400047302,2,versionA_stim.csv,READVersionB.csv,"Read Version B","Dissertation, read only version B",MAIN,SCAR,Study2,U,175,115,Study,User,-,,Study/JOL,"Study Phase",1559,,,-1,-1,,,,1
5f8f54f056dee01a45a09147,8yqu7u2lwa,Nick_Dissertation_EX1,1,69,2020-10-24T12:29:02-07:00,3.9148669242859,2,versionA_stim.csv,READVersionB.csv,"Read Version B","Dissertation, read only version B",SHOELACE,TIE,Study2,F,99,138,Study,User,-,,Study/JOL,"Study Phase",3575,,,3446,3447,,,,1
5f8f54f056dee01a45a09147,8yqu7u2lwa,Nick_Dissertation_EX1,1,70,2020-10-24T12:29:03-07:00,1.7266659736633,2,versionA_stim.csv,READVersionB.csv,"Read Version B","Dissertation, read only version B",SLEEP,NAP,Study2,B,134,161,Study,User,-,,Study/JOL,"Study Phase",1400,,,1277,1277,,,,1
5f8f54f056dee01a45a09147,8yqu7u2lwa,Nick_Dissertation_EX1,1,71,2020-10-24T12:29:06-07:00,2.3861200809479,2,versionA_stim.csv,READVersionB.csv,"Read Version B","Dissertation, read only version B",TEMPERATURE,Morning,Study2,U,173,145,Study,User,-,,Study/JOL,"Study Phase",2019,,,1936,1937,,,,1
5f8f54f056dee01a45a09147,8yqu7u2lwa,Nick_Dissertation_EX1,1,72,2020-10-24T12:29:08-07:00,2.300628900528,2,versionA_stim.csv,READVersionB.csv,"Read Version B","Dissertation, read only version B",TANTRUM,TEMPER,Study2,S,154,129,Study,User,-,,Study/JOL,"Study Phase",1859,,,1809,1809,,,,1
5f8f54f056dee01a45a09147,8yqu7u2lwa,Nick_Dissertation_EX1,1,73,2020-10-24T12:29:11-07:00,3.1882960796356,2,versionA_stim.csv,READVersionB.csv,"Read Version B","Dissertation, read only version B",LOUD,NOISE,Study2,S,152,125,Study,User,-,,Study/JOL,"Study Phase",2768,,,2684,2684,,,,1
5f8f54f056dee01a45a09147,8yqu7u2lwa,Nick_Dissertation_EX1,1,74,2020-10-24T12:29:13-07:00,1.4993329048157,2,versionA_stim.csv,READVersionB.csv,"Read Version B","Dissertation, read only version B",CANDLE,WAX,Study2,S,139,99,Study,User,-,,Study/JOL,"Study Phase",1191,,,1118,1118,,,,1
5f8f54f056dee01a45a09147,8yqu7u2lwa,Nick_Dissertation_EX1,1,75,2020-10-24T12:29:14-07:00,1.3944721221924,2,versionA_stim.csv,READVersionB.csv,"Read Version B","Dissertation, read only version B",DEAD,COFFIN,Study2,B,128,171,Study,User,-,,Study/JOL,"Study Phase",1059,,,990,990,,,,1
5f8f54f056dee01a45a09147,8yqu7u2lwa,Nick_Dissertation_EX1,1,76,2020-10-24T12:29:18-07:00,3.6554129123688,2,versionA_stim.csv,READVersionB.csv,"Read Version B","Dissertation, read only version B",INCENSE,SMELL,Study2,F,110,121,Study,User,-,,Study/JOL,"Study Phase",1259,,,1225,1225,,,,1
5f8f54f056dee01a45a09147,8yqu7u2lwa,Nick_Dissertation_EX1,1,77,2020-10-24T12:29:20-07:00,2.3786849975586,2,versionA_stim.csv,READVersionB.csv,"Read Version B","Dissertation, read only version B",SUN,TAN,Study2,S,155,124,Study,User,-,,Study/JOL,"Study Phase",1025,,,934,934,,,,1
5f8f54f056dee01a45a09147,8yqu7u2lwa,Nick_Dissertation_EX1,1,78,2020-10-24T12:30:11-07:00,50.870954990387,2,versionA_stim.csv,READVersionB.csv,"Read Version B","Dissertation, read only version B",Shell,SHAKE,Study2,U,163,144,Study,User,-,,Study/JOL,"Study Phase",50456,,,-1,-1,,,,0.352
5f8f54f056dee01a45a09147,8yqu7u2lwa,Nick_Dissertation_EX1,1,79,2020-10-24T12:30:13-07:00,1.586373090744,2,versionA_stim.csv,READVersionB.csv,"Read Version B","Dissertation, read only version B",CLUE,GAME,Study2,F,97,134,Study,User,-,,Study/JOL,"Study Phase",1253,,,1127,1127,,,,1
5f8f54f056dee01a45a09147,8yqu7u2lwa,Nick_Dissertation_EX1,1,80,2020-10-24T12:30:14-07:00,1.6142790317535,2,versionA_stim.csv,READVersionB.csv,"Read Version B","Dissertation, read only version B",CACTUS,PLANT,Study2,F,98,140,Study,User,-,,Study/JOL,"Study Phase",1260,,,1155,1155,,,,1
5f8f54f056dee01a45a09147,8yqu7u2lwa,Nick_Dissertation_EX1,1,81,2020-10-24T12:30:16-07:00,1.5760319232941,2,versionA_stim.csv,READVersionB.csv,"Read Version B","Dissertation, read only version B",SHEARS,SCISSORS,Study2,F,112,153,Study,User,-,,Study/JOL,"Study Phase",1217,,,1092,1092,,,,1
5f8f54f056dee01a45a09147,8yqu7u2lwa,Nick_Dissertation_EX1,1,82,2020-10-24T12:30:20-07:00,4.5805881023407,2,versionA_stim.csv,READVersionB.csv,"Read Version B","Dissertation, read only version B",LEASE,TOIL,Study2,U,170,127,Study,User,-,,Study/JOL,"Study Phase",4260,,,4206,4206,,,,1
5f8f54f056dee01a45a09147,8yqu7u2lwa,Nick_Dissertation_EX1,1,83,2020-10-24T12:30:22-07:00,1.9424660205841,2,versionA_stim.csv,READVersionB.csv,"Read Version B","Dissertation, read only version B",OWN,HAVE,Study2,S,153,132,Study,User,-,,Study/JOL,"Study Phase",1584,,,1435,1435,,,,1
5f8f54f056dee01a45a09147,8yqu7u2lwa,Nick_Dissertation_EX1,1,84,2020-10-24T12:30:32-07:00,10.070755004883,2,versionA_stim.csv,READVersionB.csv,"Read Version B","Dissertation, read only version B",HONEST,TRUTHFUL,Study2,B,133,108,Study,User,-,,Study/JOL,"Study Phase",8727,,,8566,8566,,,,1
5f8f54f056dee01a45a09147,8yqu7u2lwa,Nick_Dissertation_EX1,1,85,2020-10-24T12:30:34-07:00,1.8979549407959,2,versionA_stim.csv,READVersionB.csv,"Read Version B","Dissertation, read only version B",DINE,EAT,Study2,F,111,148,Study,User,-,,Study/JOL,"Study Phase",1438,,,1297,1298,,,,1
5f8f54f056dee01a45a09147,8yqu7u2lwa,Nick_Dissertation_EX1,1,86,2020-10-24T12:30:37-07:00,2.2570819854736,2,versionA_stim.csv,READVersionB.csv,"Read Version B","Dissertation, read only version B",JUSTICE,MAROON,Study2,U,156,105,Study,User,-,,Study/JOL,"Study Phase",1888,,,1756,1756,,,,1
5f8f54f056dee01a45a09147,8yqu7u2lwa,Nick_Dissertation_EX1,1,87,2020-10-24T12:30:54-07:00,16.956915855408,2,versionA_stim.csv,READVersionB.csv,"Read Version B","Dissertation, read only version B",MONTH,YEAR,BUFFER4,Buffer,177,179,Study,User,-,,Study/JOL,BUFFER2,16553,,,-1,-1,,,,1
5f8f54f056dee01a45a09147,8yqu7u2lwa,Nick_Dissertation_EX1,1,88,2020-10-24T12:30:54-07:00,0.8275580406189,2,versionA_stim.csv,READVersionB.csv,"Read Version B","Dissertation, read only version B",TOOL,SHED,BUFFER4,Buffer,178,177,Study,User,-,,Study/JOL,BUFFER2,466,,,362,362,,,,1
5f8f54f056dee01a45a09147,8yqu7u2lwa,Nick_Dissertation_EX1,1,89,2020-10-24T12:30:57-07:00,2.5749340057373,2,versionA_stim.csv,READVersionB.csv,"Read Version B","Dissertation, read only version B",OCTOBER,SPOOKY,BUFFER4,Buffer,180,178,Study,User,-,,Study/JOL,BUFFER2,1924,,,1871,1871,,,,1
5f8f54f056dee01a45a09147,8yqu7u2lwa,Nick_Dissertation_EX1,1,90,2020-10-24T12:30:59-07:00,1.7487680912018,2,versionA_stim.csv,READVersionB.csv,"Read Version B","Dissertation, read only version B",DAYS,WEAKS,BUFFER4,Buffer,176,180,Study,User,-,,Study/JOL,BUFFER2,1433,,,1386,1386,,,,1
5f8f54f056dee01a45a09147,8yqu7u2lwa,Nick_Dissertation_EX1,1,91,2020-10-24T12:31:07-07:00,8.3762130737305,2,versionA_stim.csv,READVersionB.csv,"Read Version B","Dissertation, read only version B",SPRING,MARCH,BUFFER4,Buffer,179,181,Study,User,-,,Study/JOL,BUFFER2,7978,,,-1,-1,,,,0.727
5f8f54f056dee01a45a09147,8yqu7u2lwa,Nick_Dissertation_EX1,1,92,2020-10-24T12:31:44-07:00,36.51159286499,2,versionA_stim.csv,READVersionB.csv,"Read Version B","Dissertation, read only version B",,,,,,0,Instruct,User,-,"You have completed this section. Please press Enter.",Filler_Instruction,Instruct2,36107,,,-1,-1,,,,0.458
5f8f54f056dee01a45a09147,8yqu7u2lwa,Nick_Dissertation_EX1,1,93,2020-10-24T12:33:44-07:00,120.79601407051,2,versionA_stim.csv,READVersionB.csv,"Read Version B","Dissertation, read only version B",,,,,,0,FreeRecall,120,120,"Please list the 50 US states in alphabetical order. The task will automatically advance to the next screen after two minutes.",,Filler1,120002,"Alabama Alaska Arkansas Kansas Kentucky Louisiana Mississppi Missouri New Jersey New York North Dekota Tennessee Virginia West Vir",0,7680,119385,0,0,,1
5f8f54f056dee01a45a09147,8yqu7u2lwa,Nick_Dissertation_EX1,1,94,2020-10-24T12:33:57-07:00,12.363983869553,2,versionA_stim.csv,READVersionB.csv,"Read Version B","Dissertation, read only version B",,,,,,0,Instruct,-,10,"You will now be presented with the first word from each of the previously studied item pairs. Please type the missing word. If you do not know the word, you may guess or press Enter to skip forward to the next pair.",,Instruct3,11019,,,-1,-1,,,,1
5f8f54f056dee01a45a09147,8yqu7u2lwa,Nick_Dissertation_EX1,1,95,2020-10-24T12:34:07-07:00,10.075558185577,2,versionA_stim.csv,READVersionB.csv,"Read Version B","Dissertation, read only version B",AFFECTION,LOVE,Study2,F,115,154,Test,User,-,,Recall,Recall1,9580," ",0,8250,8250,0,0,,1
5f8f54f056dee01a45a09147,8yqu7u2lwa,Nick_Dissertation_EX1,1,96,2020-10-24T12:34:13-07:00,6.0985479354858,2,versionA_stim.csv,READVersionB.csv,"Read Version B","Dissertation, read only version B",SLEEP,NAP,Study2,B,134,161,Test,User,-,,Recall,Recall1,5752,Wake,28.571428571429,2355,5288,0,0,,1
5f8f54f056dee01a45a09147,8yqu7u2lwa,Nick_Dissertation_EX1,1,97,2020-10-24T12:34:15-07:00,2.4035980701447,2,versionA_stim.csv,READVersionB.csv,"Read Version B","Dissertation, read only version B",GIVE,STEAK,Study2,U,158,147,Test,User,-,,Recall,Recall1,2075,,0,-1,-1,0,0,,1
5f8f54f056dee01a45a09147,8yqu7u2lwa,Nick_Dissertation_EX1,1,98,2020-10-24T12:34:20-07:00,4.5923669338226,2,versionA_stim.csv,READVersionB.csv,"Read Version B","Dissertation, read only version B",FRUIT,STRAWBERRY,Study2,B,124,113,Test,User,-,,Recall,Recall1,4294,Strawberry,100,1563,3789,1,1,,1
5f8f54f056dee01a45a09147,8yqu7u2lwa,Nick_Dissertation_EX1,1,99,2020-10-24T12:34:43-07:00,23.309082984924,2,versionA_stim.csv,READVersionB.csv,"Read Version B","Dissertation, read only version B",EXTENSION,LONG,Study2,F,96,116,Test,User,-,,Recall,Recall1,22990,,0,-1,-1,0,0,,1
5f8f54f056dee01a45a09147,8yqu7u2lwa,Nick_Dissertation_EX1,1,100,2020-10-24T12:34:49-07:00,5.3045139312744,2,versionA_stim.csv,READVersionB.csv,"Read Version B","Dissertation, read only version B",WATER,DRINK,Study2,S,143,104,Test,User,-,,Recall,Recall1,4948,,0,-1,-1,0,0,,1
5f8f54f056dee01a45a09147,8yqu7u2lwa,Nick_Dissertation_EX1,1,101,2020-10-24T12:34:55-07:00,6.0455210208893,2,versionA_stim.csv,READVersionB.csv,"Read Version B","Dissertation, read only version B",HONEST,TRUTHFUL,Study2,B,133,108,Test,User,-,,Recall,Recall1,5536,,0,-1,-1,0,0,,1
5f8f54f056dee01a45a09147,8yqu7u2lwa,Nick_Dissertation_EX1,1,102,2020-10-24T12:34:57-07:00,2.4769339561462,2,versionA_stim.csv,READVersionB.csv,"Read Version B","Dissertation, read only version B",BIRD,PENGUIN,Study2,B,119,100,Test,User,-,,Recall,Recall1,2126,,0,-1,-1,0,0,,1
5f8f54f056dee01a45a09147,8yqu7u2lwa,Nick_Dissertation_EX1,1,103,2020-10-24T12:35:03-07:00,5.7126400470734,2,versionA_stim.csv,READVersionB.csv,"Read Version B","Dissertation, read only version B",KEYS,JOKE,Study2,U,165,174,Test,User,-,,Recall,Recall1,5410,Joke,100,3776,4510,1,1,,1
5f8f54f056dee01a45a09147,8yqu7u2lwa,Nick_Dissertation_EX1,1,104,2020-10-24T12:35:08-07:00,4.9254789352417,2,versionA_stim.csv,READVersionB.csv,"Read Version B","Dissertation, read only version B",DEAD,COFFIN,Study2,B,128,171,Test,User,-,,Recall,Recall1,4450,coffin,100,2760,4044,1,1,,1
5f8f54f056dee01a45a09147,8yqu7u2lwa,Nick_Dissertation_EX1,1,105,2020-10-24T12:35:09-07:00,1.5770180225372,2,versionA_stim.csv,READVersionB.csv,"Read Version B","Dissertation, read only version B",CHILL,COLD,Study2,F,114,133,Test,User,-,,Recall,Recall1,1241,,0,-1,-1,0,0,,1
5f8f54f056dee01a45a09147,8yqu7u2lwa,Nick_Dissertation_EX1,1,106,2020-10-24T12:35:20-07:00,10.470180988312,2,versionA_stim.csv,READVersionB.csv,"Read Version B","Dissertation, read only version B",CAKE,CLOTHES,Study2,U,166,135,Test,User,-,,Recall,Recall1,10142,wake,18.181818181818,8626,9430,0,0,,1
5f8f54f056dee01a45a09147,8yqu7u2lwa,Nick_Dissertation_EX1,1,107,2020-10-24T12:35:26-07:00,6.0499660968781,2,versionA_stim.csv,READVersionB.csv,"Read Version B","Dissertation, read only version B",POP,BALLOON,Study2,B,123,151,Test,User,-,,Recall,Recall1,4181,soda,18.181818181818,2755,3677,0,0,,1
5f8f54f056dee01a45a09147,8yqu7u2lwa,Nick_Dissertation_EX1,1,108,2020-10-24T12:35:27-07:00,1.6050860881805,2,versionA_stim.csv,READVersionB.csv,"Read Version B","Dissertation, read only version B",SUN,TAN,Study2,S,155,124,Test,User,-,,Recall,Recall1,1210,,0,-1,-1,0,0,,1
5f8f54f056dee01a45a09147,8yqu7u2lwa,Nick_Dissertation_EX1,1,109,2020-10-24T12:35:41-07:00,13.906764984131,2,versionA_stim.csv,READVersionB.csv,"Read Version B","Dissertation, read only version B",LOAN,SIGN,Study2,U,171,156,Test,User,-,,Recall,Recall1,13577,,0,-1,-1,0,0,,1
5f8f54f056dee01a45a09147,8yqu7u2lwa,Nick_Dissertation_EX1,1,110,2020-10-24T12:35:43-07:00,1.6064260005951,2,versionA_stim.csv,READVersionB.csv,"Read Version B","Dissertation, read only version B",CHERRY,RED,Study2,F,104,98,Test,User,-,,Recall,Recall1,1015,,0,-1,-1,0,0,,1
5f8f54f056dee01a45a09147,8yqu7u2lwa,Nick_Dissertation_EX1,1,111,2020-10-24T12:35:47-07:00,3.639753818512,2,versionA_stim.csv,READVersionB.csv,"Read Version B","Dissertation, read only version B",FEUD,FIGHT,Study2,F,113,118,Test,User,-,,Recall,Recall1,3328,fight,100,2010,2894,1,1,,1
5f8f54f056dee01a45a09147,8yqu7u2lwa,Nick_Dissertation_EX1,1,112,2020-10-24T12:35:52-07:00,5.5705549716949,2,versionA_stim.csv,READVersionB.csv,"Read Version B","Dissertation, read only version B",DETECTIVE,MYSTERY,Study2,F,100,106,Test,User,-,,Recall,Recall1,5167,,0,-1,-1,0,0,,1
5f8f54f056dee01a45a09147,8yqu7u2lwa,Nick_Dissertation_EX1,1,113,2020-10-24T12:35:55-07:00,3.2987320423126,2,versionA_stim.csv,READVersionB.csv,"Read Version B","Dissertation, read only version B",CACTUS,PLANT,Study2,F,98,140,Test,User,-,,Recall,Recall1,2739,plant,100,1207,2259,1,1,,1
5f8f54f056dee01a45a09147,8yqu7u2lwa,Nick_Dissertation_EX1,1,114,2020-10-24T12:36:01-07:00,5.6155281066895,2,versionA_stim.csv,READVersionB.csv,"Read Version B","Dissertation, read only version B",ADJOURN,END,Study2,F,101,111,Test,User,-,,Recall,Recall1,5252,adorn,25,3044,4211,0,0,,1
5f8f54f056dee01a45a09147,8yqu7u2lwa,Nick_Dissertation_EX1,1,115,2020-10-24T12:36:14-07:00,13.24702000618,2,versionA_stim.csv,READVersionB.csv,"Read Version B","Dissertation, read only version B",MAZE,ELECTION,Study2,U,159,175,Test,User,-,,Recall,Recall1,12939,,0,3579,4568,0,0,,1
5f8f54f056dee01a45a09147,8yqu7u2lwa,Nick_Dissertation_EX1,1,116,2020-10-24T12:36:19-07:00,4.5931508541107,2,versionA_stim.csv,READVersionB.csv,"Read Version B","Dissertation, read only version B",SHOELACE,TIE,Study2,F,99,138,Test,User,-,,Recall,Recall1,4206,,0,-1,-1,0,0,,1
5f8f54f056dee01a45a09147,8yqu7u2lwa,Nick_Dissertation_EX1,1,117,2020-10-24T12:36:20-07:00,1.24134516716,2,versionA_stim.csv,READVersionB.csv,"Read Version B","Dissertation, read only version B",RAZOR,SHAVE,Study2,S,136,102,Test,User,-,,Recall,Recall1,894,,0,-1,-1,0,0,,1
5f8f54f056dee01a45a09147,8yqu7u2lwa,Nick_Dissertation_EX1,1,118,2020-10-24T12:36:23-07:00,3.0249400138855,2,versionA_stim.csv,READVersionB.csv,"Read Version B","Dissertation, read only version B",DOCUMENT,PAPER,Study2,F,109,150,Test,User,-,,Recall,Recall1,2683,paper,100,1177,2276,1,1,,1
5f8f54f056dee01a45a09147,8yqu7u2lwa,Nick_Dissertation_EX1,1,119,2020-10-24T12:36:25-07:00,1.4574589729309,2,versionA_stim.csv,READVersionB.csv,"Read Version B","Dissertation, read only version B",PLANE,AIRCRAFT,Study2,B,129,169,Test,User,-,,Recall,Recall1,1055,,0,-1,-1,0,0,,1
5f8f54f056dee01a45a09147,8yqu7u2lwa,Nick_Dissertation_EX1,1,120,2020-10-24T12:36:30-07:00,4.9483828544617,2,versionA_stim.csv,READVersionB.csv,"Read Version B","Dissertation, read only version B",EARTH,GROUND,Study2,S,144,160,Test,User,-,,Recall,Recall1,3602,ground,100,1300,3131,1,1,,1
5f8f54f056dee01a45a09147,8yqu7u2lwa,Nick_Dissertation_EX1,1,121,2020-10-24T12:36:32-07:00,2.1889932155609,2,versionA_stim.csv,READVersionB.csv,"Read Version B","Dissertation, read only version B",SCALP,HEAD,Study2,F,105,112,Test,User,-,,Recall,Recall1,1716,,0,-1,-1,0,0,,1
5f8f54f056dee01a45a09147,8yqu7u2lwa,Nick_Dissertation_EX1,1,122,2020-10-24T12:36:33-07:00,1.0303399562836,2,versionA_stim.csv,READVersionB.csv,"Read Version B","Dissertation, read only version B",GONE,AWAY,Study2,S,142,163,Test,User,-,,Recall,Recall1,657,,0,-1,-1,0,0,,1
5f8f54f056dee01a45a09147,8yqu7u2lwa,Nick_Dissertation_EX1,1,123,2020-10-24T12:36:34-07:00,1.223995923996,2,versionA_stim.csv,READVersionB.csv,"Read Version B","Dissertation, read only version B",CRACKLE,ABLE,Study2,U,162,165,Test,User,-,,Recall,Recall1,810,,0,-1,-1,0,0,,1
5f8f54f056dee01a45a09147,8yqu7u2lwa,Nick_Dissertation_EX1,1,124,2020-10-24T12:36:39-07:00,4.9084630012512,2,versionA_stim.csv,READVersionB.csv,"Read Version B","Dissertation, read only version B",ALONE,LONELY,Study2,S,145,167,Test,User,-,,Recall,Recall1,4538,lonely,100,2817,4143,1,1,,1
5f8f54f056dee01a45a09147,8yqu7u2lwa,Nick_Dissertation_EX1,1,125,2020-10-24T12:36:43-07:00,3.7375409603119,2,versionA_stim.csv,READVersionB.csv,"Read Version B","Dissertation, read only version B",TANTRUM,TEMPER,Study2,S,154,129,Test,User,-,,Recall,Recall1,3396,temper,100,1327,2656,1,1,,1
5f8f54f056dee01a45a09147,8yqu7u2lwa,Nick_Dissertation_EX1,1,126,2020-10-24T12:36:44-07:00,1.2732100486755,2,versionA_stim.csv,READVersionB.csv,"Read Version B","Dissertation, read only version B",STAR,ACTRESS,Study2,B,120,126,Test,User,-,,Recall,Recall1,782,,0,-1,-1,0,0,,1
5f8f54f056dee01a45a09147,8yqu7u2lwa,Nick_Dissertation_EX1,1,127,2020-10-24T12:36:48-07:00,3.8072528839111,2,versionA_stim.csv,READVersionB.csv,"Read Version B","Dissertation, read only version B",TRUTH,LIE,Study2,S,148,139,Test,User,-,,Recall,Recall1,2912,,0,-1,-1,0,0,,1
5f8f54f056dee01a45a09147,8yqu7u2lwa,Nick_Dissertation_EX1,1,128,2020-10-24T12:36:49-07:00,1.1215081214905,2,versionA_stim.csv,READVersionB.csv,"Read Version B","Dissertation, read only version B",INCENSE,SMELL,Study2,F,110,121,Test,User,-,,Recall,Recall1,801,,0,-1,-1,0,0,,1
5f8f54f056dee01a45a09147,8yqu7u2lwa,Nick_Dissertation_EX1,1,129,2020-10-24T12:36:50-07:00,1.3774170875549,2,versionA_stim.csv,READVersionB.csv,"Read Version B","Dissertation, read only version B",LITTER,TRASH,Study2,F,103,162,Test,User,-,,Recall,Recall1,1055,,0,-1,-1,0,0,,1
5f8f54f056dee01a45a09147,8yqu7u2lwa,Nick_Dissertation_EX1,1,130,2020-10-24T12:36:54-07:00,3.6364369392395,2,versionA_stim.csv,READVersionB.csv,"Read Version B","Dissertation, read only version B",DRY,WET,Study2,S,146,123,Test,User,-,,Recall,Recall1,3312,,0,-1,-1,0,0,,1
5f8f54f056dee01a45a09147,8yqu7u2lwa,Nick_Dissertation_EX1,1,131,2020-10-24T12:37:02-07:00,7.929869890213,2,versionA_stim.csv,READVersionB.csv,"Read Version B","Dissertation, read only version B",STRETCH,CLOTH,Study2,U,157,141,Test,User,-,,Recall,Recall1,5367,clothes,83.333333333333,3460,4769,0,1,,1
5f8f54f056dee01a45a09147,8yqu7u2lwa,Nick_Dissertation_EX1,1,132,2020-10-24T12:37:12-07:00,9.8372070789337,2,versionA_stim.csv,READVersionB.csv,"Read Version B","Dissertation, read only version B",VEHICLE,CHARM,Study2,U,160,97,Test,User,-,,Recall,Recall1,9484,charm,100,5817,9112,1,1,,1
5f8f54f056dee01a45a09147,8yqu7u2lwa,Nick_Dissertation_EX1,1,133,2020-10-24T12:37:16-07:00,4.1789870262146,2,versionA_stim.csv,READVersionB.csv,"Read Version B","Dissertation, read only version B",CAT,PANTHER,Study2,B,126,149,Test,User,-,,Recall,Recall1,3709,panther,100,1722,3205,1,1,,1
5f8f54f056dee01a45a09147,8yqu7u2lwa,Nick_Dissertation_EX1,1,134,2020-10-24T12:37:21-07:00,4.7800569534302,2,versionA_stim.csv,READVersionB.csv,"Read Version B","Dissertation, read only version B",MOAT,CLEAR,Study2,U,169,158,Test,User,-,,Recall,Recall1,4469,clear,100,2982,3996,1,1,,1
5f8f54f056dee01a45a09147,8yqu7u2lwa,Nick_Dissertation_EX1,1,135,2020-10-24T12:37:22-07:00,1.2381510734558,2,versionA_stim.csv,READVersionB.csv,"Read Version B","Dissertation, read only version B",BAD,VILLAIN,Study2,B,118,103,Test,User,-,,Recall,Recall1,894,,0,-1,-1,0,0,,1
5f8f54f056dee01a45a09147,8yqu7u2lwa,Nick_Dissertation_EX1,1,136,2020-10-24T12:37:23-07:00,1.5107879638672,2,versionA_stim.csv,READVersionB.csv,"Read Version B","Dissertation, read only version B",MONEY,BANKER,Study2,B,132,172,Test,User,-,,Recall,Recall1,1185,,0,-1,-1,0,0,,1
5f8f54f056dee01a45a09147,8yqu7u2lwa,Nick_Dissertation_EX1,1,137,2020-10-24T12:37:26-07:00,2.7800118923187,2,versionA_stim.csv,READVersionB.csv,"Read Version B","Dissertation, read only version B",FUZZY,BANG,Study2,U,168,166,Test,User,-,,Recall,Recall1,2390,dog,28.571428571429,1256,1943,0,0,,1
5f8f54f056dee01a45a09147,8yqu7u2lwa,Nick_Dissertation_EX1,1,138,2020-10-24T12:37:30-07:00,3.6378901004791,2,versionA_stim.csv,READVersionB.csv,"Read Version B","Dissertation, read only version B",ELEMENT,CARBON,Study2,S,141,110,Test,User,-,,Recall,Recall1,3317,carbon,100,1812,2970,1,1,,1
5f8f54f056dee01a45a09147,8yqu7u2lwa,Nick_Dissertation_EX1,1,139,2020-10-24T12:37:31-07:00,1.2231419086456,2,versionA_stim.csv,READVersionB.csv,"Read Version B","Dissertation, read only version B",BASEBALL,LEAGUE,Study2,B,131,101,Test,User,-,,Recall,Recall1,838,,0,-1,-1,0,0,,1
5f8f54f056dee01a45a09147,8yqu7u2lwa,Nick_Dissertation_EX1,1,140,2020-10-24T12:37:32-07:00,1.2432169914246,2,versionA_stim.csv,READVersionB.csv,"Read Version B","Dissertation, read only version B",PHONE,COMMUNICATION,Study2,S,149,137,Test,User,-,,Recall,Recall1,889,,0,-1,-1,0,0,,1
5f8f54f056dee01a45a09147,8yqu7u2lwa,Nick_Dissertation_EX1,1,141,2020-10-24T12:37:35-07:00,2.7711219787598,2,versionA_stim.csv,READVersionB.csv,"Read Version B","Dissertation, read only version B",ROD,REEL,Study2,S,150,142,Test,User,-,,Recall,Recall1,2419,,0,-1,-1,0,0,,1
5f8f54f056dee01a45a09147,8yqu7u2lwa,Nick_Dissertation_EX1,1,142,2020-10-24T12:37:38-07:00,2.5167391300201,2,versionA_stim.csv,READVersionB.csv,"Read Version B","Dissertation, read only version B",CANDLE,WAX,Study2,S,139,99,Test,User,-,,Recall,Recall1,2156,wax,100,1377,1687,1,1,,1
5f8f54f056dee01a45a09147,8yqu7u2lwa,Nick_Dissertation_EX1,1,143,2020-10-24T12:37:43-07:00,5.0411360263824,2,versionA_stim.csv,READVersionB.csv,"Read Version B","Dissertation, read only version B",OWN,HAVE,Study2,S,153,132,Test,User,-,,Recall,Recall1,4696,,0,-1,-1,0,0,,1
5f8f54f056dee01a45a09147,8yqu7u2lwa,Nick_Dissertation_EX1,1,144,2020-10-24T12:37:44-07:00,1.5584859848022,2,versionA_stim.csv,READVersionB.csv,"Read Version B","Dissertation, read only version B",LISTEN,FICTION,Study2,U,164,146,Test,User,-,,Recall,Recall1,1197,,0,-1,-1,0,0,,1
5f8f54f056dee01a45a09147,8yqu7u2lwa,Nick_Dissertation_EX1,1,145,2020-10-24T12:37:49-07:00,4.6130268573761,2,versionA_stim.csv,READVersionB.csv,"Read Version B","Dissertation, read only version B",MULE,DONKEY,Study2,F,108,157,Test,User,-,,Recall,Recall1,4056,donkey,100,1217,3673,1,1,,1
5f8f54f056dee01a45a09147,8yqu7u2lwa,Nick_Dissertation_EX1,1,146,2020-10-24T12:37:50-07:00,1.4578402042389,2,versionA_stim.csv,READVersionB.csv,"Read Version B","Dissertation, read only version B",RIGHTS,EQUAL,Study2,S,137,143,Test,User,-,,Recall,Recall1,1114,,0,-1,-1,0,0,,1
5f8f54f056dee01a45a09147,8yqu7u2lwa,Nick_Dissertation_EX1,1,147,2020-10-24T12:37:53-07:00,2.3176548480988,2,versionA_stim.csv,READVersionB.csv,"Read Version B","Dissertation, read only version B",DRIVER,CAR,Study2,F,106,176,Test,User,-,,Recall,Recall1,1920,,0,-1,-1,0,0,,1
5f8f54f056dee01a45a09147,8yqu7u2lwa,Nick_Dissertation_EX1,1,148,2020-10-24T12:37:54-07:00,1.1338059902191,2,versionA_stim.csv,READVersionB.csv,"Read Version B","Dissertation, read only version B",BEST,FAVORITE,Study2,B,125,131,Test,User,-,,Recall,Recall1,600,,0,-1,-1,0,0,,1
5f8f54f056dee01a45a09147,8yqu7u2lwa,Nick_Dissertation_EX1,1,149,2020-10-24T12:37:58-07:00,4.2292120456696,2,versionA_stim.csv,READVersionB.csv,"Read Version B","Dissertation, read only version B",SHEARS,SCISSORS,Study2,F,112,153,Test,User,-,,Recall,Recall1,3819,scissors,100,1294,3224,1,1,,1
5f8f54f056dee01a45a09147,8yqu7u2lwa,Nick_Dissertation_EX1,1,150,2020-10-24T12:38:01-07:00,3.1044509410858,2,versionA_stim.csv,READVersionB.csv,"Read Version B","Dissertation, read only version B",FURRY,DOG,Study2,F,102,130,Test,User,-,,Recall,Recall1,2639,dog,100,1625,2260,1,1,,1
5f8f54f056dee01a45a09147,8yqu7u2lwa,Nick_Dissertation_EX1,1,151,2020-10-24T12:38:03-07:00,1.5631260871887,2,versionA_stim.csv,READVersionB.csv,"Read Version B","Dissertation, read only version B",TURN,FLIP,Study2,B,116,155,Test,User,-,,Recall,Recall1,1141,,0,-1,-1,0,0,,1
5f8f54f056dee01a45a09147,8yqu7u2lwa,Nick_Dissertation_EX1,1,152,2020-10-24T12:38:05-07:00,2.4242079257965,2,versionA_stim.csv,READVersionB.csv,"Read Version B","Dissertation, read only version B",MASON,JAR,Study2,S,138,136,Test,User,-,,Recall,Recall1,2038,jar,100,1086,1630,1,1,,1
5f8f54f056dee01a45a09147,8yqu7u2lwa,Nick_Dissertation_EX1,1,153,2020-10-24T12:38:09-07:00,4.1562900543213,2,versionA_stim.csv,READVersionB.csv,"Read Version B","Dissertation, read only version B",MIRROR,CHILDREN,Study2,U,174,128,Test,User,-,,Recall,Recall1,3813,child,76.923076923077,2341,3359,0,1,,1
5f8f54f056dee01a45a09147,8yqu7u2lwa,Nick_Dissertation_EX1,1,154,2020-10-24T12:38:10-07:00,1.1617081165314,2,versionA_stim.csv,READVersionB.csv,"Read Version B","Dissertation, read only version B",BOTH,OUNCE,Study2,U,172,114,Test,User,-,,Recall,Recall1,782,,0,-1,-1,0,0,,1
5f8f54f056dee01a45a09147,8yqu7u2lwa,Nick_Dissertation_EX1,1,155,2020-10-24T12:38:11-07:00,1.162181854248,2,versionA_stim.csv,READVersionB.csv,"Read Version B","Dissertation, read only version B",LOUD,NOISE,Study2,S,152,125,Test,User,-,,Recall,Recall1,792,,0,-1,-1,0,0,,1
5f8f54f056dee01a45a09147,8yqu7u2lwa,Nick_Dissertation_EX1,1,156,2020-10-24T12:38:13-07:00,1.4090120792389,2,versionA_stim.csv,READVersionB.csv,"Read Version B","Dissertation, read only version B",MAIN,SCAR,Study2,U,175,115,Test,User,-,,Recall,Recall1,1015,,0,-1,-1,0,0,,1
5f8f54f056dee01a45a09147,8yqu7u2lwa,Nick_Dissertation_EX1,1,157,2020-10-24T12:38:16-07:00,3.4446308612823,2,versionA_stim.csv,READVersionB.csv,"Read Version B","Dissertation, read only version B",CLUE,GAME,Study2,F,97,134,Test,User,-,,Recall,Recall1,3111,game,100,1727,2596,1,1,,1
5f8f54f056dee01a45a09147,8yqu7u2lwa,Nick_Dissertation_EX1,1,158,2020-10-24T12:38:19-07:00,3.1766631603241,2,versionA_stim.csv,READVersionB.csv,"Read Version B","Dissertation, read only version B",FIGHT,BRAWL,Study2,B,135,170,Test,User,-,,Recall,Recall1,2840,fued,0,1689,2386,0,0,,1
5f8f54f056dee01a45a09147,8yqu7u2lwa,Nick_Dissertation_EX1,1,159,2020-10-24T12:38:21-07:00,1.3599889278412,2,versionA_stim.csv,READVersionB.csv,"Read Version B","Dissertation, read only version B",CHOP,CUT,Study2,F,107,107,Test,User,-,,Recall,Recall1,1003,,0,-1,-1,0,0,,1
5f8f54f056dee01a45a09147,8yqu7u2lwa,Nick_Dissertation_EX1,1,160,2020-10-24T12:38:23-07:00,2.3331561088562,2,versionA_stim.csv,READVersionB.csv,"Read Version B","Dissertation, read only version B",NAME,HATE,Study2,U,167,120,Test,User,-,,Recall,Recall1,2026,,0,-1,-1,0,0,,1
5f8f54f056dee01a45a09147,8yqu7u2lwa,Nick_Dissertation_EX1,1,161,2020-10-24T12:38:28-07:00,4.9872648715973,2,versionA_stim.csv,READVersionB.csv,"Read Version B","Dissertation, read only version B",CAR,WINDSHIELD,Study2,B,117,168,Test,User,-,,Recall,Recall1,4638,windshield,100,1146,4191,1,1,,1
5f8f54f056dee01a45a09147,8yqu7u2lwa,Nick_Dissertation_EX1,1,162,2020-10-24T12:38:30-07:00,1.514888048172,2,versionA_stim.csv,READVersionB.csv,"Read Version B","Dissertation, read only version B",Shell,SHAKE,Study2,U,163,144,Test,User,-,,Recall,Recall1,1040,,0,-1,-1,0,0,,1
5f8f54f056dee01a45a09147,8yqu7u2lwa,Nick_Dissertation_EX1,1,163,2020-10-24T12:38:34-07:00,4.2164769172668,2,versionA_stim.csv,READVersionB.csv,"Read Version B","Dissertation, read only version B",FISH,SARDINE,Study2,B,130,159,Test,User,-,,Recall,Recall1,3075,shrimp,46.153846153846,1407,2775,0,0,,1
5f8f54f056dee01a45a09147,8yqu7u2lwa,Nick_Dissertation_EX1,1,164,2020-10-24T12:38:35-07:00,1.5920901298523,2,versionA_stim.csv,READVersionB.csv,"Read Version B","Dissertation, read only version B",WRIST,BRACELET,Study2,S,140,122,Test,User,-,,Recall,Recall1,1087,,0,-1,-1,0,0,,1
5f8f54f056dee01a45a09147,8yqu7u2lwa,Nick_Dissertation_EX1,1,165,2020-10-24T12:38:37-07:00,1.6293258666992,2,versionA_stim.csv,READVersionB.csv,"Read Version B","Dissertation, read only version B",TEMPERATURE,Morning,Study2,U,173,145,Test,User,-,,Recall,Recall1,1299,,0,-1,-1,0,0,,1
5f8f54f056dee01a45a09147,8yqu7u2lwa,Nick_Dissertation_EX1,1,166,2020-10-24T12:38:38-07:00,1.0804800987244,2,versionA_stim.csv,READVersionB.csv,"Read Version B","Dissertation, read only version B",EVEN,REVENGE,Study2,B,122,164,Test,User,-,,Recall,Recall1,733,,0,-1,-1,0,0,,1
5f8f54f056dee01a45a09147,8yqu7u2lwa,Nick_Dissertation_EX1,1,167,2020-10-24T12:38:41-07:00,2.5156009197235,2,versionA_stim.csv,READVersionB.csv,"Read Version B","Dissertation, read only version B",GLASS,BREAKABLE,Study2,B,127,109,Test,User,-,,Recall,Recall1,2214,,0,-1,-1,0,0,,1
5f8f54f056dee01a45a09147,8yqu7u2lwa,Nick_Dissertation_EX1,1,168,2020-10-24T12:38:45-07:00,4.1171369552612,2,versionA_stim.csv,READVersionB.csv,"Read Version B","Dissertation, read only version B",SAFETY,SEATBELT,Study2,S,147,152,Test,User,-,,Recall,Recall1,3746,,0,-1,-1,0,0,,1
5f8f54f056dee01a45a09147,8yqu7u2lwa,Nick_Dissertation_EX1,1,169,2020-10-24T12:38:50-07:00,5.0704190731049,2,versionA_stim.csv,READVersionB.csv,"Read Version B","Dissertation, read only version B",MEAT,OBTAIN,Study2,U,161,173,Test,User,-,,Recall,Recall1,3502,obtain,100,1390,3160,1,1,,1
5f8f54f056dee01a45a09147,8yqu7u2lwa,Nick_Dissertation_EX1,1,170,2020-10-24T12:38:53-07:00,2.7665650844574,2,versionA_stim.csv,READVersionB.csv,"Read Version B","Dissertation, read only version B",LEASE,TOIL,Study2,U,170,127,Test,User,-,,Recall,Recall1,1390,,0,-1,-1,0,0,,1
5f8f54f056dee01a45a09147,8yqu7u2lwa,Nick_Dissertation_EX1,1,171,2020-10-24T12:38:54-07:00,1.2299408912659,2,versionA_stim.csv,READVersionB.csv,"Read Version B","Dissertation, read only version B",JUSTICE,MAROON,Study2,U,156,105,Test,User,-,,Recall,Recall1,852,,0,-1,-1,0,0,,1
5f8f54f056dee01a45a09147,8yqu7u2lwa,Nick_Dissertation_EX1,1,172,2020-10-24T12:38:57-07:00,2.8138270378113,2,versionA_stim.csv,READVersionB.csv,"Read Version B","Dissertation, read only version B",THREAD,THIMBLE,Study2,B,121,117,Test,User,-,,Recall,Recall1,2473,,0,-1,-1,0,0,,1
5f8f54f056dee01a45a09147,8yqu7u2lwa,Nick_Dissertation_EX1,1,173,2020-10-24T12:38:58-07:00,1.0020549297333,2,versionA_stim.csv,READVersionB.csv,"Read Version B","Dissertation, read only version B",DINE,EAT,Study2,F,111,148,Test,User,-,,Recall,Recall1,609,,0,-1,-1,0,0,,1
5f8f54f056dee01a45a09147,8yqu7u2lwa,Nick_Dissertation_EX1,1,174,2020-10-24T12:39:04-07:00,6.0168161392212,2,versionA_stim.csv,READVersionB.csv,"Read Version B","Dissertation, read only version B",FLEA,TICK,Study2,S,151,119,Test,User,-,,Recall,Recall1,5629,,0,-1,-1,0,0,,1
5f8f54f056dee01a45a09147,8yqu7u2lwa,Nick_Dissertation_EX1,1,175,2020-10-24T12:39:20-07:00,16.408222913742,2,versionA_stim.csv,READVersionB.csv,"Read Version B","Dissertation, read only version B",,,,,,0,Instruct,-,10,"You will now be presented with a new set of word pairs. Please study each pair. Remember that your memory will be tested! When finished, press Enter to move to the next pair.",Initial_Instruct,Instruct4,15985,,,-1,-1,,,,1
5f8f54f056dee01a45a09147,8yqu7u2lwa,Nick_Dissertation_EX1,1,176,2020-10-24T12:39:24-07:00,3.378790140152,2,versionA_stim.csv,READVersionB.csv,"Read Version B","Dissertation, read only version B",PEANUT,BUTTER,BUFFER1,Buffer,3,4,Study,User,-,,Study/JOL,BUFFER3,3039,,,-1,-1,,,,1
5f8f54f056dee01a45a09147,8yqu7u2lwa,Nick_Dissertation_EX1,1,177,2020-10-24T12:39:27-07:00,3.1484649181366,2,versionA_stim.csv,READVersionB.csv,"Read Version B","Dissertation, read only version B",SPACE,JAM,BUFFER1,Buffer,5,5,Study,User,-,,Study/JOL,BUFFER3,2846,,,-1,-1,,,,1
5f8f54f056dee01a45a09147,8yqu7u2lwa,Nick_Dissertation_EX1,1,178,2020-10-24T12:39:46-07:00,19.169600009918,2,versionA_stim.csv,READVersionB.csv,"Read Version B","Dissertation, read only version B",SCARE,HIDE,BUFFER1,Buffer,4,6,Study,User,-,,Study/JOL,BUFFER3,17255,,,-1,-1,,,,1
5f8f54f056dee01a45a09147,8yqu7u2lwa,Nick_Dissertation_EX1,1,179,2020-10-24T12:39:49-07:00,2.9746479988098,2,versionA_stim.csv,READVersionB.csv,"Read Version B","Dissertation, read only version B",TREES,GREEN,BUFFER1,Buffer,1,3,Study,User,-,,Study/JOL,BUFFER3,2649,,,-1,-1,,,,1
5f8f54f056dee01a45a09147,8yqu7u2lwa,Nick_Dissertation_EX1,1,180,2020-10-24T12:39:55-07:00,6.0263319015503,2,versionA_stim.csv,READVersionB.csv,"Read Version B","Dissertation, read only version B",BASEBALL,CATCHER,BUFFER1,Buffer,2,2,Study,User,-,,Study/JOL,BUFFER3,5692,,,-1,-1,,,,1
5f8f54f056dee01a45a09147,8yqu7u2lwa,Nick_Dissertation_EX1,1,181,2020-10-24T12:40:00-07:00,5.3020861148834,2,versionA_stim.csv,READVersionB.csv,"Read Version B","Dissertation, read only version B",PLANE,PILOT,Study1,B,44,68,Study,User,-,,Study/JOL,"Study Phase2",4962,,,-1,-1,,,,1
5f8f54f056dee01a45a09147,8yqu7u2lwa,Nick_Dissertation_EX1,1,182,2020-10-24T12:40:04-07:00,3.5143849849701,2,versionA_stim.csv,READVersionB.csv,"Read Version B","Dissertation, read only version B",HEIGHT,GROWTH,Study1,B,30,63,Study,User,-,,Study/JOL,"Study Phase2",3069,,,-1,-1,,,,1
5f8f54f056dee01a45a09147,8yqu7u2lwa,Nick_Dissertation_EX1,1,183,2020-10-24T12:40:06-07:00,2.3658359050751,2,versionA_stim.csv,READVersionB.csv,"Read Version B","Dissertation, read only version B",BABY,CHILD,Study1,S,64,64,Study,User,-,,Study/JOL,"Study Phase2",1986,,,-1,-1,,,,1
5f8f54f056dee01a45a09147,8yqu7u2lwa,Nick_Dissertation_EX1,1,184,2020-10-24T12:40:10-07:00,3.9728441238403,2,versionA_stim.csv,READVersionB.csv,"Read Version B","Dissertation, read only version B",HERD,COW,Study1,F,22,76,Study,User,-,,Study/JOL,"Study Phase2",3475,,,-1,-1,,,,1
5f8f54f056dee01a45a09147,8yqu7u2lwa,Nick_Dissertation_EX1,1,185,2020-10-24T12:40:13-07:00,2.6049239635468,2,versionA_stim.csv,READVersionB.csv,"Read Version B","Dissertation, read only version B",HIDE,SICK,Study1,U,84,28,Study,User,-,,Study/JOL,"Study Phase2",2181,,,-1,-1,,,,1
5f8f54f056dee01a45a09147,8yqu7u2lwa,Nick_Dissertation_EX1,1,186,2020-10-24T12:40:17-07:00,4.4030048847198,2,versionA_stim.csv,READVersionB.csv,"Read Version B","Dissertation, read only version B",LOCATION,SITE,Study1,S,48,12,Study,User,-,,Study/JOL,"Study Phase2",4023,,,-1,-1,,,,1
5f8f54f056dee01a45a09147,8yqu7u2lwa,Nick_Dissertation_EX1,1,187,2020-10-24T12:40:22-07:00,4.857470035553,2,versionA_stim.csv,READVersionB.csv,"Read Version B","Dissertation, read only version B",CHISEL,HAMMER,Study1,F,9,13,Study,User,-,,Study/JOL,"Study Phase2",2441,,,-1,-1,,,,1
5f8f54f056dee01a45a09147,8yqu7u2lwa,Nick_Dissertation_EX1,1,188,2020-10-24T12:40:23-07:00,1.6554629802704,2,versionA_stim.csv,READVersionB.csv,"Read Version B","Dissertation, read only version B",SMELL,STENCH,Study1,B,42,78,Study,User,-,,Study/JOL,"Study Phase2",1323,,,-1,-1,,,,1
5f8f54f056dee01a45a09147,8yqu7u2lwa,Nick_Dissertation_EX1,1,189,2020-10-24T12:40:27-07:00,3.0174860954285,2,versionA_stim.csv,READVersionB.csv,"Read Version B","Dissertation, read only version B",BRIDGE,WATER,Study1,F,18,11,Study,User,-,,Study/JOL,"Study Phase2",2681,,,-1,-1,,,,1
5f8f54f056dee01a45a09147,8yqu7u2lwa,Nick_Dissertation_EX1,1,190,2020-10-24T12:40:29-07:00,2.9617309570312,2,versionA_stim.csv,READVersionB.csv,"Read Version B","Dissertation, read only version B",GREAT,FANTASTIC,Study1,B,35,62,Study,User,-,,Study/JOL,"Study Phase2",2636,,,-1,-1,,,,1
5f8f54f056dee01a45a09147,8yqu7u2lwa,Nick_Dissertation_EX1,1,191,2020-10-24T12:40:34-07:00,4.3481140136719,2,versionA_stim.csv,READVersionB.csv,"Read Version B","Dissertation, read only version B",DEATH,BUSINESS,Study1,U,72,65,Study,User,-,,Study/JOL,"Study Phase2",3980,,,-1,-1,,,,1
5f8f54f056dee01a45a09147,8yqu7u2lwa,Nick_Dissertation_EX1,1,192,2020-10-24T12:40:37-07:00,3.2406299114227,2,versionA_stim.csv,READVersionB.csv,"Read Version B","Dissertation, read only version B",STRONG,ACCIDENT,Study1,U,80,32,Study,User,-,,Study/JOL,"Study Phase2",2919,,,-1,-1,,,,1
5f8f54f056dee01a45a09147,8yqu7u2lwa,Nick_Dissertation_EX1,1,193,2020-10-24T12:40:41-07:00,4.064759016037,2,versionA_stim.csv,READVersionB.csv,"Read Version B","Dissertation, read only version B",HOT,CHILI,Study1,B,37,84,Study,User,-,,Study/JOL,"Study Phase2",3695,,,-1,-1,,,,1
5f8f54f056dee01a45a09147,8yqu7u2lwa,Nick_Dissertation_EX1,1,194,2020-10-24T12:40:46-07:00,4.6255760192871,2,versionA_stim.csv,READVersionB.csv,"Read Version B","Dissertation, read only version B",GEOLOGY,ROCK,Study1,F,19,72,Study,User,-,,Study/JOL,"Study Phase2",4319,,,-1,-1,,,,1
5f8f54f056dee01a45a09147,8yqu7u2lwa,Nick_Dissertation_EX1,1,195,2020-10-24T12:40:51-07:00,5.044086933136,2,versionA_stim.csv,READVersionB.csv,"Read Version B","Dissertation, read only version B",WAGE,MONEY,Study1,F,8,75,Study,User,-,,Study/JOL,"Study Phase2",4706,,,-1,-1,,,,1
5f8f54f056dee01a45a09147,8yqu7u2lwa,Nick_Dissertation_EX1,1,196,2020-10-24T12:40:56-07:00,5.048709154129,2,versionA_stim.csv,READVersionB.csv,"Read Version B","Dissertation, read only version B",BATHROOM,TOILET,Study1,S,58,47,Study,User,-,,Study/JOL,"Study Phase2",2966,,,-1,-1,,,,1
5f8f54f056dee01a45a09147,8yqu7u2lwa,Nick_Dissertation_EX1,1,197,2020-10-24T12:40:59-07:00,3.0242269039154,2,versionA_stim.csv,READVersionB.csv,"Read Version B","Dissertation, read only version B",WINE,CHEESE,Study1,S,57,83,Study,User,-,,Study/JOL,"Study Phase2",2688,,,-1,-1,,,,1
5f8f54f056dee01a45a09147,8yqu7u2lwa,Nick_Dissertation_EX1,1,198,2020-10-24T12:41:03-07:00,4.2728950977325,2,versionA_stim.csv,READVersionB.csv,"Read Version B","Dissertation, read only version B",CIRCLE,ROUND,Study1,S,65,61,Study,User,-,,Study/JOL,"Study Phase2",3944,,,-1,-1,,,,1
5f8f54f056dee01a45a09147,8yqu7u2lwa,Nick_Dissertation_EX1,1,199,2020-10-24T12:41:06-07:00,2.6761109828949,2,versionA_stim.csv,READVersionB.csv,"Read Version B","Dissertation, read only version B",HORNET,STING,Study1,F,11,9,Study,User,-,,Study/JOL,"Study Phase2",2376,,,-1,-1,,,,1
5f8f54f056dee01a45a09147,8yqu7u2lwa,Nick_Dissertation_EX1,1,200,2020-10-24T12:41:09-07:00,3.5588750839233,2,versionA_stim.csv,READVersionB.csv,"Read Version B","Dissertation, read only version B",BEGIN,END,Study1,S,54,21,Study,User,-,,Study/JOL,"Study Phase2",3196,,,-1,-1,,,,1
5f8f54f056dee01a45a09147,8yqu7u2lwa,Nick_Dissertation_EX1,1,201,2020-10-24T12:41:12-07:00,2.9643650054932,2,versionA_stim.csv,READVersionB.csv,"Read Version B","Dissertation, read only version B",BLOW,WIND,Study1,S,55,82,Study,User,-,,Study/JOL,"Study Phase2",2546,,,-1,-1,,,,1
5f8f54f056dee01a45a09147,8yqu7u2lwa,Nick_Dissertation_EX1,1,202,2020-10-24T12:41:16-07:00,3.517749786377,2,versionA_stim.csv,READVersionB.csv,"Read Version B","Dissertation, read only version B",WORK,CHORE,Study1,B,39,25,Study,User,-,,Study/JOL,"Study Phase2",3200,,,-1,-1,,,,1
5f8f54f056dee01a45a09147,8yqu7u2lwa,Nick_Dissertation_EX1,1,203,2020-10-24T12:41:19-07:00,3.0048341751099,2,versionA_stim.csv,READVersionB.csv,"Read Version B","Dissertation, read only version B",ROOT,PLANT,Study1,F,13,56,Study,User,-,,Study/JOL,"Study Phase2",2676,,,-1,-1,,,,1
5f8f54f056dee01a45a09147,8yqu7u2lwa,Nick_Dissertation_EX1,1,204,2020-10-24T12:41:23-07:00,4.2368810176849,2,versionA_stim.csv,READVersionB.csv,"Read Version B","Dissertation, read only version B",HUNGER,FAMINE,Study1,B,40,35,Study,User,-,,Study/JOL,"Study Phase2",2911,,,-1,-1,,,,1
5f8f54f056dee01a45a09147,8yqu7u2lwa,Nick_Dissertation_EX1,1,205,2020-10-24T12:41:30-07:00,6.7947499752045,2,versionA_stim.csv,READVersionB.csv,"Read Version B","Dissertation, read only version B",DELINQUENT,BAD,Study1,F,6,16,Study,User,-,,Study/JOL,"Study Phase2",4623,,,-1,-1,,,,1
5f8f54f056dee01a45a09147,8yqu7u2lwa,Nick_Dissertation_EX1,1,206,2020-10-24T12:41:34-07:00,4.1935570240021,2,versionA_stim.csv,READVersionB.csv,"Read Version B","Dissertation, read only version B",SWAN,BIRD,Study1,F,14,73,Study,User,-,,Study/JOL,"Study Phase2",2683,,,-1,-1,,,,1
5f8f54f056dee01a45a09147,8yqu7u2lwa,Nick_Dissertation_EX1,1,207,2020-10-24T12:41:36-07:00,1.824108839035,2,versionA_stim.csv,READVersionB.csv,"Read Version B","Dissertation, read only version B",LIFT,WOMAN,Study1,U,69,70,Study,User,-,,Study/JOL,"Study Phase2",1450,,,-1,-1,,,,1
5f8f54f056dee01a45a09147,8yqu7u2lwa,Nick_Dissertation_EX1,1,208,2020-10-24T12:41:40-07:00,3.6020860671997,2,versionA_stim.csv,READVersionB.csv,"Read Version B","Dissertation, read only version B",EDITOR,NEWS,Study1,F,10,45,Study,User,-,,Study/JOL,"Study Phase2",3251,,,-1,-1,,,,1
5f8f54f056dee01a45a09147,8yqu7u2lwa,Nick_Dissertation_EX1,1,209,2020-10-24T12:41:42-07:00,2.9392919540405,2,versionA_stim.csv,READVersionB.csv,"Read Version B","Dissertation, read only version B",MACHINE,POSITION,Study1,U,76,17,Study,User,-,,Study/JOL,"Study Phase2",2603,,,-1,-1,,,,1
5f8f54f056dee01a45a09147,8yqu7u2lwa,Nick_Dissertation_EX1,1,210,2020-10-24T12:41:45-07:00,2.7061610221863,2,versionA_stim.csv,READVersionB.csv,"Read Version B","Dissertation, read only version B",SENTENCE,WORD,Study1,B,31,10,Study,User,-,,Study/JOL,"Study Phase2",2372,,,-1,-1,,,,1
5f8f54f056dee01a45a09147,8yqu7u2lwa,Nick_Dissertation_EX1,1,211,2020-10-24T12:41:48-07:00,3.0532059669495,2,versionA_stim.csv,READVersionB.csv,"Read Version B","Dissertation, read only version B",FIRE,BLAZE,Study1,B,45,23,Study,User,-,,Study/JOL,"Study Phase2",2539,,,-1,-1,,,,1
5f8f54f056dee01a45a09147,8yqu7u2lwa,Nick_Dissertation_EX1,1,212,2020-10-24T12:41:52-07:00,3.4909620285034,2,versionA_stim.csv,READVersionB.csv,"Read Version B","Dissertation, read only version B",LETTUCE,SALAD,Study1,S,59,38,Study,User,-,,Study/JOL,"Study Phase2",3039,,,-1,-1,,,,1
5f8f54f056dee01a45a09147,8yqu7u2lwa,Nick_Dissertation_EX1,1,213,2020-10-24T12:41:55-07:00,2.9859459400177,2,versionA_stim.csv,READVersionB.csv,"Read Version B","Dissertation, read only version B",WAY,OUT,Study1,F,16,40,Study,User,-,,Study/JOL,"Study Phase2",2667,,,-1,-1,,,,1
5f8f54f056dee01a45a09147,8yqu7u2lwa,Nick_Dissertation_EX1,1,214,2020-10-24T12:41:57-07:00,2.6485171318054,2,versionA_stim.csv,READVersionB.csv,"Read Version B","Dissertation, read only version B",LAW,ATTORNEY,Study1,B,34,66,Study,User,-,,Study/JOL,"Study Phase2",2308,,,-1,-1,,,,1
5f8f54f056dee01a45a09147,8yqu7u2lwa,Nick_Dissertation_EX1,1,215,2020-10-24T12:42:01-07:00,3.4095418453217,2,versionA_stim.csv,READVersionB.csv,"Read Version B","Dissertation, read only version B",BUG,WASP,Study1,B,32,19,Study,User,-,,Study/JOL,"Study Phase2",3061,,,-1,-1,,,,1
5f8f54f056dee01a45a09147,8yqu7u2lwa,Nick_Dissertation_EX1,1,216,2020-10-24T12:42:04-07:00,3.2387862205505,2,versionA_stim.csv,READVersionB.csv,"Read Version B","Dissertation, read only version B",KIDNEY,LIVER,Study1,S,53,86,Study,User,-,,Study/JOL,"Study Phase2",2481,,,-1,-1,,,,1
5f8f54f056dee01a45a09147,8yqu7u2lwa,Nick_Dissertation_EX1,1,217,2020-10-24T12:42:08-07:00,4.1169369220734,2,versionA_stim.csv,READVersionB.csv,"Read Version B","Dissertation, read only version B",HAPPY,CAR,Study1,U,77,74,Study,User,-,,Study/JOL,"Study Phase2",3728,,,-1,-1,,,,1
5f8f54f056dee01a45a09147,8yqu7u2lwa,Nick_Dissertation_EX1,1,218,2020-10-24T12:42:12-07:00,3.4187459945679,2,versionA_stim.csv,READVersionB.csv,"Read Version B","Dissertation, read only version B",VALLEY,ADD,Study1,U,82,46,Study,User,-,,Study/JOL,"Study Phase2",3061,,,-1,-1,,,,1
5f8f54f056dee01a45a09147,8yqu7u2lwa,Nick_Dissertation_EX1,1,219,2020-10-24T12:42:16-07:00,4.03156208992,2,versionA_stim.csv,READVersionB.csv,"Read Version B","Dissertation, read only version B",MEANING,DEFINITION,Study1,S,62,29,Study,User,-,,Study/JOL,"Study Phase2",3577,,,-1,-1,,,,1
5f8f54f056dee01a45a09147,8yqu7u2lwa,Nick_Dissertation_EX1,1,220,2020-10-24T12:42:18-07:00,2.7472198009491,2,versionA_stim.csv,READVersionB.csv,"Read Version B","Dissertation, read only version B",NUMBER,AMOUNT,Study1,S,47,18,Study,User,-,,Study/JOL,"Study Phase2",2390,,,-1,-1,,,,1
5f8f54f056dee01a45a09147,8yqu7u2lwa,Nick_Dissertation_EX1,1,221,2020-10-24T12:42:21-07:00,2.8384289741516,2,versionA_stim.csv,READVersionB.csv,"Read Version B","Dissertation, read only version B",FULL,ENOUGH,Study1,B,26,69,Study,User,-,,Study/JOL,"Study Phase2",2535,,,-1,-1,,,,1
5f8f54f056dee01a45a09147,8yqu7u2lwa,Nick_Dissertation_EX1,1,222,2020-10-24T12:42:24-07:00,2.8284111022949,2,versionA_stim.csv,READVersionB.csv,"Read Version B","Dissertation, read only version B",POP,SODA,Study1,S,56,52,Study,User,-,,Study/JOL,"Study Phase2",2509,,,-1,-1,,,,1
5f8f54f056dee01a45a09147,8yqu7u2lwa,Nick_Dissertation_EX1,1,223,2020-10-24T12:42:28-07:00,4.041393995285,2,versionA_stim.csv,READVersionB.csv,"Read Version B","Dissertation, read only version B",DUMP,WASTE,Study1,S,49,51,Study,User,-,,Study/JOL,"Study Phase2",2730,,,-1,-1,,,,1
5f8f54f056dee01a45a09147,8yqu7u2lwa,Nick_Dissertation_EX1,1,224,2020-10-24T12:42:30-07:00,2.2635159492493,2,versionA_stim.csv,READVersionB.csv,"Read Version B","Dissertation, read only version B",DUE,ASSIGNMENT,Study1,S,46,39,Study,User,-,,Study/JOL,"Study Phase2",1951,,,-1,-1,,,,1
5f8f54f056dee01a45a09147,8yqu7u2lwa,Nick_Dissertation_EX1,1,225,2020-10-24T12:42:33-07:00,2.8912010192871,2,versionA_stim.csv,READVersionB.csv,"Read Version B","Dissertation, read only version B",SOON,BELT,Study1,U,70,22,Study,User,-,,Study/JOL,"Study Phase2",2520,,,-1,-1,,,,1
5f8f54f056dee01a45a09147,8yqu7u2lwa,Nick_Dissertation_EX1,1,226,2020-10-24T12:42:38-07:00,4.7202019691467,2,versionA_stim.csv,READVersionB.csv,"Read Version B","Dissertation, read only version B",TAKE,SEIZE,Study1,B,29,49,Study,User,-,,Study/JOL,"Study Phase2",1972,,,-1,-1,,,,1
5f8f54f056dee01a45a09147,8yqu7u2lwa,Nick_Dissertation_EX1,1,227,2020-10-24T12:42:40-07:00,2.4375829696655,2,versionA_stim.csv,READVersionB.csv,"Read Version B","Dissertation, read only version B",HYGIENE,CLEAN,Study1,F,17,7,Study,User,-,,Study/JOL,"Study Phase2",2016,,,-1,-1,,,,1
5f8f54f056dee01a45a09147,8yqu7u2lwa,Nick_Dissertation_EX1,1,228,2020-10-24T12:42:43-07:00,2.4984381198883,2,versionA_stim.csv,READVersionB.csv,"Read Version B","Dissertation, read only version B",CASH,WOULD,Study1,U,83,26,Study,User,-,,Study/JOL,"Study Phase2",2101,,,-1,-1,,,,1
5f8f54f056dee01a45a09147,8yqu7u2lwa,Nick_Dissertation_EX1,1,229,2020-10-24T12:42:45-07:00,2.4034440517426,2,versionA_stim.csv,READVersionB.csv,"Read Version B","Dissertation, read only version B",TUNA,FISH,Study1,F,25,31,Study,User,-,,Study/JOL,"Study Phase2",2091,,,-1,-1,,,,1
5f8f54f056dee01a45a09147,8yqu7u2lwa,Nick_Dissertation_EX1,1,230,2020-10-24T12:42:48-07:00,2.3504958152771,2,versionA_stim.csv,READVersionB.csv,"Read Version B","Dissertation, read only version B",ARTERY,BRONZE,Study1,U,74,85,Study,User,-,,Study/JOL,"Study Phase2",2004,,,-1,-1,,,,1
5f8f54f056dee01a45a09147,8yqu7u2lwa,Nick_Dissertation_EX1,1,231,2020-10-24T12:42:50-07:00,2.5216932296753,2,versionA_stim.csv,READVersionB.csv,"Read Version B","Dissertation, read only version B",PAW,DOG,Study1,F,15,14,Study,User,-,,Study/JOL,"Study Phase2",2076,,,-1,-1,,,,1
5f8f54f056dee01a45a09147,8yqu7u2lwa,Nick_Dissertation_EX1,1,232,2020-10-24T12:42:54-07:00,3.5649299621582,2,versionA_stim.csv,READVersionB.csv,"Read Version B","Dissertation, read only version B",REVOLUTION,WAR,Study1,F,20,71,Study,User,-,,Study/JOL,"Study Phase2",3199,,,-1,-1,,,,1
5f8f54f056dee01a45a09147,8yqu7u2lwa,Nick_Dissertation_EX1,1,233,2020-10-24T12:42:58-07:00,4.2941780090332,2,versionA_stim.csv,READVersionB.csv,"Read Version B","Dissertation, read only version B",KING,VASE,Study1,U,85,44,Study,User,-,,Study/JOL,"Study Phase2",3991,,,-1,-1,,,,1
5f8f54f056dee01a45a09147,8yqu7u2lwa,Nick_Dissertation_EX1,1,234,2020-10-24T12:43:02-07:00,3.989284992218,2,versionA_stim.csv,READVersionB.csv,"Read Version B","Dissertation, read only version B",DARK,CAVE,Study1,B,28,20,Study,User,-,,Study/JOL,"Study Phase2",3594,,,-1,-1,,,,1
5f8f54f056dee01a45a09147,8yqu7u2lwa,Nick_Dissertation_EX1,1,235,2020-10-24T12:43:05-07:00,2.9428470134735,2,versionA_stim.csv,READVersionB.csv,"Read Version B","Dissertation, read only version B",HONEY,BEE,Study1,S,63,33,Study,User,-,,Study/JOL,"Study Phase2",2594,,,-1,-1,,,,1
5f8f54f056dee01a45a09147,8yqu7u2lwa,Nick_Dissertation_EX1,1,236,2020-10-24T12:43:08-07:00,3.4364609718323,2,versionA_stim.csv,READVersionB.csv,"Read Version B","Dissertation, read only version B",DISCOVER,FLOOR,Study1,U,71,30,Study,User,-,,Study/JOL,"Study Phase2",3107,,,-1,-1,,,,1
5f8f54f056dee01a45a09147,8yqu7u2lwa,Nick_Dissertation_EX1,1,237,2020-10-24T12:43:12-07:00,3.59921002388,2,versionA_stim.csv,READVersionB.csv,"Read Version B","Dissertation, read only version B",CREDIT,CARD,Study1,F,23,36,Study,User,-,,Study/JOL,"Study Phase2",2867,,,-1,-1,,,,1
5f8f54f056dee01a45a09147,8yqu7u2lwa,Nick_Dissertation_EX1,1,238,2020-10-24T12:43:15-07:00,3.4886298179626,2,versionA_stim.csv,READVersionB.csv,"Read Version B","Dissertation, read only version B",KEY,LATCH,Study1,B,36,42,Study,User,-,,Study/JOL,"Study Phase2",3004,,,-1,-1,,,,1
5f8f54f056dee01a45a09147,8yqu7u2lwa,Nick_Dissertation_EX1,1,239,2020-10-24T12:43:19-07:00,3.8324329853058,2,versionA_stim.csv,READVersionB.csv,"Read Version B","Dissertation, read only version B",DIETARY,SACKING,Study1,U,67,81,Study,User,-,,Study/JOL,"Study Phase2",3475,,,-1,-1,,,,1
5f8f54f056dee01a45a09147,8yqu7u2lwa,Nick_Dissertation_EX1,1,240,2020-10-24T12:43:22-07:00,2.3815591335297,2,versionA_stim.csv,READVersionB.csv,"Read Version B","Dissertation, read only version B",ART,LION,Study1,U,79,27,Study,User,-,,Study/JOL,"Study Phase2",2028,,,-1,-1,,,,1
5f8f54f056dee01a45a09147,8yqu7u2lwa,Nick_Dissertation_EX1,1,241,2020-10-24T12:43:24-07:00,2.4947760105133,2,versionA_stim.csv,READVersionB.csv,"Read Version B","Dissertation, read only version B",DEBATE,SIGHT,Study1,U,73,24,Study,User,-,,Study/JOL,"Study Phase2",2180,,,-1,-1,,,,1
5f8f54f056dee01a45a09147,8yqu7u2lwa,Nick_Dissertation_EX1,1,242,2020-10-24T12:43:27-07:00,2.6385650634766,2,versionA_stim.csv,READVersionB.csv,"Read Version B","Dissertation, read only version B",TRIAL,JURY,Study1,S,50,58,Study,User,-,,Study/JOL,"Study Phase2",2297,,,-1,-1,,,,1
5f8f54f056dee01a45a09147,8yqu7u2lwa,Nick_Dissertation_EX1,1,243,2020-10-24T12:43:29-07:00,2.243992805481,2,versionA_stim.csv,READVersionB.csv,"Read Version B","Dissertation, read only version B",GRILL,BAR,Study1,S,52,67,Study,User,-,,Study/JOL,"Study Phase2",1813,,,-1,-1,,,,1
5f8f54f056dee01a45a09147,8yqu7u2lwa,Nick_Dissertation_EX1,1,244,2020-10-24T12:43:31-07:00,2.3721630573273,2,versionA_stim.csv,READVersionB.csv,"Read Version B","Dissertation, read only version B",ORCHID,FLOWER,Study1,F,24,34,Study,User,-,,Study/JOL,"Study Phase2",1924,,,-1,-1,,,,1
5f8f54f056dee01a45a09147,8yqu7u2lwa,Nick_Dissertation_EX1,1,245,2020-10-24T12:43:34-07:00,2.3579211235046,2,versionA_stim.csv,READVersionB.csv,"Read Version B","Dissertation, read only version B",BITTER,COLD,Study1,F,12,8,Study,User,-,,Study/JOL,"Study Phase2",1967,,,-1,-1,,,,1
5f8f54f056dee01a45a09147,8yqu7u2lwa,Nick_Dissertation_EX1,1,246,2020-10-24T12:43:37-07:00,3.3223788738251,2,versionA_stim.csv,READVersionB.csv,"Read Version B","Dissertation, read only version B",SLEEP,DROWSY,Study1,B,41,53,Study,User,-,,Study/JOL,"Study Phase2",2135,,,-1,-1,,,,1
5f8f54f056dee01a45a09147,8yqu7u2lwa,Nick_Dissertation_EX1,1,247,2020-10-24T12:43:40-07:00,2.7910211086273,2,versionA_stim.csv,READVersionB.csv,"Read Version B","Dissertation, read only version B",DRINK,SIP,Study1,B,27,79,Study,User,-,,Study/JOL,"Study Phase2",2253,,,-1,-1,,,,1
5f8f54f056dee01a45a09147,8yqu7u2lwa,Nick_Dissertation_EX1,1,248,2020-10-24T12:43:46-07:00,6.036456823349,2,versionA_stim.csv,READVersionB.csv,"Read Version B","Dissertation, read only version B",FIX,HAND,Study1,U,75,50,Study,User,-,,Study/JOL,"Study Phase2",2640,,,-1,-1,,,,1
5f8f54f056dee01a45a09147,8yqu7u2lwa,Nick_Dissertation_EX1,1,249,2020-10-24T12:43:49-07:00,3.1775271892548,2,versionA_stim.csv,READVersionB.csv,"Read Version B","Dissertation, read only version B",ALLOW,TUCK,Study1,U,78,57,Study,User,-,,Study/JOL,"Study Phase2",2786,,,-1,-1,,,,1
5f8f54f056dee01a45a09147,8yqu7u2lwa,Nick_Dissertation_EX1,1,250,2020-10-24T12:43:59-07:00,9.5009789466858,2,versionA_stim.csv,READVersionB.csv,"Read Version B","Dissertation, read only version B",DISCUSSION,TALK,Study1,F,21,80,Study,User,-,,Study/JOL,"Study Phase2",9127,,,-1,-1,,,,1
5f8f54f056dee01a45a09147,8yqu7u2lwa,Nick_Dissertation_EX1,1,251,2020-10-24T12:44:02-07:00,3.7070598602295,2,versionA_stim.csv,READVersionB.csv,"Read Version B","Dissertation, read only version B",SHOE,FOOT,Study1,S,60,60,Study,User,-,,Study/JOL,"Study Phase2",3392,,,-1,-1,,,,1
5f8f54f056dee01a45a09147,8yqu7u2lwa,Nick_Dissertation_EX1,1,252,2020-10-24T12:44:05-07:00,2.9607870578766,2,versionA_stim.csv,READVersionB.csv,"Read Version B","Dissertation, read only version B",ARCHITECTURE,DESIGN,Study1,S,51,37,Study,User,-,,Study/JOL,"Study Phase2",2574,,,-1,-1,,,,1
5f8f54f056dee01a45a09147,8yqu7u2lwa,Nick_Dissertation_EX1,1,253,2020-10-24T12:44:08-07:00,2.6379570960999,2,versionA_stim.csv,READVersionB.csv,"Read Version B","Dissertation, read only version B",PARK,HUNGRY,Study1,U,68,54,Study,User,-,,Study/JOL,"Study Phase2",2298,,,-1,-1,,,,1
5f8f54f056dee01a45a09147,8yqu7u2lwa,Nick_Dissertation_EX1,1,254,2020-10-24T12:44:11-07:00,3.32785987854,2,versionA_stim.csv,READVersionB.csv,"Read Version B","Dissertation, read only version B",PUSHER,CLUTTER,Study1,U,66,77,Study,User,-,,Study/JOL,"Study Phase2",2832,,,-1,-1,,,,1
5f8f54f056dee01a45a09147,8yqu7u2lwa,Nick_Dissertation_EX1,1,255,2020-10-24T12:44:15-07:00,3.7291090488434,2,versionA_stim.csv,READVersionB.csv,"Read Version B","Dissertation, read only version B",BALL,RACKET,Study1,B,38,55,Study,User,-,,Study/JOL,"Study Phase2",3349,,,-1,-1,,,,1
5f8f54f056dee01a45a09147,8yqu7u2lwa,Nick_Dissertation_EX1,1,256,2020-10-24T12:44:20-07:00,4.9700131416321,2,versionA_stim.csv,READVersionB.csv,"Read Version B","Dissertation, read only version B",SUGAR,RIDDLE,Study1,U,81,48,Study,User,-,,Study/JOL,"Study Phase2",3266,,,-1,-1,,,,1
5f8f54f056dee01a45a09147,8yqu7u2lwa,Nick_Dissertation_EX1,1,257,2020-10-24T12:44:23-07:00,3.0244169235229,2,versionA_stim.csv,READVersionB.csv,"Read Version B","Dissertation, read only version B",MATH,DIVISION,Study1,B,33,59,Study,User,-,,Study/JOL,"Study Phase2",2630,,,-1,-1,,,,1
5f8f54f056dee01a45a09147,8yqu7u2lwa,Nick_Dissertation_EX1,1,258,2020-10-24T12:44:25-07:00,2.5274419784546,2,versionA_stim.csv,READVersionB.csv,"Read Version B","Dissertation, read only version B",DIGESTION,STOMACH,Study1,F,7,43,Study,User,-,,Study/JOL,"Study Phase2",2211,,,-1,-1,,,,1
5f8f54f056dee01a45a09147,8yqu7u2lwa,Nick_Dissertation_EX1,1,259,2020-10-24T12:44:29-07:00,3.2512090206146,2,versionA_stim.csv,READVersionB.csv,"Read Version B","Dissertation, read only version B",CLOTHES,ATTIRE,Study1,B,43,41,Study,User,-,,Study/JOL,"Study Phase2",2936,,,-1,-1,,,,1
5f8f54f056dee01a45a09147,8yqu7u2lwa,Nick_Dissertation_EX1,1,260,2020-10-24T12:44:32-07:00,2.9032440185547,2,versionA_stim.csv,READVersionB.csv,"Read Version B","Dissertation, read only version B",PAST,FUTURE,Study1,S,61,15,Study,User,-,,Study/JOL,"Study Phase2",2558,,,-1,-1,,,,1
5f8f54f056dee01a45a09147,8yqu7u2lwa,Nick_Dissertation_EX1,1,261,2020-10-24T12:44:35-07:00,2.911957025528,2,versionA_stim.csv,READVersionB.csv,"Read Version B","Dissertation, read only version B",MALT,CHOCOLATE,BUFFER2,Buffer,88,87,Study,User,-,,Study/JOL,BUFFER4,2607,,,-1,-1,,,,1
5f8f54f056dee01a45a09147,8yqu7u2lwa,Nick_Dissertation_EX1,1,262,2020-10-24T12:44:37-07:00,2.7529499530792,2,versionA_stim.csv,READVersionB.csv,"Read Version B","Dissertation, read only version B",GEESE,GOOSE,BUFFER2,Buffer,86,89,Study,User,-,,Study/JOL,BUFFER4,2428,,,-1,-1,,,,1
5f8f54f056dee01a45a09147,8yqu7u2lwa,Nick_Dissertation_EX1,1,263,2020-10-24T12:44:40-07:00,2.6882438659668,2,versionA_stim.csv,READVersionB.csv,"Read Version B","Dissertation, read only version B",SHERRIF,POLICE,BUFFER2,Buffer,87,91,Study,User,-,,Study/JOL,BUFFER4,2123,,,-1,-1,,,,1
5f8f54f056dee01a45a09147,8yqu7u2lwa,Nick_Dissertation_EX1,1,264,2020-10-24T12:44:43-07:00,2.7963080406189,2,versionA_stim.csv,READVersionB.csv,"Read Version B","Dissertation, read only version B",THING,STUFF,BUFFER2,Buffer,90,88,Study,User,-,,Study/JOL,BUFFER4,2460,,,-1,-1,,,,1
5f8f54f056dee01a45a09147,8yqu7u2lwa,Nick_Dissertation_EX1,1,265,2020-10-24T12:44:45-07:00,2.4745900630951,2,versionA_stim.csv,READVersionB.csv,"Read Version B","Dissertation, read only version B",MOON,SPACE,BUFFER2,Buffer,89,90,Study,User,-,,Study/JOL,BUFFER4,2145,,,-1,-1,,,,1
5f8f54f056dee01a45a09147,8yqu7u2lwa,Nick_Dissertation_EX1,1,266,2020-10-24T12:44:56-07:00,10.68286895752,2,versionA_stim.csv,READVersionB.csv,"Read Version B","Dissertation, read only version B",,,,,,0,Instruct,User,-,"You have completed this section. Please press Enter.",Filler_Instruction,Instruct5,8229,,,-1,-1,,,,1
5f8f54f056dee01a45a09147,8yqu7u2lwa,Nick_Dissertation_EX1,1,267,2020-10-24T12:46:56-07:00,120.44816207886,2,versionA_stim.csv,READVersionB.csv,"Read Version B","Dissertation, read only version B",,,,,,0,FreeRecall,120,120,"Please list the 50 US states in reverse alphabetical order (z - a). The task will automatically advance to the next screen after two minutes.",,Filler2,120002,"West Virginia Washington Virginia South Dakota North Dakota New York New Jersey Kentucky Iowa Idaho Arkansas Alaska ",0,10233,119771,0,0,,1
5f8f54f056dee01a45a09147,8yqu7u2lwa,Nick_Dissertation_EX1,1,268,2020-10-24T12:47:09-07:00,12.902545928955,2,versionA_stim.csv,READVersionB.csv,"Read Version B","Dissertation, read only version B",,,,,,0,Instruct,-,10,"You will now be presented with the first word from each of the previously studied item pairs. Please type the missing word. If you do not know the word, you may guess or press Enter to skip forward to the next pair.",,Instruct6,12441,,,-1,-1,,,,1
5f8f54f056dee01a45a09147,8yqu7u2lwa,Nick_Dissertation_EX1,1,269,2020-10-24T12:47:28-07:00,18.46947312355,2,versionA_stim.csv,READVersionB.csv,"Read Version B","Dissertation, read only version B",PAW,DOG,Study1,F,15,14,Test,User,-,,Recall,Recall2,18140,dog,100,17166,17823,1,1,,1
5f8f54f056dee01a45a09147,8yqu7u2lwa,Nick_Dissertation_EX1,1,270,2020-10-24T12:47:37-07:00,9.5924248695374,2,versionA_stim.csv,READVersionB.csv,"Read Version B","Dissertation, read only version B",TAKE,SEIZE,Study1,B,29,49,Test,User,-,,Recall,Recall2,9261,seize,100,1821,8729,1,1,,1
5f8f54f056dee01a45a09147,8yqu7u2lwa,Nick_Dissertation_EX1,1,271,2020-10-24T12:47:48-07:00,10.737265110016,2,versionA_stim.csv,READVersionB.csv,"Read Version B","Dissertation, read only version B",BABY,CHILD,Study1,S,64,64,Test,User,-,,Recall,Recall2,10438,,0,-1,-1,0,0,,1
5f8f54f056dee01a45a09147,8yqu7u2lwa,Nick_Dissertation_EX1,1,272,2020-10-24T12:48:12-07:00,24.07906293869,2,versionA_stim.csv,READVersionB.csv,"Read Version B","Dissertation, read only version B",ROOT,PLANT,Study1,F,13,56,Test,User,-,,Recall,Recall2,23747,,0,-1,-1,0,0,,1
5f8f54f056dee01a45a09147,8yqu7u2lwa,Nick_Dissertation_EX1,1,273,2020-10-24T12:48:21-07:00,9.1601679325104,2,versionA_stim.csv,READVersionB.csv,"Read Version B","Dissertation, read only version B",PARK,HUNGRY,Study1,U,68,54,Test,User,-,,Recall,Recall2,8726,hungry,100,7553,8322,1,1,,1
5f8f54f056dee01a45a09147,8yqu7u2lwa,Nick_Dissertation_EX1,1,274,2020-10-24T12:48:55-07:00,33.204596042633,2,versionA_stim.csv,READVersionB.csv,"Read Version B","Dissertation, read only version B",BUG,WASP,Study1,B,32,19,Test,User,-,,Recall,Recall2,32837,spray,44.444444444444,27318,28808,0,0,,1
5f8f54f056dee01a45a09147,8yqu7u2lwa,Nick_Dissertation_EX1,1,275,2020-10-24T12:48:58-07:00,3.7385189533234,2,versionA_stim.csv,READVersionB.csv,"Read Version B","Dissertation, read only version B",DISCUSSION,TALK,Study1,F,21,80,Test,User,-,,Recall,Recall2,3403,,0,-1,-1,0,0,,1
5f8f54f056dee01a45a09147,8yqu7u2lwa,Nick_Dissertation_EX1,1,276,2020-10-24T12:49:01-07:00,2.5062880516052,2,versionA_stim.csv,READVersionB.csv,"Read Version B","Dissertation, read only version B",ART,LION,Study1,U,79,27,Test,User,-,,Recall,Recall2,2156,lion,100,1320,1726,1,1,,1
5f8f54f056dee01a45a09147,8yqu7u2lwa,Nick_Dissertation_EX1,1,277,2020-10-24T12:49:16-07:00,15.314389944077,2,versionA_stim.csv,READVersionB.csv,"Read Version B","Dissertation, read only version B",ORCHID,FLOWER,Study1,F,24,34,Test,User,-,,Recall,Recall2,13845,,0,-1,-1,0,0,,1
5f8f54f056dee01a45a09147,8yqu7u2lwa,Nick_Dissertation_EX1,1,278,2020-10-24T12:49:34-07:00,17.824407100677,2,versionA_stim.csv,READVersionB.csv,"Read Version B","Dissertation, read only version B",REVOLUTION,WAR,Study1,F,20,71,Test,User,-,,Recall,Recall2,17375,war,100,16447,16768,1,1,,1
5f8f54f056dee01a45a09147,8yqu7u2lwa,Nick_Dissertation_EX1,1,279,2020-10-24T12:49:52-07:00,18.489410877228,2,versionA_stim.csv,READVersionB.csv,"Read Version B","Dissertation, read only version B",SWAN,BIRD,Study1,F,14,73,Test,User,-,,Recall,Recall2,18169,bird,100,2871,5016,1,1,,1
5f8f54f056dee01a45a09147,8yqu7u2lwa,Nick_Dissertation_EX1,1,280,2020-10-24T12:49:55-07:00,2.2549932003021,2,versionA_stim.csv,READVersionB.csv,"Read Version B","Dissertation, read only version B",MATH,DIVISION,Study1,B,33,59,Test,User,-,,Recall,Recall2,1806,,0,-1,-1,0,0,,1
5f8f54f056dee01a45a09147,8yqu7u2lwa,Nick_Dissertation_EX1,1,281,2020-10-24T12:50:00-07:00,5.4117429256439,2,versionA_stim.csv,READVersionB.csv,"Read Version B","Dissertation, read only version B",PLANE,PILOT,Study1,B,44,68,Test,User,-,,Recall,Recall2,3803,pilot,100,2324,3107,1,1,,1
5f8f54f056dee01a45a09147,8yqu7u2lwa,Nick_Dissertation_EX1,1,282,2020-10-24T12:50:07-07:00,7.0415580272675,2,versionA_stim.csv,READVersionB.csv,"Read Version B","Dissertation, read only version B",HUNGER,FAMINE,Study1,B,40,35,Test,User,-,,Recall,Recall2,6720,,0,3069,4226,0,0,,1
5f8f54f056dee01a45a09147,8yqu7u2lwa,Nick_Dissertation_EX1,1,283,2020-10-24T12:50:13-07:00,5.8250238895416,2,versionA_stim.csv,READVersionB.csv,"Read Version B","Dissertation, read only version B",TRIAL,JURY,Study1,S,50,58,Test,User,-,,Recall,Recall2,5477,jury,100,3538,5090,1,1,,1
5f8f54f056dee01a45a09147,8yqu7u2lwa,Nick_Dissertation_EX1,1,284,2020-10-24T12:50:15-07:00,2.1112830638885,2,versionA_stim.csv,READVersionB.csv,"Read Version B","Dissertation, read only version B",HYGIENE,CLEAN,Study1,F,17,7,Test,User,-,,Recall,Recall2,1731,,0,-1,-1,0,0,,1
5f8f54f056dee01a45a09147,8yqu7u2lwa,Nick_Dissertation_EX1,1,285,2020-10-24T12:50:20-07:00,5.3736820220947,2,versionA_stim.csv,READVersionB.csv,"Read Version B","Dissertation, read only version B",BLOW,WIND,Study1,S,55,82,Test,User,-,,Recall,Recall2,4979,wind,100,3406,4506,1,1,,1
5f8f54f056dee01a45a09147,8yqu7u2lwa,Nick_Dissertation_EX1,1,286,2020-10-24T12:50:27-07:00,6.1189870834351,2,versionA_stim.csv,READVersionB.csv,"Read Version B","Dissertation, read only version B",DEBATE,SIGHT,Study1,U,73,24,Test,User,-,,Recall,Recall2,5597,,0,-1,-1,0,0,,1
5f8f54f056dee01a45a09147,8yqu7u2lwa,Nick_Dissertation_EX1,1,287,2020-10-24T12:50:30-07:00,3.2003297805786,2,versionA_stim.csv,READVersionB.csv,"Read Version B","Dissertation, read only version B",DARK,CAVE,Study1,B,28,20,Test,User,-,,Recall,Recall2,2866,cave,100,1381,2111,1,1,,1
5f8f54f056dee01a45a09147,8yqu7u2lwa,Nick_Dissertation_EX1,1,288,2020-10-24T12:50:48-07:00,18.405055046082,2,versionA_stim.csv,READVersionB.csv,"Read Version B","Dissertation, read only version B",STRONG,ACCIDENT,Study1,U,80,32,Test,User,-,,Recall,Recall2,18055,,0,-1,-1,0,0,,1
5f8f54f056dee01a45a09147,8yqu7u2lwa,Nick_Dissertation_EX1,1,289,2020-10-24T12:50:51-07:00,2.8262190818787,2,versionA_stim.csv,READVersionB.csv,"Read Version B","Dissertation, read only version B",HORNET,STING,Study1,F,11,9,Test,User,-,,Recall,Recall2,2492,wasp,22.222222222222,1435,2177,0,0,,1
5f8f54f056dee01a45a09147,8yqu7u2lwa,Nick_Dissertation_EX1,1,290,2020-10-24T12:50:55-07:00,3.9302809238434,2,versionA_stim.csv,READVersionB.csv,"Read Version B","Dissertation, read only version B",DUE,ASSIGNMENT,Study1,S,46,39,Test,User,-,,Recall,Recall2,3587,,0,-1,-1,0,0,,1
5f8f54f056dee01a45a09147,8yqu7u2lwa,Nick_Dissertation_EX1,1,291,2020-10-24T12:51:02-07:00,7.1605219841003,2,versionA_stim.csv,READVersionB.csv,"Read Version B","Dissertation, read only version B",HIDE,SICK,Study1,U,84,28,Test,User,-,,Recall,Recall2,6816,sick,100,5348,6493,1,1,,1
5f8f54f056dee01a45a09147,8yqu7u2lwa,Nick_Dissertation_EX1,1,292,2020-10-24T12:51:24-07:00,22.433954000473,2,versionA_stim.csv,READVersionB.csv,"Read Version B","Dissertation, read only version B",ARTERY,BRONZE,Study1,U,74,85,Test,User,-,,Recall,Recall2,22056,,0,-1,-1,0,0,,1
5f8f54f056dee01a45a09147,8yqu7u2lwa,Nick_Dissertation_EX1,1,293,2020-10-24T12:51:34-07:00,10.021545171738,2,versionA_stim.csv,READVersionB.csv,"Read Version B","Dissertation, read only version B",WORK,CHORE,Study1,B,39,25,Test,User,-,,Recall,Recall2,9589,wage,22.222222222222,8360,9078,0,0,,1
5f8f54f056dee01a45a09147,8yqu7u2lwa,Nick_Dissertation_EX1,1,294,2020-10-24T12:51:39-07:00,4.2379319667816,2,versionA_stim.csv,READVersionB.csv,"Read Version B","Dissertation, read only version B",GEOLOGY,ROCK,Study1,F,19,72,Test,User,-,,Recall,Recall2,3919,rock,100,2643,3602,1,1,,1
5f8f54f056dee01a45a09147,8yqu7u2lwa,Nick_Dissertation_EX1,1,295,2020-10-24T12:51:40-07:00,1.3992838859558,2,versionA_stim.csv,READVersionB.csv,"Read Version B","Dissertation, read only version B",WAY,OUT,Study1,F,16,40,Test,User,-,,Recall,Recall2,1072,"\",0,1068,1068,0,0,,1
5f8f54f056dee01a45a09147,8yqu7u2lwa,Nick_Dissertation_EX1,1,296,2020-10-24T12:51:44-07:00,3.6826989650726,2,versionA_stim.csv,READVersionB.csv,"Read Version B","Dissertation, read only version B",DEATH,BUSINESS,Study1,U,72,65,Test,User,-,,Recall,Recall2,3352,business,100,1159,2828,1,1,,1
5f8f54f056dee01a45a09147,8yqu7u2lwa,Nick_Dissertation_EX1,1,297,2020-10-24T12:51:46-07:00,2.0228910446167,2,versionA_stim.csv,READVersionB.csv,"Read Version B","Dissertation, read only version B",FULL,ENOUGH,Study1,B,26,69,Test,User,-,,Recall,Recall2,1682,,0,-1,-1,0,0,,1
5f8f54f056dee01a45a09147,8yqu7u2lwa,Nick_Dissertation_EX1,1,298,2020-10-24T12:51:50-07:00,3.7020399570465,2,versionA_stim.csv,READVersionB.csv,"Read Version B","Dissertation, read only version B",PAST,FUTURE,Study1,S,61,15,Test,User,-,,Recall,Recall2,3356,,0,-1,-1,0,0,,1
5f8f54f056dee01a45a09147,8yqu7u2lwa,Nick_Dissertation_EX1,1,299,2020-10-24T12:51:56-07:00,6.2596881389618,2,versionA_stim.csv,READVersionB.csv,"Read Version B","Dissertation, read only version B",SENTENCE,WORD,Study1,B,31,10,Test,User,-,,Recall,Recall2,5920,word,100,4657,5510,1,1,,1
5f8f54f056dee01a45a09147,8yqu7u2lwa,Nick_Dissertation_EX1,1,300,2020-10-24T12:51:58-07:00,2.3239049911499,2,versionA_stim.csv,READVersionB.csv,"Read Version B","Dissertation, read only version B",SHOE,FOOT,Study1,S,60,60,Test,User,-,,Recall,Recall2,1879,,0,-1,-1,0,0,,1
5f8f54f056dee01a45a09147,8yqu7u2lwa,Nick_Dissertation_EX1,1,301,2020-10-24T12:52:03-07:00,4.3973479270935,2,versionA_stim.csv,READVersionB.csv,"Read Version B","Dissertation, read only version B",FIX,HAND,Study1,U,75,50,Test,User,-,,Recall,Recall2,3861,,0,-1,-1,0,0,,1
5f8f54f056dee01a45a09147,8yqu7u2lwa,Nick_Dissertation_EX1,1,302,2020-10-24T12:52:10-07:00,7.2032790184021,2,versionA_stim.csv,READVersionB.csv,"Read Version B","Dissertation, read only version B",BEGIN,END,Study1,S,54,21,Test,User,-,,Recall,Recall2,6861,,0,-1,-1,0,0,,1
5f8f54f056dee01a45a09147,8yqu7u2lwa,Nick_Dissertation_EX1,1,303,2020-10-24T12:52:17-07:00,7.5417609214783,2,versionA_stim.csv,READVersionB.csv,"Read Version B","Dissertation, read only version B",WINE,CHEESE,Study1,S,57,83,Test,User,-,,Recall,Recall2,7184,cheese,100,1275,2105,1,1,,1
5f8f54f056dee01a45a09147,8yqu7u2lwa,Nick_Dissertation_EX1,1,304,2020-10-24T12:52:24-07:00,6.3458969593048,2,versionA_stim.csv,READVersionB.csv,"Read Version B","Dissertation, read only version B",BALL,RACKET,Study1,B,38,55,Test,User,-,,Recall,Recall2,6037,park,40,4689,5732,0,0,,1
5f8f54f056dee01a45a09147,8yqu7u2lwa,Nick_Dissertation_EX1,1,305,2020-10-24T12:52:39-07:00,15.565652132034,2,versionA_stim.csv,READVersionB.csv,"Read Version B","Dissertation, read only version B",LAW,ATTORNEY,Study1,B,34,66,Test,User,-,,Recall,Recall2,15227,attorney,100,10707,14848,1,1,,1
5f8f54f056dee01a45a09147,8yqu7u2lwa,Nick_Dissertation_EX1,1,306,2020-10-24T12:52:41-07:00,1.4920890331268,2,versionA_stim.csv,READVersionB.csv,"Read Version B","Dissertation, read only version B",SOON,BELT,Study1,U,70,22,Test,User,-,,Recall,Recall2,1024,,0,-1,-1,0,0,,1
5f8f54f056dee01a45a09147,8yqu7u2lwa,Nick_Dissertation_EX1,1,307,2020-10-24T12:52:42-07:00,1.1754250526428,2,versionA_stim.csv,READVersionB.csv,"Read Version B","Dissertation, read only version B",ALLOW,TUCK,Study1,U,78,57,Test,User,-,,Recall,Recall2,827,,0,-1,-1,0,0,,1
5f8f54f056dee01a45a09147,8yqu7u2lwa,Nick_Dissertation_EX1,1,308,2020-10-24T12:52:46-07:00,3.8730199337006,2,versionA_stim.csv,READVersionB.csv,"Read Version B","Dissertation, read only version B",EDITOR,NEWS,Study1,F,10,45,Test,User,-,,Recall,Recall2,3512,,0,-1,-1,0,0,,1
5f8f54f056dee01a45a09147,8yqu7u2lwa,Nick_Dissertation_EX1,1,309,2020-10-24T12:52:54-07:00,8.2927968502045,2,versionA_stim.csv,READVersionB.csv,"Read Version B","Dissertation, read only version B",CASH,WOULD,Study1,U,83,26,Test,User,-,,Recall,Recall2,6851,would,100,5288,6441,1,1,,1
5f8f54f056dee01a45a09147,8yqu7u2lwa,Nick_Dissertation_EX1,1,310,2020-10-24T12:53:13-07:00,18.887764215469,2,versionA_stim.csv,READVersionB.csv,"Read Version B","Dissertation, read only version B",HAPPY,CAR,Study1,U,77,74,Test,User,-,,Recall,Recall2,18547,,0,-1,-1,0,0,,1
5f8f54f056dee01a45a09147,8yqu7u2lwa,Nick_Dissertation_EX1,1,311,2020-10-24T12:53:28-07:00,14.768063783646,2,versionA_stim.csv,READVersionB.csv,"Read Version B","Dissertation, read only version B",MACHINE,POSITION,Study1,U,76,17,Test,User,-,,Recall,Recall2,14435,,0,-1,-1,0,0,,1
5f8f54f056dee01a45a09147,8yqu7u2lwa,Nick_Dissertation_EX1,1,312,2020-10-24T12:53:33-07:00,5.0032720565796,2,versionA_stim.csv,READVersionB.csv,"Read Version B","Dissertation, read only version B",FIRE,BLAZE,Study1,B,45,23,Test,User,-,,Recall,Recall2,4633,blaze,100,2927,4037,1,1,,1
5f8f54f056dee01a45a09147,8yqu7u2lwa,Nick_Dissertation_EX1,1,313,2020-10-24T12:53:46-07:00,13.639799118042,2,versionA_stim.csv,READVersionB.csv,"Read Version B","Dissertation, read only version B",BRIDGE,WATER,Study1,F,18,11,Test,User,-,,Recall,Recall2,13242,water,100,1536,3865,1,1,,1
5f8f54f056dee01a45a09147,8yqu7u2lwa,Nick_Dissertation_EX1,1,314,2020-10-24T12:53:52-07:00,5.8026909828186,2,versionA_stim.csv,READVersionB.csv,"Read Version B","Dissertation, read only version B",BATHROOM,TOILET,Study1,S,58,47,Test,User,-,,Recall,Recall2,5323,toilet,100,3642,4918,1,1,,1
5f8f54f056dee01a45a09147,8yqu7u2lwa,Nick_Dissertation_EX1,1,315,2020-10-24T12:53:55-07:00,2.9418630599976,2,versionA_stim.csv,READVersionB.csv,"Read Version B","Dissertation, read only version B",KEY,LATCH,Study1,B,36,42,Test,User,-,,Recall,Recall2,2622,,0,-1,-1,0,0,,1
5f8f54f056dee01a45a09147,8yqu7u2lwa,Nick_Dissertation_EX1,1,316,2020-10-24T12:53:56-07:00,1.135134935379,2,versionA_stim.csv,READVersionB.csv,"Read Version B","Dissertation, read only version B",SMELL,STENCH,Study1,B,42,78,Test,User,-,,Recall,Recall2,786,,0,-1,-1,0,0,,1
5f8f54f056dee01a45a09147,8yqu7u2lwa,Nick_Dissertation_EX1,1,317,2020-10-24T12:53:57-07:00,0.99650001525879,2,versionA_stim.csv,READVersionB.csv,"Read Version B","Dissertation, read only version B",GREAT,FANTASTIC,Study1,B,35,62,Test,User,-,,Recall,Recall2,667,,0,-1,-1,0,0,,1
5f8f54f056dee01a45a09147,8yqu7u2lwa,Nick_Dissertation_EX1,1,318,2020-10-24T12:54:01-07:00,3.7619650363922,2,versionA_stim.csv,READVersionB.csv,"Read Version B","Dissertation, read only version B",HOT,CHILI,Study1,B,37,84,Test,User,-,,Recall,Recall2,3400,chili,100,1776,2937,1,1,,1
5f8f54f056dee01a45a09147,8yqu7u2lwa,Nick_Dissertation_EX1,1,319,2020-10-24T12:54:17-07:00,15.643949985504,2,versionA_stim.csv,READVersionB.csv,"Read Version B","Dissertation, read only version B",KING,VASE,Study1,U,85,44,Test,User,-,,Recall,Recall2,15313,,0,-1,-1,0,0,,1
5f8f54f056dee01a45a09147,8yqu7u2lwa,Nick_Dissertation_EX1,1,320,2020-10-24T12:54:21-07:00,4.2964839935303,2,versionA_stim.csv,READVersionB.csv,"Read Version B","Dissertation, read only version B",CIRCLE,ROUND,Study1,S,65,61,Test,User,-,,Recall,Recall2,3632,round,100,1883,3175,1,1,,1
5f8f54f056dee01a45a09147,8yqu7u2lwa,Nick_Dissertation_EX1,1,321,2020-10-24T12:54:23-07:00,2.1151609420776,2,versionA_stim.csv,READVersionB.csv,"Read Version B","Dissertation, read only version B",HONEY,BEE,Study1,S,63,33,Test,User,-,,Recall,Recall2,1772,bee,100,940,1301,1,1,,1
5f8f54f056dee01a45a09147,8yqu7u2lwa,Nick_Dissertation_EX1,1,322,2020-10-24T12:54:26-07:00,2.7989149093628,2,versionA_stim.csv,READVersionB.csv,"Read Version B","Dissertation, read only version B",KIDNEY,LIVER,Study1,S,53,86,Test,User,-,,Recall,Recall2,2469,liver,100,1272,1983,1,1,,1
5f8f54f056dee01a45a09147,8yqu7u2lwa,Nick_Dissertation_EX1,1,323,2020-10-24T12:54:37-07:00,11.366656064987,2,versionA_stim.csv,READVersionB.csv,"Read Version B","Dissertation, read only version B",LETTUCE,SALAD,Study1,S,59,38,Test,User,-,,Recall,Recall2,11033,,0,-1,-1,0,0,,1
5f8f54f056dee01a45a09147,8yqu7u2lwa,Nick_Dissertation_EX1,1,324,2020-10-24T12:54:46-07:00,8.3902671337128,2,versionA_stim.csv,READVersionB.csv,"Read Version B","Dissertation, read only version B",HEIGHT,GROWTH,Study1,B,30,63,Test,User,-,,Recall,Recall2,6174,growth,100,3420,5810,1,1,,1
5f8f54f056dee01a45a09147,8yqu7u2lwa,Nick_Dissertation_EX1,1,325,2020-10-24T12:54:56-07:00,10.08713889122,2,versionA_stim.csv,READVersionB.csv,"Read Version B","Dissertation, read only version B",DUMP,WASTE,Study1,S,49,51,Test,User,-,,Recall,Recall2,9713,,0,-1,-1,0,0,,1
5f8f54f056dee01a45a09147,8yqu7u2lwa,Nick_Dissertation_EX1,1,326,2020-10-24T12:55:03-07:00,7.692547082901,2,versionA_stim.csv,READVersionB.csv,"Read Version B","Dissertation, read only version B",LIFT,WOMAN,Study1,U,69,70,Test,User,-,,Recall,Recall2,7222,,0,-1,-1,0,0,,1
5f8f54f056dee01a45a09147,8yqu7u2lwa,Nick_Dissertation_EX1,1,327,2020-10-24T12:55:09-07:00,5.8338079452515,2,versionA_stim.csv,READVersionB.csv,"Read Version B","Dissertation, read only version B",NUMBER,AMOUNT,Study1,S,47,18,Test,User,-,,Recall,Recall2,5489,,0,-1,-1,0,0,,1
5f8f54f056dee01a45a09147,8yqu7u2lwa,Nick_Dissertation_EX1,1,328,2020-10-24T12:55:15-07:00,5.5580499172211,2,versionA_stim.csv,READVersionB.csv,"Read Version B","Dissertation, read only version B",ARCHITECTURE,DESIGN,Study1,S,51,37,Test,User,-,,Recall,Recall2,5112,design,100,3449,4741,1,1,,1
5f8f54f056dee01a45a09147,8yqu7u2lwa,Nick_Dissertation_EX1,1,329,2020-10-24T12:55:19-07:00,4.0917069911957,2,versionA_stim.csv,READVersionB.csv,"Read Version B","Dissertation, read only version B",GRILL,BAR,Study1,S,52,67,Test,User,-,,Recall,Recall2,2748,bar,100,1746,2184,1,1,,1
5f8f54f056dee01a45a09147,8yqu7u2lwa,Nick_Dissertation_EX1,1,330,2020-10-24T12:55:27-07:00,8.2133240699768,2,versionA_stim.csv,READVersionB.csv,"Read Version B","Dissertation, read only version B",DIGESTION,STOMACH,Study1,F,7,43,Test,User,-,,Recall,Recall2,7828,,0,-1,-1,0,0,,1
5f8f54f056dee01a45a09147,8yqu7u2lwa,Nick_Dissertation_EX1,1,331,2020-10-24T12:55:29-07:00,1.9647319316864,2,versionA_stim.csv,READVersionB.csv,"Read Version B","Dissertation, read only version B",BITTER,COLD,Study1,F,12,8,Test,User,-,,Recall,Recall2,1593,,0,-1,-1,0,0,,1
5f8f54f056dee01a45a09147,8yqu7u2lwa,Nick_Dissertation_EX1,1,332,2020-10-24T12:55:34-07:00,4.9843549728394,2,versionA_stim.csv,READVersionB.csv,"Read Version B","Dissertation, read only version B",SLEEP,DROWSY,Study1,B,41,53,Test,User,-,,Recall,Recall2,4607,,0,-1,-1,0,0,,1
5f8f54f056dee01a45a09147,8yqu7u2lwa,Nick_Dissertation_EX1,1,333,2020-10-24T12:55:46-07:00,11.668029069901,2,versionA_stim.csv,READVersionB.csv,"Read Version B","Dissertation, read only version B",MEANING,DEFINITION,Study1,S,62,29,Test,User,-,,Recall,Recall2,11277,definition,100,8763,10743,1,1,,1
5f8f54f056dee01a45a09147,8yqu7u2lwa,Nick_Dissertation_EX1,1,334,2020-10-24T12:56:11-07:00,25.784034013748,2,versionA_stim.csv,READVersionB.csv,"Read Version B","Dissertation, read only version B",CHISEL,HAMMER,Study1,F,9,13,Test,User,-,,Recall,Recall2,25402,hammer,100,4929,6169,1,1,,1
5f8f54f056dee01a45a09147,8yqu7u2lwa,Nick_Dissertation_EX1,1,335,2020-10-24T12:56:24-07:00,12.236890077591,2,versionA_stim.csv,READVersionB.csv,"Read Version B","Dissertation, read only version B",DIETARY,SACKING,Study1,U,67,81,Test,User,-,,Recall,Recall2,11773,,0,-1,-1,0,0,,1
5f8f54f056dee01a45a09147,8yqu7u2lwa,Nick_Dissertation_EX1,1,336,2020-10-24T12:56:44-07:00,20.404951810837,2,versionA_stim.csv,READVersionB.csv,"Read Version B","Dissertation, read only version B",DELINQUENT,BAD,Study1,F,6,16,Test,User,-,,Recall,Recall2,20064,,0,-1,-1,0,0,,1
5f8f54f056dee01a45a09147,8yqu7u2lwa,Nick_Dissertation_EX1,1,337,2020-10-24T12:57:02-07:00,18.228692054749,2,versionA_stim.csv,READVersionB.csv,"Read Version B","Dissertation, read only version B",TUNA,FISH,Study1,F,25,31,Test,User,-,,Recall,Recall2,17895,fish,100,15623,17533,1,1,,1
5f8f54f056dee01a45a09147,8yqu7u2lwa,Nick_Dissertation_EX1,1,338,2020-10-24T12:57:09-07:00,6.4884049892426,2,versionA_stim.csv,READVersionB.csv,"Read Version B","Dissertation, read only version B",HERD,COW,Study1,F,22,76,Test,User,-,,Recall,Recall2,5809,cow,100,4499,5214,1,1,,1
5f8f54f056dee01a45a09147,8yqu7u2lwa,Nick_Dissertation_EX1,1,339,2020-10-24T12:57:17-07:00,7.8232750892639,2,versionA_stim.csv,READVersionB.csv,"Read Version B","Dissertation, read only version B",LOCATION,SITE,Study1,S,48,12,Test,User,-,,Recall,Recall2,7473,site,100,5767,6844,1,1,,1
5f8f54f056dee01a45a09147,8yqu7u2lwa,Nick_Dissertation_EX1,1,340,2020-10-24T12:57:18-07:00,1.4610118865967,2,versionA_stim.csv,READVersionB.csv,"Read Version B","Dissertation, read only version B",CLOTHES,ATTIRE,Study1,B,43,41,Test,User,-,,Recall,Recall2,950,,0,-1,-1,0,0,,1
5f8f54f056dee01a45a09147,8yqu7u2lwa,Nick_Dissertation_EX1,1,341,2020-10-24T12:57:33-07:00,14.896658182144,2,versionA_stim.csv,READVersionB.csv,"Read Version B","Dissertation, read only version B",CREDIT,CARD,Study1,F,23,36,Test,User,-,,Recall,Recall2,14537,,0,-1,-1,0,0,,1
5f8f54f056dee01a45a09147,8yqu7u2lwa,Nick_Dissertation_EX1,1,342,2020-10-24T12:57:34-07:00,1.4437479972839,2,versionA_stim.csv,READVersionB.csv,"Read Version B","Dissertation, read only version B",PUSHER,CLUTTER,Study1,U,66,77,Test,User,-,,Recall,Recall2,1084,,0,-1,-1,0,0,,1
5f8f54f056dee01a45a09147,8yqu7u2lwa,Nick_Dissertation_EX1,1,343,2020-10-24T12:57:38-07:00,3.4339189529419,2,versionA_stim.csv,READVersionB.csv,"Read Version B","Dissertation, read only version B",POP,SODA,Study1,S,56,52,Test,User,-,,Recall,Recall2,3113,soda,100,1567,2552,1,1,,1
5f8f54f056dee01a45a09147,8yqu7u2lwa,Nick_Dissertation_EX1,1,344,2020-10-24T12:57:39-07:00,1.3980679512024,2,versionA_stim.csv,READVersionB.csv,"Read Version B","Dissertation, read only version B",SUGAR,RIDDLE,Study1,U,81,48,Test,User,-,,Recall,Recall2,1072,,0,-1,-1,0,0,,1
5f8f54f056dee01a45a09147,8yqu7u2lwa,Nick_Dissertation_EX1,1,345,2020-10-24T12:57:43-07:00,3.963751077652,2,versionA_stim.csv,READVersionB.csv,"Read Version B","Dissertation, read only version B",DRINK,SIP,Study1,B,27,79,Test,User,-,,Recall,Recall2,3620,,0,-1,-1,0,0,,1
5f8f54f056dee01a45a09147,8yqu7u2lwa,Nick_Dissertation_EX1,1,346,2020-10-24T12:57:48-07:00,4.9323320388794,2,versionA_stim.csv,READVersionB.csv,"Read Version B","Dissertation, read only version B",VALLEY,ADD,Study1,U,82,46,Test,User,-,,Recall,Recall2,4618,,0,-1,-1,0,0,,1
5f8f54f056dee01a45a09147,8yqu7u2lwa,Nick_Dissertation_EX1,1,347,2020-10-24T12:57:56-07:00,7.7210049629211,2,versionA_stim.csv,READVersionB.csv,"Read Version B","Dissertation, read only version B",WAGE,MONEY,Study1,F,8,75,Test,User,-,,Recall,Recall2,7399,money,100,5709,6873,1,1,,1
5f8f54f056dee01a45a09147,8yqu7u2lwa,Nick_Dissertation_EX1,1,348,2020-10-24T12:57:59-07:00,2.7724208831787,2,versionA_stim.csv,READVersionB.csv,"Read Version B","Dissertation, read only version B",DISCOVER,FLOOR,Study1,U,71,30,Test,User,-,,Recall,Recall2,2448,,0,-1,-1,0,0,,1
5f8f54f056dee01a45a09147,8yqu7u2lwa,Nick_Dissertation_EX1,1,349,2020-10-24T12:58:01-07:00,2.3766579627991,2,versionA_stim.csv,READVersionB.csv,"Read Version B","Dissertation, read only version B",,,,,,0,Instruct,User,-,"You have completed this section. Please press Enter.",,Instruct7,2047,,,-1,-1,,,,1
5f8f54f056dee01a45a09147,8yqu7u2lwa,Nick_Dissertation_EX1,1,350,2020-10-24T12:58:05-07:00,4.0203030109406,2,versionA_stim.csv,READVersionB.csv,"Read Version B","Dissertation, read only version B",,,,,,0,Instruct,User,-,"The following screen will ask you a few questions abour your experience today. You must complete these questions to receive credit.",,Instruct8,3447,,,-1,-1,,,,1
