Username,ID,ExperimentName,Session,Trial,Date,TimeDif,"Condition Number","Stimuli File","Order File","Condition Description","Condition Notes",Stimuli*Cue,Stimuli*Answer,Stimuli*Shuffle,"Stimuli*Stimuli Notes",Stimuli*Value,Procedure*Item,"Procedure*Trial Type","Procedure*Max Time","Procedure*Min Time",Procedure*Text,"Procedure*Procedure Notes",Procedure*Shuffle,Response*RT,Response*Response,Response*Accuracy,Response*RTfirst,Response*RTlast,Response*strictAcc,Response*lenientAcc,Response*focus,Response*Focus
5ebc9542e7dea50e8451e07b,tyc54diywv,Nick_Dissertation_EX1,1,1,2020-10-24T10:23:01-07:00,12.471180915833,2,versionA_stim.csv,READVersionB.csv,"Read Version B","Dissertation, read only version B",,,,,,0,Instruct,-,10,"Please study each of the following word pairs. Remember that your memory will be tested! When finished, press Enter to move to the next pair.",Initial_Instruct,Instruct1,12238,,,-1,-1,,,,1
5ebc9542e7dea50e8451e07b,tyc54diywv,Nick_Dissertation_EX1,1,2,2020-10-24T10:23:06-07:00,5.1392359733582,2,versionA_stim.csv,READVersionB.csv,"Read Version B","Dissertation, read only version B",CAMP,ADVENTURE,BUFFER3,Buffer,95,93,Study,User,-,,Study/JOL,BUFFER,4801,,,-1,-1,,,,1
5ebc9542e7dea50e8451e07b,tyc54diywv,Nick_Dissertation_EX1,1,3,2020-10-24T10:23:10-07:00,3.9296581745148,2,versionA_stim.csv,READVersionB.csv,"Read Version B","Dissertation, read only version B",CARROT,POTATO,BUFFER3,Buffer,91,95,Study,User,-,,Study/JOL,BUFFER,3610,,,-1,-1,,,,1
5ebc9542e7dea50e8451e07b,tyc54diywv,Nick_Dissertation_EX1,1,4,2020-10-24T10:23:13-07:00,2.4232008457184,2,versionA_stim.csv,READVersionB.csv,"Read Version B","Dissertation, read only version B",SHRIMP,FISH,BUFFER3,Buffer,93,92,Study,User,-,,Study/JOL,BUFFER,2085,,,-1,-1,,,,1
5ebc9542e7dea50e8451e07b,tyc54diywv,Nick_Dissertation_EX1,1,5,2020-10-24T10:23:15-07:00,2.5050530433655,2,versionA_stim.csv,READVersionB.csv,"Read Version B","Dissertation, read only version B",ICE,FROZEN,BUFFER3,Buffer,94,94,Study,User,-,,Study/JOL,BUFFER,2187,,,-1,-1,,,,1
5ebc9542e7dea50e8451e07b,tyc54diywv,Nick_Dissertation_EX1,1,6,2020-10-24T10:23:18-07:00,3.0573859214783,2,versionA_stim.csv,READVersionB.csv,"Read Version B","Dissertation, read only version B",NOODLE,STRING,BUFFER3,Buffer,92,96,Study,User,-,,Study/JOL,BUFFER,2748,,,-1,-1,,,,1
5ebc9542e7dea50e8451e07b,tyc54diywv,Nick_Dissertation_EX1,1,7,2020-10-24T10:23:21-07:00,3.0163450241089,2,versionA_stim.csv,READVersionB.csv,"Read Version B","Dissertation, read only version B",RAZOR,SHAVE,Study2,S,136,167,Study,User,-,,Study/JOL,"Study Phase",2712,,,-1,-1,,,,1
5ebc9542e7dea50e8451e07b,tyc54diywv,Nick_Dissertation_EX1,1,8,2020-10-24T10:23:24-07:00,3.2960751056671,2,versionA_stim.csv,READVersionB.csv,"Read Version B","Dissertation, read only version B",FURRY,DOG,Study2,F,102,157,Study,User,-,,Study/JOL,"Study Phase",2964,,,-1,-1,,,,1
5ebc9542e7dea50e8451e07b,tyc54diywv,Nick_Dissertation_EX1,1,9,2020-10-24T10:23:28-07:00,3.957407951355,2,versionA_stim.csv,READVersionB.csv,"Read Version B","Dissertation, read only version B",THREAD,THIMBLE,Study2,B,121,116,Study,User,-,,Study/JOL,"Study Phase",3635,,,-1,-1,,,,1
5ebc9542e7dea50e8451e07b,tyc54diywv,Nick_Dissertation_EX1,1,10,2020-10-24T10:23:31-07:00,2.8267838954926,2,versionA_stim.csv,READVersionB.csv,"Read Version B","Dissertation, read only version B",LISTEN,FICTION,Study2,U,164,127,Study,User,-,,Study/JOL,"Study Phase",2503,,,-1,-1,,,,1
5ebc9542e7dea50e8451e07b,tyc54diywv,Nick_Dissertation_EX1,1,11,2020-10-24T10:23:34-07:00,2.7069320678711,2,versionA_stim.csv,READVersionB.csv,"Read Version B","Dissertation, read only version B",FIGHT,BRAWL,Study2,B,135,135,Study,User,-,,Study/JOL,"Study Phase",2395,,,-1,-1,,,,1
5ebc9542e7dea50e8451e07b,tyc54diywv,Nick_Dissertation_EX1,1,12,2020-10-24T10:23:37-07:00,2.7160730361938,2,versionA_stim.csv,READVersionB.csv,"Read Version B","Dissertation, read only version B",INCENSE,SMELL,Study2,F,110,139,Study,User,-,,Study/JOL,"Study Phase",2337,,,-1,-1,,,,1
5ebc9542e7dea50e8451e07b,tyc54diywv,Nick_Dissertation_EX1,1,13,2020-10-24T10:23:40-07:00,3.294704914093,2,versionA_stim.csv,READVersionB.csv,"Read Version B","Dissertation, read only version B",TURN,FLIP,Study2,B,116,117,Study,User,-,,Study/JOL,"Study Phase",2962,,,-1,-1,,,,1
5ebc9542e7dea50e8451e07b,tyc54diywv,Nick_Dissertation_EX1,1,14,2020-10-24T10:23:43-07:00,3.4547581672668,2,versionA_stim.csv,READVersionB.csv,"Read Version B","Dissertation, read only version B",TEMPERATURE,Morning,Study2,U,173,165,Study,User,-,,Study/JOL,"Study Phase",3143,,,-1,-1,,,,1
5ebc9542e7dea50e8451e07b,tyc54diywv,Nick_Dissertation_EX1,1,15,2020-10-24T10:23:48-07:00,4.4596810340881,2,versionA_stim.csv,READVersionB.csv,"Read Version B","Dissertation, read only version B",JUSTICE,MAROON,Study2,U,156,176,Study,User,-,,Study/JOL,"Study Phase",4120,,,-1,-1,,,,1
5ebc9542e7dea50e8451e07b,tyc54diywv,Nick_Dissertation_EX1,1,16,2020-10-24T10:23:51-07:00,2.8848509788513,2,versionA_stim.csv,READVersionB.csv,"Read Version B","Dissertation, read only version B",EXTENSION,LONG,Study2,F,96,132,Study,User,-,,Study/JOL,"Study Phase",2566,,,-1,-1,,,,1
5ebc9542e7dea50e8451e07b,tyc54diywv,Nick_Dissertation_EX1,1,17,2020-10-24T10:23:55-07:00,3.8776278495789,2,versionA_stim.csv,READVersionB.csv,"Read Version B","Dissertation, read only version B",DINE,EAT,Study2,F,111,100,Study,User,-,,Study/JOL,"Study Phase",2099,,,-1,-1,,,,1
5ebc9542e7dea50e8451e07b,tyc54diywv,Nick_Dissertation_EX1,1,18,2020-10-24T10:23:58-07:00,3.6984031200409,2,versionA_stim.csv,READVersionB.csv,"Read Version B","Dissertation, read only version B",ALONE,LONELY,Study2,S,145,115,Study,User,-,,Study/JOL,"Study Phase",2028,,,-1,-1,,,,1
5ebc9542e7dea50e8451e07b,tyc54diywv,Nick_Dissertation_EX1,1,19,2020-10-24T10:24:02-07:00,3.2170779705048,2,versionA_stim.csv,READVersionB.csv,"Read Version B","Dissertation, read only version B",VEHICLE,CHARM,Study2,U,160,138,Study,User,-,,Study/JOL,"Study Phase",2891,,,-1,-1,,,,1
5ebc9542e7dea50e8451e07b,tyc54diywv,Nick_Dissertation_EX1,1,20,2020-10-24T10:24:05-07:00,3.7216320037842,2,versionA_stim.csv,READVersionB.csv,"Read Version B","Dissertation, read only version B",CRACKLE,ABLE,Study2,U,162,110,Study,User,-,,Study/JOL,"Study Phase",3413,,,-1,-1,,,,1
5ebc9542e7dea50e8451e07b,tyc54diywv,Nick_Dissertation_EX1,1,21,2020-10-24T10:24:08-07:00,3.1571209430695,2,versionA_stim.csv,READVersionB.csv,"Read Version B","Dissertation, read only version B",OWN,HAVE,Study2,S,153,124,Study,User,-,,Study/JOL,"Study Phase",2809,,,-1,-1,,,,1
5ebc9542e7dea50e8451e07b,tyc54diywv,Nick_Dissertation_EX1,1,22,2020-10-24T10:24:12-07:00,3.7722201347351,2,versionA_stim.csv,READVersionB.csv,"Read Version B","Dissertation, read only version B",ADJOURN,END,Study2,F,101,122,Study,User,-,,Study/JOL,"Study Phase",3459,,,-1,-1,,,,1
5ebc9542e7dea50e8451e07b,tyc54diywv,Nick_Dissertation_EX1,1,23,2020-10-24T10:24:15-07:00,3.2166039943695,2,versionA_stim.csv,READVersionB.csv,"Read Version B","Dissertation, read only version B",MEAT,OBTAIN,Study2,U,161,123,Study,User,-,,Study/JOL,"Study Phase",2907,,,-1,-1,,,,1
5ebc9542e7dea50e8451e07b,tyc54diywv,Nick_Dissertation_EX1,1,24,2020-10-24T10:24:18-07:00,2.2228488922119,2,versionA_stim.csv,READVersionB.csv,"Read Version B","Dissertation, read only version B",MONEY,BANKER,Study2,B,132,130,Study,User,-,,Study/JOL,"Study Phase",1851,,,-1,-1,,,,1
5ebc9542e7dea50e8451e07b,tyc54diywv,Nick_Dissertation_EX1,1,25,2020-10-24T10:24:20-07:00,2.6006240844727,2,versionA_stim.csv,READVersionB.csv,"Read Version B","Dissertation, read only version B",PHONE,COMMUNICATION,Study2,S,149,150,Study,User,-,,Study/JOL,"Study Phase",2172,,,-1,-1,,,,1
5ebc9542e7dea50e8451e07b,tyc54diywv,Nick_Dissertation_EX1,1,26,2020-10-24T10:24:25-07:00,4.7224819660187,2,versionA_stim.csv,READVersionB.csv,"Read Version B","Dissertation, read only version B",MIRROR,CHILDREN,Study2,U,174,154,Study,User,-,,Study/JOL,"Study Phase",4408,,,-1,-1,,,,1
5ebc9542e7dea50e8451e07b,tyc54diywv,Nick_Dissertation_EX1,1,27,2020-10-24T10:24:28-07:00,3.3344459533691,2,versionA_stim.csv,READVersionB.csv,"Read Version B","Dissertation, read only version B",HONEST,TRUTHFUL,Study2,B,133,103,Study,User,-,,Study/JOL,"Study Phase",2990,,,-1,-1,,,,1
5ebc9542e7dea50e8451e07b,tyc54diywv,Nick_Dissertation_EX1,1,28,2020-10-24T10:24:32-07:00,3.3071188926697,2,versionA_stim.csv,READVersionB.csv,"Read Version B","Dissertation, read only version B",SAFETY,SEATBELT,Study2,S,147,174,Study,User,-,,Study/JOL,"Study Phase",3007,,,-1,-1,,,,1
5ebc9542e7dea50e8451e07b,tyc54diywv,Nick_Dissertation_EX1,1,29,2020-10-24T10:24:34-07:00,2.6892151832581,2,versionA_stim.csv,READVersionB.csv,"Read Version B","Dissertation, read only version B",CLUE,GAME,Study2,F,97,170,Study,User,-,,Study/JOL,"Study Phase",2375,,,-1,-1,,,,1
5ebc9542e7dea50e8451e07b,tyc54diywv,Nick_Dissertation_EX1,1,30,2020-10-24T10:24:36-07:00,2.0283899307251,2,versionA_stim.csv,READVersionB.csv,"Read Version B","Dissertation, read only version B",SHOELACE,TIE,Study2,F,99,168,Study,User,-,,Study/JOL,"Study Phase",1683,,,-1,-1,,,,1
5ebc9542e7dea50e8451e07b,tyc54diywv,Nick_Dissertation_EX1,1,31,2020-10-24T10:24:39-07:00,2.3288879394531,2,versionA_stim.csv,READVersionB.csv,"Read Version B","Dissertation, read only version B",CANDLE,WAX,Study2,S,139,137,Study,User,-,,Study/JOL,"Study Phase",2007,,,-1,-1,,,,1
5ebc9542e7dea50e8451e07b,tyc54diywv,Nick_Dissertation_EX1,1,32,2020-10-24T10:24:41-07:00,2.6227350234985,2,versionA_stim.csv,READVersionB.csv,"Read Version B","Dissertation, read only version B",ELEMENT,CARBON,Study2,S,141,104,Study,User,-,,Study/JOL,"Study Phase",2205,,,-1,-1,,,,1
5ebc9542e7dea50e8451e07b,tyc54diywv,Nick_Dissertation_EX1,1,33,2020-10-24T10:24:45-07:00,3.9379160404205,2,versionA_stim.csv,READVersionB.csv,"Read Version B","Dissertation, read only version B",MAIN,SCAR,Study2,U,175,125,Study,User,-,,Study/JOL,"Study Phase",3619,,,-1,-1,,,,1
5ebc9542e7dea50e8451e07b,tyc54diywv,Nick_Dissertation_EX1,1,34,2020-10-24T10:24:48-07:00,2.3202030658722,2,versionA_stim.csv,READVersionB.csv,"Read Version B","Dissertation, read only version B",MULE,DONKEY,Study2,F,108,97,Study,User,-,,Study/JOL,"Study Phase",1981,,,-1,-1,,,,1
5ebc9542e7dea50e8451e07b,tyc54diywv,Nick_Dissertation_EX1,1,35,2020-10-24T10:24:50-07:00,2.5208389759064,2,versionA_stim.csv,READVersionB.csv,"Read Version B","Dissertation, read only version B",BIRD,PENGUIN,Study2,B,119,162,Study,User,-,,Study/JOL,"Study Phase",2094,,,-1,-1,,,,1
5ebc9542e7dea50e8451e07b,tyc54diywv,Nick_Dissertation_EX1,1,36,2020-10-24T10:24:55-07:00,5.2599639892578,2,versionA_stim.csv,READVersionB.csv,"Read Version B","Dissertation, read only version B",ROD,REEL,Study2,S,150,108,Study,User,-,,Study/JOL,"Study Phase",4944,,,-1,-1,,,,1
5ebc9542e7dea50e8451e07b,tyc54diywv,Nick_Dissertation_EX1,1,37,2020-10-24T10:24:59-07:00,3.3317930698395,2,versionA_stim.csv,READVersionB.csv,"Read Version B","Dissertation, read only version B",LEASE,TOIL,Study2,U,170,149,Study,User,-,,Study/JOL,"Study Phase",2969,,,-1,-1,,,,1
5ebc9542e7dea50e8451e07b,tyc54diywv,Nick_Dissertation_EX1,1,38,2020-10-24T10:25:01-07:00,2.0086698532104,2,versionA_stim.csv,READVersionB.csv,"Read Version B","Dissertation, read only version B",CACTUS,PLANT,Study2,F,98,140,Study,User,-,,Study/JOL,"Study Phase",1676,,,-1,-1,,,,1
5ebc9542e7dea50e8451e07b,tyc54diywv,Nick_Dissertation_EX1,1,39,2020-10-24T10:25:02-07:00,1.4224901199341,2,versionA_stim.csv,READVersionB.csv,"Read Version B","Dissertation, read only version B",RIGHTS,EQUAL,Study2,S,137,158,Study,User,-,,Study/JOL,"Study Phase",1099,,,-1,-1,,,,1
5ebc9542e7dea50e8451e07b,tyc54diywv,Nick_Dissertation_EX1,1,40,2020-10-24T10:25:04-07:00,2.0004818439484,2,versionA_stim.csv,READVersionB.csv,"Read Version B","Dissertation, read only version B",DRIVER,CAR,Study2,F,106,121,Study,User,-,,Study/JOL,"Study Phase",1687,,,-1,-1,,,,1
5ebc9542e7dea50e8451e07b,tyc54diywv,Nick_Dissertation_EX1,1,41,2020-10-24T10:25:06-07:00,2.0339391231537,2,versionA_stim.csv,READVersionB.csv,"Read Version B","Dissertation, read only version B",DEAD,COFFIN,Study2,B,128,164,Study,User,-,,Study/JOL,"Study Phase",1720,,,-1,-1,,,,1
5ebc9542e7dea50e8451e07b,tyc54diywv,Nick_Dissertation_EX1,1,42,2020-10-24T10:25:09-07:00,3.3683409690857,2,versionA_stim.csv,READVersionB.csv,"Read Version B","Dissertation, read only version B",Shell,SHAKE,Study2,U,163,109,Study,User,-,,Study/JOL,"Study Phase",3051,,,-1,-1,,,,1
5ebc9542e7dea50e8451e07b,tyc54diywv,Nick_Dissertation_EX1,1,43,2020-10-24T10:25:12-07:00,2.401104927063,2,versionA_stim.csv,READVersionB.csv,"Read Version B","Dissertation, read only version B",FLEA,TICK,Study2,S,151,126,Study,User,-,,Study/JOL,"Study Phase",2063,,,-1,-1,,,,1
5ebc9542e7dea50e8451e07b,tyc54diywv,Nick_Dissertation_EX1,1,44,2020-10-24T10:25:15-07:00,3.1834700107574,2,versionA_stim.csv,READVersionB.csv,"Read Version B","Dissertation, read only version B",NAME,HATE,Study2,U,167,153,Study,User,-,,Study/JOL,"Study Phase",2872,,,-1,-1,,,,1
5ebc9542e7dea50e8451e07b,tyc54diywv,Nick_Dissertation_EX1,1,45,2020-10-24T10:25:18-07:00,2.5910210609436,2,versionA_stim.csv,READVersionB.csv,"Read Version B","Dissertation, read only version B",CHERRY,RED,Study2,F,104,169,Study,User,-,,Study/JOL,"Study Phase",2257,,,-1,-1,,,,1
5ebc9542e7dea50e8451e07b,tyc54diywv,Nick_Dissertation_EX1,1,46,2020-10-24T10:25:20-07:00,2.6100490093231,2,versionA_stim.csv,READVersionB.csv,"Read Version B","Dissertation, read only version B",AFFECTION,LOVE,Study2,F,115,101,Study,User,-,,Study/JOL,"Study Phase",2280,,,-1,-1,,,,1
5ebc9542e7dea50e8451e07b,tyc54diywv,Nick_Dissertation_EX1,1,47,2020-10-24T10:25:23-07:00,2.2318520545959,2,versionA_stim.csv,READVersionB.csv,"Read Version B","Dissertation, read only version B",SLEEP,NAP,Study2,B,134,147,Study,User,-,,Study/JOL,"Study Phase",1914,,,-1,-1,,,,1
5ebc9542e7dea50e8451e07b,tyc54diywv,Nick_Dissertation_EX1,1,48,2020-10-24T10:25:25-07:00,2.9312279224396,2,versionA_stim.csv,READVersionB.csv,"Read Version B","Dissertation, read only version B",CHILL,COLD,Study2,F,114,118,Study,User,-,,Study/JOL,"Study Phase",2496,,,-1,-1,,,,1
5ebc9542e7dea50e8451e07b,tyc54diywv,Nick_Dissertation_EX1,1,49,2020-10-24T10:25:29-07:00,4.0322051048279,2,versionA_stim.csv,READVersionB.csv,"Read Version B","Dissertation, read only version B",BOTH,OUNCE,Study2,U,172,112,Study,User,-,,Study/JOL,"Study Phase",3711,,,-1,-1,,,,1
5ebc9542e7dea50e8451e07b,tyc54diywv,Nick_Dissertation_EX1,1,50,2020-10-24T10:25:35-07:00,5.1637418270111,2,versionA_stim.csv,READVersionB.csv,"Read Version B","Dissertation, read only version B",FUZZY,BANG,Study2,U,168,148,Study,User,-,,Study/JOL,"Study Phase",4823,,,-1,-1,,,,1
5ebc9542e7dea50e8451e07b,tyc54diywv,Nick_Dissertation_EX1,1,51,2020-10-24T10:25:37-07:00,2.5633230209351,2,versionA_stim.csv,READVersionB.csv,"Read Version B","Dissertation, read only version B",DOCUMENT,PAPER,Study2,F,109,152,Study,User,-,,Study/JOL,"Study Phase",2260,,,-1,-1,,,,1
5ebc9542e7dea50e8451e07b,tyc54diywv,Nick_Dissertation_EX1,1,52,2020-10-24T10:25:41-07:00,4.1064651012421,2,versionA_stim.csv,READVersionB.csv,"Read Version B","Dissertation, read only version B",GIVE,STEAK,Study2,U,158,120,Study,User,-,,Study/JOL,"Study Phase",3783,,,-1,-1,,,,1
5ebc9542e7dea50e8451e07b,tyc54diywv,Nick_Dissertation_EX1,1,53,2020-10-24T10:25:44-07:00,2.2202119827271,2,versionA_stim.csv,READVersionB.csv,"Read Version B","Dissertation, read only version B",POP,BALLOON,Study2,B,123,113,Study,User,-,,Study/JOL,"Study Phase",1815,,,-1,-1,,,,1
5ebc9542e7dea50e8451e07b,tyc54diywv,Nick_Dissertation_EX1,1,54,2020-10-24T10:25:47-07:00,3.5662670135498,2,versionA_stim.csv,READVersionB.csv,"Read Version B","Dissertation, read only version B",MOAT,CLEAR,Study2,U,169,128,Study,User,-,,Study/JOL,"Study Phase",2138,,,-1,-1,,,,1
5ebc9542e7dea50e8451e07b,tyc54diywv,Nick_Dissertation_EX1,1,55,2020-10-24T10:25:49-07:00,2.1641290187836,2,versionA_stim.csv,READVersionB.csv,"Read Version B","Dissertation, read only version B",BAD,VILLAIN,Study2,B,118,99,Study,User,-,,Study/JOL,"Study Phase",1803,,,-1,-1,,,,1
5ebc9542e7dea50e8451e07b,tyc54diywv,Nick_Dissertation_EX1,1,56,2020-10-24T10:25:52-07:00,2.701073884964,2,versionA_stim.csv,READVersionB.csv,"Read Version B","Dissertation, read only version B",CHOP,CUT,Study2,F,107,142,Study,User,-,,Study/JOL,"Study Phase",2394,,,-1,-1,,,,1
5ebc9542e7dea50e8451e07b,tyc54diywv,Nick_Dissertation_EX1,1,57,2020-10-24T10:25:55-07:00,2.780876159668,2,versionA_stim.csv,READVersionB.csv,"Read Version B","Dissertation, read only version B",SCALP,HEAD,Study2,F,105,171,Study,User,-,,Study/JOL,"Study Phase",2426,,,-1,-1,,,,1
5ebc9542e7dea50e8451e07b,tyc54diywv,Nick_Dissertation_EX1,1,58,2020-10-24T10:25:57-07:00,2.7126598358154,2,versionA_stim.csv,READVersionB.csv,"Read Version B","Dissertation, read only version B",SHEARS,SCISSORS,Study2,F,112,129,Study,User,-,,Study/JOL,"Study Phase",2405,,,-1,-1,,,,1
5ebc9542e7dea50e8451e07b,tyc54diywv,Nick_Dissertation_EX1,1,59,2020-10-24T10:26:00-07:00,2.503103017807,2,versionA_stim.csv,READVersionB.csv,"Read Version B","Dissertation, read only version B",TANTRUM,TEMPER,Study2,S,154,163,Study,User,-,,Study/JOL,"Study Phase",2139,,,-1,-1,,,,1
5ebc9542e7dea50e8451e07b,tyc54diywv,Nick_Dissertation_EX1,1,60,2020-10-24T10:26:03-07:00,2.6537380218506,2,versionA_stim.csv,READVersionB.csv,"Read Version B","Dissertation, read only version B",DRY,WET,Study2,S,146,98,Study,User,-,,Study/JOL,"Study Phase",2321,,,-1,-1,,,,1
5ebc9542e7dea50e8451e07b,tyc54diywv,Nick_Dissertation_EX1,1,61,2020-10-24T10:26:06-07:00,3.2423510551453,2,versionA_stim.csv,READVersionB.csv,"Read Version B","Dissertation, read only version B",FISH,SARDINE,Study2,B,130,161,Study,User,-,,Study/JOL,"Study Phase",2908,,,-1,-1,,,,1
5ebc9542e7dea50e8451e07b,tyc54diywv,Nick_Dissertation_EX1,1,62,2020-10-24T10:26:14-07:00,7.8999619483948,2,versionA_stim.csv,READVersionB.csv,"Read Version B","Dissertation, read only version B",SUN,TAN,Study2,S,155,151,Study,User,-,,Study/JOL,"Study Phase",2184,,,-1,-1,,,,1
5ebc9542e7dea50e8451e07b,tyc54diywv,Nick_Dissertation_EX1,1,63,2020-10-24T10:26:19-07:00,5.2447299957275,2,versionA_stim.csv,READVersionB.csv,"Read Version B","Dissertation, read only version B",FEUD,FIGHT,Study2,F,113,175,Study,User,-,,Study/JOL,"Study Phase",4817,,,-1,-1,,,,1
5ebc9542e7dea50e8451e07b,tyc54diywv,Nick_Dissertation_EX1,1,64,2020-10-24T10:26:20-07:00,1.4029240608215,2,versionA_stim.csv,READVersionB.csv,"Read Version B","Dissertation, read only version B",LOUD,NOISE,Study2,S,152,145,Study,User,-,,Study/JOL,"Study Phase",1081,,,-1,-1,,,,1
5ebc9542e7dea50e8451e07b,tyc54diywv,Nick_Dissertation_EX1,1,65,2020-10-24T10:26:22-07:00,1.7023859024048,2,versionA_stim.csv,READVersionB.csv,"Read Version B","Dissertation, read only version B",PLANE,AIRCRAFT,Study2,B,129,144,Study,User,-,,Study/JOL,"Study Phase",1376,,,-1,-1,,,,1
5ebc9542e7dea50e8451e07b,tyc54diywv,Nick_Dissertation_EX1,1,66,2020-10-24T10:26:25-07:00,2.4101560115814,2,versionA_stim.csv,READVersionB.csv,"Read Version B","Dissertation, read only version B",EVEN,REVENGE,Study2,B,122,146,Study,User,-,,Study/JOL,"Study Phase",2083,,,-1,-1,,,,1
5ebc9542e7dea50e8451e07b,tyc54diywv,Nick_Dissertation_EX1,1,67,2020-10-24T10:26:27-07:00,2.4357590675354,2,versionA_stim.csv,READVersionB.csv,"Read Version B","Dissertation, read only version B",GONE,AWAY,Study2,S,142,141,Study,User,-,,Study/JOL,"Study Phase",2112,,,-1,-1,,,,1
5ebc9542e7dea50e8451e07b,tyc54diywv,Nick_Dissertation_EX1,1,68,2020-10-24T10:26:29-07:00,2.0139789581299,2,versionA_stim.csv,READVersionB.csv,"Read Version B","Dissertation, read only version B",LOAN,SIGN,Study2,U,171,105,Study,User,-,,Study/JOL,"Study Phase",1705,,,-1,-1,,,,1
5ebc9542e7dea50e8451e07b,tyc54diywv,Nick_Dissertation_EX1,1,69,2020-10-24T10:26:32-07:00,2.7231299877167,2,versionA_stim.csv,READVersionB.csv,"Read Version B","Dissertation, read only version B",DETECTIVE,MYSTERY,Study2,F,100,131,Study,User,-,,Study/JOL,"Study Phase",2386,,,-1,-1,,,,1
5ebc9542e7dea50e8451e07b,tyc54diywv,Nick_Dissertation_EX1,1,70,2020-10-24T10:26:34-07:00,2.3493809700012,2,versionA_stim.csv,READVersionB.csv,"Read Version B","Dissertation, read only version B",LITTER,TRASH,Study2,F,103,106,Study,User,-,,Study/JOL,"Study Phase",2033,,,-1,-1,,,,1
5ebc9542e7dea50e8451e07b,tyc54diywv,Nick_Dissertation_EX1,1,71,2020-10-24T10:26:38-07:00,4.0596740245819,2,versionA_stim.csv,READVersionB.csv,"Read Version B","Dissertation, read only version B",MAZE,ELECTION,Study2,U,159,166,Study,User,-,,Study/JOL,"Study Phase",3726,,,-1,-1,,,,1
5ebc9542e7dea50e8451e07b,tyc54diywv,Nick_Dissertation_EX1,1,72,2020-10-24T10:26:41-07:00,2.808100938797,2,versionA_stim.csv,READVersionB.csv,"Read Version B","Dissertation, read only version B",CAT,PANTHER,Study2,B,126,156,Study,User,-,,Study/JOL,"Study Phase",2478,,,-1,-1,,,,1
5ebc9542e7dea50e8451e07b,tyc54diywv,Nick_Dissertation_EX1,1,73,2020-10-24T10:26:47-07:00,6.1565730571747,2,versionA_stim.csv,READVersionB.csv,"Read Version B","Dissertation, read only version B",KEYS,JOKE,Study2,U,165,107,Study,User,-,,Study/JOL,"Study Phase",5845,,,-1,-1,,,,1
5ebc9542e7dea50e8451e07b,tyc54diywv,Nick_Dissertation_EX1,1,74,2020-10-24T10:26:49-07:00,2.3357920646667,2,versionA_stim.csv,READVersionB.csv,"Read Version B","Dissertation, read only version B",FRUIT,STRAWBERRY,Study2,B,124,136,Study,User,-,,Study/JOL,"Study Phase",1983,,,-1,-1,,,,1
5ebc9542e7dea50e8451e07b,tyc54diywv,Nick_Dissertation_EX1,1,75,2020-10-24T10:26:52-07:00,2.2248878479004,2,versionA_stim.csv,READVersionB.csv,"Read Version B","Dissertation, read only version B",WRIST,BRACELET,Study2,S,140,159,Study,User,-,,Study/JOL,"Study Phase",1867,,,-1,-1,,,,1
5ebc9542e7dea50e8451e07b,tyc54diywv,Nick_Dissertation_EX1,1,76,2020-10-24T10:26:54-07:00,2.3998861312866,2,versionA_stim.csv,READVersionB.csv,"Read Version B","Dissertation, read only version B",BEST,FAVORITE,Study2,B,125,102,Study,User,-,,Study/JOL,"Study Phase",1969,,,-1,-1,,,,1
5ebc9542e7dea50e8451e07b,tyc54diywv,Nick_Dissertation_EX1,1,77,2020-10-24T10:26:56-07:00,1.8753139972687,2,versionA_stim.csv,READVersionB.csv,"Read Version B","Dissertation, read only version B",CAR,WINDSHIELD,Study2,B,117,143,Study,User,-,,Study/JOL,"Study Phase",1539,,,-1,-1,,,,1
5ebc9542e7dea50e8451e07b,tyc54diywv,Nick_Dissertation_EX1,1,78,2020-10-24T10:26:59-07:00,3.0668489933014,2,versionA_stim.csv,READVersionB.csv,"Read Version B","Dissertation, read only version B",CAKE,CLOTHES,Study2,U,166,155,Study,User,-,,Study/JOL,"Study Phase",2720,,,-1,-1,,,,1
5ebc9542e7dea50e8451e07b,tyc54diywv,Nick_Dissertation_EX1,1,79,2020-10-24T10:27:01-07:00,2.2354440689087,2,versionA_stim.csv,READVersionB.csv,"Read Version B","Dissertation, read only version B",GLASS,BREAKABLE,Study2,B,127,173,Study,User,-,,Study/JOL,"Study Phase",1791,,,-1,-1,,,,1
5ebc9542e7dea50e8451e07b,tyc54diywv,Nick_Dissertation_EX1,1,80,2020-10-24T10:27:04-07:00,2.7219350337982,2,versionA_stim.csv,READVersionB.csv,"Read Version B","Dissertation, read only version B",WATER,DRINK,Study2,S,143,134,Study,User,-,,Study/JOL,"Study Phase",1254,,,-1,-1,,,,1
5ebc9542e7dea50e8451e07b,tyc54diywv,Nick_Dissertation_EX1,1,81,2020-10-24T10:27:06-07:00,1.9398028850555,2,versionA_stim.csv,READVersionB.csv,"Read Version B","Dissertation, read only version B",BASEBALL,LEAGUE,Study2,B,131,160,Study,User,-,,Study/JOL,"Study Phase",1628,,,-1,-1,,,,1
5ebc9542e7dea50e8451e07b,tyc54diywv,Nick_Dissertation_EX1,1,82,2020-10-24T10:27:08-07:00,2.0272281169891,2,versionA_stim.csv,READVersionB.csv,"Read Version B","Dissertation, read only version B",TRUTH,LIE,Study2,S,148,114,Study,User,-,,Study/JOL,"Study Phase",1710,,,-1,-1,,,,1
5ebc9542e7dea50e8451e07b,tyc54diywv,Nick_Dissertation_EX1,1,83,2020-10-24T10:27:10-07:00,2.2145938873291,2,versionA_stim.csv,READVersionB.csv,"Read Version B","Dissertation, read only version B",EARTH,GROUND,Study2,S,144,172,Study,User,-,,Study/JOL,"Study Phase",1846,,,-1,-1,,,,1
5ebc9542e7dea50e8451e07b,tyc54diywv,Nick_Dissertation_EX1,1,84,2020-10-24T10:27:14-07:00,4.2072999477386,2,versionA_stim.csv,READVersionB.csv,"Read Version B","Dissertation, read only version B",STRETCH,CLOTH,Study2,U,157,119,Study,User,-,,Study/JOL,"Study Phase",3768,,,-1,-1,,,,1
5ebc9542e7dea50e8451e07b,tyc54diywv,Nick_Dissertation_EX1,1,85,2020-10-24T10:27:17-07:00,2.4027860164642,2,versionA_stim.csv,READVersionB.csv,"Read Version B","Dissertation, read only version B",MASON,JAR,Study2,S,138,133,Study,User,-,,Study/JOL,"Study Phase",2080,,,-1,-1,,,,1
5ebc9542e7dea50e8451e07b,tyc54diywv,Nick_Dissertation_EX1,1,86,2020-10-24T10:27:19-07:00,2.3497090339661,2,versionA_stim.csv,READVersionB.csv,"Read Version B","Dissertation, read only version B",STAR,ACTRESS,Study2,B,120,111,Study,User,-,,Study/JOL,"Study Phase",1916,,,-1,-1,,,,1
5ebc9542e7dea50e8451e07b,tyc54diywv,Nick_Dissertation_EX1,1,87,2020-10-24T10:27:21-07:00,1.6335849761963,2,versionA_stim.csv,READVersionB.csv,"Read Version B","Dissertation, read only version B",TOOL,SHED,BUFFER4,Buffer,178,178,Study,User,-,,Study/JOL,BUFFER2,1300,,,-1,-1,,,,1
5ebc9542e7dea50e8451e07b,tyc54diywv,Nick_Dissertation_EX1,1,88,2020-10-24T10:27:26-07:00,5.0509219169617,2,versionA_stim.csv,READVersionB.csv,"Read Version B","Dissertation, read only version B",DAYS,WEAKS,BUFFER4,Buffer,176,177,Study,User,-,,Study/JOL,BUFFER2,4730,,,-1,-1,,,,1
5ebc9542e7dea50e8451e07b,tyc54diywv,Nick_Dissertation_EX1,1,89,2020-10-24T10:27:30-07:00,4.2654941082001,2,versionA_stim.csv,READVersionB.csv,"Read Version B","Dissertation, read only version B",SPRING,MARCH,BUFFER4,Buffer,179,181,Study,User,-,,Study/JOL,BUFFER2,3941,,,-1,-1,,,,1
5ebc9542e7dea50e8451e07b,tyc54diywv,Nick_Dissertation_EX1,1,90,2020-10-24T10:27:35-07:00,4.648540019989,2,versionA_stim.csv,READVersionB.csv,"Read Version B","Dissertation, read only version B",OCTOBER,SPOOKY,BUFFER4,Buffer,180,180,Study,User,-,,Study/JOL,BUFFER2,2975,,,-1,-1,,,,1
5ebc9542e7dea50e8451e07b,tyc54diywv,Nick_Dissertation_EX1,1,91,2020-10-24T10:27:37-07:00,1.9481959342957,2,versionA_stim.csv,READVersionB.csv,"Read Version B","Dissertation, read only version B",MONTH,YEAR,BUFFER4,Buffer,177,179,Study,User,-,,Study/JOL,BUFFER2,1613,,,-1,-1,,,,1
5ebc9542e7dea50e8451e07b,tyc54diywv,Nick_Dissertation_EX1,1,92,2020-10-24T10:27:39-07:00,2.2327671051025,2,versionA_stim.csv,READVersionB.csv,"Read Version B","Dissertation, read only version B",,,,,,0,Instruct,User,-,"You have completed this section. Please press Enter.",Filler_Instruction,Instruct2,1829,,,-1,-1,,,,1
5ebc9542e7dea50e8451e07b,tyc54diywv,Nick_Dissertation_EX1,1,93,2020-10-24T10:29:39-07:00,120.43158698082,2,versionA_stim.csv,READVersionB.csv,"Read Version B","Dissertation, read only version B",,,,,,0,FreeRecall,120,120,"Please list the 50 US states in alphabetical order. The task will automatically advance to the next screen after two minutes.",,Filler1,120002,"Alaska Alabama Arizona Arkansas California Colorado Delaware ",0,6633,118778,0,0,,1
5ebc9542e7dea50e8451e07b,tyc54diywv,Nick_Dissertation_EX1,1,94,2020-10-24T10:29:57-07:00,17.640665054321,2,versionA_stim.csv,READVersionB.csv,"Read Version B","Dissertation, read only version B",,,,,,0,Instruct,-,10,"You will now be presented with the first word from each of the previously studied item pairs. Please type the missing word. If you do not know the word, you may guess or press Enter to skip forward to the next pair.",,Instruct3,17264,,,-1,-1,,,,1
5ebc9542e7dea50e8451e07b,tyc54diywv,Nick_Dissertation_EX1,1,95,2020-10-24T10:30:03-07:00,6.2852079868317,2,versionA_stim.csv,READVersionB.csv,"Read Version B","Dissertation, read only version B",JUSTICE,MAROON,Study2,U,156,176,Test,User,-,,Recall,Recall1,5926,MAROON,100,2521,5691,1,1,,1
5ebc9542e7dea50e8451e07b,tyc54diywv,Nick_Dissertation_EX1,1,96,2020-10-24T10:30:12-07:00,8.7074589729309,2,versionA_stim.csv,READVersionB.csv,"Read Version B","Dissertation, read only version B",BEST,FAVORITE,Study2,B,125,102,Test,User,-,,Recall,Recall1,8387,WORST,46.153846153846,2259,6835,0,0,,1
5ebc9542e7dea50e8451e07b,tyc54diywv,Nick_Dissertation_EX1,1,97,2020-10-24T10:30:15-07:00,2.6411280632019,2,versionA_stim.csv,READVersionB.csv,"Read Version B","Dissertation, read only version B",FLEA,TICK,Study2,S,151,126,Test,User,-,,Recall,Recall1,2295,TICK,100,1819,2102,1,1,,1
5ebc9542e7dea50e8451e07b,tyc54diywv,Nick_Dissertation_EX1,1,98,2020-10-24T10:30:17-07:00,2.2471618652344,2,versionA_stim.csv,READVersionB.csv,"Read Version B","Dissertation, read only version B",Shell,SHAKE,Study2,U,163,109,Test,User,-,,Recall,Recall1,1812,SHAKE,100,1215,1668,1,1,,1
5ebc9542e7dea50e8451e07b,tyc54diywv,Nick_Dissertation_EX1,1,99,2020-10-24T10:30:20-07:00,3.1595540046692,2,versionA_stim.csv,READVersionB.csv,"Read Version B","Dissertation, read only version B",TANTRUM,TEMPER,Study2,S,154,163,Test,User,-,,Recall,Recall1,2749,TEMPER,100,1845,2332,1,1,,1
5ebc9542e7dea50e8451e07b,tyc54diywv,Nick_Dissertation_EX1,1,100,2020-10-24T10:30:23-07:00,3.1771991252899,2,versionA_stim.csv,READVersionB.csv,"Read Version B","Dissertation, read only version B",MAZE,ELECTION,Study2,U,159,166,Test,User,-,,Recall,Recall1,2845,ELECTION,100,1823,2553,1,1,,1
5ebc9542e7dea50e8451e07b,tyc54diywv,Nick_Dissertation_EX1,1,101,2020-10-24T10:30:28-07:00,4.9915919303894,2,versionA_stim.csv,READVersionB.csv,"Read Version B","Dissertation, read only version B",FEUD,FIGHT,Study2,F,113,175,Test,User,-,,Recall,Recall1,4621,FIGHT,100,1473,4318,1,1,,1
5ebc9542e7dea50e8451e07b,tyc54diywv,Nick_Dissertation_EX1,1,102,2020-10-24T10:30:34-07:00,6.0643990039825,2,versionA_stim.csv,READVersionB.csv,"Read Version B","Dissertation, read only version B",DEAD,COFFIN,Study2,B,128,164,Test,User,-,,Recall,Recall1,5723,MOURN,36.363636363636,4619,5072,0,0,,1
5ebc9542e7dea50e8451e07b,tyc54diywv,Nick_Dissertation_EX1,1,103,2020-10-24T10:30:42-07:00,7.6820380687714,2,versionA_stim.csv,READVersionB.csv,"Read Version B","Dissertation, read only version B",GLASS,BREAKABLE,Study2,B,127,173,Test,User,-,,Recall,Recall1,7317,SMASH,14.285714285714,1676,5255,0,0,,1
5ebc9542e7dea50e8451e07b,tyc54diywv,Nick_Dissertation_EX1,1,104,2020-10-24T10:30:46-07:00,3.8125147819519,2,versionA_stim.csv,READVersionB.csv,"Read Version B","Dissertation, read only version B",TEMPERATURE,Morning,Study2,U,173,165,Test,User,-,,Recall,Recall1,3430,MORNING,100,2426,3030,1,1,,1
5ebc9542e7dea50e8451e07b,tyc54diywv,Nick_Dissertation_EX1,1,105,2020-10-24T10:30:48-07:00,2.7557380199432,2,versionA_stim.csv,READVersionB.csv,"Read Version B","Dissertation, read only version B",KEYS,JOKE,Study2,U,165,107,Test,User,-,,Recall,Recall1,2403,JOKE,100,1440,2257,1,1,,1
5ebc9542e7dea50e8451e07b,tyc54diywv,Nick_Dissertation_EX1,1,106,2020-10-24T10:30:51-07:00,2.7705450057983,2,versionA_stim.csv,READVersionB.csv,"Read Version B","Dissertation, read only version B",ROD,REEL,Study2,S,150,108,Test,User,-,,Recall,Recall1,2444,REEL,100,1784,2216,1,1,,1
5ebc9542e7dea50e8451e07b,tyc54diywv,Nick_Dissertation_EX1,1,107,2020-10-24T10:30:59-07:00,7.6961641311646,2,versionA_stim.csv,READVersionB.csv,"Read Version B","Dissertation, read only version B",LOUD,NOISE,Study2,S,152,145,Test,User,-,,Recall,Recall1,7354,NOISE,100,6229,6773,1,1,,1
5ebc9542e7dea50e8451e07b,tyc54diywv,Nick_Dissertation_EX1,1,108,2020-10-24T10:31:19-07:00,19.773239850998,2,versionA_stim.csv,READVersionB.csv,"Read Version B","Dissertation, read only version B",FUZZY,BANG,Study2,U,168,148,Test,User,-,,Recall,Recall1,19431,BED,28.571428571429,13421,18793,0,0,,1
5ebc9542e7dea50e8451e07b,tyc54diywv,Nick_Dissertation_EX1,1,109,2020-10-24T10:31:21-07:00,2.5490491390228,2,versionA_stim.csv,READVersionB.csv,"Read Version B","Dissertation, read only version B",CANDLE,WAX,Study2,S,139,137,Test,User,-,,Recall,Recall1,2203,WAX,100,1563,2077,1,1,,1
5ebc9542e7dea50e8451e07b,tyc54diywv,Nick_Dissertation_EX1,1,110,2020-10-24T10:31:25-07:00,3.3195428848267,2,versionA_stim.csv,READVersionB.csv,"Read Version B","Dissertation, read only version B",FRUIT,STRAWBERRY,Study2,B,124,136,Test,User,-,,Recall,Recall1,3003,STRAWBERRY,100,858,2619,1,1,,1
5ebc9542e7dea50e8451e07b,tyc54diywv,Nick_Dissertation_EX1,1,111,2020-10-24T10:31:27-07:00,2.7266390323639,2,versionA_stim.csv,READVersionB.csv,"Read Version B","Dissertation, read only version B",RAZOR,SHAVE,Study2,S,136,167,Test,User,-,,Recall,Recall1,2396,SHAVE,100,1755,2234,1,1,,1
5ebc9542e7dea50e8451e07b,tyc54diywv,Nick_Dissertation_EX1,1,112,2020-10-24T10:31:31-07:00,4.010290145874,2,versionA_stim.csv,READVersionB.csv,"Read Version B","Dissertation, read only version B",STAR,ACTRESS,Study2,B,120,111,Test,User,-,,Recall,Recall1,3672,MOON,0,2994,3446,0,0,,1
5ebc9542e7dea50e8451e07b,tyc54diywv,Nick_Dissertation_EX1,1,113,2020-10-24T10:31:34-07:00,2.6117630004883,2,versionA_stim.csv,READVersionB.csv,"Read Version B","Dissertation, read only version B",STRETCH,CLOTH,Study2,U,157,119,Test,User,-,,Recall,Recall1,2275,COTTON,54.545454545455,1571,2116,0,0,,1
5ebc9542e7dea50e8451e07b,tyc54diywv,Nick_Dissertation_EX1,1,114,2020-10-24T10:31:36-07:00,2.3303418159485,2,versionA_stim.csv,READVersionB.csv,"Read Version B","Dissertation, read only version B",CACTUS,PLANT,Study2,F,98,140,Test,User,-,,Recall,Recall1,1993,PLANT,100,1357,1826,1,1,,1
5ebc9542e7dea50e8451e07b,tyc54diywv,Nick_Dissertation_EX1,1,115,2020-10-24T10:31:39-07:00,3.0820059776306,2,versionA_stim.csv,READVersionB.csv,"Read Version B","Dissertation, read only version B",MOAT,CLEAR,Study2,U,169,128,Test,User,-,,Recall,Recall1,2660,CLEAR,100,1510,2513,1,1,,1
5ebc9542e7dea50e8451e07b,tyc54diywv,Nick_Dissertation_EX1,1,116,2020-10-24T10:31:41-07:00,2.0612800121307,2,versionA_stim.csv,READVersionB.csv,"Read Version B","Dissertation, read only version B",EXTENSION,LONG,Study2,F,96,132,Test,User,-,,Recall,Recall1,1739,LONG,100,1248,1606,1,1,,1
5ebc9542e7dea50e8451e07b,tyc54diywv,Nick_Dissertation_EX1,1,117,2020-10-24T10:31:47-07:00,5.5546681880951,2,versionA_stim.csv,READVersionB.csv,"Read Version B","Dissertation, read only version B",CAR,WINDSHIELD,Study2,B,117,143,Test,User,-,,Recall,Recall1,5214,DRIVE,40,2837,5059,0,0,,1
5ebc9542e7dea50e8451e07b,tyc54diywv,Nick_Dissertation_EX1,1,118,2020-10-24T10:31:51-07:00,3.937912940979,2,versionA_stim.csv,READVersionB.csv,"Read Version B","Dissertation, read only version B",BAD,VILLAIN,Study2,B,118,99,Test,User,-,,Recall,Recall1,3574,GOOD,0,2047,3172,0,0,,1
5ebc9542e7dea50e8451e07b,tyc54diywv,Nick_Dissertation_EX1,1,119,2020-10-24T10:31:54-07:00,3.586089849472,2,versionA_stim.csv,READVersionB.csv,"Read Version B","Dissertation, read only version B",VEHICLE,CHARM,Study2,U,160,138,Test,User,-,,Recall,Recall1,3225,CAR,75,2817,3114,0,1,,1
5ebc9542e7dea50e8451e07b,tyc54diywv,Nick_Dissertation_EX1,1,120,2020-10-24T10:31:58-07:00,3.89084815979,2,versionA_stim.csv,READVersionB.csv,"Read Version B","Dissertation, read only version B",POP,BALLOON,Study2,B,123,113,Test,User,-,,Recall,Recall1,3558,DRINK,16.666666666667,2831,3281,0,0,,1
5ebc9542e7dea50e8451e07b,tyc54diywv,Nick_Dissertation_EX1,1,121,2020-10-24T10:32:11-07:00,12.674140930176,2,versionA_stim.csv,READVersionB.csv,"Read Version B","Dissertation, read only version B",NAME,HATE,Study2,U,167,153,Test,User,-,,Recall,Recall1,12358,YOU,0,11668,11889,0,0,,1
5ebc9542e7dea50e8451e07b,tyc54diywv,Nick_Dissertation_EX1,1,122,2020-10-24T10:32:13-07:00,1.8647661209106,2,versionA_stim.csv,READVersionB.csv,"Read Version B","Dissertation, read only version B",DOCUMENT,PAPER,Study2,F,109,152,Test,User,-,,Recall,Recall1,1507,PAPER,100,994,1382,1,1,,1
5ebc9542e7dea50e8451e07b,tyc54diywv,Nick_Dissertation_EX1,1,123,2020-10-24T10:32:24-07:00,11.304114818573,2,versionA_stim.csv,READVersionB.csv,"Read Version B","Dissertation, read only version B",MAIN,SCAR,Study2,U,175,125,Test,User,-,,Recall,Recall1,10952,,0,5700,8502,0,0,,1
5ebc9542e7dea50e8451e07b,tyc54diywv,Nick_Dissertation_EX1,1,124,2020-10-24T10:32:28-07:00,4.0247721672058,2,versionA_stim.csv,READVersionB.csv,"Read Version B","Dissertation, read only version B",FIGHT,BRAWL,Study2,B,135,135,Test,User,-,,Recall,Recall1,2636,BRAWL,100,1274,2402,1,1,,1
5ebc9542e7dea50e8451e07b,tyc54diywv,Nick_Dissertation_EX1,1,125,2020-10-24T10:32:32-07:00,3.6955099105835,2,versionA_stim.csv,READVersionB.csv,"Read Version B","Dissertation, read only version B",PLANE,AIRCRAFT,Study2,B,129,144,Test,User,-,,Recall,Recall1,3359,FLY,18.181818181818,2958,3234,0,0,,1
5ebc9542e7dea50e8451e07b,tyc54diywv,Nick_Dissertation_EX1,1,126,2020-10-24T10:32:39-07:00,7.0972809791565,2,versionA_stim.csv,READVersionB.csv,"Read Version B","Dissertation, read only version B",BOTH,OUNCE,Study2,U,172,112,Test,User,-,,Recall,Recall1,6767,OUNCE,100,5125,6280,1,1,,1
5ebc9542e7dea50e8451e07b,tyc54diywv,Nick_Dissertation_EX1,1,127,2020-10-24T10:32:41-07:00,2.4481599330902,2,versionA_stim.csv,READVersionB.csv,"Read Version B","Dissertation, read only version B",WATER,DRINK,Study2,S,143,134,Test,User,-,,Recall,Recall1,2086,DRINK,100,1410,1890,1,1,,1
5ebc9542e7dea50e8451e07b,tyc54diywv,Nick_Dissertation_EX1,1,128,2020-10-24T10:32:44-07:00,2.4150550365448,2,versionA_stim.csv,READVersionB.csv,"Read Version B","Dissertation, read only version B",OWN,HAVE,Study2,S,153,124,Test,User,-,,Recall,Recall1,2063,,0,-1,-1,0,0,,1
5ebc9542e7dea50e8451e07b,tyc54diywv,Nick_Dissertation_EX1,1,129,2020-10-24T10:32:48-07:00,3.9544570446014,2,versionA_stim.csv,READVersionB.csv,"Read Version B","Dissertation, read only version B",THREAD,THIMBLE,Study2,B,121,116,Test,User,-,,Recall,Recall1,3536,THIMBLE,100,1407,3252,1,1,,1
5ebc9542e7dea50e8451e07b,tyc54diywv,Nick_Dissertation_EX1,1,130,2020-10-24T10:32:50-07:00,2.0629549026489,2,versionA_stim.csv,READVersionB.csv,"Read Version B","Dissertation, read only version B",INCENSE,SMELL,Study2,F,110,139,Test,User,-,,Recall,Recall1,1677,SMELL,100,991,1471,1,1,,1
5ebc9542e7dea50e8451e07b,tyc54diywv,Nick_Dissertation_EX1,1,131,2020-10-24T10:32:52-07:00,2.3849341869354,2,versionA_stim.csv,READVersionB.csv,"Read Version B","Dissertation, read only version B",DRY,WET,Study2,S,146,98,Test,User,-,,Recall,Recall1,2048,WET,100,1607,1883,1,1,,1
5ebc9542e7dea50e8451e07b,tyc54diywv,Nick_Dissertation_EX1,1,132,2020-10-24T10:32:59-07:00,6.9127819538116,2,versionA_stim.csv,READVersionB.csv,"Read Version B","Dissertation, read only version B",TRUTH,LIE,Study2,S,148,114,Test,User,-,,Recall,Recall1,6575,LIE,100,6090,6292,1,1,,1
5ebc9542e7dea50e8451e07b,tyc54diywv,Nick_Dissertation_EX1,1,133,2020-10-24T10:33:03-07:00,3.592973947525,2,versionA_stim.csv,READVersionB.csv,"Read Version B","Dissertation, read only version B",BIRD,PENGUIN,Study2,B,119,162,Test,User,-,,Recall,Recall1,3239,FLY,0,2694,2938,0,0,,1
5ebc9542e7dea50e8451e07b,tyc54diywv,Nick_Dissertation_EX1,1,134,2020-10-24T10:33:10-07:00,7.3195149898529,2,versionA_stim.csv,READVersionB.csv,"Read Version B","Dissertation, read only version B",WRIST,BRACELET,Study2,S,140,159,Test,User,-,,Recall,Recall1,6995,BRACELET,100,2935,6880,1,1,,1
5ebc9542e7dea50e8451e07b,tyc54diywv,Nick_Dissertation_EX1,1,135,2020-10-24T10:33:12-07:00,2.1680910587311,2,versionA_stim.csv,READVersionB.csv,"Read Version B","Dissertation, read only version B",TURN,FLIP,Study2,B,116,117,Test,User,-,,Recall,Recall1,1836,RIGHT,22.222222222222,1373,1681,0,0,,1
5ebc9542e7dea50e8451e07b,tyc54diywv,Nick_Dissertation_EX1,1,136,2020-10-24T10:33:14-07:00,1.9252150058746,2,versionA_stim.csv,READVersionB.csv,"Read Version B","Dissertation, read only version B",DINE,EAT,Study2,F,111,100,Test,User,-,,Recall,Recall1,1570,EAT,100,1180,1431,1,1,,1
5ebc9542e7dea50e8451e07b,tyc54diywv,Nick_Dissertation_EX1,1,137,2020-10-24T10:33:18-07:00,3.4960708618164,2,versionA_stim.csv,READVersionB.csv,"Read Version B","Dissertation, read only version B",ALONE,LONELY,Study2,S,145,115,Test,User,-,,Recall,Recall1,3160,LONELY,100,2242,2893,1,1,,1
5ebc9542e7dea50e8451e07b,tyc54diywv,Nick_Dissertation_EX1,1,138,2020-10-24T10:33:19-07:00,1.8180491924286,2,versionA_stim.csv,READVersionB.csv,"Read Version B","Dissertation, read only version B",MEAT,OBTAIN,Study2,U,161,123,Test,User,-,,Recall,Recall1,1484,EAT,22.222222222222,1089,1269,0,0,,1
5ebc9542e7dea50e8451e07b,tyc54diywv,Nick_Dissertation_EX1,1,139,2020-10-24T10:33:23-07:00,3.7236909866333,2,versionA_stim.csv,READVersionB.csv,"Read Version B","Dissertation, read only version B",GIVE,STEAK,Study2,U,158,120,Test,User,-,,Recall,Recall1,3392,TAKE,66.666666666667,2674,3085,0,0,,1
5ebc9542e7dea50e8451e07b,tyc54diywv,Nick_Dissertation_EX1,1,140,2020-10-24T10:33:26-07:00,2.8990898132324,2,versionA_stim.csv,READVersionB.csv,"Read Version B","Dissertation, read only version B",HONEST,TRUTHFUL,Study2,B,133,103,Test,User,-,,Recall,Recall1,2549,TRUTH,76.923076923077,1512,2324,0,1,,1
5ebc9542e7dea50e8451e07b,tyc54diywv,Nick_Dissertation_EX1,1,141,2020-10-24T10:33:29-07:00,2.462259054184,2,versionA_stim.csv,READVersionB.csv,"Read Version B","Dissertation, read only version B",CLUE,GAME,Study2,F,97,170,Test,User,-,,Recall,Recall1,2126,GAME,100,1763,2003,1,1,,1
5ebc9542e7dea50e8451e07b,tyc54diywv,Nick_Dissertation_EX1,1,142,2020-10-24T10:33:31-07:00,2.0758249759674,2,versionA_stim.csv,READVersionB.csv,"Read Version B","Dissertation, read only version B",LISTEN,FICTION,Study2,U,164,127,Test,User,-,,Recall,Recall1,1754,NOISE,16.666666666667,1208,1581,0,0,,1
5ebc9542e7dea50e8451e07b,tyc54diywv,Nick_Dissertation_EX1,1,143,2020-10-24T10:33:33-07:00,2.6352059841156,2,versionA_stim.csv,READVersionB.csv,"Read Version B","Dissertation, read only version B",FURRY,DOG,Study2,F,102,157,Test,User,-,,Recall,Recall1,2319,DOG,100,1964,2157,1,1,,1
5ebc9542e7dea50e8451e07b,tyc54diywv,Nick_Dissertation_EX1,1,144,2020-10-24T10:33:35-07:00,2.0767130851746,2,versionA_stim.csv,READVersionB.csv,"Read Version B","Dissertation, read only version B",CHERRY,RED,Study2,F,104,169,Test,User,-,,Recall,Recall1,1720,RED,100,1339,1594,1,1,,1
5ebc9542e7dea50e8451e07b,tyc54diywv,Nick_Dissertation_EX1,1,145,2020-10-24T10:33:38-07:00,2.2174770832062,2,versionA_stim.csv,READVersionB.csv,"Read Version B","Dissertation, read only version B",BASEBALL,LEAGUE,Study2,B,131,160,Test,User,-,,Recall,Recall1,1841,GAME,40,1344,1677,0,0,,1
5ebc9542e7dea50e8451e07b,tyc54diywv,Nick_Dissertation_EX1,1,146,2020-10-24T10:33:40-07:00,2.4196050167084,2,versionA_stim.csv,READVersionB.csv,"Read Version B","Dissertation, read only version B",LOAN,SIGN,Study2,U,171,105,Test,User,-,,Recall,Recall1,1999,SIGN,100,1452,1780,1,1,,1
5ebc9542e7dea50e8451e07b,tyc54diywv,Nick_Dissertation_EX1,1,147,2020-10-24T10:33:42-07:00,2.2431998252869,2,versionA_stim.csv,READVersionB.csv,"Read Version B","Dissertation, read only version B",SCALP,HEAD,Study2,F,105,171,Test,User,-,,Recall,Recall1,1827,HEAD,100,1058,1351,1,1,,1
5ebc9542e7dea50e8451e07b,tyc54diywv,Nick_Dissertation_EX1,1,148,2020-10-24T10:33:51-07:00,9.2503201961517,2,versionA_stim.csv,READVersionB.csv,"Read Version B","Dissertation, read only version B",CRACKLE,ABLE,Study2,U,162,110,Test,User,-,,Recall,Recall1,8932,ELBOW,22.222222222222,7724,8642,0,0,,1
5ebc9542e7dea50e8451e07b,tyc54diywv,Nick_Dissertation_EX1,1,149,2020-10-24T10:33:54-07:00,2.5157837867737,2,versionA_stim.csv,READVersionB.csv,"Read Version B","Dissertation, read only version B",CHILL,COLD,Study2,F,114,118,Test,User,-,,Recall,Recall1,2155,COLD,100,1450,1907,1,1,,1
5ebc9542e7dea50e8451e07b,tyc54diywv,Nick_Dissertation_EX1,1,150,2020-10-24T10:33:58-07:00,3.9468841552734,2,versionA_stim.csv,READVersionB.csv,"Read Version B","Dissertation, read only version B",DRIVER,CAR,Study2,F,106,121,Test,User,-,,Recall,Recall1,3611,SEATBELT,18.181818181818,1424,3467,0,0,,1
5ebc9542e7dea50e8451e07b,tyc54diywv,Nick_Dissertation_EX1,1,151,2020-10-24T10:34:00-07:00,2.4323229789734,2,versionA_stim.csv,READVersionB.csv,"Read Version B","Dissertation, read only version B",MASON,JAR,Study2,S,138,133,Test,User,-,,Recall,Recall1,2097,JAR,100,1762,1953,1,1,,1
5ebc9542e7dea50e8451e07b,tyc54diywv,Nick_Dissertation_EX1,1,152,2020-10-24T10:34:05-07:00,4.3647930622101,2,versionA_stim.csv,READVersionB.csv,"Read Version B","Dissertation, read only version B",EARTH,GROUND,Study2,S,144,172,Test,User,-,,Recall,Recall1,4030,TURN,40,2524,3791,0,0,,1
5ebc9542e7dea50e8451e07b,tyc54diywv,Nick_Dissertation_EX1,1,153,2020-10-24T10:34:07-07:00,2.2297267913818,2,versionA_stim.csv,READVersionB.csv,"Read Version B","Dissertation, read only version B",ELEMENT,CARBON,Study2,S,141,104,Test,User,-,,Recall,Recall1,1851,CARBON,100,1017,1613,1,1,,1
5ebc9542e7dea50e8451e07b,tyc54diywv,Nick_Dissertation_EX1,1,154,2020-10-24T10:34:09-07:00,2.4471430778503,2,versionA_stim.csv,READVersionB.csv,"Read Version B","Dissertation, read only version B",MULE,DONKEY,Study2,F,108,97,Test,User,-,,Recall,Recall1,2034,DONKEY,100,1073,1623,1,1,,1
5ebc9542e7dea50e8451e07b,tyc54diywv,Nick_Dissertation_EX1,1,155,2020-10-24T10:34:15-07:00,5.9976229667664,2,versionA_stim.csv,READVersionB.csv,"Read Version B","Dissertation, read only version B",SUN,TAN,Study2,S,155,151,Test,User,-,,Recall,Recall1,5671,MOON,28.571428571429,1561,4931,0,0,,1
5ebc9542e7dea50e8451e07b,tyc54diywv,Nick_Dissertation_EX1,1,156,2020-10-24T10:34:17-07:00,1.9669289588928,2,versionA_stim.csv,READVersionB.csv,"Read Version B","Dissertation, read only version B",AFFECTION,LOVE,Study2,F,115,101,Test,User,-,,Recall,Recall1,1607,LOVE,100,1025,1474,1,1,,1
5ebc9542e7dea50e8451e07b,tyc54diywv,Nick_Dissertation_EX1,1,157,2020-10-24T10:34:22-07:00,4.6490681171417,2,versionA_stim.csv,READVersionB.csv,"Read Version B","Dissertation, read only version B",CAKE,CLOTHES,Study2,U,166,155,Test,User,-,,Recall,Recall1,4316,PARTY,16.666666666667,2120,4142,0,0,,1
5ebc9542e7dea50e8451e07b,tyc54diywv,Nick_Dissertation_EX1,1,158,2020-10-24T10:34:26-07:00,4.260509967804,2,versionA_stim.csv,READVersionB.csv,"Read Version B","Dissertation, read only version B",LITTER,TRASH,Study2,F,103,106,Test,User,-,,Recall,Recall1,3923,TRASH,100,2603,3353,1,1,,1
5ebc9542e7dea50e8451e07b,tyc54diywv,Nick_Dissertation_EX1,1,159,2020-10-24T10:34:29-07:00,2.5796239376068,2,versionA_stim.csv,READVersionB.csv,"Read Version B","Dissertation, read only version B",MONEY,BANKER,Study2,B,132,130,Test,User,-,,Recall,Recall1,2219,BUY,22.222222222222,1719,1968,0,0,,1
5ebc9542e7dea50e8451e07b,tyc54diywv,Nick_Dissertation_EX1,1,160,2020-10-24T10:34:31-07:00,2.5681221485138,2,versionA_stim.csv,READVersionB.csv,"Read Version B","Dissertation, read only version B",CAT,PANTHER,Study2,B,126,156,Test,User,-,,Recall,Recall1,2217,,0,-1,-1,0,0,,1
5ebc9542e7dea50e8451e07b,tyc54diywv,Nick_Dissertation_EX1,1,161,2020-10-24T10:34:33-07:00,1.7064549922943,2,versionA_stim.csv,READVersionB.csv,"Read Version B","Dissertation, read only version B",SHOELACE,TIE,Study2,F,99,168,Test,User,-,,Recall,Recall1,1381,TIE,100,1062,1245,1,1,,1
5ebc9542e7dea50e8451e07b,tyc54diywv,Nick_Dissertation_EX1,1,162,2020-10-24T10:34:35-07:00,2.2140839099884,2,versionA_stim.csv,READVersionB.csv,"Read Version B","Dissertation, read only version B",GONE,AWAY,Study2,S,142,141,Test,User,-,,Recall,Recall1,1856,ALONE,22.222222222222,1230,1726,0,0,,1
5ebc9542e7dea50e8451e07b,tyc54diywv,Nick_Dissertation_EX1,1,163,2020-10-24T10:34:40-07:00,4.2016670703888,2,versionA_stim.csv,READVersionB.csv,"Read Version B","Dissertation, read only version B",EVEN,REVENGE,Study2,B,122,146,Test,User,-,,Recall,Recall1,3769,REVENGE,100,2980,3602,1,1,,1
5ebc9542e7dea50e8451e07b,tyc54diywv,Nick_Dissertation_EX1,1,164,2020-10-24T10:34:42-07:00,2.5602080821991,2,versionA_stim.csv,READVersionB.csv,"Read Version B","Dissertation, read only version B",RIGHTS,EQUAL,Study2,S,137,158,Test,User,-,,Recall,Recall1,2224,EQUAL,100,1095,2017,1,1,,1
5ebc9542e7dea50e8451e07b,tyc54diywv,Nick_Dissertation_EX1,1,165,2020-10-24T10:34:44-07:00,2.3571569919586,2,versionA_stim.csv,READVersionB.csv,"Read Version B","Dissertation, read only version B",MIRROR,CHILDREN,Study2,U,174,154,Test,User,-,,Recall,Recall1,1926,CHILDREN,100,1062,1714,1,1,,1
5ebc9542e7dea50e8451e07b,tyc54diywv,Nick_Dissertation_EX1,1,166,2020-10-24T10:34:49-07:00,4.5073118209839,2,versionA_stim.csv,READVersionB.csv,"Read Version B","Dissertation, read only version B",SHEARS,SCISSORS,Study2,F,112,129,Test,User,-,,Recall,Recall1,3000,SCISSORS,100,1149,2885,1,1,,1
5ebc9542e7dea50e8451e07b,tyc54diywv,Nick_Dissertation_EX1,1,167,2020-10-24T10:34:52-07:00,2.7865700721741,2,versionA_stim.csv,READVersionB.csv,"Read Version B","Dissertation, read only version B",CHOP,CUT,Study2,F,107,142,Test,User,-,,Recall,Recall1,2438,CUT,100,2096,2272,1,1,,1
5ebc9542e7dea50e8451e07b,tyc54diywv,Nick_Dissertation_EX1,1,168,2020-10-24T10:35:02-07:00,10.514822006226,2,versionA_stim.csv,READVersionB.csv,"Read Version B","Dissertation, read only version B",LEASE,TOIL,Study2,U,170,149,Test,User,-,,Recall,Recall1,8991,WORRY,22.222222222222,8028,8528,0,0,,1
5ebc9542e7dea50e8451e07b,tyc54diywv,Nick_Dissertation_EX1,1,169,2020-10-24T10:35:04-07:00,1.9441020488739,2,versionA_stim.csv,READVersionB.csv,"Read Version B","Dissertation, read only version B",ADJOURN,END,Study2,F,101,122,Test,User,-,,Recall,Recall1,1597,END,100,1260,1451,1,1,,1
5ebc9542e7dea50e8451e07b,tyc54diywv,Nick_Dissertation_EX1,1,170,2020-10-24T10:35:11-07:00,6.2823278903961,2,versionA_stim.csv,READVersionB.csv,"Read Version B","Dissertation, read only version B",SAFETY,SEATBELT,Study2,S,147,174,Test,User,-,,Recall,Recall1,5945,SEATBELT,100,1413,3434,1,1,,1
5ebc9542e7dea50e8451e07b,tyc54diywv,Nick_Dissertation_EX1,1,171,2020-10-24T10:35:17-07:00,6.3250391483307,2,versionA_stim.csv,READVersionB.csv,"Read Version B","Dissertation, read only version B",FISH,SARDINE,Study2,B,130,161,Test,User,-,,Recall,Recall1,5991,SHRIMP,46.153846153846,4485,5745,0,0,,1
5ebc9542e7dea50e8451e07b,tyc54diywv,Nick_Dissertation_EX1,1,172,2020-10-24T10:35:21-07:00,4.4117858409882,2,versionA_stim.csv,READVersionB.csv,"Read Version B","Dissertation, read only version B",SLEEP,NAP,Study2,B,134,147,Test,User,-,,Recall,Recall1,4070,,0,3235,3367,0,0,,1
5ebc9542e7dea50e8451e07b,tyc54diywv,Nick_Dissertation_EX1,1,173,2020-10-24T10:35:25-07:00,3.2777981758118,2,versionA_stim.csv,READVersionB.csv,"Read Version B","Dissertation, read only version B",DETECTIVE,MYSTERY,Study2,F,100,131,Test,User,-,,Recall,Recall1,2942,MYSTERY,100,1720,2548,1,1,,1
5ebc9542e7dea50e8451e07b,tyc54diywv,Nick_Dissertation_EX1,1,174,2020-10-24T10:35:28-07:00,3.1198098659515,2,versionA_stim.csv,READVersionB.csv,"Read Version B","Dissertation, read only version B",PHONE,COMMUNICATION,Study2,S,149,150,Test,User,-,,Recall,Recall1,2798,CALL,23.529411764706,2005,2385,0,0,,1
5ebc9542e7dea50e8451e07b,tyc54diywv,Nick_Dissertation_EX1,1,175,2020-10-24T10:35:41-07:00,12.972965955734,2,versionA_stim.csv,READVersionB.csv,"Read Version B","Dissertation, read only version B",,,,,,0,Instruct,-,10,"You will now be presented with a new set of word pairs. Please study each pair. Remember that your memory will be tested! When finished, press Enter to move to the next pair.",Initial_Instruct,Instruct4,12612,,,-1,-1,,,,1
5ebc9542e7dea50e8451e07b,tyc54diywv,Nick_Dissertation_EX1,1,176,2020-10-24T10:35:45-07:00,4.1781320571899,2,versionA_stim.csv,READVersionB.csv,"Read Version B","Dissertation, read only version B",SCARE,HIDE,BUFFER1,Buffer,4,2,Study,User,-,,Study/JOL,BUFFER3,3819,,,-1,-1,,,,1
5ebc9542e7dea50e8451e07b,tyc54diywv,Nick_Dissertation_EX1,1,177,2020-10-24T10:35:47-07:00,1.6858420372009,2,versionA_stim.csv,READVersionB.csv,"Read Version B","Dissertation, read only version B",PEANUT,BUTTER,BUFFER1,Buffer,3,6,Study,User,-,,Study/JOL,BUFFER3,1367,,,-1,-1,,,,1
5ebc9542e7dea50e8451e07b,tyc54diywv,Nick_Dissertation_EX1,1,178,2020-10-24T10:35:48-07:00,1.8009760379791,2,versionA_stim.csv,READVersionB.csv,"Read Version B","Dissertation, read only version B",SPACE,JAM,BUFFER1,Buffer,5,3,Study,User,-,,Study/JOL,BUFFER3,1471,,,-1,-1,,,,1
5ebc9542e7dea50e8451e07b,tyc54diywv,Nick_Dissertation_EX1,1,179,2020-10-24T10:35:52-07:00,3.2648370265961,2,versionA_stim.csv,READVersionB.csv,"Read Version B","Dissertation, read only version B",TREES,GREEN,BUFFER1,Buffer,1,4,Study,User,-,,Study/JOL,BUFFER3,2889,,,-1,-1,,,,1
5ebc9542e7dea50e8451e07b,tyc54diywv,Nick_Dissertation_EX1,1,180,2020-10-24T10:35:54-07:00,2.63933801651,2,versionA_stim.csv,READVersionB.csv,"Read Version B","Dissertation, read only version B",BASEBALL,CATCHER,BUFFER1,Buffer,2,5,Study,User,-,,Study/JOL,BUFFER3,2270,,,-1,-1,,,,1
5ebc9542e7dea50e8451e07b,tyc54diywv,Nick_Dissertation_EX1,1,181,2020-10-24T10:35:57-07:00,3.1969718933105,2,versionA_stim.csv,READVersionB.csv,"Read Version B","Dissertation, read only version B",DELINQUENT,BAD,Study1,F,6,60,Study,User,-,,Study/JOL,"Study Phase2",2843,,,-1,-1,,,,1
5ebc9542e7dea50e8451e07b,tyc54diywv,Nick_Dissertation_EX1,1,182,2020-10-24T10:36:00-07:00,2.5229830741882,2,versionA_stim.csv,READVersionB.csv,"Read Version B","Dissertation, read only version B",PAW,DOG,Study1,F,15,15,Study,User,-,,Study/JOL,"Study Phase2",1984,,,-1,-1,,,,1
5ebc9542e7dea50e8451e07b,tyc54diywv,Nick_Dissertation_EX1,1,183,2020-10-24T10:36:04-07:00,3.6931450366974,2,versionA_stim.csv,READVersionB.csv,"Read Version B","Dissertation, read only version B",BUG,WASP,Study1,B,32,75,Study,User,-,,Study/JOL,"Study Phase2",3295,,,-1,-1,,,,1
5ebc9542e7dea50e8451e07b,tyc54diywv,Nick_Dissertation_EX1,1,184,2020-10-24T10:36:06-07:00,2.4047269821167,2,versionA_stim.csv,READVersionB.csv,"Read Version B","Dissertation, read only version B",SMELL,STENCH,Study1,B,42,81,Study,User,-,,Study/JOL,"Study Phase2",2066,,,-1,-1,,,,1
5ebc9542e7dea50e8451e07b,tyc54diywv,Nick_Dissertation_EX1,1,185,2020-10-24T10:36:09-07:00,3.0669269561768,2,versionA_stim.csv,READVersionB.csv,"Read Version B","Dissertation, read only version B",NUMBER,AMOUNT,Study1,S,47,29,Study,User,-,,Study/JOL,"Study Phase2",2637,,,-1,-1,,,,1
5ebc9542e7dea50e8451e07b,tyc54diywv,Nick_Dissertation_EX1,1,186,2020-10-24T10:36:12-07:00,3.3894560337067,2,versionA_stim.csv,READVersionB.csv,"Read Version B","Dissertation, read only version B",MATH,DIVISION,Study1,B,33,30,Study,User,-,,Study/JOL,"Study Phase2",3046,,,-1,-1,,,,1
5ebc9542e7dea50e8451e07b,tyc54diywv,Nick_Dissertation_EX1,1,187,2020-10-24T10:36:16-07:00,3.7674689292908,2,versionA_stim.csv,READVersionB.csv,"Read Version B","Dissertation, read only version B",DISCOVER,FLOOR,Study1,U,71,27,Study,User,-,,Study/JOL,"Study Phase2",3421,,,-1,-1,,,,1
5ebc9542e7dea50e8451e07b,tyc54diywv,Nick_Dissertation_EX1,1,188,2020-10-24T10:36:20-07:00,3.9929170608521,2,versionA_stim.csv,READVersionB.csv,"Read Version B","Dissertation, read only version B",ALLOW,TUCK,Study1,U,78,23,Study,User,-,,Study/JOL,"Study Phase2",3670,,,-1,-1,,,,1
5ebc9542e7dea50e8451e07b,tyc54diywv,Nick_Dissertation_EX1,1,189,2020-10-24T10:36:23-07:00,3.0332789421082,2,versionA_stim.csv,READVersionB.csv,"Read Version B","Dissertation, read only version B",WORK,CHORE,Study1,B,39,71,Study,User,-,,Study/JOL,"Study Phase2",2717,,,-1,-1,,,,1
5ebc9542e7dea50e8451e07b,tyc54diywv,Nick_Dissertation_EX1,1,190,2020-10-24T10:36:25-07:00,2.2011649608612,2,versionA_stim.csv,READVersionB.csv,"Read Version B","Dissertation, read only version B",DARK,CAVE,Study1,B,28,9,Study,User,-,,Study/JOL,"Study Phase2",1843,,,-1,-1,,,,1
5ebc9542e7dea50e8451e07b,tyc54diywv,Nick_Dissertation_EX1,1,191,2020-10-24T10:36:28-07:00,2.5510320663452,2,versionA_stim.csv,READVersionB.csv,"Read Version B","Dissertation, read only version B",KIDNEY,LIVER,Study1,S,53,62,Study,User,-,,Study/JOL,"Study Phase2",2130,,,-1,-1,,,,1
5ebc9542e7dea50e8451e07b,tyc54diywv,Nick_Dissertation_EX1,1,192,2020-10-24T10:36:31-07:00,2.5190629959106,2,versionA_stim.csv,READVersionB.csv,"Read Version B","Dissertation, read only version B",DIGESTION,STOMACH,Study1,F,7,25,Study,User,-,,Study/JOL,"Study Phase2",2180,,,-1,-1,,,,1
5ebc9542e7dea50e8451e07b,tyc54diywv,Nick_Dissertation_EX1,1,193,2020-10-24T10:36:37-07:00,6.2823669910431,2,versionA_stim.csv,READVersionB.csv,"Read Version B","Dissertation, read only version B",VALLEY,ADD,Study1,U,82,64,Study,User,-,,Study/JOL,"Study Phase2",5928,,,-1,-1,,,,1
5ebc9542e7dea50e8451e07b,tyc54diywv,Nick_Dissertation_EX1,1,194,2020-10-24T10:36:40-07:00,2.7132179737091,2,versionA_stim.csv,READVersionB.csv,"Read Version B","Dissertation, read only version B",SENTENCE,WORD,Study1,B,31,14,Study,User,-,,Study/JOL,"Study Phase2",2375,,,-1,-1,,,,1
5ebc9542e7dea50e8451e07b,tyc54diywv,Nick_Dissertation_EX1,1,195,2020-10-24T10:36:47-07:00,6.9889349937439,2,versionA_stim.csv,READVersionB.csv,"Read Version B","Dissertation, read only version B",DIETARY,SACKING,Study1,U,67,44,Study,User,-,,Study/JOL,"Study Phase2",6643,,,-1,-1,,,,1
5ebc9542e7dea50e8451e07b,tyc54diywv,Nick_Dissertation_EX1,1,196,2020-10-24T10:36:50-07:00,3.3493890762329,2,versionA_stim.csv,READVersionB.csv,"Read Version B","Dissertation, read only version B",SHOE,FOOT,Study1,S,60,58,Study,User,-,,Study/JOL,"Study Phase2",3018,,,-1,-1,,,,1
5ebc9542e7dea50e8451e07b,tyc54diywv,Nick_Dissertation_EX1,1,197,2020-10-24T10:36:52-07:00,2.3473589420319,2,versionA_stim.csv,READVersionB.csv,"Read Version B","Dissertation, read only version B",GRILL,BAR,Study1,S,52,54,Study,User,-,,Study/JOL,"Study Phase2",1940,,,-1,-1,,,,1
5ebc9542e7dea50e8451e07b,tyc54diywv,Nick_Dissertation_EX1,1,198,2020-10-24T10:36:56-07:00,3.6029100418091,2,versionA_stim.csv,READVersionB.csv,"Read Version B","Dissertation, read only version B",CASH,WOULD,Study1,U,83,31,Study,User,-,,Study/JOL,"Study Phase2",3181,,,-1,-1,,,,1
5ebc9542e7dea50e8451e07b,tyc54diywv,Nick_Dissertation_EX1,1,199,2020-10-24T10:36:58-07:00,2.2765698432922,2,versionA_stim.csv,READVersionB.csv,"Read Version B","Dissertation, read only version B",DUE,ASSIGNMENT,Study1,S,46,61,Study,User,-,,Study/JOL,"Study Phase2",1854,,,-1,-1,,,,1
5ebc9542e7dea50e8451e07b,tyc54diywv,Nick_Dissertation_EX1,1,200,2020-10-24T10:37:01-07:00,2.8100430965424,2,versionA_stim.csv,READVersionB.csv,"Read Version B","Dissertation, read only version B",POP,SODA,Study1,S,56,37,Study,User,-,,Study/JOL,"Study Phase2",2365,,,-1,-1,,,,1
5ebc9542e7dea50e8451e07b,tyc54diywv,Nick_Dissertation_EX1,1,201,2020-10-24T10:37:03-07:00,2.5339798927307,2,versionA_stim.csv,READVersionB.csv,"Read Version B","Dissertation, read only version B",REVOLUTION,WAR,Study1,F,20,10,Study,User,-,,Study/JOL,"Study Phase2",2161,,,-1,-1,,,,1
5ebc9542e7dea50e8451e07b,tyc54diywv,Nick_Dissertation_EX1,1,202,2020-10-24T10:37:05-07:00,1.8758060932159,2,versionA_stim.csv,READVersionB.csv,"Read Version B","Dissertation, read only version B",EDITOR,NEWS,Study1,F,10,56,Study,User,-,,Study/JOL,"Study Phase2",1548,,,-1,-1,,,,1
5ebc9542e7dea50e8451e07b,tyc54diywv,Nick_Dissertation_EX1,1,203,2020-10-24T10:37:12-07:00,6.6961150169373,2,versionA_stim.csv,READVersionB.csv,"Read Version B","Dissertation, read only version B",ARTERY,BRONZE,Study1,U,74,70,Study,User,-,,Study/JOL,"Study Phase2",4815,,,-1,-1,,,,1
5ebc9542e7dea50e8451e07b,tyc54diywv,Nick_Dissertation_EX1,1,204,2020-10-24T10:37:15-07:00,2.8890891075134,2,versionA_stim.csv,READVersionB.csv,"Read Version B","Dissertation, read only version B",WAGE,MONEY,Study1,F,8,21,Study,User,-,,Study/JOL,"Study Phase2",2540,,,-1,-1,,,,1
5ebc9542e7dea50e8451e07b,tyc54diywv,Nick_Dissertation_EX1,1,205,2020-10-24T10:37:17-07:00,2.5271790027618,2,versionA_stim.csv,READVersionB.csv,"Read Version B","Dissertation, read only version B",HAPPY,CAR,Study1,U,77,28,Study,User,-,,Study/JOL,"Study Phase2",2189,,,-1,-1,,,,1
5ebc9542e7dea50e8451e07b,tyc54diywv,Nick_Dissertation_EX1,1,206,2020-10-24T10:37:20-07:00,2.6240229606628,2,versionA_stim.csv,READVersionB.csv,"Read Version B","Dissertation, read only version B",FULL,ENOUGH,Study1,B,26,38,Study,User,-,,Study/JOL,"Study Phase2",2285,,,-1,-1,,,,1
5ebc9542e7dea50e8451e07b,tyc54diywv,Nick_Dissertation_EX1,1,207,2020-10-24T10:37:25-07:00,4.4701910018921,2,versionA_stim.csv,READVersionB.csv,"Read Version B","Dissertation, read only version B",MACHINE,POSITION,Study1,U,76,77,Study,User,-,,Study/JOL,"Study Phase2",4146,,,-1,-1,,,,1
5ebc9542e7dea50e8451e07b,tyc54diywv,Nick_Dissertation_EX1,1,208,2020-10-24T10:37:29-07:00,4.2585580348969,2,versionA_stim.csv,READVersionB.csv,"Read Version B","Dissertation, read only version B",SOON,BELT,Study1,U,70,41,Study,User,-,,Study/JOL,"Study Phase2",3891,,,-1,-1,,,,1
5ebc9542e7dea50e8451e07b,tyc54diywv,Nick_Dissertation_EX1,1,209,2020-10-24T10:37:31-07:00,2.0811820030212,2,versionA_stim.csv,READVersionB.csv,"Read Version B","Dissertation, read only version B",BABY,CHILD,Study1,S,64,12,Study,User,-,,Study/JOL,"Study Phase2",1762,,,-1,-1,,,,1
5ebc9542e7dea50e8451e07b,tyc54diywv,Nick_Dissertation_EX1,1,210,2020-10-24T10:37:33-07:00,2.2710859775543,2,versionA_stim.csv,READVersionB.csv,"Read Version B","Dissertation, read only version B",TUNA,FISH,Study1,F,25,24,Study,User,-,,Study/JOL,"Study Phase2",1954,,,-1,-1,,,,1
5ebc9542e7dea50e8451e07b,tyc54diywv,Nick_Dissertation_EX1,1,211,2020-10-24T10:37:38-07:00,4.4280588626862,2,versionA_stim.csv,READVersionB.csv,"Read Version B","Dissertation, read only version B",DISCUSSION,TALK,Study1,F,21,57,Study,User,-,,Study/JOL,"Study Phase2",4070,,,-1,-1,,,,1
5ebc9542e7dea50e8451e07b,tyc54diywv,Nick_Dissertation_EX1,1,212,2020-10-24T10:37:42-07:00,4.5154221057892,2,versionA_stim.csv,READVersionB.csv,"Read Version B","Dissertation, read only version B",ART,LION,Study1,U,79,63,Study,User,-,,Study/JOL,"Study Phase2",4185,,,-1,-1,,,,1
5ebc9542e7dea50e8451e07b,tyc54diywv,Nick_Dissertation_EX1,1,213,2020-10-24T10:37:44-07:00,2.2309770584106,2,versionA_stim.csv,READVersionB.csv,"Read Version B","Dissertation, read only version B",HOT,CHILI,Study1,B,37,33,Study,User,-,,Study/JOL,"Study Phase2",1896,,,-1,-1,,,,1
5ebc9542e7dea50e8451e07b,tyc54diywv,Nick_Dissertation_EX1,1,214,2020-10-24T10:37:47-07:00,3.1074638366699,2,versionA_stim.csv,READVersionB.csv,"Read Version B","Dissertation, read only version B",SLEEP,DROWSY,Study1,B,41,69,Study,User,-,,Study/JOL,"Study Phase2",2649,,,-1,-1,,,,1
5ebc9542e7dea50e8451e07b,tyc54diywv,Nick_Dissertation_EX1,1,215,2020-10-24T10:37:50-07:00,2.1069581508636,2,versionA_stim.csv,READVersionB.csv,"Read Version B","Dissertation, read only version B",HYGIENE,CLEAN,Study1,F,17,34,Study,User,-,,Study/JOL,"Study Phase2",1765,,,-1,-1,,,,1
5ebc9542e7dea50e8451e07b,tyc54diywv,Nick_Dissertation_EX1,1,216,2020-10-24T10:37:52-07:00,2.865306854248,2,versionA_stim.csv,READVersionB.csv,"Read Version B","Dissertation, read only version B",CLOTHES,ATTIRE,Study1,B,43,68,Study,User,-,,Study/JOL,"Study Phase2",2533,,,-1,-1,,,,1
5ebc9542e7dea50e8451e07b,tyc54diywv,Nick_Dissertation_EX1,1,217,2020-10-24T10:37:57-07:00,4.9990990161896,2,versionA_stim.csv,READVersionB.csv,"Read Version B","Dissertation, read only version B",DEBATE,SIGHT,Study1,U,73,79,Study,User,-,,Study/JOL,"Study Phase2",3552,,,-1,-1,,,,1
5ebc9542e7dea50e8451e07b,tyc54diywv,Nick_Dissertation_EX1,1,218,2020-10-24T10:38:01-07:00,3.7544000148773,2,versionA_stim.csv,READVersionB.csv,"Read Version B","Dissertation, read only version B",GEOLOGY,ROCK,Study1,F,19,55,Study,User,-,,Study/JOL,"Study Phase2",2263,,,-1,-1,,,,1
5ebc9542e7dea50e8451e07b,tyc54diywv,Nick_Dissertation_EX1,1,219,2020-10-24T10:38:04-07:00,2.6142380237579,2,versionA_stim.csv,READVersionB.csv,"Read Version B","Dissertation, read only version B",PLANE,PILOT,Study1,B,44,47,Study,User,-,,Study/JOL,"Study Phase2",2291,,,-1,-1,,,,1
5ebc9542e7dea50e8451e07b,tyc54diywv,Nick_Dissertation_EX1,1,220,2020-10-24T10:38:06-07:00,1.9427978992462,2,versionA_stim.csv,READVersionB.csv,"Read Version B","Dissertation, read only version B",LETTUCE,SALAD,Study1,S,59,48,Study,User,-,,Study/JOL,"Study Phase2",1620,,,-1,-1,,,,1
5ebc9542e7dea50e8451e07b,tyc54diywv,Nick_Dissertation_EX1,1,221,2020-10-24T10:38:10-07:00,4.5696589946747,2,versionA_stim.csv,READVersionB.csv,"Read Version B","Dissertation, read only version B",FIX,HAND,Study1,U,75,76,Study,User,-,,Study/JOL,"Study Phase2",3259,,,-1,-1,,,,1
5ebc9542e7dea50e8451e07b,tyc54diywv,Nick_Dissertation_EX1,1,222,2020-10-24T10:38:14-07:00,3.5142290592194,2,versionA_stim.csv,READVersionB.csv,"Read Version B","Dissertation, read only version B",GREAT,FANTASTIC,Study1,B,35,7,Study,User,-,,Study/JOL,"Study Phase2",3116,,,-1,-1,,,,1
5ebc9542e7dea50e8451e07b,tyc54diywv,Nick_Dissertation_EX1,1,223,2020-10-24T10:38:16-07:00,2.6061849594116,2,versionA_stim.csv,READVersionB.csv,"Read Version B","Dissertation, read only version B",ARCHITECTURE,DESIGN,Study1,S,51,45,Study,User,-,,Study/JOL,"Study Phase2",2255,,,-1,-1,,,,1
5ebc9542e7dea50e8451e07b,tyc54diywv,Nick_Dissertation_EX1,1,224,2020-10-24T10:38:20-07:00,3.150591135025,2,versionA_stim.csv,READVersionB.csv,"Read Version B","Dissertation, read only version B",BEGIN,END,Study1,S,54,11,Study,User,-,,Study/JOL,"Study Phase2",2825,,,-1,-1,,,,1
5ebc9542e7dea50e8451e07b,tyc54diywv,Nick_Dissertation_EX1,1,225,2020-10-24T10:38:21-07:00,1.3158979415894,2,versionA_stim.csv,READVersionB.csv,"Read Version B","Dissertation, read only version B",HONEY,BEE,Study1,S,63,86,Study,User,-,,Study/JOL,"Study Phase2",1001,,,-1,-1,,,,1
5ebc9542e7dea50e8451e07b,tyc54diywv,Nick_Dissertation_EX1,1,226,2020-10-24T10:38:23-07:00,2.253427028656,2,versionA_stim.csv,READVersionB.csv,"Read Version B","Dissertation, read only version B",CHISEL,HAMMER,Study1,F,9,17,Study,User,-,,Study/JOL,"Study Phase2",1906,,,-1,-1,,,,1
5ebc9542e7dea50e8451e07b,tyc54diywv,Nick_Dissertation_EX1,1,227,2020-10-24T10:38:27-07:00,3.6913089752197,2,versionA_stim.csv,READVersionB.csv,"Read Version B","Dissertation, read only version B",LIFT,WOMAN,Study1,U,69,83,Study,User,-,,Study/JOL,"Study Phase2",3289,,,-1,-1,,,,1
5ebc9542e7dea50e8451e07b,tyc54diywv,Nick_Dissertation_EX1,1,228,2020-10-24T10:38:30-07:00,2.9799580574036,2,versionA_stim.csv,READVersionB.csv,"Read Version B","Dissertation, read only version B",BLOW,WIND,Study1,S,55,36,Study,User,-,,Study/JOL,"Study Phase2",2646,,,-1,-1,,,,1
5ebc9542e7dea50e8451e07b,tyc54diywv,Nick_Dissertation_EX1,1,229,2020-10-24T10:38:33-07:00,3.1857209205627,2,versionA_stim.csv,READVersionB.csv,"Read Version B","Dissertation, read only version B",LOCATION,SITE,Study1,S,48,46,Study,User,-,,Study/JOL,"Study Phase2",2847,,,-1,-1,,,,1
5ebc9542e7dea50e8451e07b,tyc54diywv,Nick_Dissertation_EX1,1,230,2020-10-24T10:38:36-07:00,2.6940569877625,2,versionA_stim.csv,READVersionB.csv,"Read Version B","Dissertation, read only version B",MEANING,DEFINITION,Study1,S,62,43,Study,User,-,,Study/JOL,"Study Phase2",2379,,,-1,-1,,,,1
5ebc9542e7dea50e8451e07b,tyc54diywv,Nick_Dissertation_EX1,1,231,2020-10-24T10:38:45-07:00,9.1894330978394,2,versionA_stim.csv,READVersionB.csv,"Read Version B","Dissertation, read only version B",PUSHER,CLUTTER,Study1,U,66,8,Study,User,-,,Study/JOL,"Study Phase2",7734,,,-1,-1,,,,1
5ebc9542e7dea50e8451e07b,tyc54diywv,Nick_Dissertation_EX1,1,232,2020-10-24T10:38:47-07:00,2.5416719913483,2,versionA_stim.csv,READVersionB.csv,"Read Version B","Dissertation, read only version B",CIRCLE,ROUND,Study1,S,65,72,Study,User,-,,Study/JOL,"Study Phase2",2149,,,-1,-1,,,,1
5ebc9542e7dea50e8451e07b,tyc54diywv,Nick_Dissertation_EX1,1,233,2020-10-24T10:38:50-07:00,2.3316059112549,2,versionA_stim.csv,READVersionB.csv,"Read Version B","Dissertation, read only version B",BRIDGE,WATER,Study1,F,18,13,Study,User,-,,Study/JOL,"Study Phase2",1970,,,-1,-1,,,,1
5ebc9542e7dea50e8451e07b,tyc54diywv,Nick_Dissertation_EX1,1,234,2020-10-24T10:38:52-07:00,1.7816200256348,2,versionA_stim.csv,READVersionB.csv,"Read Version B","Dissertation, read only version B",HORNET,STING,Study1,F,11,19,Study,User,-,,Study/JOL,"Study Phase2",1461,,,-1,-1,,,,1
5ebc9542e7dea50e8451e07b,tyc54diywv,Nick_Dissertation_EX1,1,235,2020-10-24T10:38:58-07:00,6.5178759098053,2,versionA_stim.csv,READVersionB.csv,"Read Version B","Dissertation, read only version B",HIDE,SICK,Study1,U,84,35,Study,User,-,,Study/JOL,"Study Phase2",6184,,,-1,-1,,,,1
5ebc9542e7dea50e8451e07b,tyc54diywv,Nick_Dissertation_EX1,1,236,2020-10-24T10:39:00-07:00,2.3082180023193,2,versionA_stim.csv,READVersionB.csv,"Read Version B","Dissertation, read only version B",HERD,COW,Study1,F,22,50,Study,User,-,,Study/JOL,"Study Phase2",1903,,,-1,-1,,,,1
5ebc9542e7dea50e8451e07b,tyc54diywv,Nick_Dissertation_EX1,1,237,2020-10-24T10:39:04-07:00,3.4467210769653,2,versionA_stim.csv,READVersionB.csv,"Read Version B","Dissertation, read only version B",BATHROOM,TOILET,Study1,S,58,78,Study,User,-,,Study/JOL,"Study Phase2",3007,,,-1,-1,,,,1
5ebc9542e7dea50e8451e07b,tyc54diywv,Nick_Dissertation_EX1,1,238,2020-10-24T10:39:06-07:00,1.987133026123,2,versionA_stim.csv,READVersionB.csv,"Read Version B","Dissertation, read only version B",WAY,OUT,Study1,F,16,26,Study,User,-,,Study/JOL,"Study Phase2",1674,,,-1,-1,,,,1
5ebc9542e7dea50e8451e07b,tyc54diywv,Nick_Dissertation_EX1,1,239,2020-10-24T10:39:08-07:00,1.941202878952,2,versionA_stim.csv,READVersionB.csv,"Read Version B","Dissertation, read only version B",FIRE,BLAZE,Study1,B,45,74,Study,User,-,,Study/JOL,"Study Phase2",1610,,,-1,-1,,,,1
5ebc9542e7dea50e8451e07b,tyc54diywv,Nick_Dissertation_EX1,1,240,2020-10-24T10:39:10-07:00,1.9586441516876,2,versionA_stim.csv,READVersionB.csv,"Read Version B","Dissertation, read only version B",DRINK,SIP,Study1,B,27,22,Study,User,-,,Study/JOL,"Study Phase2",1622,,,-1,-1,,,,1
5ebc9542e7dea50e8451e07b,tyc54diywv,Nick_Dissertation_EX1,1,241,2020-10-24T10:39:14-07:00,3.8560359477997,2,versionA_stim.csv,READVersionB.csv,"Read Version B","Dissertation, read only version B",SUGAR,RIDDLE,Study1,U,81,18,Study,User,-,,Study/JOL,"Study Phase2",3537,,,-1,-1,,,,1
5ebc9542e7dea50e8451e07b,tyc54diywv,Nick_Dissertation_EX1,1,242,2020-10-24T10:39:19-07:00,4.9706389904022,2,versionA_stim.csv,READVersionB.csv,"Read Version B","Dissertation, read only version B",STRONG,ACCIDENT,Study1,U,80,65,Study,User,-,,Study/JOL,"Study Phase2",4635,,,-1,-1,,,,1
5ebc9542e7dea50e8451e07b,tyc54diywv,Nick_Dissertation_EX1,1,243,2020-10-24T10:39:22-07:00,3.3693749904633,2,versionA_stim.csv,READVersionB.csv,"Read Version B","Dissertation, read only version B",PARK,HUNGRY,Study1,U,68,42,Study,User,-,,Study/JOL,"Study Phase2",3036,,,-1,-1,,,,1
5ebc9542e7dea50e8451e07b,tyc54diywv,Nick_Dissertation_EX1,1,244,2020-10-24T10:39:23-07:00,1.0327010154724,2,versionA_stim.csv,READVersionB.csv,"Read Version B","Dissertation, read only version B",WINE,CHEESE,Study1,S,57,20,Study,User,-,,Study/JOL,"Study Phase2",708,,,-1,-1,,,,1
5ebc9542e7dea50e8451e07b,tyc54diywv,Nick_Dissertation_EX1,1,245,2020-10-24T10:39:28-07:00,4.7004210948944,2,versionA_stim.csv,READVersionB.csv,"Read Version B","Dissertation, read only version B",TAKE,SEIZE,Study1,B,29,16,Study,User,-,,Study/JOL,"Study Phase2",4356,,,-1,-1,,,,1
5ebc9542e7dea50e8451e07b,tyc54diywv,Nick_Dissertation_EX1,1,246,2020-10-24T10:39:30-07:00,2.7609279155731,2,versionA_stim.csv,READVersionB.csv,"Read Version B","Dissertation, read only version B",DUMP,WASTE,Study1,S,49,52,Study,User,-,,Study/JOL,"Study Phase2",2436,,,-1,-1,,,,1
5ebc9542e7dea50e8451e07b,tyc54diywv,Nick_Dissertation_EX1,1,247,2020-10-24T10:39:33-07:00,3.0994920730591,2,versionA_stim.csv,READVersionB.csv,"Read Version B","Dissertation, read only version B",KEY,LATCH,Study1,B,36,59,Study,User,-,,Study/JOL,"Study Phase2",2759,,,-1,-1,,,,1
5ebc9542e7dea50e8451e07b,tyc54diywv,Nick_Dissertation_EX1,1,248,2020-10-24T10:39:36-07:00,2.7217240333557,2,versionA_stim.csv,READVersionB.csv,"Read Version B","Dissertation, read only version B",ROOT,PLANT,Study1,F,13,51,Study,User,-,,Study/JOL,"Study Phase2",2396,,,-1,-1,,,,1
5ebc9542e7dea50e8451e07b,tyc54diywv,Nick_Dissertation_EX1,1,249,2020-10-24T10:39:38-07:00,1.3974688053131,2,versionA_stim.csv,READVersionB.csv,"Read Version B","Dissertation, read only version B",LAW,ATTORNEY,Study1,B,34,80,Study,User,-,,Study/JOL,"Study Phase2",1082,,,-1,-1,,,,1
5ebc9542e7dea50e8451e07b,tyc54diywv,Nick_Dissertation_EX1,1,250,2020-10-24T10:39:40-07:00,2.9061560630798,2,versionA_stim.csv,READVersionB.csv,"Read Version B","Dissertation, read only version B",BALL,RACKET,Study1,B,38,84,Study,User,-,,Study/JOL,"Study Phase2",2592,,,-1,-1,,,,1
5ebc9542e7dea50e8451e07b,tyc54diywv,Nick_Dissertation_EX1,1,251,2020-10-24T10:39:44-07:00,3.8595340251923,2,versionA_stim.csv,READVersionB.csv,"Read Version B","Dissertation, read only version B",SWAN,BIRD,Study1,F,14,49,Study,User,-,,Study/JOL,"Study Phase2",3523,,,-1,-1,,,,1
5ebc9542e7dea50e8451e07b,tyc54diywv,Nick_Dissertation_EX1,1,252,2020-10-24T10:39:46-07:00,1.7602300643921,2,versionA_stim.csv,READVersionB.csv,"Read Version B","Dissertation, read only version B",BITTER,COLD,Study1,F,12,66,Study,User,-,,Study/JOL,"Study Phase2",1436,,,-1,-1,,,,1
5ebc9542e7dea50e8451e07b,tyc54diywv,Nick_Dissertation_EX1,1,253,2020-10-24T10:39:47-07:00,1.2703719139099,2,versionA_stim.csv,READVersionB.csv,"Read Version B","Dissertation, read only version B",ORCHID,FLOWER,Study1,F,24,39,Study,User,-,,Study/JOL,"Study Phase2",955,,,-1,-1,,,,1
5ebc9542e7dea50e8451e07b,tyc54diywv,Nick_Dissertation_EX1,1,254,2020-10-24T10:39:50-07:00,2.4055299758911,2,versionA_stim.csv,READVersionB.csv,"Read Version B","Dissertation, read only version B",PAST,FUTURE,Study1,S,61,85,Study,User,-,,Study/JOL,"Study Phase2",2033,,,-1,-1,,,,1
5ebc9542e7dea50e8451e07b,tyc54diywv,Nick_Dissertation_EX1,1,255,2020-10-24T10:39:54-07:00,4.1911270618439,2,versionA_stim.csv,READVersionB.csv,"Read Version B","Dissertation, read only version B",KING,VASE,Study1,U,85,53,Study,User,-,,Study/JOL,"Study Phase2",3849,,,-1,-1,,,,1
5ebc9542e7dea50e8451e07b,tyc54diywv,Nick_Dissertation_EX1,1,256,2020-10-24T10:39:57-07:00,2.9455749988556,2,versionA_stim.csv,READVersionB.csv,"Read Version B","Dissertation, read only version B",TRIAL,JURY,Study1,S,50,40,Study,User,-,,Study/JOL,"Study Phase2",2599,,,-1,-1,,,,1
5ebc9542e7dea50e8451e07b,tyc54diywv,Nick_Dissertation_EX1,1,257,2020-10-24T10:40:00-07:00,3.5377819538116,2,versionA_stim.csv,READVersionB.csv,"Read Version B","Dissertation, read only version B",HEIGHT,GROWTH,Study1,B,30,82,Study,User,-,,Study/JOL,"Study Phase2",3192,,,-1,-1,,,,1
5ebc9542e7dea50e8451e07b,tyc54diywv,Nick_Dissertation_EX1,1,258,2020-10-24T10:40:03-07:00,2.8925950527191,2,versionA_stim.csv,READVersionB.csv,"Read Version B","Dissertation, read only version B",DEATH,BUSINESS,Study1,U,72,67,Study,User,-,,Study/JOL,"Study Phase2",2498,,,-1,-1,,,,1
5ebc9542e7dea50e8451e07b,tyc54diywv,Nick_Dissertation_EX1,1,259,2020-10-24T10:40:05-07:00,2.0438730716705,2,versionA_stim.csv,READVersionB.csv,"Read Version B","Dissertation, read only version B",HUNGER,FAMINE,Study1,B,40,73,Study,User,-,,Study/JOL,"Study Phase2",1712,,,-1,-1,,,,1
5ebc9542e7dea50e8451e07b,tyc54diywv,Nick_Dissertation_EX1,1,260,2020-10-24T10:40:07-07:00,1.8102610111237,2,versionA_stim.csv,READVersionB.csv,"Read Version B","Dissertation, read only version B",CREDIT,CARD,Study1,F,23,32,Study,User,-,,Study/JOL,"Study Phase2",1459,,,-1,-1,,,,1
5ebc9542e7dea50e8451e07b,tyc54diywv,Nick_Dissertation_EX1,1,261,2020-10-24T10:40:10-07:00,2.527352809906,2,versionA_stim.csv,READVersionB.csv,"Read Version B","Dissertation, read only version B",MALT,CHOCOLATE,BUFFER2,Buffer,88,89,Study,User,-,,Study/JOL,BUFFER4,2195,,,-1,-1,,,,1
5ebc9542e7dea50e8451e07b,tyc54diywv,Nick_Dissertation_EX1,1,262,2020-10-24T10:40:13-07:00,2.9992799758911,2,versionA_stim.csv,READVersionB.csv,"Read Version B","Dissertation, read only version B",SHERRIF,POLICE,BUFFER2,Buffer,87,87,Study,User,-,,Study/JOL,BUFFER4,2664,,,-1,-1,,,,1
5ebc9542e7dea50e8451e07b,tyc54diywv,Nick_Dissertation_EX1,1,263,2020-10-24T10:40:15-07:00,2.6270952224731,2,versionA_stim.csv,READVersionB.csv,"Read Version B","Dissertation, read only version B",GEESE,GOOSE,BUFFER2,Buffer,86,91,Study,User,-,,Study/JOL,BUFFER4,2305,,,-1,-1,,,,1
5ebc9542e7dea50e8451e07b,tyc54diywv,Nick_Dissertation_EX1,1,264,2020-10-24T10:40:18-07:00,2.5315198898315,2,versionA_stim.csv,READVersionB.csv,"Read Version B","Dissertation, read only version B",MOON,SPACE,BUFFER2,Buffer,89,90,Study,User,-,,Study/JOL,BUFFER4,1778,,,-1,-1,,,,1
5ebc9542e7dea50e8451e07b,tyc54diywv,Nick_Dissertation_EX1,1,265,2020-10-24T10:40:20-07:00,2.3099000453949,2,versionA_stim.csv,READVersionB.csv,"Read Version B","Dissertation, read only version B",THING,STUFF,BUFFER2,Buffer,90,88,Study,User,-,,Study/JOL,BUFFER4,1864,,,-1,-1,,,,1
5ebc9542e7dea50e8451e07b,tyc54diywv,Nick_Dissertation_EX1,1,266,2020-10-24T10:40:21-07:00,1.1205289363861,2,versionA_stim.csv,READVersionB.csv,"Read Version B","Dissertation, read only version B",,,,,,0,Instruct,User,-,"You have completed this section. Please press Enter.",Filler_Instruction,Instruct5,784,,,-1,-1,,,,1
5ebc9542e7dea50e8451e07b,tyc54diywv,Nick_Dissertation_EX1,1,267,2020-10-24T10:42:22-07:00,120.48695707321,2,versionA_stim.csv,READVersionB.csv,"Read Version B","Dissertation, read only version B",,,,,,0,FreeRecall,120,120,"Please list the 50 US states in reverse alphabetical order (z - a). The task will automatically advance to the next screen after two minutes.",,Filler2,120003,"Wyoming West Virginia Vermont Utah Texas South Dakota South Carolina Oklahoma Ohio New York North Dakota North Carolina Nebraska Massachusetts Michigan Kansas Idaho Iowa Georgia Florida",0,14728,117662,0,0,,1
5ebc9542e7dea50e8451e07b,tyc54diywv,Nick_Dissertation_EX1,1,268,2020-10-24T10:42:37-07:00,15.257813930511,2,versionA_stim.csv,READVersionB.csv,"Read Version B","Dissertation, read only version B",,,,,,0,Instruct,-,10,"You will now be presented with the first word from each of the previously studied item pairs. Please type the missing word. If you do not know the word, you may guess or press Enter to skip forward to the next pair.",,Instruct6,14864,,,-1,-1,,,,1
5ebc9542e7dea50e8451e07b,tyc54diywv,Nick_Dissertation_EX1,1,269,2020-10-24T10:42:46-07:00,9.2199840545654,2,versionA_stim.csv,READVersionB.csv,"Read Version B","Dissertation, read only version B",EDITOR,NEWS,Study1,F,10,56,Test,User,-,,Recall,Recall2,8848,PAPER,22.222222222222,1840,5788,0,0,,1
5ebc9542e7dea50e8451e07b,tyc54diywv,Nick_Dissertation_EX1,1,270,2020-10-24T10:42:48-07:00,1.9902210235596,2,versionA_stim.csv,READVersionB.csv,"Read Version B","Dissertation, read only version B",CIRCLE,ROUND,Study1,S,65,72,Test,User,-,,Recall,Recall2,1638,ROUND,100,984,1483,1,1,,1
5ebc9542e7dea50e8451e07b,tyc54diywv,Nick_Dissertation_EX1,1,271,2020-10-24T10:42:53-07:00,4.3516018390656,2,versionA_stim.csv,READVersionB.csv,"Read Version B","Dissertation, read only version B",DARK,CAVE,Study1,B,28,9,Test,User,-,,Recall,Recall2,4017,NIGHT,0,3488,3864,0,0,,1
5ebc9542e7dea50e8451e07b,tyc54diywv,Nick_Dissertation_EX1,1,272,2020-10-24T10:42:57-07:00,4.0455751419067,2,versionA_stim.csv,READVersionB.csv,"Read Version B","Dissertation, read only version B",BLOW,WIND,Study1,S,55,36,Test,User,-,,Recall,Recall2,3686,WIND,100,3302,3522,1,1,,1
5ebc9542e7dea50e8451e07b,tyc54diywv,Nick_Dissertation_EX1,1,273,2020-10-24T10:43:04-07:00,7.5510699748993,2,versionA_stim.csv,READVersionB.csv,"Read Version B","Dissertation, read only version B",STRONG,ACCIDENT,Study1,U,80,65,Test,User,-,,Recall,Recall2,7187,ACCIDENT,100,5283,6765,1,1,,1
5ebc9542e7dea50e8451e07b,tyc54diywv,Nick_Dissertation_EX1,1,274,2020-10-24T10:43:06-07:00,2.2494208812714,2,versionA_stim.csv,READVersionB.csv,"Read Version B","Dissertation, read only version B",HEIGHT,GROWTH,Study1,B,30,82,Test,User,-,,Recall,Recall2,1898,GROWTH,100,1068,1688,1,1,,1
5ebc9542e7dea50e8451e07b,tyc54diywv,Nick_Dissertation_EX1,1,275,2020-10-24T10:43:16-07:00,9.8941600322723,2,versionA_stim.csv,READVersionB.csv,"Read Version B","Dissertation, read only version B",SOON,BELT,Study1,U,70,41,Test,User,-,,Recall,Recall2,9429,CAR,0,7486,8424,0,0,,1
5ebc9542e7dea50e8451e07b,tyc54diywv,Nick_Dissertation_EX1,1,276,2020-10-24T10:43:19-07:00,2.8906421661377,2,versionA_stim.csv,READVersionB.csv,"Read Version B","Dissertation, read only version B",SENTENCE,WORD,Study1,B,31,14,Test,User,-,,Recall,Recall2,2539,WORDS,88.888888888889,1945,2411,0,1,,1
5ebc9542e7dea50e8451e07b,tyc54diywv,Nick_Dissertation_EX1,1,277,2020-10-24T10:43:22-07:00,2.2852268218994,2,versionA_stim.csv,READVersionB.csv,"Read Version B","Dissertation, read only version B",ARCHITECTURE,DESIGN,Study1,S,51,45,Test,User,-,,Recall,Recall2,1916,DESIGN,100,1077,1702,1,1,,1
5ebc9542e7dea50e8451e07b,tyc54diywv,Nick_Dissertation_EX1,1,278,2020-10-24T10:43:23-07:00,1.7972300052643,2,versionA_stim.csv,READVersionB.csv,"Read Version B","Dissertation, read only version B",HERD,COW,Study1,F,22,50,Test,User,-,,Recall,Recall2,1470,COWS,85.714285714286,924,1294,0,1,,1
5ebc9542e7dea50e8451e07b,tyc54diywv,Nick_Dissertation_EX1,1,279,2020-10-24T10:43:26-07:00,2.2730951309204,2,versionA_stim.csv,READVersionB.csv,"Read Version B","Dissertation, read only version B",BRIDGE,WATER,Study1,F,18,13,Test,User,-,,Recall,Recall2,1851,WATER,100,1236,1713,1,1,,1
5ebc9542e7dea50e8451e07b,tyc54diywv,Nick_Dissertation_EX1,1,280,2020-10-24T10:43:28-07:00,2.4809620380402,2,versionA_stim.csv,READVersionB.csv,"Read Version B","Dissertation, read only version B",LIFT,WOMAN,Study1,U,69,83,Test,User,-,,Recall,Recall2,2044,WOMEN,80,1463,1852,0,1,,1
5ebc9542e7dea50e8451e07b,tyc54diywv,Nick_Dissertation_EX1,1,281,2020-10-24T10:43:34-07:00,5.4310729503632,2,versionA_stim.csv,READVersionB.csv,"Read Version B","Dissertation, read only version B",DEBATE,SIGHT,Study1,U,73,79,Test,User,-,,Recall,Recall2,4978,SIGHT,100,4477,4830,1,1,,1
5ebc9542e7dea50e8451e07b,tyc54diywv,Nick_Dissertation_EX1,1,282,2020-10-24T10:43:37-07:00,3.5718338489532,2,versionA_stim.csv,READVersionB.csv,"Read Version B","Dissertation, read only version B",FIRE,BLAZE,Study1,B,45,74,Test,User,-,,Recall,Recall2,3254,BLAZE,100,1897,3080,1,1,,1
5ebc9542e7dea50e8451e07b,tyc54diywv,Nick_Dissertation_EX1,1,283,2020-10-24T10:43:39-07:00,1.8791470527649,2,versionA_stim.csv,READVersionB.csv,"Read Version B","Dissertation, read only version B",HYGIENE,CLEAN,Study1,F,17,34,Test,User,-,,Recall,Recall2,1536,CLEAN,100,954,1335,1,1,,1
5ebc9542e7dea50e8451e07b,tyc54diywv,Nick_Dissertation_EX1,1,284,2020-10-24T10:43:42-07:00,2.7017021179199,2,versionA_stim.csv,READVersionB.csv,"Read Version B","Dissertation, read only version B",WINE,CHEESE,Study1,S,57,20,Test,User,-,,Recall,Recall2,2360,CHEESE,100,1453,2222,1,1,,1
5ebc9542e7dea50e8451e07b,tyc54diywv,Nick_Dissertation_EX1,1,285,2020-10-24T10:43:45-07:00,2.8991048336029,2,versionA_stim.csv,READVersionB.csv,"Read Version B","Dissertation, read only version B",ART,LION,Study1,U,79,63,Test,User,-,,Recall,Recall2,2468,,0,-1,-1,0,0,,1
5ebc9542e7dea50e8451e07b,tyc54diywv,Nick_Dissertation_EX1,1,286,2020-10-24T10:43:47-07:00,2.8131160736084,2,versionA_stim.csv,READVersionB.csv,"Read Version B","Dissertation, read only version B",GRILL,BAR,Study1,S,52,54,Test,User,-,,Recall,Recall2,2494,BAR,100,1607,2342,1,1,,1
5ebc9542e7dea50e8451e07b,tyc54diywv,Nick_Dissertation_EX1,1,287,2020-10-24T10:43:51-07:00,4.0768599510193,2,versionA_stim.csv,READVersionB.csv,"Read Version B","Dissertation, read only version B",DIGESTION,STOMACH,Study1,F,7,25,Test,User,-,,Recall,Recall2,3726,STOMACH,100,2481,3502,1,1,,1
5ebc9542e7dea50e8451e07b,tyc54diywv,Nick_Dissertation_EX1,1,288,2020-10-24T10:43:53-07:00,1.9144661426544,2,versionA_stim.csv,READVersionB.csv,"Read Version B","Dissertation, read only version B",LOCATION,SITE,Study1,S,48,46,Test,User,-,,Recall,Recall2,1563,SITE,100,1236,1468,1,1,,1
5ebc9542e7dea50e8451e07b,tyc54diywv,Nick_Dissertation_EX1,1,289,2020-10-24T10:43:59-07:00,5.9792859554291,2,versionA_stim.csv,READVersionB.csv,"Read Version B","Dissertation, read only version B",HUNGER,FAMINE,Study1,B,40,73,Test,User,-,,Recall,Recall2,5611,FAMINE,100,1766,5479,1,1,,1
5ebc9542e7dea50e8451e07b,tyc54diywv,Nick_Dissertation_EX1,1,290,2020-10-24T10:44:06-07:00,6.8679890632629,2,versionA_stim.csv,READVersionB.csv,"Read Version B","Dissertation, read only version B",MEANING,DEFINITION,Study1,S,62,43,Test,User,-,,Recall,Recall2,6516,DEFINITION,100,2813,6249,1,1,,1
5ebc9542e7dea50e8451e07b,tyc54diywv,Nick_Dissertation_EX1,1,291,2020-10-24T10:44:10-07:00,3.2930829524994,2,versionA_stim.csv,READVersionB.csv,"Read Version B","Dissertation, read only version B",DRINK,SIP,Study1,B,27,22,Test,User,-,,Recall,Recall2,2942,WATER,0,2428,2820,0,0,,1
5ebc9542e7dea50e8451e07b,tyc54diywv,Nick_Dissertation_EX1,1,292,2020-10-24T10:44:13-07:00,3.4110360145569,2,versionA_stim.csv,READVersionB.csv,"Read Version B","Dissertation, read only version B",DEATH,BUSINESS,Study1,U,72,67,Test,User,-,,Recall,Recall2,3073,BUSINESS,100,1515,2926,1,1,,1
5ebc9542e7dea50e8451e07b,tyc54diywv,Nick_Dissertation_EX1,1,293,2020-10-24T10:44:17-07:00,3.7036719322205,2,versionA_stim.csv,READVersionB.csv,"Read Version B","Dissertation, read only version B",HAPPY,CAR,Study1,U,77,28,Test,User,-,,Recall,Recall2,3357,CAR,100,2756,2965,1,1,,1
5ebc9542e7dea50e8451e07b,tyc54diywv,Nick_Dissertation_EX1,1,294,2020-10-24T10:44:33-07:00,16.52701997757,2,versionA_stim.csv,READVersionB.csv,"Read Version B","Dissertation, read only version B",DIETARY,SACKING,Study1,U,67,44,Test,User,-,,Recall,Recall2,16155,,0,-1,-1,0,0,,1
5ebc9542e7dea50e8451e07b,tyc54diywv,Nick_Dissertation_EX1,1,295,2020-10-24T10:44:35-07:00,1.7687959671021,2,versionA_stim.csv,READVersionB.csv,"Read Version B","Dissertation, read only version B",PAW,DOG,Study1,F,15,15,Test,User,-,,Recall,Recall2,1384,DOG,100,1061,1256,1,1,,1
5ebc9542e7dea50e8451e07b,tyc54diywv,Nick_Dissertation_EX1,1,296,2020-10-24T10:44:41-07:00,6.2476789951324,2,versionA_stim.csv,READVersionB.csv,"Read Version B","Dissertation, read only version B",SHOE,FOOT,Study1,S,60,58,Test,User,-,,Recall,Recall2,5887,FOOT,100,2206,5782,1,1,,1
5ebc9542e7dea50e8451e07b,tyc54diywv,Nick_Dissertation_EX1,1,297,2020-10-24T10:44:45-07:00,4.2114810943604,2,versionA_stim.csv,READVersionB.csv,"Read Version B","Dissertation, read only version B",DISCOVER,FLOOR,Study1,U,71,27,Test,User,-,,Recall,Recall2,3864,GROUND,18.181818181818,3086,3749,0,0,,1
5ebc9542e7dea50e8451e07b,tyc54diywv,Nick_Dissertation_EX1,1,298,2020-10-24T10:44:48-07:00,3.0190000534058,2,versionA_stim.csv,READVersionB.csv,"Read Version B","Dissertation, read only version B",ROOT,PLANT,Study1,F,13,51,Test,User,-,,Recall,Recall2,2661,PLANT,100,1573,2327,1,1,,1
5ebc9542e7dea50e8451e07b,tyc54diywv,Nick_Dissertation_EX1,1,299,2020-10-24T10:44:52-07:00,3.6754679679871,2,versionA_stim.csv,READVersionB.csv,"Read Version B","Dissertation, read only version B",PLANE,PILOT,Study1,B,44,47,Test,User,-,,Recall,Recall2,3356,PILOT,100,2510,3196,1,1,,1
5ebc9542e7dea50e8451e07b,tyc54diywv,Nick_Dissertation_EX1,1,300,2020-10-24T10:45:02-07:00,9.9106240272522,2,versionA_stim.csv,READVersionB.csv,"Read Version B","Dissertation, read only version B",SUGAR,RIDDLE,Study1,U,81,18,Test,User,-,,Recall,Recall2,9541,HORROR,16.666666666667,7233,8060,0,0,,1
5ebc9542e7dea50e8451e07b,tyc54diywv,Nick_Dissertation_EX1,1,301,2020-10-24T10:45:04-07:00,2.2668218612671,2,versionA_stim.csv,READVersionB.csv,"Read Version B","Dissertation, read only version B",FIX,HAND,Study1,U,75,76,Test,User,-,,Recall,Recall2,1864,,0,-1,-1,0,0,,1
5ebc9542e7dea50e8451e07b,tyc54diywv,Nick_Dissertation_EX1,1,302,2020-10-24T10:45:07-07:00,3.1519520282745,2,versionA_stim.csv,READVersionB.csv,"Read Version B","Dissertation, read only version B",BEGIN,END,Study1,S,54,11,Test,User,-,,Recall,Recall2,2708,END,100,1112,1315,1,1,,1
5ebc9542e7dea50e8451e07b,tyc54diywv,Nick_Dissertation_EX1,1,303,2020-10-24T10:45:12-07:00,4.5927031040192,2,versionA_stim.csv,READVersionB.csv,"Read Version B","Dissertation, read only version B",MACHINE,POSITION,Study1,U,76,77,Test,User,-,,Recall,Recall2,4258,POSITION,100,3169,4052,1,1,,1
5ebc9542e7dea50e8451e07b,tyc54diywv,Nick_Dissertation_EX1,1,304,2020-10-24T10:45:14-07:00,2.0270688533783,2,versionA_stim.csv,READVersionB.csv,"Read Version B","Dissertation, read only version B",WAY,OUT,Study1,F,16,26,Test,User,-,,Recall,Recall2,1654,OUT,100,1186,1450,1,1,,1
5ebc9542e7dea50e8451e07b,tyc54diywv,Nick_Dissertation_EX1,1,305,2020-10-24T10:45:19-07:00,4.5417170524597,2,versionA_stim.csv,READVersionB.csv,"Read Version B","Dissertation, read only version B",HIDE,SICK,Study1,U,84,35,Test,User,-,,Recall,Recall2,4206,SICK,100,3703,3983,1,1,,1
5ebc9542e7dea50e8451e07b,tyc54diywv,Nick_Dissertation_EX1,1,306,2020-10-24T10:45:23-07:00,4.1157281398773,2,versionA_stim.csv,READVersionB.csv,"Read Version B","Dissertation, read only version B",DUMP,WASTE,Study1,S,49,52,Test,User,-,,Recall,Recall2,3771,WASTE,100,1802,3642,1,1,,1
5ebc9542e7dea50e8451e07b,tyc54diywv,Nick_Dissertation_EX1,1,307,2020-10-24T10:45:29-07:00,6.1450879573822,2,versionA_stim.csv,READVersionB.csv,"Read Version B","Dissertation, read only version B",LAW,ATTORNEY,Study1,B,34,80,Test,User,-,,Recall,Recall2,5769,ATTORNEY,100,2774,5630,1,1,,1
5ebc9542e7dea50e8451e07b,tyc54diywv,Nick_Dissertation_EX1,1,308,2020-10-24T10:45:31-07:00,2.3219709396362,2,versionA_stim.csv,READVersionB.csv,"Read Version B","Dissertation, read only version B",CHISEL,HAMMER,Study1,F,9,17,Test,User,-,,Recall,Recall2,1968,HAMMER,100,1382,1868,1,1,,1
5ebc9542e7dea50e8451e07b,tyc54diywv,Nick_Dissertation_EX1,1,309,2020-10-24T10:45:33-07:00,2.2391269207001,2,versionA_stim.csv,READVersionB.csv,"Read Version B","Dissertation, read only version B",TRIAL,JURY,Study1,S,50,40,Test,User,-,,Recall,Recall2,1814,JURY,100,1126,1619,1,1,,1
5ebc9542e7dea50e8451e07b,tyc54diywv,Nick_Dissertation_EX1,1,310,2020-10-24T10:45:35-07:00,2.0924770832062,2,versionA_stim.csv,READVersionB.csv,"Read Version B","Dissertation, read only version B",SWAN,BIRD,Study1,F,14,49,Test,User,-,,Recall,Recall2,1712,BIRD,100,1262,1661,1,1,,1
5ebc9542e7dea50e8451e07b,tyc54diywv,Nick_Dissertation_EX1,1,311,2020-10-24T10:45:38-07:00,2.3862309455872,2,versionA_stim.csv,READVersionB.csv,"Read Version B","Dissertation, read only version B",POP,SODA,Study1,S,56,37,Test,User,-,,Recall,Recall2,2018,SODA,100,1643,1895,1,1,,1
5ebc9542e7dea50e8451e07b,tyc54diywv,Nick_Dissertation_EX1,1,312,2020-10-24T10:45:40-07:00,1.9008030891418,2,versionA_stim.csv,READVersionB.csv,"Read Version B","Dissertation, read only version B",ORCHID,FLOWER,Study1,F,24,39,Test,User,-,,Recall,Recall2,1575,FLOWER,100,936,1429,1,1,,1
5ebc9542e7dea50e8451e07b,tyc54diywv,Nick_Dissertation_EX1,1,313,2020-10-24T10:45:42-07:00,1.7851948738098,2,versionA_stim.csv,READVersionB.csv,"Read Version B","Dissertation, read only version B",CREDIT,CARD,Study1,F,23,32,Test,User,-,,Recall,Recall2,1465,CARD,100,916,1377,1,1,,1
5ebc9542e7dea50e8451e07b,tyc54diywv,Nick_Dissertation_EX1,1,314,2020-10-24T10:45:51-07:00,9.0292360782623,2,versionA_stim.csv,READVersionB.csv,"Read Version B","Dissertation, read only version B",SLEEP,DROWSY,Study1,B,41,69,Test,User,-,,Recall,Recall2,8700,,0,-1,-1,0,0,,1
5ebc9542e7dea50e8451e07b,tyc54diywv,Nick_Dissertation_EX1,1,315,2020-10-24T10:45:54-07:00,3.619234085083,2,versionA_stim.csv,READVersionB.csv,"Read Version B","Dissertation, read only version B",HOT,CHILI,Study1,B,37,33,Test,User,-,,Recall,Recall2,3260,COLD,44.444444444444,2618,3073,0,0,,1
5ebc9542e7dea50e8451e07b,tyc54diywv,Nick_Dissertation_EX1,1,316,2020-10-24T10:45:58-07:00,4.0060768127441,2,versionA_stim.csv,READVersionB.csv,"Read Version B","Dissertation, read only version B",HONEY,BEE,Study1,S,63,86,Test,User,-,,Recall,Recall2,3655,BEE,100,1733,3066,1,1,,1
5ebc9542e7dea50e8451e07b,tyc54diywv,Nick_Dissertation_EX1,1,317,2020-10-24T10:46:02-07:00,3.3841531276703,2,versionA_stim.csv,READVersionB.csv,"Read Version B","Dissertation, read only version B",HORNET,STING,Study1,F,11,19,Test,User,-,,Recall,Recall2,2046,STUNG,80,1283,1904,0,1,,1
5ebc9542e7dea50e8451e07b,tyc54diywv,Nick_Dissertation_EX1,1,318,2020-10-24T10:46:05-07:00,3.3492889404297,2,versionA_stim.csv,READVersionB.csv,"Read Version B","Dissertation, read only version B",GEOLOGY,ROCK,Study1,F,19,55,Test,User,-,,Recall,Recall2,1903,ROCK,100,1333,1695,1,1,,1
5ebc9542e7dea50e8451e07b,tyc54diywv,Nick_Dissertation_EX1,1,319,2020-10-24T10:46:11-07:00,5.6190700531006,2,versionA_stim.csv,READVersionB.csv,"Read Version B","Dissertation, read only version B",WAGE,MONEY,Study1,F,8,21,Test,User,-,,Recall,Recall2,4942,MONEY,100,4244,4699,1,1,,1
5ebc9542e7dea50e8451e07b,tyc54diywv,Nick_Dissertation_EX1,1,320,2020-10-24T10:46:17-07:00,6.8413589000702,2,versionA_stim.csv,READVersionB.csv,"Read Version B","Dissertation, read only version B",PARK,HUNGRY,Study1,U,68,42,Test,User,-,,Recall,Recall2,6489,DOG,22.222222222222,5708,6049,0,0,,1
5ebc9542e7dea50e8451e07b,tyc54diywv,Nick_Dissertation_EX1,1,321,2020-10-24T10:46:25-07:00,7.6190731525421,2,versionA_stim.csv,READVersionB.csv,"Read Version B","Dissertation, read only version B",MATH,DIVISION,Study1,B,33,30,Test,User,-,,Recall,Recall2,7278,NUMBER,14.285714285714,5095,7098,0,0,,1
5ebc9542e7dea50e8451e07b,tyc54diywv,Nick_Dissertation_EX1,1,322,2020-10-24T10:46:27-07:00,1.665118932724,2,versionA_stim.csv,READVersionB.csv,"Read Version B","Dissertation, read only version B",TUNA,FISH,Study1,F,25,24,Test,User,-,,Recall,Recall2,1344,FISH,100,927,1170,1,1,,1
5ebc9542e7dea50e8451e07b,tyc54diywv,Nick_Dissertation_EX1,1,323,2020-10-24T10:46:31-07:00,3.9799439907074,2,versionA_stim.csv,READVersionB.csv,"Read Version B","Dissertation, read only version B",DISCUSSION,TALK,Study1,F,21,57,Test,User,-,,Recall,Recall2,3634,CONCLUSION,14.285714285714,1667,2805,0,0,,1
5ebc9542e7dea50e8451e07b,tyc54diywv,Nick_Dissertation_EX1,1,324,2020-10-24T10:46:33-07:00,2.7258439064026,2,versionA_stim.csv,READVersionB.csv,"Read Version B","Dissertation, read only version B",VALLEY,ADD,Study1,U,82,64,Test,User,-,,Recall,Recall2,2375,ADD,100,1875,2191,1,1,,1
5ebc9542e7dea50e8451e07b,tyc54diywv,Nick_Dissertation_EX1,1,325,2020-10-24T10:46:38-07:00,4.7035980224609,2,versionA_stim.csv,READVersionB.csv,"Read Version B","Dissertation, read only version B",BALL,RACKET,Study1,B,38,84,Test,User,-,,Recall,Recall2,4342,GAME,40,1704,4170,0,0,,1
5ebc9542e7dea50e8451e07b,tyc54diywv,Nick_Dissertation_EX1,1,326,2020-10-24T10:46:42-07:00,4.2385799884796,2,versionA_stim.csv,READVersionB.csv,"Read Version B","Dissertation, read only version B",NUMBER,AMOUNT,Study1,S,47,29,Test,User,-,,Recall,Recall2,3901,AMOUNT,100,2002,3562,1,1,,1
5ebc9542e7dea50e8451e07b,tyc54diywv,Nick_Dissertation_EX1,1,327,2020-10-24T10:46:45-07:00,2.6950211524963,2,versionA_stim.csv,READVersionB.csv,"Read Version B","Dissertation, read only version B",LETTUCE,SALAD,Study1,S,59,48,Test,User,-,,Recall,Recall2,2337,SALAD,100,999,2213,1,1,,1
5ebc9542e7dea50e8451e07b,tyc54diywv,Nick_Dissertation_EX1,1,328,2020-10-24T10:46:49-07:00,4.0800280570984,2,versionA_stim.csv,READVersionB.csv,"Read Version B","Dissertation, read only version B",DUE,ASSIGNMENT,Study1,S,46,61,Test,User,-,,Recall,Recall2,3700,ASSIGNMENT,100,2355,3609,1,1,,1
5ebc9542e7dea50e8451e07b,tyc54diywv,Nick_Dissertation_EX1,1,329,2020-10-24T10:46:53-07:00,3.4820799827576,2,versionA_stim.csv,READVersionB.csv,"Read Version B","Dissertation, read only version B",TAKE,SEIZE,Study1,B,29,16,Test,User,-,,Recall,Recall2,3151,GIVE,44.444444444444,2811,3085,0,0,,1
5ebc9542e7dea50e8451e07b,tyc54diywv,Nick_Dissertation_EX1,1,330,2020-10-24T10:46:57-07:00,4.6016569137573,2,versionA_stim.csv,READVersionB.csv,"Read Version B","Dissertation, read only version B",KEY,LATCH,Study1,B,36,59,Test,User,-,,Recall,Recall2,4237,LATCH,100,3428,4041,1,1,,1
5ebc9542e7dea50e8451e07b,tyc54diywv,Nick_Dissertation_EX1,1,331,2020-10-24T10:47:00-07:00,2.6187410354614,2,versionA_stim.csv,READVersionB.csv,"Read Version B","Dissertation, read only version B",SMELL,STENCH,Study1,B,42,81,Test,User,-,,Recall,Recall2,2291,STENCH,100,1439,1992,1,1,,1
5ebc9542e7dea50e8451e07b,tyc54diywv,Nick_Dissertation_EX1,1,332,2020-10-24T10:47:02-07:00,1.9513099193573,2,versionA_stim.csv,READVersionB.csv,"Read Version B","Dissertation, read only version B",REVOLUTION,WAR,Study1,F,20,10,Test,User,-,,Recall,Recall2,1595,WAR,100,1228,1460,1,1,,1
5ebc9542e7dea50e8451e07b,tyc54diywv,Nick_Dissertation_EX1,1,333,2020-10-24T10:47:05-07:00,2.8359141349792,2,versionA_stim.csv,READVersionB.csv,"Read Version B","Dissertation, read only version B",KING,VASE,Study1,U,85,53,Test,User,-,,Recall,Recall2,2485,VASE,100,1951,2341,1,1,,1
5ebc9542e7dea50e8451e07b,tyc54diywv,Nick_Dissertation_EX1,1,334,2020-10-24T10:47:07-07:00,2.5475218296051,2,versionA_stim.csv,READVersionB.csv,"Read Version B","Dissertation, read only version B",ARTERY,BRONZE,Study1,U,74,70,Test,User,-,,Recall,Recall2,2207,BRONZE,100,1228,2086,1,1,,1
5ebc9542e7dea50e8451e07b,tyc54diywv,Nick_Dissertation_EX1,1,335,2020-10-24T10:47:10-07:00,3.2785201072693,2,versionA_stim.csv,READVersionB.csv,"Read Version B","Dissertation, read only version B",KIDNEY,LIVER,Study1,S,53,62,Test,User,-,,Recall,Recall2,1578,LIVER,100,927,1382,1,1,,1
5ebc9542e7dea50e8451e07b,tyc54diywv,Nick_Dissertation_EX1,1,336,2020-10-24T10:47:16-07:00,5.1783220767975,2,versionA_stim.csv,READVersionB.csv,"Read Version B","Dissertation, read only version B",CLOTHES,ATTIRE,Study1,B,43,68,Test,User,-,,Recall,Recall2,4670,WET,22.222222222222,4155,4488,0,0,,1
5ebc9542e7dea50e8451e07b,tyc54diywv,Nick_Dissertation_EX1,1,337,2020-10-24T10:47:19-07:00,3.6865639686584,2,versionA_stim.csv,READVersionB.csv,"Read Version B","Dissertation, read only version B",BUG,WASP,Study1,B,32,75,Test,User,-,,Recall,Recall2,3333,WASP,100,2497,3055,1,1,,1
5ebc9542e7dea50e8451e07b,tyc54diywv,Nick_Dissertation_EX1,1,338,2020-10-24T10:47:23-07:00,3.2264478206635,2,versionA_stim.csv,READVersionB.csv,"Read Version B","Dissertation, read only version B",BATHROOM,TOILET,Study1,S,58,78,Test,User,-,,Recall,Recall2,2879,TOILET,100,1550,2596,1,1,,1
5ebc9542e7dea50e8451e07b,tyc54diywv,Nick_Dissertation_EX1,1,339,2020-10-24T10:47:39-07:00,16.564553022385,2,versionA_stim.csv,READVersionB.csv,"Read Version B","Dissertation, read only version B",PUSHER,CLUTTER,Study1,U,66,8,Test,User,-,,Recall,Recall2,16227,ITEMS,33.333333333333,12235,12850,0,0,,1
5ebc9542e7dea50e8451e07b,tyc54diywv,Nick_Dissertation_EX1,1,340,2020-10-24T10:47:43-07:00,4.3958301544189,2,versionA_stim.csv,READVersionB.csv,"Read Version B","Dissertation, read only version B",ALLOW,TUCK,Study1,U,78,23,Test,User,-,,Recall,Recall2,3993,TUCK,100,3051,3660,1,1,,1
5ebc9542e7dea50e8451e07b,tyc54diywv,Nick_Dissertation_EX1,1,341,2020-10-24T10:47:55-07:00,11.29979300499,2,versionA_stim.csv,READVersionB.csv,"Read Version B","Dissertation, read only version B",BITTER,COLD,Study1,F,12,66,Test,User,-,,Recall,Recall2,10946,,0,3941,9699,0,0,,1
5ebc9542e7dea50e8451e07b,tyc54diywv,Nick_Dissertation_EX1,1,342,2020-10-24T10:47:57-07:00,1.9170928001404,2,versionA_stim.csv,READVersionB.csv,"Read Version B","Dissertation, read only version B",BABY,CHILD,Study1,S,64,12,Test,User,-,,Recall,Recall2,1497,CHILD,100,940,1349,1,1,,1
5ebc9542e7dea50e8451e07b,tyc54diywv,Nick_Dissertation_EX1,1,343,2020-10-24T10:48:02-07:00,5.1349940299988,2,versionA_stim.csv,READVersionB.csv,"Read Version B","Dissertation, read only version B",CASH,WOULD,Study1,U,83,31,Test,User,-,,Recall,Recall2,4761,MONEY,20,4072,4514,0,0,,1
5ebc9542e7dea50e8451e07b,tyc54diywv,Nick_Dissertation_EX1,1,344,2020-10-24T10:48:05-07:00,3.3293030261993,2,versionA_stim.csv,READVersionB.csv,"Read Version B","Dissertation, read only version B",PAST,FUTURE,Study1,S,61,85,Test,User,-,,Recall,Recall2,3001,FUTURE,100,2293,2859,1,1,,1
5ebc9542e7dea50e8451e07b,tyc54diywv,Nick_Dissertation_EX1,1,345,2020-10-24T10:48:11-07:00,5.898463010788,2,versionA_stim.csv,READVersionB.csv,"Read Version B","Dissertation, read only version B",GREAT,FANTASTIC,Study1,B,35,7,Test,User,-,,Recall,Recall2,5542,EXCELLENT,22.222222222222,3421,5428,0,0,,1
5ebc9542e7dea50e8451e07b,tyc54diywv,Nick_Dissertation_EX1,1,346,2020-10-24T10:48:15-07:00,4.379096031189,2,versionA_stim.csv,READVersionB.csv,"Read Version B","Dissertation, read only version B",FULL,ENOUGH,Study1,B,26,38,Test,User,-,,Recall,Recall2,4032,,0,-1,-1,0,0,,1
5ebc9542e7dea50e8451e07b,tyc54diywv,Nick_Dissertation_EX1,1,347,2020-10-24T10:48:17-07:00,1.7150180339813,2,versionA_stim.csv,READVersionB.csv,"Read Version B","Dissertation, read only version B",DELINQUENT,BAD,Study1,F,6,60,Test,User,-,,Recall,Recall2,1365,BAD,100,1088,1273,1,1,,1
