Username,ID,ExperimentName,Session,Trial,Date,TimeDif,"Condition Number","Stimuli File","Order File","Condition Description","Condition Notes",Stimuli*Cue,Stimuli*Answer,Stimuli*Shuffle,"Stimuli*Stimuli Notes",Stimuli*Value,Procedure*Item,"Procedure*Trial Type","Procedure*Max Time","Procedure*Min Time",Procedure*Text,"Procedure*Procedure Notes",Procedure*Shuffle,Response*RT,Response*Response,Response*Accuracy,Response*RTfirst,Response*RTlast,Response*strictAcc,Response*lenientAcc,Response*focus,Response*Focus
5f26ad14db44f940a40c86dd,hog8wkfaf8,Nick_Dissertation_EX1,1,1,2020-10-24T11:44:48-07:00,13.781291007996,1,versionA_stim.csv,READVersionA.csv,"Read Version A","Dissertation, read only version A",,,,,,0,Instruct,-,10,"Please study each of the following word pairs. Remember that your memory will be tested! When finished, press Enter to move to the next pair.",Initial_Instruct,Instruct1,13124,,,-1,-1,,,,1
5f26ad14db44f940a40c86dd,hog8wkfaf8,Nick_Dissertation_EX1,1,2,2020-10-24T11:44:53-07:00,5.5223429203033,1,versionA_stim.csv,READVersionA.csv,"Read Version A","Dissertation, read only version A",PEANUT,BUTTER,BUFFER1,Buffer,3,5,Study,User,-,,Study/JOL,BUFFER,4938,,,-1,-1,,,,1
5f26ad14db44f940a40c86dd,hog8wkfaf8,Nick_Dissertation_EX1,1,3,2020-10-24T11:44:59-07:00,6.1567199230194,1,versionA_stim.csv,READVersionA.csv,"Read Version A","Dissertation, read only version A",BASEBALL,CATCHER,BUFFER1,Buffer,2,3,Study,User,-,,Study/JOL,BUFFER,5592,,,-1,-1,,,,1
5f26ad14db44f940a40c86dd,hog8wkfaf8,Nick_Dissertation_EX1,1,4,2020-10-24T11:45:19-07:00,19.124673128128,1,versionA_stim.csv,READVersionA.csv,"Read Version A","Dissertation, read only version A",SCARE,HIDE,BUFFER1,Buffer,4,6,Study,User,-,,Study/JOL,BUFFER,18557,,,-1,-1,,,,1
5f26ad14db44f940a40c86dd,hog8wkfaf8,Nick_Dissertation_EX1,1,5,2020-10-24T11:45:26-07:00,7.0525329113007,1,versionA_stim.csv,READVersionA.csv,"Read Version A","Dissertation, read only version A",TREES,GREEN,BUFFER1,Buffer,1,4,Study,User,-,,Study/JOL,BUFFER,6440,,,-1,-1,,,,1
5f26ad14db44f940a40c86dd,hog8wkfaf8,Nick_Dissertation_EX1,1,6,2020-10-24T11:45:33-07:00,7.7155930995941,1,versionA_stim.csv,READVersionA.csv,"Read Version A","Dissertation, read only version A",SPACE,JAM,BUFFER1,Buffer,5,2,Study,User,-,,Study/JOL,BUFFER,7037,,,-1,-1,,,,1
5f26ad14db44f940a40c86dd,hog8wkfaf8,Nick_Dissertation_EX1,1,7,2020-10-24T11:45:52-07:00,18.628504991531,1,versionA_stim.csv,READVersionA.csv,"Read Version A","Dissertation, read only version A",HIDE,SICK,Study1,U,84,51,Study,User,-,,Study/JOL,"Study Phase",17982,,,-1,-1,,,,1
5f26ad14db44f940a40c86dd,hog8wkfaf8,Nick_Dissertation_EX1,1,8,2020-10-24T11:46:00-07:00,7.8337638378143,1,versionA_stim.csv,READVersionA.csv,"Read Version A","Dissertation, read only version A",PLANE,PILOT,Study1,B,44,15,Study,User,-,,Study/JOL,"Study Phase",7089,,,-1,-1,,,,1
5f26ad14db44f940a40c86dd,hog8wkfaf8,Nick_Dissertation_EX1,1,9,2020-10-24T11:46:09-07:00,9.6539561748505,1,versionA_stim.csv,READVersionA.csv,"Read Version A","Dissertation, read only version A",ART,LION,Study1,U,79,82,Study,User,-,,Study/JOL,"Study Phase",9085,,,-1,-1,,,,1
5f26ad14db44f940a40c86dd,hog8wkfaf8,Nick_Dissertation_EX1,1,10,2020-10-24T11:46:16-07:00,6.3550229072571,1,versionA_stim.csv,READVersionA.csv,"Read Version A","Dissertation, read only version A",HAPPY,CAR,Study1,U,77,64,Study,User,-,,Study/JOL,"Study Phase",5792,,,-1,-1,,,,1
5f26ad14db44f940a40c86dd,hog8wkfaf8,Nick_Dissertation_EX1,1,11,2020-10-24T11:46:24-07:00,8.2222509384155,1,versionA_stim.csv,READVersionA.csv,"Read Version A","Dissertation, read only version A",DISCUSSION,TALK,Study1,F,21,72,Study,User,-,,Study/JOL,"Study Phase",7663,,,-1,-1,,,,1
5f26ad14db44f940a40c86dd,hog8wkfaf8,Nick_Dissertation_EX1,1,12,2020-10-24T11:46:37-07:00,12.764070034027,1,versionA_stim.csv,READVersionA.csv,"Read Version A","Dissertation, read only version A",SLEEP,DROWSY,Study1,B,41,80,Study,User,-,,Study/JOL,"Study Phase",12144,,,-1,-1,,,,1
5f26ad14db44f940a40c86dd,hog8wkfaf8,Nick_Dissertation_EX1,1,13,2020-10-24T11:46:47-07:00,10.376994132996,1,versionA_stim.csv,READVersionA.csv,"Read Version A","Dissertation, read only version A",KIDNEY,LIVER,Study1,S,53,50,Study,User,-,,Study/JOL,"Study Phase",9624,,,-1,-1,,,,1
5f26ad14db44f940a40c86dd,hog8wkfaf8,Nick_Dissertation_EX1,1,14,2020-10-24T11:47:01-07:00,14.055471897125,1,versionA_stim.csv,READVersionA.csv,"Read Version A","Dissertation, read only version A",DISCOVER,FLOOR,Study1,U,71,54,Study,User,-,,Study/JOL,"Study Phase",13284,,,-1,-1,,,,1
5f26ad14db44f940a40c86dd,hog8wkfaf8,Nick_Dissertation_EX1,1,15,2020-10-24T11:47:09-07:00,7.5021600723267,1,versionA_stim.csv,READVersionA.csv,"Read Version A","Dissertation, read only version A",BITTER,COLD,Study1,F,12,62,Study,User,-,,Study/JOL,"Study Phase",6926,,,-1,-1,,,,1
5f26ad14db44f940a40c86dd,hog8wkfaf8,Nick_Dissertation_EX1,1,16,2020-10-24T11:47:24-07:00,15.407284021378,1,versionA_stim.csv,READVersionA.csv,"Read Version A","Dissertation, read only version A",MEANING,DEFINITION,Study1,S,62,78,Study,User,-,,Study/JOL,"Study Phase",14805,,,-1,-1,,,,1
5f26ad14db44f940a40c86dd,hog8wkfaf8,Nick_Dissertation_EX1,1,17,2020-10-24T11:47:35-07:00,10.831480026245,1,versionA_stim.csv,READVersionA.csv,"Read Version A","Dissertation, read only version A",TAKE,SEIZE,Study1,B,29,66,Study,User,-,,Study/JOL,"Study Phase",9944,,,-1,-1,,,,1
5f26ad14db44f940a40c86dd,hog8wkfaf8,Nick_Dissertation_EX1,1,18,2020-10-24T11:47:43-07:00,8.061539888382,1,versionA_stim.csv,READVersionA.csv,"Read Version A","Dissertation, read only version A",EDITOR,NEWS,Study1,F,10,46,Study,User,-,,Study/JOL,"Study Phase",7554,,,-1,-1,,,,1
5f26ad14db44f940a40c86dd,hog8wkfaf8,Nick_Dissertation_EX1,1,19,2020-10-24T11:47:53-07:00,9.9910159111023,1,versionA_stim.csv,READVersionA.csv,"Read Version A","Dissertation, read only version A",DRINK,SIP,Study1,B,27,9,Study,User,-,,Study/JOL,"Study Phase",9407,,,-1,-1,,,,1
5f26ad14db44f940a40c86dd,hog8wkfaf8,Nick_Dissertation_EX1,1,20,2020-10-24T11:48:04-07:00,11.131953001022,1,versionA_stim.csv,READVersionA.csv,"Read Version A","Dissertation, read only version A",SMELL,STENCH,Study1,B,42,32,Study,User,-,,Study/JOL,"Study Phase",10379,,,-1,-1,,,,1
5f26ad14db44f940a40c86dd,hog8wkfaf8,Nick_Dissertation_EX1,1,21,2020-10-24T11:48:14-07:00,9.5516130924225,1,versionA_stim.csv,READVersionA.csv,"Read Version A","Dissertation, read only version A",SUGAR,RIDDLE,Study1,U,81,8,Study,User,-,,Study/JOL,"Study Phase",9045,,,-1,-1,,,,1
5f26ad14db44f940a40c86dd,hog8wkfaf8,Nick_Dissertation_EX1,1,22,2020-10-24T11:48:21-07:00,7.521476984024,1,versionA_stim.csv,READVersionA.csv,"Read Version A","Dissertation, read only version A",ROOT,PLANT,Study1,F,13,26,Study,User,-,,Study/JOL,"Study Phase",7011,,,-1,-1,,,,1
5f26ad14db44f940a40c86dd,hog8wkfaf8,Nick_Dissertation_EX1,1,23,2020-10-24T11:48:32-07:00,11.100992918015,1,versionA_stim.csv,READVersionA.csv,"Read Version A","Dissertation, read only version A",PAST,FUTURE,Study1,S,61,10,Study,User,-,,Study/JOL,"Study Phase",10482,,,-1,-1,,,,1
5f26ad14db44f940a40c86dd,hog8wkfaf8,Nick_Dissertation_EX1,1,24,2020-10-24T11:48:43-07:00,10.538015127182,1,versionA_stim.csv,READVersionA.csv,"Read Version A","Dissertation, read only version A",KING,VASE,Study1,U,85,63,Study,User,-,,Study/JOL,"Study Phase",9727,,,-1,-1,,,,1
5f26ad14db44f940a40c86dd,hog8wkfaf8,Nick_Dissertation_EX1,1,25,2020-10-24T11:48:51-07:00,8.1779549121857,1,versionA_stim.csv,READVersionA.csv,"Read Version A","Dissertation, read only version A",KEY,LATCH,Study1,B,36,41,Study,User,-,,Study/JOL,"Study Phase",7596,,,-1,-1,,,,1
5f26ad14db44f940a40c86dd,hog8wkfaf8,Nick_Dissertation_EX1,1,26,2020-10-24T11:48:59-07:00,8.1832690238953,1,versionA_stim.csv,READVersionA.csv,"Read Version A","Dissertation, read only version A",LIFT,WOMAN,Study1,U,69,56,Study,User,-,,Study/JOL,"Study Phase",7612,,,-1,-1,,,,1
5f26ad14db44f940a40c86dd,hog8wkfaf8,Nick_Dissertation_EX1,1,27,2020-10-24T11:49:06-07:00,6.6440670490265,1,versionA_stim.csv,READVersionA.csv,"Read Version A","Dissertation, read only version A",HOT,CHILI,Study1,B,37,67,Study,User,-,,Study/JOL,"Study Phase",6074,,,-1,-1,,,,1
5f26ad14db44f940a40c86dd,hog8wkfaf8,Nick_Dissertation_EX1,1,28,2020-10-24T11:49:20-07:00,13.83825302124,1,versionA_stim.csv,READVersionA.csv,"Read Version A","Dissertation, read only version A",ARCHITECTURE,DESIGN,Study1,S,51,74,Study,User,-,,Study/JOL,"Study Phase",13249,,,-1,-1,,,,1
5f26ad14db44f940a40c86dd,hog8wkfaf8,Nick_Dissertation_EX1,1,29,2020-10-24T11:49:29-07:00,9.7699780464172,1,versionA_stim.csv,READVersionA.csv,"Read Version A","Dissertation, read only version A",ALLOW,TUCK,Study1,U,78,30,Study,User,-,,Study/JOL,"Study Phase",9000,,,-1,-1,,,,1
5f26ad14db44f940a40c86dd,hog8wkfaf8,Nick_Dissertation_EX1,1,30,2020-10-24T11:49:36-07:00,7.0007419586182,1,versionA_stim.csv,READVersionA.csv,"Read Version A","Dissertation, read only version A",HONEY,BEE,Study1,S,63,45,Study,User,-,,Study/JOL,"Study Phase",6396,,,-1,-1,,,,1
5f26ad14db44f940a40c86dd,hog8wkfaf8,Nick_Dissertation_EX1,1,31,2020-10-24T11:49:46-07:00,9.9830009937286,1,versionA_stim.csv,READVersionA.csv,"Read Version A","Dissertation, read only version A",VALLEY,ADD,Study1,U,82,31,Study,User,-,,Study/JOL,"Study Phase",9364,,,-1,-1,,,,1
5f26ad14db44f940a40c86dd,hog8wkfaf8,Nick_Dissertation_EX1,1,32,2020-10-24T11:49:59-07:00,13.083432912827,1,versionA_stim.csv,READVersionA.csv,"Read Version A","Dissertation, read only version A",BALL,RACKET,Study1,B,38,35,Study,User,-,,Study/JOL,"Study Phase",12496,,,-1,-1,,,,1
5f26ad14db44f940a40c86dd,hog8wkfaf8,Nick_Dissertation_EX1,1,33,2020-10-24T11:51:12-07:00,72.188719987869,1,versionA_stim.csv,READVersionA.csv,"Read Version A","Dissertation, read only version A",DUE,ASSIGNMENT,Study1,S,46,22,Study,User,-,,Study/JOL,"Study Phase",71411,,,-1,-1,,,,1
5f26ad14db44f940a40c86dd,hog8wkfaf8,Nick_Dissertation_EX1,1,34,2020-10-24T11:51:19-07:00,7.2594060897827,1,versionA_stim.csv,READVersionA.csv,"Read Version A","Dissertation, read only version A",WAY,OUT,Study1,F,16,24,Study,User,-,,Study/JOL,"Study Phase",6448,,,-1,-1,,,,1
5f26ad14db44f940a40c86dd,hog8wkfaf8,Nick_Dissertation_EX1,1,35,2020-10-24T11:51:26-07:00,6.9462568759918,1,versionA_stim.csv,READVersionA.csv,"Read Version A","Dissertation, read only version A",CIRCLE,ROUND,Study1,S,65,16,Study,User,-,,Study/JOL,"Study Phase",6347,,,-1,-1,,,,1
5f26ad14db44f940a40c86dd,hog8wkfaf8,Nick_Dissertation_EX1,1,36,2020-10-24T11:51:33-07:00,6.9683721065521,1,versionA_stim.csv,READVersionA.csv,"Read Version A","Dissertation, read only version A",FULL,ENOUGH,Study1,B,26,20,Study,User,-,,Study/JOL,"Study Phase",6448,,,-1,-1,,,,1
5f26ad14db44f940a40c86dd,hog8wkfaf8,Nick_Dissertation_EX1,1,37,2020-10-24T11:51:42-07:00,9.3344640731812,1,versionA_stim.csv,READVersionA.csv,"Read Version A","Dissertation, read only version A",PARK,HUNGRY,Study1,U,68,53,Study,User,-,,Study/JOL,"Study Phase",8733,,,-1,-1,,,,1
5f26ad14db44f940a40c86dd,hog8wkfaf8,Nick_Dissertation_EX1,1,38,2020-10-24T11:51:49-07:00,6.9694249629974,1,versionA_stim.csv,READVersionA.csv,"Read Version A","Dissertation, read only version A",SWAN,BIRD,Study1,F,14,29,Study,User,-,,Study/JOL,"Study Phase",6376,,,-1,-1,,,,1
5f26ad14db44f940a40c86dd,hog8wkfaf8,Nick_Dissertation_EX1,1,39,2020-10-24T11:51:56-07:00,6.9025650024414,1,versionA_stim.csv,READVersionA.csv,"Read Version A","Dissertation, read only version A",DARK,CAVE,Study1,B,28,43,Study,User,-,,Study/JOL,"Study Phase",6311,,,-1,-1,,,,1
5f26ad14db44f940a40c86dd,hog8wkfaf8,Nick_Dissertation_EX1,1,40,2020-10-24T11:52:03-07:00,7.2368788719177,1,versionA_stim.csv,READVersionA.csv,"Read Version A","Dissertation, read only version A",BLOW,WIND,Study1,S,55,75,Study,User,-,,Study/JOL,"Study Phase",6729,,,-1,-1,,,,1
5f26ad14db44f940a40c86dd,hog8wkfaf8,Nick_Dissertation_EX1,1,41,2020-10-24T11:52:12-07:00,8.2499001026154,1,versionA_stim.csv,READVersionA.csv,"Read Version A","Dissertation, read only version A",HERD,COW,Study1,F,22,38,Study,User,-,,Study/JOL,"Study Phase",7661,,,-1,-1,,,,1
5f26ad14db44f940a40c86dd,hog8wkfaf8,Nick_Dissertation_EX1,1,42,2020-10-24T11:52:14-07:00,2.9265909194946,1,versionA_stim.csv,READVersionA.csv,"Read Version A","Dissertation, read only version A",CREDIT,CARD,Study1,F,23,77,Study,User,-,,Study/JOL,"Study Phase",2328,,,-1,-1,,,,1
5f26ad14db44f940a40c86dd,hog8wkfaf8,Nick_Dissertation_EX1,1,43,2020-10-24T11:52:17-07:00,2.7670080661774,1,versionA_stim.csv,READVersionA.csv,"Read Version A","Dissertation, read only version A",GEOLOGY,ROCK,Study1,F,19,44,Study,User,-,,Study/JOL,"Study Phase",2220,,,-1,-1,,,,1
5f26ad14db44f940a40c86dd,hog8wkfaf8,Nick_Dissertation_EX1,1,44,2020-10-24T11:52:32-07:00,14.94037604332,1,versionA_stim.csv,READVersionA.csv,"Read Version A","Dissertation, read only version A",SENTENCE,WORD,Study1,B,31,27,Study,User,-,,Study/JOL,"Study Phase",14363,,,-1,-1,,,,1
5f26ad14db44f940a40c86dd,hog8wkfaf8,Nick_Dissertation_EX1,1,45,2020-10-24T11:52:37-07:00,4.5438749790192,1,versionA_stim.csv,READVersionA.csv,"Read Version A","Dissertation, read only version A",NUMBER,AMOUNT,Study1,S,47,48,Study,User,-,,Study/JOL,"Study Phase",3947,,,-1,-1,,,,1
5f26ad14db44f940a40c86dd,hog8wkfaf8,Nick_Dissertation_EX1,1,46,2020-10-24T11:52:40-07:00,3.0992929935455,1,versionA_stim.csv,READVersionA.csv,"Read Version A","Dissertation, read only version A",PAW,DOG,Study1,F,15,17,Study,User,-,,Study/JOL,"Study Phase",2568,,,-1,-1,,,,1
5f26ad14db44f940a40c86dd,hog8wkfaf8,Nick_Dissertation_EX1,1,47,2020-10-24T11:52:44-07:00,3.7833709716797,1,versionA_stim.csv,READVersionA.csv,"Read Version A","Dissertation, read only version A",TRIAL,JURY,Study1,S,50,23,Study,User,-,,Study/JOL,"Study Phase",3265,,,-1,-1,,,,1
5f26ad14db44f940a40c86dd,hog8wkfaf8,Nick_Dissertation_EX1,1,48,2020-10-24T11:52:46-07:00,1.9427769184113,1,versionA_stim.csv,READVersionA.csv,"Read Version A","Dissertation, read only version A",LOCATION,SITE,Study1,S,48,69,Study,User,-,,Study/JOL,"Study Phase",1406,,,-1,-1,,,,1
5f26ad14db44f940a40c86dd,hog8wkfaf8,Nick_Dissertation_EX1,1,49,2020-10-24T11:52:49-07:00,3.1851840019226,1,versionA_stim.csv,READVersionA.csv,"Read Version A","Dissertation, read only version A",MATH,DIVISION,Study1,B,33,36,Study,User,-,,Study/JOL,"Study Phase",2661,,,-1,-1,,,,1
5f26ad14db44f940a40c86dd,hog8wkfaf8,Nick_Dissertation_EX1,1,50,2020-10-24T11:52:52-07:00,3.69979596138,1,versionA_stim.csv,READVersionA.csv,"Read Version A","Dissertation, read only version A",HYGIENE,CLEAN,Study1,F,17,14,Study,User,-,,Study/JOL,"Study Phase",3196,,,-1,-1,,,,1
5f26ad14db44f940a40c86dd,hog8wkfaf8,Nick_Dissertation_EX1,1,51,2020-10-24T11:52:55-07:00,2.2886312007904,1,versionA_stim.csv,READVersionA.csv,"Read Version A","Dissertation, read only version A",BUG,WASP,Study1,B,32,83,Study,User,-,,Study/JOL,"Study Phase",1689,,,-1,-1,,,,1
5f26ad14db44f940a40c86dd,hog8wkfaf8,Nick_Dissertation_EX1,1,52,2020-10-24T11:52:58-07:00,3.4204909801483,1,versionA_stim.csv,READVersionA.csv,"Read Version A","Dissertation, read only version A",STRONG,ACCIDENT,Study1,U,80,49,Study,User,-,,Study/JOL,"Study Phase",2904,,,-1,-1,,,,1
5f26ad14db44f940a40c86dd,hog8wkfaf8,Nick_Dissertation_EX1,1,53,2020-10-24T11:53:03-07:00,4.9427669048309,1,versionA_stim.csv,READVersionA.csv,"Read Version A","Dissertation, read only version A",PUSHER,CLUTTER,Study1,U,66,52,Study,User,-,,Study/JOL,"Study Phase",4422,,,-1,-1,,,,1
5f26ad14db44f940a40c86dd,hog8wkfaf8,Nick_Dissertation_EX1,1,54,2020-10-24T11:53:20-07:00,16.647122144699,1,versionA_stim.csv,READVersionA.csv,"Read Version A","Dissertation, read only version A",WORK,CHORE,Study1,B,39,11,Study,User,-,,Study/JOL,"Study Phase",16056,,,-1,-1,,,,1
5f26ad14db44f940a40c86dd,hog8wkfaf8,Nick_Dissertation_EX1,1,55,2020-10-24T11:53:23-07:00,3.5407588481903,1,versionA_stim.csv,READVersionA.csv,"Read Version A","Dissertation, read only version A",FIRE,BLAZE,Study1,B,45,81,Study,User,-,,Study/JOL,"Study Phase",2947,,,-1,-1,,,,1
5f26ad14db44f940a40c86dd,hog8wkfaf8,Nick_Dissertation_EX1,1,56,2020-10-24T11:53:27-07:00,3.6899919509888,1,versionA_stim.csv,READVersionA.csv,"Read Version A","Dissertation, read only version A",HUNGER,FAMINE,Study1,B,40,33,Study,User,-,,Study/JOL,"Study Phase",3057,,,-1,-1,,,,1
5f26ad14db44f940a40c86dd,hog8wkfaf8,Nick_Dissertation_EX1,1,57,2020-10-24T11:53:50-07:00,22.780359983444,1,versionA_stim.csv,READVersionA.csv,"Read Version A","Dissertation, read only version A",DEATH,BUSINESS,Study1,U,72,12,Study,User,-,,Study/JOL,"Study Phase",22192,,,-1,-1,,,,1
5f26ad14db44f940a40c86dd,hog8wkfaf8,Nick_Dissertation_EX1,1,58,2020-10-24T11:54:00-07:00,9.9516110420227,1,versionA_stim.csv,READVersionA.csv,"Read Version A","Dissertation, read only version A",CHISEL,HAMMER,Study1,F,9,19,Study,User,-,,Study/JOL,"Study Phase",9318,,,-1,-1,,,,1
5f26ad14db44f940a40c86dd,hog8wkfaf8,Nick_Dissertation_EX1,1,59,2020-10-24T11:54:05-07:00,5.632805109024,1,versionA_stim.csv,READVersionA.csv,"Read Version A","Dissertation, read only version A",GREAT,FANTASTIC,Study1,B,35,18,Study,User,-,,Study/JOL,"Study Phase",4960,,,-1,-1,,,,1
5f26ad14db44f940a40c86dd,hog8wkfaf8,Nick_Dissertation_EX1,1,60,2020-10-24T11:54:08-07:00,2.8150708675385,1,versionA_stim.csv,READVersionA.csv,"Read Version A","Dissertation, read only version A",CASH,WOULD,Study1,U,83,39,Study,User,-,,Study/JOL,"Study Phase",2279,,,-1,-1,,,,1
5f26ad14db44f940a40c86dd,hog8wkfaf8,Nick_Dissertation_EX1,1,61,2020-10-24T11:54:12-07:00,3.7970530986786,1,versionA_stim.csv,READVersionA.csv,"Read Version A","Dissertation, read only version A",BRIDGE,WATER,Study1,F,18,70,Study,User,-,,Study/JOL,"Study Phase",3271,,,-1,-1,,,,1
5f26ad14db44f940a40c86dd,hog8wkfaf8,Nick_Dissertation_EX1,1,62,2020-10-24T11:54:16-07:00,4.1616170406342,1,versionA_stim.csv,READVersionA.csv,"Read Version A","Dissertation, read only version A",POP,SODA,Study1,S,56,47,Study,User,-,,Study/JOL,"Study Phase",3549,,,-1,-1,,,,1
5f26ad14db44f940a40c86dd,hog8wkfaf8,Nick_Dissertation_EX1,1,63,2020-10-24T11:54:19-07:00,2.5733668804169,1,versionA_stim.csv,READVersionA.csv,"Read Version A","Dissertation, read only version A",FIX,HAND,Study1,U,75,13,Study,User,-,,Study/JOL,"Study Phase",2047,,,-1,-1,,,,1
5f26ad14db44f940a40c86dd,hog8wkfaf8,Nick_Dissertation_EX1,1,64,2020-10-24T11:54:21-07:00,2.4606959819794,1,versionA_stim.csv,READVersionA.csv,"Read Version A","Dissertation, read only version A",DIGESTION,STOMACH,Study1,F,7,73,Study,User,-,,Study/JOL,"Study Phase",1921,,,-1,-1,,,,1
5f26ad14db44f940a40c86dd,hog8wkfaf8,Nick_Dissertation_EX1,1,65,2020-10-24T11:54:23-07:00,1.9242601394653,1,versionA_stim.csv,READVersionA.csv,"Read Version A","Dissertation, read only version A",BABY,CHILD,Study1,S,64,61,Study,User,-,,Study/JOL,"Study Phase",1353,,,-1,-1,,,,1
5f26ad14db44f940a40c86dd,hog8wkfaf8,Nick_Dissertation_EX1,1,66,2020-10-24T11:54:26-07:00,2.7038638591766,1,versionA_stim.csv,READVersionA.csv,"Read Version A","Dissertation, read only version A",HEIGHT,GROWTH,Study1,B,30,42,Study,User,-,,Study/JOL,"Study Phase",2100,,,-1,-1,,,,1
5f26ad14db44f940a40c86dd,hog8wkfaf8,Nick_Dissertation_EX1,1,67,2020-10-24T11:54:28-07:00,2.3157529830933,1,versionA_stim.csv,READVersionA.csv,"Read Version A","Dissertation, read only version A",REVOLUTION,WAR,Study1,F,20,55,Study,User,-,,Study/JOL,"Study Phase",1770,,,-1,-1,,,,1
5f26ad14db44f940a40c86dd,hog8wkfaf8,Nick_Dissertation_EX1,1,68,2020-10-24T11:54:30-07:00,1.7685120105743,1,versionA_stim.csv,READVersionA.csv,"Read Version A","Dissertation, read only version A",SHOE,FOOT,Study1,S,60,25,Study,User,-,,Study/JOL,"Study Phase",1229,,,-1,-1,,,,1
5f26ad14db44f940a40c86dd,hog8wkfaf8,Nick_Dissertation_EX1,1,69,2020-10-24T11:54:39-07:00,9.4528131484985,1,versionA_stim.csv,READVersionA.csv,"Read Version A","Dissertation, read only version A",MACHINE,POSITION,Study1,U,76,40,Study,User,-,,Study/JOL,"Study Phase",8850,,,-1,-1,,,,1
5f26ad14db44f940a40c86dd,hog8wkfaf8,Nick_Dissertation_EX1,1,70,2020-10-24T11:54:43-07:00,3.7328610420227,1,versionA_stim.csv,READVersionA.csv,"Read Version A","Dissertation, read only version A",DEBATE,SIGHT,Study1,U,73,57,Study,User,-,,Study/JOL,"Study Phase",3180,,,-1,-1,,,,1
5f26ad14db44f940a40c86dd,hog8wkfaf8,Nick_Dissertation_EX1,1,71,2020-10-24T11:54:45-07:00,2.120139837265,1,versionA_stim.csv,READVersionA.csv,"Read Version A","Dissertation, read only version A",DUMP,WASTE,Study1,S,49,28,Study,User,-,,Study/JOL,"Study Phase",1511,,,-1,-1,,,,1
5f26ad14db44f940a40c86dd,hog8wkfaf8,Nick_Dissertation_EX1,1,72,2020-10-24T11:54:55-07:00,9.9831230640411,1,versionA_stim.csv,READVersionA.csv,"Read Version A","Dissertation, read only version A",ARTERY,BRONZE,Study1,U,74,76,Study,User,-,,Study/JOL,"Study Phase",9364,,,-1,-1,,,,1
5f26ad14db44f940a40c86dd,hog8wkfaf8,Nick_Dissertation_EX1,1,73,2020-10-24T11:55:02-07:00,7.1131429672241,1,versionA_stim.csv,READVersionA.csv,"Read Version A","Dissertation, read only version A",WAGE,MONEY,Study1,F,8,37,Study,User,-,,Study/JOL,"Study Phase",6549,,,-1,-1,,,,1
5f26ad14db44f940a40c86dd,hog8wkfaf8,Nick_Dissertation_EX1,1,74,2020-10-24T11:55:06-07:00,3.5566251277924,1,versionA_stim.csv,READVersionA.csv,"Read Version A","Dissertation, read only version A",BEGIN,END,Study1,S,54,79,Study,User,-,,Study/JOL,"Study Phase",2821,,,-1,-1,,,,1
5f26ad14db44f940a40c86dd,hog8wkfaf8,Nick_Dissertation_EX1,1,75,2020-10-24T11:55:08-07:00,2.0843958854675,1,versionA_stim.csv,READVersionA.csv,"Read Version A","Dissertation, read only version A",LAW,ATTORNEY,Study1,B,34,60,Study,User,-,,Study/JOL,"Study Phase",1536,,,-1,-1,,,,1
5f26ad14db44f940a40c86dd,hog8wkfaf8,Nick_Dissertation_EX1,1,76,2020-10-24T11:55:16-07:00,8.4503679275513,1,versionA_stim.csv,READVersionA.csv,"Read Version A","Dissertation, read only version A",GRILL,BAR,Study1,S,52,86,Study,User,-,,Study/JOL,"Study Phase",7840,,,-1,-1,,,,1
5f26ad14db44f940a40c86dd,hog8wkfaf8,Nick_Dissertation_EX1,1,77,2020-10-24T11:55:19-07:00,2.1924870014191,1,versionA_stim.csv,READVersionA.csv,"Read Version A","Dissertation, read only version A",TUNA,FISH,Study1,F,25,71,Study,User,-,,Study/JOL,"Study Phase",1588,,,-1,-1,,,,1
5f26ad14db44f940a40c86dd,hog8wkfaf8,Nick_Dissertation_EX1,1,78,2020-10-24T11:55:29-07:00,10.303498983383,1,versionA_stim.csv,READVersionA.csv,"Read Version A","Dissertation, read only version A",ORCHID,FLOWER,Study1,F,24,85,Study,User,-,,Study/JOL,"Study Phase",9684,,,-1,-1,,,,1
5f26ad14db44f940a40c86dd,hog8wkfaf8,Nick_Dissertation_EX1,1,79,2020-10-24T11:55:37-07:00,8.1001880168915,1,versionA_stim.csv,READVersionA.csv,"Read Version A","Dissertation, read only version A",SOON,BELT,Study1,U,70,7,Study,User,-,,Study/JOL,"Study Phase",7432,,,-1,-1,,,,1
5f26ad14db44f940a40c86dd,hog8wkfaf8,Nick_Dissertation_EX1,1,80,2020-10-24T11:55:45-07:00,8.4778120517731,1,versionA_stim.csv,READVersionA.csv,"Read Version A","Dissertation, read only version A",WINE,CHEESE,Study1,S,57,59,Study,User,-,,Study/JOL,"Study Phase",7847,,,-1,-1,,,,1
5f26ad14db44f940a40c86dd,hog8wkfaf8,Nick_Dissertation_EX1,1,81,2020-10-24T11:55:48-07:00,2.2764840126038,1,versionA_stim.csv,READVersionA.csv,"Read Version A","Dissertation, read only version A",BATHROOM,TOILET,Study1,S,58,65,Study,User,-,,Study/JOL,"Study Phase",1714,,,-1,-1,,,,1
5f26ad14db44f940a40c86dd,hog8wkfaf8,Nick_Dissertation_EX1,1,82,2020-10-24T11:55:50-07:00,2.3727860450745,1,versionA_stim.csv,READVersionA.csv,"Read Version A","Dissertation, read only version A",LETTUCE,SALAD,Study1,S,59,21,Study,User,-,,Study/JOL,"Study Phase",1790,,,-1,-1,,,,1
5f26ad14db44f940a40c86dd,hog8wkfaf8,Nick_Dissertation_EX1,1,83,2020-10-24T11:55:59-07:00,8.4596319198608,1,versionA_stim.csv,READVersionA.csv,"Read Version A","Dissertation, read only version A",HORNET,STING,Study1,F,11,68,Study,User,-,,Study/JOL,"Study Phase",7828,,,-1,-1,,,,1
5f26ad14db44f940a40c86dd,hog8wkfaf8,Nick_Dissertation_EX1,1,84,2020-10-24T11:56:19-07:00,20.251039981842,1,versionA_stim.csv,READVersionA.csv,"Read Version A","Dissertation, read only version A",CLOTHES,ATTIRE,Study1,B,43,58,Study,User,-,,Study/JOL,"Study Phase",19601,,,-1,-1,,,,1
5f26ad14db44f940a40c86dd,hog8wkfaf8,Nick_Dissertation_EX1,1,85,2020-10-24T11:56:55-07:00,35.774708032608,1,versionA_stim.csv,READVersionA.csv,"Read Version A","Dissertation, read only version A",DIETARY,SACKING,Study1,U,67,84,Study,User,-,,Study/JOL,"Study Phase",35120,,,-1,-1,,,,1
5f26ad14db44f940a40c86dd,hog8wkfaf8,Nick_Dissertation_EX1,1,86,2020-10-24T11:57:21-07:00,26.135726928711,1,versionA_stim.csv,READVersionA.csv,"Read Version A","Dissertation, read only version A",DELINQUENT,BAD,Study1,F,6,34,Study,User,-,,Study/JOL,"Study Phase",25272,,,-1,-1,,,,1
5f26ad14db44f940a40c86dd,hog8wkfaf8,Nick_Dissertation_EX1,1,87,2020-10-24T11:57:24-07:00,3.3499410152435,1,versionA_stim.csv,READVersionA.csv,"Read Version A","Dissertation, read only version A",THING,STUFF,BUFFER2,Buffer,90,90,Study,User,-,,Study/JOL,BUFFER2,2529,,,-1,-1,,,,1
5f26ad14db44f940a40c86dd,hog8wkfaf8,Nick_Dissertation_EX1,1,88,2020-10-24T11:57:27-07:00,3.2661981582642,1,versionA_stim.csv,READVersionA.csv,"Read Version A","Dissertation, read only version A",MALT,CHOCOLATE,BUFFER2,Buffer,88,91,Study,User,-,,Study/JOL,BUFFER2,2698,,,-1,-1,,,,1
5f26ad14db44f940a40c86dd,hog8wkfaf8,Nick_Dissertation_EX1,1,89,2020-10-24T11:57:31-07:00,3.6830048561096,1,versionA_stim.csv,READVersionA.csv,"Read Version A","Dissertation, read only version A",SHERRIF,POLICE,BUFFER2,Buffer,87,87,Study,User,-,,Study/JOL,BUFFER2,3132,,,-1,-1,,,,1
5f26ad14db44f940a40c86dd,hog8wkfaf8,Nick_Dissertation_EX1,1,90,2020-10-24T11:57:46-07:00,15.458307027817,1,versionA_stim.csv,READVersionA.csv,"Read Version A","Dissertation, read only version A",MOON,SPACE,BUFFER2,Buffer,89,88,Study,User,-,,Study/JOL,BUFFER2,14828,,,-1,-1,,,,1
5f26ad14db44f940a40c86dd,hog8wkfaf8,Nick_Dissertation_EX1,1,91,2020-10-24T11:57:50-07:00,3.9313371181488,1,versionA_stim.csv,READVersionA.csv,"Read Version A","Dissertation, read only version A",GEESE,GOOSE,BUFFER2,Buffer,86,89,Study,User,-,,Study/JOL,BUFFER2,3347,,,-1,-1,,,,1
5f26ad14db44f940a40c86dd,hog8wkfaf8,Nick_Dissertation_EX1,1,92,2020-10-24T11:57:54-07:00,3.4726898670197,1,versionA_stim.csv,READVersionA.csv,"Read Version A","Dissertation, read only version A",,,,,,0,Instruct,User,-,"You have completed this section. Please press Enter.",Filler_Instruction,Instruct2,2894,,,-1,-1,,,,1
5f26ad14db44f940a40c86dd,hog8wkfaf8,Nick_Dissertation_EX1,1,93,2020-10-24T11:59:55-07:00,120.6868891716,1,versionA_stim.csv,READVersionA.csv,"Read Version A","Dissertation, read only version A",,,,,,0,FreeRecall,120,120,"Please list the 50 US states in alphabetical order. The task will automatically advance to the next screen after two minutes.",,Filler1,120003,"Alabama Alaska California Colorado",0,31547,58970,0,0,,1
5f26ad14db44f940a40c86dd,hog8wkfaf8,Nick_Dissertation_EX1,1,94,2020-10-24T12:00:06-07:00,11.963040828705,1,versionA_stim.csv,READVersionA.csv,"Read Version A","Dissertation, read only version A",,,,,,0,Instruct,-,10,"You will now be presented with the first word from each of the previously studied item pairs. Please type the missing word. If you do not know the word, you may guess or press Enter to skip forward to the next pair.",,Instruct3,11080,,,-1,-1,,,,1
5f26ad14db44f940a40c86dd,hog8wkfaf8,Nick_Dissertation_EX1,1,95,2020-10-24T12:00:22-07:00,15.223083972931,1,versionA_stim.csv,READVersionA.csv,"Read Version A","Dissertation, read only version A",ARCHITECTURE,DESIGN,Study1,S,51,74,Test,User,-,,Recall,Recall1,14556,design,100,10677,12223,1,1,,1
5f26ad14db44f940a40c86dd,hog8wkfaf8,Nick_Dissertation_EX1,1,96,2020-10-24T12:00:30-07:00,8.0774819850922,1,versionA_stim.csv,READVersionA.csv,"Read Version A","Dissertation, read only version A",FIRE,BLAZE,Study1,B,45,81,Test,User,-,,Recall,Recall1,7252,blaze,100,1848,3820,1,1,,1
5f26ad14db44f940a40c86dd,hog8wkfaf8,Nick_Dissertation_EX1,1,97,2020-10-24T12:00:35-07:00,4.876011133194,1,versionA_stim.csv,READVersionA.csv,"Read Version A","Dissertation, read only version A",HYGIENE,CLEAN,Study1,F,17,14,Test,User,-,,Recall,Recall1,4177,clean,100,1755,2625,1,1,,1
5f26ad14db44f940a40c86dd,hog8wkfaf8,Nick_Dissertation_EX1,1,98,2020-10-24T12:00:41-07:00,6.0650610923767,1,versionA_stim.csv,READVersionA.csv,"Read Version A","Dissertation, read only version A",LETTUCE,SALAD,Study1,S,59,21,Test,User,-,,Recall,Recall1,5486,salad,100,2252,4027,1,1,,1
5f26ad14db44f940a40c86dd,hog8wkfaf8,Nick_Dissertation_EX1,1,99,2020-10-24T12:00:49-07:00,7.9112908840179,1,versionA_stim.csv,READVersionA.csv,"Read Version A","Dissertation, read only version A",PARK,HUNGRY,Study1,U,68,53,Test,User,-,,Recall,Recall1,7230,,0,-1,-1,0,0,,1
5f26ad14db44f940a40c86dd,hog8wkfaf8,Nick_Dissertation_EX1,1,100,2020-10-24T12:01:00-07:00,11.789772987366,1,versionA_stim.csv,READVersionA.csv,"Read Version A","Dissertation, read only version A",CREDIT,CARD,Study1,F,23,77,Test,User,-,,Recall,Recall1,11129,card,100,1475,2095,1,1,,1
5f26ad14db44f940a40c86dd,hog8wkfaf8,Nick_Dissertation_EX1,1,101,2020-10-24T12:01:12-07:00,11.338705062866,1,versionA_stim.csv,READVersionA.csv,"Read Version A","Dissertation, read only version A",DRINK,SIP,Study1,B,27,9,Test,User,-,,Recall,Recall1,10588,sip,100,6871,7309,1,1,,1
5f26ad14db44f940a40c86dd,hog8wkfaf8,Nick_Dissertation_EX1,1,102,2020-10-24T12:01:24-07:00,12.418076992035,1,versionA_stim.csv,READVersionA.csv,"Read Version A","Dissertation, read only version A",DISCOVER,FLOOR,Study1,U,71,54,Test,User,-,,Recall,Recall1,11518,,0,-1,-1,0,0,,1
5f26ad14db44f940a40c86dd,hog8wkfaf8,Nick_Dissertation_EX1,1,103,2020-10-24T12:01:32-07:00,7.3627500534058,1,versionA_stim.csv,READVersionA.csv,"Read Version A","Dissertation, read only version A",DIGESTION,STOMACH,Study1,F,7,73,Test,User,-,,Recall,Recall1,6765,stomach,100,2070,5177,1,1,,1
5f26ad14db44f940a40c86dd,hog8wkfaf8,Nick_Dissertation_EX1,1,104,2020-10-24T12:01:58-07:00,26.132196903229,1,versionA_stim.csv,READVersionA.csv,"Read Version A","Dissertation, read only version A",DIETARY,SACKING,Study1,U,67,84,Test,User,-,,Recall,Recall1,25454,food,0,23328,24067,0,0,,1
5f26ad14db44f940a40c86dd,hog8wkfaf8,Nick_Dissertation_EX1,1,105,2020-10-24T12:02:07-07:00,9.2408800125122,1,versionA_stim.csv,READVersionA.csv,"Read Version A","Dissertation, read only version A",MACHINE,POSITION,Study1,U,76,40,Test,User,-,,Recall,Recall1,8218,,0,-1,-1,0,0,,1
5f26ad14db44f940a40c86dd,hog8wkfaf8,Nick_Dissertation_EX1,1,106,2020-10-24T12:02:12-07:00,5.0610179901123,1,versionA_stim.csv,READVersionA.csv,"Read Version A","Dissertation, read only version A",BRIDGE,WATER,Study1,F,18,70,Test,User,-,,Recall,Recall1,4370,water,100,1658,2621,1,1,,1
5f26ad14db44f940a40c86dd,hog8wkfaf8,Nick_Dissertation_EX1,1,107,2020-10-24T12:02:27-07:00,14.61101603508,1,versionA_stim.csv,READVersionA.csv,"Read Version A","Dissertation, read only version A",KEY,LATCH,Study1,B,36,41,Test,User,-,,Recall,Recall1,13963,,0,-1,-1,0,0,,1
5f26ad14db44f940a40c86dd,hog8wkfaf8,Nick_Dissertation_EX1,1,108,2020-10-24T12:02:30-07:00,3.7962579727173,1,versionA_stim.csv,READVersionA.csv,"Read Version A","Dissertation, read only version A",SUGAR,RIDDLE,Study1,U,81,8,Test,User,-,,Recall,Recall1,3136,,0,-1,-1,0,0,,1
5f26ad14db44f940a40c86dd,hog8wkfaf8,Nick_Dissertation_EX1,1,109,2020-10-24T12:02:41-07:00,10.47595000267,1,versionA_stim.csv,READVersionA.csv,"Read Version A","Dissertation, read only version A",STRONG,ACCIDENT,Study1,U,80,49,Test,User,-,,Recall,Recall1,9814,accident,100,6245,8212,1,1,,1
5f26ad14db44f940a40c86dd,hog8wkfaf8,Nick_Dissertation_EX1,1,110,2020-10-24T12:02:47-07:00,5.6538679599762,1,versionA_stim.csv,READVersionA.csv,"Read Version A","Dissertation, read only version A",BATHROOM,TOILET,Study1,S,58,65,Test,User,-,,Recall,Recall1,4854,toilet,100,2121,3391,1,1,,1
5f26ad14db44f940a40c86dd,hog8wkfaf8,Nick_Dissertation_EX1,1,111,2020-10-24T12:02:58-07:00,11.762973070145,1,versionA_stim.csv,READVersionA.csv,"Read Version A","Dissertation, read only version A",SOON,BELT,Study1,U,70,7,Test,User,-,,Recall,Recall1,11073,,0,-1,-1,0,0,,1
5f26ad14db44f940a40c86dd,hog8wkfaf8,Nick_Dissertation_EX1,1,112,2020-10-24T12:03:07-07:00,8.4320678710938,1,versionA_stim.csv,READVersionA.csv,"Read Version A","Dissertation, read only version A",LAW,ATTORNEY,Study1,B,34,60,Test,User,-,,Recall,Recall1,7717,jury,33.333333333333,3736,6132,0,0,,1
5f26ad14db44f940a40c86dd,hog8wkfaf8,Nick_Dissertation_EX1,1,113,2020-10-24T12:03:32-07:00,25.374795198441,1,versionA_stim.csv,READVersionA.csv,"Read Version A","Dissertation, read only version A",NUMBER,AMOUNT,Study1,S,47,48,Test,User,-,,Recall,Recall1,24734,amount,100,22184,23357,1,1,,1
5f26ad14db44f940a40c86dd,hog8wkfaf8,Nick_Dissertation_EX1,1,114,2020-10-24T12:03:37-07:00,5.066300868988,1,versionA_stim.csv,READVersionA.csv,"Read Version A","Dissertation, read only version A",PAST,FUTURE,Study1,S,61,10,Test,User,-,,Recall,Recall1,4240,future,100,1717,3042,1,1,,1
5f26ad14db44f940a40c86dd,hog8wkfaf8,Nick_Dissertation_EX1,1,115,2020-10-24T12:03:43-07:00,5.52561211586,1,versionA_stim.csv,READVersionA.csv,"Read Version A","Dissertation, read only version A",ROOT,PLANT,Study1,F,13,26,Test,User,-,,Recall,Recall1,4857,plant,100,1701,3380,1,1,,1
5f26ad14db44f940a40c86dd,hog8wkfaf8,Nick_Dissertation_EX1,1,116,2020-10-24T12:03:58-07:00,15.774396896362,1,versionA_stim.csv,READVersionA.csv,"Read Version A","Dissertation, read only version A",HOT,CHILI,Study1,B,37,67,Test,User,-,,Recall,Recall1,15101,chilli,90.909090909091,11970,13499,0,1,,1
5f26ad14db44f940a40c86dd,hog8wkfaf8,Nick_Dissertation_EX1,1,117,2020-10-24T12:04:05-07:00,6.9672129154205,1,versionA_stim.csv,READVersionA.csv,"Read Version A","Dissertation, read only version A",LIFT,WOMAN,Study1,U,69,56,Test,User,-,,Recall,Recall1,6222,,0,-1,-1,0,0,,1
5f26ad14db44f940a40c86dd,hog8wkfaf8,Nick_Dissertation_EX1,1,118,2020-10-24T12:04:17-07:00,11.41427898407,1,versionA_stim.csv,READVersionA.csv,"Read Version A","Dissertation, read only version A",GREAT,FANTASTIC,Study1,B,35,18,Test,User,-,,Recall,Recall1,10692,,0,-1,-1,0,0,,1
5f26ad14db44f940a40c86dd,hog8wkfaf8,Nick_Dissertation_EX1,1,119,2020-10-24T12:04:42-07:00,25.156608104706,1,versionA_stim.csv,READVersionA.csv,"Read Version A","Dissertation, read only version A",HUNGER,FAMINE,Study1,B,40,33,Test,User,-,,Recall,Recall1,24144,,0,-1,-1,0,0,,1
5f26ad14db44f940a40c86dd,hog8wkfaf8,Nick_Dissertation_EX1,1,120,2020-10-24T12:04:52-07:00,9.6091430187225,1,versionA_stim.csv,READVersionA.csv,"Read Version A","Dissertation, read only version A",DUMP,WASTE,Study1,S,49,28,Test,User,-,,Recall,Recall1,8703,waste,100,2951,3908,1,1,,1
5f26ad14db44f940a40c86dd,hog8wkfaf8,Nick_Dissertation_EX1,1,121,2020-10-24T12:05:03-07:00,10.985836982727,1,versionA_stim.csv,READVersionA.csv,"Read Version A","Dissertation, read only version A",MATH,DIVISION,Study1,B,33,36,Test,User,-,,Recall,Recall1,10265,division,100,5993,8556,1,1,,1
5f26ad14db44f940a40c86dd,hog8wkfaf8,Nick_Dissertation_EX1,1,122,2020-10-24T12:05:25-07:00,22.762161016464,1,versionA_stim.csv,READVersionA.csv,"Read Version A","Dissertation, read only version A",POP,SODA,Study1,S,56,47,Test,User,-,,Recall,Recall1,22063,star,50,18697,20108,0,0,,1
5f26ad14db44f940a40c86dd,hog8wkfaf8,Nick_Dissertation_EX1,1,123,2020-10-24T12:05:46-07:00,20.501395940781,1,versionA_stim.csv,READVersionA.csv,"Read Version A","Dissertation, read only version A",HEIGHT,GROWTH,Study1,B,30,42,Test,User,-,,Recall,Recall1,19600,weight,33.333333333333,15686,18020,0,0,,1
5f26ad14db44f940a40c86dd,hog8wkfaf8,Nick_Dissertation_EX1,1,124,2020-10-24T12:05:51-07:00,5.1598169803619,1,versionA_stim.csv,READVersionA.csv,"Read Version A","Dissertation, read only version A",KIDNEY,LIVER,Study1,S,53,50,Test,User,-,,Recall,Recall1,4235,liver,100,1645,2829,1,1,,1
5f26ad14db44f940a40c86dd,hog8wkfaf8,Nick_Dissertation_EX1,1,125,2020-10-24T12:06:01-07:00,10.328803062439,1,versionA_stim.csv,READVersionA.csv,"Read Version A","Dissertation, read only version A",ARTERY,BRONZE,Study1,U,74,76,Test,User,-,,Recall,Recall1,9638,,0,-1,-1,0,0,,1
5f26ad14db44f940a40c86dd,hog8wkfaf8,Nick_Dissertation_EX1,1,126,2020-10-24T12:07:16-07:00,74.499182939529,1,versionA_stim.csv,READVersionA.csv,"Read Version A","Dissertation, read only version A",TRIAL,JURY,Study1,S,50,23,Test,User,-,,Recall,Recall1,73789,court,44.444444444444,68248,72277,0,0,,1
5f26ad14db44f940a40c86dd,hog8wkfaf8,Nick_Dissertation_EX1,1,127,2020-10-24T12:07:22-07:00,5.9768350124359,1,versionA_stim.csv,READVersionA.csv,"Read Version A","Dissertation, read only version A",ORCHID,FLOWER,Study1,F,24,85,Test,User,-,,Recall,Recall1,5235,flower,100,2373,3808,1,1,,1
5f26ad14db44f940a40c86dd,hog8wkfaf8,Nick_Dissertation_EX1,1,128,2020-10-24T12:07:44-07:00,22.634006023407,1,versionA_stim.csv,READVersionA.csv,"Read Version A","Dissertation, read only version A",CASH,WOULD,Study1,U,83,39,Test,User,-,,Recall,Recall1,21964,money,20,15072,20439,0,0,,1
5f26ad14db44f940a40c86dd,hog8wkfaf8,Nick_Dissertation_EX1,1,129,2020-10-24T12:07:49-07:00,4.6816380023956,1,versionA_stim.csv,READVersionA.csv,"Read Version A","Dissertation, read only version A",DELINQUENT,BAD,Study1,F,6,34,Test,User,-,,Recall,Recall1,3782,bad,100,1838,2440,1,1,,1
5f26ad14db44f940a40c86dd,hog8wkfaf8,Nick_Dissertation_EX1,1,130,2020-10-24T12:08:03-07:00,13.592864990234,1,versionA_stim.csv,READVersionA.csv,"Read Version A","Dissertation, read only version A",SMELL,STENCH,Study1,B,42,32,Test,User,-,,Recall,Recall1,12915,stench,100,9685,11188,1,1,,1
5f26ad14db44f940a40c86dd,hog8wkfaf8,Nick_Dissertation_EX1,1,131,2020-10-24T12:08:18-07:00,15.732800006866,1,versionA_stim.csv,READVersionA.csv,"Read Version A","Dissertation, read only version A",FULL,ENOUGH,Study1,B,26,20,Test,User,-,,Recall,Recall1,14839,enough,100,11516,13451,1,1,,1
5f26ad14db44f940a40c86dd,hog8wkfaf8,Nick_Dissertation_EX1,1,132,2020-10-24T12:08:27-07:00,8.6497259140015,1,versionA_stim.csv,READVersionA.csv,"Read Version A","Dissertation, read only version A",BLOW,WIND,Study1,S,55,75,Test,User,-,,Recall,Recall1,7864,wind,100,3648,6523,1,1,,1
5f26ad14db44f940a40c86dd,hog8wkfaf8,Nick_Dissertation_EX1,1,133,2020-10-24T12:08:42-07:00,14.549711227417,1,versionA_stim.csv,READVersionA.csv,"Read Version A","Dissertation, read only version A",GEOLOGY,ROCK,Study1,F,19,44,Test,User,-,,Recall,Recall1,13851,rocks,88.888888888889,1894,12599,0,1,,1
5f26ad14db44f940a40c86dd,hog8wkfaf8,Nick_Dissertation_EX1,1,134,2020-10-24T12:08:48-07:00,6.1712708473206,1,versionA_stim.csv,READVersionA.csv,"Read Version A","Dissertation, read only version A",ALLOW,TUCK,Study1,U,78,30,Test,User,-,,Recall,Recall1,5367,,0,-1,-1,0,0,,1
5f26ad14db44f940a40c86dd,hog8wkfaf8,Nick_Dissertation_EX1,1,135,2020-10-24T12:09:04-07:00,16.488592147827,1,versionA_stim.csv,READVersionA.csv,"Read Version A","Dissertation, read only version A",DISCUSSION,TALK,Study1,F,21,72,Test,User,-,,Recall,Recall1,15734,talk,100,12206,14347,1,1,,1
5f26ad14db44f940a40c86dd,hog8wkfaf8,Nick_Dissertation_EX1,1,136,2020-10-24T12:09:17-07:00,12.184401988983,1,versionA_stim.csv,READVersionA.csv,"Read Version A","Dissertation, read only version A",BUG,WASP,Study1,B,32,83,Test,User,-,,Recall,Recall1,11493,bees,25,3886,4583,0,0,,1
5f26ad14db44f940a40c86dd,hog8wkfaf8,Nick_Dissertation_EX1,1,137,2020-10-24T12:09:23-07:00,6.7704379558563,1,versionA_stim.csv,READVersionA.csv,"Read Version A","Dissertation, read only version A",CHISEL,HAMMER,Study1,F,9,19,Test,User,-,,Recall,Recall1,5906,hammer,100,1699,3066,1,1,,1
5f26ad14db44f940a40c86dd,hog8wkfaf8,Nick_Dissertation_EX1,1,138,2020-10-24T12:09:44-07:00,20.401782989502,1,versionA_stim.csv,READVersionA.csv,"Read Version A","Dissertation, read only version A",HAPPY,CAR,Study1,U,77,64,Test,User,-,,Recall,Recall1,19657,,0,-1,-1,0,0,,1
5f26ad14db44f940a40c86dd,hog8wkfaf8,Nick_Dissertation_EX1,1,139,2020-10-24T12:09:49-07:00,5.7052419185638,1,versionA_stim.csv,READVersionA.csv,"Read Version A","Dissertation, read only version A",WORK,CHORE,Study1,B,39,11,Test,User,-,,Recall,Recall1,4818,chore,100,2000,3060,1,1,,1
5f26ad14db44f940a40c86dd,hog8wkfaf8,Nick_Dissertation_EX1,1,140,2020-10-24T12:10:02-07:00,12.511923074722,1,versionA_stim.csv,READVersionA.csv,"Read Version A","Dissertation, read only version A",SHOE,FOOT,Study1,S,60,25,Test,User,-,,Recall,Recall1,11804,feet,50,3042,3716,0,0,,1
5f26ad14db44f940a40c86dd,hog8wkfaf8,Nick_Dissertation_EX1,1,141,2020-10-24T12:10:16-07:00,14.569966077805,1,versionA_stim.csv,READVersionA.csv,"Read Version A","Dissertation, read only version A",HONEY,BEE,Study1,S,63,45,Test,User,-,,Recall,Recall1,13543,bee,100,3244,9135,1,1,,1
5f26ad14db44f940a40c86dd,hog8wkfaf8,Nick_Dissertation_EX1,1,142,2020-10-24T12:10:21-07:00,4.7219269275665,1,versionA_stim.csv,READVersionA.csv,"Read Version A","Dissertation, read only version A",DEBATE,SIGHT,Study1,U,73,57,Test,User,-,,Recall,Recall1,3819,,0,-1,-1,0,0,,1
5f26ad14db44f940a40c86dd,hog8wkfaf8,Nick_Dissertation_EX1,1,143,2020-10-24T12:10:33-07:00,12.217696905136,1,versionA_stim.csv,READVersionA.csv,"Read Version A","Dissertation, read only version A",LOCATION,SITE,Study1,S,48,69,Test,User,-,,Recall,Recall1,11512,place,22.222222222222,7565,10032,0,0,,1
5f26ad14db44f940a40c86dd,hog8wkfaf8,Nick_Dissertation_EX1,1,144,2020-10-24T12:10:41-07:00,7.3818120956421,1,versionA_stim.csv,READVersionA.csv,"Read Version A","Dissertation, read only version A",KING,VASE,Study1,U,85,63,Test,User,-,,Recall,Recall1,6344,,0,-1,-1,0,0,,1
5f26ad14db44f940a40c86dd,hog8wkfaf8,Nick_Dissertation_EX1,1,145,2020-10-24T12:10:51-07:00,10.090796947479,1,versionA_stim.csv,READVersionA.csv,"Read Version A","Dissertation, read only version A",SENTENCE,WORD,Study1,B,31,27,Test,User,-,,Recall,Recall1,9402,word,100,7292,7908,1,1,,1
5f26ad14db44f940a40c86dd,hog8wkfaf8,Nick_Dissertation_EX1,1,146,2020-10-24T12:11:38-07:00,47.31877207756,1,versionA_stim.csv,READVersionA.csv,"Read Version A","Dissertation, read only version A",PLANE,PILOT,Study1,B,44,15,Test,User,-,,Recall,Recall1,46399,,0,-1,-1,0,0,,1
5f26ad14db44f940a40c86dd,hog8wkfaf8,Nick_Dissertation_EX1,1,147,2020-10-24T12:12:01-07:00,23.268091917038,1,versionA_stim.csv,READVersionA.csv,"Read Version A","Dissertation, read only version A",DEATH,BUSINESS,Study1,U,72,12,Test,User,-,,Recall,Recall1,22529,end,18.181818181818,18038,20481,0,0,,1
5f26ad14db44f940a40c86dd,hog8wkfaf8,Nick_Dissertation_EX1,1,148,2020-10-24T12:12:05-07:00,3.1786160469055,1,versionA_stim.csv,READVersionA.csv,"Read Version A","Dissertation, read only version A",PUSHER,CLUTTER,Study1,U,66,52,Test,User,-,,Recall,Recall1,2355,,0,-1,-1,0,0,,1
5f26ad14db44f940a40c86dd,hog8wkfaf8,Nick_Dissertation_EX1,1,149,2020-10-24T12:12:33-07:00,28.239137887955,1,versionA_stim.csv,READVersionA.csv,"Read Version A","Dissertation, read only version A",SLEEP,DROWSY,Study1,B,41,80,Test,User,-,,Recall,Recall1,27531,drowsy,100,11174,24326,1,1,,1
5f26ad14db44f940a40c86dd,hog8wkfaf8,Nick_Dissertation_EX1,1,150,2020-10-24T12:12:44-07:00,11.499413013458,1,versionA_stim.csv,READVersionA.csv,"Read Version A","Dissertation, read only version A",VALLEY,ADD,Study1,U,82,31,Test,User,-,,Recall,Recall1,10596,,0,-1,-1,0,0,,1
5f26ad14db44f940a40c86dd,hog8wkfaf8,Nick_Dissertation_EX1,1,151,2020-10-24T12:12:54-07:00,9.5018019676208,1,versionA_stim.csv,READVersionA.csv,"Read Version A","Dissertation, read only version A",DUE,ASSIGNMENT,Study1,S,46,22,Test,User,-,,Recall,Recall1,8482,assignment,100,2810,6570,1,1,,1
5f26ad14db44f940a40c86dd,hog8wkfaf8,Nick_Dissertation_EX1,1,152,2020-10-24T12:12:59-07:00,5.3430161476135,1,versionA_stim.csv,READVersionA.csv,"Read Version A","Dissertation, read only version A",SWAN,BIRD,Study1,F,14,29,Test,User,-,,Recall,Recall1,4584,,0,-1,-1,0,0,,1
5f26ad14db44f940a40c86dd,hog8wkfaf8,Nick_Dissertation_EX1,1,153,2020-10-24T12:13:04-07:00,4.8695659637451,1,versionA_stim.csv,READVersionA.csv,"Read Version A","Dissertation, read only version A",PAW,DOG,Study1,F,15,17,Test,User,-,,Recall,Recall1,4236,dog,100,2284,2578,1,1,,1
5f26ad14db44f940a40c86dd,hog8wkfaf8,Nick_Dissertation_EX1,1,154,2020-10-24T12:13:54-07:00,50.208064079285,1,versionA_stim.csv,READVersionA.csv,"Read Version A","Dissertation, read only version A",HIDE,SICK,Study1,U,84,51,Test,User,-,,Recall,Recall1,49472,scare,44.444444444444,39493,48111,0,0,,1
5f26ad14db44f940a40c86dd,hog8wkfaf8,Nick_Dissertation_EX1,1,155,2020-10-24T12:14:06-07:00,11.316926002502,1,versionA_stim.csv,READVersionA.csv,"Read Version A","Dissertation, read only version A",HORNET,STING,Study1,F,11,68,Test,User,-,,Recall,Recall1,10387,sting,100,7041,8796,1,1,,1
5f26ad14db44f940a40c86dd,hog8wkfaf8,Nick_Dissertation_EX1,1,156,2020-10-24T12:14:10-07:00,4.1094319820404,1,versionA_stim.csv,READVersionA.csv,"Read Version A","Dissertation, read only version A",TAKE,SEIZE,Study1,B,29,66,Test,User,-,,Recall,Recall1,3358,out,0,1682,2166,0,0,,1
5f26ad14db44f940a40c86dd,hog8wkfaf8,Nick_Dissertation_EX1,1,157,2020-10-24T12:14:18-07:00,8.4942219257355,1,versionA_stim.csv,READVersionA.csv,"Read Version A","Dissertation, read only version A",CIRCLE,ROUND,Study1,S,65,16,Test,User,-,,Recall,Recall1,7822,round,100,1889,3122,1,1,,1
5f26ad14db44f940a40c86dd,hog8wkfaf8,Nick_Dissertation_EX1,1,158,2020-10-24T12:14:28-07:00,10.063679933548,1,versionA_stim.csv,READVersionA.csv,"Read Version A","Dissertation, read only version A",ART,LION,Study1,U,79,82,Test,User,-,,Recall,Recall1,9332,lion,100,7325,8086,1,1,,1
5f26ad14db44f940a40c86dd,hog8wkfaf8,Nick_Dissertation_EX1,1,159,2020-10-24T12:14:36-07:00,7.356908082962,1,versionA_stim.csv,READVersionA.csv,"Read Version A","Dissertation, read only version A",EDITOR,NEWS,Study1,F,10,46,Test,User,-,,Recall,Recall1,6612,,0,-1,-1,0,0,,1
5f26ad14db44f940a40c86dd,hog8wkfaf8,Nick_Dissertation_EX1,1,160,2020-10-24T12:14:40-07:00,4.2047009468079,1,versionA_stim.csv,READVersionA.csv,"Read Version A","Dissertation, read only version A",WAY,OUT,Study1,F,16,24,Test,User,-,,Recall,Recall1,3496,out,100,1484,2015,1,1,,1
5f26ad14db44f940a40c86dd,hog8wkfaf8,Nick_Dissertation_EX1,1,161,2020-10-24T12:14:44-07:00,4.5251820087433,1,versionA_stim.csv,READVersionA.csv,"Read Version A","Dissertation, read only version A",HERD,COW,Study1,F,22,38,Test,User,-,,Recall,Recall1,3893,cow,100,2014,2703,1,1,,1
5f26ad14db44f940a40c86dd,hog8wkfaf8,Nick_Dissertation_EX1,1,162,2020-10-24T12:15:01-07:00,16.744024038315,1,versionA_stim.csv,READVersionA.csv,"Read Version A","Dissertation, read only version A",CLOTHES,ATTIRE,Study1,B,43,58,Test,User,-,,Recall,Recall1,16027,attire,100,13566,14795,1,1,,1
5f26ad14db44f940a40c86dd,hog8wkfaf8,Nick_Dissertation_EX1,1,163,2020-10-24T12:15:24-07:00,23.126601934433,1,versionA_stim.csv,READVersionA.csv,"Read Version A","Dissertation, read only version A",BITTER,COLD,Study1,F,12,62,Test,User,-,,Recall,Recall1,22347,,0,-1,-1,0,0,,1
5f26ad14db44f940a40c86dd,hog8wkfaf8,Nick_Dissertation_EX1,1,164,2020-10-24T12:15:29-07:00,4.6709871292114,1,versionA_stim.csv,READVersionA.csv,"Read Version A","Dissertation, read only version A",TUNA,FISH,Study1,F,25,71,Test,User,-,,Recall,Recall1,3939,fish,100,1781,2764,1,1,,1
5f26ad14db44f940a40c86dd,hog8wkfaf8,Nick_Dissertation_EX1,1,165,2020-10-24T12:15:45-07:00,15.826686859131,1,versionA_stim.csv,READVersionA.csv,"Read Version A","Dissertation, read only version A",BALL,RACKET,Study1,B,38,35,Test,User,-,,Recall,Recall1,15071,racket,100,12196,13756,1,1,,1
5f26ad14db44f940a40c86dd,hog8wkfaf8,Nick_Dissertation_EX1,1,166,2020-10-24T12:16:30-07:00,45.545516014099,1,versionA_stim.csv,READVersionA.csv,"Read Version A","Dissertation, read only version A",BEGIN,END,Study1,S,54,79,Test,User,-,,Recall,Recall1,44594,end,100,39453,43383,1,1,,1
5f26ad14db44f940a40c86dd,hog8wkfaf8,Nick_Dissertation_EX1,1,167,2020-10-24T12:16:41-07:00,10.789597988129,1,versionA_stim.csv,READVersionA.csv,"Read Version A","Dissertation, read only version A",BABY,CHILD,Study1,S,64,61,Test,User,-,,Recall,Recall1,9826,child,100,5694,7827,1,1,,1
5f26ad14db44f940a40c86dd,hog8wkfaf8,Nick_Dissertation_EX1,1,168,2020-10-24T12:16:45-07:00,3.5190720558167,1,versionA_stim.csv,READVersionA.csv,"Read Version A","Dissertation, read only version A",FIX,HAND,Study1,U,75,13,Test,User,-,,Recall,Recall1,2833,,0,-1,-1,0,0,,1
5f26ad14db44f940a40c86dd,hog8wkfaf8,Nick_Dissertation_EX1,1,169,2020-10-24T12:16:52-07:00,7.2853629589081,1,versionA_stim.csv,READVersionA.csv,"Read Version A","Dissertation, read only version A",WAGE,MONEY,Study1,F,8,37,Test,User,-,,Recall,Recall1,6552,money,100,2041,3393,1,1,,1
5f26ad14db44f940a40c86dd,hog8wkfaf8,Nick_Dissertation_EX1,1,170,2020-10-24T12:16:56-07:00,4.4155831336975,1,versionA_stim.csv,READVersionA.csv,"Read Version A","Dissertation, read only version A",REVOLUTION,WAR,Study1,F,20,55,Test,User,-,,Recall,Recall1,3769,war,100,1813,2189,1,1,,1
5f26ad14db44f940a40c86dd,hog8wkfaf8,Nick_Dissertation_EX1,1,171,2020-10-24T12:17:13-07:00,16.802989959717,1,versionA_stim.csv,READVersionA.csv,"Read Version A","Dissertation, read only version A",DARK,CAVE,Study1,B,28,43,Test,User,-,,Recall,Recall1,16077,cave,100,13372,14608,1,1,,1
5f26ad14db44f940a40c86dd,hog8wkfaf8,Nick_Dissertation_EX1,1,172,2020-10-24T12:17:22-07:00,8.4102039337158,1,versionA_stim.csv,READVersionA.csv,"Read Version A","Dissertation, read only version A",MEANING,DEFINITION,Study1,S,62,78,Test,User,-,,Recall,Recall1,7447,definition,100,1640,6128,1,1,,1
5f26ad14db44f940a40c86dd,hog8wkfaf8,Nick_Dissertation_EX1,1,173,2020-10-24T12:17:27-07:00,5.0887899398804,1,versionA_stim.csv,READVersionA.csv,"Read Version A","Dissertation, read only version A",WINE,CHEESE,Study1,S,57,59,Test,User,-,,Recall,Recall1,4428,cheese,100,1900,3248,1,1,,1
5f26ad14db44f940a40c86dd,hog8wkfaf8,Nick_Dissertation_EX1,1,174,2020-10-24T12:17:32-07:00,5.3467111587524,1,versionA_stim.csv,READVersionA.csv,"Read Version A","Dissertation, read only version A",GRILL,BAR,Study1,S,52,86,Test,User,-,,Recall,Recall1,4606,bar,100,2639,3251,1,1,,1
5f26ad14db44f940a40c86dd,hog8wkfaf8,Nick_Dissertation_EX1,1,175,2020-10-24T12:19:01-07:00,89.030194044113,1,versionA_stim.csv,READVersionA.csv,"Read Version A","Dissertation, read only version A",,,,,,0,Instruct,-,10,"You will now be presented with a new set of word pairs. Please study each pair. Remember that your memory will be tested! When finished, press Enter to move to the next pair.",Initial_Instruct,Instruct4,88253,,,-1,-1,,,,1
5f26ad14db44f940a40c86dd,hog8wkfaf8,Nick_Dissertation_EX1,1,176,2020-10-24T12:19:10-07:00,8.5377688407898,1,versionA_stim.csv,READVersionA.csv,"Read Version A","Dissertation, read only version A",ICE,FROZEN,BUFFER3,Buffer,94,94,Study,User,-,,Study/JOL,BUFFER3,7642,,,-1,-1,,,,1
5f26ad14db44f940a40c86dd,hog8wkfaf8,Nick_Dissertation_EX1,1,177,2020-10-24T12:19:18-07:00,8.8294079303741,1,versionA_stim.csv,READVersionA.csv,"Read Version A","Dissertation, read only version A",CARROT,POTATO,BUFFER3,Buffer,91,95,Study,User,-,,Study/JOL,BUFFER3,8170,,,-1,-1,,,,1
5f26ad14db44f940a40c86dd,hog8wkfaf8,Nick_Dissertation_EX1,1,178,2020-10-24T12:19:54-07:00,35.358190059662,1,versionA_stim.csv,READVersionA.csv,"Read Version A","Dissertation, read only version A",CAMP,ADVENTURE,BUFFER3,Buffer,95,96,Study,User,-,,Study/JOL,BUFFER3,34648,,,-1,-1,,,,1
5f26ad14db44f940a40c86dd,hog8wkfaf8,Nick_Dissertation_EX1,1,179,2020-10-24T12:20:04-07:00,10.211689949036,1,versionA_stim.csv,READVersionA.csv,"Read Version A","Dissertation, read only version A",SHRIMP,FISH,BUFFER3,Buffer,93,93,Study,User,-,,Study/JOL,BUFFER3,9363,,,-1,-1,,,,1
5f26ad14db44f940a40c86dd,hog8wkfaf8,Nick_Dissertation_EX1,1,180,2020-10-24T12:20:22-07:00,17.649260044098,1,versionA_stim.csv,READVersionA.csv,"Read Version A","Dissertation, read only version A",NOODLE,STRING,BUFFER3,Buffer,92,92,Study,User,-,,Study/JOL,BUFFER3,16910,,,-1,-1,,,,1
5f26ad14db44f940a40c86dd,hog8wkfaf8,Nick_Dissertation_EX1,1,181,2020-10-24T12:20:29-07:00,7.8497200012207,1,versionA_stim.csv,READVersionA.csv,"Read Version A","Dissertation, read only version A",SUN,TAN,Study2,S,155,176,Study,User,-,,Study/JOL,"Study Phase2",6999,,,-1,-1,,,,1
5f26ad14db44f940a40c86dd,hog8wkfaf8,Nick_Dissertation_EX1,1,182,2020-10-24T12:20:37-07:00,7.9672169685364,1,versionA_stim.csv,READVersionA.csv,"Read Version A","Dissertation, read only version A",TANTRUM,TEMPER,Study2,S,154,161,Study,User,-,,Study/JOL,"Study Phase2",7257,,,-1,-1,,,,1
5f26ad14db44f940a40c86dd,hog8wkfaf8,Nick_Dissertation_EX1,1,183,2020-10-24T12:20:51-07:00,13.326505184174,1,versionA_stim.csv,READVersionA.csv,"Read Version A","Dissertation, read only version A",AFFECTION,LOVE,Study2,F,115,97,Study,User,-,,Study/JOL,"Study Phase2",12624,,,-1,-1,,,,1
5f26ad14db44f940a40c86dd,hog8wkfaf8,Nick_Dissertation_EX1,1,184,2020-10-24T12:21:05-07:00,14.637990951538,1,versionA_stim.csv,READVersionA.csv,"Read Version A","Dissertation, read only version A",RAZOR,SHAVE,Study2,S,136,172,Study,User,-,,Study/JOL,"Study Phase2",13770,,,-1,-1,,,,1
5f26ad14db44f940a40c86dd,hog8wkfaf8,Nick_Dissertation_EX1,1,185,2020-10-24T12:21:09-07:00,3.3554110527039,1,versionA_stim.csv,READVersionA.csv,"Read Version A","Dissertation, read only version A",OWN,HAVE,Study2,S,153,142,Study,User,-,,Study/JOL,"Study Phase2",2440,,,-1,-1,,,,1
5f26ad14db44f940a40c86dd,hog8wkfaf8,Nick_Dissertation_EX1,1,186,2020-10-24T12:21:12-07:00,2.9531009197235,1,versionA_stim.csv,READVersionA.csv,"Read Version A","Dissertation, read only version A",BAD,VILLAIN,Study2,B,118,122,Study,User,-,,Study/JOL,"Study Phase2",2214,,,-1,-1,,,,1
5f26ad14db44f940a40c86dd,hog8wkfaf8,Nick_Dissertation_EX1,1,187,2020-10-24T12:21:16-07:00,4.0343399047852,1,versionA_stim.csv,READVersionA.csv,"Read Version A","Dissertation, read only version A",ROD,REEL,Study2,S,150,165,Study,User,-,,Study/JOL,"Study Phase2",3356,,,-1,-1,,,,1
5f26ad14db44f940a40c86dd,hog8wkfaf8,Nick_Dissertation_EX1,1,188,2020-10-24T12:21:21-07:00,5.474503993988,1,versionA_stim.csv,READVersionA.csv,"Read Version A","Dissertation, read only version A",LOAN,SIGN,Study2,U,171,101,Study,User,-,,Study/JOL,"Study Phase2",4752,,,-1,-1,,,,1
5f26ad14db44f940a40c86dd,hog8wkfaf8,Nick_Dissertation_EX1,1,189,2020-10-24T12:21:29-07:00,7.9070851802826,1,versionA_stim.csv,READVersionA.csv,"Read Version A","Dissertation, read only version A",DINE,EAT,Study2,F,111,136,Study,User,-,,Study/JOL,"Study Phase2",7250,,,-1,-1,,,,1
5f26ad14db44f940a40c86dd,hog8wkfaf8,Nick_Dissertation_EX1,1,190,2020-10-24T12:21:48-07:00,19.420377969742,1,versionA_stim.csv,READVersionA.csv,"Read Version A","Dissertation, read only version A",ADJOURN,END,Study2,F,101,130,Study,User,-,,Study/JOL,"Study Phase2",17687,,,-1,-1,,,,1
5f26ad14db44f940a40c86dd,hog8wkfaf8,Nick_Dissertation_EX1,1,191,2020-10-24T12:22:21-07:00,32.473098039627,1,versionA_stim.csv,READVersionA.csv,"Read Version A","Dissertation, read only version A",TRUTH,LIE,Study2,S,148,150,Study,User,-,,Study/JOL,"Study Phase2",31743,,,-1,-1,,,,1
5f26ad14db44f940a40c86dd,hog8wkfaf8,Nick_Dissertation_EX1,1,192,2020-10-24T12:22:51-07:00,30.526553869247,1,versionA_stim.csv,READVersionA.csv,"Read Version A","Dissertation, read only version A",SAFETY,SEATBELT,Study2,S,147,153,Study,User,-,,Study/JOL,"Study Phase2",29595,,,-1,-1,,,,1
5f26ad14db44f940a40c86dd,hog8wkfaf8,Nick_Dissertation_EX1,1,193,2020-10-24T12:22:57-07:00,5.8371779918671,1,versionA_stim.csv,READVersionA.csv,"Read Version A","Dissertation, read only version A",NAME,HATE,Study2,U,167,175,Study,User,-,,Study/JOL,"Study Phase2",4985,,,-1,-1,,,,1
5f26ad14db44f940a40c86dd,hog8wkfaf8,Nick_Dissertation_EX1,1,194,2020-10-24T12:22:59-07:00,2.0849471092224,1,versionA_stim.csv,READVersionA.csv,"Read Version A","Dissertation, read only version A",ELEMENT,CARBON,Study2,S,141,111,Study,User,-,,Study/JOL,"Study Phase2",1384,,,-1,-1,,,,1
5f26ad14db44f940a40c86dd,hog8wkfaf8,Nick_Dissertation_EX1,1,195,2020-10-24T12:23:01-07:00,2.0811970233917,1,versionA_stim.csv,READVersionA.csv,"Read Version A","Dissertation, read only version A",HONEST,TRUTHFUL,Study2,B,133,117,Study,User,-,,Study/JOL,"Study Phase2",1400,,,-1,-1,,,,1
5f26ad14db44f940a40c86dd,hog8wkfaf8,Nick_Dissertation_EX1,1,196,2020-10-24T12:23:03-07:00,1.7993278503418,1,versionA_stim.csv,READVersionA.csv,"Read Version A","Dissertation, read only version A",FLEA,TICK,Study2,S,151,141,Study,User,-,,Study/JOL,"Study Phase2",1148,,,-1,-1,,,,1
5f26ad14db44f940a40c86dd,hog8wkfaf8,Nick_Dissertation_EX1,1,197,2020-10-24T12:23:06-07:00,3.0164079666138,1,versionA_stim.csv,READVersionA.csv,"Read Version A","Dissertation, read only version A",Shell,SHAKE,Study2,U,163,105,Study,User,-,,Study/JOL,"Study Phase2",2348,,,-1,-1,,,,1
5f26ad14db44f940a40c86dd,hog8wkfaf8,Nick_Dissertation_EX1,1,198,2020-10-24T12:23:17-07:00,10.383833169937,1,versionA_stim.csv,READVersionA.csv,"Read Version A","Dissertation, read only version A",STRETCH,CLOTH,Study2,U,157,157,Study,User,-,,Study/JOL,"Study Phase2",9694,,,-1,-1,,,,1
5f26ad14db44f940a40c86dd,hog8wkfaf8,Nick_Dissertation_EX1,1,199,2020-10-24T12:23:19-07:00,2.6598038673401,1,versionA_stim.csv,READVersionA.csv,"Read Version A","Dissertation, read only version A",CRACKLE,ABLE,Study2,U,162,168,Study,User,-,,Study/JOL,"Study Phase2",1931,,,-1,-1,,,,1
5f26ad14db44f940a40c86dd,hog8wkfaf8,Nick_Dissertation_EX1,1,200,2020-10-24T12:23:30-07:00,10.448003053665,1,versionA_stim.csv,READVersionA.csv,"Read Version A","Dissertation, read only version A",CAR,WINDSHIELD,Study2,B,117,131,Study,User,-,,Study/JOL,"Study Phase2",9763,,,-1,-1,,,,1
5f26ad14db44f940a40c86dd,hog8wkfaf8,Nick_Dissertation_EX1,1,201,2020-10-24T12:23:59-07:00,29.672386884689,1,versionA_stim.csv,READVersionA.csv,"Read Version A","Dissertation, read only version A",MAZE,ELECTION,Study2,U,159,114,Study,User,-,,Study/JOL,"Study Phase2",28960,,,-1,-1,,,,1
5f26ad14db44f940a40c86dd,hog8wkfaf8,Nick_Dissertation_EX1,1,202,2020-10-24T12:24:14-07:00,14.850924015045,1,versionA_stim.csv,READVersionA.csv,"Read Version A","Dissertation, read only version A",LOUD,NOISE,Study2,S,152,155,Study,User,-,,Study/JOL,"Study Phase2",14170,,,-1,-1,,,,1
5f26ad14db44f940a40c86dd,hog8wkfaf8,Nick_Dissertation_EX1,1,203,2020-10-24T12:24:30-07:00,15.550597190857,1,versionA_stim.csv,READVersionA.csv,"Read Version A","Dissertation, read only version A",GLASS,BREAKABLE,Study2,B,127,154,Study,User,-,,Study/JOL,"Study Phase2",14658,,,-1,-1,,,,1
5f26ad14db44f940a40c86dd,hog8wkfaf8,Nick_Dissertation_EX1,1,204,2020-10-24T12:24:40-07:00,9.9263579845428,1,versionA_stim.csv,READVersionA.csv,"Read Version A","Dissertation, read only version A",MONEY,BANKER,Study2,B,132,143,Study,User,-,,Study/JOL,"Study Phase2",9164,,,-1,-1,,,,1
5f26ad14db44f940a40c86dd,hog8wkfaf8,Nick_Dissertation_EX1,1,205,2020-10-24T12:24:43-07:00,2.8415808677673,1,versionA_stim.csv,READVersionA.csv,"Read Version A","Dissertation, read only version A",CLUE,GAME,Study2,F,97,127,Study,User,-,,Study/JOL,"Study Phase2",2140,,,-1,-1,,,,1
5f26ad14db44f940a40c86dd,hog8wkfaf8,Nick_Dissertation_EX1,1,206,2020-10-24T12:24:46-07:00,3.8461201190948,1,versionA_stim.csv,READVersionA.csv,"Read Version A","Dissertation, read only version A",LITTER,TRASH,Study2,F,103,106,Study,User,-,,Study/JOL,"Study Phase2",3143,,,-1,-1,,,,1
5f26ad14db44f940a40c86dd,hog8wkfaf8,Nick_Dissertation_EX1,1,207,2020-10-24T12:24:49-07:00,2.0508468151093,1,versionA_stim.csv,READVersionA.csv,"Read Version A","Dissertation, read only version A",FURRY,DOG,Study2,F,102,98,Study,User,-,,Study/JOL,"Study Phase2",1349,,,-1,-1,,,,1
5f26ad14db44f940a40c86dd,hog8wkfaf8,Nick_Dissertation_EX1,1,208,2020-10-24T12:24:51-07:00,2.1045451164246,1,versionA_stim.csv,READVersionA.csv,"Read Version A","Dissertation, read only version A",PLANE,AIRCRAFT,Study2,B,129,132,Study,User,-,,Study/JOL,"Study Phase2",1411,,,-1,-1,,,,1
5f26ad14db44f940a40c86dd,hog8wkfaf8,Nick_Dissertation_EX1,1,209,2020-10-24T12:24:54-07:00,3.6638200283051,1,versionA_stim.csv,READVersionA.csv,"Read Version A","Dissertation, read only version A",LISTEN,FICTION,Study2,U,164,123,Study,User,-,,Study/JOL,"Study Phase2",2974,,,-1,-1,,,,1
5f26ad14db44f940a40c86dd,hog8wkfaf8,Nick_Dissertation_EX1,1,210,2020-10-24T12:24:56-07:00,1.7959969043732,1,versionA_stim.csv,READVersionA.csv,"Read Version A","Dissertation, read only version A",CHERRY,RED,Study2,F,104,109,Study,User,-,,Study/JOL,"Study Phase2",1115,,,-1,-1,,,,1
5f26ad14db44f940a40c86dd,hog8wkfaf8,Nick_Dissertation_EX1,1,211,2020-10-24T12:25:16-07:00,20.200921058655,1,versionA_stim.csv,READVersionA.csv,"Read Version A","Dissertation, read only version A",FIGHT,BRAWL,Study2,B,135,133,Study,User,-,,Study/JOL,"Study Phase2",19489,,,-1,-1,,,,1
5f26ad14db44f940a40c86dd,hog8wkfaf8,Nick_Dissertation_EX1,1,212,2020-10-24T12:25:24-07:00,7.8868401050568,1,versionA_stim.csv,READVersionA.csv,"Read Version A","Dissertation, read only version A",EARTH,GROUND,Study2,S,144,162,Study,User,-,,Study/JOL,"Study Phase2",7159,,,-1,-1,,,,1
5f26ad14db44f940a40c86dd,hog8wkfaf8,Nick_Dissertation_EX1,1,213,2020-10-24T12:25:27-07:00,2.5154078006744,1,versionA_stim.csv,READVersionA.csv,"Read Version A","Dissertation, read only version A",GIVE,STEAK,Study2,U,158,118,Study,User,-,,Study/JOL,"Study Phase2",1807,,,-1,-1,,,,1
5f26ad14db44f940a40c86dd,hog8wkfaf8,Nick_Dissertation_EX1,1,214,2020-10-24T12:25:36-07:00,9.6087291240692,1,versionA_stim.csv,READVersionA.csv,"Read Version A","Dissertation, read only version A",DOCUMENT,PAPER,Study2,F,109,171,Study,User,-,,Study/JOL,"Study Phase2",8906,,,-1,-1,,,,1
5f26ad14db44f940a40c86dd,hog8wkfaf8,Nick_Dissertation_EX1,1,215,2020-10-24T12:25:39-07:00,3.0108649730682,1,versionA_stim.csv,READVersionA.csv,"Read Version A","Dissertation, read only version A",INCENSE,SMELL,Study2,F,110,99,Study,User,-,,Study/JOL,"Study Phase2",2192,,,-1,-1,,,,1
5f26ad14db44f940a40c86dd,hog8wkfaf8,Nick_Dissertation_EX1,1,216,2020-10-24T12:25:41-07:00,1.6927540302277,1,versionA_stim.csv,READVersionA.csv,"Read Version A","Dissertation, read only version A",DRY,WET,Study2,S,146,163,Study,User,-,,Study/JOL,"Study Phase2",989,,,-1,-1,,,,1
5f26ad14db44f940a40c86dd,hog8wkfaf8,Nick_Dissertation_EX1,1,217,2020-10-24T12:25:43-07:00,2.033961057663,1,versionA_stim.csv,READVersionA.csv,"Read Version A","Dissertation, read only version A",RIGHTS,EQUAL,Study2,S,137,104,Study,User,-,,Study/JOL,"Study Phase2",1337,,,-1,-1,,,,1
5f26ad14db44f940a40c86dd,hog8wkfaf8,Nick_Dissertation_EX1,1,218,2020-10-24T12:25:58-07:00,14.82816696167,1,versionA_stim.csv,READVersionA.csv,"Read Version A","Dissertation, read only version A",DETECTIVE,MYSTERY,Study2,F,100,164,Study,User,-,,Study/JOL,"Study Phase2",14116,,,-1,-1,,,,1
5f26ad14db44f940a40c86dd,hog8wkfaf8,Nick_Dissertation_EX1,1,219,2020-10-24T12:26:07-07:00,9.3765349388123,1,versionA_stim.csv,READVersionA.csv,"Read Version A","Dissertation, read only version A",MASON,JAR,Study2,S,138,100,Study,User,-,,Study/JOL,"Study Phase2",8640,,,-1,-1,,,,1
5f26ad14db44f940a40c86dd,hog8wkfaf8,Nick_Dissertation_EX1,1,220,2020-10-24T12:26:14-07:00,6.3058099746704,1,versionA_stim.csv,READVersionA.csv,"Read Version A","Dissertation, read only version A",SCALP,HEAD,Study2,F,105,119,Study,User,-,,Study/JOL,"Study Phase2",5588,,,-1,-1,,,,1
5f26ad14db44f940a40c86dd,hog8wkfaf8,Nick_Dissertation_EX1,1,221,2020-10-24T12:26:16-07:00,2.9327590465546,1,versionA_stim.csv,READVersionA.csv,"Read Version A","Dissertation, read only version A",THREAD,THIMBLE,Study2,B,121,174,Study,User,-,,Study/JOL,"Study Phase2",2139,,,-1,-1,,,,1
5f26ad14db44f940a40c86dd,hog8wkfaf8,Nick_Dissertation_EX1,1,222,2020-10-24T12:26:19-07:00,2.2031209468842,1,versionA_stim.csv,READVersionA.csv,"Read Version A","Dissertation, read only version A",WATER,DRINK,Study2,S,143,113,Study,User,-,,Study/JOL,"Study Phase2",1415,,,-1,-1,,,,1
5f26ad14db44f940a40c86dd,hog8wkfaf8,Nick_Dissertation_EX1,1,223,2020-10-24T12:26:23-07:00,4.3291249275208,1,versionA_stim.csv,READVersionA.csv,"Read Version A","Dissertation, read only version A",FUZZY,BANG,Study2,U,168,146,Study,User,-,,Study/JOL,"Study Phase2",3566,,,-1,-1,,,,1
5f26ad14db44f940a40c86dd,hog8wkfaf8,Nick_Dissertation_EX1,1,224,2020-10-24T12:26:27-07:00,3.6132700443268,1,versionA_stim.csv,READVersionA.csv,"Read Version A","Dissertation, read only version A",STAR,ACTRESS,Study2,B,120,102,Study,User,-,,Study/JOL,"Study Phase2",2836,,,-1,-1,,,,1
5f26ad14db44f940a40c86dd,hog8wkfaf8,Nick_Dissertation_EX1,1,225,2020-10-24T12:26:29-07:00,2.2708261013031,1,versionA_stim.csv,READVersionA.csv,"Read Version A","Dissertation, read only version A",MULE,DONKEY,Study2,F,108,115,Study,User,-,,Study/JOL,"Study Phase2",1531,,,-1,-1,,,,1
5f26ad14db44f940a40c86dd,hog8wkfaf8,Nick_Dissertation_EX1,1,226,2020-10-24T12:26:39-07:00,9.7527470588684,1,versionA_stim.csv,READVersionA.csv,"Read Version A","Dissertation, read only version A",CAKE,CLOTHES,Study2,U,166,121,Study,User,-,,Study/JOL,"Study Phase2",8982,,,-1,-1,,,,0.862
5f26ad14db44f940a40c86dd,hog8wkfaf8,Nick_Dissertation_EX1,1,227,2020-10-24T12:26:44-07:00,5.2849638462067,1,versionA_stim.csv,READVersionA.csv,"Read Version A","Dissertation, read only version A",VEHICLE,CHARM,Study2,U,160,173,Study,User,-,,Study/JOL,"Study Phase2",4576,,,-1,-1,,,,1
5f26ad14db44f940a40c86dd,hog8wkfaf8,Nick_Dissertation_EX1,1,228,2020-10-24T12:26:53-07:00,9.2960350513458,1,versionA_stim.csv,READVersionA.csv,"Read Version A","Dissertation, read only version A",BIRD,PENGUIN,Study2,B,119,124,Study,User,-,,Study/JOL,"Study Phase2",8503,,,-1,-1,,,,1
5f26ad14db44f940a40c86dd,hog8wkfaf8,Nick_Dissertation_EX1,1,229,2020-10-24T12:27:00-07:00,6.6285760402679,1,versionA_stim.csv,READVersionA.csv,"Read Version A","Dissertation, read only version A",DRIVER,CAR,Study2,F,106,134,Study,User,-,,Study/JOL,"Study Phase2",5841,,,-1,-1,,,,1
5f26ad14db44f940a40c86dd,hog8wkfaf8,Nick_Dissertation_EX1,1,230,2020-10-24T12:27:03-07:00,2.7179548740387,1,versionA_stim.csv,READVersionA.csv,"Read Version A","Dissertation, read only version A",CAT,PANTHER,Study2,B,126,149,Study,User,-,,Study/JOL,"Study Phase2",2001,,,-1,-1,,,,1
5f26ad14db44f940a40c86dd,hog8wkfaf8,Nick_Dissertation_EX1,1,231,2020-10-24T12:27:11-07:00,8.073634147644,1,versionA_stim.csv,READVersionA.csv,"Read Version A","Dissertation, read only version A",TURN,FLIP,Study2,B,116,166,Study,User,-,,Study/JOL,"Study Phase2",7289,,,-1,-1,,,,1
5f26ad14db44f940a40c86dd,hog8wkfaf8,Nick_Dissertation_EX1,1,232,2020-10-24T12:27:13-07:00,2.6059398651123,1,versionA_stim.csv,READVersionA.csv,"Read Version A","Dissertation, read only version A",KEYS,JOKE,Study2,U,165,151,Study,User,-,,Study/JOL,"Study Phase2",1864,,,-1,-1,,,,1
5f26ad14db44f940a40c86dd,hog8wkfaf8,Nick_Dissertation_EX1,1,233,2020-10-24T12:27:17-07:00,4.2223811149597,1,versionA_stim.csv,READVersionA.csv,"Read Version A","Dissertation, read only version A",MAIN,SCAR,Study2,U,175,159,Study,User,-,,Study/JOL,"Study Phase2",3444,,,-1,-1,,,,1
5f26ad14db44f940a40c86dd,hog8wkfaf8,Nick_Dissertation_EX1,1,234,2020-10-24T12:27:32-07:00,14.131813049316,1,versionA_stim.csv,READVersionA.csv,"Read Version A","Dissertation, read only version A",BASEBALL,LEAGUE,Study2,B,131,138,Study,User,-,,Study/JOL,"Study Phase2",13344,,,-1,-1,,,,1
5f26ad14db44f940a40c86dd,hog8wkfaf8,Nick_Dissertation_EX1,1,235,2020-10-24T12:27:47-07:00,15.221032857895,1,versionA_stim.csv,READVersionA.csv,"Read Version A","Dissertation, read only version A",JUSTICE,MAROON,Study2,U,156,160,Study,User,-,,Study/JOL,"Study Phase2",14228,,,-1,-1,,,,1
5f26ad14db44f940a40c86dd,hog8wkfaf8,Nick_Dissertation_EX1,1,236,2020-10-24T12:27:56-07:00,9.4616141319275,1,versionA_stim.csv,READVersionA.csv,"Read Version A","Dissertation, read only version A",WRIST,BRACELET,Study2,S,140,116,Study,User,-,,Study/JOL,"Study Phase2",8445,,,-1,-1,,,,1
5f26ad14db44f940a40c86dd,hog8wkfaf8,Nick_Dissertation_EX1,1,237,2020-10-24T12:28:17-07:00,20.582456827164,1,versionA_stim.csv,READVersionA.csv,"Read Version A","Dissertation, read only version A",SHOELACE,TIE,Study2,F,99,129,Study,User,-,,Study/JOL,"Study Phase2",19752,,,-1,-1,,,,1
5f26ad14db44f940a40c86dd,hog8wkfaf8,Nick_Dissertation_EX1,1,238,2020-10-24T12:28:27-07:00,10.501013994217,1,versionA_stim.csv,READVersionA.csv,"Read Version A","Dissertation, read only version A",PHONE,COMMUNICATION,Study2,S,149,128,Study,User,-,,Study/JOL,"Study Phase2",9502,,,-1,-1,,,,1
5f26ad14db44f940a40c86dd,hog8wkfaf8,Nick_Dissertation_EX1,1,239,2020-10-24T12:28:34-07:00,6.9731731414795,1,versionA_stim.csv,READVersionA.csv,"Read Version A","Dissertation, read only version A",POP,BALLOON,Study2,B,123,120,Study,User,-,,Study/JOL,"Study Phase2",6096,,,-1,-1,,,,1
5f26ad14db44f940a40c86dd,hog8wkfaf8,Nick_Dissertation_EX1,1,240,2020-10-24T12:28:37-07:00,2.2037870883942,1,versionA_stim.csv,READVersionA.csv,"Read Version A","Dissertation, read only version A",ALONE,LONELY,Study2,S,145,112,Study,User,-,,Study/JOL,"Study Phase2",1423,,,-1,-1,,,,1
5f26ad14db44f940a40c86dd,hog8wkfaf8,Nick_Dissertation_EX1,1,241,2020-10-24T12:28:39-07:00,2.0500218868256,1,versionA_stim.csv,READVersionA.csv,"Read Version A","Dissertation, read only version A",CACTUS,PLANT,Study2,F,98,152,Study,User,-,,Study/JOL,"Study Phase2",1325,,,-1,-1,,,,1
5f26ad14db44f940a40c86dd,hog8wkfaf8,Nick_Dissertation_EX1,1,242,2020-10-24T12:28:42-07:00,3.0339150428772,1,versionA_stim.csv,READVersionA.csv,"Read Version A","Dissertation, read only version A",EXTENSION,LONG,Study2,F,96,107,Study,User,-,,Study/JOL,"Study Phase2",2250,,,-1,-1,,,,1
5f26ad14db44f940a40c86dd,hog8wkfaf8,Nick_Dissertation_EX1,1,243,2020-10-24T12:28:44-07:00,2.7947189807892,1,versionA_stim.csv,READVersionA.csv,"Read Version A","Dissertation, read only version A",BOTH,OUNCE,Study2,U,172,140,Study,User,-,,Study/JOL,"Study Phase2",2082,,,-1,-1,,,,1
5f26ad14db44f940a40c86dd,hog8wkfaf8,Nick_Dissertation_EX1,1,244,2020-10-24T12:28:47-07:00,2.1180899143219,1,versionA_stim.csv,READVersionA.csv,"Read Version A","Dissertation, read only version A",CANDLE,WAX,Study2,S,139,126,Study,User,-,,Study/JOL,"Study Phase2",1401,,,-1,-1,,,,1
5f26ad14db44f940a40c86dd,hog8wkfaf8,Nick_Dissertation_EX1,1,245,2020-10-24T12:29:01-07:00,13.988419055939,1,versionA_stim.csv,READVersionA.csv,"Read Version A","Dissertation, read only version A",TEMPERATURE,Morning,Study2,U,173,158,Study,User,-,,Study/JOL,"Study Phase2",13210,,,-1,-1,,,,1
5f26ad14db44f940a40c86dd,hog8wkfaf8,Nick_Dissertation_EX1,1,246,2020-10-24T12:29:09-07:00,8.5552430152893,1,versionA_stim.csv,READVersionA.csv,"Read Version A","Dissertation, read only version A",GONE,AWAY,Study2,S,142,110,Study,User,-,,Study/JOL,"Study Phase2",6722,,,-1,-1,,,,1
5f26ad14db44f940a40c86dd,hog8wkfaf8,Nick_Dissertation_EX1,1,247,2020-10-24T12:29:15-07:00,6.2538828849792,1,versionA_stim.csv,READVersionA.csv,"Read Version A","Dissertation, read only version A",SLEEP,NAP,Study2,B,134,169,Study,User,-,,Study/JOL,"Study Phase2",5498,,,-1,-1,,,,1
5f26ad14db44f940a40c86dd,hog8wkfaf8,Nick_Dissertation_EX1,1,248,2020-10-24T12:29:18-07:00,2.5889060497284,1,versionA_stim.csv,READVersionA.csv,"Read Version A","Dissertation, read only version A",MIRROR,CHILDREN,Study2,U,174,103,Study,User,-,,Study/JOL,"Study Phase2",1831,,,-1,-1,,,,1
5f26ad14db44f940a40c86dd,hog8wkfaf8,Nick_Dissertation_EX1,1,249,2020-10-24T12:29:20-07:00,2.0831730365753,1,versionA_stim.csv,READVersionA.csv,"Read Version A","Dissertation, read only version A",LEASE,TOIL,Study2,U,170,156,Study,User,-,,Study/JOL,"Study Phase2",1258,,,-1,-1,,,,1
5f26ad14db44f940a40c86dd,hog8wkfaf8,Nick_Dissertation_EX1,1,250,2020-10-24T12:29:29-07:00,8.706670999527,1,versionA_stim.csv,READVersionA.csv,"Read Version A","Dissertation, read only version A",FRUIT,STRAWBERRY,Study2,B,124,148,Study,User,-,,Study/JOL,"Study Phase2",7983,,,-1,-1,,,,1
5f26ad14db44f940a40c86dd,hog8wkfaf8,Nick_Dissertation_EX1,1,251,2020-10-24T12:29:31-07:00,2.0615401268005,1,versionA_stim.csv,READVersionA.csv,"Read Version A","Dissertation, read only version A",MEAT,OBTAIN,Study2,U,161,125,Study,User,-,,Study/JOL,"Study Phase2",1234,,,-1,-1,,,,1
5f26ad14db44f940a40c86dd,hog8wkfaf8,Nick_Dissertation_EX1,1,252,2020-10-24T12:29:39-07:00,8.2781879901886,1,versionA_stim.csv,READVersionA.csv,"Read Version A","Dissertation, read only version A",DEAD,COFFIN,Study2,B,128,135,Study,User,-,,Study/JOL,"Study Phase2",7542,,,-1,-1,,,,1
5f26ad14db44f940a40c86dd,hog8wkfaf8,Nick_Dissertation_EX1,1,253,2020-10-24T12:29:42-07:00,2.4212779998779,1,versionA_stim.csv,READVersionA.csv,"Read Version A","Dissertation, read only version A",CHOP,CUT,Study2,F,107,145,Study,User,-,,Study/JOL,"Study Phase2",1560,,,-1,-1,,,,1
5f26ad14db44f940a40c86dd,hog8wkfaf8,Nick_Dissertation_EX1,1,254,2020-10-24T12:29:44-07:00,2.0748808383942,1,versionA_stim.csv,READVersionA.csv,"Read Version A","Dissertation, read only version A",BEST,FAVORITE,Study2,B,125,108,Study,User,-,,Study/JOL,"Study Phase2",1357,,,-1,-1,,,,1
5f26ad14db44f940a40c86dd,hog8wkfaf8,Nick_Dissertation_EX1,1,255,2020-10-24T12:29:46-07:00,2.035737991333,1,versionA_stim.csv,READVersionA.csv,"Read Version A","Dissertation, read only version A",FEUD,FIGHT,Study2,F,113,137,Study,User,-,,Study/JOL,"Study Phase2",1302,,,-1,-1,,,,1
5f26ad14db44f940a40c86dd,hog8wkfaf8,Nick_Dissertation_EX1,1,256,2020-10-24T12:29:48-07:00,2.2585120201111,1,versionA_stim.csv,READVersionA.csv,"Read Version A","Dissertation, read only version A",CHILL,COLD,Study2,F,114,170,Study,User,-,,Study/JOL,"Study Phase2",1317,,,-1,-1,,,,1
5f26ad14db44f940a40c86dd,hog8wkfaf8,Nick_Dissertation_EX1,1,257,2020-10-24T12:29:50-07:00,2.4879970550537,1,versionA_stim.csv,READVersionA.csv,"Read Version A","Dissertation, read only version A",MOAT,CLEAR,Study2,U,169,167,Study,User,-,,Study/JOL,"Study Phase2",1625,,,-1,-1,,,,1
5f26ad14db44f940a40c86dd,hog8wkfaf8,Nick_Dissertation_EX1,1,258,2020-10-24T12:29:58-07:00,7.4706799983978,1,versionA_stim.csv,READVersionA.csv,"Read Version A","Dissertation, read only version A",FISH,SARDINE,Study2,B,130,147,Study,User,-,,Study/JOL,"Study Phase2",6733,,,-1,-1,,,,1
5f26ad14db44f940a40c86dd,hog8wkfaf8,Nick_Dissertation_EX1,1,259,2020-10-24T12:30:01-07:00,3.2832989692688,1,versionA_stim.csv,READVersionA.csv,"Read Version A","Dissertation, read only version A",SHEARS,SCISSORS,Study2,F,112,139,Study,User,-,,Study/JOL,"Study Phase2",2428,,,-1,-1,,,,1
5f26ad14db44f940a40c86dd,hog8wkfaf8,Nick_Dissertation_EX1,1,260,2020-10-24T12:30:24-07:00,22.71795797348,1,versionA_stim.csv,READVersionA.csv,"Read Version A","Dissertation, read only version A",EVEN,REVENGE,Study2,B,122,144,Study,User,-,,Study/JOL,"Study Phase2",21845,,,-1,-1,,,,1
5f26ad14db44f940a40c86dd,hog8wkfaf8,Nick_Dissertation_EX1,1,261,2020-10-24T12:30:31-07:00,7.6103720664978,1,versionA_stim.csv,READVersionA.csv,"Read Version A","Dissertation, read only version A",OCTOBER,SPOOKY,BUFFER4,Buffer,180,180,Study,User,-,,Study/JOL,BUFFER4,6739,,,-1,-1,,,,1
5f26ad14db44f940a40c86dd,hog8wkfaf8,Nick_Dissertation_EX1,1,262,2020-10-24T12:30:35-07:00,3.2196609973907,1,versionA_stim.csv,READVersionA.csv,"Read Version A","Dissertation, read only version A",TOOL,SHED,BUFFER4,Buffer,178,177,Study,User,-,,Study/JOL,BUFFER4,2442,,,-1,-1,,,,1
5f26ad14db44f940a40c86dd,hog8wkfaf8,Nick_Dissertation_EX1,1,263,2020-10-24T12:30:38-07:00,3.2694020271301,1,versionA_stim.csv,READVersionA.csv,"Read Version A","Dissertation, read only version A",MONTH,YEAR,BUFFER4,Buffer,177,181,Study,User,-,,Study/JOL,BUFFER4,2537,,,-1,-1,,,,1
5f26ad14db44f940a40c86dd,hog8wkfaf8,Nick_Dissertation_EX1,1,264,2020-10-24T12:30:42-07:00,3.6497650146484,1,versionA_stim.csv,READVersionA.csv,"Read Version A","Dissertation, read only version A",DAYS,WEAKS,BUFFER4,Buffer,176,178,Study,User,-,,Study/JOL,BUFFER4,2849,,,-1,-1,,,,1
5f26ad14db44f940a40c86dd,hog8wkfaf8,Nick_Dissertation_EX1,1,265,2020-10-24T12:30:50-07:00,8.2809519767761,1,versionA_stim.csv,READVersionA.csv,"Read Version A","Dissertation, read only version A",SPRING,MARCH,BUFFER4,Buffer,179,179,Study,User,-,,Study/JOL,BUFFER4,7461,,,-1,-1,,,,1
5f26ad14db44f940a40c86dd,hog8wkfaf8,Nick_Dissertation_EX1,1,266,2020-10-24T12:30:52-07:00,2.5674378871918,1,versionA_stim.csv,READVersionA.csv,"Read Version A","Dissertation, read only version A",,,,,,0,Instruct,User,-,"You have completed this section. Please press Enter.",Filler_Instruction,Instruct5,1804,,,-1,-1,,,,1
5f26ad14db44f940a40c86dd,hog8wkfaf8,Nick_Dissertation_EX1,1,267,2020-10-24T12:32:53-07:00,120.89008712769,1,versionA_stim.csv,READVersionA.csv,"Read Version A","Dissertation, read only version A",,,,,,0,FreeRecall,120,120,"Please list the 50 US states in reverse alphabetical order (z - a). The task will automatically advance to the next screen after two minutes.",,Filler2,120005,"South Dakota South Carolina Pennsylvania North Dakota North Carolina Mississippi ",0,24830,117222,0,0,,1
5f26ad14db44f940a40c86dd,hog8wkfaf8,Nick_Dissertation_EX1,1,268,2020-10-24T12:33:09-07:00,15.77917599678,1,versionA_stim.csv,READVersionA.csv,"Read Version A","Dissertation, read only version A",,,,,,0,Instruct,-,10,"You will now be presented with the first word from each of the previously studied item pairs. Please type the missing word. If you do not know the word, you may guess or press Enter to skip forward to the next pair.",,Instruct6,14724,,,-1,-1,,,,1
5f26ad14db44f940a40c86dd,hog8wkfaf8,Nick_Dissertation_EX1,1,269,2020-10-24T12:33:24-07:00,14.827190876007,1,versionA_stim.csv,READVersionA.csv,"Read Version A","Dissertation, read only version A",TANTRUM,TEMPER,Study2,S,154,161,Test,User,-,,Recall,Recall2,13954,temper,100,10410,11934,1,1,,1
5f26ad14db44f940a40c86dd,hog8wkfaf8,Nick_Dissertation_EX1,1,270,2020-10-24T12:33:35-07:00,10.795855998993,1,versionA_stim.csv,READVersionA.csv,"Read Version A","Dissertation, read only version A",ROD,REEL,Study2,S,150,165,Test,User,-,,Recall,Recall2,10027,reel,100,2786,8424,1,1,,1
5f26ad14db44f940a40c86dd,hog8wkfaf8,Nick_Dissertation_EX1,1,271,2020-10-24T12:33:43-07:00,7.8858270645142,1,versionA_stim.csv,READVersionA.csv,"Read Version A","Dissertation, read only version A",KEYS,JOKE,Study2,U,165,151,Test,User,-,,Recall,Recall2,7109,,0,-1,-1,0,0,,1
5f26ad14db44f940a40c86dd,hog8wkfaf8,Nick_Dissertation_EX1,1,272,2020-10-24T12:33:51-07:00,7.9809579849243,1,versionA_stim.csv,READVersionA.csv,"Read Version A","Dissertation, read only version A",BIRD,PENGUIN,Study2,B,119,124,Test,User,-,,Recall,Recall2,7196,penguin,100,4170,6290,1,1,,1
5f26ad14db44f940a40c86dd,hog8wkfaf8,Nick_Dissertation_EX1,1,273,2020-10-24T12:33:55-07:00,4.3944261074066,1,versionA_stim.csv,READVersionA.csv,"Read Version A","Dissertation, read only version A",ELEMENT,CARBON,Study2,S,141,111,Test,User,-,,Recall,Recall2,3631,carbon,100,1401,2670,1,1,,1
5f26ad14db44f940a40c86dd,hog8wkfaf8,Nick_Dissertation_EX1,1,274,2020-10-24T12:33:58-07:00,3.2979559898376,1,versionA_stim.csv,READVersionA.csv,"Read Version A","Dissertation, read only version A",MULE,DONKEY,Study2,F,108,115,Test,User,-,,Recall,Recall2,2429,,0,-1,-1,0,0,,1
5f26ad14db44f940a40c86dd,hog8wkfaf8,Nick_Dissertation_EX1,1,275,2020-10-24T12:34:08-07:00,9.346825838089,1,versionA_stim.csv,READVersionA.csv,"Read Version A","Dissertation, read only version A",GIVE,STEAK,Study2,U,158,118,Test,User,-,,Recall,Recall2,8370,away,22.222222222222,1482,2121,0,0,,1
5f26ad14db44f940a40c86dd,hog8wkfaf8,Nick_Dissertation_EX1,1,276,2020-10-24T12:34:14-07:00,6.8494281768799,1,versionA_stim.csv,READVersionA.csv,"Read Version A","Dissertation, read only version A",CHOP,CUT,Study2,F,107,145,Test,User,-,,Recall,Recall2,5990,cut,100,1869,3672,1,1,,1
5f26ad14db44f940a40c86dd,hog8wkfaf8,Nick_Dissertation_EX1,1,277,2020-10-24T12:34:20-07:00,5.022383928299,1,versionA_stim.csv,READVersionA.csv,"Read Version A","Dissertation, read only version A",EARTH,GROUND,Study2,S,144,162,Test,User,-,,Recall,Recall2,4222,ground,100,1478,2831,1,1,,1
5f26ad14db44f940a40c86dd,hog8wkfaf8,Nick_Dissertation_EX1,1,278,2020-10-24T12:34:26-07:00,6.6098740100861,1,versionA_stim.csv,READVersionA.csv,"Read Version A","Dissertation, read only version A",WRIST,BRACELET,Study2,S,140,116,Test,User,-,,Recall,Recall2,5830,bracelet,100,1874,4274,1,1,,1
5f26ad14db44f940a40c86dd,hog8wkfaf8,Nick_Dissertation_EX1,1,279,2020-10-24T12:34:37-07:00,10.708263874054,1,versionA_stim.csv,READVersionA.csv,"Read Version A","Dissertation, read only version A",LITTER,TRASH,Study2,F,103,106,Test,User,-,,Recall,Recall2,9847,trash,100,1706,2329,1,1,,1
5f26ad14db44f940a40c86dd,hog8wkfaf8,Nick_Dissertation_EX1,1,280,2020-10-24T12:34:52-07:00,15.126391172409,1,versionA_stim.csv,READVersionA.csv,"Read Version A","Dissertation, read only version A",DOCUMENT,PAPER,Study2,F,109,171,Test,User,-,,Recall,Recall2,14258,paper,100,9456,12461,1,1,,1
5f26ad14db44f940a40c86dd,hog8wkfaf8,Nick_Dissertation_EX1,1,281,2020-10-24T12:34:57-07:00,4.9368808269501,1,versionA_stim.csv,READVersionA.csv,"Read Version A","Dissertation, read only version A",CHILL,COLD,Study2,F,114,170,Test,User,-,,Recall,Recall2,4065,cold,100,2239,2617,1,1,,1
5f26ad14db44f940a40c86dd,hog8wkfaf8,Nick_Dissertation_EX1,1,282,2020-10-24T12:35:00-07:00,3.0506892204285,1,versionA_stim.csv,READVersionA.csv,"Read Version A","Dissertation, read only version A",MEAT,OBTAIN,Study2,U,161,125,Test,User,-,,Recall,Recall2,2182,,0,-1,-1,0,0,,1
5f26ad14db44f940a40c86dd,hog8wkfaf8,Nick_Dissertation_EX1,1,283,2020-10-24T12:35:10-07:00,10.055397987366,1,versionA_stim.csv,READVersionA.csv,"Read Version A","Dissertation, read only version A",DEAD,COFFIN,Study2,B,128,135,Test,User,-,,Recall,Recall2,9223,coffin,100,7161,7931,1,1,,1
5f26ad14db44f940a40c86dd,hog8wkfaf8,Nick_Dissertation_EX1,1,284,2020-10-24T12:35:20-07:00,10.263877868652,1,versionA_stim.csv,READVersionA.csv,"Read Version A","Dissertation, read only version A",JUSTICE,MAROON,Study2,U,156,160,Test,User,-,,Recall,Recall2,9394,police,16.666666666667,6818,7915,0,0,,1
5f26ad14db44f940a40c86dd,hog8wkfaf8,Nick_Dissertation_EX1,1,285,2020-10-24T12:35:25-07:00,4.6842200756073,1,versionA_stim.csv,READVersionA.csv,"Read Version A","Dissertation, read only version A",SCALP,HEAD,Study2,F,105,119,Test,User,-,,Recall,Recall2,3810,head,100,1912,2353,1,1,,1
5f26ad14db44f940a40c86dd,hog8wkfaf8,Nick_Dissertation_EX1,1,286,2020-10-24T12:35:32-07:00,7.4448690414429,1,versionA_stim.csv,READVersionA.csv,"Read Version A","Dissertation, read only version A",ADJOURN,END,Study2,F,101,130,Test,User,-,,Recall,Recall2,6657,,0,-1,-1,0,0,,1
5f26ad14db44f940a40c86dd,hog8wkfaf8,Nick_Dissertation_EX1,1,287,2020-10-24T12:35:38-07:00,5.4488198757172,1,versionA_stim.csv,READVersionA.csv,"Read Version A","Dissertation, read only version A",TEMPERATURE,Morning,Study2,U,173,158,Test,User,-,,Recall,Recall2,4589,morning,100,1955,3202,1,1,,1
5f26ad14db44f940a40c86dd,hog8wkfaf8,Nick_Dissertation_EX1,1,288,2020-10-24T12:35:43-07:00,5.132355928421,1,versionA_stim.csv,READVersionA.csv,"Read Version A","Dissertation, read only version A",FEUD,FIGHT,Study2,F,113,137,Test,User,-,,Recall,Recall2,4332,fight,100,1742,2243,1,1,,1
5f26ad14db44f940a40c86dd,hog8wkfaf8,Nick_Dissertation_EX1,1,289,2020-10-24T12:35:50-07:00,7.5355951786041,1,versionA_stim.csv,READVersionA.csv,"Read Version A","Dissertation, read only version A",TURN,FLIP,Study2,B,116,166,Test,User,-,,Recall,Recall2,6682,flip,100,5028,5497,1,1,,1
5f26ad14db44f940a40c86dd,hog8wkfaf8,Nick_Dissertation_EX1,1,290,2020-10-24T12:35:56-07:00,5.0095529556274,1,versionA_stim.csv,READVersionA.csv,"Read Version A","Dissertation, read only version A",THREAD,THIMBLE,Study2,B,121,174,Test,User,-,,Recall,Recall2,4139,string,30.769230769231,1634,2460,0,0,,1
5f26ad14db44f940a40c86dd,hog8wkfaf8,Nick_Dissertation_EX1,1,291,2020-10-24T12:36:07-07:00,11.053615093231,1,versionA_stim.csv,READVersionA.csv,"Read Version A","Dissertation, read only version A",BASEBALL,LEAGUE,Study2,B,131,138,Test,User,-,,Recall,Recall2,10165,league,100,3738,8369,1,1,,1
5f26ad14db44f940a40c86dd,hog8wkfaf8,Nick_Dissertation_EX1,1,292,2020-10-24T12:36:09-07:00,2.5775499343872,1,versionA_stim.csv,READVersionA.csv,"Read Version A","Dissertation, read only version A",CRACKLE,ABLE,Study2,U,162,168,Test,User,-,,Recall,Recall2,1729,,0,-1,-1,0,0,,1
5f26ad14db44f940a40c86dd,hog8wkfaf8,Nick_Dissertation_EX1,1,293,2020-10-24T12:36:21-07:00,11.945724010468,1,versionA_stim.csv,READVersionA.csv,"Read Version A","Dissertation, read only version A",PLANE,AIRCRAFT,Study2,B,129,132,Test,User,-,,Recall,Recall2,11077,aircraft,100,1853,3428,1,1,,1
5f26ad14db44f940a40c86dd,hog8wkfaf8,Nick_Dissertation_EX1,1,294,2020-10-24T12:36:24-07:00,2.6555428504944,1,versionA_stim.csv,READVersionA.csv,"Read Version A","Dissertation, read only version A",Shell,SHAKE,Study2,U,163,105,Test,User,-,,Recall,Recall2,1845,,0,-1,-1,0,0,,1
5f26ad14db44f940a40c86dd,hog8wkfaf8,Nick_Dissertation_EX1,1,295,2020-10-24T12:36:33-07:00,9.7506070137024,1,versionA_stim.csv,READVersionA.csv,"Read Version A","Dissertation, read only version A",LISTEN,FICTION,Study2,U,164,123,Test,User,-,,Recall,Recall2,7894,,0,-1,-1,0,0,,1
5f26ad14db44f940a40c86dd,hog8wkfaf8,Nick_Dissertation_EX1,1,296,2020-10-24T12:36:38-07:00,4.875764131546,1,versionA_stim.csv,READVersionA.csv,"Read Version A","Dissertation, read only version A",DRIVER,CAR,Study2,F,106,134,Test,User,-,,Recall,Recall2,4090,car,100,1646,1968,1,1,,1
5f26ad14db44f940a40c86dd,hog8wkfaf8,Nick_Dissertation_EX1,1,297,2020-10-24T12:36:46-07:00,7.2609479427338,1,versionA_stim.csv,READVersionA.csv,"Read Version A","Dissertation, read only version A",DETECTIVE,MYSTERY,Study2,F,100,164,Test,User,-,,Recall,Recall2,6372,mystery,100,2478,4358,1,1,,1
5f26ad14db44f940a40c86dd,hog8wkfaf8,Nick_Dissertation_EX1,1,298,2020-10-24T12:36:58-07:00,11.918072938919,1,versionA_stim.csv,READVersionA.csv,"Read Version A","Dissertation, read only version A",FLEA,TICK,Study2,S,151,141,Test,User,-,,Recall,Recall2,10985,bug,0,9328,9689,0,0,,1
5f26ad14db44f940a40c86dd,hog8wkfaf8,Nick_Dissertation_EX1,1,299,2020-10-24T12:37:02-07:00,4.3288781642914,1,versionA_stim.csv,READVersionA.csv,"Read Version A","Dissertation, read only version A",FURRY,DOG,Study2,F,102,98,Test,User,-,,Recall,Recall2,3440,dog,100,1736,1986,1,1,,1
5f26ad14db44f940a40c86dd,hog8wkfaf8,Nick_Dissertation_EX1,1,300,2020-10-24T12:37:09-07:00,6.7241959571838,1,versionA_stim.csv,READVersionA.csv,"Read Version A","Dissertation, read only version A",POP,BALLOON,Study2,B,123,120,Test,User,-,,Recall,Recall2,5705,star,18.181818181818,2979,3378,0,0,,1
5f26ad14db44f940a40c86dd,hog8wkfaf8,Nick_Dissertation_EX1,1,301,2020-10-24T12:37:21-07:00,12.55068898201,1,versionA_stim.csv,READVersionA.csv,"Read Version A","Dissertation, read only version A",OWN,HAVE,Study2,S,153,142,Test,User,-,,Recall,Recall2,11593,have,100,9856,10267,1,1,,1
5f26ad14db44f940a40c86dd,hog8wkfaf8,Nick_Dissertation_EX1,1,302,2020-10-24T12:37:29-07:00,7.4190199375153,1,versionA_stim.csv,READVersionA.csv,"Read Version A","Dissertation, read only version A",TRUTH,LIE,Study2,S,148,150,Test,User,-,,Recall,Recall2,6460,,0,-1,-1,0,0,,1
5f26ad14db44f940a40c86dd,hog8wkfaf8,Nick_Dissertation_EX1,1,303,2020-10-24T12:37:35-07:00,6.7213571071625,1,versionA_stim.csv,READVersionA.csv,"Read Version A","Dissertation, read only version A",CAT,PANTHER,Study2,B,126,149,Test,User,-,,Recall,Recall2,5649,panther,100,3174,4301,1,1,,1
5f26ad14db44f940a40c86dd,hog8wkfaf8,Nick_Dissertation_EX1,1,304,2020-10-24T12:37:43-07:00,7.669294834137,1,versionA_stim.csv,READVersionA.csv,"Read Version A","Dissertation, read only version A",SAFETY,SEATBELT,Study2,S,147,153,Test,User,-,,Recall,Recall2,6517,seatbelt,100,2666,4780,1,1,,1
5f26ad14db44f940a40c86dd,hog8wkfaf8,Nick_Dissertation_EX1,1,305,2020-10-24T12:37:46-07:00,3.054573059082,1,versionA_stim.csv,READVersionA.csv,"Read Version A","Dissertation, read only version A",INCENSE,SMELL,Study2,F,110,99,Test,User,-,,Recall,Recall2,2143,,0,-1,-1,0,0,,1
5f26ad14db44f940a40c86dd,hog8wkfaf8,Nick_Dissertation_EX1,1,306,2020-10-24T12:38:00-07:00,13.962830066681,1,versionA_stim.csv,READVersionA.csv,"Read Version A","Dissertation, read only version A",WATER,DRINK,Study2,S,143,113,Test,User,-,,Recall,Recall2,12827,bridge,36.363636363636,9607,11158,0,0,,1
5f26ad14db44f940a40c86dd,hog8wkfaf8,Nick_Dissertation_EX1,1,307,2020-10-24T12:38:08-07:00,8.2241220474243,1,versionA_stim.csv,READVersionA.csv,"Read Version A","Dissertation, read only version A",GLASS,BREAKABLE,Study2,B,127,154,Test,User,-,,Recall,Recall2,7197,breakable,100,1622,5318,1,1,,1
5f26ad14db44f940a40c86dd,hog8wkfaf8,Nick_Dissertation_EX1,1,308,2020-10-24T12:38:12-07:00,3.5125789642334,1,versionA_stim.csv,READVersionA.csv,"Read Version A","Dissertation, read only version A",STRETCH,CLOTH,Study2,U,157,157,Test,User,-,,Recall,Recall2,2525,,0,-1,-1,0,0,,1
5f26ad14db44f940a40c86dd,hog8wkfaf8,Nick_Dissertation_EX1,1,309,2020-10-24T12:38:16-07:00,4.156662940979,1,versionA_stim.csv,READVersionA.csv,"Read Version A","Dissertation, read only version A",CANDLE,WAX,Study2,S,139,126,Test,User,-,,Recall,Recall2,3284,wax,100,1625,1965,1,1,,1
5f26ad14db44f940a40c86dd,hog8wkfaf8,Nick_Dissertation_EX1,1,310,2020-10-24T12:38:25-07:00,9.4061388969421,1,versionA_stim.csv,READVersionA.csv,"Read Version A","Dissertation, read only version A",FUZZY,BANG,Study2,U,168,146,Test,User,-,,Recall,Recall2,7864,bang,100,5475,6209,1,1,,1
5f26ad14db44f940a40c86dd,hog8wkfaf8,Nick_Dissertation_EX1,1,311,2020-10-24T12:38:37-07:00,11.880562067032,1,versionA_stim.csv,READVersionA.csv,"Read Version A","Dissertation, read only version A",EVEN,REVENGE,Study2,B,122,144,Test,User,-,,Recall,Recall2,10884,revenge,100,7205,8768,1,1,,1
5f26ad14db44f940a40c86dd,hog8wkfaf8,Nick_Dissertation_EX1,1,312,2020-10-24T12:38:42-07:00,4.4700469970703,1,versionA_stim.csv,READVersionA.csv,"Read Version A","Dissertation, read only version A",DRY,WET,Study2,S,146,163,Test,User,-,,Recall,Recall2,3337,,0,-1,-1,0,0,,1
5f26ad14db44f940a40c86dd,hog8wkfaf8,Nick_Dissertation_EX1,1,313,2020-10-24T12:38:52-07:00,9.9059779644012,1,versionA_stim.csv,READVersionA.csv,"Read Version A","Dissertation, read only version A",SHOELACE,TIE,Study2,F,99,129,Test,User,-,,Recall,Recall2,8962,tie,100,5785,7396,1,1,,1
5f26ad14db44f940a40c86dd,hog8wkfaf8,Nick_Dissertation_EX1,1,314,2020-10-24T12:38:57-07:00,5.3897609710693,1,versionA_stim.csv,READVersionA.csv,"Read Version A","Dissertation, read only version A",HONEST,TRUTHFUL,Study2,B,133,117,Test,User,-,,Recall,Recall2,4571,,0,-1,-1,0,0,,1
5f26ad14db44f940a40c86dd,hog8wkfaf8,Nick_Dissertation_EX1,1,315,2020-10-24T12:39:00-07:00,3.5629830360413,1,versionA_stim.csv,READVersionA.csv,"Read Version A","Dissertation, read only version A",NAME,HATE,Study2,U,167,175,Test,User,-,,Recall,Recall2,2688,,0,-1,-1,0,0,,1
5f26ad14db44f940a40c86dd,hog8wkfaf8,Nick_Dissertation_EX1,1,316,2020-10-24T12:39:06-07:00,5.3893840312958,1,versionA_stim.csv,READVersionA.csv,"Read Version A","Dissertation, read only version A",CHERRY,RED,Study2,F,104,109,Test,User,-,,Recall,Recall2,4603,red,100,2582,3114,1,1,,1
5f26ad14db44f940a40c86dd,hog8wkfaf8,Nick_Dissertation_EX1,1,317,2020-10-24T12:39:08-07:00,2.3308129310608,1,versionA_stim.csv,READVersionA.csv,"Read Version A","Dissertation, read only version A",MOAT,CLEAR,Study2,U,169,167,Test,User,-,,Recall,Recall2,1545,,0,-1,-1,0,0,,1
5f26ad14db44f940a40c86dd,hog8wkfaf8,Nick_Dissertation_EX1,1,318,2020-10-24T12:39:14-07:00,5.9961161613464,1,versionA_stim.csv,READVersionA.csv,"Read Version A","Dissertation, read only version A",MIRROR,CHILDREN,Study2,U,174,103,Test,User,-,,Recall,Recall2,5197,children,100,2027,3745,1,1,,1
5f26ad14db44f940a40c86dd,hog8wkfaf8,Nick_Dissertation_EX1,1,319,2020-10-24T12:39:17-07:00,2.4359350204468,1,versionA_stim.csv,READVersionA.csv,"Read Version A","Dissertation, read only version A",MAZE,ELECTION,Study2,U,159,114,Test,User,-,,Recall,Recall2,1610,,0,-1,-1,0,0,,1
5f26ad14db44f940a40c86dd,hog8wkfaf8,Nick_Dissertation_EX1,1,320,2020-10-24T12:39:24-07:00,6.8972589969635,1,versionA_stim.csv,READVersionA.csv,"Read Version A","Dissertation, read only version A",FRUIT,STRAWBERRY,Study2,B,124,148,Test,User,-,,Recall,Recall2,6086,strawberry,100,1381,4561,1,1,,1
5f26ad14db44f940a40c86dd,hog8wkfaf8,Nick_Dissertation_EX1,1,321,2020-10-24T12:39:29-07:00,5.8857409954071,1,versionA_stim.csv,READVersionA.csv,"Read Version A","Dissertation, read only version A",FIGHT,BRAWL,Study2,B,135,133,Test,User,-,,Recall,Recall2,4995,brawl,100,1788,3476,1,1,,1
5f26ad14db44f940a40c86dd,hog8wkfaf8,Nick_Dissertation_EX1,1,322,2020-10-24T12:39:36-07:00,6.8866958618164,1,versionA_stim.csv,READVersionA.csv,"Read Version A","Dissertation, read only version A",SUN,TAN,Study2,S,155,176,Test,User,-,,Recall,Recall2,5949,tan,100,3048,3367,1,1,,1
5f26ad14db44f940a40c86dd,hog8wkfaf8,Nick_Dissertation_EX1,1,323,2020-10-24T12:39:39-07:00,2.5521941184998,1,versionA_stim.csv,READVersionA.csv,"Read Version A","Dissertation, read only version A",BEST,FAVORITE,Study2,B,125,108,Test,User,-,,Recall,Recall2,1749,#,0,1745,1745,0,0,,1
5f26ad14db44f940a40c86dd,hog8wkfaf8,Nick_Dissertation_EX1,1,324,2020-10-24T12:39:46-07:00,6.9983458518982,1,versionA_stim.csv,READVersionA.csv,"Read Version A","Dissertation, read only version A",STAR,ACTRESS,Study2,B,120,102,Test,User,-,,Recall,Recall2,6124,actress,100,2268,4138,1,1,,1
5f26ad14db44f940a40c86dd,hog8wkfaf8,Nick_Dissertation_EX1,1,325,2020-10-24T12:39:53-07:00,7.0698730945587,1,versionA_stim.csv,READVersionA.csv,"Read Version A","Dissertation, read only version A",RIGHTS,EQUAL,Study2,S,137,104,Test,User,-,,Recall,Recall2,6242,equal,100,2308,3891,1,1,,1
5f26ad14db44f940a40c86dd,hog8wkfaf8,Nick_Dissertation_EX1,1,326,2020-10-24T12:40:05-07:00,12.426387071609,1,versionA_stim.csv,READVersionA.csv,"Read Version A","Dissertation, read only version A",LOAN,SIGN,Study2,U,171,101,Test,User,-,,Recall,Recall2,11543,money,22.222222222222,2141,4718,0,0,,1
5f26ad14db44f940a40c86dd,hog8wkfaf8,Nick_Dissertation_EX1,1,327,2020-10-24T12:40:08-07:00,3.1019990444183,1,versionA_stim.csv,READVersionA.csv,"Read Version A","Dissertation, read only version A",AFFECTION,LOVE,Study2,F,115,97,Test,User,-,,Recall,Recall2,2265,,0,-1,-1,0,0,,1
5f26ad14db44f940a40c86dd,hog8wkfaf8,Nick_Dissertation_EX1,1,328,2020-10-24T12:40:14-07:00,5.4566159248352,1,versionA_stim.csv,READVersionA.csv,"Read Version A","Dissertation, read only version A",DINE,EAT,Study2,F,111,136,Test,User,-,,Recall,Recall2,4655,eat,100,2756,3168,1,1,,1
5f26ad14db44f940a40c86dd,hog8wkfaf8,Nick_Dissertation_EX1,1,329,2020-10-24T12:40:20-07:00,6.1943678855896,1,versionA_stim.csv,READVersionA.csv,"Read Version A","Dissertation, read only version A",VEHICLE,CHARM,Study2,U,160,173,Test,User,-,,Recall,Recall2,5301,car,75,1543,1802,0,1,,1
5f26ad14db44f940a40c86dd,hog8wkfaf8,Nick_Dissertation_EX1,1,330,2020-10-24T12:40:26-07:00,5.4898991584778,1,versionA_stim.csv,READVersionA.csv,"Read Version A","Dissertation, read only version A",ALONE,LONELY,Study2,S,145,112,Test,User,-,,Recall,Recall2,4561,lonely,100,1286,2325,1,1,,1
5f26ad14db44f940a40c86dd,hog8wkfaf8,Nick_Dissertation_EX1,1,331,2020-10-24T12:40:32-07:00,6.7934420108795,1,versionA_stim.csv,READVersionA.csv,"Read Version A","Dissertation, read only version A",FISH,SARDINE,Study2,B,130,147,Test,User,-,,Recall,Recall2,5978,sardines,93.333333333333,2925,4574,0,1,,1
5f26ad14db44f940a40c86dd,hog8wkfaf8,Nick_Dissertation_EX1,1,332,2020-10-24T12:40:35-07:00,2.4436619281769,1,versionA_stim.csv,READVersionA.csv,"Read Version A","Dissertation, read only version A",MAIN,SCAR,Study2,U,175,159,Test,User,-,,Recall,Recall2,1608,,0,-1,-1,0,0,,1
5f26ad14db44f940a40c86dd,hog8wkfaf8,Nick_Dissertation_EX1,1,333,2020-10-24T12:40:42-07:00,7.595253944397,1,versionA_stim.csv,READVersionA.csv,"Read Version A","Dissertation, read only version A",RAZOR,SHAVE,Study2,S,136,172,Test,User,-,,Recall,Recall2,6776,shave,100,4405,4995,1,1,,1
5f26ad14db44f940a40c86dd,hog8wkfaf8,Nick_Dissertation_EX1,1,334,2020-10-24T12:40:58-07:00,15.561886072159,1,versionA_stim.csv,READVersionA.csv,"Read Version A","Dissertation, read only version A",CLUE,GAME,Study2,F,97,127,Test,User,-,,Recall,Recall2,14674,,0,-1,-1,0,0,,1
5f26ad14db44f940a40c86dd,hog8wkfaf8,Nick_Dissertation_EX1,1,335,2020-10-24T12:41:11-07:00,12.746458053589,1,versionA_stim.csv,READVersionA.csv,"Read Version A","Dissertation, read only version A",SLEEP,NAP,Study2,B,134,169,Test,User,-,,Recall,Recall2,10614,nap,100,8131,8736,1,1,,1
5f26ad14db44f940a40c86dd,hog8wkfaf8,Nick_Dissertation_EX1,1,336,2020-10-24T12:41:15-07:00,4.1526398658752,1,versionA_stim.csv,READVersionA.csv,"Read Version A","Dissertation, read only version A",PHONE,COMMUNICATION,Study2,S,149,128,Test,User,-,,Recall,Recall2,3095,,0,-1,-1,0,0,,1
5f26ad14db44f940a40c86dd,hog8wkfaf8,Nick_Dissertation_EX1,1,337,2020-10-24T12:41:22-07:00,7.4929170608521,1,versionA_stim.csv,READVersionA.csv,"Read Version A","Dissertation, read only version A",BAD,VILLAIN,Study2,B,118,122,Test,User,-,,Recall,Recall2,6590,,0,-1,-1,0,0,,1
5f26ad14db44f940a40c86dd,hog8wkfaf8,Nick_Dissertation_EX1,1,338,2020-10-24T12:41:27-07:00,5.0791928768158,1,versionA_stim.csv,READVersionA.csv,"Read Version A","Dissertation, read only version A",GONE,AWAY,Study2,S,142,110,Test,User,-,,Recall,Recall2,4223,away,100,2065,2507,1,1,,1
5f26ad14db44f940a40c86dd,hog8wkfaf8,Nick_Dissertation_EX1,1,339,2020-10-24T12:41:33-07:00,5.5953140258789,1,versionA_stim.csv,READVersionA.csv,"Read Version A","Dissertation, read only version A",CACTUS,PLANT,Study2,F,98,152,Test,User,-,,Recall,Recall2,4706,plant,100,2505,3240,1,1,,1
5f26ad14db44f940a40c86dd,hog8wkfaf8,Nick_Dissertation_EX1,1,340,2020-10-24T12:41:53-07:00,19.659641981125,1,versionA_stim.csv,READVersionA.csv,"Read Version A","Dissertation, read only version A",CAR,WINDSHIELD,Study2,B,117,131,Test,User,-,,Recall,Recall2,17764,windshield,100,14774,16340,1,1,,1
5f26ad14db44f940a40c86dd,hog8wkfaf8,Nick_Dissertation_EX1,1,341,2020-10-24T12:41:56-07:00,3.1412711143494,1,versionA_stim.csv,READVersionA.csv,"Read Version A","Dissertation, read only version A",SHEARS,SCISSORS,Study2,F,112,139,Test,User,-,,Recall,Recall2,2040,,0,-1,-1,0,0,,1
5f26ad14db44f940a40c86dd,hog8wkfaf8,Nick_Dissertation_EX1,1,342,2020-10-24T12:42:06-07:00,9.9219889640808,1,versionA_stim.csv,READVersionA.csv,"Read Version A","Dissertation, read only version A",MONEY,BANKER,Study2,B,132,143,Test,User,-,,Recall,Recall2,9013,banker,100,2020,7459,1,1,,1
5f26ad14db44f940a40c86dd,hog8wkfaf8,Nick_Dissertation_EX1,1,343,2020-10-24T12:42:11-07:00,5.297208070755,1,versionA_stim.csv,READVersionA.csv,"Read Version A","Dissertation, read only version A",EXTENSION,LONG,Study2,F,96,107,Test,User,-,,Recall,Recall2,4457,,0,-1,-1,0,0,,1
5f26ad14db44f940a40c86dd,hog8wkfaf8,Nick_Dissertation_EX1,1,344,2020-10-24T12:42:14-07:00,2.7700488567352,1,versionA_stim.csv,READVersionA.csv,"Read Version A","Dissertation, read only version A",MASON,JAR,Study2,S,138,100,Test,User,-,,Recall,Recall2,1934,,0,-1,-1,0,0,,1
5f26ad14db44f940a40c86dd,hog8wkfaf8,Nick_Dissertation_EX1,1,345,2020-10-24T12:42:21-07:00,7.6180241107941,1,versionA_stim.csv,READVersionA.csv,"Read Version A","Dissertation, read only version A",LOUD,NOISE,Study2,S,152,155,Test,User,-,,Recall,Recall2,6717,noise,100,1386,3549,1,1,,1
5f26ad14db44f940a40c86dd,hog8wkfaf8,Nick_Dissertation_EX1,1,346,2020-10-24T12:42:27-07:00,5.5318140983582,1,versionA_stim.csv,READVersionA.csv,"Read Version A","Dissertation, read only version A",CAKE,CLOTHES,Study2,U,166,121,Test,User,-,,Recall,Recall2,4589,,0,-1,-1,0,0,,1
5f26ad14db44f940a40c86dd,hog8wkfaf8,Nick_Dissertation_EX1,1,347,2020-10-24T12:42:29-07:00,2.2690989971161,1,versionA_stim.csv,READVersionA.csv,"Read Version A","Dissertation, read only version A",LEASE,TOIL,Study2,U,170,156,Test,User,-,,Recall,Recall2,1345,,0,-1,-1,0,0,,1
5f26ad14db44f940a40c86dd,hog8wkfaf8,Nick_Dissertation_EX1,1,348,2020-10-24T12:42:31-07:00,1.8857958316803,1,versionA_stim.csv,READVersionA.csv,"Read Version A","Dissertation, read only version A",BOTH,OUNCE,Study2,U,172,140,Test,User,-,,Recall,Recall2,1045,,0,-1,-1,0,0,,1
5f26ad14db44f940a40c86dd,hog8wkfaf8,Nick_Dissertation_EX1,1,349,2020-10-24T12:42:34-07:00,3.2950439453125,1,versionA_stim.csv,READVersionA.csv,"Read Version A","Dissertation, read only version A",,,,,,0,Instruct,User,-,"You have completed this section. Please press Enter.",,Instruct7,2539,,,-1,-1,,,,1
