Username,ID,ExperimentName,Session,Trial,Date,TimeDif,"Condition Number","Stimuli File","Order File","Condition Description","Condition Notes",Stimuli*Cue,Stimuli*Answer,Stimuli*Shuffle,"Stimuli*Stimuli Notes",Stimuli*Value,Procedure*Item,"Procedure*Trial Type","Procedure*Max Time","Procedure*Min Time",Procedure*Text,"Procedure*Procedure Notes",Procedure*Shuffle,Response*RT,Response*Response,Response*Accuracy,Response*RTfirst,Response*RTlast,Response*strictAcc,Response*lenientAcc,Response*focus,Response*JOL,Response*Focus
w319580,mo7vtpvz98,Nick_Dissertation_EX1b,1,1,2020-06-25T09:32:10-07:00,7.2739667892456,3,versionC_stim.csv,VC_VersionC.csv,"Version C","Version C",,,,,,0,Instruct,-,5,"In this section, you will be presented with a series of word pairs.",Initial_Instruct,Instruct1,7020,,,-1,-1,,,,,1
w319580,mo7vtpvz98,Nick_Dissertation_EX1b,1,2,2020-06-25T09:32:18-07:00,7.3819360733032,3,versionC_stim.csv,VC_VersionC.csv,"Version C","Version C",,,,,,0,Instruct,-,5,"As you study, you will be asked to count the total number of vowels (a, e, i, o, u) within the two words. Please note that y is not considered a vowel.",,Instruct13,7064,,,-1,-1,,,,,1
w319580,mo7vtpvz98,Nick_Dissertation_EX1b,1,3,2020-06-25T09:32:29-07:00,11.438970088959,3,versionC_stim.csv,VC_VersionC.csv,"Version C","Version C",,,,,,0,Instruct,-,10,"For example, if you are given the pair CAT - DOG, CAT has one vowel and DOG has one vowel. The correct response would be 2 (1 + 1 = 2). After typing the number, you will press ENTER to move to the next pair.",,Instruct14,11143,,,-1,-1,,,,,1
w319580,mo7vtpvz98,Nick_Dissertation_EX1b,1,4,2020-06-25T09:32:48-07:00,18.885401010513,3,versionC_stim.csv,VC_VersionC.csv,"Version C","Version C",,,,,,0,Instruct,User,-,"You will now begin the study. Press Enter when you are ready to begin.",,Instruct16,1484,,,-1,-1,,,,,1
w319580,mo7vtpvz98,Nick_Dissertation_EX1b,1,5,2020-06-25T09:33:00-07:00,11.986907958984,3,versionC_stim.csv,VC_VersionC.csv,"Version C","Version C",JAM,SPACE,BUFFER1,Buffer,5,2,VC,User,-,"How many vowels are the two words combined?|Type your response below and then press Enter.",Study/JOL,BUFFER,10346,,,7680,7680,,,,3,1
w319580,mo7vtpvz98,Nick_Dissertation_EX1b,1,6,2020-06-25T09:33:06-07:00,5.9903190135956,3,versionC_stim.csv,VC_VersionC.csv,"Version C","Version C",HIDE,SCARE,BUFFER1,Buffer,4,6,VC,User,-,"How many vowels are the two words combined?|Type your response below and then press Enter.",Study/JOL,BUFFER,5544,,,3551,3552,,,,4,1
w319580,mo7vtpvz98,Nick_Dissertation_EX1b,1,7,2020-06-25T09:33:17-07:00,10.703955888748,3,versionC_stim.csv,VC_VersionC.csv,"Version C","Version C",CATCHER,BASEBALL,BUFFER1,Buffer,2,4,VC,User,-,"How many vowels are the two words combined?|Type your response below and then press Enter.",Study/JOL,BUFFER,10363,,,9694,9694,,,,5,1
w319580,mo7vtpvz98,Nick_Dissertation_EX1b,1,8,2020-06-25T09:33:24-07:00,7.5803260803223,3,versionC_stim.csv,VC_VersionC.csv,"Version C","Version C",BUTTER,PEANUT,BUFFER1,Buffer,3,5,VC,User,-,"How many vowels are the two words combined?|Type your response below and then press Enter.",Study/JOL,BUFFER,7241,,,6624,6624,,,,5,1
w319580,mo7vtpvz98,Nick_Dissertation_EX1b,1,9,2020-06-25T09:33:29-07:00,4.8131098747253,3,versionC_stim.csv,VC_VersionC.csv,"Version C","Version C",GREEN,TREES,BUFFER1,Buffer,1,3,VC,User,-,"How many vowels are the two words combined?|Type your response below and then press Enter.",Study/JOL,BUFFER,4426,,,3673,3673,,,,4,1
w319580,mo7vtpvz98,Nick_Dissertation_EX1b,1,10,2020-06-25T09:33:42-07:00,12.791980028152,3,versionC_stim.csv,VC_VersionC.csv,"Version C","Version C",SACKING,DIETARY,Study1,U,67,34,VC,User,-,"How many vowels are the two words combined?|Type your response below and then press Enter.",Study/JOL,"Study Phase",12476,,,8954,8954,,,,5,1
w319580,mo7vtpvz98,Nick_Dissertation_EX1b,1,11,2020-06-25T09:33:46-07:00,4.3799140453339,3,versionC_stim.csv,VC_VersionC.csv,"Version C","Version C",CHORE,WORK,Study1,F,39,16,VC,User,-,"How many vowels are the two words combined?|Type your response below and then press Enter.",Study/JOL,"Study Phase",4057,,,3453,3453,,,,3,1
w319580,mo7vtpvz98,Nick_Dissertation_EX1b,1,12,2020-06-25T09:33:55-07:00,9.0342049598694,3,versionC_stim.csv,VC_VersionC.csv,"Version C","Version C",HAMMER,CHISEL,Study1,B,9,67,VC,User,-,"How many vowels are the two words combined?|Type your response below and then press Enter.",Study/JOL,"Study Phase",8736,,,8195,8195,,,,4,1
w319580,mo7vtpvz98,Nick_Dissertation_EX1b,1,13,2020-06-25T09:33:59-07:00,3.8028509616852,3,versionC_stim.csv,VC_VersionC.csv,"Version C","Version C",FUTURE,PAST,Study1,S,61,42,VC,User,-,"How many vowels are the two words combined?|Type your response below and then press Enter.",Study/JOL,"Study Phase",3493,,,2884,2884,,,,4,1
w319580,mo7vtpvz98,Nick_Dissertation_EX1b,1,14,2020-06-25T09:34:06-07:00,7.532692193985,3,versionC_stim.csv,VC_VersionC.csv,"Version C","Version C",ATTORNEY,LAW,Study1,F,34,22,VC,User,-,"How many vowels are the two words combined?|Type your response below and then press Enter.",Study/JOL,"Study Phase",7232,,,3958,3958,,,,4,1
w319580,mo7vtpvz98,Nick_Dissertation_EX1b,1,15,2020-06-25T09:34:11-07:00,4.1289129257202,3,versionC_stim.csv,VC_VersionC.csv,"Version C","Version C",TUCK,ALLOW,Study1,U,78,85,VC,User,-,"How many vowels are the two words combined?|Type your response below and then press Enter.",Study/JOL,"Study Phase",3815,,,3201,3201,,,,3,1
w319580,mo7vtpvz98,Nick_Dissertation_EX1b,1,16,2020-06-25T09:34:19-07:00,8.42999792099,3,versionC_stim.csv,VC_VersionC.csv,"Version C","Version C",LIVER,KIDNEY,Study1,S,53,43,VC,User,-,"How many vowels are the two words combined?|Type your response below and then press Enter.",Study/JOL,"Study Phase",8132,,,7107,7107,,,,4,1
w319580,mo7vtpvz98,Nick_Dissertation_EX1b,1,17,2020-06-25T09:34:23-07:00,4.2565271854401,3,versionC_stim.csv,VC_VersionC.csv,"Version C","Version C",ADD,VALLEY,Study1,U,82,15,VC,User,-,"How many vowels are the two words combined?|Type your response below and then press Enter.",Study/JOL,"Study Phase",3916,,,3255,3255,,,,3,1
w319580,mo7vtpvz98,Nick_Dissertation_EX1b,1,18,2020-06-25T09:34:34-07:00,10.947919845581,3,versionC_stim.csv,VC_VersionC.csv,"Version C","Version C",ENOUGH,FULL,Study1,F,26,21,VC,User,-,"How many vowels are the two words combined?|Type your response below and then press Enter.",Study/JOL,"Study Phase",10612,,,7801,7801,,,,4,1
w319580,mo7vtpvz98,Nick_Dissertation_EX1b,1,19,2020-06-25T09:34:41-07:00,7.129979133606,3,versionC_stim.csv,VC_VersionC.csv,"Version C","Version C",GROWTH,HEIGHT,Study1,F,30,45,VC,User,-,"How many vowels are the two words combined?|Type your response below and then press Enter.",Study/JOL,"Study Phase",6821,,,6198,6198,,,,3,1
w319580,mo7vtpvz98,Nick_Dissertation_EX1b,1,20,2020-06-25T09:34:50-07:00,8.7494239807129,3,versionC_stim.csv,VC_VersionC.csv,"Version C","Version C",CARD,CREDIT,Study1,B,23,33,VC,User,-,"How many vowels are the two words combined?|Type your response below and then press Enter.",Study/JOL,"Study Phase",8425,,,7800,7800,,,,3,1
w319580,mo7vtpvz98,Nick_Dissertation_EX1b,1,21,2020-06-25T09:34:55-07:00,4.5113298892975,3,versionC_stim.csv,VC_VersionC.csv,"Version C","Version C",CHILI,HOT,Study1,F,37,86,VC,User,-,"How many vowels are the two words combined?|Type your response below and then press Enter.",Study/JOL,"Study Phase",4187,,,2254,2254,,,,3,1
w319580,mo7vtpvz98,Nick_Dissertation_EX1b,1,22,2020-06-25T09:35:02-07:00,7.7824599742889,3,versionC_stim.csv,VC_VersionC.csv,"Version C","Version C",LION,ART,Study1,U,79,64,VC,User,-,"How many vowels are the two words combined?|Type your response below and then press Enter.",Study/JOL,"Study Phase",7472,,,5595,5595,,,,3,1
w319580,mo7vtpvz98,Nick_Dissertation_EX1b,1,23,2020-06-25T09:35:08-07:00,5.346363067627,3,versionC_stim.csv,VC_VersionC.csv,"Version C","Version C",LATCH,KEY,Study1,F,36,73,VC,User,-,"How many vowels are the two words combined?|Type your response below and then press Enter.",Study/JOL,"Study Phase",5022,,,3130,3130,,,,2,1
w319580,mo7vtpvz98,Nick_Dissertation_EX1b,1,24,2020-06-25T09:35:16-07:00,8.2454829216003,3,versionC_stim.csv,VC_VersionC.csv,"Version C","Version C",ACCIDENT,STRONG,Study1,U,80,68,VC,User,-,"How many vowels are the two words combined?|Type your response below and then press Enter.",Study/JOL,"Study Phase",7908,,,5491,5492,,,,4,1
w319580,mo7vtpvz98,Nick_Dissertation_EX1b,1,25,2020-06-25T09:35:20-07:00,4.2965919971466,3,versionC_stim.csv,VC_VersionC.csv,"Version C","Version C",CHEESE,WINE,Study1,S,57,80,VC,User,-,"How many vowels are the two words combined?|Type your response below and then press Enter.",Study/JOL,"Study Phase",3990,,,3405,3405,,,,5,1
w319580,mo7vtpvz98,Nick_Dissertation_EX1b,1,26,2020-06-25T09:35:26-07:00,5.7012650966644,3,versionC_stim.csv,VC_VersionC.csv,"Version C","Version C",STOMACH,DIGESTION,Study1,B,7,12,VC,User,-,"How many vowels are the two words combined?|Type your response below and then press Enter.",Study/JOL,"Study Phase",5372,,,4681,4681,,,,6,1
w319580,mo7vtpvz98,Nick_Dissertation_EX1b,1,27,2020-06-25T09:35:32-07:00,6.1036970615387,3,versionC_stim.csv,VC_VersionC.csv,"Version C","Version C",WOULD,CASH,Study1,U,83,69,VC,User,-,"How many vowels are the two words combined?|Type your response below and then press Enter.",Study/JOL,"Study Phase",5766,,,2529,4898,,,,3,1
w319580,mo7vtpvz98,Nick_Dissertation_EX1b,1,28,2020-06-25T09:35:35-07:00,3.35409283638,3,versionC_stim.csv,VC_VersionC.csv,"Version C","Version C",FISH,TUNA,Study1,B,25,65,VC,User,-,"How many vowels are the two words combined?|Type your response below and then press Enter.",Study/JOL,"Study Phase",3048,,,2515,2515,,,,3,1
w319580,mo7vtpvz98,Nick_Dissertation_EX1b,1,29,2020-06-25T09:35:43-07:00,7.2375631332397,3,versionC_stim.csv,VC_VersionC.csv,"Version C","Version C",FANTASTIC,GREAT,Study1,F,35,40,VC,User,-,"How many vowels are the two words combined?|Type your response below and then press Enter.",Study/JOL,"Study Phase",6928,,,4320,4321,,,,5,1
w319580,mo7vtpvz98,Nick_Dissertation_EX1b,1,30,2020-06-25T09:35:47-07:00,4.7345638275146,3,versionC_stim.csv,VC_VersionC.csv,"Version C","Version C",AMOUNT,NUMBER,Study1,S,47,23,VC,User,-,"How many vowels are the two words combined?|Type your response below and then press Enter.",Study/JOL,"Study Phase",4402,,,3913,3913,,,,5,1
w319580,mo7vtpvz98,Nick_Dissertation_EX1b,1,31,2020-06-25T09:35:52-07:00,4.4984490871429,3,versionC_stim.csv,VC_VersionC.csv,"Version C","Version C",SITE,LOCATION,Study1,S,48,78,VC,User,-,"How many vowels are the two words combined?|Type your response below and then press Enter.",Study/JOL,"Study Phase",4193,,,3758,3758,,,,6,1
w319580,mo7vtpvz98,Nick_Dissertation_EX1b,1,32,2020-06-25T09:35:57-07:00,4.8104331493378,3,versionC_stim.csv,VC_VersionC.csv,"Version C","Version C",FAMINE,HUNGER,Study1,F,40,17,VC,User,-,"How many vowels are the two words combined?|Type your response below and then press Enter.",Study/JOL,"Study Phase",4491,,,4019,4019,,,,5,1
w319580,mo7vtpvz98,Nick_Dissertation_EX1b,1,33,2020-06-25T09:36:01-07:00,4.0817899703979,3,versionC_stim.csv,VC_VersionC.csv,"Version C","Version C",ROUND,CIRCLE,Study1,S,65,37,VC,User,-,"How many vowels are the two words combined?|Type your response below and then press Enter.",Study/JOL,"Study Phase",3744,,,3247,3247,,,,4,1
w319580,mo7vtpvz98,Nick_Dissertation_EX1b,1,34,2020-06-25T09:36:04-07:00,3.3897678852081,3,versionC_stim.csv,VC_VersionC.csv,"Version C","Version C",COW,HERD,Study1,B,22,25,VC,User,-,"How many vowels are the two words combined?|Type your response below and then press Enter.",Study/JOL,"Study Phase",3077,,,2296,2296,,,,2,1
w319580,mo7vtpvz98,Nick_Dissertation_EX1b,1,35,2020-06-25T09:36:09-07:00,4.8053181171417,3,versionC_stim.csv,VC_VersionC.csv,"Version C","Version C",WOMAN,LIFT,Study1,U,69,36,VC,User,-,"How many vowels are the two words combined?|Type your response below and then press Enter.",Study/JOL,"Study Phase",4487,,,2373,2373,,,,3,1
w319580,mo7vtpvz98,Nick_Dissertation_EX1b,1,36,2020-06-25T09:36:13-07:00,4.1893467903137,3,versionC_stim.csv,VC_VersionC.csv,"Version C","Version C",SIGHT,DEBATE,Study1,U,73,28,VC,User,-,"How many vowels are the two words combined?|Type your response below and then press Enter.",Study/JOL,"Study Phase",3834,,,3337,3337,,,,4,1
w319580,mo7vtpvz98,Nick_Dissertation_EX1b,1,37,2020-06-25T09:36:17-07:00,3.4185521602631,3,versionC_stim.csv,VC_VersionC.csv,"Version C","Version C",JURY,TRIAL,Study1,S,50,32,VC,User,-,"How many vowels are the two words combined?|Type your response below and then press Enter.",Study/JOL,"Study Phase",3111,,,2651,2651,,,,3,1
w319580,mo7vtpvz98,Nick_Dissertation_EX1b,1,38,2020-06-25T09:36:20-07:00,3.2000439167023,3,versionC_stim.csv,VC_VersionC.csv,"Version C","Version C",BEE,HONEY,Study1,S,63,38,VC,User,-,"How many vowels are the two words combined?|Type your response below and then press Enter.",Study/JOL,"Study Phase",2895,,,2456,2456,,,,4,1
w319580,mo7vtpvz98,Nick_Dissertation_EX1b,1,39,2020-06-25T09:36:26-07:00,6.4684820175171,3,versionC_stim.csv,VC_VersionC.csv,"Version C","Version C",DEFINITION,MEANING,Study1,S,62,63,VC,User,-,"How many vowels are the two words combined?|Type your response below and then press Enter.",Study/JOL,"Study Phase",6161,,,5715,5715,,,,8,1
w319580,mo7vtpvz98,Nick_Dissertation_EX1b,1,40,2020-06-25T09:36:30-07:00,3.6803739070892,3,versionC_stim.csv,VC_VersionC.csv,"Version C","Version C",WIND,BLOW,Study1,S,55,26,VC,User,-,"How many vowels are the two words combined?|Type your response below and then press Enter.",Study/JOL,"Study Phase",3369,,,2827,2827,,,,2,1
w319580,mo7vtpvz98,Nick_Dissertation_EX1b,1,41,2020-06-25T09:36:35-07:00,4.9423282146454,3,versionC_stim.csv,VC_VersionC.csv,"Version C","Version C",WAR,REVOLUTION,Study1,B,20,14,VC,User,-,"How many vowels are the two words combined?|Type your response below and then press Enter.",Study/JOL,"Study Phase",4639,,,4193,4193,,,,6,1
w319580,mo7vtpvz98,Nick_Dissertation_EX1b,1,42,2020-06-25T09:36:38-07:00,3.2606408596039,3,versionC_stim.csv,VC_VersionC.csv,"Version C","Version C",BLAZE,FIRE,Study1,F,45,20,VC,User,-,"How many vowels are the two words combined?|Type your response below and then press Enter.",Study/JOL,"Study Phase",2930,,,2429,2429,,,,4,1
w319580,mo7vtpvz98,Nick_Dissertation_EX1b,1,43,2020-06-25T09:36:44-07:00,5.3372340202332,3,versionC_stim.csv,VC_VersionC.csv,"Version C","Version C",FOOT,SHOE,Study1,S,60,52,VC,User,-,"How many vowels are the two words combined?|Type your response below and then press Enter.",Study/JOL,"Study Phase",5035,,,4420,4420,,,,4,1
w319580,mo7vtpvz98,Nick_Dissertation_EX1b,1,44,2020-06-25T09:36:49-07:00,5.7117760181427,3,versionC_stim.csv,VC_VersionC.csv,"Version C","Version C",BRONZE,ARTERY,Study1,U,74,74,VC,User,-,"How many vowels are the two words combined?|Type your response below and then press Enter.",Study/JOL,"Study Phase",5395,,,4761,4761,,,,4,1
w319580,mo7vtpvz98,Nick_Dissertation_EX1b,1,45,2020-06-25T09:36:54-07:00,4.8649070262909,3,versionC_stim.csv,VC_VersionC.csv,"Version C","Version C",TOILET,BATHROOM,Study1,S,58,56,VC,User,-,"How many vowels are the two words combined?|Type your response below and then press Enter.",Study/JOL,"Study Phase",4555,,,3986,3986,,,,6,1
w319580,mo7vtpvz98,Nick_Dissertation_EX1b,1,46,2020-06-25T09:36:59-07:00,4.6030759811401,3,versionC_stim.csv,VC_VersionC.csv,"Version C","Version C",DROWSY,SLEEP,Study1,F,41,60,VC,User,-,"How many vowels are the two words combined?|Type your response below and then press Enter.",Study/JOL,"Study Phase",4257,,,3592,3592,,,,3,1
w319580,mo7vtpvz98,Nick_Dissertation_EX1b,1,47,2020-06-25T09:37:05-07:00,5.9828379154205,3,versionC_stim.csv,VC_VersionC.csv,"Version C","Version C",CLEAN,HYGIENE,Study1,B,17,41,VC,User,-,"How many vowels are the two words combined?|Type your response below and then press Enter.",Study/JOL,"Study Phase",5657,,,5037,5037,,,,5,1
w319580,mo7vtpvz98,Nick_Dissertation_EX1b,1,48,2020-06-25T09:37:11-07:00,5.8117821216583,3,versionC_stim.csv,VC_VersionC.csv,"Version C","Version C",RACKET,BALL,Study1,F,38,58,VC,User,-,"How many vowels are the two words combined?|Type your response below and then press Enter.",Study/JOL,"Study Phase",5463,,,4963,4963,,,,3,1
w319580,mo7vtpvz98,Nick_Dissertation_EX1b,1,49,2020-06-25T09:37:14-07:00,3.6602108478546,3,versionC_stim.csv,VC_VersionC.csv,"Version C","Version C",SALAD,LETTUCE,Study1,S,59,49,VC,User,-,"How many vowels are the two words combined?|Type your response below and then press Enter.",Study/JOL,"Study Phase",3357,,,2856,2856,,,,5,1
w319580,mo7vtpvz98,Nick_Dissertation_EX1b,1,50,2020-06-25T09:37:18-07:00,4.1383550167084,3,versionC_stim.csv,VC_VersionC.csv,"Version C","Version C",CLUTTER,PUSHER,Study1,U,66,18,VC,User,-,"How many vowels are the two words combined?|Type your response below and then press Enter.",Study/JOL,"Study Phase",3825,,,3314,3314,,,,4,1
w319580,mo7vtpvz98,Nick_Dissertation_EX1b,1,51,2020-06-25T09:37:23-07:00,4.2946290969849,3,versionC_stim.csv,VC_VersionC.csv,"Version C","Version C",ATTIRE,CLOTHES,Study1,F,43,27,VC,User,-,"How many vowels are the two words combined?|Type your response below and then press Enter.",Study/JOL,"Study Phase",3974,,,3520,3520,,,,5,1
w319580,mo7vtpvz98,Nick_Dissertation_EX1b,1,52,2020-06-25T09:37:26-07:00,3.588301897049,3,versionC_stim.csv,VC_VersionC.csv,"Version C","Version C",DIVISION,MATH,Study1,F,33,31,VC,User,-,"How many vowels are the two words combined?|Type your response below and then press Enter.",Study/JOL,"Study Phase",3283,,,2811,2811,,,,5,1
w319580,mo7vtpvz98,Nick_Dissertation_EX1b,1,53,2020-06-25T09:37:33-07:00,7.2323291301727,3,versionC_stim.csv,VC_VersionC.csv,"Version C","Version C",BAD,DELINQUENT,Study1,B,6,79,VC,User,-,"How many vowels are the two words combined?|Type your response below and then press Enter.",Study/JOL,"Study Phase",6918,,,6511,6511,,,,5,1
w319580,mo7vtpvz98,Nick_Dissertation_EX1b,1,54,2020-06-25T09:37:36-07:00,2.6426470279694,3,versionC_stim.csv,VC_VersionC.csv,"Version C","Version C",HAND,FIX,Study1,U,75,47,VC,User,-,"How many vowels are the two words combined?|Type your response below and then press Enter.",Study/JOL,"Study Phase",2334,,,1806,1806,,,,2,1
w319580,mo7vtpvz98,Nick_Dissertation_EX1b,1,55,2020-06-25T09:37:54-07:00,18.066248893738,3,versionC_stim.csv,VC_VersionC.csv,"Version C","Version C",SODA,POP,Study1,S,56,35,VC,User,-,"How many vowels are the two words combined?|Type your response below and then press Enter.",Study/JOL,"Study Phase",5609,,,3334,3334,,,,3,1
w319580,mo7vtpvz98,Nick_Dissertation_EX1b,1,56,2020-06-25T09:37:59-07:00,4.9270350933075,3,versionC_stim.csv,VC_VersionC.csv,"Version C","Version C",PILOT,PLANE,Study1,F,44,71,VC,User,-,"How many vowels are the two words combined?|Type your response below and then press Enter.",Study/JOL,"Study Phase",4606,,,4073,4073,,,,4,1
w319580,mo7vtpvz98,Nick_Dissertation_EX1b,1,57,2020-06-25T09:38:03-07:00,3.4599089622498,3,versionC_stim.csv,VC_VersionC.csv,"Version C","Version C",BIRD,SWAN,Study1,B,14,83,VC,User,-,"How many vowels are the two words combined?|Type your response below and then press Enter.",Study/JOL,"Study Phase",3124,,,2322,2322,,,,2,1
w319580,mo7vtpvz98,Nick_Dissertation_EX1b,1,58,2020-06-25T09:38:18-07:00,15.809907913208,3,versionC_stim.csv,VC_VersionC.csv,"Version C","Version C",OUT,WAY,Study1,B,16,54,VC,User,-,"How many vowels are the two words combined?|Type your response below and then press Enter.",Study/JOL,"Study Phase",3846,,,3266,3266,,,,3,0.95
w319580,mo7vtpvz98,Nick_Dissertation_EX1b,1,59,2020-06-25T09:38:25-07:00,6.6583449840546,3,versionC_stim.csv,VC_VersionC.csv,"Version C","Version C",COLD,BITTER,Study1,B,12,82,VC,User,-,"How many vowels are the two words combined?|Type your response below and then press Enter.",Study/JOL,"Study Phase",6305,,,5759,5759,,,,3,1
w319580,mo7vtpvz98,Nick_Dissertation_EX1b,1,60,2020-06-25T09:38:28-07:00,2.9410121440887,3,versionC_stim.csv,VC_VersionC.csv,"Version C","Version C",MONEY,WAGE,Study1,B,8,62,VC,User,-,"How many vowels are the two words combined?|Type your response below and then press Enter.",Study/JOL,"Study Phase",2620,,,2147,2147,,,,4,1
w319580,mo7vtpvz98,Nick_Dissertation_EX1b,1,61,2020-06-25T09:38:32-07:00,3.6671290397644,3,versionC_stim.csv,VC_VersionC.csv,"Version C","Version C",STING,HORNET,Study1,B,11,61,VC,User,-,"How many vowels are the two words combined?|Type your response below and then press Enter.",Study/JOL,"Study Phase",3361,,,2907,2907,,,,3,1
w319580,mo7vtpvz98,Nick_Dissertation_EX1b,1,62,2020-06-25T09:38:37-07:00,5.1221380233765,3,versionC_stim.csv,VC_VersionC.csv,"Version C","Version C",POSITION,MACHINE,Study1,U,76,13,VC,User,-,"How many vowels are the two words combined?|Type your response below and then press Enter.",Study/JOL,"Study Phase",4810,,,4415,4416,,,,7,1
w319580,mo7vtpvz98,Nick_Dissertation_EX1b,1,63,2020-06-25T09:38:39-07:00,2.6717319488525,3,versionC_stim.csv,VC_VersionC.csv,"Version C","Version C",DOG,PAW,Study1,B,15,72,VC,User,-,"How many vowels are the two words combined?|Type your response below and then press Enter.",Study/JOL,"Study Phase",2373,,,1653,1653,,,,2,1
w319580,mo7vtpvz98,Nick_Dissertation_EX1b,1,64,2020-06-25T09:38:44-07:00,4.2001008987427,3,versionC_stim.csv,VC_VersionC.csv,"Version C","Version C",SIP,DRINK,Study1,F,27,7,VC,User,-,"How many vowels are the two words combined?|Type your response below and then press Enter.",Study/JOL,"Study Phase",3897,,,2300,2300,,,,2,1
w319580,mo7vtpvz98,Nick_Dissertation_EX1b,1,65,2020-06-25T09:38:48-07:00,3.9712851047516,3,versionC_stim.csv,VC_VersionC.csv,"Version C","Version C",NEWS,EDITOR,Study1,B,10,53,VC,User,-,"How many vowels are the two words combined?|Type your response below and then press Enter.",Study/JOL,"Study Phase",3664,,,3189,3189,,,,4,1
w319580,mo7vtpvz98,Nick_Dissertation_EX1b,1,66,2020-06-25T09:38:51-07:00,3.2646889686584,3,versionC_stim.csv,VC_VersionC.csv,"Version C","Version C",VASE,KING,Study1,U,85,19,VC,User,-,"How many vowels are the two words combined?|Type your response below and then press Enter.",Study/JOL,"Study Phase",2966,,,2465,2465,,,,3,1
w319580,mo7vtpvz98,Nick_Dissertation_EX1b,1,67,2020-06-25T09:38:56-07:00,5.5685079097748,3,versionC_stim.csv,VC_VersionC.csv,"Version C","Version C",ASSIGNMENT,DUE,Study1,S,46,70,VC,User,-,"How many vowels are the two words combined?|Type your response below and then press Enter.",Study/JOL,"Study Phase",5253,,,4795,4795,,,,5,1
w319580,mo7vtpvz98,Nick_Dissertation_EX1b,1,68,2020-06-25T09:39:00-07:00,3.7324299812317,3,versionC_stim.csv,VC_VersionC.csv,"Version C","Version C",RIDDLE,SUGAR,Study1,U,81,24,VC,User,-,"How many vowels are the two words combined?|Type your response below and then press Enter.",Study/JOL,"Study Phase",3439,,,2976,2976,,,,4,1
w319580,mo7vtpvz98,Nick_Dissertation_EX1b,1,69,2020-06-25T09:39:04-07:00,3.8590440750122,3,versionC_stim.csv,VC_VersionC.csv,"Version C","Version C",FLOOR,DISCOVER,Study1,U,71,81,VC,User,-,"How many vowels are the two words combined?|Type your response below and then press Enter.",Study/JOL,"Study Phase",3551,,,3127,3127,,,,5,1
w319580,mo7vtpvz98,Nick_Dissertation_EX1b,1,70,2020-06-25T09:39:07-07:00,3.1218900680542,3,versionC_stim.csv,VC_VersionC.csv,"Version C","Version C",END,BEGIN,Study1,S,54,66,VC,User,-,"How many vowels are the two words combined?|Type your response below and then press Enter.",Study/JOL,"Study Phase",2822,,,2316,2316,,,,3,1
w319580,mo7vtpvz98,Nick_Dissertation_EX1b,1,71,2020-06-25T09:39:10-07:00,3.1528749465942,3,versionC_stim.csv,VC_VersionC.csv,"Version C","Version C",SICK,HIDE,Study1,U,84,55,VC,User,-,"How many vowels are the two words combined?|Type your response below and then press Enter.",Study/JOL,"Study Phase",2839,,,2334,2334,,,,3,1
w319580,mo7vtpvz98,Nick_Dissertation_EX1b,1,72,2020-06-25T09:39:19-07:00,8.4808158874512,3,versionC_stim.csv,VC_VersionC.csv,"Version C","Version C",SEIZE,TAKE,Study1,F,29,39,VC,User,-,"How many vowels are the two words combined?|Type your response below and then press Enter.",Study/JOL,"Study Phase",2003,,,1380,1380,,,,5,0.9
w319580,mo7vtpvz98,Nick_Dissertation_EX1b,1,73,2020-06-25T09:39:22-07:00,3.5341091156006,3,versionC_stim.csv,VC_VersionC.csv,"Version C","Version C",BAR,GRILL,Study1,S,52,29,VC,User,-,"How many vowels are the two words combined?|Type your response below and then press Enter.",Study/JOL,"Study Phase",3224,,,2345,2345,,,,2,1
w319580,mo7vtpvz98,Nick_Dissertation_EX1b,1,74,2020-06-25T09:39:26-07:00,3.9741868972778,3,versionC_stim.csv,VC_VersionC.csv,"Version C","Version C",CAR,HAPPY,Study1,U,77,50,VC,User,-,"How many vowels are the two words combined?|Type your response below and then press Enter.",Study/JOL,"Study Phase",3664,,,3109,3110,,,,2,1
w319580,mo7vtpvz98,Nick_Dissertation_EX1b,1,75,2020-06-25T09:39:29-07:00,2.9367501735687,3,versionC_stim.csv,VC_VersionC.csv,"Version C","Version C",BELT,SOON,Study1,U,70,59,VC,User,-,"How many vowels are the two words combined?|Type your response below and then press Enter.",Study/JOL,"Study Phase",2629,,,2011,2011,,,,3,1
w319580,mo7vtpvz98,Nick_Dissertation_EX1b,1,76,2020-06-25T09:39:34-07:00,4.6681718826294,3,versionC_stim.csv,VC_VersionC.csv,"Version C","Version C",BUSINESS,DEATH,Study1,U,72,10,VC,User,-,"How many vowels are the two words combined?|Type your response below and then press Enter.",Study/JOL,"Study Phase",4300,,,3846,3846,,,,5,1
w319580,mo7vtpvz98,Nick_Dissertation_EX1b,1,77,2020-06-25T09:39:38-07:00,4.0687999725342,3,versionC_stim.csv,VC_VersionC.csv,"Version C","Version C",HUNGRY,PARK,Study1,U,68,46,VC,User,-,"How many vowels are the two words combined?|Type your response below and then press Enter.",Study/JOL,"Study Phase",3753,,,3194,3194,,,,2,1
w319580,mo7vtpvz98,Nick_Dissertation_EX1b,1,78,2020-06-25T09:39:42-07:00,3.796746969223,3,versionC_stim.csv,VC_VersionC.csv,"Version C","Version C",ROCK,GEOLOGY,Study1,B,19,51,VC,User,-,"How many vowels are the two words combined?|Type your response below and then press Enter.",Study/JOL,"Study Phase",3500,,,3039,3039,,,,4,1
w319580,mo7vtpvz98,Nick_Dissertation_EX1b,1,79,2020-06-25T09:39:45-07:00,3.1763021945953,3,versionC_stim.csv,VC_VersionC.csv,"Version C","Version C",PLANT,ROOT,Study1,B,13,44,VC,User,-,"How many vowels are the two words combined?|Type your response below and then press Enter.",Study/JOL,"Study Phase",2869,,,2395,2395,,,,3,1
w319580,mo7vtpvz98,Nick_Dissertation_EX1b,1,80,2020-06-25T09:39:50-07:00,4.8129608631134,3,versionC_stim.csv,VC_VersionC.csv,"Version C","Version C",STENCH,SMELL,Study1,F,42,9,VC,User,-,"How many vowels are the two words combined?|Type your response below and then press Enter.",Study/JOL,"Study Phase",4503,,,3945,3946,,,,2,1
w319580,mo7vtpvz98,Nick_Dissertation_EX1b,1,81,2020-06-25T09:39:57-07:00,7.2697620391846,3,versionC_stim.csv,VC_VersionC.csv,"Version C","Version C",FLOWER,ORCHID,Study1,B,24,30,VC,User,-,"How many vowels are the two words combined?|Type your response below and then press Enter.",Study/JOL,"Study Phase",6965,,,5252,6397,,,,4,1
w319580,mo7vtpvz98,Nick_Dissertation_EX1b,1,82,2020-06-25T09:40:01-07:00,3.8058350086212,3,versionC_stim.csv,VC_VersionC.csv,"Version C","Version C",WATER,BRIDGE,Study1,B,18,48,VC,User,-,"How many vowels are the two words combined?|Type your response below and then press Enter.",Study/JOL,"Study Phase",3508,,,2928,2928,,,,4,1
w319580,mo7vtpvz98,Nick_Dissertation_EX1b,1,83,2020-06-25T09:40:04-07:00,2.9927520751953,3,versionC_stim.csv,VC_VersionC.csv,"Version C","Version C",CAVE,DARK,Study1,F,28,76,VC,User,-,"How many vowels are the two words combined?|Type your response below and then press Enter.",Study/JOL,"Study Phase",2410,,,1942,1942,,,,3,1
w319580,mo7vtpvz98,Nick_Dissertation_EX1b,1,84,2020-06-25T09:40:19-07:00,15.064310789108,3,versionC_stim.csv,VC_VersionC.csv,"Version C","Version C",DESIGN,ARCHITECTURE,Study1,S,51,8,VC,User,-,"How many vowels are the two words combined?|Type your response below and then press Enter.",Study/JOL,"Study Phase",14750,,,6736,14311,,,,7,1
w319580,mo7vtpvz98,Nick_Dissertation_EX1b,1,85,2020-06-25T09:40:22-07:00,3.0344700813293,3,versionC_stim.csv,VC_VersionC.csv,"Version C","Version C",CHILD,BABY,Study1,S,64,77,VC,User,-,"How many vowels are the two words combined?|Type your response below and then press Enter.",Study/JOL,"Study Phase",2732,,,2014,2014,,,,2,1
w319580,mo7vtpvz98,Nick_Dissertation_EX1b,1,86,2020-06-25T09:40:27-07:00,4.9039509296417,3,versionC_stim.csv,VC_VersionC.csv,"Version C","Version C",TALK,DISCUSSION,Study1,B,21,57,VC,User,-,"How many vowels are the two words combined?|Type your response below and then press Enter.",Study/JOL,"Study Phase",4600,,,4184,4184,,,,5,1
w319580,mo7vtpvz98,Nick_Dissertation_EX1b,1,87,2020-06-25T09:40:30-07:00,2.898313999176,3,versionC_stim.csv,VC_VersionC.csv,"Version C","Version C",WASTE,DUMP,Study1,S,49,75,VC,User,-,"How many vowels are the two words combined?|Type your response below and then press Enter.",Study/JOL,"Study Phase",2591,,,2130,2131,,,,3,1
w319580,mo7vtpvz98,Nick_Dissertation_EX1b,1,88,2020-06-25T09:40:33-07:00,3.22904920578,3,versionC_stim.csv,VC_VersionC.csv,"Version C","Version C",WASP,BUG,Study1,F,32,11,VC,User,-,"How many vowels are the two words combined?|Type your response below and then press Enter.",Study/JOL,"Study Phase",2922,,,1616,1616,,,,2,1
w319580,mo7vtpvz98,Nick_Dissertation_EX1b,1,89,2020-06-25T09:40:40-07:00,7.4457249641418,3,versionC_stim.csv,VC_VersionC.csv,"Version C","Version C",WORD,SENTENCE,Study1,F,31,84,VC,User,-,"How many vowels are the two words combined?|Type your response below and then press Enter.",Study/JOL,"Study Phase",7130,,,6687,6687,,,,4,1
w319580,mo7vtpvz98,Nick_Dissertation_EX1b,1,90,2020-06-25T09:40:45-07:00,4.5859868526459,3,versionC_stim.csv,VC_VersionC.csv,"Version C","Version C",POLICE,SHERRIF,BUFFER2,Buffer,87,89,VC,User,-,"How many vowels are the two words combined?|Type your response below and then press Enter.",Study/JOL,BUFFER2,4267,,,3826,3826,,,,5,1
w319580,mo7vtpvz98,Nick_Dissertation_EX1b,1,91,2020-06-25T09:40:49-07:00,3.8427400588989,3,versionC_stim.csv,VC_VersionC.csv,"Version C","Version C",GOOSE,GEESE,BUFFER2,Buffer,86,90,VC,User,-,"How many vowels are the two words combined?|Type your response below and then press Enter.",Study/JOL,BUFFER2,3532,,,3094,3094,,,,6,1
w319580,mo7vtpvz98,Nick_Dissertation_EX1b,1,92,2020-06-25T09:40:54-07:00,4.817831993103,3,versionC_stim.csv,VC_VersionC.csv,"Version C","Version C",STUFF,THING,BUFFER2,Buffer,90,88,VC,User,-,"How many vowels are the two words combined?|Type your response below and then press Enter.",Study/JOL,BUFFER2,4504,,,3770,3770,,,,2,1
w319580,mo7vtpvz98,Nick_Dissertation_EX1b,1,93,2020-06-25T09:40:59-07:00,5.3478801250458,3,versionC_stim.csv,VC_VersionC.csv,"Version C","Version C",CHOCOLATE,MALT,BUFFER2,Buffer,88,87,VC,User,-,"How many vowels are the two words combined?|Type your response below and then press Enter.",Study/JOL,BUFFER2,5005,,,4177,4177,,,,5,1
w319580,mo7vtpvz98,Nick_Dissertation_EX1b,1,94,2020-06-25T09:41:02-07:00,3.0937328338623,3,versionC_stim.csv,VC_VersionC.csv,"Version C","Version C",SPACE,MOON,BUFFER2,Buffer,89,91,VC,User,-,"How many vowels are the two words combined?|Type your response below and then press Enter.",Study/JOL,BUFFER2,2776,,,2330,2330,,,,4,1
w319580,mo7vtpvz98,Nick_Dissertation_EX1b,1,95,2020-06-25T09:41:09-07:00,6.5150570869446,3,versionC_stim.csv,VC_VersionC.csv,"Version C","Version C",,,,,,0,Instruct,User,-,"You have completed this section. Please press Enter.",Filler_Instruction,Instruct2,1098,,,-1,-1,,,,,0.833
w319580,mo7vtpvz98,Nick_Dissertation_EX1b,1,96,2020-06-25T09:43:09-07:00,120.34571695328,3,versionC_stim.csv,VC_VersionC.csv,"Version C","Version C",,,,,,0,FreeRecall,120,120,"Please list the 50 US states in alphabetical order. The task will automatically advance to the next screen after two minutes.",,Filler1,120006,"Alabama Colorado Connecticut Florida Maine Michigan Minnesotta Mississippi New Hampshire New Jersey Pennsylvania Texas ",0,7267,117666,0,0,,,1
w319580,mo7vtpvz98,Nick_Dissertation_EX1b,1,97,2020-06-25T09:43:23-07:00,14.415283918381,3,versionC_stim.csv,VC_VersionC.csv,"Version C","Version C",,,,,,0,Instruct,-,10,"You will now be presented with the first word from each of the previously studied item pairs. Please type the missing word. If you do not know the word, you may guess or press Enter to skip forward to the next pair.",,Instruct3,14109,,,-1,-1,,,,,1
w319580,mo7vtpvz98,Nick_Dissertation_EX1b,1,98,2020-06-25T09:43:29-07:00,5.2831811904907,3,versionC_stim.csv,VC_VersionC.csv,"Version C","Version C",COLD,BITTER,Study1,B,12,82,Test,User,-,,Recall,Recall1,4957,HOT,22.222222222222,2958,4397,0,0,,,1
w319580,mo7vtpvz98,Nick_Dissertation_EX1b,1,99,2020-06-25T09:43:32-07:00,3.8283259868622,3,versionC_stim.csv,VC_VersionC.csv,"Version C","Version C",STING,HORNET,Study1,B,11,61,Test,User,-,,Recall,Recall1,3515,,0,-1,-1,0,0,,,1
w319580,mo7vtpvz98,Nick_Dissertation_EX1b,1,100,2020-06-25T09:43:36-07:00,3.496652841568,3,versionC_stim.csv,VC_VersionC.csv,"Version C","Version C",CHILI,HOT,Study1,F,37,86,Test,User,-,,Recall,Recall1,3185,,0,-1,-1,0,0,,,1
w319580,mo7vtpvz98,Nick_Dissertation_EX1b,1,101,2020-06-25T09:43:39-07:00,3.368499994278,3,versionC_stim.csv,VC_VersionC.csv,"Version C","Version C",SALAD,LETTUCE,Study1,S,59,49,Test,User,-,,Recall,Recall1,3062,SOUP,18.181818181818,1355,2704,0,0,,,1
w319580,mo7vtpvz98,Nick_Dissertation_EX1b,1,102,2020-06-25T09:43:44-07:00,4.96577501297,3,versionC_stim.csv,VC_VersionC.csv,"Version C","Version C",RIDDLE,SUGAR,Study1,U,81,24,Test,User,-,,Recall,Recall1,4665,,0,-1,-1,0,0,,,1
w319580,mo7vtpvz98,Nick_Dissertation_EX1b,1,103,2020-06-25T09:43:49-07:00,4.9382350444794,3,versionC_stim.csv,VC_VersionC.csv,"Version C","Version C",HAND,FIX,Study1,U,75,47,Test,User,-,,Recall,Recall1,2228,FOOT,28.571428571429,1592,1973,0,0,,,1
w319580,mo7vtpvz98,Nick_Dissertation_EX1b,1,104,2020-06-25T09:43:52-07:00,3.0916810035706,3,versionC_stim.csv,VC_VersionC.csv,"Version C","Version C",DIVISION,MATH,Study1,F,33,31,Test,User,-,,Recall,Recall1,2786,,0,-1,-1,0,0,,,1
w319580,mo7vtpvz98,Nick_Dissertation_EX1b,1,105,2020-06-25T09:43:54-07:00,2.0667209625244,3,versionC_stim.csv,VC_VersionC.csv,"Version C","Version C",BLAZE,FIRE,Study1,F,45,20,Test,User,-,,Recall,Recall1,1818,,0,-1,-1,0,0,,,1
w319580,mo7vtpvz98,Nick_Dissertation_EX1b,1,106,2020-06-25T09:43:59-07:00,4.5215539932251,3,versionC_stim.csv,VC_VersionC.csv,"Version C","Version C",DOG,PAW,Study1,B,15,72,Test,User,-,,Recall,Recall1,4201,PAW,100,875,3857,1,1,,,1
w319580,mo7vtpvz98,Nick_Dissertation_EX1b,1,107,2020-06-25T09:44:02-07:00,3.074294090271,3,versionC_stim.csv,VC_VersionC.csv,"Version C","Version C",FAMINE,HUNGER,Study1,F,40,17,Test,User,-,,Recall,Recall1,2770,,0,1739,1740,0,0,,,1
w319580,mo7vtpvz98,Nick_Dissertation_EX1b,1,108,2020-06-25T09:44:05-07:00,2.9301381111145,3,versionC_stim.csv,VC_VersionC.csv,"Version C","Version C",VASE,KING,Study1,U,85,19,Test,User,-,,Recall,Recall1,2630,BOWL,0,2003,2361,0,0,,,1
w319580,mo7vtpvz98,Nick_Dissertation_EX1b,1,109,2020-06-25T09:44:17-07:00,11.940830945969,3,versionC_stim.csv,VC_VersionC.csv,"Version C","Version C",TALK,DISCUSSION,Study1,B,21,57,Test,User,-,,Recall,Recall1,11634,WHISPER,23.529411764706,8505,11064,0,0,,,1
w319580,mo7vtpvz98,Nick_Dissertation_EX1b,1,110,2020-06-25T09:44:20-07:00,2.9439768791199,3,versionC_stim.csv,VC_VersionC.csv,"Version C","Version C",ADD,VALLEY,Study1,U,82,15,Test,User,-,,Recall,Recall1,2631,COUNT,0,1969,2374,0,0,,,1
w319580,mo7vtpvz98,Nick_Dissertation_EX1b,1,111,2020-06-25T09:44:24-07:00,4.6147351264954,3,versionC_stim.csv,VC_VersionC.csv,"Version C","Version C",MONEY,WAGE,Study1,B,8,62,Test,User,-,,Recall,Recall1,4314,DOLLAR,20,2258,4073,0,0,,,1
w319580,mo7vtpvz98,Nick_Dissertation_EX1b,1,112,2020-06-25T09:44:34-07:00,9.3400728702545,3,versionC_stim.csv,VC_VersionC.csv,"Version C","Version C",OUT,WAY,Study1,B,16,54,Test,User,-,,Recall,Recall1,9029,IN,0,2448,8703,0,0,,,1
w319580,mo7vtpvz98,Nick_Dissertation_EX1b,1,113,2020-06-25T09:44:43-07:00,8.8602061271667,3,versionC_stim.csv,VC_VersionC.csv,"Version C","Version C",CHEESE,WINE,Study1,S,57,80,Test,User,-,,Recall,Recall1,8541,SLICE,44.444444444444,7711,8152,0,0,,,1
w319580,mo7vtpvz98,Nick_Dissertation_EX1b,1,114,2020-06-25T09:44:44-07:00,1.6252648830414,3,versionC_stim.csv,VC_VersionC.csv,"Version C","Version C",LIVER,KIDNEY,Study1,S,53,43,Test,User,-,,Recall,Recall1,1386,,0,-1,-1,0,0,,,1
w319580,mo7vtpvz98,Nick_Dissertation_EX1b,1,115,2020-06-25T09:44:51-07:00,6.6096460819244,3,versionC_stim.csv,VC_VersionC.csv,"Version C","Version C",ROCK,GEOLOGY,Study1,B,19,51,Test,User,-,,Recall,Recall1,6298,,0,-1,-1,0,0,,,1
w319580,mo7vtpvz98,Nick_Dissertation_EX1b,1,116,2020-06-25T09:44:52-07:00,1.1190800666809,3,versionC_stim.csv,VC_VersionC.csv,"Version C","Version C",SIGHT,DEBATE,Study1,U,73,28,Test,User,-,,Recall,Recall1,881,,0,-1,-1,0,0,,,1
w319580,mo7vtpvz98,Nick_Dissertation_EX1b,1,117,2020-06-25T09:44:53-07:00,1.2587778568268,3,versionC_stim.csv,VC_VersionC.csv,"Version C","Version C",TUCK,ALLOW,Study1,U,78,85,Test,User,-,,Recall,Recall1,1021,,0,-1,-1,0,0,,,1
w319580,mo7vtpvz98,Nick_Dissertation_EX1b,1,118,2020-06-25T09:44:55-07:00,1.9688899517059,3,versionC_stim.csv,VC_VersionC.csv,"Version C","Version C",CLEAN,HYGIENE,Study1,B,17,41,Test,User,-,,Recall,Recall1,1728,,0,-1,-1,0,0,,,1
w319580,mo7vtpvz98,Nick_Dissertation_EX1b,1,119,2020-06-25T09:45:00-07:00,5.2171170711517,3,versionC_stim.csv,VC_VersionC.csv,"Version C","Version C",TOILET,BATHROOM,Study1,S,58,56,Test,User,-,,Recall,Recall1,4907,SEAT,33.333333333333,3654,4037,0,0,,,1
w319580,mo7vtpvz98,Nick_Dissertation_EX1b,1,120,2020-06-25T09:45:04-07:00,3.6183519363403,3,versionC_stim.csv,VC_VersionC.csv,"Version C","Version C",COW,HERD,Study1,B,22,25,Test,User,-,,Recall,Recall1,3293,MOO,0,2763,3085,0,0,,,1
w319580,mo7vtpvz98,Nick_Dissertation_EX1b,1,121,2020-06-25T09:45:07-07:00,2.6595871448517,3,versionC_stim.csv,VC_VersionC.csv,"Version C","Version C",CAR,HAPPY,Study1,U,77,50,Test,User,-,,Recall,Recall1,2333,,0,-1,-1,0,0,,,1
w319580,mo7vtpvz98,Nick_Dissertation_EX1b,1,122,2020-06-25T09:45:14-07:00,7.4533009529114,3,versionC_stim.csv,VC_VersionC.csv,"Version C","Version C",END,BEGIN,Study1,S,54,66,Test,User,-,,Recall,Recall1,7132,BEGINNING,71.428571428571,3745,6513,0,0,,,1
w319580,mo7vtpvz98,Nick_Dissertation_EX1b,1,123,2020-06-25T09:45:24-07:00,9.5715239048004,3,versionC_stim.csv,VC_VersionC.csv,"Version C","Version C",WOMAN,LIFT,Study1,U,69,36,Test,User,-,,Recall,Recall1,2566,MAN,0,1275,1500,0,0,,,0.923
w319580,mo7vtpvz98,Nick_Dissertation_EX1b,1,124,2020-06-25T09:45:28-07:00,3.9358041286469,3,versionC_stim.csv,VC_VersionC.csv,"Version C","Version C",WIND,BLOW,Study1,S,55,26,Test,User,-,,Recall,Recall1,3639,,0,-1,-1,0,0,,,1
w319580,mo7vtpvz98,Nick_Dissertation_EX1b,1,125,2020-06-25T09:45:33-07:00,5.1970729827881,3,versionC_stim.csv,VC_VersionC.csv,"Version C","Version C",STOMACH,DIGESTION,Study1,B,7,12,Test,User,-,,Recall,Recall1,4879,,0,-1,-1,0,0,,,1
w319580,mo7vtpvz98,Nick_Dissertation_EX1b,1,126,2020-06-25T09:45:39-07:00,6.4736070632935,3,versionC_stim.csv,VC_VersionC.csv,"Version C","Version C",STENCH,SMELL,Study1,F,42,9,Test,User,-,,Recall,Recall1,1261,,0,-1,-1,0,0,,,0.857
w319580,mo7vtpvz98,Nick_Dissertation_EX1b,1,127,2020-06-25T09:45:59-07:00,19.222369909286,3,versionC_stim.csv,VC_VersionC.csv,"Version C","Version C",WOULD,CASH,Study1,U,83,69,Test,User,-,,Recall,Recall1,18905,COULD,22.222222222222,18058,18717,0,0,,,1
w319580,mo7vtpvz98,Nick_Dissertation_EX1b,1,128,2020-06-25T09:46:01-07:00,2.0864839553833,3,versionC_stim.csv,VC_VersionC.csv,"Version C","Version C",HAMMER,CHISEL,Study1,B,9,67,Test,User,-,,Recall,Recall1,1831,,0,-1,-1,0,0,,,1
w319580,mo7vtpvz98,Nick_Dissertation_EX1b,1,129,2020-06-25T09:46:03-07:00,2.463751077652,3,versionC_stim.csv,VC_VersionC.csv,"Version C","Version C",PLANT,ROOT,Study1,B,13,44,Test,User,-,,Recall,Recall1,2148,FLOWER,20,1319,1917,0,0,,,1
w319580,mo7vtpvz98,Nick_Dissertation_EX1b,1,130,2020-06-25T09:46:06-07:00,3.1237349510193,3,versionC_stim.csv,VC_VersionC.csv,"Version C","Version C",LION,ART,Study1,U,79,64,Test,User,-,,Recall,Recall1,2814,CUB,0,2246,2511,0,0,,,1
w319580,mo7vtpvz98,Nick_Dissertation_EX1b,1,131,2020-06-25T09:46:12-07:00,6.0692110061646,3,versionC_stim.csv,VC_VersionC.csv,"Version C","Version C",GROWTH,HEIGHT,Study1,F,30,45,Test,User,-,,Recall,Recall1,779,,0,-1,-1,0,0,,,0.75
w319580,mo7vtpvz98,Nick_Dissertation_EX1b,1,132,2020-06-25T09:46:15-07:00,3.0443580150604,3,versionC_stim.csv,VC_VersionC.csv,"Version C","Version C",NEWS,EDITOR,Study1,B,10,53,Test,User,-,,Recall,Recall1,2737,,0,-1,-1,0,0,,,1
w319580,mo7vtpvz98,Nick_Dissertation_EX1b,1,133,2020-06-25T09:46:20-07:00,4.8652360439301,3,versionC_stim.csv,VC_VersionC.csv,"Version C","Version C",FISH,TUNA,Study1,B,25,65,Test,User,-,,Recall,Recall1,4549,RIVER,0,2468,4351,0,0,,,1
w319580,mo7vtpvz98,Nick_Dissertation_EX1b,1,134,2020-06-25T09:46:25-07:00,5.2296679019928,3,versionC_stim.csv,VC_VersionC.csv,"Version C","Version C",ASSIGNMENT,DUE,Study1,S,46,70,Test,User,-,,Recall,Recall1,4917,HOMEWORK,18.181818181818,3968,4634,0,0,,,1
w319580,mo7vtpvz98,Nick_Dissertation_EX1b,1,135,2020-06-25T09:46:28-07:00,2.3453130722046,3,versionC_stim.csv,VC_VersionC.csv,"Version C","Version C",BRONZE,ARTERY,Study1,U,74,74,Test,User,-,,Recall,Recall1,2029,MEDAL,18.181818181818,1260,1747,0,0,,,1
w319580,mo7vtpvz98,Nick_Dissertation_EX1b,1,136,2020-06-25T09:46:37-07:00,8.7692320346832,3,versionC_stim.csv,VC_VersionC.csv,"Version C","Version C",BIRD,SWAN,Study1,B,14,83,Test,User,-,,Recall,Recall1,8439,CHIRP,0,3400,8068,0,0,,,1
w319580,mo7vtpvz98,Nick_Dissertation_EX1b,1,137,2020-06-25T09:46:39-07:00,2.7560460567474,3,versionC_stim.csv,VC_VersionC.csv,"Version C","Version C",CARD,CREDIT,Study1,B,23,33,Test,User,-,,Recall,Recall1,2427,CREDIT,100,1442,2206,1,1,,,1
w319580,mo7vtpvz98,Nick_Dissertation_EX1b,1,138,2020-06-25T09:46:48-07:00,8.477874994278,3,versionC_stim.csv,VC_VersionC.csv,"Version C","Version C",WAR,REVOLUTION,Study1,B,20,14,Test,User,-,,Recall,Recall1,2755,PEACE,13.333333333333,2108,2471,0,0,,,0.929
w319580,mo7vtpvz98,Nick_Dissertation_EX1b,1,139,2020-06-25T09:46:54-07:00,6.1426129341125,3,versionC_stim.csv,VC_VersionC.csv,"Version C","Version C",SODA,POP,Study1,S,56,35,Test,User,-,,Recall,Recall1,1404,CAN,0,1003,1161,0,0,,,0.857
w319580,mo7vtpvz98,Nick_Dissertation_EX1b,1,140,2020-06-25T09:46:58-07:00,4.046000957489,3,versionC_stim.csv,VC_VersionC.csv,"Version C","Version C",WATER,BRIDGE,Study1,B,18,48,Test,User,-,,Recall,Recall1,3732,FALL,0,2977,3289,0,0,,,1
w319580,mo7vtpvz98,Nick_Dissertation_EX1b,1,141,2020-06-25T09:47:01-07:00,3.459988117218,3,versionC_stim.csv,VC_VersionC.csv,"Version C","Version C",FANTASTIC,GREAT,Study1,F,35,40,Test,User,-,,Recall,Recall1,3157,GOOD,22.222222222222,2574,2986,0,0,,,1
w319580,mo7vtpvz98,Nick_Dissertation_EX1b,1,142,2020-06-25T09:47:03-07:00,1.5676739215851,3,versionC_stim.csv,VC_VersionC.csv,"Version C","Version C",SITE,LOCATION,Study1,S,48,78,Test,User,-,,Recall,Recall1,1323,,0,-1,-1,0,0,,,1
w319580,mo7vtpvz98,Nick_Dissertation_EX1b,1,143,2020-06-25T09:47:06-07:00,3.4797439575195,3,versionC_stim.csv,VC_VersionC.csv,"Version C","Version C",RACKET,BALL,Study1,F,38,58,Test,User,-,,Recall,Recall1,3154,,0,-1,-1,0,0,,,1
w319580,mo7vtpvz98,Nick_Dissertation_EX1b,1,144,2020-06-25T09:47:08-07:00,2.0498468875885,3,versionC_stim.csv,VC_VersionC.csv,"Version C","Version C",SEIZE,TAKE,Study1,F,29,39,Test,User,-,,Recall,Recall1,1769,TAKE,100,1302,1583,1,1,,,1
w319580,mo7vtpvz98,Nick_Dissertation_EX1b,1,145,2020-06-25T09:47:11-07:00,2.8375651836395,3,versionC_stim.csv,VC_VersionC.csv,"Version C","Version C",FLOWER,ORCHID,Study1,B,24,30,Test,User,-,,Recall,Recall1,2515,PLANT,0,1286,1855,0,0,,,1
w319580,mo7vtpvz98,Nick_Dissertation_EX1b,1,146,2020-06-25T09:47:16-07:00,4.603061914444,3,versionC_stim.csv,VC_VersionC.csv,"Version C","Version C",AMOUNT,NUMBER,Study1,S,47,23,Test,User,-,,Recall,Recall1,4282,MONEY,36.363636363636,3325,3977,0,0,,,1
w319580,mo7vtpvz98,Nick_Dissertation_EX1b,1,147,2020-06-25T09:47:21-07:00,5.5315270423889,3,versionC_stim.csv,VC_VersionC.csv,"Version C","Version C",BUSINESS,DEATH,Study1,U,72,10,Test,User,-,,Recall,Recall1,5223,WORK,0,4658,4917,0,0,,,1
w319580,mo7vtpvz98,Nick_Dissertation_EX1b,1,148,2020-06-25T09:47:30-07:00,8.9423060417175,3,versionC_stim.csv,VC_VersionC.csv,"Version C","Version C",FLOOR,DISCOVER,Study1,U,71,81,Test,User,-,,Recall,Recall1,8620,,0,-1,-1,0,0,,,1
w319580,mo7vtpvz98,Nick_Dissertation_EX1b,1,149,2020-06-25T09:47:33-07:00,2.7013189792633,3,versionC_stim.csv,VC_VersionC.csv,"Version C","Version C",LATCH,KEY,Study1,F,36,73,Test,User,-,,Recall,Recall1,2310,,0,-1,-1,0,0,,,1
w319580,mo7vtpvz98,Nick_Dissertation_EX1b,1,150,2020-06-25T09:47:45-07:00,11.532701015472,3,versionC_stim.csv,VC_VersionC.csv,"Version C","Version C",CHILD,BABY,Study1,S,64,77,Test,User,-,,Recall,Recall1,848,,0,-1,-1,0,0,,,0.8
w319580,mo7vtpvz98,Nick_Dissertation_EX1b,1,151,2020-06-25T09:47:48-07:00,3.3695390224457,3,versionC_stim.csv,VC_VersionC.csv,"Version C","Version C",JURY,TRIAL,Study1,S,50,32,Test,User,-,,Recall,Recall1,3061,COURT,20,2386,2825,0,0,,,1
w319580,mo7vtpvz98,Nick_Dissertation_EX1b,1,152,2020-06-25T09:47:51-07:00,2.6905739307404,3,versionC_stim.csv,VC_VersionC.csv,"Version C","Version C",DROWSY,SLEEP,Study1,F,41,60,Test,User,-,,Recall,Recall1,2386,SLEEPY,90.909090909091,1160,2083,0,1,,,1
w319580,mo7vtpvz98,Nick_Dissertation_EX1b,1,153,2020-06-25T09:47:57-07:00,6.4602499008179,3,versionC_stim.csv,VC_VersionC.csv,"Version C","Version C",DESIGN,ARCHITECTURE,Study1,S,51,8,Test,User,-,,Recall,Recall1,1402,,0,-1,-1,0,0,,,0.857
w319580,mo7vtpvz98,Nick_Dissertation_EX1b,1,154,2020-06-25T09:48:00-07:00,2.9905340671539,3,versionC_stim.csv,VC_VersionC.csv,"Version C","Version C",ENOUGH,FULL,Study1,F,26,21,Test,User,-,,Recall,Recall1,2669,,0,-1,-1,0,0,,,1
w319580,mo7vtpvz98,Nick_Dissertation_EX1b,1,155,2020-06-25T09:48:05-07:00,5.2117581367493,3,versionC_stim.csv,VC_VersionC.csv,"Version C","Version C",ACCIDENT,STRONG,Study1,U,80,68,Test,User,-,,Recall,Recall1,4863,PURPOSE,30.769230769231,3890,4658,0,0,,,1
w319580,mo7vtpvz98,Nick_Dissertation_EX1b,1,156,2020-06-25T09:48:08-07:00,2.957671880722,3,versionC_stim.csv,VC_VersionC.csv,"Version C","Version C",PILOT,PLANE,Study1,F,44,71,Test,User,-,,Recall,Recall1,2610,AIRPLANE,76.923076923077,1541,2412,0,1,,,1
w319580,mo7vtpvz98,Nick_Dissertation_EX1b,1,157,2020-06-25T09:48:10-07:00,1.9938731193542,3,versionC_stim.csv,VC_VersionC.csv,"Version C","Version C",SACKING,DIETARY,Study1,U,67,34,Test,User,-,,Recall,Recall1,1750,,0,-1,-1,0,0,,,1
w319580,mo7vtpvz98,Nick_Dissertation_EX1b,1,158,2020-06-25T09:48:14-07:00,3.6197528839111,3,versionC_stim.csv,VC_VersionC.csv,"Version C","Version C",HUNGRY,PARK,Study1,U,68,46,Test,User,-,,Recall,Recall1,3311,STARVING,33.333333333333,2233,3129,0,0,,,1
w319580,mo7vtpvz98,Nick_Dissertation_EX1b,1,159,2020-06-25T09:48:18-07:00,3.9815630912781,3,versionC_stim.csv,VC_VersionC.csv,"Version C","Version C",BAR,GRILL,Study1,S,52,29,Test,User,-,,Recall,Recall1,3684,BEER,22.222222222222,2451,2967,0,0,,,1
w319580,mo7vtpvz98,Nick_Dissertation_EX1b,1,160,2020-06-25T09:48:20-07:00,1.7286729812622,3,versionC_stim.csv,VC_VersionC.csv,"Version C","Version C",FOOT,SHOE,Study1,S,60,52,Test,User,-,,Recall,Recall1,1492,HAND,25,963,1199,0,0,,,1
w319580,mo7vtpvz98,Nick_Dissertation_EX1b,1,161,2020-06-25T09:48:21-07:00,1.6620390415192,3,versionC_stim.csv,VC_VersionC.csv,"Version C","Version C",POSITION,MACHINE,Study1,U,76,13,Test,User,-,,Recall,Recall1,1404,,0,-1,-1,0,0,,,1
w319580,mo7vtpvz98,Nick_Dissertation_EX1b,1,162,2020-06-25T09:48:24-07:00,2.6570229530334,3,versionC_stim.csv,VC_VersionC.csv,"Version C","Version C",ATTIRE,CLOTHES,Study1,F,43,27,Test,User,-,,Recall,Recall1,2344,CLOTHES,100,1164,2015,1,1,,,1
w319580,mo7vtpvz98,Nick_Dissertation_EX1b,1,163,2020-06-25T09:48:26-07:00,2.3808720111847,3,versionC_stim.csv,VC_VersionC.csv,"Version C","Version C",SIP,DRINK,Study1,F,27,7,Test,User,-,,Recall,Recall1,2073,DRINK,100,1303,1786,1,1,,,1
w319580,mo7vtpvz98,Nick_Dissertation_EX1b,1,164,2020-06-25T09:48:28-07:00,1.9330928325653,3,versionC_stim.csv,VC_VersionC.csv,"Version C","Version C",CHORE,WORK,Study1,F,39,16,Test,User,-,,Recall,Recall1,1675,SING,0,1217,1481,0,0,,,1
w319580,mo7vtpvz98,Nick_Dissertation_EX1b,1,165,2020-06-25T09:48:30-07:00,1.948765039444,3,versionC_stim.csv,VC_VersionC.csv,"Version C","Version C",FUTURE,PAST,Study1,S,61,42,Test,User,-,,Recall,Recall1,1684,PAST,100,1040,1404,1,1,,,1
w319580,mo7vtpvz98,Nick_Dissertation_EX1b,1,166,2020-06-25T09:48:34-07:00,4.0600171089172,3,versionC_stim.csv,VC_VersionC.csv,"Version C","Version C",CAVE,DARK,Study1,F,28,76,Test,User,-,,Recall,Recall1,3759,HOLE,0,2475,2954,0,0,,,1
w319580,mo7vtpvz98,Nick_Dissertation_EX1b,1,167,2020-06-25T09:48:38-07:00,3.3327169418335,3,versionC_stim.csv,VC_VersionC.csv,"Version C","Version C",BELT,SOON,Study1,U,70,59,Test,User,-,,Recall,Recall1,3018,PANTS,22.222222222222,1974,2426,0,0,,,1
w319580,mo7vtpvz98,Nick_Dissertation_EX1b,1,168,2020-06-25T09:48:41-07:00,3.4116959571838,3,versionC_stim.csv,VC_VersionC.csv,"Version C","Version C",WORD,SENTENCE,Study1,F,31,84,Test,User,-,,Recall,Recall1,3101,PHRASE,28.571428571429,1150,1653,0,0,,,1
w319580,mo7vtpvz98,Nick_Dissertation_EX1b,1,169,2020-06-25T09:48:44-07:00,2.9684100151062,3,versionC_stim.csv,VC_VersionC.csv,"Version C","Version C",ROUND,CIRCLE,Study1,S,65,37,Test,User,-,,Recall,Recall1,2664,SQUARE,33.333333333333,1617,2428,0,0,,,1
w319580,mo7vtpvz98,Nick_Dissertation_EX1b,1,170,2020-06-25T09:48:46-07:00,2.0499880313873,3,versionC_stim.csv,VC_VersionC.csv,"Version C","Version C",BAD,DELINQUENT,Study1,B,6,79,Test,User,-,,Recall,Recall1,1811,GOOD,14.285714285714,1014,1636,0,0,,,1
w319580,mo7vtpvz98,Nick_Dissertation_EX1b,1,171,2020-06-25T09:48:49-07:00,3.0393130779266,3,versionC_stim.csv,VC_VersionC.csv,"Version C","Version C",DEFINITION,MEANING,Study1,S,62,63,Test,User,-,,Recall,Recall1,2725,,0,-1,-1,0,0,,,1
w319580,mo7vtpvz98,Nick_Dissertation_EX1b,1,172,2020-06-25T09:48:52-07:00,3.0565609931946,3,versionC_stim.csv,VC_VersionC.csv,"Version C","Version C",WASP,BUG,Study1,F,32,11,Test,User,-,,Recall,Recall1,2744,BUG,100,2227,2439,1,1,,,1
w319580,mo7vtpvz98,Nick_Dissertation_EX1b,1,173,2020-06-25T09:48:56-07:00,3.7692530155182,3,versionC_stim.csv,VC_VersionC.csv,"Version C","Version C",ATTORNEY,LAW,Study1,F,34,22,Test,User,-,,Recall,Recall1,3452,LAW,100,2933,3150,1,1,,,1
w319580,mo7vtpvz98,Nick_Dissertation_EX1b,1,174,2020-06-25T09:49:01-07:00,4.703094959259,3,versionC_stim.csv,VC_VersionC.csv,"Version C","Version C",WASTE,DUMP,Study1,S,49,75,Test,User,-,,Recall,Recall1,4388,GARBAGE,0,2955,4097,0,0,,,1
w319580,mo7vtpvz98,Nick_Dissertation_EX1b,1,175,2020-06-25T09:49:04-07:00,3.4679579734802,3,versionC_stim.csv,VC_VersionC.csv,"Version C","Version C",SICK,HIDE,Study1,U,84,55,Test,User,-,,Recall,Recall1,3161,HEALTHY,36.363636363636,2351,2938,0,0,,,1
w319580,mo7vtpvz98,Nick_Dissertation_EX1b,1,176,2020-06-25T09:49:07-07:00,3.1441159248352,3,versionC_stim.csv,VC_VersionC.csv,"Version C","Version C",BEE,HONEY,Study1,S,63,38,Test,User,-,,Recall,Recall1,2835,HIVE,44.444444444444,1151,2675,0,0,,,1
w319580,mo7vtpvz98,Nick_Dissertation_EX1b,1,177,2020-06-25T09:49:13-07:00,6.0182290077209,3,versionC_stim.csv,VC_VersionC.csv,"Version C","Version C",CLUTTER,PUSHER,Study1,U,66,18,Test,User,-,,Recall,Recall1,1363,MESS,20,819,1212,0,0,,,0.857
w319580,mo7vtpvz98,Nick_Dissertation_EX1b,1,178,2020-06-25T09:49:28-07:00,14.328073978424,3,versionC_stim.csv,VC_VersionC.csv,"Version C","Version C",,,,,,0,Instruct,-,10,"You will now be presented with a new set of word pairs. Please study each pair. Remember that your memory will be tested! When finished, press Enter to move to the next pair.",Initial_Instruct,Instruct4,14008,,,-1,-1,,,,,1
w319580,mo7vtpvz98,Nick_Dissertation_EX1b,1,179,2020-06-25T09:49:51-07:00,23.449815988541,3,versionC_stim.csv,VC_VersionC.csv,"Version C","Version C",,,,,,0,Instruct,,10,"You will again be asked to count how many vowels the two words contain. Please remember to type this number in the space below each pair.",,Instruct10,23120,,,-1,-1,,,,,1
w319580,mo7vtpvz98,Nick_Dissertation_EX1b,1,180,2020-06-25T09:49:53-07:00,2.0735850334167,3,versionC_stim.csv,VC_VersionC.csv,"Version C","Version C",,,,,,0,Instruct,User,-,"Press Enter when you are readty to begin",,Instruct11,1838,,,-1,-1,,,,,1
w319580,mo7vtpvz98,Nick_Dissertation_EX1b,1,181,2020-06-25T09:49:59-07:00,6.1616570949554,3,versionC_stim.csv,VC_VersionC.csv,"Version C","Version C",FISH,SHRIMP,BUFFER3,Buffer,93,96,VC,User,-,"How many vowels are the two words combined?|Type your response below and then press Enter.",Study/JOL,BUFFER3,5841,,,5527,5527,,,,2,1
w319580,mo7vtpvz98,Nick_Dissertation_EX1b,1,182,2020-06-25T09:50:03-07:00,3.8096308708191,3,versionC_stim.csv,VC_VersionC.csv,"Version C","Version C",FROZEN,ICE,BUFFER3,Buffer,94,92,VC,User,-,"How many vowels are the two words combined?|Type your response below and then press Enter.",Study/JOL,BUFFER3,3494,,,2791,2791,,,,4,1
w319580,mo7vtpvz98,Nick_Dissertation_EX1b,1,183,2020-06-25T09:50:08-07:00,4.596431016922,3,versionC_stim.csv,VC_VersionC.csv,"Version C","Version C",POTATO,CARROT,BUFFER3,Buffer,91,95,VC,User,-,"How many vowels are the two words combined?|Type your response below and then press Enter.",Study/JOL,BUFFER3,4282,,,3982,3982,,,,5,1
w319580,mo7vtpvz98,Nick_Dissertation_EX1b,1,184,2020-06-25T09:50:13-07:00,5.4707729816437,3,versionC_stim.csv,VC_VersionC.csv,"Version C","Version C",ADVENTURE,CAMP,BUFFER3,Buffer,95,94,VC,User,-,"How many vowels are the two words combined?|Type your response below and then press Enter.",Study/JOL,BUFFER3,5132,,,4840,4840,,,,5,1
w319580,mo7vtpvz98,Nick_Dissertation_EX1b,1,185,2020-06-25T09:50:18-07:00,5.0399770736694,3,versionC_stim.csv,VC_VersionC.csv,"Version C","Version C",STRING,NOODLE,BUFFER3,Buffer,92,93,VC,User,-,"How many vowels are the two words combined?|Type your response below and then press Enter.",Study/JOL,BUFFER3,4740,,,4342,4342,,,,4,1
w319580,mo7vtpvz98,Nick_Dissertation_EX1b,1,186,2020-06-25T09:50:24-07:00,5.3914079666138,3,versionC_stim.csv,VC_VersionC.csv,"Version C","Version C",JOKE,KEYS,Study2,U,165,176,VC,User,-,"How many vowels are the two words combined?|Type your response below and then press Enter.",Study/JOL,"Study Phase2",5071,,,3274,3274,,,,3,1
w319580,mo7vtpvz98,Nick_Dissertation_EX1b,1,187,2020-06-25T09:50:27-07:00,3.2958791255951,3,versionC_stim.csv,VC_VersionC.csv,"Version C","Version C",FLIP,TURN,Study2,F,116,118,VC,User,-,"How many vowels are the two words combined?|Type your response below and then press Enter.",Study/JOL,"Study Phase2",2973,,,2562,2562,,,,2,1
w319580,mo7vtpvz98,Nick_Dissertation_EX1b,1,188,2020-06-25T09:50:31-07:00,3.9686398506165,3,versionC_stim.csv,VC_VersionC.csv,"Version C","Version C",JAR,MASON,Study2,S,138,104,VC,User,-,"How many vowels are the two words combined?|Type your response below and then press Enter.",Study/JOL,"Study Phase2",3566,,,3349,3349,,,,3,1
w319580,mo7vtpvz98,Nick_Dissertation_EX1b,1,189,2020-06-25T09:50:37-07:00,6.4667930603027,3,versionC_stim.csv,VC_VersionC.csv,"Version C","Version C",SCISSORS,SHEARS,Study2,B,112,166,VC,User,-,"How many vowels are the two words combined?|Type your response below and then press Enter.",Study/JOL,"Study Phase2",6001,,,5564,5565,,,,4,1
w319580,mo7vtpvz98,Nick_Dissertation_EX1b,1,190,2020-06-25T09:50:42-07:00,4.2154738903046,3,versionC_stim.csv,VC_VersionC.csv,"Version C","Version C",LONELY,ALONE,Study2,S,145,150,VC,User,-,"How many vowels are the two words combined?|Type your response below and then press Enter.",Study/JOL,"Study Phase2",3878,,,3088,3088,,,,5,1
w319580,mo7vtpvz98,Nick_Dissertation_EX1b,1,191,2020-06-25T09:50:47-07:00,5.2976760864258,3,versionC_stim.csv,VC_VersionC.csv,"Version C","Version C",LEAGUE,BASEBALL,Study2,F,131,163,VC,User,-,"How many vowels are the two words combined?|Type your response below and then press Enter.",Study/JOL,"Study Phase2",4972,,,4860,4860,,,,7,1
w319580,mo7vtpvz98,Nick_Dissertation_EX1b,1,192,2020-06-25T09:50:51-07:00,4.6555769443512,3,versionC_stim.csv,VC_VersionC.csv,"Version C","Version C",CHILDREN,MIRROR,Study2,U,174,119,VC,User,-,"How many vowels are the two words combined?|Type your response below and then press Enter.",Study/JOL,"Study Phase2",4345,,,3335,3335,,,,4,1
w319580,mo7vtpvz98,Nick_Dissertation_EX1b,1,193,2020-06-25T09:50:58-07:00,6.1617631912231,3,versionC_stim.csv,VC_VersionC.csv,"Version C","Version C",SARDINE,FISH,Study2,F,130,137,VC,User,-,"How many vowels are the two words combined?|Type your response below and then press Enter.",Study/JOL,"Study Phase2",5860,,,5664,5664,,,,4,1
w319580,mo7vtpvz98,Nick_Dissertation_EX1b,1,194,2020-06-25T09:51:01-07:00,3.4091489315033,3,versionC_stim.csv,VC_VersionC.csv,"Version C","Version C",SHAVE,RAZOR,Study2,S,136,172,VC,User,-,"How many vowels are the two words combined?|Type your response below and then press Enter.",Study/JOL,"Study Phase2",3079,,,2717,2717,,,,4,1
w319580,mo7vtpvz98,Nick_Dissertation_EX1b,1,195,2020-06-25T09:51:04-07:00,3.0581870079041,3,versionC_stim.csv,VC_VersionC.csv,"Version C","Version C",HAVE,OWN,Study2,S,153,102,VC,User,-,"How many vowels are the two words combined?|Type your response below and then press Enter.",Study/JOL,"Study Phase2",2713,,,2575,2575,,,,3,1
w319580,mo7vtpvz98,Nick_Dissertation_EX1b,1,196,2020-06-25T09:51:09-07:00,5.1325979232788,3,versionC_stim.csv,VC_VersionC.csv,"Version C","Version C",SMELL,INCENSE,Study2,B,110,162,VC,User,-,"How many vowels are the two words combined?|Type your response below and then press Enter.",Study/JOL,"Study Phase2",4771,,,4673,4673,,,,4,1
w319580,mo7vtpvz98,Nick_Dissertation_EX1b,1,197,2020-06-25T09:51:14-07:00,4.4219300746918,3,versionC_stim.csv,VC_VersionC.csv,"Version C","Version C",ABLE,CRACKLE,Study2,U,162,153,VC,User,-,"How many vowels are the two words combined?|Type your response below and then press Enter.",Study/JOL,"Study Phase2",4044,,,3358,3358,,,,4,1
w319580,mo7vtpvz98,Nick_Dissertation_EX1b,1,198,2020-06-25T09:51:18-07:00,4.1182968616486,3,versionC_stim.csv,VC_VersionC.csv,"Version C","Version C",DOG,FURRY,Study2,B,102,126,VC,User,-,"How many vowels are the two words combined?|Type your response below and then press Enter.",Study/JOL,"Study Phase2",3798,,,3268,3269,,,,2,1
w319580,mo7vtpvz98,Nick_Dissertation_EX1b,1,199,2020-06-25T09:51:23-07:00,5.3830051422119,3,versionC_stim.csv,VC_VersionC.csv,"Version C","Version C",CLOTH,STRETCH,Study2,U,157,147,VC,User,-,"How many vowels are the two words combined?|Type your response below and then press Enter.",Study/JOL,"Study Phase2",5039,,,4464,4464,,,,2,1
w319580,mo7vtpvz98,Nick_Dissertation_EX1b,1,200,2020-06-25T09:51:28-07:00,4.8994188308716,3,versionC_stim.csv,VC_VersionC.csv,"Version C","Version C",SHAKE,Shell,Study2,U,163,108,VC,User,-,"How many vowels are the two words combined?|Type your response below and then press Enter.",Study/JOL,"Study Phase2",4576,,,4317,4317,,,,3,1
w319580,mo7vtpvz98,Nick_Dissertation_EX1b,1,201,2020-06-25T09:51:32-07:00,3.9583411216736,3,versionC_stim.csv,VC_VersionC.csv,"Version C","Version C",PANTHER,CAT,Study2,F,126,135,VC,User,-,"How many vowels are the two words combined?|Type your response below and then press Enter.",Study/JOL,"Study Phase2",3629,,,3486,3486,,,,3,1
w319580,mo7vtpvz98,Nick_Dissertation_EX1b,1,202,2020-06-25T09:51:36-07:00,4.4489729404449,3,versionC_stim.csv,VC_VersionC.csv,"Version C","Version C",BANKER,MONEY,Study2,F,132,127,VC,User,-,"How many vowels are the two words combined?|Type your response below and then press Enter.",Study/JOL,"Study Phase2",4108,,,2779,2779,,,,4,1
w319580,mo7vtpvz98,Nick_Dissertation_EX1b,1,203,2020-06-25T09:51:41-07:00,4.8915481567383,3,versionC_stim.csv,VC_VersionC.csv,"Version C","Version C",TRUTHFUL,HONEST,Study2,F,133,148,VC,User,-,"How many vowels are the two words combined?|Type your response below and then press Enter.",Study/JOL,"Study Phase2",4526,,,4362,4362,,,,4,1
w319580,mo7vtpvz98,Nick_Dissertation_EX1b,1,204,2020-06-25T09:51:46-07:00,4.2154548168182,3,versionC_stim.csv,VC_VersionC.csv,"Version C","Version C",MAROON,JUSTICE,Study2,U,156,131,VC,User,-,"How many vowels are the two words combined?|Type your response below and then press Enter.",Study/JOL,"Study Phase2",3906,,,3537,3537,,,,6,1
w319580,mo7vtpvz98,Nick_Dissertation_EX1b,1,205,2020-06-25T09:51:49-07:00,3.2516791820526,3,versionC_stim.csv,VC_VersionC.csv,"Version C","Version C",COFFIN,DEAD,Study2,F,128,114,VC,User,-,"How many vowels are the two words combined?|Type your response below and then press Enter.",Study/JOL,"Study Phase2",2934,,,2796,2796,,,,4,1
w319580,mo7vtpvz98,Nick_Dissertation_EX1b,1,206,2020-06-25T09:51:53-07:00,4.5818798542023,3,versionC_stim.csv,VC_VersionC.csv,"Version C","Version C",REVENGE,EVEN,Study2,F,122,99,VC,User,-,"How many vowels are the two words combined?|Type your response below and then press Enter.",Study/JOL,"Study Phase2",4262,,,3915,3915,,,,5,1
w319580,mo7vtpvz98,Nick_Dissertation_EX1b,1,207,2020-06-25T09:51:58-07:00,4.9975390434265,3,versionC_stim.csv,VC_VersionC.csv,"Version C","Version C",BANG,FUZZY,Study2,U,168,149,VC,User,-,"How many vowels are the two words combined?|Type your response below and then press Enter.",Study/JOL,"Study Phase2",4696,,,4527,4527,,,,2,1
w319580,mo7vtpvz98,Nick_Dissertation_EX1b,1,208,2020-06-25T09:52:05-07:00,6.369343996048,3,versionC_stim.csv,VC_VersionC.csv,"Version C","Version C",TEMPER,TANTRUM,Study2,S,154,168,VC,User,-,"How many vowels are the two words combined?|Type your response below and then press Enter.",Study/JOL,"Study Phase2",6051,,,5083,5083,,,,4,1
w319580,mo7vtpvz98,Nick_Dissertation_EX1b,1,209,2020-06-25T09:52:11-07:00,5.8475439548492,3,versionC_stim.csv,VC_VersionC.csv,"Version C","Version C",LONG,EXTENSION,Study2,B,96,140,VC,User,-,"How many vowels are the two words combined?|Type your response below and then press Enter.",Study/JOL,"Study Phase2",5524,,,5386,5386,,,,5,1
w319580,mo7vtpvz98,Nick_Dissertation_EX1b,1,210,2020-06-25T09:52:16-07:00,5.7230639457703,3,versionC_stim.csv,VC_VersionC.csv,"Version C","Version C",CAR,DRIVER,Study2,B,106,103,VC,User,-,"How many vowels are the two words combined?|Type your response below and then press Enter.",Study/JOL,"Study Phase2",5403,,,3706,3706,,,,3,1
w319580,mo7vtpvz98,Nick_Dissertation_EX1b,1,211,2020-06-25T09:52:21-07:00,5.0640242099762,3,versionC_stim.csv,VC_VersionC.csv,"Version C","Version C",MYSTERY,DETECTIVE,Study2,B,100,122,VC,User,-,"How many vowels are the two words combined?|Type your response below and then press Enter.",Study/JOL,"Study Phase2",4743,,,4343,4343,,,,5,1
w319580,mo7vtpvz98,Nick_Dissertation_EX1b,1,212,2020-06-25T09:52:25-07:00,3.2519059181213,3,versionC_stim.csv,VC_VersionC.csv,"Version C","Version C",TOIL,LEASE,Study2,U,170,145,VC,User,-,"How many vowels are the two words combined?|Type your response below and then press Enter.",Study/JOL,"Study Phase2",2938,,,2302,2302,,,,5,1
w319580,mo7vtpvz98,Nick_Dissertation_EX1b,1,213,2020-06-25T09:52:28-07:00,3.6341409683228,3,versionC_stim.csv,VC_VersionC.csv,"Version C","Version C",BALLOON,POP,Study2,F,123,157,VC,User,-,"How many vowels are the two words combined?|Type your response below and then press Enter.",Study/JOL,"Study Phase2",3318,,,3192,3192,,,,4,1
w319580,mo7vtpvz98,Nick_Dissertation_EX1b,1,214,2020-06-25T09:52:32-07:00,3.3475780487061,3,versionC_stim.csv,VC_VersionC.csv,"Version C","Version C",VILLAIN,BAD,Study2,F,118,136,VC,User,-,"How many vowels are the two words combined?|Type your response below and then press Enter.",Study/JOL,"Study Phase2",3039,,,2659,2659,,,,4,1
w319580,mo7vtpvz98,Nick_Dissertation_EX1b,1,215,2020-06-25T09:52:38-07:00,5.9127089977264,3,versionC_stim.csv,VC_VersionC.csv,"Version C","Version C",PLANT,CACTUS,Study2,B,98,175,VC,User,-,"How many vowels are the two words combined?|Type your response below and then press Enter.",Study/JOL,"Study Phase2",5599,,,5375,5375,,,,3,1
w319580,mo7vtpvz98,Nick_Dissertation_EX1b,1,216,2020-06-25T09:52:42-07:00,4.8324248790741,3,versionC_stim.csv,VC_VersionC.csv,"Version C","Version C",BRACELET,WRIST,Study2,S,140,117,VC,User,-,"How many vowels are the two words combined?|Type your response below and then press Enter.",Study/JOL,"Study Phase2",4513,,,4416,4416,,,,4,1
w319580,mo7vtpvz98,Nick_Dissertation_EX1b,1,217,2020-06-25T09:52:46-07:00,4.0892810821533,3,versionC_stim.csv,VC_VersionC.csv,"Version C","Version C",ACTRESS,STAR,Study2,F,120,109,VC,User,-,"How many vowels are the two words combined?|Type your response below and then press Enter.",Study/JOL,"Study Phase2",3769,,,3126,3127,,,,3,1
w319580,mo7vtpvz98,Nick_Dissertation_EX1b,1,218,2020-06-25T09:52:51-07:00,4.4973270893097,3,versionC_stim.csv,VC_VersionC.csv,"Version C","Version C",GROUND,EARTH,Study2,S,144,152,VC,User,-,"How many vowels are the two words combined?|Type your response below and then press Enter.",Study/JOL,"Study Phase2",4183,,,3701,3701,,,,4,1
w319580,mo7vtpvz98,Nick_Dissertation_EX1b,1,219,2020-06-25T09:52:55-07:00,3.9181909561157,3,versionC_stim.csv,VC_VersionC.csv,"Version C","Version C",CLEAR,MOAT,Study2,U,169,128,VC,User,-,"How many vowels are the two words combined?|Type your response below and then press Enter.",Study/JOL,"Study Phase2",3612,,,3490,3491,,,,4,1
w319580,mo7vtpvz98,Nick_Dissertation_EX1b,1,220,2020-06-25T09:53:01-07:00,6.4314749240875,3,versionC_stim.csv,VC_VersionC.csv,"Version C","Version C",EQUAL,RIGHTS,Study2,S,137,120,VC,User,-,"How many vowels are the two words combined?|Type your response below and then press Enter.",Study/JOL,"Study Phase2",6101,,,5969,5969,,,,4,1
w319580,mo7vtpvz98,Nick_Dissertation_EX1b,1,221,2020-06-25T09:53:08-07:00,6.4094519615173,3,versionC_stim.csv,VC_VersionC.csv,"Version C","Version C",CARBON,ELEMENT,Study2,S,141,170,VC,User,-,"How many vowels are the two words combined?|Type your response below and then press Enter.",Study/JOL,"Study Phase2",6072,,,5961,5961,,,,5,1
w319580,mo7vtpvz98,Nick_Dissertation_EX1b,1,222,2020-06-25T09:53:12-07:00,4.105220079422,3,versionC_stim.csv,VC_VersionC.csv,"Version C","Version C",STEAK,GIVE,Study2,U,158,98,VC,User,-,"How many vowels are the two words combined?|Type your response below and then press Enter.",Study/JOL,"Study Phase2",3780,,,3654,3654,,,,4,1
w319580,mo7vtpvz98,Nick_Dissertation_EX1b,1,223,2020-06-25T09:53:15-07:00,3.1122500896454,3,versionC_stim.csv,VC_VersionC.csv,"Version C","Version C",WAX,CANDLE,Study2,S,139,155,VC,User,-,"How many vowels are the two words combined?|Type your response below and then press Enter.",Study/JOL,"Study Phase2",2799,,,2507,2507,,,,3,1
w319580,mo7vtpvz98,Nick_Dissertation_EX1b,1,224,2020-06-25T09:53:19-07:00,4.4124999046326,3,versionC_stim.csv,VC_VersionC.csv,"Version C","Version C",RED,CHERRY,Study2,B,104,167,VC,User,-,"How many vowels are the two words combined?|Type your response below and then press Enter.",Study/JOL,"Study Phase2",4095,,,3977,3977,,,,2,1
w319580,mo7vtpvz98,Nick_Dissertation_EX1b,1,225,2020-06-25T09:53:23-07:00,3.7126779556274,3,versionC_stim.csv,VC_VersionC.csv,"Version C","Version C",CHARM,VEHICLE,Study2,U,160,129,VC,User,-,"How many vowels are the two words combined?|Type your response below and then press Enter.",Study/JOL,"Study Phase2",3379,,,2765,2765,,,,4,1
w319580,mo7vtpvz98,Nick_Dissertation_EX1b,1,226,2020-06-25T09:53:31-07:00,8.1066420078278,3,versionC_stim.csv,VC_VersionC.csv,"Version C","Version C",HEAD,SCALP,Study2,B,105,146,VC,User,-,"How many vowels are the two words combined?|Type your response below and then press Enter.",Study/JOL,"Study Phase2",7787,,,7675,7676,,,,3,1
w319580,mo7vtpvz98,Nick_Dissertation_EX1b,1,227,2020-06-25T09:53:34-07:00,2.9319770336151,3,versionC_stim.csv,VC_VersionC.csv,"Version C","Version C",BRAWL,FIGHT,Study2,F,135,115,VC,User,-,"How many vowels are the two words combined?|Type your response below and then press Enter.",Study/JOL,"Study Phase2",2618,,,2485,2485,,,,2,1
w319580,mo7vtpvz98,Nick_Dissertation_EX1b,1,228,2020-06-25T09:53:40-07:00,5.4413568973541,3,versionC_stim.csv,VC_VersionC.csv,"Version C","Version C",SEATBELT,SAFETY,Study2,S,147,165,VC,User,-,"How many vowels are the two words combined?|Type your response below and then press Enter.",Study/JOL,"Study Phase2",5118,,,4999,4999,,,,5,1
w319580,mo7vtpvz98,Nick_Dissertation_EX1b,1,229,2020-06-25T09:53:44-07:00,4.1740221977234,3,versionC_stim.csv,VC_VersionC.csv,"Version C","Version C",FICTION,LISTEN,Study2,U,164,144,VC,User,-,"How many vowels are the two words combined?|Type your response below and then press Enter.",Study/JOL,"Study Phase2",3850,,,3703,3703,,,,5,1
w319580,mo7vtpvz98,Nick_Dissertation_EX1b,1,230,2020-06-25T09:53:47-07:00,3.4831278324127,3,versionC_stim.csv,VC_VersionC.csv,"Version C","Version C",LIE,TRUTH,Study2,S,148,116,VC,User,-,"How many vowels are the two words combined?|Type your response below and then press Enter.",Study/JOL,"Study Phase2",3179,,,3025,3025,,,,3,1
w319580,mo7vtpvz98,Nick_Dissertation_EX1b,1,231,2020-06-25T09:53:52-07:00,4.6767640113831,3,versionC_stim.csv,VC_VersionC.csv,"Version C","Version C",THIMBLE,THREAD,Study2,F,121,161,VC,User,-,"How many vowels are the two words combined?|Type your response below and then press Enter.",Study/JOL,"Study Phase2",4362,,,4231,4231,,,,4,1
w319580,mo7vtpvz98,Nick_Dissertation_EX1b,1,232,2020-06-25T09:53:58-07:00,6.3034181594849,3,versionC_stim.csv,VC_VersionC.csv,"Version C","Version C",PAPER,DOCUMENT,Study2,B,109,130,VC,User,-,"How many vowels are the two words combined?|Type your response below and then press Enter.",Study/JOL,"Study Phase2",5952,,,5831,5832,,,,5,1
w319580,mo7vtpvz98,Nick_Dissertation_EX1b,1,233,2020-06-25T09:54:01-07:00,2.699481010437,3,versionC_stim.csv,VC_VersionC.csv,"Version C","Version C",REEL,ROD,Study2,S,150,110,VC,User,-,"How many vowels are the two words combined?|Type your response below and then press Enter.",Study/JOL,"Study Phase2",2376,,,2190,2190,,,,3,1
w319580,mo7vtpvz98,Nick_Dissertation_EX1b,1,234,2020-06-25T09:54:04-07:00,3.4253859519958,3,versionC_stim.csv,VC_VersionC.csv,"Version C","Version C",FAVORITE,BEST,Study2,F,125,164,VC,User,-,"How many vowels are the two words combined?|Type your response below and then press Enter.",Study/JOL,"Study Phase2",3102,,,2786,2786,,,,5,1
w319580,mo7vtpvz98,Nick_Dissertation_EX1b,1,235,2020-06-25T09:54:09-07:00,4.4467949867249,3,versionC_stim.csv,VC_VersionC.csv,"Version C","Version C",TRASH,LITTER,Study2,B,103,143,VC,User,-,"How many vowels are the two words combined?|Type your response below and then press Enter.",Study/JOL,"Study Phase2",4124,,,3811,3811,,,,3,1
w319580,mo7vtpvz98,Nick_Dissertation_EX1b,1,236,2020-06-25T09:54:13-07:00,4.5692670345306,3,versionC_stim.csv,VC_VersionC.csv,"Version C","Version C",OUNCE,BOTH,Study2,U,172,139,VC,User,-,"How many vowels are the two words combined?|Type your response below and then press Enter.",Study/JOL,"Study Phase2",4232,,,3904,3904,,,,4,1
w319580,mo7vtpvz98,Nick_Dissertation_EX1b,1,237,2020-06-25T09:54:19-07:00,5.5590329170227,3,versionC_stim.csv,VC_VersionC.csv,"Version C","Version C",SCAR,MAIN,Study2,U,175,125,VC,User,-,"How many vowels are the two words combined?|Type your response below and then press Enter.",Study/JOL,"Study Phase2",5239,,,5083,5083,,,,3,1
w319580,mo7vtpvz98,Nick_Dissertation_EX1b,1,238,2020-06-25T09:54:22-07:00,3.1593170166016,3,versionC_stim.csv,VC_VersionC.csv,"Version C","Version C",TAN,SUN,Study2,S,155,123,VC,User,-,"How many vowels are the two words combined?|Type your response below and then press Enter.",Study/JOL,"Study Phase2",2845,,,2713,2713,,,,2,1
w319580,mo7vtpvz98,Nick_Dissertation_EX1b,1,239,2020-06-25T09:54:27-07:00,4.7984549999237,3,versionC_stim.csv,VC_VersionC.csv,"Version C","Version C",TIE,SHOELACE,Study2,B,99,101,VC,User,-,"How many vowels are the two words combined?|Type your response below and then press Enter.",Study/JOL,"Study Phase2",4491,,,4362,4362,,,,6,1
w319580,mo7vtpvz98,Nick_Dissertation_EX1b,1,240,2020-06-25T09:54:37-07:00,10.047749042511,3,versionC_stim.csv,VC_VersionC.csv,"Version C","Version C",COMMUNICATION,PHONE,Study2,S,149,156,VC,User,-,"How many vowels are the two words combined?|Type your response below and then press Enter.",Study/JOL,"Study Phase2",7751,,,7508,7508,,,,8,1
w319580,mo7vtpvz98,Nick_Dissertation_EX1b,1,241,2020-06-25T09:54:42-07:00,4.6866328716278,3,versionC_stim.csv,VC_VersionC.csv,"Version C","Version C",WET,DRY,Study2,S,146,105,VC,User,-,"How many vowels are the two words combined?|Type your response below and then press Enter.",Study/JOL,"Study Phase2",3928,,,2696,2696,,,,1,1
w319580,mo7vtpvz98,Nick_Dissertation_EX1b,1,242,2020-06-25T09:54:48-07:00,5.9918241500854,3,versionC_stim.csv,VC_VersionC.csv,"Version C","Version C",WINDSHIELD,CAR,Study2,F,117,134,VC,User,-,"How many vowels are the two words combined?|Type your response below and then press Enter.",Study/JOL,"Study Phase2",5608,,,5515,5515,,,,4,1
w319580,mo7vtpvz98,Nick_Dissertation_EX1b,1,243,2020-06-25T09:54:52-07:00,4.9275479316711,3,versionC_stim.csv,VC_VersionC.csv,"Version C","Version C",LOVE,AFFECTION,Study2,B,115,112,VC,User,-,"How many vowels are the two words combined?|Type your response below and then press Enter.",Study/JOL,"Study Phase2",4595,,,4484,4484,,,,6,1
w319580,mo7vtpvz98,Nick_Dissertation_EX1b,1,244,2020-06-25T09:54:58-07:00,5.0841209888458,3,versionC_stim.csv,VC_VersionC.csv,"Version C","Version C",BREAKABLE,GLASS,Study2,F,127,124,VC,User,-,"How many vowels are the two words combined?|Type your response below and then press Enter.",Study/JOL,"Study Phase2",4770,,,4690,4690,,,,5,1
w319580,mo7vtpvz98,Nick_Dissertation_EX1b,1,245,2020-06-25T09:55:02-07:00,4.3692729473114,3,versionC_stim.csv,VC_VersionC.csv,"Version C","Version C",AIRCRAFT,PLANE,Study2,F,129,151,VC,User,-,"How many vowels are the two words combined?|Type your response below and then press Enter.",Study/JOL,"Study Phase2",4044,,,3756,3756,,,,5,1
w319580,mo7vtpvz98,Nick_Dissertation_EX1b,1,246,2020-06-25T09:55:05-07:00,2.8356990814209,3,versionC_stim.csv,VC_VersionC.csv,"Version C","Version C",AWAY,GONE,Study2,S,142,100,VC,User,-,"How many vowels are the two words combined?|Type your response below and then press Enter.",Study/JOL,"Study Phase2",2512,,,2345,2345,,,,4,1
w319580,mo7vtpvz98,Nick_Dissertation_EX1b,1,247,2020-06-25T09:55:13-07:00,7.9408349990845,3,versionC_stim.csv,VC_VersionC.csv,"Version C","Version C",OBTAIN,MEAT,Study2,U,161,141,VC,User,-,"How many vowels are the two words combined?|Type your response below and then press Enter.",Study/JOL,"Study Phase2",7618,,,7520,7520,,,,5,1
w319580,mo7vtpvz98,Nick_Dissertation_EX1b,1,248,2020-06-25T09:55:17-07:00,4.0038690567017,3,versionC_stim.csv,VC_VersionC.csv,"Version C","Version C",ELECTION,MAZE,Study2,U,159,171,VC,User,-,"How many vowels are the two words combined?|Type your response below and then press Enter.",Study/JOL,"Study Phase2",3675,,,3370,3370,,,,6,1
w319580,mo7vtpvz98,Nick_Dissertation_EX1b,1,249,2020-06-25T09:55:22-07:00,4.9025268554688,3,versionC_stim.csv,VC_VersionC.csv,"Version C","Version C",FIGHT,FEUD,Study2,B,113,169,VC,User,-,"How many vowels are the two words combined?|Type your response below and then press Enter.",Study/JOL,"Study Phase2",4571,,,4467,4467,,,,3,1
w319580,mo7vtpvz98,Nick_Dissertation_EX1b,1,250,2020-06-25T09:55:25-07:00,3.8035290241241,3,versionC_stim.csv,VC_VersionC.csv,"Version C","Version C",CLOTHES,CAKE,Study2,U,166,154,VC,User,-,"How many vowels are the two words combined?|Type your response below and then press Enter.",Study/JOL,"Study Phase2",3489,,,3369,3369,,,,4,1
w319580,mo7vtpvz98,Nick_Dissertation_EX1b,1,251,2020-06-25T09:55:30-07:00,4.9551870822906,3,versionC_stim.csv,VC_VersionC.csv,"Version C","Version C",STRAWBERRY,FRUIT,Study2,F,124,160,VC,User,-,"How many vowels are the two words combined?|Type your response below and then press Enter.",Study/JOL,"Study Phase2",4644,,,4510,4510,,,,4,1
w319580,mo7vtpvz98,Nick_Dissertation_EX1b,1,252,2020-06-25T09:55:34-07:00,3.9547879695892,3,versionC_stim.csv,VC_VersionC.csv,"Version C","Version C",PENGUIN,BIRD,Study2,F,119,138,VC,User,-,"How many vowels are the two words combined?|Type your response below and then press Enter.",Study/JOL,"Study Phase2",3608,,,3497,3497,,,,4,1
w319580,mo7vtpvz98,Nick_Dissertation_EX1b,1,253,2020-06-25T09:55:38-07:00,3.2666909694672,3,versionC_stim.csv,VC_VersionC.csv,"Version C","Version C",NOISE,LOUD,Study2,S,152,113,VC,User,-,"How many vowels are the two words combined?|Type your response below and then press Enter.",Study/JOL,"Study Phase2",2945,,,2851,2851,,,,5,1
w319580,mo7vtpvz98,Nick_Dissertation_EX1b,1,254,2020-06-25T09:55:41-07:00,3.3209989070892,3,versionC_stim.csv,VC_VersionC.csv,"Version C","Version C",SIGN,LOAN,Study2,U,171,174,VC,User,-,"How many vowels are the two words combined?|Type your response below and then press Enter.",Study/JOL,"Study Phase2",3007,,,2893,2893,,,,3,1
w319580,mo7vtpvz98,Nick_Dissertation_EX1b,1,255,2020-06-25T09:55:44-07:00,3.1593151092529,3,versionC_stim.csv,VC_VersionC.csv,"Version C","Version C",GAME,CLUE,Study2,B,97,111,VC,User,-,"How many vowels are the two words combined?|Type your response below and then press Enter.",Study/JOL,"Study Phase2",2825,,,2659,2659,,,,4,1
w319580,mo7vtpvz98,Nick_Dissertation_EX1b,1,256,2020-06-25T09:55:47-07:00,3.3374090194702,3,versionC_stim.csv,VC_VersionC.csv,"Version C","Version C",EAT,DINE,Study2,B,111,121,VC,User,-,"How many vowels are the two words combined?|Type your response below and then press Enter.",Study/JOL,"Study Phase2",3014,,,2887,2887,,,,4,1
w319580,mo7vtpvz98,Nick_Dissertation_EX1b,1,257,2020-06-25T09:55:50-07:00,2.7778339385986,3,versionC_stim.csv,VC_VersionC.csv,"Version C","Version C",HATE,NAME,Study2,U,167,133,VC,User,-,"How many vowels are the two words combined?|Type your response below and then press Enter.",Study/JOL,"Study Phase2",2458,,,2302,2302,,,,4,1
w319580,mo7vtpvz98,Nick_Dissertation_EX1b,1,258,2020-06-25T09:55:55-07:00,4.5720720291138,3,versionC_stim.csv,VC_VersionC.csv,"Version C","Version C",DONKEY,MULE,Study2,B,108,97,VC,User,-,"How many vowels are the two words combined?|Type your response below and then press Enter.",Study/JOL,"Study Phase2",4227,,,3995,3995,,,,4,1
w319580,mo7vtpvz98,Nick_Dissertation_EX1b,1,259,2020-06-25T09:56:02-07:00,6.7802860736847,3,versionC_stim.csv,VC_VersionC.csv,"Version C","Version C",Morning,TEMPERATURE,Study2,U,173,106,VC,User,-,"How many vowels are the two words combined?|Type your response below and then press Enter.",Study/JOL,"Study Phase2",6446,,,6380,6380,,,,7,1
w319580,mo7vtpvz98,Nick_Dissertation_EX1b,1,260,2020-06-25T09:56:06-07:00,4.5744030475616,3,versionC_stim.csv,VC_VersionC.csv,"Version C","Version C",DRINK,WATER,Study2,S,143,142,VC,User,-,"How many vowels are the two words combined?|Type your response below and then press Enter.",Study/JOL,"Study Phase2",4252,,,4119,4119,,,,3,1
w319580,mo7vtpvz98,Nick_Dissertation_EX1b,1,261,2020-06-25T09:56:11-07:00,4.6465468406677,3,versionC_stim.csv,VC_VersionC.csv,"Version C","Version C",END,ADJOURN,Study2,B,101,107,VC,User,-,"How many vowels are the two words combined?|Type your response below and then press Enter.",Study/JOL,"Study Phase2",4317,,,4232,4232,,,,4,1
w319580,mo7vtpvz98,Nick_Dissertation_EX1b,1,262,2020-06-25T09:56:16-07:00,4.7566299438477,3,versionC_stim.csv,VC_VersionC.csv,"Version C","Version C",COLD,CHILL,Study2,B,114,173,VC,User,-,"How many vowels are the two words combined?|Type your response below and then press Enter.",Study/JOL,"Study Phase2",4425,,,4274,4274,,,,2,1
w319580,mo7vtpvz98,Nick_Dissertation_EX1b,1,263,2020-06-25T09:56:20-07:00,3.986752986908,3,versionC_stim.csv,VC_VersionC.csv,"Version C","Version C",NAP,SLEEP,Study2,F,134,158,VC,User,-,"How many vowels are the two words combined?|Type your response below and then press Enter.",Study/JOL,"Study Phase2",3659,,,3464,3464,,,,3,1
w319580,mo7vtpvz98,Nick_Dissertation_EX1b,1,264,2020-06-25T09:56:24-07:00,4.5484070777893,3,versionC_stim.csv,VC_VersionC.csv,"Version C","Version C",CUT,CHOP,Study2,B,107,132,VC,User,-,"How many vowels are the two words combined?|Type your response below and then press Enter.",Study/JOL,"Study Phase2",4217,,,3514,3514,,,,2,1
w319580,mo7vtpvz98,Nick_Dissertation_EX1b,1,265,2020-06-25T09:56:35-07:00,10.48390007019,3,versionC_stim.csv,VC_VersionC.csv,"Version C","Version C",TICK,FLEA,Study2,S,151,159,VC,User,-,"How many vowels are the two words combined?|Type your response below and then press Enter.",Study/JOL,"Study Phase2",2822,,,2664,2664,,,,3,0.929
w319580,mo7vtpvz98,Nick_Dissertation_EX1b,1,266,2020-06-25T09:56:39-07:00,4.4903829097748,3,versionC_stim.csv,VC_VersionC.csv,"Version C","Version C",SPOOKY,OCTOBER,BUFFER4,Buffer,180,177,VC,User,-,"How many vowels are the two words combined?|Type your response below and then press Enter.",Study/JOL,BUFFER4,4165,,,4056,4056,,,,5,1
w319580,mo7vtpvz98,Nick_Dissertation_EX1b,1,267,2020-06-25T09:56:42-07:00,3.032546043396,3,versionC_stim.csv,VC_VersionC.csv,"Version C","Version C",SHED,TOOL,BUFFER4,Buffer,178,180,VC,User,-,"How many vowels are the two words combined?|Type your response below and then press Enter.",Study/JOL,BUFFER4,2709,,,2478,2478,,,,3,1
w319580,mo7vtpvz98,Nick_Dissertation_EX1b,1,268,2020-06-25T09:56:47-07:00,4.4869251251221,3,versionC_stim.csv,VC_VersionC.csv,"Version C","Version C",WEAKS,DAYS,BUFFER4,Buffer,176,181,VC,User,-,"How many vowels are the two words combined?|Type your response below and then press Enter.",Study/JOL,BUFFER4,4141,,,4011,4011,,,,3,1
w319580,mo7vtpvz98,Nick_Dissertation_EX1b,1,269,2020-06-25T09:56:49-07:00,2.8602979183197,3,versionC_stim.csv,VC_VersionC.csv,"Version C","Version C",YEAR,MONTH,BUFFER4,Buffer,177,179,VC,User,-,"How many vowels are the two words combined?|Type your response below and then press Enter.",Study/JOL,BUFFER4,2527,,,2359,2359,,,,3,1
w319580,mo7vtpvz98,Nick_Dissertation_EX1b,1,270,2020-06-25T09:56:53-07:00,3.8088269233704,3,versionC_stim.csv,VC_VersionC.csv,"Version C","Version C",MARCH,SPRING,BUFFER4,Buffer,179,178,VC,User,-,"How many vowels are the two words combined?|Type your response below and then press Enter.",Study/JOL,BUFFER4,3477,,,3383,3383,,,,2,1
w319580,mo7vtpvz98,Nick_Dissertation_EX1b,1,271,2020-06-25T09:56:58-07:00,4.7490651607513,3,versionC_stim.csv,VC_VersionC.csv,"Version C","Version C",,,,,,0,Instruct,User,-,"You have completed this section. Please press Enter.",Filler_Instruction,Instruct5,2078,,,-1,-1,,,,,1
w319580,mo7vtpvz98,Nick_Dissertation_EX1b,1,272,2020-06-25T09:58:58-07:00,120.32537078857,3,versionC_stim.csv,VC_VersionC.csv,"Version C","Version C",,,,,,0,FreeRecall,120,120,"Please list the 50 US states in reverse alphabetical order (z - a). The task will automatically advance to the next screen after two minutes.",,Filler2,120002,"Wyoming West Virginia Washington Virginia Utah Texas Pennsylvania Oregon Mississippi Minnesotta Michigan Maine ",0,16290,110573,0,0,,,1
w319580,mo7vtpvz98,Nick_Dissertation_EX1b,1,273,2020-06-25T09:59:23-07:00,24.390647172928,3,versionC_stim.csv,VC_VersionC.csv,"Version C","Version C",,,,,,0,Instruct,-,10,"You will now be presented with the first word from each of the previously studied item pairs. Please type the missing word. If you do not know the word, you may guess or press Enter to skip forward to the next pair.",,Instruct6,24060,,,-1,-1,,,,,1
w319580,mo7vtpvz98,Nick_Dissertation_EX1b,1,274,2020-06-25T09:59:31-07:00,8.7882928848267,3,versionC_stim.csv,VC_VersionC.csv,"Version C","Version C",SIGN,LOAN,Study2,U,171,174,Test,User,-,,Recall,Recall2,6734,,0,-1,-1,0,0,,,1
w319580,mo7vtpvz98,Nick_Dissertation_EX1b,1,275,2020-06-25T09:59:38-07:00,6.1934509277344,3,versionC_stim.csv,VC_VersionC.csv,"Version C","Version C",OBTAIN,MEAT,Study2,U,161,141,Test,User,-,,Recall,Recall2,5869,GET,57.142857142857,3424,5241,0,0,,,1
w319580,mo7vtpvz98,Nick_Dissertation_EX1b,1,276,2020-06-25T09:59:45-07:00,7.142186164856,3,versionC_stim.csv,VC_VersionC.csv,"Version C","Version C",LONG,EXTENSION,Study2,B,96,140,Test,User,-,,Recall,Recall2,6810,EXTENSION,100,5262,6486,1,1,,,1
w319580,mo7vtpvz98,Nick_Dissertation_EX1b,1,277,2020-06-25T09:59:50-07:00,5.3851499557495,3,versionC_stim.csv,VC_VersionC.csv,"Version C","Version C",CAR,DRIVER,Study2,B,106,103,Test,User,-,,Recall,Recall2,5061,,0,-1,-1,0,0,,,1
w319580,mo7vtpvz98,Nick_Dissertation_EX1b,1,278,2020-06-25T09:59:59-07:00,8.8552119731903,3,versionC_stim.csv,VC_VersionC.csv,"Version C","Version C",COFFIN,DEAD,Study2,F,128,114,Test,User,-,,Recall,Recall2,8500,DEAD,100,1273,8334,1,1,,,1
w319580,mo7vtpvz98,Nick_Dissertation_EX1b,1,279,2020-06-25T10:00:08-07:00,9.1459729671478,3,versionC_stim.csv,VC_VersionC.csv,"Version C","Version C",BRAWL,FIGHT,Study2,F,135,115,Test,User,-,,Recall,Recall2,8779,FUED,22.222222222222,5967,6427,0,0,,,1
w319580,mo7vtpvz98,Nick_Dissertation_EX1b,1,280,2020-06-25T10:00:14-07:00,5.317526102066,3,versionC_stim.csv,VC_VersionC.csv,"Version C","Version C",PAPER,DOCUMENT,Study2,B,109,130,Test,User,-,,Recall,Recall2,5006,,0,-1,-1,0,0,,,1
w319580,mo7vtpvz98,Nick_Dissertation_EX1b,1,281,2020-06-25T10:00:27-07:00,13.418053865433,3,versionC_stim.csv,VC_VersionC.csv,"Version C","Version C",LONELY,ALONE,Study2,S,145,150,Test,User,-,,Recall,Recall2,1659,ALONE,100,919,1484,1,1,,,0.889
w319580,mo7vtpvz98,Nick_Dissertation_EX1b,1,282,2020-06-25T10:00:37-07:00,9.5664520263672,3,versionC_stim.csv,VC_VersionC.csv,"Version C","Version C",LIE,TRUTH,Study2,S,148,116,Test,User,-,,Recall,Recall2,9243,,0,6759,8037,0,0,,,1
w319580,mo7vtpvz98,Nick_Dissertation_EX1b,1,283,2020-06-25T10:00:40-07:00,3.1722400188446,3,versionC_stim.csv,VC_VersionC.csv,"Version C","Version C",CLOTH,STRETCH,Study2,U,157,147,Test,User,-,,Recall,Recall2,2853,,0,-1,-1,0,0,,,1
w319580,mo7vtpvz98,Nick_Dissertation_EX1b,1,284,2020-06-25T10:00:41-07:00,1.7322671413422,3,versionC_stim.csv,VC_VersionC.csv,"Version C","Version C",TRASH,LITTER,Study2,B,103,143,Test,User,-,,Recall,Recall2,1482,,0,-1,-1,0,0,,,1
w319580,mo7vtpvz98,Nick_Dissertation_EX1b,1,285,2020-06-25T10:00:46-07:00,4.2729578018188,3,versionC_stim.csv,VC_VersionC.csv,"Version C","Version C",AIRCRAFT,PLANE,Study2,F,129,151,Test,User,-,,Recall,Recall2,3947,AIRPLANE,76.923076923077,2688,3720,0,1,,,1
w319580,mo7vtpvz98,Nick_Dissertation_EX1b,1,286,2020-06-25T10:00:55-07:00,9.5405230522156,3,versionC_stim.csv,VC_VersionC.csv,"Version C","Version C",LEAGUE,BASEBALL,Study2,F,131,163,Test,User,-,,Recall,Recall2,4142,BASEBALL,100,819,2650,1,1,,,0.952
w319580,mo7vtpvz98,Nick_Dissertation_EX1b,1,287,2020-06-25T10:01:01-07:00,6.0714421272278,3,versionC_stim.csv,VC_VersionC.csv,"Version C","Version C",CLOTHES,CAKE,Study2,U,166,154,Test,User,-,,Recall,Recall2,5727,CLOSET,40,3753,5534,0,0,,,1
w319580,mo7vtpvz98,Nick_Dissertation_EX1b,1,288,2020-06-25T10:01:08-07:00,6.5131750106812,3,versionC_stim.csv,VC_VersionC.csv,"Version C","Version C",OUNCE,BOTH,Study2,U,172,139,Test,User,-,,Recall,Recall2,6101,,0,-1,-1,0,0,,,1
w319580,mo7vtpvz98,Nick_Dissertation_EX1b,1,289,2020-06-25T10:01:09-07:00,1.516144990921,3,versionC_stim.csv,VC_VersionC.csv,"Version C","Version C",CLEAR,MOAT,Study2,U,169,128,Test,User,-,,Recall,Recall2,1263,,0,-1,-1,0,0,,,1
w319580,mo7vtpvz98,Nick_Dissertation_EX1b,1,290,2020-06-25T10:01:14-07:00,5.0670709609985,3,versionC_stim.csv,VC_VersionC.csv,"Version C","Version C",THIMBLE,THREAD,Study2,F,121,161,Test,User,-,,Recall,Recall2,4754,YARN,20,2324,2775,0,0,,,1
w319580,mo7vtpvz98,Nick_Dissertation_EX1b,1,291,2020-06-25T10:01:19-07:00,4.1389188766479,3,versionC_stim.csv,VC_VersionC.csv,"Version C","Version C",NAP,SLEEP,Study2,F,134,158,Test,User,-,,Recall,Recall2,3797,SLEEPY,90.909090909091,1845,3419,0,1,,,1
w319580,mo7vtpvz98,Nick_Dissertation_EX1b,1,292,2020-06-25T10:01:20-07:00,1.6155490875244,3,versionC_stim.csv,VC_VersionC.csv,"Version C","Version C",SHAKE,Shell,Study2,U,163,108,Test,User,-,,Recall,Recall2,1365,,0,-1,-1,0,0,,,1
w319580,mo7vtpvz98,Nick_Dissertation_EX1b,1,293,2020-06-25T10:01:21-07:00,1.2244470119476,3,versionC_stim.csv,VC_VersionC.csv,"Version C","Version C",SCAR,MAIN,Study2,U,175,125,Test,User,-,,Recall,Recall2,933,,0,-1,-1,0,0,,,1
w319580,mo7vtpvz98,Nick_Dissertation_EX1b,1,294,2020-06-25T10:01:23-07:00,1.2820379734039,3,versionC_stim.csv,VC_VersionC.csv,"Version C","Version C",NOISE,LOUD,Study2,S,152,113,Test,User,-,,Recall,Recall2,1021,,0,-1,-1,0,0,,,1
w319580,mo7vtpvz98,Nick_Dissertation_EX1b,1,295,2020-06-25T10:01:24-07:00,1.4877600669861,3,versionC_stim.csv,VC_VersionC.csv,"Version C","Version C",TIE,SHOELACE,Study2,B,99,101,Test,User,-,,Recall,Recall2,1236,,0,-1,-1,0,0,,,1
w319580,mo7vtpvz98,Nick_Dissertation_EX1b,1,296,2020-06-25T10:01:29-07:00,4.6064999103546,3,versionC_stim.csv,VC_VersionC.csv,"Version C","Version C",HEAD,SCALP,Study2,B,105,146,Test,User,-,,Recall,Recall2,4268,,0,-1,-1,0,0,,,1
w319580,mo7vtpvz98,Nick_Dissertation_EX1b,1,297,2020-06-25T10:01:31-07:00,2.7000510692596,3,versionC_stim.csv,VC_VersionC.csv,"Version C","Version C",SARDINE,FISH,Study2,F,130,137,Test,User,-,,Recall,Recall2,2366,FISH,100,1762,2089,1,1,,,1
w319580,mo7vtpvz98,Nick_Dissertation_EX1b,1,298,2020-06-25T10:01:33-07:00,1.8037300109863,3,versionC_stim.csv,VC_VersionC.csv,"Version C","Version C",END,ADJOURN,Study2,B,101,107,Test,User,-,,Recall,Recall2,1560,,0,-1,-1,0,0,,,1
w319580,mo7vtpvz98,Nick_Dissertation_EX1b,1,299,2020-06-25T10:01:37-07:00,3.3683700561523,3,versionC_stim.csv,VC_VersionC.csv,"Version C","Version C",HATE,NAME,Study2,U,167,133,Test,User,-,,Recall,Recall2,3035,,0,-1,-1,0,0,,,1
w319580,mo7vtpvz98,Nick_Dissertation_EX1b,1,300,2020-06-25T10:01:38-07:00,1.0336518287659,3,versionC_stim.csv,VC_VersionC.csv,"Version C","Version C",TAN,SUN,Study2,S,155,123,Test,User,-,,Recall,Recall2,778,,0,-1,-1,0,0,,,1
w319580,mo7vtpvz98,Nick_Dissertation_EX1b,1,301,2020-06-25T10:01:45-07:00,7.7167811393738,3,versionC_stim.csv,VC_VersionC.csv,"Version C","Version C",BREAKABLE,GLASS,Study2,F,127,124,Test,User,-,,Recall,Recall2,1545,,0,-1,-1,0,0,,,0.875
w319580,mo7vtpvz98,Nick_Dissertation_EX1b,1,302,2020-06-25T10:01:49-07:00,3.2203779220581,3,versionC_stim.csv,VC_VersionC.csv,"Version C","Version C",RED,CHERRY,Study2,B,104,167,Test,User,-,,Recall,Recall2,2863,CHERRY,100,1313,2278,1,1,,,1
w319580,mo7vtpvz98,Nick_Dissertation_EX1b,1,303,2020-06-25T10:01:54-07:00,5.8448379039764,3,versionC_stim.csv,VC_VersionC.csv,"Version C","Version C",MAROON,JUSTICE,Study2,U,156,131,Test,User,-,,Recall,Recall2,5498,FIVE,36.363636363636,4117,5286,0,0,,,1
w319580,mo7vtpvz98,Nick_Dissertation_EX1b,1,304,2020-06-25T10:01:56-07:00,1.5793170928955,3,versionC_stim.csv,VC_VersionC.csv,"Version C","Version C",GAME,CLUE,Study2,B,97,111,Test,User,-,,Recall,Recall2,1315,,0,-1,-1,0,0,,,1
w319580,mo7vtpvz98,Nick_Dissertation_EX1b,1,305,2020-06-25T10:02:01-07:00,5.1749699115753,3,versionC_stim.csv,VC_VersionC.csv,"Version C","Version C",FICTION,LISTEN,Study2,U,164,144,Test,User,-,,Recall,Recall2,4822,REALITY,46.153846153846,1955,2566,0,0,,,1
w319580,mo7vtpvz98,Nick_Dissertation_EX1b,1,306,2020-06-25T10:02:05-07:00,3.9515161514282,3,versionC_stim.csv,VC_VersionC.csv,"Version C","Version C",WINDSHIELD,CAR,Study2,F,117,134,Test,User,-,,Recall,Recall2,3594,CAR,100,1593,1862,1,1,,,1
w319580,mo7vtpvz98,Nick_Dissertation_EX1b,1,307,2020-06-25T10:02:09-07:00,3.7979619503021,3,versionC_stim.csv,VC_VersionC.csv,"Version C","Version C",WET,DRY,Study2,S,146,105,Test,User,-,,Recall,Recall2,3451,WATER,25,2502,3019,0,0,,,1
w319580,mo7vtpvz98,Nick_Dissertation_EX1b,1,308,2020-06-25T10:02:10-07:00,1.4158420562744,3,versionC_stim.csv,VC_VersionC.csv,"Version C","Version C",SHAVE,RAZOR,Study2,S,136,172,Test,User,-,,Recall,Recall2,1157,,0,-1,-1,0,0,,,1
w319580,mo7vtpvz98,Nick_Dissertation_EX1b,1,309,2020-06-25T10:02:19-07:00,8.5799379348755,3,versionC_stim.csv,VC_VersionC.csv,"Version C","Version C",MYSTERY,DETECTIVE,Study2,B,100,122,Test,User,-,,Recall,Recall2,8241,CRIME,42.857142857143,6359,7113,0,0,,,1
w319580,mo7vtpvz98,Nick_Dissertation_EX1b,1,310,2020-06-25T10:02:30-07:00,10.91096997261,3,versionC_stim.csv,VC_VersionC.csv,"Version C","Version C",SCISSORS,SHEARS,Study2,B,112,166,Test,User,-,,Recall,Recall2,10574,SHIVES,66.666666666667,2718,9792,0,0,,,1
w319580,mo7vtpvz98,Nick_Dissertation_EX1b,1,311,2020-06-25T10:02:36-07:00,6.2273190021515,3,versionC_stim.csv,VC_VersionC.csv,"Version C","Version C",STEAK,GIVE,Study2,U,158,98,Test,User,-,,Recall,Recall2,5908,GIVE,100,3698,4135,1,1,,,1
w319580,mo7vtpvz98,Nick_Dissertation_EX1b,1,312,2020-06-25T10:02:38-07:00,1.4711380004883,3,versionC_stim.csv,VC_VersionC.csv,"Version C","Version C",ABLE,CRACKLE,Study2,U,162,153,Test,User,-,,Recall,Recall2,1225,,0,-1,-1,0,0,,,1
w319580,mo7vtpvz98,Nick_Dissertation_EX1b,1,313,2020-06-25T10:02:40-07:00,2.6916971206665,3,versionC_stim.csv,VC_VersionC.csv,"Version C","Version C",TICK,FLEA,Study2,S,151,159,Test,User,-,,Recall,Recall2,2360,FLEA,100,1593,1928,1,1,,,1
w319580,mo7vtpvz98,Nick_Dissertation_EX1b,1,314,2020-06-25T10:02:47-07:00,6.7959008216858,3,versionC_stim.csv,VC_VersionC.csv,"Version C","Version C",ACTRESS,STAR,Study2,F,120,109,Test,User,-,,Recall,Recall2,1550,STAR,100,734,1110,1,1,,,0.875
w319580,mo7vtpvz98,Nick_Dissertation_EX1b,1,315,2020-06-25T10:02:51-07:00,3.5371971130371,3,versionC_stim.csv,VC_VersionC.csv,"Version C","Version C",SEATBELT,SAFETY,Study2,S,147,165,Test,User,-,,Recall,Recall2,3202,SAFETY,100,1680,2885,1,1,,,1
w319580,mo7vtpvz98,Nick_Dissertation_EX1b,1,316,2020-06-25T10:02:54-07:00,3.1225800514221,3,versionC_stim.csv,VC_VersionC.csv,"Version C","Version C",DONKEY,MULE,Study2,B,108,97,Test,User,-,,Recall,Recall2,2794,MUEL,75,1675,2156,0,1,,,1
w319580,mo7vtpvz98,Nick_Dissertation_EX1b,1,317,2020-06-25T10:02:55-07:00,1.4103879928589,3,versionC_stim.csv,VC_VersionC.csv,"Version C","Version C",CHARM,VEHICLE,Study2,U,160,129,Test,User,-,,Recall,Recall2,1163,,0,-1,-1,0,0,,,1
w319580,mo7vtpvz98,Nick_Dissertation_EX1b,1,318,2020-06-25T10:02:59-07:00,3.5431568622589,3,versionC_stim.csv,VC_VersionC.csv,"Version C","Version C",CARBON,ELEMENT,Study2,S,141,170,Test,User,-,,Recall,Recall2,3215,ELEMENT,100,1835,2702,1,1,,,1
w319580,mo7vtpvz98,Nick_Dissertation_EX1b,1,319,2020-06-25T10:03:04-07:00,5.2135810852051,3,versionC_stim.csv,VC_VersionC.csv,"Version C","Version C",COLD,CHILL,Study2,B,114,173,Test,User,-,,Recall,Recall2,4891,CHILL,100,1640,4559,1,1,,,1
w319580,mo7vtpvz98,Nick_Dissertation_EX1b,1,320,2020-06-25T10:03:08-07:00,3.9785568714142,3,versionC_stim.csv,VC_VersionC.csv,"Version C","Version C",COMMUNICATION,PHONE,Study2,S,149,156,Test,User,-,,Recall,Recall2,3617,TALK,0,2975,3331,0,0,,,1
w319580,mo7vtpvz98,Nick_Dissertation_EX1b,1,321,2020-06-25T10:03:15-07:00,7.2560451030731,3,versionC_stim.csv,VC_VersionC.csv,"Version C","Version C",PANTHER,CAT,Study2,F,126,135,Test,User,-,,Recall,Recall2,1531,CAT,100,787,1087,1,1,,,0.875
w319580,mo7vtpvz98,Nick_Dissertation_EX1b,1,322,2020-06-25T10:03:19-07:00,3.5889959335327,3,versionC_stim.csv,VC_VersionC.csv,"Version C","Version C",AWAY,GONE,Study2,S,142,100,Test,User,-,,Recall,Recall2,3257,FAR,0,1452,3108,0,0,,,1
w319580,mo7vtpvz98,Nick_Dissertation_EX1b,1,323,2020-06-25T10:03:23-07:00,4.3261749744415,3,versionC_stim.csv,VC_VersionC.csv,"Version C","Version C",FLIP,TURN,Study2,F,116,118,Test,User,-,,Recall,Recall2,3990,FLOP,0,1399,3677,0,0,,,1
w319580,mo7vtpvz98,Nick_Dissertation_EX1b,1,324,2020-06-25T10:03:25-07:00,1.6759581565857,3,versionC_stim.csv,VC_VersionC.csv,"Version C","Version C",CUT,CHOP,Study2,B,107,132,Test,User,-,,Recall,Recall2,1412,,0,-1,-1,0,0,,,1
w319580,mo7vtpvz98,Nick_Dissertation_EX1b,1,325,2020-06-25T10:03:27-07:00,2.3975298404694,3,versionC_stim.csv,VC_VersionC.csv,"Version C","Version C",REEL,ROD,Study2,S,150,110,Test,User,-,,Recall,Recall2,2067,,0,-1,-1,0,0,,,1
w319580,mo7vtpvz98,Nick_Dissertation_EX1b,1,326,2020-06-25T10:03:34-07:00,6.5615611076355,3,versionC_stim.csv,VC_VersionC.csv,"Version C","Version C",TEMPER,TANTRUM,Study2,S,154,168,Test,User,-,,Recall,Recall2,6234,ANGRY,50,5069,5703,0,0,,,1
w319580,mo7vtpvz98,Nick_Dissertation_EX1b,1,327,2020-06-25T10:03:37-07:00,3.5632169246674,3,versionC_stim.csv,VC_VersionC.csv,"Version C","Version C",PLANT,CACTUS,Study2,B,98,175,Test,User,-,,Recall,Recall2,3229,"CACTUS ",100,1354,2668,1,1,,,1
w319580,mo7vtpvz98,Nick_Dissertation_EX1b,1,328,2020-06-25T10:03:41-07:00,3.3321721553802,3,versionC_stim.csv,VC_VersionC.csv,"Version C","Version C",BANKER,MONEY,Study2,F,132,127,Test,User,-,,Recall,Recall2,3019,MONEY,100,1503,2475,1,1,,,1
w319580,mo7vtpvz98,Nick_Dissertation_EX1b,1,329,2020-06-25T10:03:46-07:00,5.9073398113251,3,versionC_stim.csv,VC_VersionC.csv,"Version C","Version C",FIGHT,FEUD,Study2,B,113,169,Test,User,-,,Recall,Recall2,5585,FUED,75,4002,4465,0,1,,,1
w319580,mo7vtpvz98,Nick_Dissertation_EX1b,1,330,2020-06-25T10:03:57-07:00,10.136301994324,3,versionC_stim.csv,VC_VersionC.csv,"Version C","Version C",GROUND,EARTH,Study2,S,144,152,Test,User,-,,Recall,Recall2,9812,FLOOR,20,8386,9573,0,0,,,1
w319580,mo7vtpvz98,Nick_Dissertation_EX1b,1,331,2020-06-25T10:03:58-07:00,1.4190661907196,3,versionC_stim.csv,VC_VersionC.csv,"Version C","Version C",WAX,CANDLE,Study2,S,139,155,Test,User,-,,Recall,Recall2,1165,,0,-1,-1,0,0,,,1
w319580,mo7vtpvz98,Nick_Dissertation_EX1b,1,332,2020-06-25T10:04:04-07:00,5.5804908275604,3,versionC_stim.csv,VC_VersionC.csv,"Version C","Version C",DOG,FURRY,Study2,B,102,126,Test,User,-,,Recall,Recall2,5251,FLUFFY,54.545454545455,1653,4112,0,0,,,1
w319580,mo7vtpvz98,Nick_Dissertation_EX1b,1,333,2020-06-25T10:04:10-07:00,6.3110010623932,3,versionC_stim.csv,VC_VersionC.csv,"Version C","Version C",REVENGE,EVEN,Study2,F,122,99,Test,User,-,,Recall,Recall2,1060,,0,-1,-1,0,0,,,0.833
w319580,mo7vtpvz98,Nick_Dissertation_EX1b,1,334,2020-06-25T10:04:11-07:00,1.4997279644012,3,versionC_stim.csv,VC_VersionC.csv,"Version C","Version C",EAT,DINE,Study2,B,111,121,Test,User,-,,Recall,Recall2,1244,,0,-1,-1,0,0,,,1
w319580,mo7vtpvz98,Nick_Dissertation_EX1b,1,335,2020-06-25T10:04:14-07:00,2.1703770160675,3,versionC_stim.csv,VC_VersionC.csv,"Version C","Version C",LOVE,AFFECTION,Study2,B,115,112,Test,User,-,,Recall,Recall2,1900,HATE,30.769230769231,1370,1654,0,0,,,1
w319580,mo7vtpvz98,Nick_Dissertation_EX1b,1,336,2020-06-25T10:04:18-07:00,4.1850891113281,3,versionC_stim.csv,VC_VersionC.csv,"Version C","Version C",EQUAL,RIGHTS,Study2,S,137,120,Test,User,-,,Recall,Recall2,3858,,0,-1,-1,0,0,,,1
w319580,mo7vtpvz98,Nick_Dissertation_EX1b,1,337,2020-06-25T10:04:19-07:00,1.3235988616943,3,versionC_stim.csv,VC_VersionC.csv,"Version C","Version C",FAVORITE,BEST,Study2,F,125,164,Test,User,-,,Recall,Recall2,1070,,0,-1,-1,0,0,,,1
w319580,mo7vtpvz98,Nick_Dissertation_EX1b,1,338,2020-06-25T10:04:21-07:00,2.0518610477448,3,versionC_stim.csv,VC_VersionC.csv,"Version C","Version C",DRINK,WATER,Study2,S,143,142,Test,User,-,,Recall,Recall2,1783,,0,-1,-1,0,0,,,1
w319580,mo7vtpvz98,Nick_Dissertation_EX1b,1,339,2020-06-25T10:04:25-07:00,3.5173161029816,3,versionC_stim.csv,VC_VersionC.csv,"Version C","Version C",CHILDREN,MIRROR,Study2,U,174,119,Test,User,-,,Recall,Recall2,3199,CHILD,18.181818181818,2206,2919,0,0,,,1
w319580,mo7vtpvz98,Nick_Dissertation_EX1b,1,340,2020-06-25T10:04:28-07:00,3.1849908828735,3,versionC_stim.csv,VC_VersionC.csv,"Version C","Version C",HAVE,OWN,Study2,S,153,102,Test,User,-,,Recall,Recall2,2852,,0,-1,-1,0,0,,,1
w319580,mo7vtpvz98,Nick_Dissertation_EX1b,1,341,2020-06-25T10:04:31-07:00,3.3431551456451,3,versionC_stim.csv,VC_VersionC.csv,"Version C","Version C",JOKE,KEYS,Study2,U,165,176,Test,User,-,,Recall,Recall2,3013,HUMOR,0,2025,2806,0,0,,,1
w319580,mo7vtpvz98,Nick_Dissertation_EX1b,1,342,2020-06-25T10:04:34-07:00,2.7382798194885,3,versionC_stim.csv,VC_VersionC.csv,"Version C","Version C",ELECTION,MAZE,Study2,U,159,171,Test,User,-,,Recall,Recall2,2395,VOTE,25,1821,2218,0,0,,,1
