Username,ID,ExperimentName,Session,Trial,Date,TimeDif,"Condition Number","Stimuli File","Order File","Condition Description","Condition Notes",Stimuli*Cue,Stimuli*Answer,Stimuli*Shuffle,"Stimuli*Stimuli Notes",Stimuli*Value,Procedure*Item,"Procedure*Trial Type","Procedure*Max Time","Procedure*Min Time",Procedure*Text,"Procedure*Procedure Notes",Procedure*Shuffle,Response*RT,Response*Response,Response*Accuracy,Response*RTfirst,Response*RTlast,Response*strictAcc,Response*lenientAcc,Response*focus,Response*JOL,Response*Focus
w10035783,8j1itc85lr,Nick_Dissertation_EX1b,1,1,2020-04-19T15:55:56-07:00,6.8885638713837,4,versionC_stim.csv,VC_VersionD.csv,"Version D","Version D",,,,,,0,Instruct,-,5,"In this section, you will be presented with a series of word pairs.",Initial_Instruct,Instruct1,6362,,,-1,-1,,,,,1
w10035783,8j1itc85lr,Nick_Dissertation_EX1b,1,2,2020-04-19T15:56:04-07:00,7.4037940502167,4,versionC_stim.csv,VC_VersionD.csv,"Version D","Version D",,,,,,0,Instruct,-,5,"As you study, you will be asked to count the total number of vowels (a, e, i, o, u) within the two words. Please note that y is not considered a vowel.",,Instruct13,6991,,,-1,-1,,,,,1
w10035783,8j1itc85lr,Nick_Dissertation_EX1b,1,3,2020-04-19T15:56:15-07:00,11.199684143066,4,versionC_stim.csv,VC_VersionD.csv,"Version D","Version D",,,,,,0,Instruct,-,10,"For example, if you are given the pair CAT - DOG, CAT has one vowel and DOG has one vowel. The correct response would be 2 (1 + 1 = 2). After typing the number, you will press ENTER to move to the next pair.",,Instruct14,10790,,,-1,-1,,,,,1
w10035783,8j1itc85lr,Nick_Dissertation_EX1b,1,4,2020-04-19T15:56:18-07:00,2.7175788879395,4,versionC_stim.csv,VC_VersionD.csv,"Version D","Version D",,,,,,0,Instruct,User,-,"You will now begin the study. Press Enter when you are ready to begin.",,Instruct16,2275,,,-1,-1,,,,,1
w10035783,8j1itc85lr,Nick_Dissertation_EX1b,1,5,2020-04-19T15:56:26-07:00,7.9685859680176,4,versionC_stim.csv,VC_VersionD.csv,"Version D","Version D",POTATO,CARROT,BUFFER3,Buffer,91,93,VC,User,-,"How many vowels are the two words combined?|Type your response below and then press Enter.",Study/JOL,BUFFER,7501,,,7016,7016,,,,6,1
w10035783,8j1itc85lr,Nick_Dissertation_EX1b,1,6,2020-04-19T15:56:33-07:00,6.8655400276184,4,versionC_stim.csv,VC_VersionD.csv,"Version D","Version D",FISH,SHRIMP,BUFFER3,Buffer,93,95,VC,User,-,"How many vowels are the two words combined?|Type your response below and then press Enter.",Study/JOL,BUFFER,6450,,,6242,6242,,,,2,1
w10035783,8j1itc85lr,Nick_Dissertation_EX1b,1,7,2020-04-19T15:56:39-07:00,6.8543651103973,4,versionC_stim.csv,VC_VersionD.csv,"Version D","Version D",STRING,NOODLE,BUFFER3,Buffer,92,94,VC,User,-,"How many vowels are the two words combined?|Type your response below and then press Enter.",Study/JOL,BUFFER,6360,,,6139,6140,,,,4,1
w10035783,8j1itc85lr,Nick_Dissertation_EX1b,1,8,2020-04-19T15:56:44-07:00,4.225282907486,4,versionC_stim.csv,VC_VersionD.csv,"Version D","Version D",FROZEN,ICE,BUFFER3,Buffer,94,92,VC,User,-,"How many vowels are the two words combined?|Type your response below and then press Enter.",Study/JOL,BUFFER,3628,,,3431,3431,,,,4,1
w10035783,8j1itc85lr,Nick_Dissertation_EX1b,1,9,2020-04-19T15:56:49-07:00,5.1480550765991,4,versionC_stim.csv,VC_VersionD.csv,"Version D","Version D",ADVENTURE,CAMP,BUFFER3,Buffer,95,96,VC,User,-,"How many vowels are the two words combined?|Type your response below and then press Enter.",Study/JOL,BUFFER,4742,,,4565,4565,,,,4,1
w10035783,8j1itc85lr,Nick_Dissertation_EX1b,1,10,2020-04-19T15:56:53-07:00,4.5133528709412,4,versionC_stim.csv,VC_VersionD.csv,"Version D","Version D",NAP,SLEEP,Study2,F,134,153,VC,User,-,"How many vowels are the two words combined?|Type your response below and then press Enter.",Study/JOL,"Study Phase",4089,,,3895,3895,,,,3,1
w10035783,8j1itc85lr,Nick_Dissertation_EX1b,1,11,2020-04-19T15:57:01-07:00,7.3611011505127,4,versionC_stim.csv,VC_VersionD.csv,"Version D","Version D",PAPER,DOCUMENT,Study2,B,109,129,VC,User,-,"How many vowels are the two words combined?|Type your response below and then press Enter.",Study/JOL,"Study Phase",6938,,,6542,6542,,,,5,1
w10035783,8j1itc85lr,Nick_Dissertation_EX1b,1,12,2020-04-19T15:57:06-07:00,4.8735299110413,4,versionC_stim.csv,VC_VersionD.csv,"Version D","Version D",HAVE,OWN,Study2,S,153,167,VC,User,-,"How many vowels are the two words combined?|Type your response below and then press Enter.",Study/JOL,"Study Phase",4465,,,4284,4284,,,,3,1
w10035783,8j1itc85lr,Nick_Dissertation_EX1b,1,13,2020-04-19T15:57:11-07:00,5.4602279663086,4,versionC_stim.csv,VC_VersionD.csv,"Version D","Version D",JOKE,KEYS,Study2,U,165,125,VC,User,-,"How many vowels are the two words combined?|Type your response below and then press Enter.",Study/JOL,"Study Phase",5012,,,4686,4686,,,,3,1
w10035783,8j1itc85lr,Nick_Dissertation_EX1b,1,14,2020-04-19T15:57:15-07:00,3.7724509239197,4,versionC_stim.csv,VC_VersionD.csv,"Version D","Version D",LIE,TRUTH,Study2,S,148,149,VC,User,-,"How many vowels are the two words combined?|Type your response below and then press Enter.",Study/JOL,"Study Phase",3367,,,3099,3099,,,,3,1
w10035783,8j1itc85lr,Nick_Dissertation_EX1b,1,15,2020-04-19T15:57:20-07:00,5.5292491912842,4,versionC_stim.csv,VC_VersionD.csv,"Version D","Version D",PENGUIN,BIRD,Study2,F,119,176,VC,User,-,"How many vowels are the two words combined?|Type your response below and then press Enter.",Study/JOL,"Study Phase",5000,,,4701,4701,,,,4,1
w10035783,8j1itc85lr,Nick_Dissertation_EX1b,1,16,2020-04-19T15:57:26-07:00,5.4217798709869,4,versionC_stim.csv,VC_VersionD.csv,"Version D","Version D",ELECTION,MAZE,Study2,U,159,113,VC,User,-,"How many vowels are the two words combined?|Type your response below and then press Enter.",Study/JOL,"Study Phase",4896,,,4710,4711,,,,6,1
w10035783,8j1itc85lr,Nick_Dissertation_EX1b,1,17,2020-04-19T15:57:33-07:00,7.123731136322,4,versionC_stim.csv,VC_VersionD.csv,"Version D","Version D",VILLAIN,BAD,Study2,F,118,163,VC,User,-,"How many vowels are the two words combined?|Type your response below and then press Enter.",Study/JOL,"Study Phase",6678,,,6457,6457,,,,4,1
w10035783,8j1itc85lr,Nick_Dissertation_EX1b,1,18,2020-04-19T15:57:39-07:00,6.1954848766327,4,versionC_stim.csv,VC_VersionD.csv,"Version D","Version D",LONELY,ALONE,Study2,S,145,108,VC,User,-,"How many vowels are the two words combined?|Type your response below and then press Enter.",Study/JOL,"Study Phase",5729,,,5364,5365,,,,5,1
w10035783,8j1itc85lr,Nick_Dissertation_EX1b,1,19,2020-04-19T15:57:45-07:00,5.7284419536591,4,versionC_stim.csv,VC_VersionD.csv,"Version D","Version D",HEAD,SCALP,Study2,B,105,116,VC,User,-,"How many vowels are the two words combined?|Type your response below and then press Enter.",Study/JOL,"Study Phase",5152,,,4979,4979,,,,3,1
w10035783,8j1itc85lr,Nick_Dissertation_EX1b,1,20,2020-04-19T15:57:50-07:00,5.2881410121918,4,versionC_stim.csv,VC_VersionD.csv,"Version D","Version D",AWAY,GONE,Study2,S,142,159,VC,User,-,"How many vowels are the two words combined?|Type your response below and then press Enter.",Study/JOL,"Study Phase",4895,,,4645,4645,,,,4,1
w10035783,8j1itc85lr,Nick_Dissertation_EX1b,1,21,2020-04-19T15:57:55-07:00,4.8270111083984,4,versionC_stim.csv,VC_VersionD.csv,"Version D","Version D",BRAWL,FIGHT,Study2,F,135,155,VC,User,-,"How many vowels are the two words combined?|Type your response below and then press Enter.",Study/JOL,"Study Phase",4027,,,3817,3817,,,,2,1
w10035783,8j1itc85lr,Nick_Dissertation_EX1b,1,22,2020-04-19T15:58:09-07:00,14.499011039734,4,versionC_stim.csv,VC_VersionD.csv,"Version D","Version D",AIRCRAFT,PLANE,Study2,F,129,154,VC,User,-,"How many vowels are the two words combined?|Type your response below and then press Enter.",Study/JOL,"Study Phase",14083,,,13803,13804,,,,5,1
w10035783,8j1itc85lr,Nick_Dissertation_EX1b,1,23,2020-04-19T15:58:16-07:00,6.8286418914795,4,versionC_stim.csv,VC_VersionD.csv,"Version D","Version D",BANKER,MONEY,Study2,F,132,128,VC,User,-,"How many vowels are the two words combined?|Type your response below and then press Enter.",Study/JOL,"Study Phase",6398,,,6080,6080,,,,5,1
w10035783,8j1itc85lr,Nick_Dissertation_EX1b,1,24,2020-04-19T15:58:26-07:00,9.3155000209808,4,versionC_stim.csv,VC_VersionD.csv,"Version D","Version D",CHARM,VEHICLE,Study2,U,160,148,VC,User,-,"How many vowels are the two words combined?|Type your response below and then press Enter.",Study/JOL,"Study Phase",8718,,,8533,8533,,,,4,1
w10035783,8j1itc85lr,Nick_Dissertation_EX1b,1,25,2020-04-19T15:58:34-07:00,8.4400990009308,4,versionC_stim.csv,VC_VersionD.csv,"Version D","Version D",RED,CHERRY,Study2,B,104,175,VC,User,-,"How many vowels are the two words combined?|Type your response below and then press Enter.",Study/JOL,"Study Phase",8002,,,7135,7135,,,,2,1
w10035783,8j1itc85lr,Nick_Dissertation_EX1b,1,26,2020-04-19T15:58:40-07:00,5.571624994278,4,versionC_stim.csv,VC_VersionD.csv,"Version D","Version D",SHAVE,RAZOR,Study2,S,136,156,VC,User,-,"How many vowels are the two words combined?|Type your response below and then press Enter.",Study/JOL,"Study Phase",5004,,,4769,4769,,,,4,1
w10035783,8j1itc85lr,Nick_Dissertation_EX1b,1,27,2020-04-19T15:58:45-07:00,4.9372301101685,4,versionC_stim.csv,VC_VersionD.csv,"Version D","Version D",CLEAR,MOAT,Study2,U,169,104,VC,User,-,"How many vowels are the two words combined?|Type your response below and then press Enter.",Study/JOL,"Study Phase",4526,,,4319,4319,,,,4,1
w10035783,8j1itc85lr,Nick_Dissertation_EX1b,1,28,2020-04-19T15:58:52-07:00,7.7369070053101,4,versionC_stim.csv,VC_VersionD.csv,"Version D","Version D",SEATBELT,SAFETY,Study2,S,147,164,VC,User,-,"How many vowels are the two words combined?|Type your response below and then press Enter.",Study/JOL,"Study Phase",7303,,,7086,7086,,,,6,1
w10035783,8j1itc85lr,Nick_Dissertation_EX1b,1,29,2020-04-19T15:59:00-07:00,7.2913649082184,4,versionC_stim.csv,VC_VersionD.csv,"Version D","Version D",NOISE,LOUD,Study2,S,152,135,VC,User,-,"How many vowels are the two words combined?|Type your response below and then press Enter.",Study/JOL,"Study Phase",6809,,,6399,6399,,,,5,1
w10035783,8j1itc85lr,Nick_Dissertation_EX1b,1,30,2020-04-19T15:59:05-07:00,5.7953460216522,4,versionC_stim.csv,VC_VersionD.csv,"Version D","Version D",LOVE,AFFECTION,Study2,B,115,173,VC,User,-,"How many vowels are the two words combined?|Type your response below and then press Enter.",Study/JOL,"Study Phase",5265,,,4986,4986,,,,5,1
w10035783,8j1itc85lr,Nick_Dissertation_EX1b,1,31,2020-04-19T15:59:09-07:00,3.7721118927002,4,versionC_stim.csv,VC_VersionD.csv,"Version D","Version D",WAX,CANDLE,Study2,S,139,127,VC,User,-,"How many vowels are the two words combined?|Type your response below and then press Enter.",Study/JOL,"Study Phase",3318,,,3120,3120,,,,3,1
w10035783,8j1itc85lr,Nick_Dissertation_EX1b,1,32,2020-04-19T15:59:18-07:00,8.6246731281281,4,versionC_stim.csv,VC_VersionD.csv,"Version D","Version D",MYSTERY,DETECTIVE,Study2,B,100,134,VC,User,-,"How many vowels are the two words combined?|Type your response below and then press Enter.",Study/JOL,"Study Phase",8172,,,7907,7908,,,,5,1
w10035783,8j1itc85lr,Nick_Dissertation_EX1b,1,33,2020-04-19T15:59:23-07:00,5.6295289993286,4,versionC_stim.csv,VC_VersionD.csv,"Version D","Version D",TRASH,LITTER,Study2,B,103,145,VC,User,-,"How many vowels are the two words combined?|Type your response below and then press Enter.",Study/JOL,"Study Phase",5222,,,5009,5009,,,,3,1
w10035783,8j1itc85lr,Nick_Dissertation_EX1b,1,34,2020-04-19T15:59:29-07:00,5.8100159168243,4,versionC_stim.csv,VC_VersionD.csv,"Version D","Version D",END,ADJOURN,Study2,B,101,157,VC,User,-,"How many vowels are the two words combined?|Type your response below and then press Enter.",Study/JOL,"Study Phase",5372,,,5180,5180,,,,3,1
w10035783,8j1itc85lr,Nick_Dissertation_EX1b,1,35,2020-04-19T15:59:41-07:00,11.407366991043,4,versionC_stim.csv,VC_VersionD.csv,"Version D","Version D",Morning,TEMPERATURE,Study2,U,173,160,VC,User,-,"How many vowels are the two words combined?|Type your response below and then press Enter.",Study/JOL,"Study Phase",11006,,,10758,10758,,,,7,1
w10035783,8j1itc85lr,Nick_Dissertation_EX1b,1,36,2020-04-19T15:59:45-07:00,4.2670109272003,4,versionC_stim.csv,VC_VersionD.csv,"Version D","Version D",TICK,FLEA,Study2,S,151,150,VC,User,-,"How many vowels are the two words combined?|Type your response below and then press Enter.",Study/JOL,"Study Phase",3703,,,3525,3525,,,,3,1
w10035783,8j1itc85lr,Nick_Dissertation_EX1b,1,37,2020-04-19T15:59:51-07:00,6.0524480342865,4,versionC_stim.csv,VC_VersionD.csv,"Version D","Version D",BALLOON,POP,Study2,F,123,98,VC,User,-,"How many vowels are the two words combined?|Type your response below and then press Enter.",Study/JOL,"Study Phase",5581,,,5386,5386,,,,4,1
w10035783,8j1itc85lr,Nick_Dissertation_EX1b,1,38,2020-04-19T15:59:56-07:00,5.2449541091919,4,versionC_stim.csv,VC_VersionD.csv,"Version D","Version D",ACTRESS,STAR,Study2,F,120,170,VC,User,-,"How many vowels are the two words combined?|Type your response below and then press Enter.",Study/JOL,"Study Phase",4832,,,4632,4632,,,,3,1
w10035783,8j1itc85lr,Nick_Dissertation_EX1b,1,39,2020-04-19T16:00:01-07:00,4.8020260334015,4,versionC_stim.csv,VC_VersionD.csv,"Version D","Version D",WET,DRY,Study2,S,146,139,VC,User,-,"How many vowels are the two words combined?|Type your response below and then press Enter.",Study/JOL,"Study Phase",4406,,,4177,4178,,,,1,1
w10035783,8j1itc85lr,Nick_Dissertation_EX1b,1,40,2020-04-19T16:00:05-07:00,4.475399017334,4,versionC_stim.csv,VC_VersionD.csv,"Version D","Version D",CAR,DRIVER,Study2,B,106,111,VC,User,-,"How many vowels are the two words combined?|Type your response below and then press Enter.",Study/JOL,"Study Phase",3979,,,3784,3784,,,,3,1
w10035783,8j1itc85lr,Nick_Dissertation_EX1b,1,41,2020-04-19T16:00:13-07:00,8.0152318477631,4,versionC_stim.csv,VC_VersionD.csv,"Version D","Version D",BREAKABLE,GLASS,Study2,F,127,147,VC,User,-,"How many vowels are the two words combined?|Type your response below and then press Enter.",Study/JOL,"Study Phase",7532,,,7306,7306,,,,5,1
w10035783,8j1itc85lr,Nick_Dissertation_EX1b,1,42,2020-04-19T16:00:24-07:00,10.069352149963,4,versionC_stim.csv,VC_VersionD.csv,"Version D","Version D",FAVORITE,BEST,Study2,F,125,107,VC,User,-,"How many vowels are the two words combined?|Type your response below and then press Enter.",Study/JOL,"Study Phase",9644,,,9360,9360,,,,5,1
w10035783,8j1itc85lr,Nick_Dissertation_EX1b,1,43,2020-04-19T16:00:32-07:00,8.9218888282776,4,versionC_stim.csv,VC_VersionD.csv,"Version D","Version D",DONKEY,MULE,Study2,B,108,132,VC,User,-,"How many vowels are the two words combined?|Type your response below and then press Enter.",Study/JOL,"Study Phase",8535,,,7797,7797,,,,4,1
w10035783,8j1itc85lr,Nick_Dissertation_EX1b,1,44,2020-04-19T16:00:39-07:00,6.9894661903381,4,versionC_stim.csv,VC_VersionD.csv,"Version D","Version D",THIMBLE,THREAD,Study2,F,121,100,VC,User,-,"How many vowels are the two words combined?|Type your response below and then press Enter.",Study/JOL,"Study Phase",6592,,,6324,6324,,,,4,1
w10035783,8j1itc85lr,Nick_Dissertation_EX1b,1,45,2020-04-19T16:00:46-07:00,6.5302138328552,4,versionC_stim.csv,VC_VersionD.csv,"Version D","Version D",WINDSHIELD,CAR,Study2,F,117,136,VC,User,-,"How many vowels are the two words combined?|Type your response below and then press Enter.",Study/JOL,"Study Phase",6102,,,5885,5885,,,,4,1
w10035783,8j1itc85lr,Nick_Dissertation_EX1b,1,46,2020-04-19T16:00:52-07:00,5.5962400436401,4,versionC_stim.csv,VC_VersionD.csv,"Version D","Version D",ABLE,CRACKLE,Study2,U,162,103,VC,User,-,"How many vowels are the two words combined?|Type your response below and then press Enter.",Study/JOL,"Study Phase",5191,,,4899,4899,,,,4,1
w10035783,8j1itc85lr,Nick_Dissertation_EX1b,1,47,2020-04-19T16:00:56-07:00,4.0315420627594,4,versionC_stim.csv,VC_VersionD.csv,"Version D","Version D",SIGN,LOAN,Study2,U,171,174,VC,User,-,"How many vowels are the two words combined?|Type your response below and then press Enter.",Study/JOL,"Study Phase",3593,,,3367,3367,,,,3,1
w10035783,8j1itc85lr,Nick_Dissertation_EX1b,1,48,2020-04-19T16:00:59-07:00,3.3781418800354,4,versionC_stim.csv,VC_VersionD.csv,"Version D","Version D",REEL,ROD,Study2,S,150,133,VC,User,-,"How many vowels are the two words combined?|Type your response below and then press Enter.",Study/JOL,"Study Phase",2737,,,2548,2548,,,,3,1
w10035783,8j1itc85lr,Nick_Dissertation_EX1b,1,49,2020-04-19T16:01:03-07:00,3.8481869697571,4,versionC_stim.csv,VC_VersionD.csv,"Version D","Version D",SARDINE,FISH,Study2,F,130,144,VC,User,-,"How many vowels are the two words combined?|Type your response below and then press Enter.",Study/JOL,"Study Phase",3430,,,3185,3185,,,,4,1
w10035783,8j1itc85lr,Nick_Dissertation_EX1b,1,50,2020-04-19T16:01:10-07:00,7.1374170780182,4,versionC_stim.csv,VC_VersionD.csv,"Version D","Version D",DRINK,WATER,Study2,S,143,141,VC,User,-,"How many vowels are the two words combined?|Type your response below and then press Enter.",Study/JOL,"Study Phase",6716,,,6481,6481,,,,3,1
w10035783,8j1itc85lr,Nick_Dissertation_EX1b,1,51,2020-04-19T16:01:14-07:00,3.5933539867401,4,versionC_stim.csv,VC_VersionD.csv,"Version D","Version D",COLD,CHILL,Study2,B,114,142,VC,User,-,"How many vowels are the two words combined?|Type your response below and then press Enter.",Study/JOL,"Study Phase",3176,,,2991,2991,,,,2,1
w10035783,8j1itc85lr,Nick_Dissertation_EX1b,1,52,2020-04-19T16:01:17-07:00,3.3108379840851,4,versionC_stim.csv,VC_VersionD.csv,"Version D","Version D",SCAR,MAIN,Study2,U,175,118,VC,User,-,"How many vowels are the two words combined?|Type your response below and then press Enter.",Study/JOL,"Study Phase",2883,,,2629,2629,,,,3,1
w10035783,8j1itc85lr,Nick_Dissertation_EX1b,1,53,2020-04-19T16:01:22-07:00,4.9235270023346,4,versionC_stim.csv,VC_VersionD.csv,"Version D","Version D",PANTHER,CAT,Study2,F,126,168,VC,User,-,"How many vowels are the two words combined?|Type your response below and then press Enter.",Study/JOL,"Study Phase",4493,,,4202,4202,,,,3,1
w10035783,8j1itc85lr,Nick_Dissertation_EX1b,1,54,2020-04-19T16:01:25-07:00,3.1973860263824,4,versionC_stim.csv,VC_VersionD.csv,"Version D","Version D",CUT,CHOP,Study2,B,107,151,VC,User,-,"How many vowels are the two words combined?|Type your response below and then press Enter.",Study/JOL,"Study Phase",2788,,,2574,2574,,,,2,1
w10035783,8j1itc85lr,Nick_Dissertation_EX1b,1,55,2020-04-19T16:01:30-07:00,5.4175181388855,4,versionC_stim.csv,VC_VersionD.csv,"Version D","Version D",COFFIN,DEAD,Study2,F,128,162,VC,User,-,"How many vowels are the two words combined?|Type your response below and then press Enter.",Study/JOL,"Study Phase",4974,,,4757,4757,,,,4,1
w10035783,8j1itc85lr,Nick_Dissertation_EX1b,1,56,2020-04-19T16:01:35-07:00,4.9899327754974,4,versionC_stim.csv,VC_VersionD.csv,"Version D","Version D",BRACELET,WRIST,Study2,S,140,161,VC,User,-,"How many vowels are the two words combined?|Type your response below and then press Enter.",Study/JOL,"Study Phase",4588,,,4319,4319,,,,4,1
w10035783,8j1itc85lr,Nick_Dissertation_EX1b,1,57,2020-04-19T16:01:41-07:00,5.6348061561584,4,versionC_stim.csv,VC_VersionD.csv,"Version D","Version D",FICTION,LISTEN,Study2,U,164,102,VC,User,-,"How many vowels are the two words combined?|Type your response below and then press Enter.",Study/JOL,"Study Phase",5187,,,4963,4963,,,,4,1
w10035783,8j1itc85lr,Nick_Dissertation_EX1b,1,58,2020-04-19T16:01:51-07:00,9.5171740055084,4,versionC_stim.csv,VC_VersionD.csv,"Version D","Version D",SMELL,INCENSE,Study2,B,110,143,VC,User,-,"How many vowels are the two words combined?|Type your response below and then press Enter.",Study/JOL,"Study Phase",9090,,,8852,8852,,,,4,1
w10035783,8j1itc85lr,Nick_Dissertation_EX1b,1,59,2020-04-19T16:02:00-07:00,8.9891090393066,4,versionC_stim.csv,VC_VersionD.csv,"Version D","Version D",GROUND,EARTH,Study2,S,144,121,VC,User,-,"How many vowels are the two words combined?|Type your response below and then press Enter.",Study/JOL,"Study Phase",8495,,,8282,8282,,,,4,1
w10035783,8j1itc85lr,Nick_Dissertation_EX1b,1,60,2020-04-19T16:02:04-07:00,4.6303899288177,4,versionC_stim.csv,VC_VersionD.csv,"Version D","Version D",TOIL,LEASE,Study2,U,170,166,VC,User,-,"How many vowels are the two words combined?|Type your response below and then press Enter.",Study/JOL,"Study Phase",4128,,,3873,3874,,,,5,1
w10035783,8j1itc85lr,Nick_Dissertation_EX1b,1,61,2020-04-19T16:02:08-07:00,4.2425949573517,4,versionC_stim.csv,VC_VersionD.csv,"Version D","Version D",OUNCE,BOTH,Study2,U,172,119,VC,User,-,"How many vowels are the two words combined?|Type your response below and then press Enter.",Study/JOL,"Study Phase",3800,,,3579,3579,,,,4,1
w10035783,8j1itc85lr,Nick_Dissertation_EX1b,1,62,2020-04-19T16:02:17-07:00,8.4678790569305,4,versionC_stim.csv,VC_VersionD.csv,"Version D","Version D",TIE,SHOELACE,Study2,B,99,172,VC,User,-,"How many vowels are the two words combined?|Type your response below and then press Enter.",Study/JOL,"Study Phase",8050,,,7867,7867,,,,6,1
w10035783,8j1itc85lr,Nick_Dissertation_EX1b,1,63,2020-04-19T16:02:20-07:00,2.6915638446808,4,versionC_stim.csv,VC_VersionD.csv,"Version D","Version D",TAN,SUN,Study2,S,155,126,VC,User,-,"How many vowels are the two words combined?|Type your response below and then press Enter.",Study/JOL,"Study Phase",2252,,,2075,2075,,,,2,1
w10035783,8j1itc85lr,Nick_Dissertation_EX1b,1,64,2020-04-19T16:02:29-07:00,9.2175641059875,4,versionC_stim.csv,VC_VersionD.csv,"Version D","Version D",LONG,EXTENSION,Study2,B,96,171,VC,User,-,"How many vowels are the two words combined?|Type your response below and then press Enter.",Study/JOL,"Study Phase",8790,,,8627,8627,,,,5,1
w10035783,8j1itc85lr,Nick_Dissertation_EX1b,1,65,2020-04-19T16:02:32-07:00,3.4437370300293,4,versionC_stim.csv,VC_VersionD.csv,"Version D","Version D",HATE,NAME,Study2,U,167,158,VC,User,-,"How many vowels are the two words combined?|Type your response below and then press Enter.",Study/JOL,"Study Phase",3023,,,2840,2840,,,,4,1
w10035783,8j1itc85lr,Nick_Dissertation_EX1b,1,66,2020-04-19T16:02:36-07:00,4.0125329494476,4,versionC_stim.csv,VC_VersionD.csv,"Version D","Version D",DOG,FURRY,Study2,B,102,120,VC,User,-,"How many vowels are the two words combined?|Type your response below and then press Enter.",Study/JOL,"Study Phase",3582,,,3390,3391,,,,2,1
w10035783,8j1itc85lr,Nick_Dissertation_EX1b,1,67,2020-04-19T16:02:40-07:00,3.5841019153595,4,versionC_stim.csv,VC_VersionD.csv,"Version D","Version D",JAR,MASON,Study2,S,138,101,VC,User,-,"How many vowels are the two words combined?|Type your response below and then press Enter.",Study/JOL,"Study Phase",3077,,,2867,2867,,,,3,1
w10035783,8j1itc85lr,Nick_Dissertation_EX1b,1,68,2020-04-19T16:02:44-07:00,3.7096710205078,4,versionC_stim.csv,VC_VersionD.csv,"Version D","Version D",CLOTHES,CAKE,Study2,U,166,130,VC,User,-,"How many vowels are the two words combined?|Type your response below and then press Enter.",Study/JOL,"Study Phase",3273,,,3081,3082,,,,3,1
w10035783,8j1itc85lr,Nick_Dissertation_EX1b,1,69,2020-04-19T16:02:51-07:00,7.1586260795593,4,versionC_stim.csv,VC_VersionD.csv,"Version D","Version D",MAROON,JUSTICE,Study2,U,156,114,VC,User,-,"How many vowels are the two words combined?|Type your response below and then press Enter.",Study/JOL,"Study Phase",6712,,,6576,6576,,,,6,1
w10035783,8j1itc85lr,Nick_Dissertation_EX1b,1,70,2020-04-19T16:03:04-07:00,12.873723983765,4,versionC_stim.csv,VC_VersionD.csv,"Version D","Version D",CARBON,ELEMENT,Study2,S,141,122,VC,User,-,"How many vowels are the two words combined?|Type your response below and then press Enter.",Study/JOL,"Study Phase",12368,,,12194,12194,,,,5,1
w10035783,8j1itc85lr,Nick_Dissertation_EX1b,1,71,2020-04-19T16:03:10-07:00,6.1300129890442,4,versionC_stim.csv,VC_VersionD.csv,"Version D","Version D",LEAGUE,BASEBALL,Study2,F,131,115,VC,User,-,"How many vowels are the two words combined?|Type your response below and then press Enter.",Study/JOL,"Study Phase",5661,,,5472,5472,,,,6,1
w10035783,8j1itc85lr,Nick_Dissertation_EX1b,1,72,2020-04-19T16:03:17-07:00,7.1771099567413,4,versionC_stim.csv,VC_VersionD.csv,"Version D","Version D",TEMPER,TANTRUM,Study2,S,154,131,VC,User,-,"How many vowels are the two words combined?|Type your response below and then press Enter.",Study/JOL,"Study Phase",6763,,,6583,6583,,,,4,1
w10035783,8j1itc85lr,Nick_Dissertation_EX1b,1,73,2020-04-19T16:03:25-07:00,8.0802431106567,4,versionC_stim.csv,VC_VersionD.csv,"Version D","Version D",STRAWBERRY,FRUIT,Study2,F,124,106,VC,User,-,"How many vowels are the two words combined?|Type your response below and then press Enter.",Study/JOL,"Study Phase",7655,,,7453,7454,,,,4,1
w10035783,8j1itc85lr,Nick_Dissertation_EX1b,1,74,2020-04-19T16:03:28-07:00,3.419970035553,4,versionC_stim.csv,VC_VersionD.csv,"Version D","Version D",FLIP,TURN,Study2,F,116,97,VC,User,-,"How many vowels are the two words combined?|Type your response below and then press Enter.",Study/JOL,"Study Phase",2948,,,2771,2771,,,,2,1
w10035783,8j1itc85lr,Nick_Dissertation_EX1b,1,75,2020-04-19T16:03:57-07:00,28.688853025436,4,versionC_stim.csv,VC_VersionD.csv,"Version D","Version D",SCISSORS,SHEARS,Study2,B,112,169,VC,User,-,"How many vowels are the two words combined?|Type your response below and then press Enter.",Study/JOL,"Study Phase",21270,,,20947,20947,,,,4,1
w10035783,8j1itc85lr,Nick_Dissertation_EX1b,1,76,2020-04-19T16:04:01-07:00,4.0325989723206,4,versionC_stim.csv,VC_VersionD.csv,"Version D","Version D",EAT,DINE,Study2,B,111,112,VC,User,-,"How many vowels are the two words combined?|Type your response below and then press Enter.",Study/JOL,"Study Phase",3636,,,3427,3427,,,,4,1
w10035783,8j1itc85lr,Nick_Dissertation_EX1b,1,77,2020-04-19T16:04:06-07:00,4.7013058662415,4,versionC_stim.csv,VC_VersionD.csv,"Version D","Version D",SHAKE,Shell,Study2,U,163,99,VC,User,-,"How many vowels are the two words combined?|Type your response below and then press Enter.",Study/JOL,"Study Phase",4307,,,4072,4072,,,,3,1
w10035783,8j1itc85lr,Nick_Dissertation_EX1b,1,78,2020-04-19T16:04:12-07:00,5.7546021938324,4,versionC_stim.csv,VC_VersionD.csv,"Version D","Version D",TRUTHFUL,HONEST,Study2,F,133,124,VC,User,-,"How many vowels are the two words combined?|Type your response below and then press Enter.",Study/JOL,"Study Phase",5312,,,5174,5174,,,,4,1
w10035783,8j1itc85lr,Nick_Dissertation_EX1b,1,79,2020-04-19T16:04:21-07:00,9.8850009441376,4,versionC_stim.csv,VC_VersionD.csv,"Version D","Version D",PLANT,CACTUS,Study2,B,98,117,VC,User,-,"How many vowels are the two words combined?|Type your response below and then press Enter.",Study/JOL,"Study Phase",9493,,,9281,9281,,,,3,1
w10035783,8j1itc85lr,Nick_Dissertation_EX1b,1,80,2020-04-19T16:04:25-07:00,3.7344510555267,4,versionC_stim.csv,VC_VersionD.csv,"Version D","Version D",STEAK,GIVE,Study2,U,158,140,VC,User,-,"How many vowels are the two words combined?|Type your response below and then press Enter.",Study/JOL,"Study Phase",3350,,,3197,3197,,,,4,1
w10035783,8j1itc85lr,Nick_Dissertation_EX1b,1,81,2020-04-19T16:04:33-07:00,8.1097757816315,4,versionC_stim.csv,VC_VersionD.csv,"Version D","Version D",COMMUNICATION,PHONE,Study2,S,149,105,VC,User,-,"How many vowels are the two words combined?|Type your response below and then press Enter.",Study/JOL,"Study Phase",7714,,,7414,7414,,,,8,1
w10035783,8j1itc85lr,Nick_Dissertation_EX1b,1,82,2020-04-19T16:04:37-07:00,3.7236521244049,4,versionC_stim.csv,VC_VersionD.csv,"Version D","Version D",GAME,CLUE,Study2,B,97,123,VC,User,-,"How many vowels are the two words combined?|Type your response below and then press Enter.",Study/JOL,"Study Phase",3334,,,3125,3125,,,,4,1
w10035783,8j1itc85lr,Nick_Dissertation_EX1b,1,83,2020-04-19T16:04:42-07:00,5.0971510410309,4,versionC_stim.csv,VC_VersionD.csv,"Version D","Version D",REVENGE,EVEN,Study2,F,122,165,VC,User,-,"How many vowels are the two words combined?|Type your response below and then press Enter.",Study/JOL,"Study Phase",4696,,,4533,4533,,,,5,1
w10035783,8j1itc85lr,Nick_Dissertation_EX1b,1,84,2020-04-19T16:04:47-07:00,4.6055788993835,4,versionC_stim.csv,VC_VersionD.csv,"Version D","Version D",BANG,FUZZY,Study2,U,168,109,VC,User,-,"How many vowels are the two words combined?|Type your response below and then press Enter.",Study/JOL,"Study Phase",4231,,,4102,4102,,,,2,1
w10035783,8j1itc85lr,Nick_Dissertation_EX1b,1,85,2020-04-19T16:04:52-07:00,5.5569140911102,4,versionC_stim.csv,VC_VersionD.csv,"Version D","Version D",OBTAIN,MEAT,Study2,U,161,110,VC,User,-,"How many vowels are the two words combined?|Type your response below and then press Enter.",Study/JOL,"Study Phase",5170,,,4921,4921,,,,5,1
w10035783,8j1itc85lr,Nick_Dissertation_EX1b,1,86,2020-04-19T16:04:58-07:00,5.7697730064392,4,versionC_stim.csv,VC_VersionD.csv,"Version D","Version D",FIGHT,FEUD,Study2,B,113,146,VC,User,-,"How many vowels are the two words combined?|Type your response below and then press Enter.",Study/JOL,"Study Phase",5386,,,5201,5201,,,,3,1
w10035783,8j1itc85lr,Nick_Dissertation_EX1b,1,87,2020-04-19T16:05:04-07:00,6.1303780078888,4,versionC_stim.csv,VC_VersionD.csv,"Version D","Version D",EQUAL,RIGHTS,Study2,S,137,138,VC,User,-,"How many vowels are the two words combined?|Type your response below and then press Enter.",Study/JOL,"Study Phase",5741,,,5417,5417,,,,4,1
w10035783,8j1itc85lr,Nick_Dissertation_EX1b,1,88,2020-04-19T16:05:12-07:00,7.9956138134003,4,versionC_stim.csv,VC_VersionD.csv,"Version D","Version D",CHILDREN,MIRROR,Study2,U,174,152,VC,User,-,"How many vowels are the two words combined?|Type your response below and then press Enter.",Study/JOL,"Study Phase",7614,,,7400,7400,,,,4,1
w10035783,8j1itc85lr,Nick_Dissertation_EX1b,1,89,2020-04-19T16:05:17-07:00,5.3081800937653,4,versionC_stim.csv,VC_VersionD.csv,"Version D","Version D",CLOTH,STRETCH,Study2,U,157,137,VC,User,-,"How many vowels are the two words combined?|Type your response below and then press Enter.",Study/JOL,"Study Phase",4926,,,4753,4753,,,,2,1
w10035783,8j1itc85lr,Nick_Dissertation_EX1b,1,90,2020-04-19T16:05:23-07:00,5.2713890075684,4,versionC_stim.csv,VC_VersionD.csv,"Version D","Version D",SPOOKY,OCTOBER,BUFFER4,Buffer,180,179,VC,User,-,"How many vowels are the two words combined?|Type your response below and then press Enter.",Study/JOL,BUFFER2,4857,,,4492,4492,,,,5,1
w10035783,8j1itc85lr,Nick_Dissertation_EX1b,1,91,2020-04-19T16:05:28-07:00,5.673583984375,4,versionC_stim.csv,VC_VersionD.csv,"Version D","Version D",WEAKS,DAYS,BUFFER4,Buffer,176,181,VC,User,-,"How many vowels are the two words combined?|Type your response below and then press Enter.",Study/JOL,BUFFER2,4870,,,4601,4601,,,,3,1
w10035783,8j1itc85lr,Nick_Dissertation_EX1b,1,92,2020-04-19T16:05:33-07:00,4.2167239189148,4,versionC_stim.csv,VC_VersionD.csv,"Version D","Version D",MARCH,SPRING,BUFFER4,Buffer,179,180,VC,User,-,"How many vowels are the two words combined?|Type your response below and then press Enter.",Study/JOL,BUFFER2,3827,,,3660,3660,,,,2,1
w10035783,8j1itc85lr,Nick_Dissertation_EX1b,1,93,2020-04-19T16:05:36-07:00,3.772675037384,4,versionC_stim.csv,VC_VersionD.csv,"Version D","Version D",SHED,TOOL,BUFFER4,Buffer,178,178,VC,User,-,"How many vowels are the two words combined?|Type your response below and then press Enter.",Study/JOL,BUFFER2,3338,,,3142,3142,,,,3,1
w10035783,8j1itc85lr,Nick_Dissertation_EX1b,1,94,2020-04-19T16:05:40-07:00,3.453418970108,4,versionC_stim.csv,VC_VersionD.csv,"Version D","Version D",YEAR,MONTH,BUFFER4,Buffer,177,177,VC,User,-,"How many vowels are the two words combined?|Type your response below and then press Enter.",Study/JOL,BUFFER2,3063,,,2836,2836,,,,3,1
w10035783,8j1itc85lr,Nick_Dissertation_EX1b,1,95,2020-04-19T16:05:42-07:00,2.0454921722412,4,versionC_stim.csv,VC_VersionD.csv,"Version D","Version D",,,,,,0,Instruct,User,-,"You have completed this section. Please press Enter.",Filler_Instruction,Instruct2,1655,,,-1,-1,,,,,1
w10035783,8j1itc85lr,Nick_Dissertation_EX1b,1,96,2020-04-19T16:07:42-07:00,120.55418205261,4,versionC_stim.csv,VC_VersionD.csv,"Version D","Version D",,,,,,0,FreeRecall,120,120,"Please list the 50 US states in alphabetical order. The task will automatically advance to the next screen after two minutes.",,Filler1,120003,"alabama alaska arizona arkansas california colorado connecticut delaware florida georgia hawaii idaho illiniois indiana ",0,38062,118857,0,0,,,1
w10035783,8j1itc85lr,Nick_Dissertation_EX1b,1,97,2020-04-19T16:09:29-07:00,106.44916796684,4,versionC_stim.csv,VC_VersionD.csv,"Version D","Version D",,,,,,0,Instruct,-,10,"You will now be presented with the first word from each of the previously studied item pairs. Please type the missing word. If you do not know the word, you may guess or press Enter to skip forward to the next pair.",,Instruct3,105955,,,-1,-1,,,,,1
w10035783,8j1itc85lr,Nick_Dissertation_EX1b,1,98,2020-04-19T16:09:35-07:00,5.7077348232269,4,versionC_stim.csv,VC_VersionD.csv,"Version D","Version D",SHAKE,Shell,Study2,U,163,99,Test,User,-,,Recall,Recall1,5286,shake,60,4339,4964,0,0,,,1
w10035783,8j1itc85lr,Nick_Dissertation_EX1b,1,99,2020-04-19T16:09:38-07:00,3.799770116806,4,versionC_stim.csv,VC_VersionD.csv,"Version D","Version D",JAR,MASON,Study2,S,138,101,Test,User,-,,Recall,Recall1,3396,jar,25,2731,3102,0,0,,,1
w10035783,8j1itc85lr,Nick_Dissertation_EX1b,1,100,2020-04-19T16:09:42-07:00,3.5798740386963,4,versionC_stim.csv,VC_VersionD.csv,"Version D","Version D",LOVE,AFFECTION,Study2,B,115,173,Test,User,-,,Recall,Recall1,3189,love,15.384615384615,2456,2948,0,0,,,1
w10035783,8j1itc85lr,Nick_Dissertation_EX1b,1,101,2020-04-19T16:09:44-07:00,2.1458308696747,4,versionC_stim.csv,VC_VersionD.csv,"Version D","Version D",BANG,FUZZY,Study2,U,168,109,Test,User,-,,Recall,Recall1,1718,bang,0,1087,1485,0,0,,,1
w10035783,8j1itc85lr,Nick_Dissertation_EX1b,1,102,2020-04-19T16:09:48-07:00,3.8544549942017,4,versionC_stim.csv,VC_VersionD.csv,"Version D","Version D",MAROON,JUSTICE,Study2,U,156,114,Test,User,-,,Recall,Recall1,3423,maroon,0,857,3224,0,0,,,1
w10035783,8j1itc85lr,Nick_Dissertation_EX1b,1,103,2020-04-19T16:09:52-07:00,4.4865989685059,4,versionC_stim.csv,VC_VersionD.csv,"Version D","Version D",BALLOON,POP,Study2,F,123,98,Test,User,-,,Recall,Recall1,4092,balloon,20,1086,3826,0,0,,,1
w10035783,8j1itc85lr,Nick_Dissertation_EX1b,1,104,2020-04-19T16:09:55-07:00,2.9698281288147,4,versionC_stim.csv,VC_VersionD.csv,"Version D","Version D",AIRCRAFT,PLANE,Study2,F,129,154,Test,User,-,,Recall,Recall1,2585,fly,25,2090,2400,0,0,,,1
w10035783,8j1itc85lr,Nick_Dissertation_EX1b,1,105,2020-04-19T16:10:00-07:00,5.0161399841309,4,versionC_stim.csv,VC_VersionD.csv,"Version D","Version D",FIGHT,FEUD,Study2,B,113,146,Test,User,-,,Recall,Recall1,4614,wrist,0,3596,4361,0,0,,,1
w10035783,8j1itc85lr,Nick_Dissertation_EX1b,1,106,2020-04-19T16:10:05-07:00,4.1511750221252,4,versionC_stim.csv,VC_VersionD.csv,"Version D","Version D",NOISE,LOUD,Study2,S,152,135,Test,User,-,,Recall,Recall1,3683,loud,100,1768,3477,1,1,,,1
w10035783,8j1itc85lr,Nick_Dissertation_EX1b,1,107,2020-04-19T16:10:10-07:00,5.404424905777,4,versionC_stim.csv,VC_VersionD.csv,"Version D","Version D",CHARM,VEHICLE,Study2,U,160,148,Test,User,-,,Recall,Recall1,4997,charm,16.666666666667,3955,4760,0,0,,,1
w10035783,8j1itc85lr,Nick_Dissertation_EX1b,1,108,2020-04-19T16:10:15-07:00,5.0795609951019,4,versionC_stim.csv,VC_VersionD.csv,"Version D","Version D",PAPER,DOCUMENT,Study2,B,109,129,Test,User,-,,Recall,Recall1,4661,pencil,28.571428571429,3302,4396,0,0,,,1
w10035783,8j1itc85lr,Nick_Dissertation_EX1b,1,109,2020-04-19T16:10:17-07:00,2.1401791572571,4,versionC_stim.csv,VC_VersionD.csv,"Version D","Version D",HATE,NAME,Study2,U,167,158,Test,User,-,,Recall,Recall1,1733,love,25,1084,1571,0,0,,,1
w10035783,8j1itc85lr,Nick_Dissertation_EX1b,1,110,2020-04-19T16:10:20-07:00,2.592875957489,4,versionC_stim.csv,VC_VersionD.csv,"Version D","Version D",TAN,SUN,Study2,S,155,126,Test,User,-,,Recall,Recall1,2196,white,0,1463,2030,0,0,,,1
w10035783,8j1itc85lr,Nick_Dissertation_EX1b,1,111,2020-04-19T16:10:24-07:00,3.6977779865265,4,versionC_stim.csv,VC_VersionD.csv,"Version D","Version D",STEAK,GIVE,Study2,U,158,140,Test,User,-,,Recall,Recall1,3290,res,28.571428571429,1908,3106,0,0,,,1
w10035783,8j1itc85lr,Nick_Dissertation_EX1b,1,112,2020-04-19T16:10:29-07:00,5.0685930252075,4,versionC_stim.csv,VC_VersionD.csv,"Version D","Version D",CLOTH,STRETCH,Study2,U,157,137,Test,User,-,,Recall,Recall1,4637,towel,33.333333333333,3664,4364,0,0,,,1
w10035783,8j1itc85lr,Nick_Dissertation_EX1b,1,113,2020-04-19T16:10:31-07:00,2.1778328418732,4,versionC_stim.csv,VC_VersionD.csv,"Version D","Version D",COLD,CHILL,Study2,B,114,142,Test,User,-,,Recall,Recall1,1784,hot,25,1263,1547,0,0,,,1
w10035783,8j1itc85lr,Nick_Dissertation_EX1b,1,114,2020-04-19T16:10:33-07:00,2.7245349884033,4,versionC_stim.csv,VC_VersionD.csv,"Version D","Version D",ACTRESS,STAR,Study2,F,120,170,Test,User,-,,Recall,Recall1,2325,singer,40,1428,2204,0,0,,,1
w10035783,8j1itc85lr,Nick_Dissertation_EX1b,1,115,2020-04-19T16:10:37-07:00,3.7537131309509,4,versionC_stim.csv,VC_VersionD.csv,"Version D","Version D",EQUAL,RIGHTS,Study2,S,137,138,Test,User,-,,Recall,Recall1,3361,plus,20,2494,3156,0,0,,,1
w10035783,8j1itc85lr,Nick_Dissertation_EX1b,1,116,2020-04-19T16:10:40-07:00,2.7227380275726,4,versionC_stim.csv,VC_VersionD.csv,"Version D","Version D",SCISSORS,SHEARS,Study2,B,112,169,Test,User,-,,Recall,Recall1,2319,paper,36.363636363636,1457,2117,0,0,,,1
w10035783,8j1itc85lr,Nick_Dissertation_EX1b,1,117,2020-04-19T16:10:45-07:00,4.600615978241,4,versionC_stim.csv,VC_VersionD.csv,"Version D","Version D",HAVE,OWN,Study2,S,153,167,Test,User,-,,Recall,Recall1,4173,have,0,2398,3975,0,0,,,1
w10035783,8j1itc85lr,Nick_Dissertation_EX1b,1,118,2020-04-19T16:10:47-07:00,2.8904330730438,4,versionC_stim.csv,VC_VersionD.csv,"Version D","Version D",TRUTHFUL,HONEST,Study2,F,133,124,Test,User,-,,Recall,Recall1,2506,lie,22.222222222222,2004,2336,0,0,,,1
w10035783,8j1itc85lr,Nick_Dissertation_EX1b,1,119,2020-04-19T16:10:50-07:00,3.0127627849579,4,versionC_stim.csv,VC_VersionD.csv,"Version D","Version D",RED,CHERRY,Study2,B,104,175,Test,User,-,,Recall,Recall1,2602,blue,20,1910,2450,0,0,,,1
w10035783,8j1itc85lr,Nick_Dissertation_EX1b,1,120,2020-04-19T16:10:54-07:00,3.4890201091766,4,versionC_stim.csv,VC_VersionD.csv,"Version D","Version D",FICTION,LISTEN,Study2,U,164,102,Test,User,-,,Recall,Recall1,3059,story,36.363636363636,2124,2832,0,0,,,1
w10035783,8j1itc85lr,Nick_Dissertation_EX1b,1,121,2020-04-19T16:11:01-07:00,6.564954996109,4,versionC_stim.csv,VC_VersionD.csv,"Version D","Version D",OBTAIN,MEAT,Study2,U,161,110,Test,User,-,,Recall,Recall1,6168,obtain,20,1781,5892,0,0,,,1
w10035783,8j1itc85lr,Nick_Dissertation_EX1b,1,122,2020-04-19T16:11:03-07:00,2.6469299793243,4,versionC_stim.csv,VC_VersionD.csv,"Version D","Version D",NAP,SLEEP,Study2,F,134,153,Test,User,-,,Recall,Recall1,2262,sleep,100,1244,1975,1,1,,,1
w10035783,8j1itc85lr,Nick_Dissertation_EX1b,1,123,2020-04-19T16:11:14-07:00,11.331470012665,4,versionC_stim.csv,VC_VersionD.csv,"Version D","Version D",END,ADJOURN,Study2,B,101,157,Test,User,-,,Recall,Recall1,10935,start,33.333333333333,9924,10749,0,0,,,1
w10035783,8j1itc85lr,Nick_Dissertation_EX1b,1,124,2020-04-19T16:11:18-07:00,3.9529321193695,4,versionC_stim.csv,VC_VersionD.csv,"Version D","Version D",EAT,DINE,Study2,B,111,112,Test,User,-,,Recall,Recall1,3555,eat,28.571428571429,2963,3437,0,0,,,1
w10035783,8j1itc85lr,Nick_Dissertation_EX1b,1,125,2020-04-19T16:11:21-07:00,2.9378859996796,4,versionC_stim.csv,VC_VersionD.csv,"Version D","Version D",JOKE,KEYS,Study2,U,165,125,Test,User,-,,Recall,Recall1,2540,funny,22.222222222222,1482,2343,0,0,,,1
w10035783,8j1itc85lr,Nick_Dissertation_EX1b,1,126,2020-04-19T16:11:26-07:00,4.3254578113556,4,versionC_stim.csv,VC_VersionD.csv,"Version D","Version D",PANTHER,CAT,Study2,F,126,168,Test,User,-,,Recall,Recall1,3930,panther,40,1533,3740,0,0,,,1
w10035783,8j1itc85lr,Nick_Dissertation_EX1b,1,127,2020-04-19T16:11:31-07:00,4.8854560852051,4,versionC_stim.csv,VC_VersionD.csv,"Version D","Version D",WAX,CANDLE,Study2,S,139,127,Test,User,-,,Recall,Recall1,4461,smooth,0,3391,4213,0,0,,,1
w10035783,8j1itc85lr,Nick_Dissertation_EX1b,1,128,2020-04-19T16:11:31-07:00,0.43682909011841,4,versionC_stim.csv,VC_VersionD.csv,"Version D","Version D",ELECTION,MAZE,Study2,U,159,113,Test,User,-,,Recall,Recall1,87,,0,-1,-1,0,0,,,1
w10035783,8j1itc85lr,Nick_Dissertation_EX1b,1,129,2020-04-19T16:11:40-07:00,9.4017050266266,4,versionC_stim.csv,VC_VersionD.csv,"Version D","Version D",BRAWL,FIGHT,Study2,F,135,155,Test,User,-,,Recall,Recall1,8900,brawl,0,7070,8296,0,0,,,1
w10035783,8j1itc85lr,Nick_Dissertation_EX1b,1,130,2020-04-19T16:11:44-07:00,3.8606948852539,4,versionC_stim.csv,VC_VersionD.csv,"Version D","Version D",FAVORITE,BEST,Study2,F,125,107,Test,User,-,,Recall,Recall1,3458,not,28.571428571429,2818,3191,0,0,,,1
w10035783,8j1itc85lr,Nick_Dissertation_EX1b,1,131,2020-04-19T16:11:47-07:00,3.1240429878235,4,versionC_stim.csv,VC_VersionD.csv,"Version D","Version D",SHAVE,RAZOR,Study2,S,136,156,Test,User,-,,Recall,Recall1,2724,clear,40,1395,2409,0,0,,,1
w10035783,8j1itc85lr,Nick_Dissertation_EX1b,1,132,2020-04-19T16:11:56-07:00,8.4134609699249,4,versionC_stim.csv,VC_VersionD.csv,"Version D","Version D",THIMBLE,THREAD,Study2,F,121,100,Test,User,-,,Recall,Recall1,8003,thumb,36.363636363636,1131,7137,0,0,,,1
w10035783,8j1itc85lr,Nick_Dissertation_EX1b,1,133,2020-04-19T16:11:58-07:00,2.4831891059875,4,versionC_stim.csv,VC_VersionD.csv,"Version D","Version D",LONG,EXTENSION,Study2,B,96,171,Test,User,-,,Recall,Recall1,2084,short,28.571428571429,1113,1852,0,0,,,1
w10035783,8j1itc85lr,Nick_Dissertation_EX1b,1,134,2020-04-19T16:12:00-07:00,2.0912349224091,4,versionC_stim.csv,VC_VersionD.csv,"Version D","Version D",DOG,FURRY,Study2,B,102,120,Test,User,-,,Recall,Recall1,1631,cat,0,1006,1397,0,0,,,1
w10035783,8j1itc85lr,Nick_Dissertation_EX1b,1,135,2020-04-19T16:12:09-07:00,8.7525911331177,4,versionC_stim.csv,VC_VersionD.csv,"Version D","Version D",LONELY,ALONE,Study2,S,145,108,Test,User,-,,Recall,Recall1,8349,lonely,72.727272727273,4620,7466,0,0,,,1
w10035783,8j1itc85lr,Nick_Dissertation_EX1b,1,136,2020-04-19T16:12:13-07:00,4.10018491745,4,versionC_stim.csv,VC_VersionD.csv,"Version D","Version D",TIE,SHOELACE,Study2,B,99,172,Test,User,-,,Recall,Recall1,3703,tie,18.181818181818,3098,3452,0,0,,,1
w10035783,8j1itc85lr,Nick_Dissertation_EX1b,1,137,2020-04-19T16:12:16-07:00,3.1842119693756,4,versionC_stim.csv,VC_VersionD.csv,"Version D","Version D",TEMPER,TANTRUM,Study2,S,154,131,Test,User,-,,Recall,Recall1,2699,anger,50,1770,2497,0,0,,,1
w10035783,8j1itc85lr,Nick_Dissertation_EX1b,1,138,2020-04-19T16:12:21-07:00,5.0073189735413,4,versionC_stim.csv,VC_VersionD.csv,"Version D","Version D",BRACELET,WRIST,Study2,S,140,161,Test,User,-,,Recall,Recall1,4604,charm,20,1791,4375,0,0,,,1
w10035783,8j1itc85lr,Nick_Dissertation_EX1b,1,139,2020-04-19T16:12:25-07:00,3.6700320243835,4,versionC_stim.csv,VC_VersionD.csv,"Version D","Version D",LEAGUE,BASEBALL,Study2,F,131,115,Test,User,-,,Recall,Recall1,3273,sport,15.384615384615,2177,3057,0,0,,,1
w10035783,8j1itc85lr,Nick_Dissertation_EX1b,1,140,2020-04-19T16:12:29-07:00,4.0907740592957,4,versionC_stim.csv,VC_VersionD.csv,"Version D","Version D",SMELL,INCENSE,Study2,B,110,143,Test,User,-,,Recall,Recall1,3682,good,0,2671,3424,0,0,,,1
w10035783,8j1itc85lr,Nick_Dissertation_EX1b,1,141,2020-04-19T16:12:32-07:00,2.4644289016724,4,versionC_stim.csv,VC_VersionD.csv,"Version D","Version D",GROUND,EARTH,Study2,S,144,121,Test,User,-,,Recall,Recall1,2065,top,25,1393,1779,0,0,,,1
w10035783,8j1itc85lr,Nick_Dissertation_EX1b,1,142,2020-04-19T16:12:35-07:00,3.7810089588165,4,versionC_stim.csv,VC_VersionD.csv,"Version D","Version D",BANKER,MONEY,Study2,F,132,128,Test,User,-,,Recall,Recall1,3354,broker,36.363636363636,1883,3074,0,0,,,1
w10035783,8j1itc85lr,Nick_Dissertation_EX1b,1,143,2020-04-19T16:12:39-07:00,3.5847079753876,4,versionC_stim.csv,VC_VersionD.csv,"Version D","Version D",CHILDREN,MIRROR,Study2,U,174,152,Test,User,-,,Recall,Recall1,3180,adult,0,1971,2900,0,0,,,1
w10035783,8j1itc85lr,Nick_Dissertation_EX1b,1,144,2020-04-19T16:12:42-07:00,3.2385721206665,4,versionC_stim.csv,VC_VersionD.csv,"Version D","Version D",AWAY,GONE,Study2,S,142,159,Test,User,-,,Recall,Recall1,2836,go,66.666666666667,2159,2326,0,0,,,1
w10035783,8j1itc85lr,Nick_Dissertation_EX1b,1,145,2020-04-19T16:12:48-07:00,5.6083528995514,4,versionC_stim.csv,VC_VersionD.csv,"Version D","Version D",HEAD,SCALP,Study2,B,105,116,Test,User,-,,Recall,Recall1,5126,feet,0,3393,4643,0,0,,,1
w10035783,8j1itc85lr,Nick_Dissertation_EX1b,1,146,2020-04-19T16:12:52-07:00,3.6171200275421,4,versionC_stim.csv,VC_VersionD.csv,"Version D","Version D",WET,DRY,Study2,S,146,139,Test,User,-,,Recall,Recall1,3218,dry,100,1194,2998,1,1,,,1
w10035783,8j1itc85lr,Nick_Dissertation_EX1b,1,147,2020-04-19T16:12:55-07:00,3.7267501354218,4,versionC_stim.csv,VC_VersionD.csv,"Version D","Version D",Morning,TEMPERATURE,Study2,U,173,160,Test,User,-,,Recall,Recall1,3317,night,12.5,1723,3126,0,0,,,1
w10035783,8j1itc85lr,Nick_Dissertation_EX1b,1,148,2020-04-19T16:12:59-07:00,3.6954989433289,4,versionC_stim.csv,VC_VersionD.csv,"Version D","Version D",REVENGE,EVEN,Study2,F,122,165,Test,User,-,,Recall,Recall1,3295,good,0,2101,2886,0,0,,,1
w10035783,8j1itc85lr,Nick_Dissertation_EX1b,1,149,2020-04-19T16:13:03-07:00,4.0722639560699,4,versionC_stim.csv,VC_VersionD.csv,"Version D","Version D",PLANT,CACTUS,Study2,B,98,117,Test,User,-,,Recall,Recall1,3674,seed,20,2711,3406,0,0,,,1
w10035783,8j1itc85lr,Nick_Dissertation_EX1b,1,150,2020-04-19T16:13:07-07:00,3.5699291229248,4,versionC_stim.csv,VC_VersionD.csv,"Version D","Version D",PENGUIN,BIRD,Study2,F,119,176,Test,User,-,,Recall,Recall1,3133,feet,0,2271,2953,0,0,,,1
w10035783,8j1itc85lr,Nick_Dissertation_EX1b,1,151,2020-04-19T16:13:10-07:00,3.7669899463654,4,versionC_stim.csv,VC_VersionD.csv,"Version D","Version D",DONKEY,MULE,Study2,B,108,132,Test,User,-,,Recall,Recall1,3343,tail,25,2194,3042,0,0,,,1
w10035783,8j1itc85lr,Nick_Dissertation_EX1b,1,152,2020-04-19T16:13:18-07:00,7.675008058548,4,versionC_stim.csv,VC_VersionD.csv,"Version D","Version D",SEATBELT,SAFETY,Study2,S,147,164,Test,User,-,,Recall,Recall1,7281,wreak,18.181818181818,3367,6963,0,0,,,1
w10035783,8j1itc85lr,Nick_Dissertation_EX1b,1,153,2020-04-19T16:13:24-07:00,5.9003977775574,4,versionC_stim.csv,VC_VersionD.csv,"Version D","Version D",SIGN,LOAN,Study2,U,171,174,Test,User,-,,Recall,Recall1,5499,sign,25,3640,4092,0,0,,,1
w10035783,8j1itc85lr,Nick_Dissertation_EX1b,1,154,2020-04-19T16:13:28-07:00,3.6977062225342,4,versionC_stim.csv,VC_VersionD.csv,"Version D","Version D",BREAKABLE,GLASS,Study2,F,127,147,Test,User,-,,Recall,Recall1,3298,fix,0,2474,3023,0,0,,,1
w10035783,8j1itc85lr,Nick_Dissertation_EX1b,1,155,2020-04-19T16:13:30-07:00,2.7672808170319,4,versionC_stim.csv,VC_VersionD.csv,"Version D","Version D",FLIP,TURN,Study2,F,116,97,Test,User,-,,Recall,Recall1,2314,turn,100,1645,2073,1,1,,,1
w10035783,8j1itc85lr,Nick_Dissertation_EX1b,1,156,2020-04-19T16:13:33-07:00,3.1077749729156,4,versionC_stim.csv,VC_VersionD.csv,"Version D","Version D",CLEAR,MOAT,Study2,U,169,104,Test,User,-,,Recall,Recall1,2717,fog,28.571428571429,1848,2356,0,0,,,1
w10035783,8j1itc85lr,Nick_Dissertation_EX1b,1,157,2020-04-19T16:13:37-07:00,3.9239699840546,4,versionC_stim.csv,VC_VersionD.csv,"Version D","Version D",GAME,CLUE,Study2,B,97,123,Test,User,-,,Recall,Recall1,3514,system,20,1708,3058,0,0,,,1
w10035783,8j1itc85lr,Nick_Dissertation_EX1b,1,158,2020-04-19T16:13:45-07:00,7.678277015686,4,versionC_stim.csv,VC_VersionD.csv,"Version D","Version D",CAR,DRIVER,Study2,B,106,111,Test,User,-,,Recall,Recall1,7284,truck,18.181818181818,6317,7010,0,0,,,1
w10035783,8j1itc85lr,Nick_Dissertation_EX1b,1,159,2020-04-19T16:13:54-07:00,8.4466071128845,4,versionC_stim.csv,VC_VersionD.csv,"Version D","Version D",TRASH,LITTER,Study2,B,103,145,Test,User,-,,Recall,Recall1,8012,trash,36.363636363636,1863,7541,0,0,,,1
w10035783,8j1itc85lr,Nick_Dissertation_EX1b,1,160,2020-04-19T16:13:57-07:00,3.481290102005,4,versionC_stim.csv,VC_VersionD.csv,"Version D","Version D",TOIL,LEASE,Study2,U,170,166,Test,User,-,,Recall,Recall1,3064,seed,44.444444444444,1999,2685,0,0,,,1
w10035783,8j1itc85lr,Nick_Dissertation_EX1b,1,161,2020-04-19T16:13:59-07:00,2.3291399478912,4,versionC_stim.csv,VC_VersionD.csv,"Version D","Version D",WINDSHIELD,CAR,Study2,F,117,136,Test,User,-,,Recall,Recall1,1934,car,100,1333,1713,1,1,,,1
w10035783,8j1itc85lr,Nick_Dissertation_EX1b,1,162,2020-04-19T16:14:05-07:00,5.4525349140167,4,versionC_stim.csv,VC_VersionD.csv,"Version D","Version D",VILLAIN,BAD,Study2,F,118,163,Test,User,-,,Recall,Recall1,4567,citizen,0,2374,4099,0,0,,,1
w10035783,8j1itc85lr,Nick_Dissertation_EX1b,1,163,2020-04-19T16:14:07-07:00,2.6493189334869,4,versionC_stim.csv,VC_VersionD.csv,"Version D","Version D",LIE,TRUTH,Study2,S,148,149,Test,User,-,,Recall,Recall1,2227,stpry,40,1228,1956,0,0,,,1
w10035783,8j1itc85lr,Nick_Dissertation_EX1b,1,164,2020-04-19T16:14:14-07:00,6.2430820465088,4,versionC_stim.csv,VC_VersionD.csv,"Version D","Version D",COMMUNICATION,PHONE,Study2,S,149,105,Test,User,-,,Recall,Recall1,5837,tell,22.222222222222,3100,4859,0,0,,,1
w10035783,8j1itc85lr,Nick_Dissertation_EX1b,1,165,2020-04-19T16:14:17-07:00,3.6762089729309,4,versionC_stim.csv,VC_VersionD.csv,"Version D","Version D",TICK,FLEA,Study2,S,151,150,Test,User,-,,Recall,Recall1,3260,trick,0,2070,2897,0,0,,,1
w10035783,8j1itc85lr,Nick_Dissertation_EX1b,1,166,2020-04-19T16:14:24-07:00,6.5851731300354,4,versionC_stim.csv,VC_VersionD.csv,"Version D","Version D",ABLE,CRACKLE,Study2,U,162,103,Test,User,-,,Recall,Recall1,6156,nibble,30.769230769231,3744,5850,0,0,,,1
w10035783,8j1itc85lr,Nick_Dissertation_EX1b,1,167,2020-04-19T16:14:28-07:00,3.7369198799133,4,versionC_stim.csv,VC_VersionD.csv,"Version D","Version D",STRAWBERRY,FRUIT,Study2,F,124,106,Test,User,-,,Recall,Recall1,3291,grapes,18.181818181818,1872,2994,0,0,,,1
w10035783,8j1itc85lr,Nick_Dissertation_EX1b,1,168,2020-04-19T16:14:32-07:00,4.7440910339355,4,versionC_stim.csv,VC_VersionD.csv,"Version D","Version D",DRINK,WATER,Study2,S,143,141,Test,User,-,,Recall,Recall1,4341,coke,22.222222222222,3612,4069,0,0,,,1
w10035783,8j1itc85lr,Nick_Dissertation_EX1b,1,169,2020-04-19T16:14:35-07:00,2.7614850997925,4,versionC_stim.csv,VC_VersionD.csv,"Version D","Version D",SARDINE,FISH,Study2,F,130,144,Test,User,-,,Recall,Recall1,2343,fish,100,1599,2047,1,1,,,1
w10035783,8j1itc85lr,Nick_Dissertation_EX1b,1,170,2020-04-19T16:14:40-07:00,4.5732679367065,4,versionC_stim.csv,VC_VersionD.csv,"Version D","Version D",CUT,CHOP,Study2,B,107,151,Test,User,-,,Recall,Recall1,4142,scissiors,30.769230769231,2048,3906,0,0,,,1
w10035783,8j1itc85lr,Nick_Dissertation_EX1b,1,171,2020-04-19T16:14:43-07:00,2.9686660766602,4,versionC_stim.csv,VC_VersionD.csv,"Version D","Version D",REEL,ROD,Study2,S,150,133,Test,User,-,,Recall,Recall1,2580,reel,28.571428571429,1734,2263,0,0,,,1
w10035783,8j1itc85lr,Nick_Dissertation_EX1b,1,172,2020-04-19T16:14:47-07:00,4.4895038604736,4,versionC_stim.csv,VC_VersionD.csv,"Version D","Version D",CARBON,ELEMENT,Study2,S,141,122,Test,User,-,,Recall,Recall1,4093,dioxide,14.285714285714,1914,3587,0,0,,,1
w10035783,8j1itc85lr,Nick_Dissertation_EX1b,1,173,2020-04-19T16:14:51-07:00,3.7700700759888,4,versionC_stim.csv,VC_VersionD.csv,"Version D","Version D",OUNCE,BOTH,Study2,U,172,119,Test,User,-,,Recall,Recall1,3331,weight,20,2273,3017,0,0,,,1
w10035783,8j1itc85lr,Nick_Dissertation_EX1b,1,174,2020-04-19T16:14:54-07:00,3.3912060260773,4,versionC_stim.csv,VC_VersionD.csv,"Version D","Version D",COFFIN,DEAD,Study2,F,128,162,Test,User,-,,Recall,Recall1,2965,death,66.666666666667,1602,2618,0,0,,,1
w10035783,8j1itc85lr,Nick_Dissertation_EX1b,1,175,2020-04-19T16:14:58-07:00,3.8935890197754,4,versionC_stim.csv,VC_VersionD.csv,"Version D","Version D",CLOTHES,CAKE,Study2,U,166,130,Test,User,-,,Recall,Recall1,3480,shirt,0,2344,3200,0,0,,,1
w10035783,8j1itc85lr,Nick_Dissertation_EX1b,1,176,2020-04-19T16:15:01-07:00,3.0173330307007,4,versionC_stim.csv,VC_VersionD.csv,"Version D","Version D",SCAR,MAIN,Study2,U,175,118,Test,User,-,,Recall,Recall1,2616,red,0,1823,2238,0,0,,,1
w10035783,8j1itc85lr,Nick_Dissertation_EX1b,1,177,2020-04-19T16:15:05-07:00,3.4071049690247,4,versionC_stim.csv,VC_VersionD.csv,"Version D","Version D",MYSTERY,DETECTIVE,Study2,B,100,134,Test,User,-,,Recall,Recall1,3005,figure,26.666666666667,1908,2823,0,0,,,1
w10035783,8j1itc85lr,Nick_Dissertation_EX1b,1,178,2020-04-19T16:15:24-07:00,18.983752012253,4,versionC_stim.csv,VC_VersionD.csv,"Version D","Version D",,,,,,0,Instruct,-,10,"You will now be presented with a new set of word pairs. Please study each pair. Remember that your memory will be tested! When finished, press Enter to move to the next pair.",Initial_Instruct,Instruct4,18593,,,-1,-1,,,,,1
w10035783,8j1itc85lr,Nick_Dissertation_EX1b,1,179,2020-04-19T16:15:42-07:00,18.714293003082,4,versionC_stim.csv,VC_VersionD.csv,"Version D","Version D",,,,,,0,Instruct,,10,"You will again be asked to count how many vowels the two words contain. Please remember to type this number in the space below each pair.",,Instruct10,18292,,,-1,-1,,,,,1
w10035783,8j1itc85lr,Nick_Dissertation_EX1b,1,180,2020-04-19T16:15:45-07:00,2.7877449989319,4,versionC_stim.csv,VC_VersionD.csv,"Version D","Version D",,,,,,0,Instruct,User,-,"Press Enter when you are readty to begin",,Instruct11,2351,,,-1,-1,,,,,1
w10035783,8j1itc85lr,Nick_Dissertation_EX1b,1,181,2020-04-19T16:15:53-07:00,8.0810978412628,4,versionC_stim.csv,VC_VersionD.csv,"Version D","Version D",JAM,SPACE,BUFFER1,Buffer,5,6,VC,User,-,"How many vowels are the two words combined?|Type your response below and then press Enter.",Study/JOL,BUFFER3,7516,,,6808,6808,,,,3,1
w10035783,8j1itc85lr,Nick_Dissertation_EX1b,1,182,2020-04-19T16:16:00-07:00,6.4794020652771,4,versionC_stim.csv,VC_VersionD.csv,"Version D","Version D",BUTTER,PEANUT,BUFFER1,Buffer,3,5,VC,User,-,"How many vowels are the two words combined?|Type your response below and then press Enter.",Study/JOL,BUFFER3,6073,,,5840,5841,,,,5,1
w10035783,8j1itc85lr,Nick_Dissertation_EX1b,1,183,2020-04-19T16:16:04-07:00,3.7963299751282,4,versionC_stim.csv,VC_VersionD.csv,"Version D","Version D",HIDE,SCARE,BUFFER1,Buffer,4,2,VC,User,-,"How many vowels are the two words combined?|Type your response below and then press Enter.",Study/JOL,BUFFER3,3399,,,3197,3197,,,,4,1
w10035783,8j1itc85lr,Nick_Dissertation_EX1b,1,184,2020-04-19T16:16:11-07:00,7.067950963974,4,versionC_stim.csv,VC_VersionD.csv,"Version D","Version D",CATCHER,BASEBALL,BUFFER1,Buffer,2,4,VC,User,-,"How many vowels are the two words combined?|Type your response below and then press Enter.",Study/JOL,BUFFER3,6654,,,6240,6240,,,,5,1
w10035783,8j1itc85lr,Nick_Dissertation_EX1b,1,185,2020-04-19T16:16:14-07:00,3.3329739570618,4,versionC_stim.csv,VC_VersionD.csv,"Version D","Version D",GREEN,TREES,BUFFER1,Buffer,1,3,VC,User,-,"How many vowels are the two words combined?|Type your response below and then press Enter.",Study/JOL,BUFFER3,2929,,,2689,2690,,,,4,1
w10035783,8j1itc85lr,Nick_Dissertation_EX1b,1,186,2020-04-19T16:16:32-07:00,18.10477399826,4,versionC_stim.csv,VC_VersionD.csv,"Version D","Version D",HUNGRY,PARK,Study1,U,68,7,VC,User,-,"How many vowels are the two words combined?|Type your response below and then press Enter.",Study/JOL,"Study Phase2",17704,,,17450,17450,,,,3,1
w10035783,8j1itc85lr,Nick_Dissertation_EX1b,1,187,2020-04-19T16:16:37-07:00,5.1010050773621,4,versionC_stim.csv,VC_VersionD.csv,"Version D","Version D",ATTORNEY,LAW,Study1,F,34,63,VC,User,-,"How many vowels are the two words combined?|Type your response below and then press Enter.",Study/JOL,"Study Phase2",4630,,,3844,3844,,,,4,1
w10035783,8j1itc85lr,Nick_Dissertation_EX1b,1,188,2020-04-19T16:16:42-07:00,4.7180819511414,4,versionC_stim.csv,VC_VersionD.csv,"Version D","Version D",CARD,CREDIT,Study1,B,23,16,VC,User,-,"How many vowels are the two words combined?|Type your response below and then press Enter.",Study/JOL,"Study Phase2",4317,,,4128,4128,,,,3,1
w10035783,8j1itc85lr,Nick_Dissertation_EX1b,1,189,2020-04-19T16:16:46-07:00,3.8711440563202,4,versionC_stim.csv,VC_VersionD.csv,"Version D","Version D",HAMMER,CHISEL,Study1,B,9,80,VC,User,-,"How many vowels are the two words combined?|Type your response below and then press Enter.",Study/JOL,"Study Phase2",3471,,,3286,3286,,,,4,1
w10035783,8j1itc85lr,Nick_Dissertation_EX1b,1,190,2020-04-19T16:16:49-07:00,3.393294095993,4,versionC_stim.csv,VC_VersionD.csv,"Version D","Version D",MONEY,WAGE,Study1,B,8,38,VC,User,-,"How many vowels are the two words combined?|Type your response below and then press Enter.",Study/JOL,"Study Phase2",2977,,,2747,2747,,,,4,1
w10035783,8j1itc85lr,Nick_Dissertation_EX1b,1,191,2020-04-19T16:16:54-07:00,4.5547690391541,4,versionC_stim.csv,VC_VersionD.csv,"Version D","Version D",BUSINESS,DEATH,Study1,U,72,60,VC,User,-,"How many vowels are the two words combined?|Type your response below and then press Enter.",Study/JOL,"Study Phase2",4152,,,3962,3962,,,,5,1
w10035783,8j1itc85lr,Nick_Dissertation_EX1b,1,192,2020-04-19T16:16:58-07:00,4.2823669910431,4,versionC_stim.csv,VC_VersionD.csv,"Version D","Version D",JURY,TRIAL,Study1,S,50,78,VC,User,-,"How many vowels are the two words combined?|Type your response below and then press Enter.",Study/JOL,"Study Phase2",3889,,,3664,3664,,,,3,1
w10035783,8j1itc85lr,Nick_Dissertation_EX1b,1,193,2020-04-19T16:17:01-07:00,3.3835139274597,4,versionC_stim.csv,VC_VersionD.csv,"Version D","Version D",FOOT,SHOE,Study1,S,60,68,VC,User,-,"How many vowels are the two words combined?|Type your response below and then press Enter.",Study/JOL,"Study Phase2",2942,,,2717,2717,,,,4,1
w10035783,8j1itc85lr,Nick_Dissertation_EX1b,1,194,2020-04-19T16:17:05-07:00,4.1261088848114,4,versionC_stim.csv,VC_VersionD.csv,"Version D","Version D",LATCH,KEY,Study1,F,36,15,VC,User,-,"How many vowels are the two words combined?|Type your response below and then press Enter.",Study/JOL,"Study Phase2",3727,,,2529,3405,,,,2,1
w10035783,8j1itc85lr,Nick_Dissertation_EX1b,1,195,2020-04-19T16:17:09-07:00,4.0048570632935,4,versionC_stim.csv,VC_VersionD.csv,"Version D","Version D",GROWTH,HEIGHT,Study1,F,30,66,VC,User,-,"How many vowels are the two words combined?|Type your response below and then press Enter.",Study/JOL,"Study Phase2",3587,,,3394,3394,,,,3,1
w10035783,8j1itc85lr,Nick_Dissertation_EX1b,1,196,2020-04-19T16:17:15-07:00,5.1054079532623,4,versionC_stim.csv,VC_VersionD.csv,"Version D","Version D",DIVISION,MATH,Study1,F,33,13,VC,User,-,"How many vowels are the two words combined?|Type your response below and then press Enter.",Study/JOL,"Study Phase2",4677,,,4549,4549,,,,5,1
w10035783,8j1itc85lr,Nick_Dissertation_EX1b,1,197,2020-04-19T16:17:22-07:00,7.313451051712,4,versionC_stim.csv,VC_VersionD.csv,"Version D","Version D",TUCK,ALLOW,Study1,U,78,36,VC,User,-,"How many vowels are the two words combined?|Type your response below and then press Enter.",Study/JOL,"Study Phase2",6918,,,5979,6646,,,,2,1
w10035783,8j1itc85lr,Nick_Dissertation_EX1b,1,198,2020-04-19T16:17:28-07:00,6.3627619743347,4,versionC_stim.csv,VC_VersionD.csv,"Version D","Version D",STENCH,SMELL,Study1,F,42,61,VC,User,-,"How many vowels are the two words combined?|Type your response below and then press Enter.",Study/JOL,"Study Phase2",5918,,,5638,5638,,,,2,1
w10035783,8j1itc85lr,Nick_Dissertation_EX1b,1,199,2020-04-19T16:17:38-07:00,9.5483901500702,4,versionC_stim.csv,VC_VersionD.csv,"Version D","Version D",WAR,REVOLUTION,Study1,B,20,81,VC,User,-,"How many vowels are the two words combined?|Type your response below and then press Enter.",Study/JOL,"Study Phase2",9153,,,8975,8975,,,,6,1
w10035783,8j1itc85lr,Nick_Dissertation_EX1b,1,200,2020-04-19T16:17:42-07:00,4.3976449966431,4,versionC_stim.csv,VC_VersionD.csv,"Version D","Version D",WOMAN,LIFT,Study1,U,69,20,VC,User,-,"How many vowels are the two words combined?|Type your response below and then press Enter.",Study/JOL,"Study Phase2",3999,,,3802,3802,,,,3,1
w10035783,8j1itc85lr,Nick_Dissertation_EX1b,1,201,2020-04-19T16:17:49-07:00,6.660630941391,4,versionC_stim.csv,VC_VersionD.csv,"Version D","Version D",FAMINE,HUNGER,Study1,F,40,71,VC,User,-,"How many vowels are the two words combined?|Type your response below and then press Enter.",Study/JOL,"Study Phase2",6221,,,-1,-1,,,,,1
w10035783,8j1itc85lr,Nick_Dissertation_EX1b,1,202,2020-04-19T16:17:55-07:00,6.5111420154572,4,versionC_stim.csv,VC_VersionD.csv,"Version D","Version D",BLAZE,FIRE,Study1,F,45,46,VC,User,-,"How many vowels are the two words combined?|Type your response below and then press Enter.",Study/JOL,"Study Phase2",6082,,,5873,5873,,,,4,1
w10035783,8j1itc85lr,Nick_Dissertation_EX1b,1,203,2020-04-19T16:17:59-07:00,3.3033299446106,4,versionC_stim.csv,VC_VersionD.csv,"Version D","Version D",OUT,WAY,Study1,B,16,70,VC,User,-,"How many vowels are the two words combined?|Type your response below and then press Enter.",Study/JOL,"Study Phase2",2905,,,2609,2609,,,,3,1
w10035783,8j1itc85lr,Nick_Dissertation_EX1b,1,204,2020-04-19T16:18:04-07:00,4.8851659297943,4,versionC_stim.csv,VC_VersionD.csv,"Version D","Version D",END,BEGIN,Study1,S,54,14,VC,User,-,"How many vowels are the two words combined?|Type your response below and then press Enter.",Study/JOL,"Study Phase2",4477,,,4235,4235,,,,3,1
w10035783,8j1itc85lr,Nick_Dissertation_EX1b,1,205,2020-04-19T16:18:10-07:00,5.9768741130829,4,versionC_stim.csv,VC_VersionD.csv,"Version D","Version D",WORD,SENTENCE,Study1,F,31,32,VC,User,-,"How many vowels are the two words combined?|Type your response below and then press Enter.",Study/JOL,"Study Phase2",5580,,,5422,5422,,,,5,1
w10035783,8j1itc85lr,Nick_Dissertation_EX1b,1,206,2020-04-19T16:18:14-07:00,4.2905509471893,4,versionC_stim.csv,VC_VersionD.csv,"Version D","Version D",FLOWER,ORCHID,Study1,B,24,26,VC,User,-,"How many vowels are the two words combined?|Type your response below and then press Enter.",Study/JOL,"Study Phase2",3854,,,3637,3637,,,,4,1
w10035783,8j1itc85lr,Nick_Dissertation_EX1b,1,207,2020-04-19T16:18:21-07:00,6.7061340808868,4,versionC_stim.csv,VC_VersionD.csv,"Version D","Version D",COLD,BITTER,Study1,B,12,47,VC,User,-,"How many vowels are the two words combined?|Type your response below and then press Enter.",Study/JOL,"Study Phase2",6300,,,6070,6070,,,,3,1
w10035783,8j1itc85lr,Nick_Dissertation_EX1b,1,208,2020-04-19T16:18:25-07:00,4.5835599899292,4,versionC_stim.csv,VC_VersionD.csv,"Version D","Version D",STING,HORNET,Study1,B,11,55,VC,User,-,"How many vowels are the two words combined?|Type your response below and then press Enter.",Study/JOL,"Study Phase2",4171,,,3937,3937,,,,3,1
w10035783,8j1itc85lr,Nick_Dissertation_EX1b,1,209,2020-04-19T16:18:30-07:00,5.3050220012665,4,versionC_stim.csv,VC_VersionD.csv,"Version D","Version D",ASSIGNMENT,DUE,Study1,S,46,67,VC,User,-,"How many vowels are the two words combined?|Type your response below and then press Enter.",Study/JOL,"Study Phase2",4857,,,4654,4654,,,,4,1
w10035783,8j1itc85lr,Nick_Dissertation_EX1b,1,210,2020-04-19T16:18:35-07:00,4.264988899231,4,versionC_stim.csv,VC_VersionD.csv,"Version D","Version D",COW,HERD,Study1,B,22,53,VC,User,-,"How many vowels are the two words combined?|Type your response below and then press Enter.",Study/JOL,"Study Phase2",3868,,,3654,3654,,,,2,1
w10035783,8j1itc85lr,Nick_Dissertation_EX1b,1,211,2020-04-19T16:18:40-07:00,5.5986070632935,4,versionC_stim.csv,VC_VersionD.csv,"Version D","Version D",ROUND,CIRCLE,Study1,S,65,76,VC,User,-,"How many vowels are the two words combined?|Type your response below and then press Enter.",Study/JOL,"Study Phase2",5195,,,4965,4965,,,,4,1
w10035783,8j1itc85lr,Nick_Dissertation_EX1b,1,212,2020-04-19T16:18:57-07:00,17.111550092697,4,versionC_stim.csv,VC_VersionD.csv,"Version D","Version D",ACCIDENT,STRONG,Study1,U,80,57,VC,User,-,"How many vowels are the two words combined?|Type your response below and then press Enter.",Study/JOL,"Study Phase2",16683,,,16453,16453,,,,3,1
w10035783,8j1itc85lr,Nick_Dissertation_EX1b,1,213,2020-04-19T16:19:01-07:00,3.3473019599915,4,versionC_stim.csv,VC_VersionD.csv,"Version D","Version D",SIP,DRINK,Study1,F,27,10,VC,User,-,"How many vowels are the two words combined?|Type your response below and then press Enter.",Study/JOL,"Study Phase2",2940,,,2717,2717,,,,2,1
w10035783,8j1itc85lr,Nick_Dissertation_EX1b,1,214,2020-04-19T16:19:05-07:00,4.6466438770294,4,versionC_stim.csv,VC_VersionD.csv,"Version D","Version D",BEE,HONEY,Study1,S,63,29,VC,User,-,"How many vowels are the two words combined?|Type your response below and then press Enter.",Study/JOL,"Study Phase2",3428,,,3198,3198,,,,4,1
w10035783,8j1itc85lr,Nick_Dissertation_EX1b,1,215,2020-04-19T16:19:11-07:00,5.9841430187225,4,versionC_stim.csv,VC_VersionD.csv,"Version D","Version D",LIVER,KIDNEY,Study1,S,53,19,VC,User,-,"How many vowels are the two words combined?|Type your response below and then press Enter.",Study/JOL,"Study Phase2",4100,,,3899,3899,,,,4,1
w10035783,8j1itc85lr,Nick_Dissertation_EX1b,1,216,2020-04-19T16:19:20-07:00,8.2342090606689,4,versionC_stim.csv,VC_VersionD.csv,"Version D","Version D",DESIGN,ARCHITECTURE,Study1,S,51,49,VC,User,-,"How many vowels are the two words combined?|Type your response below and then press Enter.",Study/JOL,"Study Phase2",7797,,,7215,7216,,,,6,1
w10035783,8j1itc85lr,Nick_Dissertation_EX1b,1,217,2020-04-19T16:19:24-07:00,4.3756470680237,4,versionC_stim.csv,VC_VersionD.csv,"Version D","Version D",ROCK,GEOLOGY,Study1,B,19,40,VC,User,-,"How many vowels are the two words combined?|Type your response below and then press Enter.",Study/JOL,"Study Phase2",3941,,,3806,3807,,,,4,1
w10035783,8j1itc85lr,Nick_Dissertation_EX1b,1,218,2020-04-19T16:19:27-07:00,2.9940989017487,4,versionC_stim.csv,VC_VersionD.csv,"Version D","Version D",CAR,HAPPY,Study1,U,77,84,VC,User,-,"How many vowels are the two words combined?|Type your response below and then press Enter.",Study/JOL,"Study Phase2",2595,,,2371,2371,,,,2,1
w10035783,8j1itc85lr,Nick_Dissertation_EX1b,1,219,2020-04-19T16:19:30-07:00,3.4034669399261,4,versionC_stim.csv,VC_VersionD.csv,"Version D","Version D",CHORE,WORK,Study1,F,39,35,VC,User,-,"How many vowels are the two words combined?|Type your response below and then press Enter.",Study/JOL,"Study Phase2",3002,,,2749,2749,,,,3,1
w10035783,8j1itc85lr,Nick_Dissertation_EX1b,1,220,2020-04-19T16:19:34-07:00,3.4939730167389,4,versionC_stim.csv,VC_VersionD.csv,"Version D","Version D",WOULD,CASH,Study1,U,83,25,VC,User,-,"How many vowels are the two words combined?|Type your response below and then press Enter.",Study/JOL,"Study Phase2",3060,,,2797,2797,,,,3,1
w10035783,8j1itc85lr,Nick_Dissertation_EX1b,1,221,2020-04-19T16:19:39-07:00,5.4678449630737,4,versionC_stim.csv,VC_VersionD.csv,"Version D","Version D",FANTASTIC,GREAT,Study1,F,35,12,VC,User,-,"How many vowels are the two words combined?|Type your response below and then press Enter.",Study/JOL,"Study Phase2",5061,,,-1,-1,,,,,1
w10035783,8j1itc85lr,Nick_Dissertation_EX1b,1,222,2020-04-19T16:19:43-07:00,3.9611141681671,4,versionC_stim.csv,VC_VersionD.csv,"Version D","Version D",SEIZE,TAKE,Study1,F,29,83,VC,User,-,"How many vowels are the two words combined?|Type your response below and then press Enter.",Study/JOL,"Study Phase2",3571,,,-1,-1,,,,,1
w10035783,8j1itc85lr,Nick_Dissertation_EX1b,1,223,2020-04-19T16:19:48-07:00,4.8866348266602,4,versionC_stim.csv,VC_VersionD.csv,"Version D","Version D",CHILI,HOT,Study1,F,37,8,VC,User,-,"How many vowels are the two words combined?|Type your response below and then press Enter.",Study/JOL,"Study Phase2",4445,,,4185,4186,,,,3,1
w10035783,8j1itc85lr,Nick_Dissertation_EX1b,1,224,2020-04-19T16:19:56-07:00,7.706768989563,4,versionC_stim.csv,VC_VersionD.csv,"Version D","Version D",DEFINITION,MEANING,Study1,S,62,31,VC,User,-,"How many vowels are the two words combined?|Type your response below and then press Enter.",Study/JOL,"Study Phase2",7302,,,7123,7124,,,,8,1
w10035783,8j1itc85lr,Nick_Dissertation_EX1b,1,225,2020-04-19T16:20:07-07:00,11.489914178848,4,versionC_stim.csv,VC_VersionD.csv,"Version D","Version D",BAD,DELINQUENT,Study1,B,6,33,VC,User,-,"How many vowels are the two words combined?|Type your response below and then press Enter.",Study/JOL,"Study Phase2",6439,,,5900,5900,,,,4,1
w10035783,8j1itc85lr,Nick_Dissertation_EX1b,1,226,2020-04-19T16:20:15-07:00,7.8529188632965,4,versionC_stim.csv,VC_VersionD.csv,"Version D","Version D",AMOUNT,NUMBER,Study1,S,47,9,VC,User,-,"How many vowels are the two words combined?|Type your response below and then press Enter.",Study/JOL,"Study Phase2",5607,,,5408,5408,,,,4,1
w10035783,8j1itc85lr,Nick_Dissertation_EX1b,1,227,2020-04-19T16:20:19-07:00,3.7413971424103,4,versionC_stim.csv,VC_VersionD.csv,"Version D","Version D",FUTURE,PAST,Study1,S,61,34,VC,User,-,"How many vowels are the two words combined?|Type your response below and then press Enter.",Study/JOL,"Study Phase2",3320,,,3117,3117,,,,4,1
w10035783,8j1itc85lr,Nick_Dissertation_EX1b,1,228,2020-04-19T16:20:22-07:00,3.0697529315948,4,versionC_stim.csv,VC_VersionD.csv,"Version D","Version D",CAVE,DARK,Study1,F,28,56,VC,User,-,"How many vowels are the two words combined?|Type your response below and then press Enter.",Study/JOL,"Study Phase2",2427,,,2258,2258,,,,3,1
w10035783,8j1itc85lr,Nick_Dissertation_EX1b,1,229,2020-04-19T16:20:26-07:00,3.8952310085297,4,versionC_stim.csv,VC_VersionD.csv,"Version D","Version D",RACKET,BALL,Study1,F,38,43,VC,User,-,"How many vowels are the two words combined?|Type your response below and then press Enter.",Study/JOL,"Study Phase2",3486,,,3299,3299,,,,3,1
w10035783,8j1itc85lr,Nick_Dissertation_EX1b,1,230,2020-04-19T16:20:28-07:00,2.4858849048615,4,versionC_stim.csv,VC_VersionD.csv,"Version D","Version D",SICK,HIDE,Study1,U,84,69,VC,User,-,"How many vowels are the two words combined?|Type your response below and then press Enter.",Study/JOL,"Study Phase2",2067,,,1868,1868,,,,3,1
w10035783,8j1itc85lr,Nick_Dissertation_EX1b,1,231,2020-04-19T16:20:33-07:00,4.2078399658203,4,versionC_stim.csv,VC_VersionD.csv,"Version D","Version D",SACKING,DIETARY,Study1,U,67,73,VC,User,-,"How many vowels are the two words combined?|Type your response below and then press Enter.",Study/JOL,"Study Phase2",3789,,,-1,-1,,,,,1
w10035783,8j1itc85lr,Nick_Dissertation_EX1b,1,232,2020-04-19T16:20:40-07:00,7.3667900562286,4,versionC_stim.csv,VC_VersionD.csv,"Version D","Version D",RIDDLE,SUGAR,Study1,U,81,51,VC,User,-,"How many vowels are the two words combined?|Type your response below and then press Enter.",Study/JOL,"Study Phase2",6906,,,6433,6433,,,,4,1
w10035783,8j1itc85lr,Nick_Dissertation_EX1b,1,233,2020-04-19T16:20:45-07:00,4.7334389686584,4,versionC_stim.csv,VC_VersionD.csv,"Version D","Version D",SIGHT,DEBATE,Study1,U,73,22,VC,User,-,"How many vowels are the two words combined?|Type your response below and then press Enter.",Study/JOL,"Study Phase2",4323,,,4038,4038,,,,4,1
w10035783,8j1itc85lr,Nick_Dissertation_EX1b,1,234,2020-04-19T16:20:49-07:00,3.9115881919861,4,versionC_stim.csv,VC_VersionD.csv,"Version D","Version D",BRONZE,ARTERY,Study1,U,74,79,VC,User,-,"How many vowels are the two words combined?|Type your response below and then press Enter.",Study/JOL,"Study Phase2",3499,,,3230,3230,,,,4,1
w10035783,8j1itc85lr,Nick_Dissertation_EX1b,1,235,2020-04-19T16:20:52-07:00,2.9934017658234,4,versionC_stim.csv,VC_VersionD.csv,"Version D","Version D",SODA,POP,Study1,S,56,64,VC,User,-,"How many vowels are the two words combined?|Type your response below and then press Enter.",Study/JOL,"Study Phase2",2588,,,2369,2369,,,,3,1
w10035783,8j1itc85lr,Nick_Dissertation_EX1b,1,236,2020-04-19T16:20:55-07:00,3.3244180679321,4,versionC_stim.csv,VC_VersionD.csv,"Version D","Version D",WASTE,DUMP,Study1,S,49,41,VC,User,-,"How many vowels are the two words combined?|Type your response below and then press Enter.",Study/JOL,"Study Phase2",2910,,,2636,2636,,,,3,1
w10035783,8j1itc85lr,Nick_Dissertation_EX1b,1,237,2020-04-19T16:20:59-07:00,3.6353969573975,4,versionC_stim.csv,VC_VersionD.csv,"Version D","Version D",WATER,BRIDGE,Study1,B,18,54,VC,User,-,"How many vowels are the two words combined?|Type your response below and then press Enter.",Study/JOL,"Study Phase2",3222,,,2959,2959,,,,4,1
w10035783,8j1itc85lr,Nick_Dissertation_EX1b,1,238,2020-04-19T16:21:02-07:00,3.657858133316,4,versionC_stim.csv,VC_VersionD.csv,"Version D","Version D",DROWSY,SLEEP,Study1,F,41,18,VC,User,-,"How many vowels are the two words combined?|Type your response below and then press Enter.",Study/JOL,"Study Phase2",3252,,,2984,2984,,,,3,1
w10035783,8j1itc85lr,Nick_Dissertation_EX1b,1,239,2020-04-19T16:21:26-07:00,23.57976102829,4,versionC_stim.csv,VC_VersionD.csv,"Version D","Version D",PILOT,PLANE,Study1,F,44,39,VC,User,-,"How many vowels are the two words combined?|Type your response below and then press Enter.",Study/JOL,"Study Phase2",23154,,,6611,22932,,,,4,1
w10035783,8j1itc85lr,Nick_Dissertation_EX1b,1,240,2020-04-19T16:21:28-07:00,2.0147979259491,4,versionC_stim.csv,VC_VersionD.csv,"Version D","Version D",STOMACH,DIGESTION,Study1,B,7,24,VC,User,-,"How many vowels are the two words combined?|Type your response below and then press Enter.",Study/JOL,"Study Phase2",1623,,,-1,-1,,,,,1
w10035783,8j1itc85lr,Nick_Dissertation_EX1b,1,241,2020-04-19T16:21:32-07:00,3.8206040859222,4,versionC_stim.csv,VC_VersionD.csv,"Version D","Version D",FISH,TUNA,Study1,B,25,52,VC,User,-,"How many vowels are the two words combined?|Type your response below and then press Enter.",Study/JOL,"Study Phase2",3423,,,3076,3076,,,,3,1
w10035783,8j1itc85lr,Nick_Dissertation_EX1b,1,242,2020-04-19T16:21:36-07:00,4.7031979560852,4,versionC_stim.csv,VC_VersionD.csv,"Version D","Version D",SITE,LOCATION,Study1,S,48,11,VC,User,-,"How many vowels are the two words combined?|Type your response below and then press Enter.",Study/JOL,"Study Phase2",4266,,,4069,4069,,,,6,1
w10035783,8j1itc85lr,Nick_Dissertation_EX1b,1,243,2020-04-19T16:21:40-07:00,3.129086971283,4,versionC_stim.csv,VC_VersionD.csv,"Version D","Version D",WASP,BUG,Study1,F,32,82,VC,User,-,"How many vowels are the two words combined?|Type your response below and then press Enter.",Study/JOL,"Study Phase2",2710,,,2471,2471,,,,2,1
w10035783,8j1itc85lr,Nick_Dissertation_EX1b,1,244,2020-04-19T16:21:43-07:00,3.1093490123749,4,versionC_stim.csv,VC_VersionD.csv,"Version D","Version D",CHEESE,WINE,Study1,S,57,45,VC,User,-,"How many vowels are the two words combined?|Type your response below and then press Enter.",Study/JOL,"Study Phase2",2713,,,2456,2456,,,,4,1
w10035783,8j1itc85lr,Nick_Dissertation_EX1b,1,245,2020-04-19T16:21:46-07:00,2.9130630493164,4,versionC_stim.csv,VC_VersionD.csv,"Version D","Version D",LION,ART,Study1,U,79,59,VC,User,-,"How many vowels are the two words combined?|Type your response below and then press Enter.",Study/JOL,"Study Phase2",2518,,,2328,2328,,,,3,1
w10035783,8j1itc85lr,Nick_Dissertation_EX1b,1,246,2020-04-19T16:21:50-07:00,3.9745788574219,4,versionC_stim.csv,VC_VersionD.csv,"Version D","Version D",NEWS,EDITOR,Study1,B,10,65,VC,User,-,"How many vowels are the two words combined?|Type your response below and then press Enter.",Study/JOL,"Study Phase2",3578,,,3338,3338,,,,4,1
w10035783,8j1itc85lr,Nick_Dissertation_EX1b,1,247,2020-04-19T16:21:53-07:00,3.2552900314331,4,versionC_stim.csv,VC_VersionD.csv,"Version D","Version D",CHILD,BABY,Study1,S,64,44,VC,User,-,"How many vowels are the two words combined?|Type your response below and then press Enter.",Study/JOL,"Study Phase2",2823,,,2648,2648,,,,2,1
w10035783,8j1itc85lr,Nick_Dissertation_EX1b,1,248,2020-04-19T16:21:57-07:00,4.5280511379242,4,versionC_stim.csv,VC_VersionD.csv,"Version D","Version D",ATTIRE,CLOTHES,Study1,F,43,77,VC,User,-,"How many vowels are the two words combined?|Type your response below and then press Enter.",Study/JOL,"Study Phase2",4136,,,3867,3867,,,,5,1
w10035783,8j1itc85lr,Nick_Dissertation_EX1b,1,249,2020-04-19T16:22:06-07:00,8.9132318496704,4,versionC_stim.csv,VC_VersionD.csv,"Version D","Version D",ENOUGH,FULL,Study1,F,26,27,VC,User,-,"How many vowels are the two words combined?|Type your response below and then press Enter.",Study/JOL,"Study Phase2",8514,,,8296,8296,,,,4,1
w10035783,8j1itc85lr,Nick_Dissertation_EX1b,1,250,2020-04-19T16:22:09-07:00,2.3554689884186,4,versionC_stim.csv,VC_VersionD.csv,"Version D","Version D",DOG,PAW,Study1,B,15,62,VC,User,-,"How many vowels are the two words combined?|Type your response below and then press Enter.",Study/JOL,"Study Phase2",1962,,,1709,1710,,,,2,1
w10035783,8j1itc85lr,Nick_Dissertation_EX1b,1,251,2020-04-19T16:22:11-07:00,2.7626361846924,4,versionC_stim.csv,VC_VersionD.csv,"Version D","Version D",BIRD,SWAN,Study1,B,14,37,VC,User,-,"How many vowels are the two words combined?|Type your response below and then press Enter.",Study/JOL,"Study Phase2",2315,,,2150,2150,,,,2,1
w10035783,8j1itc85lr,Nick_Dissertation_EX1b,1,252,2020-04-19T16:22:16-07:00,4.7372708320618,4,versionC_stim.csv,VC_VersionD.csv,"Version D","Version D",CLEAN,HYGIENE,Study1,B,17,42,VC,User,-,"How many vowels are the two words combined?|Type your response below and then press Enter.",Study/JOL,"Study Phase2",3334,,,3198,3199,,,,5,1
w10035783,8j1itc85lr,Nick_Dissertation_EX1b,1,253,2020-04-19T16:22:20-07:00,3.4720611572266,4,versionC_stim.csv,VC_VersionD.csv,"Version D","Version D",VASE,KING,Study1,U,85,28,VC,User,-,"How many vowels are the two words combined?|Type your response below and then press Enter.",Study/JOL,"Study Phase2",2942,,,2668,2668,,,,3,1
w10035783,8j1itc85lr,Nick_Dissertation_EX1b,1,254,2020-04-19T16:22:24-07:00,4.4864628314972,4,versionC_stim.csv,VC_VersionD.csv,"Version D","Version D",FLOOR,DISCOVER,Study1,U,71,75,VC,User,-,"How many vowels are the two words combined?|Type your response below and then press Enter.",Study/JOL,"Study Phase2",4022,,,3780,3781,,,,6,1
w10035783,8j1itc85lr,Nick_Dissertation_EX1b,1,255,2020-04-19T16:22:28-07:00,4.2811291217804,4,versionC_stim.csv,VC_VersionD.csv,"Version D","Version D",CLUTTER,PUSHER,Study1,U,66,74,VC,User,-,"How many vowels are the two words combined?|Type your response below and then press Enter.",Study/JOL,"Study Phase2",3811,,,3589,3589,,,,4,1
w10035783,8j1itc85lr,Nick_Dissertation_EX1b,1,256,2020-04-19T16:22:31-07:00,2.4815399646759,4,versionC_stim.csv,VC_VersionD.csv,"Version D","Version D",BELT,SOON,Study1,U,70,86,VC,User,-,"How many vowels are the two words combined?|Type your response below and then press Enter.",Study/JOL,"Study Phase2",2066,,,1784,1784,,,,3,1
w10035783,8j1itc85lr,Nick_Dissertation_EX1b,1,257,2020-04-19T16:22:36-07:00,4.7235050201416,4,versionC_stim.csv,VC_VersionD.csv,"Version D","Version D",TOILET,BATHROOM,Study1,S,58,23,VC,User,-,"How many vowels are the two words combined?|Type your response below and then press Enter.",Study/JOL,"Study Phase2",4284,,,3944,3944,,,,5,1
w10035783,8j1itc85lr,Nick_Dissertation_EX1b,1,258,2020-04-19T16:22:40-07:00,4.0780389308929,4,versionC_stim.csv,VC_VersionD.csv,"Version D","Version D",BAR,GRILL,Study1,S,52,17,VC,User,-,"How many vowels are the two words combined?|Type your response below and then press Enter.",Study/JOL,"Study Phase2",3666,,,3431,3431,,,,2,1
w10035783,8j1itc85lr,Nick_Dissertation_EX1b,1,259,2020-04-19T16:22:43-07:00,3.5358579158783,4,versionC_stim.csv,VC_VersionD.csv,"Version D","Version D",WIND,BLOW,Study1,S,55,48,VC,User,-,"How many vowels are the two words combined?|Type your response below and then press Enter.",Study/JOL,"Study Phase2",3140,,,2951,2951,,,,2,1
w10035783,8j1itc85lr,Nick_Dissertation_EX1b,1,260,2020-04-19T16:22:54-07:00,11.162930011749,4,versionC_stim.csv,VC_VersionD.csv,"Version D","Version D",POSITION,MACHINE,Study1,U,76,72,VC,User,-,"How many vowels are the two words combined?|Type your response below and then press Enter.",Study/JOL,"Study Phase2",10768,,,10588,10589,,,,5,1
w10035783,8j1itc85lr,Nick_Dissertation_EX1b,1,261,2020-04-19T16:23:06-07:00,11.834947109222,4,versionC_stim.csv,VC_VersionD.csv,"Version D","Version D",PLANT,ROOT,Study1,B,13,21,VC,User,-,"How many vowels are the two words combined?|Type your response below and then press Enter.",Study/JOL,"Study Phase2",11429,,,11218,11219,,,,4,1
w10035783,8j1itc85lr,Nick_Dissertation_EX1b,1,262,2020-04-19T16:23:16-07:00,9.9333260059357,4,versionC_stim.csv,VC_VersionD.csv,"Version D","Version D",HAND,FIX,Study1,U,75,50,VC,User,-,"How many vowels are the two words combined?|Type your response below and then press Enter.",Study/JOL,"Study Phase2",9508,,,9304,9304,,,,2,1
w10035783,8j1itc85lr,Nick_Dissertation_EX1b,1,263,2020-04-19T16:23:20-07:00,3.673819065094,4,versionC_stim.csv,VC_VersionD.csv,"Version D","Version D",ADD,VALLEY,Study1,U,82,85,VC,User,-,"How many vowels are the two words combined?|Type your response below and then press Enter.",Study/JOL,"Study Phase2",3205,,,3023,3023,,,,3,1
w10035783,8j1itc85lr,Nick_Dissertation_EX1b,1,264,2020-04-19T16:23:25-07:00,5.4836559295654,4,versionC_stim.csv,VC_VersionD.csv,"Version D","Version D",TALK,DISCUSSION,Study1,B,21,58,VC,User,-,"How many vowels are the two words combined?|Type your response below and then press Enter.",Study/JOL,"Study Phase2",4723,,,4355,4355,,,,5,1
w10035783,8j1itc85lr,Nick_Dissertation_EX1b,1,265,2020-04-19T16:23:31-07:00,5.6620399951935,4,versionC_stim.csv,VC_VersionD.csv,"Version D","Version D",SALAD,LETTUCE,Study1,S,59,30,VC,User,-,"How many vowels are the two words combined?|Type your response below and then press Enter.",Study/JOL,"Study Phase2",4108,,,3842,3842,,,,5,1
w10035783,8j1itc85lr,Nick_Dissertation_EX1b,1,266,2020-04-19T16:23:35-07:00,4.5642609596252,4,versionC_stim.csv,VC_VersionD.csv,"Version D","Version D",GOOSE,GEESE,BUFFER2,Buffer,86,88,VC,User,-,"How many vowels are the two words combined?|Type your response below and then press Enter.",Study/JOL,BUFFER4,4161,,,3956,3956,,,,6,1
w10035783,8j1itc85lr,Nick_Dissertation_EX1b,1,267,2020-04-19T16:23:39-07:00,3.089574098587,4,versionC_stim.csv,VC_VersionD.csv,"Version D","Version D",SPACE,MOON,BUFFER2,Buffer,89,89,VC,User,-,"How many vowels are the two words combined?|Type your response below and then press Enter.",Study/JOL,BUFFER4,2677,,,2429,2430,,,,4,1
w10035783,8j1itc85lr,Nick_Dissertation_EX1b,1,268,2020-04-19T16:23:41-07:00,2.8936100006104,4,versionC_stim.csv,VC_VersionD.csv,"Version D","Version D",STUFF,THING,BUFFER2,Buffer,90,91,VC,User,-,"How many vowels are the two words combined?|Type your response below and then press Enter.",Study/JOL,BUFFER4,2474,,,2305,2305,,,,2,1
w10035783,8j1itc85lr,Nick_Dissertation_EX1b,1,269,2020-04-19T16:23:46-07:00,4.5846939086914,4,versionC_stim.csv,VC_VersionD.csv,"Version D","Version D",CHOCOLATE,MALT,BUFFER2,Buffer,88,87,VC,User,-,"How many vowels are the two words combined?|Type your response below and then press Enter.",Study/JOL,BUFFER4,4165,,,3897,3897,,,,5,1
w10035783,8j1itc85lr,Nick_Dissertation_EX1b,1,270,2020-04-19T16:23:51-07:00,4.6559951305389,4,versionC_stim.csv,VC_VersionD.csv,"Version D","Version D",POLICE,SHERRIF,BUFFER2,Buffer,87,90,VC,User,-,"How many vowels are the two words combined?|Type your response below and then press Enter.",Study/JOL,BUFFER4,4246,,,3888,3888,,,,5,1
w10035783,8j1itc85lr,Nick_Dissertation_EX1b,1,271,2020-04-19T16:23:53-07:00,2.7185800075531,4,versionC_stim.csv,VC_VersionD.csv,"Version D","Version D",,,,,,0,Instruct,User,-,"You have completed this section. Please press Enter.",Filler_Instruction,Instruct5,2240,,,-1,-1,,,,,1
w10035783,8j1itc85lr,Nick_Dissertation_EX1b,1,272,2020-04-19T16:25:54-07:00,120.45153999329,4,versionC_stim.csv,VC_VersionD.csv,"Version D","Version D",,,,,,0,FreeRecall,120,120,"Please list the 50 US states in reverse alphabetical order (z - a). The task will automatically advance to the next screen after two minutes.",,Filler2,120002,"wyoming wisconsin west virgina washington Virginia Vermont Utah texas Tennessee South Dakota south carolina rhode island pennsylvania oregon oklahoma ohio noth ",0,16209,119805,0,0,,,1
w10035783,8j1itc85lr,Nick_Dissertation_EX1b,1,273,2020-04-19T16:37:35-07:00,701.31750679016,4,versionC_stim.csv,VC_VersionD.csv,"Version D","Version D",,,,,,0,Instruct,-,10,"You will now be presented with the first word from each of the previously studied item pairs. Please type the missing word. If you do not know the word, you may guess or press Enter to skip forward to the next pair.",,Instruct6,700618,,,-1,-1,,,,,1
w10035783,8j1itc85lr,Nick_Dissertation_EX1b,1,274,2020-04-19T16:37:41-07:00,5.3946092128754,4,versionC_stim.csv,VC_VersionD.csv,"Version D","Version D",SACKING,DIETARY,Study1,U,67,73,Test,User,-,,Recall,Recall2,4920,money,33.333333333333,3252,4424,0,0,,,1
w10035783,8j1itc85lr,Nick_Dissertation_EX1b,1,275,2020-04-19T16:37:50-07:00,9.1953918933868,4,versionC_stim.csv,VC_VersionD.csv,"Version D","Version D",BAR,GRILL,Study1,S,52,17,Test,User,-,,Recall,Recall2,8744,grill,100,1591,4899,1,1,,,1
w10035783,8j1itc85lr,Nick_Dissertation_EX1b,1,276,2020-04-19T16:38:26-07:00,35.926506996155,4,versionC_stim.csv,VC_VersionD.csv,"Version D","Version D",RACKET,BALL,Study1,F,38,43,Test,User,-,,Recall,Recall2,35465,money,0,33940,35235,0,0,,,1
w10035783,8j1itc85lr,Nick_Dissertation_EX1b,1,277,2020-04-19T16:38:29-07:00,3.1525619029999,4,versionC_stim.csv,VC_VersionD.csv,"Version D","Version D",TALK,DISCUSSION,Study1,B,21,58,Test,User,-,,Recall,Recall2,2694,phone,26.666666666667,1240,2378,0,0,,,1
w10035783,8j1itc85lr,Nick_Dissertation_EX1b,1,278,2020-04-19T16:38:34-07:00,5.0234479904175,4,versionC_stim.csv,VC_VersionD.csv,"Version D","Version D",VASE,KING,Study1,U,85,28,Test,User,-,,Recall,Recall2,4601,flowers,0,1998,3810,0,0,,,1
w10035783,8j1itc85lr,Nick_Dissertation_EX1b,1,279,2020-04-19T16:39:09-07:00,35.351349115372,4,versionC_stim.csv,VC_VersionD.csv,"Version D","Version D",ADD,VALLEY,Study1,U,82,85,Test,User,-,,Recall,Recall2,34877,subtract,14.285714285714,24216,33417,0,0,,,1
w10035783,8j1itc85lr,Nick_Dissertation_EX1b,1,280,2020-04-19T16:39:11-07:00,2.2615540027618,4,versionC_stim.csv,VC_VersionD.csv,"Version D","Version D",COLD,BITTER,Study1,B,12,47,Test,User,-,,Recall,Recall2,1819,hot,22.222222222222,1213,1553,0,0,,,1
w10035783,8j1itc85lr,Nick_Dissertation_EX1b,1,281,2020-04-19T16:39:15-07:00,3.3563990592957,4,versionC_stim.csv,VC_VersionD.csv,"Version D","Version D",POSITION,MACHINE,Study1,U,76,72,Test,User,-,,Recall,Recall2,2924,,0,-1,-1,0,0,,,1
w10035783,8j1itc85lr,Nick_Dissertation_EX1b,1,282,2020-04-19T16:39:19-07:00,3.9617278575897,4,versionC_stim.csv,VC_VersionD.csv,"Version D","Version D",NEWS,EDITOR,Study1,B,10,65,Test,User,-,,Recall,Recall2,3489,bad,22.222222222222,2940,3232,0,0,,,1
w10035783,8j1itc85lr,Nick_Dissertation_EX1b,1,283,2020-04-19T16:39:23-07:00,4.4971849918365,4,versionC_stim.csv,VC_VersionD.csv,"Version D","Version D",WATER,BRIDGE,Study1,B,18,54,Test,User,-,,Recall,Recall2,4072,tea,22.222222222222,3349,3800,0,0,,,1
w10035783,8j1itc85lr,Nick_Dissertation_EX1b,1,284,2020-04-19T16:39:27-07:00,3.48863697052,4,versionC_stim.csv,VC_VersionD.csv,"Version D","Version D",FISH,TUNA,Study1,B,25,52,Test,User,-,,Recall,Recall2,3035,bowl,0,1798,2744,0,0,,,1
w10035783,8j1itc85lr,Nick_Dissertation_EX1b,1,285,2020-04-19T16:39:30-07:00,3.0022912025452,4,versionC_stim.csv,VC_VersionD.csv,"Version D","Version D",FUTURE,PAST,Study1,S,61,34,Test,User,-,,Recall,Recall2,2473,past,100,1476,2210,1,1,,,1
w10035783,8j1itc85lr,Nick_Dissertation_EX1b,1,286,2020-04-19T16:39:34-07:00,4.5291948318481,4,versionC_stim.csv,VC_VersionD.csv,"Version D","Version D",RIDDLE,SUGAR,Study1,U,81,51,Test,User,-,,Recall,Recall2,4057,sound,40,2860,3826,0,0,,,1
w10035783,8j1itc85lr,Nick_Dissertation_EX1b,1,287,2020-04-19T16:39:37-07:00,3.1054260730743,4,versionC_stim.csv,VC_VersionD.csv,"Version D","Version D",FAMINE,HUNGER,Study1,F,40,71,Test,User,-,,Recall,Recall2,2619,,0,-1,-1,0,0,,,1
w10035783,8j1itc85lr,Nick_Dissertation_EX1b,1,288,2020-04-19T16:39:41-07:00,3.5246529579163,4,versionC_stim.csv,VC_VersionD.csv,"Version D","Version D",HAND,FIX,Study1,U,75,50,Test,User,-,,Recall,Recall2,3060,feet,28.571428571429,2158,2857,0,0,,,1
w10035783,8j1itc85lr,Nick_Dissertation_EX1b,1,289,2020-04-19T16:39:45-07:00,4.1989800930023,4,versionC_stim.csv,VC_VersionD.csv,"Version D","Version D",SIP,DRINK,Study1,F,27,10,Test,User,-,,Recall,Recall2,3672,see,0,2785,3357,0,0,,,1
w10035783,8j1itc85lr,Nick_Dissertation_EX1b,1,290,2020-04-19T16:39:48-07:00,3.0754799842834,4,versionC_stim.csv,VC_VersionD.csv,"Version D","Version D",HAMMER,CHISEL,Study1,B,9,80,Test,User,-,,Recall,Recall2,2627,nail,40,1566,2361,0,0,,,1
w10035783,8j1itc85lr,Nick_Dissertation_EX1b,1,291,2020-04-19T16:39:55-07:00,6.3228459358215,4,versionC_stim.csv,VC_VersionD.csv,"Version D","Version D",WOMAN,LIFT,Study1,U,69,20,Test,User,-,,Recall,Recall2,5844,first,44.444444444444,2152,5414,0,0,,,1
w10035783,8j1itc85lr,Nick_Dissertation_EX1b,1,292,2020-04-19T16:39:57-07:00,2.7365550994873,4,versionC_stim.csv,VC_VersionD.csv,"Version D","Version D",CHILI,HOT,Study1,F,37,8,Test,User,-,,Recall,Recall2,2290,hot,100,1735,2059,1,1,,,1
w10035783,8j1itc85lr,Nick_Dissertation_EX1b,1,293,2020-04-19T16:40:02-07:00,4.6042659282684,4,versionC_stim.csv,VC_VersionD.csv,"Version D","Version D",BIRD,SWAN,Study1,B,14,37,Test,User,-,,Recall,Recall2,4135,food,0,3362,3998,0,0,,,1
w10035783,8j1itc85lr,Nick_Dissertation_EX1b,1,294,2020-04-19T16:40:06-07:00,3.6576039791107,4,versionC_stim.csv,VC_VersionD.csv,"Version D","Version D",LIVER,KIDNEY,Study1,S,53,19,Test,User,-,,Recall,Recall2,3224,kidney,100,1692,2967,1,1,,,1
w10035783,8j1itc85lr,Nick_Dissertation_EX1b,1,295,2020-04-19T16:40:12-07:00,6.2749700546265,4,versionC_stim.csv,VC_VersionD.csv,"Version D","Version D",GROWTH,HEIGHT,Study1,F,30,66,Test,User,-,,Recall,Recall2,5784,still,18.181818181818,3823,5530,0,0,,,1
w10035783,8j1itc85lr,Nick_Dissertation_EX1b,1,296,2020-04-19T16:40:16-07:00,4.4886510372162,4,versionC_stim.csv,VC_VersionD.csv,"Version D","Version D",AMOUNT,NUMBER,Study1,S,47,9,Test,User,-,,Recall,Recall2,4035,less,20,3011,3640,0,0,,,1
w10035783,8j1itc85lr,Nick_Dissertation_EX1b,1,297,2020-04-19T16:40:21-07:00,5.1737859249115,4,versionC_stim.csv,VC_VersionD.csv,"Version D","Version D",WORD,SENTENCE,Study1,F,31,32,Test,User,-,,Recall,Recall2,4665,phrase,28.571428571429,2117,4461,0,0,,,1
w10035783,8j1itc85lr,Nick_Dissertation_EX1b,1,298,2020-04-19T16:40:24-07:00,2.9897439479828,4,versionC_stim.csv,VC_VersionD.csv,"Version D","Version D",CAR,HAPPY,Study1,U,77,84,Test,User,-,,Recall,Recall2,2489,truck,0,1286,2258,0,0,,,1
w10035783,8j1itc85lr,Nick_Dissertation_EX1b,1,299,2020-04-19T16:40:27-07:00,2.7228889465332,4,versionC_stim.csv,VC_VersionD.csv,"Version D","Version D",FLOWER,ORCHID,Study1,B,24,26,Test,User,-,,Recall,Recall2,1995,sun,0,1341,1786,0,0,,,1
w10035783,8j1itc85lr,Nick_Dissertation_EX1b,1,300,2020-04-19T16:40:30-07:00,2.8926770687103,4,versionC_stim.csv,VC_VersionD.csv,"Version D","Version D",STING,HORNET,Study1,B,11,55,Test,User,-,,Recall,Recall2,2436,bee,22.222222222222,1929,2233,0,0,,,1
w10035783,8j1itc85lr,Nick_Dissertation_EX1b,1,301,2020-04-19T16:40:35-07:00,4.6037180423737,4,versionC_stim.csv,VC_VersionD.csv,"Version D","Version D",WAR,REVOLUTION,Study1,B,20,81,Test,User,-,,Recall,Recall2,4162,revolution,100,1235,3970,1,1,,,1
w10035783,8j1itc85lr,Nick_Dissertation_EX1b,1,302,2020-04-19T16:40:38-07:00,2.8393108844757,4,versionC_stim.csv,VC_VersionD.csv,"Version D","Version D",END,BEGIN,Study1,S,54,14,Test,User,-,,Recall,Recall2,2363,begin,100,1227,2173,1,1,,,1
w10035783,8j1itc85lr,Nick_Dissertation_EX1b,1,303,2020-04-19T16:40:45-07:00,7.8385710716248,4,versionC_stim.csv,VC_VersionD.csv,"Version D","Version D",JURY,TRIAL,Study1,S,50,78,Test,User,-,,Recall,Recall2,7238,judge,0,2284,6807,0,0,,,1
w10035783,8j1itc85lr,Nick_Dissertation_EX1b,1,304,2020-04-19T16:40:49-07:00,3.2989189624786,4,versionC_stim.csv,VC_VersionD.csv,"Version D","Version D",CHEESE,WINE,Study1,S,57,45,Test,User,-,,Recall,Recall2,2843,bacon,22.222222222222,1474,2371,0,0,,,1
w10035783,8j1itc85lr,Nick_Dissertation_EX1b,1,305,2020-04-19T16:40:52-07:00,3.7250101566315,4,versionC_stim.csv,VC_VersionD.csv,"Version D","Version D",COW,HERD,Study1,B,22,53,Test,User,-,,Recall,Recall2,3292,milk,0,1080,3055,0,0,,,1
w10035783,8j1itc85lr,Nick_Dissertation_EX1b,1,306,2020-04-19T16:40:56-07:00,3.2882158756256,4,versionC_stim.csv,VC_VersionD.csv,"Version D","Version D",DROWSY,SLEEP,Study1,F,41,18,Test,User,-,,Recall,Recall2,2797,sleepy,90.909090909091,1601,2543,0,1,,,1
w10035783,8j1itc85lr,Nick_Dissertation_EX1b,1,307,2020-04-19T16:40:59-07:00,3.2057290077209,4,versionC_stim.csv,VC_VersionD.csv,"Version D","Version D",MONEY,WAGE,Study1,B,8,38,Test,User,-,,Recall,Recall2,2742,change,60,1778,2577,0,0,,,1
w10035783,8j1itc85lr,Nick_Dissertation_EX1b,1,308,2020-04-19T16:41:03-07:00,4.1677050590515,4,versionC_stim.csv,VC_VersionD.csv,"Version D","Version D",CLUTTER,PUSHER,Study1,U,66,74,Test,User,-,,Recall,Recall2,3678,broke,18.181818181818,2388,3495,0,0,,,1
w10035783,8j1itc85lr,Nick_Dissertation_EX1b,1,309,2020-04-19T16:41:08-07:00,4.6489720344543,4,versionC_stim.csv,VC_VersionD.csv,"Version D","Version D",LATCH,KEY,Study1,F,36,15,Test,User,-,,Recall,Recall2,4192,attach,0,1526,4047,0,0,,,1
w10035783,8j1itc85lr,Nick_Dissertation_EX1b,1,310,2020-04-19T16:41:10-07:00,2.5636298656464,4,versionC_stim.csv,VC_VersionD.csv,"Version D","Version D",BEE,HONEY,Study1,S,63,29,Test,User,-,,Recall,Recall2,2114,sting,20,1138,1967,0,0,,,1
w10035783,8j1itc85lr,Nick_Dissertation_EX1b,1,311,2020-04-19T16:41:18-07:00,8.2430579662323,4,versionC_stim.csv,VC_VersionD.csv,"Version D","Version D",HUNGRY,PARK,Study1,U,68,7,Test,User,-,,Recall,Recall2,7645,straving,16.666666666667,2027,7512,0,0,,,1
w10035783,8j1itc85lr,Nick_Dissertation_EX1b,1,312,2020-04-19T16:41:24-07:00,5.7098622322083,4,versionC_stim.csv,VC_VersionD.csv,"Version D","Version D",PLANT,ROOT,Study1,B,13,21,Test,User,-,,Recall,Recall2,5269,ground,40,2913,5089,0,0,,,1
w10035783,8j1itc85lr,Nick_Dissertation_EX1b,1,313,2020-04-19T16:41:29-07:00,4.502917766571,4,versionC_stim.csv,VC_VersionD.csv,"Version D","Version D",BUSINESS,DEATH,Study1,U,72,60,Test,User,-,,Recall,Recall2,4076,sucess,18.181818181818,2388,3812,0,0,,,1
w10035783,8j1itc85lr,Nick_Dissertation_EX1b,1,314,2020-04-19T16:41:34-07:00,5.3419890403748,4,versionC_stim.csv,VC_VersionD.csv,"Version D","Version D",DESIGN,ARCHITECTURE,Study1,S,51,49,Test,User,-,,Recall,Recall2,4856,label,23.529411764706,1801,4614,0,0,,,1
w10035783,8j1itc85lr,Nick_Dissertation_EX1b,1,315,2020-04-19T16:41:36-07:00,2.1407241821289,4,versionC_stim.csv,VC_VersionD.csv,"Version D","Version D",LION,ART,Study1,U,79,59,Test,User,-,,Recall,Recall2,1663,king,0,1083,1529,0,0,,,1
w10035783,8j1itc85lr,Nick_Dissertation_EX1b,1,316,2020-04-19T16:41:40-07:00,4.2253518104553,4,versionC_stim.csv,VC_VersionD.csv,"Version D","Version D",TUCK,ALLOW,Study1,U,78,36,Test,User,-,,Recall,Recall2,3761,wake,22.222222222222,3112,3520,0,0,,,1
w10035783,8j1itc85lr,Nick_Dissertation_EX1b,1,317,2020-04-19T16:41:43-07:00,2.9084939956665,4,versionC_stim.csv,VC_VersionD.csv,"Version D","Version D",CHILD,BABY,Study1,S,64,44,Test,User,-,,Recall,Recall2,2453,adult,22.222222222222,1272,2091,0,0,,,1
w10035783,8j1itc85lr,Nick_Dissertation_EX1b,1,318,2020-04-19T16:41:48-07:00,5.1643500328064,4,versionC_stim.csv,VC_VersionD.csv,"Version D","Version D",BELT,SOON,Study1,U,70,86,Test,User,-,,Recall,Recall2,4714,seat,25,3743,4395,0,0,,,1
w10035783,8j1itc85lr,Nick_Dissertation_EX1b,1,319,2020-04-19T16:41:51-07:00,2.7474961280823,4,versionC_stim.csv,VC_VersionD.csv,"Version D","Version D",SIGHT,DEBATE,Study1,U,73,22,Test,User,-,,Recall,Recall2,2276,near,40,1566,2090,0,0,,,1
w10035783,8j1itc85lr,Nick_Dissertation_EX1b,1,320,2020-04-19T16:41:57-07:00,5.777704000473,4,versionC_stim.csv,VC_VersionD.csv,"Version D","Version D",SITE,LOCATION,Study1,S,48,11,Test,User,-,,Recall,Recall2,5207,site,16.666666666667,4382,4948,0,0,,,1
w10035783,8j1itc85lr,Nick_Dissertation_EX1b,1,321,2020-04-19T16:42:02-07:00,4.6157298088074,4,versionC_stim.csv,VC_VersionD.csv,"Version D","Version D",ATTORNEY,LAW,Study1,F,34,63,Test,User,-,,Recall,Recall2,4161,lawyer,66.666666666667,2469,3882,0,0,,,1
w10035783,8j1itc85lr,Nick_Dissertation_EX1b,1,322,2020-04-19T16:42:04-07:00,2.7206571102142,4,versionC_stim.csv,VC_VersionD.csv,"Version D","Version D",OUT,WAY,Study1,B,16,70,Test,User,-,,Recall,Recall2,1650,in,0,1286,1496,0,0,,,1
w10035783,8j1itc85lr,Nick_Dissertation_EX1b,1,323,2020-04-19T16:42:07-07:00,2.7075939178467,4,versionC_stim.csv,VC_VersionD.csv,"Version D","Version D",BLAZE,FIRE,Study1,F,45,46,Test,User,-,,Recall,Recall2,2175,fire,100,1488,1952,1,1,,,1
w10035783,8j1itc85lr,Nick_Dissertation_EX1b,1,324,2020-04-19T16:42:12-07:00,4.5646860599518,4,versionC_stim.csv,VC_VersionD.csv,"Version D","Version D",PILOT,PLANE,Study1,F,44,39,Test,User,-,,Recall,Recall2,4139,airplane,76.923076923077,1432,3901,0,1,,,1
w10035783,8j1itc85lr,Nick_Dissertation_EX1b,1,325,2020-04-19T16:42:14-07:00,2.4620001316071,4,versionC_stim.csv,VC_VersionD.csv,"Version D","Version D",WIND,BLOW,Study1,S,55,48,Test,User,-,,Recall,Recall2,1987,blow,100,1119,1776,1,1,,,1
w10035783,8j1itc85lr,Nick_Dissertation_EX1b,1,326,2020-04-19T16:42:18-07:00,3.4201819896698,4,versionC_stim.csv,VC_VersionD.csv,"Version D","Version D",SEIZE,TAKE,Study1,F,29,83,Test,User,-,,Recall,Recall2,2920,took,50,2115,2646,0,0,,,1
w10035783,8j1itc85lr,Nick_Dissertation_EX1b,1,327,2020-04-19T16:42:22-07:00,4.4140419960022,4,versionC_stim.csv,VC_VersionD.csv,"Version D","Version D",WOULD,CASH,Study1,U,83,25,Test,User,-,,Recall,Recall2,3902,could,22.222222222222,1732,3658,0,0,,,1
w10035783,8j1itc85lr,Nick_Dissertation_EX1b,1,328,2020-04-19T16:42:26-07:00,3.8825178146362,4,versionC_stim.csv,VC_VersionD.csv,"Version D","Version D",ROCK,GEOLOGY,Study1,B,19,40,Test,User,-,,Recall,Recall2,3294,sand,0,2576,3123,0,0,,,1
w10035783,8j1itc85lr,Nick_Dissertation_EX1b,1,329,2020-04-19T16:42:29-07:00,3.4897050857544,4,versionC_stim.csv,VC_VersionD.csv,"Version D","Version D",CLEAN,HYGIENE,Study1,B,17,42,Test,User,-,,Recall,Recall2,3014,dirty,16.666666666667,1801,2802,0,0,,,1
w10035783,8j1itc85lr,Nick_Dissertation_EX1b,1,330,2020-04-19T16:42:35-07:00,5.6060559749603,4,versionC_stim.csv,VC_VersionD.csv,"Version D","Version D",CHORE,WORK,Study1,F,39,35,Test,User,-,,Recall,Recall2,5156,choir,44.444444444444,4045,4757,0,0,,,1
w10035783,8j1itc85lr,Nick_Dissertation_EX1b,1,331,2020-04-19T16:42:38-07:00,3.0805070400238,4,versionC_stim.csv,VC_VersionD.csv,"Version D","Version D",ACCIDENT,STRONG,Study1,U,80,57,Test,User,-,,Recall,Recall2,2570,report,33.333333333333,1424,2397,0,0,,,1
w10035783,8j1itc85lr,Nick_Dissertation_EX1b,1,332,2020-04-19T16:42:41-07:00,2.7589159011841,4,versionC_stim.csv,VC_VersionD.csv,"Version D","Version D",CAVE,DARK,Study1,F,28,56,Test,User,-,,Recall,Recall2,2255,in,0,1884,2061,0,0,,,1
w10035783,8j1itc85lr,Nick_Dissertation_EX1b,1,333,2020-04-19T16:42:47-07:00,6.3107280731201,4,versionC_stim.csv,VC_VersionD.csv,"Version D","Version D",DIVISION,MATH,Study1,F,33,13,Test,User,-,,Recall,Recall2,5885,muliply,18.181818181818,2876,5515,0,0,,,1
w10035783,8j1itc85lr,Nick_Dissertation_EX1b,1,334,2020-04-19T16:42:50-07:00,2.9425940513611,4,versionC_stim.csv,VC_VersionD.csv,"Version D","Version D",ASSIGNMENT,DUE,Study1,S,46,67,Test,User,-,,Recall,Recall2,2481,due,100,2033,2303,1,1,,,1
w10035783,8j1itc85lr,Nick_Dissertation_EX1b,1,335,2020-04-19T16:42:54-07:00,3.7220170497894,4,versionC_stim.csv,VC_VersionD.csv,"Version D","Version D",WASTE,DUMP,Study1,S,49,41,Test,User,-,,Recall,Recall2,3238,recycle,0,1567,2961,0,0,,,1
w10035783,8j1itc85lr,Nick_Dissertation_EX1b,1,336,2020-04-19T16:43:00-07:00,6.5871360301971,4,versionC_stim.csv,VC_VersionD.csv,"Version D","Version D",ATTIRE,CLOTHES,Study1,F,43,77,Test,User,-,,Recall,Recall2,5662,clothes,100,1813,5477,1,1,,,1
