Username,ID,ExperimentName,Session,Trial,Date,TimeDif,"Condition Number","Stimuli File","Order File","Condition Description","Condition Notes",Stimuli*Cue,Stimuli*Answer,Stimuli*Shuffle,"Stimuli*Stimuli Notes",Stimuli*Value,Procedure*Item,"Procedure*Trial Type","Procedure*Max Time","Procedure*Min Time",Procedure*Text,"Procedure*Procedure Notes",Procedure*Shuffle,"Procedure*Post 1 Item","Procedure*Post 1 Trial Type","Procedure*Post 1 Max Time","Procedure*Post 1 Min Time","Procedure*Post 1 Text",Response*RT,Response*Response,Response*Accuracy,Response*RTfirst,Response*RTlast,Response*strictAcc,Response*lenientAcc,Response*focus,Response*post1_JOL,Response*post1_RT,Response*post1_RTfirst,Response*post1_RTlast,Response*Focus,Response*post1_Focus
w100998820_an,bgdjrvxoxi,Nick_Dissertation_EX1_EP,1,1,2021-11-20T00:21:14+00:00,6.3786199092865,8,versionC_stim.csv,JOLVersionD.csv,"JOL Version D","Dissertation, JOL version D",,,,,,0,Instruct,-,5,"In this section, you will be presented with a series of word pairs.",Initial_Instruct,Instruct1,,No,,,,6189,,,-1,-1,,,,,,,,1
w100998820_an,bgdjrvxoxi,Nick_Dissertation_EX1_EP,1,2,2021-11-20T00:21:30+00:00,16.42186999321,8,versionC_stim.csv,JOLVersionD.csv,"JOL Version D","Dissertation, JOL version D",,,,,,0,Instruct,-,10,"As you study, you will be asked to rate your ability to remember the second item in the pair if you were only shown the first at test. You will make these ratings using a 0 to 100 Scale.",,Instruct13,,No,,,,16169,,,-1,-1,,,,,,,,1
w100998820_an,bgdjrvxoxi,Nick_Dissertation_EX1_EP,1,3,2021-11-20T00:21:45+00:00,14.610360145569,8,versionC_stim.csv,JOLVersionD.csv,"JOL Version D","Dissertation, JOL version D",,,,,,0,Instruct,-,10,"For example, if you are given the pair CAT - DOG, a rating of 0 indicates that you would not remember DOG at test, while a rating of 100 indicates full certainty that you would remember the word DOG at test.",,Instruct14,,No,,,,14260,,,-1,-1,,,,,,,,1
w100998820_an,bgdjrvxoxi,Nick_Dissertation_EX1_EP,1,4,2021-11-20T00:22:01+00:00,16.209986925125,8,versionC_stim.csv,JOLVersionD.csv,"JOL Version D","Dissertation, JOL version D",,,,,,0,Instruct,-,15,"When making your ratings, it is criticial that you use the full range of the scale. You will be disqualified for only giving ratings of 0 or 100! Each word will be displayed on the computer screen for 4 seconds. You will then have 4 seconds to make your rating. The screen will automatically move to the next pair when time is up.",,Instruct15,,No,,,,15775,,,-1,-1,,,,,,,,1
w100998820_an,bgdjrvxoxi,Nick_Dissertation_EX1_EP,1,5,2021-11-20T00:22:03+00:00,2.5434470176697,8,versionC_stim.csv,JOLVersionD.csv,"JOL Version D","Dissertation, JOL version D",,,,,,0,Instruct,User,-,"You will now begin the study. Press Enter when you are ready to begin.",,Instruct16,,No,,,,2314,,,-1,-1,,,,,,,,1
w100998820_an,bgdjrvxoxi,Nick_Dissertation_EX1_EP,1,6,2021-11-20T00:22:14+00:00,10.588170051575,8,versionC_stim.csv,JOLVersionD.csv,"JOL Version D","Dissertation, JOL version D",FROZEN,ICE,BUFFER3,Buffer,94,92,Study,5,5,,Study/JOL,BUFFER,92,JOL,5,5,"How likely are you to correctly recall the second item in the pair?|Type your response on a scale from 0-100 and then press Enter.",5012,,,-1,-1,,,,,5006,-1,-1,1,1
w100998820_an,bgdjrvxoxi,Nick_Dissertation_EX1_EP,1,7,2021-11-20T00:22:25+00:00,10.596645832062,8,versionC_stim.csv,JOLVersionD.csv,"JOL Version D","Dissertation, JOL version D",STRING,NOODLE,BUFFER3,Buffer,92,94,Study,5,5,,Study/JOL,BUFFER,94,JOL,5,5,"How likely are you to correctly recall the second item in the pair?|Type your response on a scale from 0-100 and then press Enter.",5005,,,-1,-1,,,,60,5010,2764,4496,1,1
w100998820_an,bgdjrvxoxi,Nick_Dissertation_EX1_EP,1,8,2021-11-20T00:22:35+00:00,10.513213157654,8,versionC_stim.csv,JOLVersionD.csv,"JOL Version D","Dissertation, JOL version D",FISH,SHRIMP,BUFFER3,Buffer,93,95,Study,5,5,,Study/JOL,BUFFER,95,JOL,5,5,"How likely are you to correctly recall the second item in the pair?|Type your response on a scale from 0-100 and then press Enter.",5009,,,-1,-1,,,,90,5003,403,451,1,1
w100998820_an,bgdjrvxoxi,Nick_Dissertation_EX1_EP,1,9,2021-11-20T00:22:46+00:00,10.457378864288,8,versionC_stim.csv,JOLVersionD.csv,"JOL Version D","Dissertation, JOL version D",POTATO,CARROT,BUFFER3,Buffer,91,96,Study,5,5,,Study/JOL,BUFFER,96,JOL,5,5,"How likely are you to correctly recall the second item in the pair?|Type your response on a scale from 0-100 and then press Enter.",5008,,,-1,-1,,,,30,5003,803,917,1,1
w100998820_an,bgdjrvxoxi,Nick_Dissertation_EX1_EP,1,10,2021-11-20T00:22:56+00:00,10.334098100662,8,versionC_stim.csv,JOLVersionD.csv,"JOL Version D","Dissertation, JOL version D",ADVENTURE,CAMP,BUFFER3,Buffer,95,93,Study,5,5,,Study/JOL,BUFFER,93,JOL,5,5,"How likely are you to correctly recall the second item in the pair?|Type your response on a scale from 0-100 and then press Enter.",5002,,,-1,-1,,,,50,5005,1346,1792,1,1
w100998820_an,bgdjrvxoxi,Nick_Dissertation_EX1_EP,1,11,2021-11-20T00:23:06+00:00,10.313966035843,8,versionC_stim.csv,JOLVersionD.csv,"JOL Version D","Dissertation, JOL version D",PLANT,CACTUS,Study2,B,98,154,Study,5,5,,Study/JOL,"Study Phase",154,JOL,5,5,"How likely are you to correctly recall the second item in the pair?|Type your response on a scale from 0-100 and then press Enter.",5005,,,-1,-1,,,,50,5003,1768,1803,1,1
w100998820_an,bgdjrvxoxi,Nick_Dissertation_EX1_EP,1,12,2021-11-20T00:23:17+00:00,10.366524934769,8,versionC_stim.csv,JOLVersionD.csv,"JOL Version D","Dissertation, JOL version D",NAP,SLEEP,Study2,F,134,151,Study,5,5,,Study/JOL,"Study Phase",151,JOL,5,5,"How likely are you to correctly recall the second item in the pair?|Type your response on a scale from 0-100 and then press Enter.",5003,,,-1,-1,,,,100,5002,457,1252,1,1
w100998820_an,bgdjrvxoxi,Nick_Dissertation_EX1_EP,1,13,2021-11-20T00:23:27+00:00,10.370594978333,8,versionC_stim.csv,JOLVersionD.csv,"JOL Version D","Dissertation, JOL version D",CARBON,ELEMENT,Study2,S,141,175,Study,5,5,,Study/JOL,"Study Phase",175,JOL,5,5,"How likely are you to correctly recall the second item in the pair?|Type your response on a scale from 0-100 and then press Enter.",5002,,,-1,-1,,,,60,5002,1683,1756,1,1
w100998820_an,bgdjrvxoxi,Nick_Dissertation_EX1_EP,1,14,2021-11-20T00:23:37+00:00,10.408087015152,8,versionC_stim.csv,JOLVersionD.csv,"JOL Version D","Dissertation, JOL version D",HAVE,OWN,Study2,S,153,157,Study,5,5,,Study/JOL,"Study Phase",157,JOL,5,5,"How likely are you to correctly recall the second item in the pair?|Type your response on a scale from 0-100 and then press Enter.",5004,,,-1,-1,,,,20,5008,2239,2528,1,1
w100998820_an,bgdjrvxoxi,Nick_Dissertation_EX1_EP,1,15,2021-11-20T00:23:48+00:00,10.354068994522,8,versionC_stim.csv,JOLVersionD.csv,"JOL Version D","Dissertation, JOL version D",REEL,ROD,Study2,S,150,138,Study,5,5,,Study/JOL,"Study Phase",138,JOL,5,5,"How likely are you to correctly recall the second item in the pair?|Type your response on a scale from 0-100 and then press Enter.",5003,,,-1,-1,,,,80,5002,2207,2354,1,1
w100998820_an,bgdjrvxoxi,Nick_Dissertation_EX1_EP,1,16,2021-11-20T00:23:58+00:00,10.372640132904,8,versionC_stim.csv,JOLVersionD.csv,"JOL Version D","Dissertation, JOL version D",NOISE,LOUD,Study2,S,152,119,Study,5,5,,Study/JOL,"Study Phase",119,JOL,5,5,"How likely are you to correctly recall the second item in the pair?|Type your response on a scale from 0-100 and then press Enter.",5010,,,-1,-1,,,,70,5002,2199,2248,1,1
w100998820_an,bgdjrvxoxi,Nick_Dissertation_EX1_EP,1,17,2021-11-20T00:24:09+00:00,10.403369903564,8,versionC_stim.csv,JOLVersionD.csv,"JOL Version D","Dissertation, JOL version D",PENGUIN,BIRD,Study2,F,119,126,Study,5,5,,Study/JOL,"Study Phase",126,JOL,5,5,"How likely are you to correctly recall the second item in the pair?|Type your response on a scale from 0-100 and then press Enter.",5004,,,-1,-1,,,,90,5002,2139,2162,1,1
w100998820_an,bgdjrvxoxi,Nick_Dissertation_EX1_EP,1,18,2021-11-20T00:24:19+00:00,10.486597061157,8,versionC_stim.csv,JOLVersionD.csv,"JOL Version D","Dissertation, JOL version D",COFFIN,DEAD,Study2,F,128,156,Study,5,5,,Study/JOL,"Study Phase",156,JOL,5,5,"How likely are you to correctly recall the second item in the pair?|Type your response on a scale from 0-100 and then press Enter.",5006,,,-1,-1,,,,100,5005,1026,1794,1,1
w100998820_an,bgdjrvxoxi,Nick_Dissertation_EX1_EP,1,19,2021-11-20T00:24:30+00:00,10.605294942856,8,versionC_stim.csv,JOLVersionD.csv,"JOL Version D","Dissertation, JOL version D",LEAGUE,BASEBALL,Study2,F,131,128,Study,5,5,,Study/JOL,"Study Phase",128,JOL,5,5,"How likely are you to correctly recall the second item in the pair?|Type your response on a scale from 0-100 and then press Enter.",5005,,,-1,-1,,,,90,5005,358,2296,1,1
w100998820_an,bgdjrvxoxi,Nick_Dissertation_EX1_EP,1,20,2021-11-20T00:24:40+00:00,10.628059864044,8,versionC_stim.csv,JOLVersionD.csv,"JOL Version D","Dissertation, JOL version D",FLIP,TURN,Study2,F,116,134,Study,5,5,,Study/JOL,"Study Phase",134,JOL,5,5,"How likely are you to correctly recall the second item in the pair?|Type your response on a scale from 0-100 and then press Enter.",5005,,,-1,-1,,,,90,5007,858,908,1,1
w100998820_an,bgdjrvxoxi,Nick_Dissertation_EX1_EP,1,21,2021-11-20T00:24:51+00:00,10.53578710556,8,versionC_stim.csv,JOLVersionD.csv,"JOL Version D","Dissertation, JOL version D",LOVE,AFFECTION,Study2,B,115,122,Study,5,5,,Study/JOL,"Study Phase",122,JOL,5,5,"How likely are you to correctly recall the second item in the pair?|Type your response on a scale from 0-100 and then press Enter.",5005,,,-1,-1,,,,100,5007,325,1050,1,1
w100998820_an,bgdjrvxoxi,Nick_Dissertation_EX1_EP,1,22,2021-11-20T00:25:01+00:00,10.602404117584,8,versionC_stim.csv,JOLVersionD.csv,"JOL Version D","Dissertation, JOL version D",WET,DRY,Study2,S,146,121,Study,5,5,,Study/JOL,"Study Phase",121,JOL,5,5,"How likely are you to correctly recall the second item in the pair?|Type your response on a scale from 0-100 and then press Enter.",5007,,,-1,-1,,,,100,5006,1088,3653,1,1
w100998820_an,bgdjrvxoxi,Nick_Dissertation_EX1_EP,1,23,2021-11-20T00:25:12+00:00,10.710530996323,8,versionC_stim.csv,JOLVersionD.csv,"JOL Version D","Dissertation, JOL version D",FICTION,LISTEN,Study2,U,164,113,Study,5,5,,Study/JOL,"Study Phase",113,JOL,5,5,"How likely are you to correctly recall the second item in the pair?|Type your response on a scale from 0-100 and then press Enter.",5008,,,-1,-1,,,,10,5004,3614,4250,1,1
w100998820_an,bgdjrvxoxi,Nick_Dissertation_EX1_EP,1,24,2021-11-20T00:25:23+00:00,10.680249929428,8,versionC_stim.csv,JOLVersionD.csv,"JOL Version D","Dissertation, JOL version D",LIE,TRUTH,Study2,S,148,131,Study,5,5,,Study/JOL,"Study Phase",131,JOL,5,5,"How likely are you to correctly recall the second item in the pair?|Type your response on a scale from 0-100 and then press Enter.",5011,,,-1,-1,,,,20,5009,1407,1852,1,1
w100998820_an,bgdjrvxoxi,Nick_Dissertation_EX1_EP,1,25,2021-11-20T00:25:33+00:00,10.628587961197,8,versionC_stim.csv,JOLVersionD.csv,"JOL Version D","Dissertation, JOL version D",AIRCRAFT,PLANE,Study2,F,129,142,Study,5,5,,Study/JOL,"Study Phase",142,JOL,5,5,"How likely are you to correctly recall the second item in the pair?|Type your response on a scale from 0-100 and then press Enter.",5005,,,-1,-1,,,,100,5009,350,1267,1,1
w100998820_an,bgdjrvxoxi,Nick_Dissertation_EX1_EP,1,26,2021-11-20T00:25:44+00:00,10.71587896347,8,versionC_stim.csv,JOLVersionD.csv,"JOL Version D","Dissertation, JOL version D",FIGHT,FEUD,Study2,B,113,164,Study,5,5,,Study/JOL,"Study Phase",164,JOL,5,5,"How likely are you to correctly recall the second item in the pair?|Type your response on a scale from 0-100 and then press Enter.",5008,,,-1,-1,,,,30,5008,530,909,1,1
w100998820_an,bgdjrvxoxi,Nick_Dissertation_EX1_EP,1,27,2021-11-20T00:25:55+00:00,10.443875074387,8,versionC_stim.csv,JOLVersionD.csv,"JOL Version D","Dissertation, JOL version D",SIGN,LOAN,Study2,U,171,172,Study,5,5,,Study/JOL,"Study Phase",172,JOL,5,5,"How likely are you to correctly recall the second item in the pair?|Type your response on a scale from 0-100 and then press Enter.",5008,,,-1,-1,,,,20,5002,426,787,1,1
w100998820_an,bgdjrvxoxi,Nick_Dissertation_EX1_EP,1,28,2021-11-20T00:26:05+00:00,10.449967861176,8,versionC_stim.csv,JOLVersionD.csv,"JOL Version D","Dissertation, JOL version D",TOIL,LEASE,Study2,U,170,174,Study,5,5,,Study/JOL,"Study Phase",174,JOL,5,5,"How likely are you to correctly recall the second item in the pair?|Type your response on a scale from 0-100 and then press Enter.",5002,,,-1,-1,,,,10,5018,995,1443,1,1
w100998820_an,bgdjrvxoxi,Nick_Dissertation_EX1_EP,1,29,2021-11-20T00:26:16+00:00,10.560853004456,8,versionC_stim.csv,JOLVersionD.csv,"JOL Version D","Dissertation, JOL version D",WINDSHIELD,CAR,Study2,F,117,152,Study,5,5,,Study/JOL,"Study Phase",152,JOL,5,5,"How likely are you to correctly recall the second item in the pair?|Type your response on a scale from 0-100 and then press Enter.",5010,,,-1,-1,,,,60,5005,248,293,1,1
w100998820_an,bgdjrvxoxi,Nick_Dissertation_EX1_EP,1,30,2021-11-20T00:26:26+00:00,10.487330198288,8,versionC_stim.csv,JOLVersionD.csv,"JOL Version D","Dissertation, JOL version D",MYSTERY,DETECTIVE,Study2,B,100,169,Study,5,5,,Study/JOL,"Study Phase",169,JOL,5,5,"How likely are you to correctly recall the second item in the pair?|Type your response on a scale from 0-100 and then press Enter.",5012,,,-1,-1,,,,90,5013,187,252,1,1
w100998820_an,bgdjrvxoxi,Nick_Dissertation_EX1_EP,1,31,2021-11-20T00:26:37+00:00,10.489930868149,8,versionC_stim.csv,JOLVersionD.csv,"JOL Version D","Dissertation, JOL version D",STEAK,GIVE,Study2,U,158,148,Study,5,5,,Study/JOL,"Study Phase",148,JOL,5,5,"How likely are you to correctly recall the second item in the pair?|Type your response on a scale from 0-100 and then press Enter.",5003,,,-1,-1,,,,40,5012,1455,1915,1,1
w100998820_an,bgdjrvxoxi,Nick_Dissertation_EX1_EP,1,32,2021-11-20T00:26:47+00:00,10.533574104309,8,versionC_stim.csv,JOLVersionD.csv,"JOL Version D","Dissertation, JOL version D",STRAWBERRY,FRUIT,Study2,F,124,117,Study,5,5,,Study/JOL,"Study Phase",117,JOL,5,5,"How likely are you to correctly recall the second item in the pair?|Type your response on a scale from 0-100 and then press Enter.",5003,,,-1,-1,,,,100,5003,313,1070,1,1
w100998820_an,bgdjrvxoxi,Nick_Dissertation_EX1_EP,1,33,2021-11-20T00:26:58+00:00,11.40380692482,8,versionC_stim.csv,JOLVersionD.csv,"JOL Version D","Dissertation, JOL version D",BANKER,MONEY,Study2,F,132,114,Study,5,5,,Study/JOL,"Study Phase",114,JOL,5,5,"How likely are you to correctly recall the second item in the pair?|Type your response on a scale from 0-100 and then press Enter.",5006,,,-1,-1,,,,90,5006,344,403,1,1
w100998820_an,bgdjrvxoxi,Nick_Dissertation_EX1_EP,1,34,2021-11-20T00:27:09+00:00,10.575150966644,8,versionC_stim.csv,JOLVersionD.csv,"JOL Version D","Dissertation, JOL version D",EQUAL,RIGHTS,Study2,S,137,129,Study,5,5,,Study/JOL,"Study Phase",129,JOL,5,5,"How likely are you to correctly recall the second item in the pair?|Type your response on a scale from 0-100 and then press Enter.",5003,,,-1,-1,,,,70,5012,1939,1992,1,1
w100998820_an,bgdjrvxoxi,Nick_Dissertation_EX1_EP,1,35,2021-11-20T00:27:20+00:00,10.579287052155,8,versionC_stim.csv,JOLVersionD.csv,"JOL Version D","Dissertation, JOL version D",SEATBELT,SAFETY,Study2,S,147,161,Study,5,5,,Study/JOL,"Study Phase",161,JOL,5,5,"How likely are you to correctly recall the second item in the pair?|Type your response on a scale from 0-100 and then press Enter.",5010,,,-1,-1,,,,90,5012,175,272,1,1
w100998820_an,bgdjrvxoxi,Nick_Dissertation_EX1_EP,1,36,2021-11-20T00:27:30+00:00,10.599298000336,8,versionC_stim.csv,JOLVersionD.csv,"JOL Version D","Dissertation, JOL version D",JOKE,KEYS,Study2,U,165,160,Study,5,5,,Study/JOL,"Study Phase",160,JOL,5,5,"How likely are you to correctly recall the second item in the pair?|Type your response on a scale from 0-100 and then press Enter.",5005,,,-1,-1,,,,20,5007,285,742,1,1
w100998820_an,bgdjrvxoxi,Nick_Dissertation_EX1_EP,1,37,2021-11-20T00:27:41+00:00,10.575423955917,8,versionC_stim.csv,JOLVersionD.csv,"JOL Version D","Dissertation, JOL version D",LONELY,ALONE,Study2,S,145,140,Study,5,5,,Study/JOL,"Study Phase",140,JOL,5,5,"How likely are you to correctly recall the second item in the pair?|Type your response on a scale from 0-100 and then press Enter.",5003,,,-1,-1,,,,90,5019,2496,2533,1,1
w100998820_an,bgdjrvxoxi,Nick_Dissertation_EX1_EP,1,38,2021-11-20T00:27:51+00:00,10.581371068954,8,versionC_stim.csv,JOLVersionD.csv,"JOL Version D","Dissertation, JOL version D",COLD,CHILL,Study2,B,114,107,Study,5,5,,Study/JOL,"Study Phase",107,JOL,5,5,"How likely are you to correctly recall the second item in the pair?|Type your response on a scale from 0-100 and then press Enter.",5006,,,-1,-1,,,,100,5004,323,1157,1,1
w100998820_an,bgdjrvxoxi,Nick_Dissertation_EX1_EP,1,39,2021-11-20T00:28:02+00:00,10.595879077911,8,versionC_stim.csv,JOLVersionD.csv,"JOL Version D","Dissertation, JOL version D",SMELL,INCENSE,Study2,B,110,150,Study,5,5,,Study/JOL,"Study Phase",150,JOL,5,5,"How likely are you to correctly recall the second item in the pair?|Type your response on a scale from 0-100 and then press Enter.",5005,,,-1,-1,,,,90,5007,2732,2781,1,1
w100998820_an,bgdjrvxoxi,Nick_Dissertation_EX1_EP,1,40,2021-11-20T00:28:13+00:00,10.669085979462,8,versionC_stim.csv,JOLVersionD.csv,"JOL Version D","Dissertation, JOL version D",SHAVE,RAZOR,Study2,S,136,171,Study,5,5,,Study/JOL,"Study Phase",171,JOL,5,5,"How likely are you to correctly recall the second item in the pair?|Type your response on a scale from 0-100 and then press Enter.",5003,,,-1,-1,,,,80,5008,2118,2181,1,1
w100998820_an,bgdjrvxoxi,Nick_Dissertation_EX1_EP,1,41,2021-11-20T00:28:23+00:00,10.73831486702,8,versionC_stim.csv,JOLVersionD.csv,"JOL Version D","Dissertation, JOL version D",TEMPER,TANTRUM,Study2,S,154,136,Study,5,5,,Study/JOL,"Study Phase",136,JOL,5,5,"How likely are you to correctly recall the second item in the pair?|Type your response on a scale from 0-100 and then press Enter.",5007,,,-1,-1,,,,100,5013,324,1119,1,1
w100998820_an,bgdjrvxoxi,Nick_Dissertation_EX1_EP,1,42,2021-11-20T00:28:34+00:00,10.667391061783,8,versionC_stim.csv,JOLVersionD.csv,"JOL Version D","Dissertation, JOL version D",BREAKABLE,GLASS,Study2,F,127,167,Study,5,5,,Study/JOL,"Study Phase",167,JOL,5,5,"How likely are you to correctly recall the second item in the pair?|Type your response on a scale from 0-100 and then press Enter.",5012,,,-1,-1,,,,100,5005,1740,2469,1,1
w100998820_an,bgdjrvxoxi,Nick_Dissertation_EX1_EP,1,43,2021-11-20T00:28:45+00:00,10.528929948807,8,versionC_stim.csv,JOLVersionD.csv,"JOL Version D","Dissertation, JOL version D",Morning,TEMPERATURE,Study2,U,173,165,Study,5,5,,Study/JOL,"Study Phase",165,JOL,5,5,"How likely are you to correctly recall the second item in the pair?|Type your response on a scale from 0-100 and then press Enter.",5002,,,-1,-1,,,,30,5009,2000,2439,1,1
w100998820_an,bgdjrvxoxi,Nick_Dissertation_EX1_EP,1,44,2021-11-20T00:28:55+00:00,10.497652053833,8,versionC_stim.csv,JOLVersionD.csv,"JOL Version D","Dissertation, JOL version D",TIE,SHOELACE,Study2,B,99,153,Study,5,5,,Study/JOL,"Study Phase",153,JOL,5,5,"How likely are you to correctly recall the second item in the pair?|Type your response on a scale from 0-100 and then press Enter.",5006,,,-1,-1,,,,20,5003,1436,1812,1,1
w100998820_an,bgdjrvxoxi,Nick_Dissertation_EX1_EP,1,45,2021-11-20T00:29:06+00:00,10.537353992462,8,versionC_stim.csv,JOLVersionD.csv,"JOL Version D","Dissertation, JOL version D",CLOTH,STRETCH,Study2,U,157,143,Study,5,5,,Study/JOL,"Study Phase",143,JOL,5,5,"How likely are you to correctly recall the second item in the pair?|Type your response on a scale from 0-100 and then press Enter.",5005,,,-1,-1,,,,60,5002,3806,3871,1,1
w100998820_an,bgdjrvxoxi,Nick_Dissertation_EX1_EP,1,46,2021-11-20T00:29:16+00:00,10.512690067291,8,versionC_stim.csv,JOLVersionD.csv,"JOL Version D","Dissertation, JOL version D",ABLE,CRACKLE,Study2,U,162,99,Study,5,5,,Study/JOL,"Study Phase",99,JOL,5,5,"How likely are you to correctly recall the second item in the pair?|Type your response on a scale from 0-100 and then press Enter.",5008,,,-1,-1,,,,70,5003,2750,2817,1,1
w100998820_an,bgdjrvxoxi,Nick_Dissertation_EX1_EP,1,47,2021-11-20T00:29:27+00:00,10.449661970139,8,versionC_stim.csv,JOLVersionD.csv,"JOL Version D","Dissertation, JOL version D",TRASH,LITTER,Study2,B,103,176,Study,5,5,,Study/JOL,"Study Phase",176,JOL,5,5,"How likely are you to correctly recall the second item in the pair?|Type your response on a scale from 0-100 and then press Enter.",5004,,,-1,-1,,,,80,5002,4561,4622,1,1
w100998820_an,bgdjrvxoxi,Nick_Dissertation_EX1_EP,1,48,2021-11-20T00:29:37+00:00,10.49286198616,8,versionC_stim.csv,JOLVersionD.csv,"JOL Version D","Dissertation, JOL version D",CHILDREN,MIRROR,Study2,U,174,105,Study,5,5,,Study/JOL,"Study Phase",105,JOL,5,5,"How likely are you to correctly recall the second item in the pair?|Type your response on a scale from 0-100 and then press Enter.",5010,,,-1,-1,,,,70,5006,2770,2835,1,1
w100998820_an,bgdjrvxoxi,Nick_Dissertation_EX1_EP,1,49,2021-11-20T00:29:47+00:00,10.401232004166,8,versionC_stim.csv,JOLVersionD.csv,"JOL Version D","Dissertation, JOL version D",ACTRESS,STAR,Study2,F,120,123,Study,5,5,,Study/JOL,"Study Phase",123,JOL,5,5,"How likely are you to correctly recall the second item in the pair?|Type your response on a scale from 0-100 and then press Enter.",5004,,,-1,-1,,,,80,5008,2393,2450,1,1
w100998820_an,bgdjrvxoxi,Nick_Dissertation_EX1_EP,1,50,2021-11-20T00:29:58+00:00,10.484246969223,8,versionC_stim.csv,JOLVersionD.csv,"JOL Version D","Dissertation, JOL version D",TRUTHFUL,HONEST,Study2,F,133,147,Study,5,5,,Study/JOL,"Study Phase",147,JOL,5,5,"How likely are you to correctly recall the second item in the pair?|Type your response on a scale from 0-100 and then press Enter.",5009,,,-1,-1,,,,90,5014,1615,1658,1,1
w100998820_an,bgdjrvxoxi,Nick_Dissertation_EX1_EP,1,51,2021-11-20T00:30:08+00:00,10.48691701889,8,versionC_stim.csv,JOLVersionD.csv,"JOL Version D","Dissertation, JOL version D",CUT,CHOP,Study2,B,107,104,Study,5,5,,Study/JOL,"Study Phase",104,JOL,5,5,"How likely are you to correctly recall the second item in the pair?|Type your response on a scale from 0-100 and then press Enter.",5005,,,-1,-1,,,,100,5005,274,856,1,1
w100998820_an,bgdjrvxoxi,Nick_Dissertation_EX1_EP,1,52,2021-11-20T00:30:19+00:00,10.542402982712,8,versionC_stim.csv,JOLVersionD.csv,"JOL Version D","Dissertation, JOL version D",AWAY,GONE,Study2,S,142,130,Study,5,5,,Study/JOL,"Study Phase",130,JOL,5,5,"How likely are you to correctly recall the second item in the pair?|Type your response on a scale from 0-100 and then press Enter.",5005,,,-1,-1,,,,100,5005,160,711,1,1
w100998820_an,bgdjrvxoxi,Nick_Dissertation_EX1_EP,1,53,2021-11-20T00:30:29+00:00,10.457447052002,8,versionC_stim.csv,JOLVersionD.csv,"JOL Version D","Dissertation, JOL version D",BANG,FUZZY,Study2,U,168,120,Study,5,5,,Study/JOL,"Study Phase",120,JOL,5,5,"How likely are you to correctly recall the second item in the pair?|Type your response on a scale from 0-100 and then press Enter.",5004,,,-1,-1,,,,13,5002,3587,3680,1,1
w100998820_an,bgdjrvxoxi,Nick_Dissertation_EX1_EP,1,54,2021-11-20T00:30:40+00:00,10.586282968521,8,versionC_stim.csv,JOLVersionD.csv,"JOL Version D","Dissertation, JOL version D",RED,CHERRY,Study2,B,104,158,Study,5,5,,Study/JOL,"Study Phase",158,JOL,5,5,"How likely are you to correctly recall the second item in the pair?|Type your response on a scale from 0-100 and then press Enter.",5003,,,-1,-1,,,,20,5004,2897,3235,1,1
w100998820_an,bgdjrvxoxi,Nick_Dissertation_EX1_EP,1,55,2021-11-20T00:30:51+00:00,10.973260879517,8,versionC_stim.csv,JOLVersionD.csv,"JOL Version D","Dissertation, JOL version D",CAR,DRIVER,Study2,B,106,149,Study,5,5,,Study/JOL,"Study Phase",149,JOL,5,5,"How likely are you to correctly recall the second item in the pair?|Type your response on a scale from 0-100 and then press Enter.",5003,,,-1,-1,,,,90,5003,1089,3301,1,1
w100998820_an,bgdjrvxoxi,Nick_Dissertation_EX1_EP,1,56,2021-11-20T00:31:01+00:00,10.40263915062,8,versionC_stim.csv,JOLVersionD.csv,"JOL Version D","Dissertation, JOL version D",FAVORITE,BEST,Study2,F,125,125,Study,5,5,,Study/JOL,"Study Phase",125,JOL,5,5,"How likely are you to correctly recall the second item in the pair?|Type your response on a scale from 0-100 and then press Enter.",5006,,,-1,-1,,,,0,5005,266,267,1,1
w100998820_an,bgdjrvxoxi,Nick_Dissertation_EX1_EP,1,57,2021-11-20T00:31:12+00:00,10.359993934631,8,versionC_stim.csv,JOLVersionD.csv,"JOL Version D","Dissertation, JOL version D",DOG,FURRY,Study2,B,102,166,Study,5,5,,Study/JOL,"Study Phase",166,JOL,5,5,"How likely are you to correctly recall the second item in the pair?|Type your response on a scale from 0-100 and then press Enter.",5011,,,-1,-1,,,,60,5005,294,2404,1,1
w100998820_an,bgdjrvxoxi,Nick_Dissertation_EX1_EP,1,58,2021-11-20T00:31:22+00:00,10.361902952194,8,versionC_stim.csv,JOLVersionD.csv,"JOL Version D","Dissertation, JOL version D",HEAD,SCALP,Study2,B,105,144,Study,5,5,,Study/JOL,"Study Phase",144,JOL,5,5,"How likely are you to correctly recall the second item in the pair?|Type your response on a scale from 0-100 and then press Enter.",5007,,,-1,-1,,,,100,5003,1061,1679,1,1
w100998820_an,bgdjrvxoxi,Nick_Dissertation_EX1_EP,1,59,2021-11-20T00:31:33+00:00,10.516569137573,8,versionC_stim.csv,JOLVersionD.csv,"JOL Version D","Dissertation, JOL version D",OBTAIN,MEAT,Study2,U,161,141,Study,5,5,,Study/JOL,"Study Phase",141,JOL,5,5,"How likely are you to correctly recall the second item in the pair?|Type your response on a scale from 0-100 and then press Enter.",5011,,,-1,-1,,,,20,5006,327,617,1,1
w100998820_an,bgdjrvxoxi,Nick_Dissertation_EX1_EP,1,60,2021-11-20T00:31:43+00:00,10.384032011032,8,versionC_stim.csv,JOLVersionD.csv,"JOL Version D","Dissertation, JOL version D",OUNCE,BOTH,Study2,U,172,170,Study,5,5,,Study/JOL,"Study Phase",170,JOL,5,5,"How likely are you to correctly recall the second item in the pair?|Type your response on a scale from 0-100 and then press Enter.",5002,,,-1,-1,,,,15,5003,1633,1682,1,1
w100998820_an,bgdjrvxoxi,Nick_Dissertation_EX1_EP,1,61,2021-11-20T00:31:53+00:00,10.395604848862,8,versionC_stim.csv,JOLVersionD.csv,"JOL Version D","Dissertation, JOL version D",BALLOON,POP,Study2,F,123,110,Study,5,5,,Study/JOL,"Study Phase",110,JOL,5,5,"How likely are you to correctly recall the second item in the pair?|Type your response on a scale from 0-100 and then press Enter.",5004,,,-1,-1,,,,40,5008,1192,1253,1,1
w100998820_an,bgdjrvxoxi,Nick_Dissertation_EX1_EP,1,62,2021-11-20T00:32:04+00:00,10.363888025284,8,versionC_stim.csv,JOLVersionD.csv,"JOL Version D","Dissertation, JOL version D",CHARM,VEHICLE,Study2,U,160,127,Study,5,5,,Study/JOL,"Study Phase",127,JOL,5,5,"How likely are you to correctly recall the second item in the pair?|Type your response on a scale from 0-100 and then press Enter.",5001,,,-1,-1,,,,50,5003,2342,2427,1,1
w100998820_an,bgdjrvxoxi,Nick_Dissertation_EX1_EP,1,63,2021-11-20T00:32:14+00:00,10.434552907944,8,versionC_stim.csv,JOLVersionD.csv,"JOL Version D","Dissertation, JOL version D",JAR,MASON,Study2,S,138,155,Study,5,5,,Study/JOL,"Study Phase",155,JOL,5,5,"How likely are you to correctly recall the second item in the pair?|Type your response on a scale from 0-100 and then press Enter.",5007,,,-1,-1,,,,10,5002,3431,3796,1,1
w100998820_an,bgdjrvxoxi,Nick_Dissertation_EX1_EP,1,64,2021-11-20T00:32:25+00:00,10.382588148117,8,versionC_stim.csv,JOLVersionD.csv,"JOL Version D","Dissertation, JOL version D",TICK,FLEA,Study2,S,151,97,Study,5,5,,Study/JOL,"Study Phase",97,JOL,5,5,"How likely are you to correctly recall the second item in the pair?|Type your response on a scale from 0-100 and then press Enter.",5003,,,-1,-1,,,,90,5004,1894,1950,1,1
w100998820_an,bgdjrvxoxi,Nick_Dissertation_EX1_EP,1,65,2021-11-20T00:32:35+00:00,10.47552895546,8,versionC_stim.csv,JOLVersionD.csv,"JOL Version D","Dissertation, JOL version D",DRINK,WATER,Study2,S,143,115,Study,5,5,,Study/JOL,"Study Phase",115,JOL,5,5,"How likely are you to correctly recall the second item in the pair?|Type your response on a scale from 0-100 and then press Enter.",5009,,,-1,-1,,,,100,5002,151,850,1,1
w100998820_an,bgdjrvxoxi,Nick_Dissertation_EX1_EP,1,66,2021-11-20T00:32:46+00:00,10.437201976776,8,versionC_stim.csv,JOLVersionD.csv,"JOL Version D","Dissertation, JOL version D",EAT,DINE,Study2,B,111,101,Study,5,5,,Study/JOL,"Study Phase",101,JOL,5,5,"How likely are you to correctly recall the second item in the pair?|Type your response on a scale from 0-100 and then press Enter.",5012,,,-1,-1,,,,80,5014,528,558,1,1
w100998820_an,bgdjrvxoxi,Nick_Dissertation_EX1_EP,1,67,2021-11-20T00:32:56+00:00,10.67529797554,8,versionC_stim.csv,JOLVersionD.csv,"JOL Version D","Dissertation, JOL version D",BRAWL,FIGHT,Study2,F,135,116,Study,5,5,,Study/JOL,"Study Phase",116,JOL,5,5,"How likely are you to correctly recall the second item in the pair?|Type your response on a scale from 0-100 and then press Enter.",5007,,,-1,-1,,,,90,5006,1453,1501,1,1
w100998820_an,bgdjrvxoxi,Nick_Dissertation_EX1_EP,1,68,2021-11-20T00:33:07+00:00,10.54981803894,8,versionC_stim.csv,JOLVersionD.csv,"JOL Version D","Dissertation, JOL version D",GROUND,EARTH,Study2,S,144,103,Study,5,5,,Study/JOL,"Study Phase",103,JOL,5,5,"How likely are you to correctly recall the second item in the pair?|Type your response on a scale from 0-100 and then press Enter.",5006,,,-1,-1,,,,100,5005,1096,1801,1,1
w100998820_an,bgdjrvxoxi,Nick_Dissertation_EX1_EP,1,69,2021-11-20T00:33:17+00:00,10.604506015778,8,versionC_stim.csv,JOLVersionD.csv,"JOL Version D","Dissertation, JOL version D",SHAKE,Shell,Study2,U,163,173,Study,5,5,,Study/JOL,"Study Phase",173,JOL,5,5,"How likely are you to correctly recall the second item in the pair?|Type your response on a scale from 0-100 and then press Enter.",5006,,,-1,-1,,,,90,5003,502,621,1,1
w100998820_an,bgdjrvxoxi,Nick_Dissertation_EX1_EP,1,70,2021-11-20T00:33:28+00:00,10.453571081161,8,versionC_stim.csv,JOLVersionD.csv,"JOL Version D","Dissertation, JOL version D",CLOTHES,CAKE,Study2,U,166,145,Study,5,5,,Study/JOL,"Study Phase",145,JOL,5,5,"How likely are you to correctly recall the second item in the pair?|Type your response on a scale from 0-100 and then press Enter.",5005,,,-1,-1,,,,10,5003,3448,4035,1,1
w100998820_an,bgdjrvxoxi,Nick_Dissertation_EX1_EP,1,71,2021-11-20T00:33:38+00:00,10.428335905075,8,versionC_stim.csv,JOLVersionD.csv,"JOL Version D","Dissertation, JOL version D",COMMUNICATION,PHONE,Study2,S,149,124,Study,5,5,,Study/JOL,"Study Phase",124,JOL,5,5,"How likely are you to correctly recall the second item in the pair?|Type your response on a scale from 0-100 and then press Enter.",5006,,,-1,-1,,,,70,5009,1806,1876,1,1
w100998820_an,bgdjrvxoxi,Nick_Dissertation_EX1_EP,1,72,2021-11-20T00:33:49+00:00,10.508922100067,8,versionC_stim.csv,JOLVersionD.csv,"JOL Version D","Dissertation, JOL version D",GAME,CLUE,Study2,B,97,139,Study,5,5,,Study/JOL,"Study Phase",139,JOL,5,5,"How likely are you to correctly recall the second item in the pair?|Type your response on a scale from 0-100 and then press Enter.",5013,,,-1,-1,,,,40,5014,689,751,1,1
w100998820_an,bgdjrvxoxi,Nick_Dissertation_EX1_EP,1,73,2021-11-20T00:33:59+00:00,10.474696874619,8,versionC_stim.csv,JOLVersionD.csv,"JOL Version D","Dissertation, JOL version D",SCAR,MAIN,Study2,U,175,132,Study,5,5,,Study/JOL,"Study Phase",132,JOL,5,5,"How likely are you to correctly recall the second item in the pair?|Type your response on a scale from 0-100 and then press Enter.",5006,,,-1,-1,,,,10,5004,237,1287,1,1
w100998820_an,bgdjrvxoxi,Nick_Dissertation_EX1_EP,1,74,2021-11-20T00:34:10+00:00,10.611591100693,8,versionC_stim.csv,JOLVersionD.csv,"JOL Version D","Dissertation, JOL version D",SARDINE,FISH,Study2,F,130,109,Study,5,5,,Study/JOL,"Study Phase",109,JOL,5,5,"How likely are you to correctly recall the second item in the pair?|Type your response on a scale from 0-100 and then press Enter.",5006,,,-1,-1,,,,50,5002,1879,1966,1,1
w100998820_an,bgdjrvxoxi,Nick_Dissertation_EX1_EP,1,75,2021-11-20T00:34:20+00:00,10.407675027847,8,versionC_stim.csv,JOLVersionD.csv,"JOL Version D","Dissertation, JOL version D",THIMBLE,THREAD,Study2,F,121,168,Study,5,5,,Study/JOL,"Study Phase",168,JOL,5,5,"How likely are you to correctly recall the second item in the pair?|Type your response on a scale from 0-100 and then press Enter.",5005,,,-1,-1,,,,50,5006,1372,2268,1,1
w100998820_an,bgdjrvxoxi,Nick_Dissertation_EX1_EP,1,76,2021-11-20T00:34:31+00:00,10.408164024353,8,versionC_stim.csv,JOLVersionD.csv,"JOL Version D","Dissertation, JOL version D",CLEAR,MOAT,Study2,U,169,112,Study,5,5,,Study/JOL,"Study Phase",112,JOL,5,5,"How likely are you to correctly recall the second item in the pair?|Type your response on a scale from 0-100 and then press Enter.",5008,,,-1,-1,,,,20,5003,649,1486,1,1
w100998820_an,bgdjrvxoxi,Nick_Dissertation_EX1_EP,1,77,2021-11-20T00:34:41+00:00,10.514575004578,8,versionC_stim.csv,JOLVersionD.csv,"JOL Version D","Dissertation, JOL version D",DONKEY,MULE,Study2,B,108,100,Study,5,5,,Study/JOL,"Study Phase",100,JOL,5,5,"How likely are you to correctly recall the second item in the pair?|Type your response on a scale from 0-100 and then press Enter.",5004,,,-1,-1,,,,90,5005,1478,1527,1,1
w100998820_an,bgdjrvxoxi,Nick_Dissertation_EX1_EP,1,78,2021-11-20T00:34:52+00:00,10.565031766891,8,versionC_stim.csv,JOLVersionD.csv,"JOL Version D","Dissertation, JOL version D",WAX,CANDLE,Study2,S,139,102,Study,5,5,,Study/JOL,"Study Phase",102,JOL,5,5,"How likely are you to correctly recall the second item in the pair?|Type your response on a scale from 0-100 and then press Enter.",5004,,,-1,-1,,,,100,5012,264,832,1,1
w100998820_an,bgdjrvxoxi,Nick_Dissertation_EX1_EP,1,79,2021-11-20T00:35:02+00:00,10.555757045746,8,versionC_stim.csv,JOLVersionD.csv,"JOL Version D","Dissertation, JOL version D",REVENGE,EVEN,Study2,F,122,106,Study,5,5,,Study/JOL,"Study Phase",106,JOL,5,5,"How likely are you to correctly recall the second item in the pair?|Type your response on a scale from 0-100 and then press Enter.",5005,,,-1,-1,,,,35,5002,688,2076,1,1
w100998820_an,bgdjrvxoxi,Nick_Dissertation_EX1_EP,1,80,2021-11-20T00:35:13+00:00,10.494444131851,8,versionC_stim.csv,JOLVersionD.csv,"JOL Version D","Dissertation, JOL version D",SCISSORS,SHEARS,Study2,B,112,162,Study,5,5,,Study/JOL,"Study Phase",162,JOL,5,5,"How likely are you to correctly recall the second item in the pair?|Type your response on a scale from 0-100 and then press Enter.",5005,,,-1,-1,,,,100,5009,2222,3098,1,1
w100998820_an,bgdjrvxoxi,Nick_Dissertation_EX1_EP,1,81,2021-11-20T00:35:23+00:00,10.518468856812,8,versionC_stim.csv,JOLVersionD.csv,"JOL Version D","Dissertation, JOL version D",ELECTION,MAZE,Study2,U,159,111,Study,5,5,,Study/JOL,"Study Phase",111,JOL,5,5,"How likely are you to correctly recall the second item in the pair?|Type your response on a scale from 0-100 and then press Enter.",5005,,,-1,-1,,,,20,5007,2882,3462,1,1
w100998820_an,bgdjrvxoxi,Nick_Dissertation_EX1_EP,1,82,2021-11-20T00:35:34+00:00,10.500036001205,8,versionC_stim.csv,JOLVersionD.csv,"JOL Version D","Dissertation, JOL version D",PAPER,DOCUMENT,Study2,B,109,98,Study,5,5,,Study/JOL,"Study Phase",98,JOL,5,5,"How likely are you to correctly recall the second item in the pair?|Type your response on a scale from 0-100 and then press Enter.",5006,,,-1,-1,,,,70,5006,98,184,1,1
w100998820_an,bgdjrvxoxi,Nick_Dissertation_EX1_EP,1,83,2021-11-20T00:35:44+00:00,10.572097063065,8,versionC_stim.csv,JOLVersionD.csv,"JOL Version D","Dissertation, JOL version D",VILLAIN,BAD,Study2,F,118,163,Study,5,5,,Study/JOL,"Study Phase",163,JOL,5,5,"How likely are you to correctly recall the second item in the pair?|Type your response on a scale from 0-100 and then press Enter.",5005,,,-1,-1,,,,60,5003,2045,2085,1,1
w100998820_an,bgdjrvxoxi,Nick_Dissertation_EX1_EP,1,84,2021-11-20T00:35:55+00:00,10.585182905197,8,versionC_stim.csv,JOLVersionD.csv,"JOL Version D","Dissertation, JOL version D",BRACELET,WRIST,Study2,S,140,146,Study,5,5,,Study/JOL,"Study Phase",146,JOL,5,5,"How likely are you to correctly recall the second item in the pair?|Type your response on a scale from 0-100 and then press Enter.",5007,,,-1,-1,,,,70,5003,792,826,1,1
w100998820_an,bgdjrvxoxi,Nick_Dissertation_EX1_EP,1,85,2021-11-20T00:36:05+00:00,10.440060138702,8,versionC_stim.csv,JOLVersionD.csv,"JOL Version D","Dissertation, JOL version D",LONG,EXTENSION,Study2,B,96,118,Study,5,5,,Study/JOL,"Study Phase",118,JOL,5,5,"How likely are you to correctly recall the second item in the pair?|Type your response on a scale from 0-100 and then press Enter.",5010,,,-1,-1,,,,70,5003,265,2136,1,1
w100998820_an,bgdjrvxoxi,Nick_Dissertation_EX1_EP,1,86,2021-11-20T00:36:16+00:00,10.519902944565,8,versionC_stim.csv,JOLVersionD.csv,"JOL Version D","Dissertation, JOL version D",HATE,NAME,Study2,U,167,137,Study,5,5,,Study/JOL,"Study Phase",137,JOL,5,5,"How likely are you to correctly recall the second item in the pair?|Type your response on a scale from 0-100 and then press Enter.",5009,,,-1,-1,,,,15,5004,1038,1133,1,1
w100998820_an,bgdjrvxoxi,Nick_Dissertation_EX1_EP,1,87,2021-11-20T00:36:26+00:00,10.411988973618,8,versionC_stim.csv,JOLVersionD.csv,"JOL Version D","Dissertation, JOL version D",PANTHER,CAT,Study2,F,126,108,Study,5,5,,Study/JOL,"Study Phase",108,JOL,5,5,"How likely are you to correctly recall the second item in the pair?|Type your response on a scale from 0-100 and then press Enter.",5003,,,-1,-1,,,,80,5008,216,251,1,1
w100998820_an,bgdjrvxoxi,Nick_Dissertation_EX1_EP,1,88,2021-11-20T00:36:37+00:00,10.389856100082,8,versionC_stim.csv,JOLVersionD.csv,"JOL Version D","Dissertation, JOL version D",END,ADJOURN,Study2,B,101,135,Study,5,5,,Study/JOL,"Study Phase",135,JOL,5,5,"How likely are you to correctly recall the second item in the pair?|Type your response on a scale from 0-100 and then press Enter.",5006,,,-1,-1,,,,80,5003,2006,2303,1,1
w100998820_an,bgdjrvxoxi,Nick_Dissertation_EX1_EP,1,89,2021-11-20T00:36:47+00:00,10.466796875,8,versionC_stim.csv,JOLVersionD.csv,"JOL Version D","Dissertation, JOL version D",TAN,SUN,Study2,S,155,133,Study,5,5,,Study/JOL,"Study Phase",133,JOL,5,5,"How likely are you to correctly recall the second item in the pair?|Type your response on a scale from 0-100 and then press Enter.",5006,,,-1,-1,,,,88,5005,766,3537,1,1
w100998820_an,bgdjrvxoxi,Nick_Dissertation_EX1_EP,1,90,2021-11-20T00:36:58+00:00,10.371344089508,8,versionC_stim.csv,JOLVersionD.csv,"JOL Version D","Dissertation, JOL version D",MAROON,JUSTICE,Study2,U,156,159,Study,5,5,,Study/JOL,"Study Phase",159,JOL,5,5,"How likely are you to correctly recall the second item in the pair?|Type your response on a scale from 0-100 and then press Enter.",5006,,,-1,-1,,,,10,5003,384,1352,1,1
w100998820_an,bgdjrvxoxi,Nick_Dissertation_EX1_EP,1,91,2021-11-20T00:37:08+00:00,10.424447059631,8,versionC_stim.csv,JOLVersionD.csv,"JOL Version D","Dissertation, JOL version D",SPOOKY,OCTOBER,BUFFER4,Buffer,180,177,Study,5,5,,Study/JOL,BUFFER2,177,JOL,5,5,"How likely are you to correctly recall the second item in the pair?|Type your response on a scale from 0-100 and then press Enter.",5004,,,-1,-1,,,,100,5003,104,1363,1,1
w100998820_an,bgdjrvxoxi,Nick_Dissertation_EX1_EP,1,92,2021-11-20T00:37:19+00:00,10.520556926727,8,versionC_stim.csv,JOLVersionD.csv,"JOL Version D","Dissertation, JOL version D",SHED,TOOL,BUFFER4,Buffer,178,178,Study,5,5,,Study/JOL,BUFFER2,178,JOL,5,5,"How likely are you to correctly recall the second item in the pair?|Type your response on a scale from 0-100 and then press Enter.",5003,,,-1,-1,,,,100,5013,213,755,1,1
w100998820_an,bgdjrvxoxi,Nick_Dissertation_EX1_EP,1,93,2021-11-20T00:37:29+00:00,10.44775390625,8,versionC_stim.csv,JOLVersionD.csv,"JOL Version D","Dissertation, JOL version D",MARCH,SPRING,BUFFER4,Buffer,179,180,Study,5,5,,Study/JOL,BUFFER2,180,JOL,5,5,"How likely are you to correctly recall the second item in the pair?|Type your response on a scale from 0-100 and then press Enter.",5010,,,-1,-1,,,,80,5005,490,569,1,1
w100998820_an,bgdjrvxoxi,Nick_Dissertation_EX1_EP,1,94,2021-11-20T00:37:39+00:00,10.407517194748,8,versionC_stim.csv,JOLVersionD.csv,"JOL Version D","Dissertation, JOL version D",YEAR,MONTH,BUFFER4,Buffer,177,179,Study,5,5,,Study/JOL,BUFFER2,179,JOL,5,5,"How likely are you to correctly recall the second item in the pair?|Type your response on a scale from 0-100 and then press Enter.",5012,,,-1,-1,,,,90,5009,488,651,1,1
w100998820_an,bgdjrvxoxi,Nick_Dissertation_EX1_EP,1,95,2021-11-20T00:37:50+00:00,10.30896282196,8,versionC_stim.csv,JOLVersionD.csv,"JOL Version D","Dissertation, JOL version D",WEAKS,DAYS,BUFFER4,Buffer,176,181,Study,5,5,,Study/JOL,BUFFER2,181,JOL,5,5,"How likely are you to correctly recall the second item in the pair?|Type your response on a scale from 0-100 and then press Enter.",5003,,,-1,-1,,,,100,5002,404,865,1,1
w100998820_an,bgdjrvxoxi,Nick_Dissertation_EX1_EP,1,96,2021-11-20T00:37:52+00:00,2.6594030857086,8,versionC_stim.csv,JOLVersionD.csv,"JOL Version D","Dissertation, JOL version D",,,,,,0,Instruct,User,-,"You have completed this section. Please press Enter.",Filler_Instruction,Instruct2,,No,,,,2516,,,-1,-1,,,,,,,,1,
w100998820_an,bgdjrvxoxi,Nick_Dissertation_EX1_EP,1,97,2021-11-20T00:39:53+00:00,120.25425004959,8,versionC_stim.csv,JOLVersionD.csv,"JOL Version D","Dissertation, JOL version D",,,,,,0,FreeRecall,120,120,"Please list the 50 US states in alphabetical order. The task will automatically advance to the next screen after two minutes.",,Filler1,,No,,,,120006,"Alabama alaska arizona arkansas california colorodo conneticut delaware florida georgia hawaii idaho illinois indiana iowa kansas kentucky louisiana maine maryland massachusetts michigan minnesota mississippi missourimontana nebraska nevada new hampshire new ",0,24304,119931,0,0,,,,,,1,
w100998820_an,bgdjrvxoxi,Nick_Dissertation_EX1_EP,1,98,2021-11-20T00:40:05+00:00,12.613911867142,8,versionC_stim.csv,JOLVersionD.csv,"JOL Version D","Dissertation, JOL version D",,,,,,0,Instruct,-,10,"You will now be presented with the first word from each of the previously studied item pairs. Please type the missing word. If you do not know the word, you may guess or press Enter to skip forward to the next pair.",,Instruct3,,No,,,,12167,,,-1,-1,,,,,,,,1,
w100998820_an,bgdjrvxoxi,Nick_Dissertation_EX1_EP,1,99,2021-11-20T00:40:14+00:00,8.6169230937958,8,versionC_stim.csv,JOLVersionD.csv,"JOL Version D","Dissertation, JOL version D",TIE,SHOELACE,Study2,B,99,153,Test,User,-,,Recall,Recall1,,No,,,,8292,,0,-1,-1,0,0,,,,,,1,
w100998820_an,bgdjrvxoxi,Nick_Dissertation_EX1_EP,1,100,2021-11-20T00:40:48+00:00,34.647957086563,8,versionC_stim.csv,JOLVersionD.csv,"JOL Version D","Dissertation, JOL version D",REVENGE,EVEN,Study2,F,122,106,Test,User,-,,Recall,Recall1,,No,,,,34337,takeback,16.666666666667,31524,32636,0,0,,,,,,1,
w100998820_an,bgdjrvxoxi,Nick_Dissertation_EX1_EP,1,101,2021-11-20T00:40:54+00:00,5.2246708869934,8,versionC_stim.csv,JOLVersionD.csv,"JOL Version D","Dissertation, JOL version D",ABLE,CRACKLE,Study2,U,162,99,Test,User,-,,Recall,Recall1,,No,,,,4904,,0,-1,-1,0,0,,,,,,1,
w100998820_an,bgdjrvxoxi,Nick_Dissertation_EX1_EP,1,102,2021-11-20T00:40:58+00:00,3.8776209354401,8,versionC_stim.csv,JOLVersionD.csv,"JOL Version D","Dissertation, JOL version D",SMELL,INCENSE,Study2,B,110,150,Test,User,-,,Recall,Recall1,,No,,,,3500,sock,18.181818181818,2025,2332,0,0,,,,,,1,
w100998820_an,bgdjrvxoxi,Nick_Dissertation_EX1_EP,1,103,2021-11-20T00:41:05+00:00,7.5188770294189,8,versionC_stim.csv,JOLVersionD.csv,"JOL Version D","Dissertation, JOL version D",SCAR,MAIN,Study2,U,175,132,Test,User,-,,Recall,Recall1,,No,,,,7190,pain,75,5087,5627,0,1,,,,,,1,
w100998820_an,bgdjrvxoxi,Nick_Dissertation_EX1_EP,1,104,2021-11-20T00:41:13+00:00,7.8607151508331,8,versionC_stim.csv,JOLVersionD.csv,"JOL Version D","Dissertation, JOL version D",BREAKABLE,GLASS,Study2,F,127,167,Test,User,-,,Recall,Recall1,,No,,,,7519,glass,100,2866,6463,1,1,,,,,,1,
w100998820_an,bgdjrvxoxi,Nick_Dissertation_EX1_EP,1,105,2021-11-20T00:41:19+00:00,6.5037767887115,8,versionC_stim.csv,JOLVersionD.csv,"JOL Version D","Dissertation, JOL version D",AIRCRAFT,PLANE,Study2,F,129,142,Test,User,-,,Recall,Recall1,,No,,,,6179,Plane,100,1799,5049,1,1,,,,,,1,
w100998820_an,bgdjrvxoxi,Nick_Dissertation_EX1_EP,1,106,2021-11-20T00:41:24+00:00,4.9496250152588,8,versionC_stim.csv,JOLVersionD.csv,"JOL Version D","Dissertation, JOL version D",STEAK,GIVE,Study2,U,158,148,Test,User,-,,Recall,Recall1,,No,,,,4482,potatoes,16.666666666667,2290,3428,0,0,,,,,,1,
w100998820_an,bgdjrvxoxi,Nick_Dissertation_EX1_EP,1,107,2021-11-20T00:41:28+00:00,3.7872040271759,8,versionC_stim.csv,JOLVersionD.csv,"JOL Version D","Dissertation, JOL version D",TICK,FLEA,Study2,S,151,97,Test,User,-,,Recall,Recall1,,No,,,,3484,Flea,100,1884,2385,1,1,,,,,,1,
w100998820_an,bgdjrvxoxi,Nick_Dissertation_EX1_EP,1,108,2021-11-20T00:41:35+00:00,7.0626330375671,8,versionC_stim.csv,JOLVersionD.csv,"JOL Version D","Dissertation, JOL version D",TEMPER,TANTRUM,Study2,S,154,136,Test,User,-,,Recall,Recall1,,No,,,,6699,Anger,50,4700,5334,0,0,,,,,,1,
w100998820_an,bgdjrvxoxi,Nick_Dissertation_EX1_EP,1,109,2021-11-20T00:41:41+00:00,5.7812190055847,8,versionC_stim.csv,JOLVersionD.csv,"JOL Version D","Dissertation, JOL version D",NAP,SLEEP,Study2,F,134,151,Test,User,-,,Recall,Recall1,,No,,,,5468,Sleep,100,2063,2625,1,1,,,,,,1,
w100998820_an,bgdjrvxoxi,Nick_Dissertation_EX1_EP,1,110,2021-11-20T00:41:51+00:00,9.5943670272827,8,versionC_stim.csv,JOLVersionD.csv,"JOL Version D","Dissertation, JOL version D",CUT,CHOP,Study2,B,107,104,Test,User,-,,Recall,Recall1,,No,,,,8094,Slice,22.222222222222,7193,7884,0,0,,,,,,1,
w100998820_an,bgdjrvxoxi,Nick_Dissertation_EX1_EP,1,111,2021-11-20T00:41:59+00:00,8.0327339172363,8,versionC_stim.csv,JOLVersionD.csv,"JOL Version D","Dissertation, JOL version D",THIMBLE,THREAD,Study2,F,121,168,Test,User,-,,Recall,Recall1,,No,,,,7854,Thread,100,2631,6069,1,1,,,,,,1,
w100998820_an,bgdjrvxoxi,Nick_Dissertation_EX1_EP,1,112,2021-11-20T00:42:02+00:00,3.486848115921,8,versionC_stim.csv,JOLVersionD.csv,"JOL Version D","Dissertation, JOL version D",PAPER,DOCUMENT,Study2,B,109,98,Test,User,-,,Recall,Recall1,,No,,,,3140,Towel,15.384615384615,1728,2196,0,0,,,,,,1,
w100998820_an,bgdjrvxoxi,Nick_Dissertation_EX1_EP,1,113,2021-11-20T00:42:08+00:00,6.0857050418854,8,versionC_stim.csv,JOLVersionD.csv,"JOL Version D","Dissertation, JOL version D",BANG,FUZZY,Study2,U,168,120,Test,User,-,,Recall,Recall1,,No,,,,5777,Boom,0,4302,4709,0,0,,,,,,1,
w100998820_an,bgdjrvxoxi,Nick_Dissertation_EX1_EP,1,114,2021-11-20T00:42:11+00:00,3.1057720184326,8,versionC_stim.csv,JOLVersionD.csv,"JOL Version D","Dissertation, JOL version D",TRUTHFUL,HONEST,Study2,F,133,147,Test,User,-,,Recall,Recall1,,No,,,,2697,Lie,22.222222222222,1721,2076,0,0,,,,,,1,
w100998820_an,bgdjrvxoxi,Nick_Dissertation_EX1_EP,1,115,2021-11-20T00:42:14+00:00,2.8759989738464,8,versionC_stim.csv,JOLVersionD.csv,"JOL Version D","Dissertation, JOL version D",REEL,ROD,Study2,S,150,138,Test,User,-,,Recall,Recall1,,No,,,,2702,Rod,100,1844,2261,1,1,,,,,,1,
w100998820_an,bgdjrvxoxi,Nick_Dissertation_EX1_EP,1,116,2021-11-20T00:42:17+00:00,2.8401889801025,8,versionC_stim.csv,JOLVersionD.csv,"JOL Version D","Dissertation, JOL version D",FICTION,LISTEN,Study2,U,164,113,Test,User,-,,Recall,Recall1,,No,,,,2692,Book,0,1797,2163,0,0,,,,,,1,
w100998820_an,bgdjrvxoxi,Nick_Dissertation_EX1_EP,1,117,2021-11-20T00:42:23+00:00,6.3318939208984,8,versionC_stim.csv,JOLVersionD.csv,"JOL Version D","Dissertation, JOL version D",MYSTERY,DETECTIVE,Study2,B,100,169,Test,User,-,,Recall,Recall1,,No,,,,6064,Machine,37.5,4600,5431,0,0,,,,,,1,
w100998820_an,bgdjrvxoxi,Nick_Dissertation_EX1_EP,1,118,2021-11-20T00:42:26+00:00,2.7753930091858,8,versionC_stim.csv,JOLVersionD.csv,"JOL Version D","Dissertation, JOL version D",PANTHER,CAT,Study2,F,126,108,Test,User,-,,Recall,Recall1,,No,,,,2468,Cat,100,1352,1662,1,1,,,,,,1,
w100998820_an,bgdjrvxoxi,Nick_Dissertation_EX1_EP,1,119,2021-11-20T00:42:29+00:00,3.2388241291046,8,versionC_stim.csv,JOLVersionD.csv,"JOL Version D","Dissertation, JOL version D",FIGHT,FEUD,Study2,B,113,164,Test,User,-,,Recall,Recall1,,No,,,,2940,Flight,20,1803,2408,0,0,,,,,,1,
w100998820_an,bgdjrvxoxi,Nick_Dissertation_EX1_EP,1,120,2021-11-20T00:42:33+00:00,3.1882519721985,8,versionC_stim.csv,JOLVersionD.csv,"JOL Version D","Dissertation, JOL version D",GROUND,EARTH,Study2,S,144,103,Test,User,-,,Recall,Recall1,,No,,,,2905,Earth,100,1235,1858,1,1,,,,,,1,
w100998820_an,bgdjrvxoxi,Nick_Dissertation_EX1_EP,1,121,2021-11-20T00:42:36+00:00,2.9651868343353,8,versionC_stim.csv,JOLVersionD.csv,"JOL Version D","Dissertation, JOL version D",HATE,NAME,Study2,U,167,137,Test,User,-,,Recall,Recall1,,No,,,,2726,Spite,22.222222222222,1689,2364,0,0,,,,,,1,
w100998820_an,bgdjrvxoxi,Nick_Dissertation_EX1_EP,1,122,2021-11-20T00:42:44+00:00,7.9687671661377,8,versionC_stim.csv,JOLVersionD.csv,"JOL Version D","Dissertation, JOL version D",END,ADJOURN,Study2,B,101,135,Test,User,-,,Recall,Recall1,,No,,,,7794,Adjourn,100,5702,7023,1,1,,,,,,1,
w100998820_an,bgdjrvxoxi,Nick_Dissertation_EX1_EP,1,123,2021-11-20T00:42:48+00:00,4.1234169006348,8,versionC_stim.csv,JOLVersionD.csv,"JOL Version D","Dissertation, JOL version D",DOG,FURRY,Study2,B,102,166,Test,User,-,,Recall,Recall1,,No,,,,3911,Cat,0,3022,3515,0,0,,,,,,1,
w100998820_an,bgdjrvxoxi,Nick_Dissertation_EX1_EP,1,124,2021-11-20T00:42:51+00:00,2.9236841201782,8,versionC_stim.csv,JOLVersionD.csv,"JOL Version D","Dissertation, JOL version D",BANKER,MONEY,Study2,F,132,114,Test,User,-,,Recall,Recall1,,No,,,,2551,Money,100,1366,1979,1,1,,,,,,1,
w100998820_an,bgdjrvxoxi,Nick_Dissertation_EX1_EP,1,125,2021-11-20T00:42:54+00:00,3.7883069515228,8,versionC_stim.csv,JOLVersionD.csv,"JOL Version D","Dissertation, JOL version D",EQUAL,RIGHTS,Study2,S,137,129,Test,User,-,,Recall,Recall1,,No,,,,3487,Rights,100,2343,3000,1,1,,,,,,1,
w100998820_an,bgdjrvxoxi,Nick_Dissertation_EX1_EP,1,126,2021-11-20T00:43:00+00:00,5.2374248504639,8,versionC_stim.csv,JOLVersionD.csv,"JOL Version D","Dissertation, JOL version D",LONG,EXTENSION,Study2,B,96,118,Test,User,-,,Recall,Recall1,,No,,,,4901,Small,14.285714285714,3311,4247,0,0,,,,,,1,
w100998820_an,bgdjrvxoxi,Nick_Dissertation_EX1_EP,1,127,2021-11-20T00:43:02+00:00,2.534371137619,8,versionC_stim.csv,JOLVersionD.csv,"JOL Version D","Dissertation, JOL version D",BALLOON,POP,Study2,F,123,110,Test,User,-,,Recall,Recall1,,No,,,,2214,Pop,100,1412,1631,1,1,,,,,,1,
w100998820_an,bgdjrvxoxi,Nick_Dissertation_EX1_EP,1,128,2021-11-20T00:43:07+00:00,4.795511007309,8,versionC_stim.csv,JOLVersionD.csv,"JOL Version D","Dissertation, JOL version D",DRINK,WATER,Study2,S,143,115,Test,User,-,,Recall,Recall1,,No,,,,4510,Water,100,1112,3860,1,1,,,,,,1,
w100998820_an,bgdjrvxoxi,Nick_Dissertation_EX1_EP,1,129,2021-11-20T00:43:10+00:00,3.3553278446198,8,versionC_stim.csv,JOLVersionD.csv,"JOL Version D","Dissertation, JOL version D",BRACELET,WRIST,Study2,S,140,146,Test,User,-,,Recall,Recall1,,No,,,,3174,Wrist,100,1412,2001,1,1,,,,,,1,
w100998820_an,bgdjrvxoxi,Nick_Dissertation_EX1_EP,1,130,2021-11-20T00:43:14+00:00,3.881462097168,8,versionC_stim.csv,JOLVersionD.csv,"JOL Version D","Dissertation, JOL version D",CLOTHES,CAKE,Study2,U,166,145,Test,User,-,,Recall,Recall1,,No,,,,3617,Body,0,2109,2520,0,0,,,,,,1,
w100998820_an,bgdjrvxoxi,Nick_Dissertation_EX1_EP,1,131,2021-11-20T00:43:17+00:00,2.6668391227722,8,versionC_stim.csv,JOLVersionD.csv,"JOL Version D","Dissertation, JOL version D",DONKEY,MULE,Study2,B,108,100,Test,User,-,,Recall,Recall1,,No,,,,2352,Mule,100,1223,1777,1,1,,,,,,1,
w100998820_an,bgdjrvxoxi,Nick_Dissertation_EX1_EP,1,132,2021-11-20T00:43:19+00:00,2.1855289936066,8,versionC_stim.csv,JOLVersionD.csv,"JOL Version D","Dissertation, JOL version D",TAN,SUN,Study2,S,155,133,Test,User,-,,Recall,Recall1,,No,,,,1872,Sun,100,1054,1320,1,1,,,,,,1,
w100998820_an,bgdjrvxoxi,Nick_Dissertation_EX1_EP,1,133,2021-11-20T00:43:22+00:00,3.0136258602142,8,versionC_stim.csv,JOLVersionD.csv,"JOL Version D","Dissertation, JOL version D",COFFIN,DEAD,Study2,F,128,156,Test,User,-,,Recall,Recall1,,No,,,,2714,Dead,100,1736,2298,1,1,,,,,,1,
w100998820_an,bgdjrvxoxi,Nick_Dissertation_EX1_EP,1,134,2021-11-20T00:43:25+00:00,3.0301129817963,8,versionC_stim.csv,JOLVersionD.csv,"JOL Version D","Dissertation, JOL version D",FLIP,TURN,Study2,F,116,134,Test,User,-,,Recall,Recall1,,No,,,,2738,Flop,0,1056,1620,0,0,,,,,,1,
w100998820_an,bgdjrvxoxi,Nick_Dissertation_EX1_EP,1,135,2021-11-20T00:43:33+00:00,8.2101991176605,8,versionC_stim.csv,JOLVersionD.csv,"JOL Version D","Dissertation, JOL version D",FAVORITE,BEST,Study2,F,125,125,Test,User,-,,Recall,Recall1,,No,,,,7947,Pick,0,3981,7285,0,0,,,,,,1,
w100998820_an,bgdjrvxoxi,Nick_Dissertation_EX1_EP,1,136,2021-11-20T00:43:36+00:00,2.8355000019073,8,versionC_stim.csv,JOLVersionD.csv,"JOL Version D","Dissertation, JOL version D",HAVE,OWN,Study2,S,153,157,Test,User,-,,Recall,Recall1,,No,,,,2652,Not,33.333333333333,1199,1564,0,0,,,,,,1,
w100998820_an,bgdjrvxoxi,Nick_Dissertation_EX1_EP,1,137,2021-11-20T00:43:41+00:00,5.2649919986725,8,versionC_stim.csv,JOLVersionD.csv,"JOL Version D","Dissertation, JOL version D",CHILDREN,MIRROR,Study2,U,174,105,Test,User,-,,Recall,Recall1,,No,,,,4675,Loud,20,3486,4064,0,0,,,,,,1,
w100998820_an,bgdjrvxoxi,Nick_Dissertation_EX1_EP,1,138,2021-11-20T00:43:47+00:00,5.1841468811035,8,versionC_stim.csv,JOLVersionD.csv,"JOL Version D","Dissertation, JOL version D",TRASH,LITTER,Study2,B,103,176,Test,User,-,,Recall,Recall1,,No,,,,3477,Can,0,2278,2736,0,0,,,,,,1,
w100998820_an,bgdjrvxoxi,Nick_Dissertation_EX1_EP,1,139,2021-11-20T00:43:50+00:00,3.6275119781494,8,versionC_stim.csv,JOLVersionD.csv,"JOL Version D","Dissertation, JOL version D",WAX,CANDLE,Study2,S,139,102,Test,User,-,,Recall,Recall1,,No,,,,3372,Body,20,2206,2852,0,0,,,,,,1,
w100998820_an,bgdjrvxoxi,Nick_Dissertation_EX1_EP,1,140,2021-11-20T00:43:53+00:00,3.0264790058136,8,versionC_stim.csv,JOLVersionD.csv,"JOL Version D","Dissertation, JOL version D",COMMUNICATION,PHONE,Study2,S,149,124,Test,User,-,,Recall,Recall1,,No,,,,2724,Phone,100,1663,2301,1,1,,,,,,1,
w100998820_an,bgdjrvxoxi,Nick_Dissertation_EX1_EP,1,141,2021-11-20T00:43:59+00:00,5.7190339565277,8,versionC_stim.csv,JOLVersionD.csv,"JOL Version D","Dissertation, JOL version D",LOVE,AFFECTION,Study2,B,115,122,Test,User,-,,Recall,Recall1,,No,,,,5418,Affection,100,1646,3897,1,1,,,,,,1,
w100998820_an,bgdjrvxoxi,Nick_Dissertation_EX1_EP,1,142,2021-11-20T00:44:01+00:00,2.5820472240448,8,versionC_stim.csv,JOLVersionD.csv,"JOL Version D","Dissertation, JOL version D",CARBON,ELEMENT,Study2,S,141,175,Test,User,-,,Recall,Recall1,,No,,,,2411,Element,100,1259,1958,1,1,,,,,,1,
w100998820_an,bgdjrvxoxi,Nick_Dissertation_EX1_EP,1,143,2021-11-20T00:44:06+00:00,4.2981839179993,8,versionC_stim.csv,JOLVersionD.csv,"JOL Version D","Dissertation, JOL version D",STRAWBERRY,FRUIT,Study2,F,124,117,Test,User,-,,Recall,Recall1,,No,,,,4088,Red,25,3260,3677,0,0,,,,,,1,
w100998820_an,bgdjrvxoxi,Nick_Dissertation_EX1_EP,1,144,2021-11-20T00:44:08+00:00,2.4868130683899,8,versionC_stim.csv,JOLVersionD.csv,"JOL Version D","Dissertation, JOL version D",NOISE,LOUD,Study2,S,152,119,Test,User,-,,Recall,Recall1,,No,,,,2196,Loud,100,1170,1783,1,1,,,,,,1,
w100998820_an,bgdjrvxoxi,Nick_Dissertation_EX1_EP,1,145,2021-11-20T00:44:11+00:00,2.9594879150391,8,versionC_stim.csv,JOLVersionD.csv,"JOL Version D","Dissertation, JOL version D",SEATBELT,SAFETY,Study2,S,147,161,Test,User,-,,Recall,Recall1,,No,,,,2655,Safety,100,1400,2168,1,1,,,,,,1,
w100998820_an,bgdjrvxoxi,Nick_Dissertation_EX1_EP,1,146,2021-11-20T00:44:14+00:00,2.4300520420074,8,versionC_stim.csv,JOLVersionD.csv,"JOL Version D","Dissertation, JOL version D",WINDSHIELD,CAR,Study2,F,117,152,Test,User,-,,Recall,Recall1,,No,,,,2128,Car,100,1414,1804,1,1,,,,,,1,
w100998820_an,bgdjrvxoxi,Nick_Dissertation_EX1_EP,1,147,2021-11-20T00:44:18+00:00,4.2472648620605,8,versionC_stim.csv,JOLVersionD.csv,"JOL Version D","Dissertation, JOL version D",LEAGUE,BASEBALL,Study2,F,131,128,Test,User,-,,Recall,Recall1,,No,,,,3934,Legends,13.333333333333,1675,2567,0,0,,,,,,1,
w100998820_an,bgdjrvxoxi,Nick_Dissertation_EX1_EP,1,148,2021-11-20T00:44:25+00:00,6.7168791294098,8,versionC_stim.csv,JOLVersionD.csv,"JOL Version D","Dissertation, JOL version D",PLANT,CACTUS,Study2,B,98,154,Test,User,-,,Recall,Recall1,,No,,,,6410,Earth,36.363636363636,5006,5895,0,0,,,,,,1,
w100998820_an,bgdjrvxoxi,Nick_Dissertation_EX1_EP,1,149,2021-11-20T00:44:27+00:00,2.2020008563995,8,versionC_stim.csv,JOLVersionD.csv,"JOL Version D","Dissertation, JOL version D",VILLAIN,BAD,Study2,F,118,163,Test,User,-,,Recall,Recall1,,No,,,,1890,Bad,100,1230,1557,1,1,,,,,,1,
w100998820_an,bgdjrvxoxi,Nick_Dissertation_EX1_EP,1,150,2021-11-20T00:44:32+00:00,4.8198251724243,8,versionC_stim.csv,JOLVersionD.csv,"JOL Version D","Dissertation, JOL version D",CHARM,VEHICLE,Study2,U,160,127,Test,User,-,,Recall,Recall1,,No,,,,4517,Good,0,3517,4063,0,0,,,,,,1,
w100998820_an,bgdjrvxoxi,Nick_Dissertation_EX1_EP,1,151,2021-11-20T00:44:35+00:00,3.1943600177765,8,versionC_stim.csv,JOLVersionD.csv,"JOL Version D","Dissertation, JOL version D",EAT,DINE,Study2,B,111,101,Test,User,-,,Recall,Recall1,,No,,,,2906,Food,25,2154,2531,0,0,,,,,,1,
w100998820_an,bgdjrvxoxi,Nick_Dissertation_EX1_EP,1,152,2021-11-20T00:44:44+00:00,9.2574198246002,8,versionC_stim.csv,JOLVersionD.csv,"JOL Version D","Dissertation, JOL version D",OUNCE,BOTH,Study2,U,172,170,Test,User,-,,Recall,Recall1,,No,,,,8991,Gram,0,6221,6822,0,0,,,,,,1,
w100998820_an,bgdjrvxoxi,Nick_Dissertation_EX1_EP,1,153,2021-11-20T00:44:44+00:00,0.25992512702942,8,versionC_stim.csv,JOLVersionD.csv,"JOL Version D","Dissertation, JOL version D",MAROON,JUSTICE,Study2,U,156,159,Test,User,-,,Recall,Recall1,,No,,,,42,,0,-1,-1,0,0,,,,,,1,
w100998820_an,bgdjrvxoxi,Nick_Dissertation_EX1_EP,1,154,2021-11-20T00:44:53+00:00,9.0226058959961,8,versionC_stim.csv,JOLVersionD.csv,"JOL Version D","Dissertation, JOL version D",Morning,TEMPERATURE,Study2,U,173,165,Test,User,-,,Recall,Recall1,,No,,,,8737,Awake,25,7767,8305,0,0,,,,,,1,
w100998820_an,bgdjrvxoxi,Nick_Dissertation_EX1_EP,1,155,2021-11-20T00:45:00+00:00,6.808454990387,8,versionC_stim.csv,JOLVersionD.csv,"JOL Version D","Dissertation, JOL version D",RED,CHERRY,Study2,B,104,158,Test,User,-,,Recall,Recall1,,No,,,,6438,Strawberry,50,1477,5779,0,0,,,,,,1,
w100998820_an,bgdjrvxoxi,Nick_Dissertation_EX1_EP,1,156,2021-11-20T00:45:05+00:00,4.345388174057,8,versionC_stim.csv,JOLVersionD.csv,"JOL Version D","Dissertation, JOL version D",ACTRESS,STAR,Study2,F,120,123,Test,User,-,,Recall,Recall1,,No,,,,4037,Model,0,2689,3240,0,0,,,,,,1,
w100998820_an,bgdjrvxoxi,Nick_Dissertation_EX1_EP,1,157,2021-11-20T00:45:13+00:00,8.1179158687592,8,versionC_stim.csv,JOLVersionD.csv,"JOL Version D","Dissertation, JOL version D",SHAVE,RAZOR,Study2,S,136,171,Test,User,-,,Recall,Recall1,,No,,,,7894,Razor,100,6510,7292,1,1,,,,,,1,
w100998820_an,bgdjrvxoxi,Nick_Dissertation_EX1_EP,1,158,2021-11-20T00:45:16+00:00,2.9255681037903,8,versionC_stim.csv,JOLVersionD.csv,"JOL Version D","Dissertation, JOL version D",SARDINE,FISH,Study2,F,130,109,Test,User,-,,Recall,Recall1,,No,,,,2713,Fish,100,1530,1969,1,1,,,,,,1,
w100998820_an,bgdjrvxoxi,Nick_Dissertation_EX1_EP,1,159,2021-11-20T00:45:19+00:00,3.3775949478149,8,versionC_stim.csv,JOLVersionD.csv,"JOL Version D","Dissertation, JOL version D",OBTAIN,MEAT,Study2,U,161,141,Test,User,-,,Recall,Recall1,,No,,,,3127,Take,25,1531,1943,0,0,,,,,,1,
w100998820_an,bgdjrvxoxi,Nick_Dissertation_EX1_EP,1,160,2021-11-20T00:45:27+00:00,7.6306340694427,8,versionC_stim.csv,JOLVersionD.csv,"JOL Version D","Dissertation, JOL version D",CLEAR,MOAT,Study2,U,169,112,Test,User,-,,Recall,Recall1,,No,,,,7334,Finish,0,3837,6792,0,0,,,,,,1,
w100998820_an,bgdjrvxoxi,Nick_Dissertation_EX1_EP,1,161,2021-11-20T00:45:30+00:00,3.7319388389587,8,versionC_stim.csv,JOLVersionD.csv,"JOL Version D","Dissertation, JOL version D",GAME,CLUE,Study2,B,97,139,Test,User,-,,Recall,Recall1,,No,,,,3396,Control,36.363636363636,1928,2708,0,0,,,,,,1,
w100998820_an,bgdjrvxoxi,Nick_Dissertation_EX1_EP,1,162,2021-11-20T00:45:38+00:00,7.3402969837189,8,versionC_stim.csv,JOLVersionD.csv,"JOL Version D","Dissertation, JOL version D",LONELY,ALONE,Study2,S,145,140,Test,User,-,,Recall,Recall1,,No,,,,7043,Alone,100,5281,5798,1,1,,,,,,1,
w100998820_an,bgdjrvxoxi,Nick_Dissertation_EX1_EP,1,163,2021-11-20T00:45:47+00:00,8.9096629619598,8,versionC_stim.csv,JOLVersionD.csv,"JOL Version D","Dissertation, JOL version D",CLOTH,STRETCH,Study2,U,157,143,Test,User,-,,Recall,Recall1,,No,,,,8591,Clothes,28.571428571429,3917,6076,0,0,,,,,,1,
w100998820_an,bgdjrvxoxi,Nick_Dissertation_EX1_EP,1,164,2021-11-20T00:45:49+00:00,2.588897228241,8,versionC_stim.csv,JOLVersionD.csv,"JOL Version D","Dissertation, JOL version D",JAR,MASON,Study2,S,138,155,Test,User,-,,Recall,Recall1,,No,,,,2422,Mason,100,1327,1834,1,1,,,,,,1,
w100998820_an,bgdjrvxoxi,Nick_Dissertation_EX1_EP,1,165,2021-11-20T00:45:54+00:00,4.3358869552612,8,versionC_stim.csv,JOLVersionD.csv,"JOL Version D","Dissertation, JOL version D",WET,DRY,Study2,S,146,121,Test,User,-,,Recall,Recall1,,No,,,,4128,Towel,0,1326,3314,0,0,,,,,,1,
w100998820_an,bgdjrvxoxi,Nick_Dissertation_EX1_EP,1,166,2021-11-20T00:45:58+00:00,4.1892569065094,8,versionC_stim.csv,JOLVersionD.csv,"JOL Version D","Dissertation, JOL version D",AWAY,GONE,Study2,S,142,130,Test,User,-,,Recall,Recall1,,No,,,,3897,Gone,100,1469,3373,1,1,,,,,,1,
w100998820_an,bgdjrvxoxi,Nick_Dissertation_EX1_EP,1,167,2021-11-20T00:46:01+00:00,3.2824461460114,8,versionC_stim.csv,JOLVersionD.csv,"JOL Version D","Dissertation, JOL version D",TOIL,LEASE,Study2,U,170,174,Test,User,-,,Recall,Recall1,,No,,,,3012,Roll,22.222222222222,2007,2465,0,0,,,,,,1,
w100998820_an,bgdjrvxoxi,Nick_Dissertation_EX1_EP,1,168,2021-11-20T00:46:04+00:00,3.3998508453369,8,versionC_stim.csv,JOLVersionD.csv,"JOL Version D","Dissertation, JOL version D",PENGUIN,BIRD,Study2,F,119,126,Test,User,-,,Recall,Recall1,,No,,,,3092,Bird,100,2190,2770,1,1,,,,,,1,
w100998820_an,bgdjrvxoxi,Nick_Dissertation_EX1_EP,1,169,2021-11-20T00:46:10+00:00,5.2143709659576,8,versionC_stim.csv,JOLVersionD.csv,"JOL Version D","Dissertation, JOL version D",SHAKE,Shell,Study2,U,163,173,Test,User,-,,Recall,Recall1,,No,,,,4897,Move,22.222222222222,4150,4512,0,0,,,,,,1,
w100998820_an,bgdjrvxoxi,Nick_Dissertation_EX1_EP,1,170,2021-11-20T00:46:17+00:00,7.2309110164642,8,versionC_stim.csv,JOLVersionD.csv,"JOL Version D","Dissertation, JOL version D",HEAD,SCALP,Study2,B,105,144,Test,User,-,,Recall,Recall1,,No,,,,6921,Dizzy,0,5643,6268,0,0,,,,,,1,
w100998820_an,bgdjrvxoxi,Nick_Dissertation_EX1_EP,1,171,2021-11-20T00:46:20+00:00,2.865788936615,8,versionC_stim.csv,JOLVersionD.csv,"JOL Version D","Dissertation, JOL version D",SIGN,LOAN,Study2,U,171,172,Test,User,-,,Recall,Recall1,,No,,,,2573,Language,50,1223,2067,0,0,,,,,,1,
w100998820_an,bgdjrvxoxi,Nick_Dissertation_EX1_EP,1,172,2021-11-20T00:46:27+00:00,7.0678400993347,8,versionC_stim.csv,JOLVersionD.csv,"JOL Version D","Dissertation, JOL version D",JOKE,KEYS,Study2,U,165,160,Test,User,-,,Recall,Recall1,,No,,,,6637,Laugh,0,3699,6257,0,0,,,,,,1,
w100998820_an,bgdjrvxoxi,Nick_Dissertation_EX1_EP,1,173,2021-11-20T00:46:31+00:00,3.8504910469055,8,versionC_stim.csv,JOLVersionD.csv,"JOL Version D","Dissertation, JOL version D",BRAWL,FIGHT,Study2,F,135,116,Test,User,-,,Recall,Recall1,,No,,,,2314,Fight,100,1426,1903,1,1,,,,,,1,
w100998820_an,bgdjrvxoxi,Nick_Dissertation_EX1_EP,1,174,2021-11-20T00:46:36+00:00,5.5354220867157,8,versionC_stim.csv,JOLVersionD.csv,"JOL Version D","Dissertation, JOL version D",ELECTION,MAZE,Study2,U,159,111,Test,User,-,,Recall,Recall1,,No,,,,5191,President,15.384615384615,2779,4443,0,0,,,,,,1,
w100998820_an,bgdjrvxoxi,Nick_Dissertation_EX1_EP,1,175,2021-11-20T00:46:59+00:00,22.725918769836,8,versionC_stim.csv,JOLVersionD.csv,"JOL Version D","Dissertation, JOL version D",SCISSORS,SHEARS,Study2,B,112,162,Test,User,-,,Recall,Recall1,,No,,,,22517,Shears,100,21308,22062,1,1,,,,,,1,
w100998820_an,bgdjrvxoxi,Nick_Dissertation_EX1_EP,1,176,2021-11-20T00:47:10+00:00,11.358068227768,8,versionC_stim.csv,JOLVersionD.csv,"JOL Version D","Dissertation, JOL version D",CAR,DRIVER,Study2,B,106,149,Test,User,-,,Recall,Recall1,,No,,,,10940,Windshield,25,5929,10353,0,0,,,,,,1,
w100998820_an,bgdjrvxoxi,Nick_Dissertation_EX1_EP,1,177,2021-11-20T00:47:14+00:00,3.4515788555145,8,versionC_stim.csv,JOLVersionD.csv,"JOL Version D","Dissertation, JOL version D",COLD,CHILL,Study2,B,114,107,Test,User,-,,Recall,Recall1,,No,,,,3198,Ice,25,2434,2764,0,0,,,,,,1,
w100998820_an,bgdjrvxoxi,Nick_Dissertation_EX1_EP,1,178,2021-11-20T00:47:17+00:00,3.1143209934235,8,versionC_stim.csv,JOLVersionD.csv,"JOL Version D","Dissertation, JOL version D",LIE,TRUTH,Study2,S,148,131,Test,User,-,,Recall,Recall1,,No,,,,2810,Truth,100,1827,2347,1,1,,,,,,1,
w100998820_an,bgdjrvxoxi,Nick_Dissertation_EX1_EP,1,179,2021-11-20T00:47:28+00:00,11.409960031509,8,versionC_stim.csv,JOLVersionD.csv,"JOL Version D","Dissertation, JOL version D",,,,,,0,Instruct,-,10,"You will now be presented with a new set of word pairs. Please study each pair. Remember that your memory will be tested! When finished, press Enter to move to the next pair.",Initial_Instruct,Instruct4,,No,,,,11085,,,-1,-1,,,,,,,,1,
w100998820_an,bgdjrvxoxi,Nick_Dissertation_EX1_EP,1,180,2021-11-20T00:47:39+00:00,10.907429933548,8,versionC_stim.csv,JOLVersionD.csv,"JOL Version D","Dissertation, JOL version D",,,,,,0,Instruct,,10,"Each word will be displayed on the computer screen for 4 seconds. You will then have 4 seconds to make your rating. The screen will automatically move to the next pair when time is up. Press Enter when you are ready to begin.",,Instruct10,,No,,,,10508,,,-1,-1,,,,,,,,1,
w100998820_an,bgdjrvxoxi,Nick_Dissertation_EX1_EP,1,181,2021-11-20T00:47:40+00:00,1.2263271808624,8,versionC_stim.csv,JOLVersionD.csv,"JOL Version D","Dissertation, JOL version D",,,,,,0,Instruct,User,-,"Press Enter when you are readty to begin",,Instruct11,,No,,,,969,,,-1,-1,,,,,,,,1,
w100998820_an,bgdjrvxoxi,Nick_Dissertation_EX1_EP,1,182,2021-11-20T00:47:51+00:00,10.605844974518,8,versionC_stim.csv,JOLVersionD.csv,"JOL Version D","Dissertation, JOL version D",HIDE,SCARE,BUFFER1,Buffer,4,2,Study,5,5,,Study/JOL,BUFFER3,2,JOL,5,5,"How likely are you to correctly recall the second item in the pair?|Type your response on a scale from 0-100 and then press Enter.",5003,,,-1,-1,,,,80,5006,2021,2071,1,1
w100998820_an,bgdjrvxoxi,Nick_Dissertation_EX1_EP,1,183,2021-11-20T00:48:02+00:00,10.588965892792,8,versionC_stim.csv,JOLVersionD.csv,"JOL Version D","Dissertation, JOL version D",BUTTER,PEANUT,BUFFER1,Buffer,3,3,Study,5,5,,Study/JOL,BUFFER3,3,JOL,5,5,"How likely are you to correctly recall the second item in the pair?|Type your response on a scale from 0-100 and then press Enter.",5014,,,-1,-1,,,,90,5007,1852,3572,1,1
w100998820_an,bgdjrvxoxi,Nick_Dissertation_EX1_EP,1,184,2021-11-20T00:48:12+00:00,10.63672208786,8,versionC_stim.csv,JOLVersionD.csv,"JOL Version D","Dissertation, JOL version D",JAM,SPACE,BUFFER1,Buffer,5,6,Study,5,5,,Study/JOL,BUFFER3,6,JOL,5,5,"How likely are you to correctly recall the second item in the pair?|Type your response on a scale from 0-100 and then press Enter.",5005,,,-1,-1,,,,60,5007,2029,2305,1,1
w100998820_an,bgdjrvxoxi,Nick_Dissertation_EX1_EP,1,185,2021-11-20T00:48:23+00:00,10.548771858215,8,versionC_stim.csv,JOLVersionD.csv,"JOL Version D","Dissertation, JOL version D",GREEN,TREES,BUFFER1,Buffer,1,5,Study,5,5,,Study/JOL,BUFFER3,5,JOL,5,5,"How likely are you to correctly recall the second item in the pair?|Type your response on a scale from 0-100 and then press Enter.",5003,,,-1,-1,,,,80,5006,1315,1334,1,1
w100998820_an,bgdjrvxoxi,Nick_Dissertation_EX1_EP,1,186,2021-11-20T00:48:34+00:00,10.787480115891,8,versionC_stim.csv,JOLVersionD.csv,"JOL Version D","Dissertation, JOL version D",CATCHER,BASEBALL,BUFFER1,Buffer,2,4,Study,5,5,,Study/JOL,BUFFER3,4,JOL,5,5,"How likely are you to correctly recall the second item in the pair?|Type your response on a scale from 0-100 and then press Enter.",5005,,,-1,-1,,,,50,5005,422,1316,1,1
w100998820_an,bgdjrvxoxi,Nick_Dissertation_EX1_EP,1,187,2021-11-20T00:48:44+00:00,10.559149980545,8,versionC_stim.csv,JOLVersionD.csv,"JOL Version D","Dissertation, JOL version D",BIRD,SWAN,Study1,B,14,18,Study,5,5,,Study/JOL,"Study Phase2",18,JOL,5,5,"How likely are you to correctly recall the second item in the pair?|Type your response on a scale from 0-100 and then press Enter.",5007,,,-1,-1,,,,70,5005,254,283,1,1
w100998820_an,bgdjrvxoxi,Nick_Dissertation_EX1_EP,1,188,2021-11-20T00:48:55+00:00,10.68797492981,8,versionC_stim.csv,JOLVersionD.csv,"JOL Version D","Dissertation, JOL version D",STENCH,SMELL,Study1,F,42,58,Study,5,5,,Study/JOL,"Study Phase2",58,JOL,5,5,"How likely are you to correctly recall the second item in the pair?|Type your response on a scale from 0-100 and then press Enter.",5010,,,-1,-1,,,,30,5007,2103,2156,1,1
w100998820_an,bgdjrvxoxi,Nick_Dissertation_EX1_EP,1,189,2021-11-20T00:49:05+00:00,10.652971029282,8,versionC_stim.csv,JOLVersionD.csv,"JOL Version D","Dissertation, JOL version D",TALK,DISCUSSION,Study1,B,21,15,Study,5,5,,Study/JOL,"Study Phase2",15,JOL,5,5,"How likely are you to correctly recall the second item in the pair?|Type your response on a scale from 0-100 and then press Enter.",5011,,,-1,-1,,,,70,5003,2340,2466,1,1
w100998820_an,bgdjrvxoxi,Nick_Dissertation_EX1_EP,1,190,2021-11-20T00:49:16+00:00,10.585071086884,8,versionC_stim.csv,JOLVersionD.csv,"JOL Version D","Dissertation, JOL version D",WOULD,CASH,Study1,U,83,67,Study,5,5,,Study/JOL,"Study Phase2",67,JOL,5,5,"How likely are you to correctly recall the second item in the pair?|Type your response on a scale from 0-100 and then press Enter.",5003,,,-1,-1,,,,10,5013,2242,2339,1,1
w100998820_an,bgdjrvxoxi,Nick_Dissertation_EX1_EP,1,191,2021-11-20T00:49:27+00:00,10.519847869873,8,versionC_stim.csv,JOLVersionD.csv,"JOL Version D","Dissertation, JOL version D",HAMMER,CHISEL,Study1,B,9,39,Study,5,5,,Study/JOL,"Study Phase2",39,JOL,5,5,"How likely are you to correctly recall the second item in the pair?|Type your response on a scale from 0-100 and then press Enter.",5003,,,-1,-1,,,,8,5003,868,869,1,1
w100998820_an,bgdjrvxoxi,Nick_Dissertation_EX1_EP,1,192,2021-11-20T00:49:37+00:00,10.500898122787,8,versionC_stim.csv,JOLVersionD.csv,"JOL Version D","Dissertation, JOL version D",ENOUGH,FULL,Study1,F,26,48,Study,5,5,,Study/JOL,"Study Phase2",48,JOL,5,5,"How likely are you to correctly recall the second item in the pair?|Type your response on a scale from 0-100 and then press Enter.",5003,,,-1,-1,,,,70,5008,1912,2053,1,1
w100998820_an,bgdjrvxoxi,Nick_Dissertation_EX1_EP,1,193,2021-11-20T00:49:48+00:00,10.641757965088,8,versionC_stim.csv,JOLVersionD.csv,"JOL Version D","Dissertation, JOL version D",WATER,BRIDGE,Study1,B,18,12,Study,5,5,,Study/JOL,"Study Phase2",12,JOL,5,5,"How likely are you to correctly recall the second item in the pair?|Type your response on a scale from 0-100 and then press Enter.",5010,,,-1,-1,,,,80,5016,1736,1863,1,1
w100998820_an,bgdjrvxoxi,Nick_Dissertation_EX1_EP,1,194,2021-11-20T00:49:58+00:00,10.480391979218,8,versionC_stim.csv,JOLVersionD.csv,"JOL Version D","Dissertation, JOL version D",FISH,TUNA,Study1,B,25,85,Study,5,5,,Study/JOL,"Study Phase2",85,JOL,5,5,"How likely are you to correctly recall the second item in the pair?|Type your response on a scale from 0-100 and then press Enter.",5004,,,-1,-1,,,,100,5004,229,462,1,1
w100998820_an,bgdjrvxoxi,Nick_Dissertation_EX1_EP,1,195,2021-11-20T00:50:09+00:00,10.507035017014,8,versionC_stim.csv,JOLVersionD.csv,"JOL Version D","Dissertation, JOL version D",WASP,BUG,Study1,F,32,47,Study,5,5,,Study/JOL,"Study Phase2",47,JOL,5,5,"How likely are you to correctly recall the second item in the pair?|Type your response on a scale from 0-100 and then press Enter.",5014,,,-1,-1,,,,60,5011,473,579,1,1
w100998820_an,bgdjrvxoxi,Nick_Dissertation_EX1_EP,1,196,2021-11-20T00:50:19+00:00,10.549406051636,8,versionC_stim.csv,JOLVersionD.csv,"JOL Version D","Dissertation, JOL version D",FANTASTIC,GREAT,Study1,F,35,28,Study,5,5,,Study/JOL,"Study Phase2",28,JOL,5,5,"How likely are you to correctly recall the second item in the pair?|Type your response on a scale from 0-100 and then press Enter.",5007,,,-1,-1,,,,90,5012,428,482,1,1
w100998820_an,bgdjrvxoxi,Nick_Dissertation_EX1_EP,1,197,2021-11-20T00:50:30+00:00,10.617297887802,8,versionC_stim.csv,JOLVersionD.csv,"JOL Version D","Dissertation, JOL version D",TUCK,ALLOW,Study1,U,78,70,Study,5,5,,Study/JOL,"Study Phase2",70,JOL,5,5,"How likely are you to correctly recall the second item in the pair?|Type your response on a scale from 0-100 and then press Enter.",5010,,,-1,-1,,,,20,5006,319,626,1,1
w100998820_an,bgdjrvxoxi,Nick_Dissertation_EX1_EP,1,198,2021-11-20T00:50:40+00:00,10.616908073425,8,versionC_stim.csv,JOLVersionD.csv,"JOL Version D","Dissertation, JOL version D",HAND,FIX,Study1,U,75,55,Study,5,5,,Study/JOL,"Study Phase2",55,JOL,5,5,"How likely are you to correctly recall the second item in the pair?|Type your response on a scale from 0-100 and then press Enter.",5003,,,-1,-1,,,,70,5004,177,1252,1,1
w100998820_an,bgdjrvxoxi,Nick_Dissertation_EX1_EP,1,199,2021-11-20T00:50:51+00:00,10.643181085587,8,versionC_stim.csv,JOLVersionD.csv,"JOL Version D","Dissertation, JOL version D",WAR,REVOLUTION,Study1,B,20,34,Study,5,5,,Study/JOL,"Study Phase2",34,JOL,5,5,"How likely are you to correctly recall the second item in the pair?|Type your response on a scale from 0-100 and then press Enter.",5010,,,-1,-1,,,,60,5007,1630,1794,1,1
w100998820_an,bgdjrvxoxi,Nick_Dissertation_EX1_EP,1,200,2021-11-20T00:51:02+00:00,10.517299890518,8,versionC_stim.csv,JOLVersionD.csv,"JOL Version D","Dissertation, JOL version D",CLEAN,HYGIENE,Study1,B,17,27,Study,5,5,,Study/JOL,"Study Phase2",27,JOL,5,5,"How likely are you to correctly recall the second item in the pair?|Type your response on a scale from 0-100 and then press Enter.",5003,,,-1,-1,,,,70,5006,437,446,1,1
w100998820_an,bgdjrvxoxi,Nick_Dissertation_EX1_EP,1,201,2021-11-20T00:51:12+00:00,10.602901935577,8,versionC_stim.csv,JOLVersionD.csv,"JOL Version D","Dissertation, JOL version D",MONEY,WAGE,Study1,B,8,84,Study,5,5,,Study/JOL,"Study Phase2",84,JOL,5,5,"How likely are you to correctly recall the second item in the pair?|Type your response on a scale from 0-100 and then press Enter.",5011,,,-1,-1,,,,100,5004,830,1885,1,1
w100998820_an,bgdjrvxoxi,Nick_Dissertation_EX1_EP,1,202,2021-11-20T00:51:23+00:00,10.44541311264,8,versionC_stim.csv,JOLVersionD.csv,"JOL Version D","Dissertation, JOL version D",DOG,PAW,Study1,B,15,43,Study,5,5,,Study/JOL,"Study Phase2",43,JOL,5,5,"How likely are you to correctly recall the second item in the pair?|Type your response on a scale from 0-100 and then press Enter.",5003,,,-1,-1,,,,100,5003,553,1461,1,1
w100998820_an,bgdjrvxoxi,Nick_Dissertation_EX1_EP,1,203,2021-11-20T00:51:33+00:00,10.433207035065,8,versionC_stim.csv,JOLVersionD.csv,"JOL Version D","Dissertation, JOL version D",ASSIGNMENT,DUE,Study1,S,46,69,Study,5,5,,Study/JOL,"Study Phase2",69,JOL,5,5,"How likely are you to correctly recall the second item in the pair?|Type your response on a scale from 0-100 and then press Enter.",5005,,,-1,-1,,,,100,5006,170,1159,1,1
w100998820_an,bgdjrvxoxi,Nick_Dissertation_EX1_EP,1,204,2021-11-20T00:51:44+00:00,10.52245092392,8,versionC_stim.csv,JOLVersionD.csv,"JOL Version D","Dissertation, JOL version D",END,BEGIN,Study1,S,54,77,Study,5,5,,Study/JOL,"Study Phase2",77,JOL,5,5,"How likely are you to correctly recall the second item in the pair?|Type your response on a scale from 0-100 and then press Enter.",5004,,,-1,-1,,,,90,5005,3062,3164,1,1
w100998820_an,bgdjrvxoxi,Nick_Dissertation_EX1_EP,1,205,2021-11-20T00:51:54+00:00,10.428405046463,8,versionC_stim.csv,JOLVersionD.csv,"JOL Version D","Dissertation, JOL version D",CARD,CREDIT,Study1,B,23,57,Study,5,5,,Study/JOL,"Study Phase2",57,JOL,5,5,"How likely are you to correctly recall the second item in the pair?|Type your response on a scale from 0-100 and then press Enter.",5003,,,-1,-1,,,,100,5009,693,930,1,1
w100998820_an,bgdjrvxoxi,Nick_Dissertation_EX1_EP,1,206,2021-11-20T00:52:05+00:00,10.637370824814,8,versionC_stim.csv,JOLVersionD.csv,"JOL Version D","Dissertation, JOL version D",SIP,DRINK,Study1,F,27,79,Study,5,5,,Study/JOL,"Study Phase2",79,JOL,5,5,"How likely are you to correctly recall the second item in the pair?|Type your response on a scale from 0-100 and then press Enter.",5015,,,-1,-1,,,,90,5005,2026,2060,1,1
w100998820_an,bgdjrvxoxi,Nick_Dissertation_EX1_EP,1,207,2021-11-20T00:52:15+00:00,10.678069114685,8,versionC_stim.csv,JOLVersionD.csv,"JOL Version D","Dissertation, JOL version D",VASE,KING,Study1,U,85,25,Study,5,5,,Study/JOL,"Study Phase2",25,JOL,5,5,"How likely are you to correctly recall the second item in the pair?|Type your response on a scale from 0-100 and then press Enter.",5003,,,-1,-1,,,,5,5011,1033,1034,1,1
w100998820_an,bgdjrvxoxi,Nick_Dissertation_EX1_EP,1,208,2021-11-20T00:52:26+00:00,10.57105588913,8,versionC_stim.csv,JOLVersionD.csv,"JOL Version D","Dissertation, JOL version D",BEE,HONEY,Study1,S,63,82,Study,5,5,,Study/JOL,"Study Phase2",82,JOL,5,5,"How likely are you to correctly recall the second item in the pair?|Type your response on a scale from 0-100 and then press Enter.",5004,,,-1,-1,,,,90,5003,540,606,1,1
w100998820_an,bgdjrvxoxi,Nick_Dissertation_EX1_EP,1,209,2021-11-20T00:52:36+00:00,10.413216114044,8,versionC_stim.csv,JOLVersionD.csv,"JOL Version D","Dissertation, JOL version D",BUSINESS,DEATH,Study1,U,72,59,Study,5,5,,Study/JOL,"Study Phase2",59,JOL,5,5,"How likely are you to correctly recall the second item in the pair?|Type your response on a scale from 0-100 and then press Enter.",5004,,,-1,-1,,,,60,5005,2189,4028,1,1
w100998820_an,bgdjrvxoxi,Nick_Dissertation_EX1_EP,1,210,2021-11-20T00:52:47+00:00,10.405788898468,8,versionC_stim.csv,JOLVersionD.csv,"JOL Version D","Dissertation, JOL version D",WOMAN,LIFT,Study1,U,69,29,Study,5,5,,Study/JOL,"Study Phase2",29,JOL,5,5,"How likely are you to correctly recall the second item in the pair?|Type your response on a scale from 0-100 and then press Enter.",5010,,,-1,-1,,,,50,5002,4472,4565,1,1
w100998820_an,bgdjrvxoxi,Nick_Dissertation_EX1_EP,1,211,2021-11-20T00:52:57+00:00,10.343480110168,8,versionC_stim.csv,JOLVersionD.csv,"JOL Version D","Dissertation, JOL version D",ATTORNEY,LAW,Study1,F,34,65,Study,5,5,,Study/JOL,"Study Phase2",65,JOL,5,5,"How likely are you to correctly recall the second item in the pair?|Type your response on a scale from 0-100 and then press Enter.",5002,,,-1,-1,,,,95,5001,1143,1224,1,1
w100998820_an,bgdjrvxoxi,Nick_Dissertation_EX1_EP,1,212,2021-11-20T00:53:07+00:00,10.340811014175,8,versionC_stim.csv,JOLVersionD.csv,"JOL Version D","Dissertation, JOL version D",CHORE,WORK,Study1,F,39,9,Study,5,5,,Study/JOL,"Study Phase2",9,JOL,5,5,"How likely are you to correctly recall the second item in the pair?|Type your response on a scale from 0-100 and then press Enter.",5001,,,-1,-1,,,,80,5003,1549,1601,1,1
w100998820_an,bgdjrvxoxi,Nick_Dissertation_EX1_EP,1,213,2021-11-20T00:53:18+00:00,10.333122014999,8,versionC_stim.csv,JOLVersionD.csv,"JOL Version D","Dissertation, JOL version D",ADD,VALLEY,Study1,U,82,64,Study,5,5,,Study/JOL,"Study Phase2",64,JOL,5,5,"How likely are you to correctly recall the second item in the pair?|Type your response on a scale from 0-100 and then press Enter.",5002,,,-1,-1,,,,1,5002,3440,3496,1,1
w100998820_an,bgdjrvxoxi,Nick_Dissertation_EX1_EP,1,214,2021-11-20T00:53:28+00:00,10.393265962601,8,versionC_stim.csv,JOLVersionD.csv,"JOL Version D","Dissertation, JOL version D",DIVISION,MATH,Study1,F,33,42,Study,5,5,,Study/JOL,"Study Phase2",42,JOL,5,5,"How likely are you to correctly recall the second item in the pair?|Type your response on a scale from 0-100 and then press Enter.",5003,,,-1,-1,,,,80,5003,1367,1402,1,1
w100998820_an,bgdjrvxoxi,Nick_Dissertation_EX1_EP,1,215,2021-11-20T00:53:39+00:00,10.424984931946,8,versionC_stim.csv,JOLVersionD.csv,"JOL Version D","Dissertation, JOL version D",RACKET,BALL,Study1,F,38,14,Study,5,5,,Study/JOL,"Study Phase2",14,JOL,5,5,"How likely are you to correctly recall the second item in the pair?|Type your response on a scale from 0-100 and then press Enter.",5009,,,-1,-1,,,,60,5012,1195,1216,1,1
w100998820_an,bgdjrvxoxi,Nick_Dissertation_EX1_EP,1,216,2021-11-20T00:53:49+00:00,10.35436797142,8,versionC_stim.csv,JOLVersionD.csv,"JOL Version D","Dissertation, JOL version D",COW,HERD,Study1,B,22,17,Study,5,5,,Study/JOL,"Study Phase2",17,JOL,5,5,"How likely are you to correctly recall the second item in the pair?|Type your response on a scale from 0-100 and then press Enter.",5002,,,-1,-1,,,,40,5004,461,511,1,1
w100998820_an,bgdjrvxoxi,Nick_Dissertation_EX1_EP,1,217,2021-11-20T00:53:59+00:00,10.399949073792,8,versionC_stim.csv,JOLVersionD.csv,"JOL Version D","Dissertation, JOL version D",SACKING,DIETARY,Study1,U,67,49,Study,5,5,,Study/JOL,"Study Phase2",49,JOL,5,5,"How likely are you to correctly recall the second item in the pair?|Type your response on a scale from 0-100 and then press Enter.",5002,,,-1,-1,,,,10,5003,2397,4757,1,1
w100998820_an,bgdjrvxoxi,Nick_Dissertation_EX1_EP,1,218,2021-11-20T00:54:10+00:00,10.38712310791,8,versionC_stim.csv,JOLVersionD.csv,"JOL Version D","Dissertation, JOL version D",ROCK,GEOLOGY,Study1,B,19,61,Study,5,5,,Study/JOL,"Study Phase2",61,JOL,5,5,"How likely are you to correctly recall the second item in the pair?|Type your response on a scale from 0-100 and then press Enter.",5005,,,-1,-1,,,,80,5002,127,205,1,1
w100998820_an,bgdjrvxoxi,Nick_Dissertation_EX1_EP,1,219,2021-11-20T00:54:20+00:00,10.568526983261,8,versionC_stim.csv,JOLVersionD.csv,"JOL Version D","Dissertation, JOL version D",CAVE,DARK,Study1,F,28,86,Study,5,5,,Study/JOL,"Study Phase2",86,JOL,5,5,"How likely are you to correctly recall the second item in the pair?|Type your response on a scale from 0-100 and then press Enter.",5005,,,-1,-1,,,,95,5003,957,1011,1,1
w100998820_an,bgdjrvxoxi,Nick_Dissertation_EX1_EP,1,220,2021-11-20T00:54:31+00:00,10.400817871094,8,versionC_stim.csv,JOLVersionD.csv,"JOL Version D","Dissertation, JOL version D",SODA,POP,Study1,S,56,71,Study,5,5,,Study/JOL,"Study Phase2",71,JOL,5,5,"How likely are you to correctly recall the second item in the pair?|Type your response on a scale from 0-100 and then press Enter.",5004,,,-1,-1,,,,95,5004,1328,1382,1,1
w100998820_an,bgdjrvxoxi,Nick_Dissertation_EX1_EP,1,221,2021-11-20T00:54:41+00:00,10.399646043777,8,versionC_stim.csv,JOLVersionD.csv,"JOL Version D","Dissertation, JOL version D",CHILI,HOT,Study1,F,37,63,Study,5,5,,Study/JOL,"Study Phase2",63,JOL,5,5,"How likely are you to correctly recall the second item in the pair?|Type your response on a scale from 0-100 and then press Enter.",5002,,,-1,-1,,,,85,5008,2178,2918,1,1
w100998820_an,bgdjrvxoxi,Nick_Dissertation_EX1_EP,1,222,2021-11-20T00:54:51+00:00,10.404340028763,8,versionC_stim.csv,JOLVersionD.csv,"JOL Version D","Dissertation, JOL version D",SITE,LOCATION,Study1,S,48,73,Study,5,5,,Study/JOL,"Study Phase2",73,JOL,5,5,"How likely are you to correctly recall the second item in the pair?|Type your response on a scale from 0-100 and then press Enter.",5004,,,-1,-1,,,,90,5002,3491,3616,1,0.72
w100998820_an,bgdjrvxoxi,Nick_Dissertation_EX1_EP,1,223,2021-11-20T00:55:02+00:00,10.495779037476,8,versionC_stim.csv,JOLVersionD.csv,"JOL Version D","Dissertation, JOL version D",BAD,DELINQUENT,Study1,B,6,74,Study,5,5,,Study/JOL,"Study Phase2",74,JOL,5,5,"How likely are you to correctly recall the second item in the pair?|Type your response on a scale from 0-100 and then press Enter.",5004,,,-1,-1,,,,20,5007,212,278,1,1
w100998820_an,bgdjrvxoxi,Nick_Dissertation_EX1_EP,1,224,2021-11-20T00:55:13+00:00,10.580322980881,8,versionC_stim.csv,JOLVersionD.csv,"JOL Version D","Dissertation, JOL version D",STOMACH,DIGESTION,Study1,B,7,21,Study,5,5,,Study/JOL,"Study Phase2",21,JOL,5,5,"How likely are you to correctly recall the second item in the pair?|Type your response on a scale from 0-100 and then press Enter.",5007,,,-1,-1,,,,60,5007,195,274,1,1
w100998820_an,bgdjrvxoxi,Nick_Dissertation_EX1_EP,1,225,2021-11-20T00:55:23+00:00,10.44764995575,8,versionC_stim.csv,JOLVersionD.csv,"JOL Version D","Dissertation, JOL version D",WORD,SENTENCE,Study1,F,31,72,Study,5,5,,Study/JOL,"Study Phase2",72,JOL,5,5,"How likely are you to correctly recall the second item in the pair?|Type your response on a scale from 0-100 and then press Enter.",5005,,,-1,-1,,,,30,5006,1688,2053,1,1
w100998820_an,bgdjrvxoxi,Nick_Dissertation_EX1_EP,1,226,2021-11-20T00:55:35+00:00,11.661353111267,8,versionC_stim.csv,JOLVersionD.csv,"JOL Version D","Dissertation, JOL version D",COLD,BITTER,Study1,B,12,31,Study,5,5,,Study/JOL,"Study Phase2",31,JOL,5,5,"How likely are you to correctly recall the second item in the pair?|Type your response on a scale from 0-100 and then press Enter.",5004,,,-1,-1,,,,70,5005,2323,2369,1,1
w100998820_an,bgdjrvxoxi,Nick_Dissertation_EX1_EP,1,227,2021-11-20T00:55:45+00:00,10.59233379364,8,versionC_stim.csv,JOLVersionD.csv,"JOL Version D","Dissertation, JOL version D",OUT,WAY,Study1,B,16,78,Study,5,5,,Study/JOL,"Study Phase2",78,JOL,5,5,"How likely are you to correctly recall the second item in the pair?|Type your response on a scale from 0-100 and then press Enter.",5003,,,-1,-1,,,,30,5011,1646,1963,1,1
w100998820_an,bgdjrvxoxi,Nick_Dissertation_EX1_EP,1,228,2021-11-20T00:55:56+00:00,10.593116044998,8,versionC_stim.csv,JOLVersionD.csv,"JOL Version D","Dissertation, JOL version D",FOOT,SHOE,Study1,S,60,44,Study,5,5,,Study/JOL,"Study Phase2",44,JOL,5,5,"How likely are you to correctly recall the second item in the pair?|Type your response on a scale from 0-100 and then press Enter.",5003,,,-1,-1,,,,90,5009,1255,1367,1,1
w100998820_an,bgdjrvxoxi,Nick_Dissertation_EX1_EP,1,229,2021-11-20T00:56:06+00:00,10.608024120331,8,versionC_stim.csv,JOLVersionD.csv,"JOL Version D","Dissertation, JOL version D",TOILET,BATHROOM,Study1,S,58,8,Study,5,5,,Study/JOL,"Study Phase2",8,JOL,5,5,"How likely are you to correctly recall the second item in the pair?|Type your response on a scale from 0-100 and then press Enter.",5002,,,-1,-1,,,,90,5009,2597,3653,1,1
w100998820_an,bgdjrvxoxi,Nick_Dissertation_EX1_EP,1,230,2021-11-20T00:56:17+00:00,10.652911901474,8,versionC_stim.csv,JOLVersionD.csv,"JOL Version D","Dissertation, JOL version D",BAR,GRILL,Study1,S,52,66,Study,5,5,,Study/JOL,"Study Phase2",66,JOL,5,5,"How likely are you to correctly recall the second item in the pair?|Type your response on a scale from 0-100 and then press Enter.",5016,,,-1,-1,,,,80,5006,2297,4725,1,1
w100998820_an,bgdjrvxoxi,Nick_Dissertation_EX1_EP,1,231,2021-11-20T00:56:28+00:00,10.651792049408,8,versionC_stim.csv,JOLVersionD.csv,"JOL Version D","Dissertation, JOL version D",SALAD,LETTUCE,Study1,S,59,37,Study,5,5,,Study/JOL,"Study Phase2",37,JOL,5,5,"How likely are you to correctly recall the second item in the pair?|Type your response on a scale from 0-100 and then press Enter.",5007,,,-1,-1,,,,60,5010,2906,2973,1,1
w100998820_an,bgdjrvxoxi,Nick_Dissertation_EX1_EP,1,232,2021-11-20T00:56:38+00:00,10.604651927948,8,versionC_stim.csv,JOLVersionD.csv,"JOL Version D","Dissertation, JOL version D",RIDDLE,SUGAR,Study1,U,81,40,Study,5,5,,Study/JOL,"Study Phase2",40,JOL,5,5,"How likely are you to correctly recall the second item in the pair?|Type your response on a scale from 0-100 and then press Enter.",5005,,,-1,-1,,,,30,5015,1333,1805,1,1
w100998820_an,bgdjrvxoxi,Nick_Dissertation_EX1_EP,1,233,2021-11-20T00:56:49+00:00,10.59915304184,8,versionC_stim.csv,JOLVersionD.csv,"JOL Version D","Dissertation, JOL version D",CHILD,BABY,Study1,S,64,80,Study,5,5,,Study/JOL,"Study Phase2",80,JOL,5,5,"How likely are you to correctly recall the second item in the pair?|Type your response on a scale from 0-100 and then press Enter.",5009,,,-1,-1,,,,80,5010,1713,1743,1,1
w100998820_an,bgdjrvxoxi,Nick_Dissertation_EX1_EP,1,234,2021-11-20T00:57:00+00:00,10.688462972641,8,versionC_stim.csv,JOLVersionD.csv,"JOL Version D","Dissertation, JOL version D",LATCH,KEY,Study1,F,36,26,Study,5,5,,Study/JOL,"Study Phase2",26,JOL,5,5,"How likely are you to correctly recall the second item in the pair?|Type your response on a scale from 0-100 and then press Enter.",5013,,,-1,-1,,,,90,5006,1327,1363,1,1
w100998820_an,bgdjrvxoxi,Nick_Dissertation_EX1_EP,1,235,2021-11-20T00:57:10+00:00,10.626743078232,8,versionC_stim.csv,JOLVersionD.csv,"JOL Version D","Dissertation, JOL version D",LIVER,KIDNEY,Study1,S,53,23,Study,5,5,,Study/JOL,"Study Phase2",23,JOL,5,5,"How likely are you to correctly recall the second item in the pair?|Type your response on a scale from 0-100 and then press Enter.",5008,,,-1,-1,,,,70,5003,442,496,1,1
w100998820_an,bgdjrvxoxi,Nick_Dissertation_EX1_EP,1,236,2021-11-20T00:57:21+00:00,10.589792966843,8,versionC_stim.csv,JOLVersionD.csv,"JOL Version D","Dissertation, JOL version D",DROWSY,SLEEP,Study1,F,41,38,Study,5,5,,Study/JOL,"Study Phase2",38,JOL,5,5,"How likely are you to correctly recall the second item in the pair?|Type your response on a scale from 0-100 and then press Enter.",5009,,,-1,-1,,,,80,5003,694,751,1,1
w100998820_an,bgdjrvxoxi,Nick_Dissertation_EX1_EP,1,237,2021-11-20T00:57:31+00:00,10.625250101089,8,versionC_stim.csv,JOLVersionD.csv,"JOL Version D","Dissertation, JOL version D",CAR,HAPPY,Study1,U,77,45,Study,5,5,,Study/JOL,"Study Phase2",45,JOL,5,5,"How likely are you to correctly recall the second item in the pair?|Type your response on a scale from 0-100 and then press Enter.",5006,,,-1,-1,,,,10,5014,1311,1734,1,1
w100998820_an,bgdjrvxoxi,Nick_Dissertation_EX1_EP,1,238,2021-11-20T00:57:42+00:00,10.493919849396,8,versionC_stim.csv,JOLVersionD.csv,"JOL Version D","Dissertation, JOL version D",CLUTTER,PUSHER,Study1,U,66,51,Study,5,5,,Study/JOL,"Study Phase2",51,JOL,5,5,"How likely are you to correctly recall the second item in the pair?|Type your response on a scale from 0-100 and then press Enter.",5008,,,-1,-1,,,,40,5003,1734,2103,1,1
w100998820_an,bgdjrvxoxi,Nick_Dissertation_EX1_EP,1,239,2021-11-20T00:57:53+00:00,10.570584058762,8,versionC_stim.csv,JOLVersionD.csv,"JOL Version D","Dissertation, JOL version D",WIND,BLOW,Study1,S,55,22,Study,5,5,,Study/JOL,"Study Phase2",22,JOL,5,5,"How likely are you to correctly recall the second item in the pair?|Type your response on a scale from 0-100 and then press Enter.",5012,,,-1,-1,,,,90,5004,335,394,1,1
w100998820_an,bgdjrvxoxi,Nick_Dissertation_EX1_EP,1,240,2021-11-20T00:58:03+00:00,10.636831998825,8,versionC_stim.csv,JOLVersionD.csv,"JOL Version D","Dissertation, JOL version D",WASTE,DUMP,Study1,S,49,83,Study,5,5,,Study/JOL,"Study Phase2",83,JOL,5,5,"How likely are you to correctly recall the second item in the pair?|Type your response on a scale from 0-100 and then press Enter.",5012,,,-1,-1,,,,90,5006,1364,1461,1,1
w100998820_an,bgdjrvxoxi,Nick_Dissertation_EX1_EP,1,241,2021-11-20T00:58:14+00:00,10.64638710022,8,versionC_stim.csv,JOLVersionD.csv,"JOL Version D","Dissertation, JOL version D",BELT,SOON,Study1,U,70,54,Study,5,5,,Study/JOL,"Study Phase2",54,JOL,5,5,"How likely are you to correctly recall the second item in the pair?|Type your response on a scale from 0-100 and then press Enter.",5003,,,-1,-1,,,,10,5009,841,1350,1,1
w100998820_an,bgdjrvxoxi,Nick_Dissertation_EX1_EP,1,242,2021-11-20T00:58:24+00:00,10.52011680603,8,versionC_stim.csv,JOLVersionD.csv,"JOL Version D","Dissertation, JOL version D",BRONZE,ARTERY,Study1,U,74,75,Study,5,5,,Study/JOL,"Study Phase2",75,JOL,5,5,"How likely are you to correctly recall the second item in the pair?|Type your response on a scale from 0-100 and then press Enter.",5008,,,-1,-1,,,,5,5006,1611,3182,1,1
w100998820_an,bgdjrvxoxi,Nick_Dissertation_EX1_EP,1,243,2021-11-20T00:58:35+00:00,10.417991161346,8,versionC_stim.csv,JOLVersionD.csv,"JOL Version D","Dissertation, JOL version D",DEFINITION,MEANING,Study1,S,62,56,Study,5,5,,Study/JOL,"Study Phase2",56,JOL,5,5,"How likely are you to correctly recall the second item in the pair?|Type your response on a scale from 0-100 and then press Enter.",5002,,,-1,-1,,,,35,5003,667,728,1,1
w100998820_an,bgdjrvxoxi,Nick_Dissertation_EX1_EP,1,244,2021-11-20T00:58:45+00:00,10.40420794487,8,versionC_stim.csv,JOLVersionD.csv,"JOL Version D","Dissertation, JOL version D",AMOUNT,NUMBER,Study1,S,47,60,Study,5,5,,Study/JOL,"Study Phase2",60,JOL,5,5,"How likely are you to correctly recall the second item in the pair?|Type your response on a scale from 0-100 and then press Enter.",5004,,,-1,-1,,,,45,5003,2596,2824,1,1
w100998820_an,bgdjrvxoxi,Nick_Dissertation_EX1_EP,1,245,2021-11-20T00:58:56+00:00,10.532078027725,8,versionC_stim.csv,JOLVersionD.csv,"JOL Version D","Dissertation, JOL version D",FLOWER,ORCHID,Study1,B,24,20,Study,5,5,,Study/JOL,"Study Phase2",20,JOL,5,5,"How likely are you to correctly recall the second item in the pair?|Type your response on a scale from 0-100 and then press Enter.",5014,,,-1,-1,,,,14,5003,2828,2830,1,1
w100998820_an,bgdjrvxoxi,Nick_Dissertation_EX1_EP,1,246,2021-11-20T00:59:06+00:00,10.502300024033,8,versionC_stim.csv,JOLVersionD.csv,"JOL Version D","Dissertation, JOL version D",ACCIDENT,STRONG,Study1,U,80,41,Study,5,5,,Study/JOL,"Study Phase2",41,JOL,5,5,"How likely are you to correctly recall the second item in the pair?|Type your response on a scale from 0-100 and then press Enter.",5004,,,-1,-1,,,,10,5008,243,667,1,1
w100998820_an,bgdjrvxoxi,Nick_Dissertation_EX1_EP,1,247,2021-11-20T00:59:17+00:00,10.607776880264,8,versionC_stim.csv,JOLVersionD.csv,"JOL Version D","Dissertation, JOL version D",FUTURE,PAST,Study1,S,61,32,Study,5,5,,Study/JOL,"Study Phase2",32,JOL,5,5,"How likely are you to correctly recall the second item in the pair?|Type your response on a scale from 0-100 and then press Enter.",5006,,,-1,-1,,,,90,5004,155,233,1,1
w100998820_an,bgdjrvxoxi,Nick_Dissertation_EX1_EP,1,248,2021-11-20T00:59:27+00:00,10.477035999298,8,versionC_stim.csv,JOLVersionD.csv,"JOL Version D","Dissertation, JOL version D",FLOOR,DISCOVER,Study1,U,71,19,Study,5,5,,Study/JOL,"Study Phase2",19,JOL,5,5,"How likely are you to correctly recall the second item in the pair?|Type your response on a scale from 0-100 and then press Enter.",5013,,,-1,-1,,,,25,5005,1582,1658,1,1
w100998820_an,bgdjrvxoxi,Nick_Dissertation_EX1_EP,1,249,2021-11-20T00:59:38+00:00,10.500427961349,8,versionC_stim.csv,JOLVersionD.csv,"JOL Version D","Dissertation, JOL version D",PLANT,ROOT,Study1,B,13,36,Study,5,5,,Study/JOL,"Study Phase2",36,JOL,5,5,"How likely are you to correctly recall the second item in the pair?|Type your response on a scale from 0-100 and then press Enter.",5003,,,-1,-1,,,,73,5004,904,3949,1,1
w100998820_an,bgdjrvxoxi,Nick_Dissertation_EX1_EP,1,250,2021-11-20T00:59:48+00:00,10.437828063965,8,versionC_stim.csv,JOLVersionD.csv,"JOL Version D","Dissertation, JOL version D",DESIGN,ARCHITECTURE,Study1,S,51,16,Study,5,5,,Study/JOL,"Study Phase2",16,JOL,5,5,"How likely are you to correctly recall the second item in the pair?|Type your response on a scale from 0-100 and then press Enter.",5003,,,-1,-1,,,,15,5002,1374,3855,1,1
w100998820_an,bgdjrvxoxi,Nick_Dissertation_EX1_EP,1,251,2021-11-20T00:59:59+00:00,10.491709947586,8,versionC_stim.csv,JOLVersionD.csv,"JOL Version D","Dissertation, JOL version D",SIGHT,DEBATE,Study1,U,73,53,Study,5,5,,Study/JOL,"Study Phase2",53,JOL,5,5,"How likely are you to correctly recall the second item in the pair?|Type your response on a scale from 0-100 and then press Enter.",5013,,,-1,-1,,,,10,5003,2688,3236,1,1
w100998820_an,bgdjrvxoxi,Nick_Dissertation_EX1_EP,1,252,2021-11-20T01:00:09+00:00,10.476931095123,8,versionC_stim.csv,JOLVersionD.csv,"JOL Version D","Dissertation, JOL version D",ROUND,CIRCLE,Study1,S,65,10,Study,5,5,,Study/JOL,"Study Phase2",10,JOL,5,5,"How likely are you to correctly recall the second item in the pair?|Type your response on a scale from 0-100 and then press Enter.",5004,,,-1,-1,,,,70,5006,1372,1438,1,1
w100998820_an,bgdjrvxoxi,Nick_Dissertation_EX1_EP,1,253,2021-11-20T01:00:20+00:00,10.406462907791,8,versionC_stim.csv,JOLVersionD.csv,"JOL Version D","Dissertation, JOL version D",BLAZE,FIRE,Study1,F,45,50,Study,5,5,,Study/JOL,"Study Phase2",50,JOL,5,5,"How likely are you to correctly recall the second item in the pair?|Type your response on a scale from 0-100 and then press Enter.",5004,,,-1,-1,,,,90,5004,283,313,1,1
w100998820_an,bgdjrvxoxi,Nick_Dissertation_EX1_EP,1,254,2021-11-20T01:00:30+00:00,10.531113147736,8,versionC_stim.csv,JOLVersionD.csv,"JOL Version D","Dissertation, JOL version D",LION,ART,Study1,U,79,52,Study,5,5,,Study/JOL,"Study Phase2",52,JOL,5,5,"How likely are you to correctly recall the second item in the pair?|Type your response on a scale from 0-100 and then press Enter.",5007,,,-1,-1,,,,30,5006,1269,1545,1,1
w100998820_an,bgdjrvxoxi,Nick_Dissertation_EX1_EP,1,255,2021-11-20T01:00:41+00:00,10.527866840363,8,versionC_stim.csv,JOLVersionD.csv,"JOL Version D","Dissertation, JOL version D",HUNGRY,PARK,Study1,U,68,62,Study,5,5,,Study/JOL,"Study Phase2",62,JOL,5,5,"How likely are you to correctly recall the second item in the pair?|Type your response on a scale from 0-100 and then press Enter.",5003,,,-1,-1,,,,10,5006,1025,1660,1,1
w100998820_an,bgdjrvxoxi,Nick_Dissertation_EX1_EP,1,256,2021-11-20T01:00:51+00:00,10.529730081558,8,versionC_stim.csv,JOLVersionD.csv,"JOL Version D","Dissertation, JOL version D",STING,HORNET,Study1,B,11,13,Study,5,5,,Study/JOL,"Study Phase2",13,JOL,5,5,"How likely are you to correctly recall the second item in the pair?|Type your response on a scale from 0-100 and then press Enter.",5003,,,-1,-1,,,,30,5004,2227,4527,1,1
w100998820_an,bgdjrvxoxi,Nick_Dissertation_EX1_EP,1,257,2021-11-20T01:01:02+00:00,10.538614988327,8,versionC_stim.csv,JOLVersionD.csv,"JOL Version D","Dissertation, JOL version D",CHEESE,WINE,Study1,S,57,81,Study,5,5,,Study/JOL,"Study Phase2",81,JOL,5,5,"How likely are you to correctly recall the second item in the pair?|Type your response on a scale from 0-100 and then press Enter.",5005,,,-1,-1,,,,70,5005,1603,1719,1,1
w100998820_an,bgdjrvxoxi,Nick_Dissertation_EX1_EP,1,258,2021-11-20T01:01:12+00:00,10.536194086075,8,versionC_stim.csv,JOLVersionD.csv,"JOL Version D","Dissertation, JOL version D",FAMINE,HUNGER,Study1,F,40,76,Study,5,5,,Study/JOL,"Study Phase2",76,JOL,5,5,"How likely are you to correctly recall the second item in the pair?|Type your response on a scale from 0-100 and then press Enter.",5011,,,-1,-1,,,,40,5011,561,599,1,1
w100998820_an,bgdjrvxoxi,Nick_Dissertation_EX1_EP,1,259,2021-11-20T01:01:23+00:00,10.498469829559,8,versionC_stim.csv,JOLVersionD.csv,"JOL Version D","Dissertation, JOL version D",PILOT,PLANE,Study1,F,44,11,Study,5,5,,Study/JOL,"Study Phase2",11,JOL,5,5,"How likely are you to correctly recall the second item in the pair?|Type your response on a scale from 0-100 and then press Enter.",5009,,,-1,-1,,,,70,5003,2515,2554,1,1
w100998820_an,bgdjrvxoxi,Nick_Dissertation_EX1_EP,1,260,2021-11-20T01:01:33+00:00,10.416671037674,8,versionC_stim.csv,JOLVersionD.csv,"JOL Version D","Dissertation, JOL version D",NEWS,EDITOR,Study1,B,10,46,Study,5,5,,Study/JOL,"Study Phase2",46,JOL,5,5,"How likely are you to correctly recall the second item in the pair?|Type your response on a scale from 0-100 and then press Enter.",5003,,,-1,-1,,,,80,5003,432,499,1,1
