Username,ID,ExperimentName,Session,Trial,Date,TimeDif,"Condition Number","Stimuli File","Order File","Condition Description","Condition Notes",Stimuli*Cue,Stimuli*Answer,Stimuli*Shuffle,"Stimuli*Stimuli Notes",Stimuli*Value,Procedure*Item,"Procedure*Trial Type","Procedure*Max Time","Procedure*Min Time",Procedure*Text,"Procedure*Procedure Notes",Procedure*Shuffle,Response*RT,Response*Response,Response*Accuracy,Response*RTfirst,Response*RTlast,Response*strictAcc,Response*lenientAcc,Response*focus,Response*Focus
w977185_TB,x2t665j4yl,Relational_NO_JOL,1,1,2020-05-07T00:53:28-07:00,11.249231100082,4,versionC_stim.csv,READVersionD.csv,"Read Version D","Relational, read only version D",,,,,,0,Instruct,-,10,"In this section, you will be presented with a series of word pairs. Please study both items in the pair.",,Instruct13,11052,,,-1,-1,,,,1
w977185_TB,x2t665j4yl,Relational_NO_JOL,1,2,2020-05-07T00:53:51-07:00,23.609069108963,4,versionC_stim.csv,READVersionD.csv,"Read Version D","Relational, read only version D",,,,,,0,Instruct,-,15,"As you study, please think about how the two concepts are RELATED to each other. For example, if you see the pair TURTLE-CAT, think about how both are alive, they are both animals, and both can be kept as pets.",,Instruct19,23369,,,-1,-1,,,,1
w977185_TB,x2t665j4yl,Relational_NO_JOL,1,3,2020-05-07T00:54:17-07:00,25.364480018616,4,versionC_stim.csv,READVersionD.csv,"Read Version D","Relational, read only version D",,,,,,0,FreeRecall,-,10,"What you should think about as you study each item pair? Type your response in the box below.",,CHECK1,25103,"The items being similar ",0,15241,23557,0,0,,1
w977185_TB,x2t665j4yl,Relational_NO_JOL,1,4,2020-05-07T00:54:20-07:00,2.7630939483643,4,versionC_stim.csv,READVersionD.csv,"Read Version D","Relational, read only version D",,,,,,0,Instruct,User,-,"You will now begin the experiment. Press ENTER when you are ready to begin.",,Instruct000,2511,,,-1,-1,,,,1
w977185_TB,x2t665j4yl,Relational_NO_JOL,1,5,2020-05-07T00:54:23-07:00,3.3942999839783,4,versionC_stim.csv,READVersionD.csv,"Read Version D","Relational, read only version D",ADVENTURE,CAMP,BUFFER3,Buffer,95,96,Study,User,-,,Study/JOL,BUFFER,3132,,,-1,-1,,,,1
w977185_TB,x2t665j4yl,Relational_NO_JOL,1,6,2020-05-07T00:54:26-07:00,3.2085678577423,4,versionC_stim.csv,READVersionD.csv,"Read Version D","Relational, read only version D",FISH,SHRIMP,BUFFER3,Buffer,93,92,Study,User,-,,Study/JOL,BUFFER,2966,,,-1,-1,,,,1
w977185_TB,x2t665j4yl,Relational_NO_JOL,1,7,2020-05-07T00:54:29-07:00,3.0137181282043,4,versionC_stim.csv,READVersionD.csv,"Read Version D","Relational, read only version D",STRING,NOODLE,BUFFER3,Buffer,92,95,Study,User,-,,Study/JOL,BUFFER,2738,,,-1,-1,,,,1
w977185_TB,x2t665j4yl,Relational_NO_JOL,1,8,2020-05-07T00:54:32-07:00,2.5855910778046,4,versionC_stim.csv,READVersionD.csv,"Read Version D","Relational, read only version D",FROZEN,ICE,BUFFER3,Buffer,94,94,Study,User,-,,Study/JOL,BUFFER,2333,,,-1,-1,,,,1
w977185_TB,x2t665j4yl,Relational_NO_JOL,1,9,2020-05-07T00:54:34-07:00,2.6126699447632,4,versionC_stim.csv,READVersionD.csv,"Read Version D","Relational, read only version D",POTATO,CARROT,BUFFER3,Buffer,91,93,Study,User,-,,Study/JOL,BUFFER,2324,,,-1,-1,,,,1
w977185_TB,x2t665j4yl,Relational_NO_JOL,1,10,2020-05-07T00:54:37-07:00,2.883232831955,4,versionC_stim.csv,READVersionD.csv,"Read Version D","Relational, read only version D",LEAGUE,BASEBALL,Study2,F,131,108,Study,User,-,,Study/JOL,"Study Phase",2602,,,-1,-1,,,,1
w977185_TB,x2t665j4yl,Relational_NO_JOL,1,11,2020-05-07T00:54:45-07:00,8.2374250888824,4,versionC_stim.csv,READVersionD.csv,"Read Version D","Relational, read only version D",FLIP,TURN,Study2,F,116,155,Study,User,-,,Study/JOL,"Study Phase",1638,,,-1,-1,,,,0.889
w977185_TB,x2t665j4yl,Relational_NO_JOL,1,12,2020-05-07T00:54:48-07:00,2.6464109420776,4,versionC_stim.csv,READVersionD.csv,"Read Version D","Relational, read only version D",PAPER,DOCUMENT,Study2,B,109,175,Study,User,-,,Study/JOL,"Study Phase",2357,,,-1,-1,,,,1
w977185_TB,x2t665j4yl,Relational_NO_JOL,1,13,2020-05-07T00:54:52-07:00,3.5682430267334,4,versionC_stim.csv,READVersionD.csv,"Read Version D","Relational, read only version D",CHILDREN,MIRROR,Study2,U,174,104,Study,User,-,,Study/JOL,"Study Phase",3308,,,-1,-1,,,,1
w977185_TB,x2t665j4yl,Relational_NO_JOL,1,14,2020-05-07T00:54:54-07:00,2.7291431427002,4,versionC_stim.csv,READVersionD.csv,"Read Version D","Relational, read only version D",TRASH,LITTER,Study2,B,103,130,Study,User,-,,Study/JOL,"Study Phase",2466,,,-1,-1,,,,1
w977185_TB,x2t665j4yl,Relational_NO_JOL,1,15,2020-05-07T00:54:58-07:00,3.6957008838654,4,versionC_stim.csv,READVersionD.csv,"Read Version D","Relational, read only version D",LOVE,AFFECTION,Study2,B,115,176,Study,User,-,,Study/JOL,"Study Phase",3459,,,-1,-1,,,,1
w977185_TB,x2t665j4yl,Relational_NO_JOL,1,16,2020-05-07T00:55:03-07:00,5.2527389526367,4,versionC_stim.csv,READVersionD.csv,"Read Version D","Relational, read only version D",ACTRESS,STAR,Study2,F,120,100,Study,User,-,,Study/JOL,"Study Phase",4998,,,-1,-1,,,,1
w977185_TB,x2t665j4yl,Relational_NO_JOL,1,17,2020-05-07T00:55:06-07:00,2.6776530742645,4,versionC_stim.csv,READVersionD.csv,"Read Version D","Relational, read only version D",VILLAIN,BAD,Study2,F,118,148,Study,User,-,,Study/JOL,"Study Phase",2432,,,-1,-1,,,,1
w977185_TB,x2t665j4yl,Relational_NO_JOL,1,18,2020-05-07T00:55:09-07:00,2.8733410835266,4,versionC_stim.csv,READVersionD.csv,"Read Version D","Relational, read only version D",TICK,FLEA,Study2,S,151,139,Study,User,-,,Study/JOL,"Study Phase",2623,,,-1,-1,,,,1
w977185_TB,x2t665j4yl,Relational_NO_JOL,1,19,2020-05-07T00:55:12-07:00,2.9523048400879,4,versionC_stim.csv,READVersionD.csv,"Read Version D","Relational, read only version D",DRINK,WATER,Study2,S,143,115,Study,User,-,,Study/JOL,"Study Phase",2702,,,-1,-1,,,,1
w977185_TB,x2t665j4yl,Relational_NO_JOL,1,20,2020-05-07T00:55:15-07:00,3.152773141861,4,versionC_stim.csv,READVersionD.csv,"Read Version D","Relational, read only version D",EAT,DINE,Study2,B,111,117,Study,User,-,,Study/JOL,"Study Phase",2905,,,-1,-1,,,,1
w977185_TB,x2t665j4yl,Relational_NO_JOL,1,21,2020-05-07T00:55:18-07:00,3.1805348396301,4,versionC_stim.csv,READVersionD.csv,"Read Version D","Relational, read only version D",PANTHER,CAT,Study2,F,126,173,Study,User,-,,Study/JOL,"Study Phase",2933,,,-1,-1,,,,1
w977185_TB,x2t665j4yl,Relational_NO_JOL,1,22,2020-05-07T00:55:23-07:00,4.5337932109833,4,versionC_stim.csv,READVersionD.csv,"Read Version D","Relational, read only version D",CLOTH,STRETCH,Study2,U,157,165,Study,User,-,,Study/JOL,"Study Phase",4297,,,-1,-1,,,,1
w977185_TB,x2t665j4yl,Relational_NO_JOL,1,23,2020-05-07T00:55:26-07:00,3.0959148406982,4,versionC_stim.csv,READVersionD.csv,"Read Version D","Relational, read only version D",GROUND,EARTH,Study2,S,144,132,Study,User,-,,Study/JOL,"Study Phase",2853,,,-1,-1,,,,1
w977185_TB,x2t665j4yl,Relational_NO_JOL,1,24,2020-05-07T00:55:33-07:00,6.7549140453339,4,versionC_stim.csv,READVersionD.csv,"Read Version D","Relational, read only version D",JOKE,KEYS,Study2,U,165,122,Study,User,-,,Study/JOL,"Study Phase",1625,,,-1,-1,,,,0.889
w977185_TB,x2t665j4yl,Relational_NO_JOL,1,25,2020-05-07T00:55:39-07:00,5.9664590358734,4,versionC_stim.csv,READVersionD.csv,"Read Version D","Relational, read only version D",JAR,MASON,Study2,S,138,123,Study,User,-,,Study/JOL,"Study Phase",5703,,,-1,-1,,,,1
w977185_TB,x2t665j4yl,Relational_NO_JOL,1,26,2020-05-07T00:55:41-07:00,2.8666939735413,4,versionC_stim.csv,READVersionD.csv,"Read Version D","Relational, read only version D",COFFIN,DEAD,Study2,F,128,145,Study,User,-,,Study/JOL,"Study Phase",2627,,,-1,-1,,,,1
w977185_TB,x2t665j4yl,Relational_NO_JOL,1,27,2020-05-07T00:55:45-07:00,3.3585250377655,4,versionC_stim.csv,READVersionD.csv,"Read Version D","Relational, read only version D",AIRCRAFT,PLANE,Study2,F,129,120,Study,User,-,,Study/JOL,"Study Phase",3114,,,-1,-1,,,,1
w977185_TB,x2t665j4yl,Relational_NO_JOL,1,28,2020-05-07T00:55:50-07:00,4.7163379192352,4,versionC_stim.csv,READVersionD.csv,"Read Version D","Relational, read only version D",HATE,NAME,Study2,U,167,107,Study,User,-,,Study/JOL,"Study Phase",4470,,,-1,-1,,,,1
w977185_TB,x2t665j4yl,Relational_NO_JOL,1,29,2020-05-07T00:55:55-07:00,5.1676580905914,4,versionC_stim.csv,READVersionD.csv,"Read Version D","Relational, read only version D",BREAKABLE,GLASS,Study2,F,127,118,Study,User,-,,Study/JOL,"Study Phase",4858,,,-1,-1,,,,1
w977185_TB,x2t665j4yl,Relational_NO_JOL,1,30,2020-05-07T00:56:00-07:00,5.4982960224152,4,versionC_stim.csv,READVersionD.csv,"Read Version D","Relational, read only version D",PENGUIN,BIRD,Study2,F,119,133,Study,User,-,,Study/JOL,"Study Phase",5240,,,-1,-1,,,,1
w977185_TB,x2t665j4yl,Relational_NO_JOL,1,31,2020-05-07T00:56:04-07:00,3.8695349693298,4,versionC_stim.csv,READVersionD.csv,"Read Version D","Relational, read only version D",CLEAR,MOAT,Study2,U,169,106,Study,User,-,,Study/JOL,"Study Phase",3618,,,-1,-1,,,,1
w977185_TB,x2t665j4yl,Relational_NO_JOL,1,32,2020-05-07T00:56:10-07:00,6.0568649768829,4,versionC_stim.csv,READVersionD.csv,"Read Version D","Relational, read only version D",BRACELET,WRIST,Study2,S,140,111,Study,User,-,,Study/JOL,"Study Phase",5809,,,-1,-1,,,,1
w977185_TB,x2t665j4yl,Relational_NO_JOL,1,33,2020-05-07T00:56:15-07:00,4.7572150230408,4,versionC_stim.csv,READVersionD.csv,"Read Version D","Relational, read only version D",COMMUNICATION,PHONE,Study2,S,149,151,Study,User,-,,Study/JOL,"Study Phase",4510,,,-1,-1,,,,1
w977185_TB,x2t665j4yl,Relational_NO_JOL,1,34,2020-05-07T00:56:21-07:00,5.7509889602661,4,versionC_stim.csv,READVersionD.csv,"Read Version D","Relational, read only version D",DOG,FURRY,Study2,B,102,141,Study,User,-,,Study/JOL,"Study Phase",5491,,,-1,-1,,,,1
w977185_TB,x2t665j4yl,Relational_NO_JOL,1,35,2020-05-07T00:56:25-07:00,4.5661580562592,4,versionC_stim.csv,READVersionD.csv,"Read Version D","Relational, read only version D",EQUAL,RIGHTS,Study2,S,137,166,Study,User,-,,Study/JOL,"Study Phase",4305,,,-1,-1,,,,1
w977185_TB,x2t665j4yl,Relational_NO_JOL,1,36,2020-05-07T00:56:30-07:00,4.5046520233154,4,versionC_stim.csv,READVersionD.csv,"Read Version D","Relational, read only version D",SCISSORS,SHEARS,Study2,B,112,125,Study,User,-,,Study/JOL,"Study Phase",4223,,,-1,-1,,,,1
w977185_TB,x2t665j4yl,Relational_NO_JOL,1,37,2020-05-07T00:56:34-07:00,4.7616248130798,4,versionC_stim.csv,READVersionD.csv,"Read Version D","Relational, read only version D",BALLOON,POP,Study2,F,123,156,Study,User,-,,Study/JOL,"Study Phase",4488,,,-1,-1,,,,1
w977185_TB,x2t665j4yl,Relational_NO_JOL,1,38,2020-05-07T00:56:37-07:00,2.9153990745544,4,versionC_stim.csv,READVersionD.csv,"Read Version D","Relational, read only version D",HEAD,SCALP,Study2,B,105,153,Study,User,-,,Study/JOL,"Study Phase",2668,,,-1,-1,,,,1
w977185_TB,x2t665j4yl,Relational_NO_JOL,1,39,2020-05-07T00:56:40-07:00,2.771800994873,4,versionC_stim.csv,READVersionD.csv,"Read Version D","Relational, read only version D",FAVORITE,BEST,Study2,F,125,164,Study,User,-,,Study/JOL,"Study Phase",2516,,,-1,-1,,,,1
w977185_TB,x2t665j4yl,Relational_NO_JOL,1,40,2020-05-07T00:56:43-07:00,3.1725590229034,4,versionC_stim.csv,READVersionD.csv,"Read Version D","Relational, read only version D",BRAWL,FIGHT,Study2,F,135,162,Study,User,-,,Study/JOL,"Study Phase",2901,,,-1,-1,,,,1
w977185_TB,x2t665j4yl,Relational_NO_JOL,1,41,2020-05-07T00:56:46-07:00,2.7773990631104,4,versionC_stim.csv,READVersionD.csv,"Read Version D","Relational, read only version D",STEAK,GIVE,Study2,U,158,143,Study,User,-,,Study/JOL,"Study Phase",2509,,,-1,-1,,,,1
w977185_TB,x2t665j4yl,Relational_NO_JOL,1,42,2020-05-07T00:56:48-07:00,2.3508169651031,4,versionC_stim.csv,READVersionD.csv,"Read Version D","Relational, read only version D",SMELL,INCENSE,Study2,B,110,146,Study,User,-,,Study/JOL,"Study Phase",2093,,,-1,-1,,,,1
w977185_TB,x2t665j4yl,Relational_NO_JOL,1,43,2020-05-07T00:56:50-07:00,1.7938630580902,4,versionC_stim.csv,READVersionD.csv,"Read Version D","Relational, read only version D",WINDSHIELD,CAR,Study2,F,117,169,Study,User,-,,Study/JOL,"Study Phase",1597,,,-1,-1,,,,1
w977185_TB,x2t665j4yl,Relational_NO_JOL,1,44,2020-05-07T00:56:56-07:00,5.5729229450226,4,versionC_stim.csv,READVersionD.csv,"Read Version D","Relational, read only version D",,,,,,0,Instruct,-,3,"Remember to focus on how the two items are similiar while you study!",,CHECK2,4335,,,-1,-1,,,,1
w977185_TB,x2t665j4yl,Relational_NO_JOL,1,45,2020-05-07T00:57:00-07:00,4.0147309303284,4,versionC_stim.csv,READVersionD.csv,"Read Version D","Relational, read only version D",RED,CHERRY,Study2,B,104,136,Study,User,-,,Study/JOL,"Study Phase",3700,,,-1,-1,,,,1
w977185_TB,x2t665j4yl,Relational_NO_JOL,1,46,2020-05-07T00:57:03-07:00,2.8476750850677,4,versionC_stim.csv,READVersionD.csv,"Read Version D","Relational, read only version D",OUNCE,BOTH,Study2,U,172,105,Study,User,-,,Study/JOL,"Study Phase",2598,,,-1,-1,,,,1
w977185_TB,x2t665j4yl,Relational_NO_JOL,1,47,2020-05-07T00:57:05-07:00,2.655928850174,4,versionC_stim.csv,READVersionD.csv,"Read Version D","Relational, read only version D",SHAVE,RAZOR,Study2,S,136,174,Study,User,-,,Study/JOL,"Study Phase",2399,,,-1,-1,,,,1
w977185_TB,x2t665j4yl,Relational_NO_JOL,1,48,2020-05-07T00:57:07-07:00,1.9898090362549,4,versionC_stim.csv,READVersionD.csv,"Read Version D","Relational, read only version D",SEATBELT,SAFETY,Study2,S,147,98,Study,User,-,,Study/JOL,"Study Phase",1774,,,-1,-1,,,,1
w977185_TB,x2t665j4yl,Relational_NO_JOL,1,49,2020-05-07T00:57:13-07:00,5.4561409950256,4,versionC_stim.csv,READVersionD.csv,"Read Version D","Relational, read only version D",REVENGE,EVEN,Study2,F,122,113,Study,User,-,,Study/JOL,"Study Phase",4191,,,-1,-1,,,,1
w977185_TB,x2t665j4yl,Relational_NO_JOL,1,50,2020-05-07T00:57:18-07:00,5.333484172821,4,versionC_stim.csv,READVersionD.csv,"Read Version D","Relational, read only version D",WET,DRY,Study2,S,146,112,Study,User,-,,Study/JOL,"Study Phase",1048,,,-1,-1,,,,0.833
w977185_TB,x2t665j4yl,Relational_NO_JOL,1,51,2020-05-07T00:57:20-07:00,1.9161078929901,4,versionC_stim.csv,READVersionD.csv,"Read Version D","Relational, read only version D",NOISE,LOUD,Study2,S,152,152,Study,User,-,,Study/JOL,"Study Phase",1717,,,-1,-1,,,,1
w977185_TB,x2t665j4yl,Relational_NO_JOL,1,52,2020-05-07T00:57:25-07:00,5.3252339363098,4,versionC_stim.csv,READVersionD.csv,"Read Version D","Relational, read only version D",LIE,TRUTH,Study2,S,148,128,Study,User,-,,Study/JOL,"Study Phase",1231,,,-1,-1,,,,0.857
w977185_TB,x2t665j4yl,Relational_NO_JOL,1,53,2020-05-07T00:57:27-07:00,1.5906710624695,4,versionC_stim.csv,READVersionD.csv,"Read Version D","Relational, read only version D",PLANT,CACTUS,Study2,B,98,154,Study,User,-,,Study/JOL,"Study Phase",1373,,,-1,-1,,,,1
w977185_TB,x2t665j4yl,Relational_NO_JOL,1,54,2020-05-07T00:57:30-07:00,3.4968180656433,4,versionC_stim.csv,READVersionD.csv,"Read Version D","Relational, read only version D",CARBON,ELEMENT,Study2,S,141,121,Study,User,-,,Study/JOL,"Study Phase",3238,,,-1,-1,,,,1
w977185_TB,x2t665j4yl,Relational_NO_JOL,1,55,2020-05-07T00:57:34-07:00,3.5058908462524,4,versionC_stim.csv,READVersionD.csv,"Read Version D","Relational, read only version D",FIGHT,FEUD,Study2,B,113,131,Study,User,-,,Study/JOL,"Study Phase",3119,,,-1,-1,,,,1
w977185_TB,x2t665j4yl,Relational_NO_JOL,1,56,2020-05-07T00:57:37-07:00,2.9171001911163,4,versionC_stim.csv,READVersionD.csv,"Read Version D","Relational, read only version D",TEMPER,TANTRUM,Study2,S,154,160,Study,User,-,,Study/JOL,"Study Phase",2642,,,-1,-1,,,,1
w977185_TB,x2t665j4yl,Relational_NO_JOL,1,57,2020-05-07T00:57:40-07:00,3.1815559864044,4,versionC_stim.csv,READVersionD.csv,"Read Version D","Relational, read only version D",NAP,SLEEP,Study2,F,134,161,Study,User,-,,Study/JOL,"Study Phase",2913,,,-1,-1,,,,1
w977185_TB,x2t665j4yl,Relational_NO_JOL,1,58,2020-05-07T00:57:43-07:00,2.5155189037323,4,versionC_stim.csv,READVersionD.csv,"Read Version D","Relational, read only version D",BANKER,MONEY,Study2,F,132,114,Study,User,-,,Study/JOL,"Study Phase",2248,,,-1,-1,,,,1
w977185_TB,x2t665j4yl,Relational_NO_JOL,1,59,2020-05-07T00:57:46-07:00,3.1039659976959,4,versionC_stim.csv,READVersionD.csv,"Read Version D","Relational, read only version D",CUT,CHOP,Study2,B,107,119,Study,User,-,,Study/JOL,"Study Phase",2847,,,-1,-1,,,,1
w977185_TB,x2t665j4yl,Relational_NO_JOL,1,60,2020-05-07T00:57:49-07:00,3.5542390346527,4,versionC_stim.csv,READVersionD.csv,"Read Version D","Relational, read only version D",CHARM,VEHICLE,Study2,U,160,103,Study,User,-,,Study/JOL,"Study Phase",3296,,,-1,-1,,,,1
w977185_TB,x2t665j4yl,Relational_NO_JOL,1,61,2020-05-07T00:57:52-07:00,2.8243179321289,4,versionC_stim.csv,READVersionD.csv,"Read Version D","Relational, read only version D",HAVE,OWN,Study2,S,153,142,Study,User,-,,Study/JOL,"Study Phase",2574,,,-1,-1,,,,1
w977185_TB,x2t665j4yl,Relational_NO_JOL,1,62,2020-05-07T00:57:56-07:00,3.7437410354614,4,versionC_stim.csv,READVersionD.csv,"Read Version D","Relational, read only version D",Morning,TEMPERATURE,Study2,U,173,172,Study,User,-,,Study/JOL,"Study Phase",3492,,,-1,-1,,,,1
w977185_TB,x2t665j4yl,Relational_NO_JOL,1,63,2020-05-07T00:57:58-07:00,1.7561130523682,4,versionC_stim.csv,READVersionD.csv,"Read Version D","Relational, read only version D",COLD,CHILL,Study2,B,114,138,Study,User,-,,Study/JOL,"Study Phase",1544,,,-1,-1,,,,1
w977185_TB,x2t665j4yl,Relational_NO_JOL,1,64,2020-05-07T00:58:01-07:00,3.8024599552155,4,versionC_stim.csv,READVersionD.csv,"Read Version D","Relational, read only version D",FICTION,LISTEN,Study2,U,164,147,Study,User,-,,Study/JOL,"Study Phase",3551,,,-1,-1,,,,1
w977185_TB,x2t665j4yl,Relational_NO_JOL,1,65,2020-05-07T00:58:04-07:00,2.3707330226898,4,versionC_stim.csv,READVersionD.csv,"Read Version D","Relational, read only version D",LONELY,ALONE,Study2,S,145,101,Study,User,-,,Study/JOL,"Study Phase",2113,,,-1,-1,,,,1
w977185_TB,x2t665j4yl,Relational_NO_JOL,1,66,2020-05-07T00:58:09-07:00,5.6571140289307,4,versionC_stim.csv,READVersionD.csv,"Read Version D","Relational, read only version D",REEL,ROD,Study2,S,150,127,Study,User,-,,Study/JOL,"Study Phase",1297,,,-1,-1,,,,0.857
w977185_TB,x2t665j4yl,Relational_NO_JOL,1,67,2020-05-07T00:58:12-07:00,2.8418350219727,4,versionC_stim.csv,READVersionD.csv,"Read Version D","Relational, read only version D",GAME,CLUE,Study2,B,97,137,Study,User,-,,Study/JOL,"Study Phase",2553,,,-1,-1,,,,1
w977185_TB,x2t665j4yl,Relational_NO_JOL,1,68,2020-05-07T00:58:15-07:00,2.6288299560547,4,versionC_stim.csv,READVersionD.csv,"Read Version D","Relational, read only version D",TOIL,LEASE,Study2,U,170,149,Study,User,-,,Study/JOL,"Study Phase",2351,,,-1,-1,,,,1
w977185_TB,x2t665j4yl,Relational_NO_JOL,1,69,2020-05-07T00:58:19-07:00,3.9834620952606,4,versionC_stim.csv,READVersionD.csv,"Read Version D","Relational, read only version D",SIGN,LOAN,Study2,U,171,109,Study,User,-,,Study/JOL,"Study Phase",3727,,,-1,-1,,,,1
w977185_TB,x2t665j4yl,Relational_NO_JOL,1,70,2020-05-07T00:58:23-07:00,3.8428688049316,4,versionC_stim.csv,READVersionD.csv,"Read Version D","Relational, read only version D",END,ADJOURN,Study2,B,101,99,Study,User,-,,Study/JOL,"Study Phase",3572,,,-1,-1,,,,1
w977185_TB,x2t665j4yl,Relational_NO_JOL,1,71,2020-05-07T00:58:26-07:00,3.7752571105957,4,versionC_stim.csv,READVersionD.csv,"Read Version D","Relational, read only version D",MYSTERY,DETECTIVE,Study2,B,100,97,Study,User,-,,Study/JOL,"Study Phase",3525,,,-1,-1,,,,1
w977185_TB,x2t665j4yl,Relational_NO_JOL,1,72,2020-05-07T00:58:31-07:00,4.337858915329,4,versionC_stim.csv,READVersionD.csv,"Read Version D","Relational, read only version D",TRUTHFUL,HONEST,Study2,F,133,159,Study,User,-,,Study/JOL,"Study Phase",4085,,,-1,-1,,,,1
w977185_TB,x2t665j4yl,Relational_NO_JOL,1,73,2020-05-07T00:58:35-07:00,3.9332220554352,4,versionC_stim.csv,READVersionD.csv,"Read Version D","Relational, read only version D",CAR,DRIVER,Study2,B,106,170,Study,User,-,,Study/JOL,"Study Phase",3693,,,-1,-1,,,,1
w977185_TB,x2t665j4yl,Relational_NO_JOL,1,74,2020-05-07T00:58:38-07:00,3.1104869842529,4,versionC_stim.csv,READVersionD.csv,"Read Version D","Relational, read only version D",STRAWBERRY,FRUIT,Study2,F,124,157,Study,User,-,,Study/JOL,"Study Phase",2845,,,-1,-1,,,,1
w977185_TB,x2t665j4yl,Relational_NO_JOL,1,75,2020-05-07T00:58:44-07:00,6.0613589286804,4,versionC_stim.csv,READVersionD.csv,"Read Version D","Relational, read only version D",BANG,FUZZY,Study2,U,168,158,Study,User,-,,Study/JOL,"Study Phase",5815,,,-1,-1,,,,1
w977185_TB,x2t665j4yl,Relational_NO_JOL,1,76,2020-05-07T00:58:48-07:00,3.9836251735687,4,versionC_stim.csv,READVersionD.csv,"Read Version D","Relational, read only version D",THIMBLE,THREAD,Study2,F,121,124,Study,User,-,,Study/JOL,"Study Phase",3738,,,-1,-1,,,,1
w977185_TB,x2t665j4yl,Relational_NO_JOL,1,77,2020-05-07T00:58:49-07:00,1.5886509418488,4,versionC_stim.csv,READVersionD.csv,"Read Version D","Relational, read only version D",WAX,CANDLE,Study2,S,139,150,Study,User,-,,Study/JOL,"Study Phase",1369,,,-1,-1,,,,1
w977185_TB,x2t665j4yl,Relational_NO_JOL,1,78,2020-05-07T00:58:57-07:00,7.5508320331573,4,versionC_stim.csv,READVersionD.csv,"Read Version D","Relational, read only version D",ELECTION,MAZE,Study2,U,159,102,Study,User,-,,Study/JOL,"Study Phase",7290,,,-1,-1,,,,1
w977185_TB,x2t665j4yl,Relational_NO_JOL,1,79,2020-05-07T00:59:01-07:00,3.7090208530426,4,versionC_stim.csv,READVersionD.csv,"Read Version D","Relational, read only version D",SCAR,MAIN,Study2,U,175,116,Study,User,-,,Study/JOL,"Study Phase",3462,,,-1,-1,,,,1
w977185_TB,x2t665j4yl,Relational_NO_JOL,1,80,2020-05-07T00:59:05-07:00,3.9084391593933,4,versionC_stim.csv,READVersionD.csv,"Read Version D","Relational, read only version D",SHAKE,Shell,Study2,U,163,144,Study,User,-,,Study/JOL,"Study Phase",3651,,,-1,-1,,,,1
w977185_TB,x2t665j4yl,Relational_NO_JOL,1,81,2020-05-07T00:59:08-07:00,3.1801710128784,4,versionC_stim.csv,READVersionD.csv,"Read Version D","Relational, read only version D",OBTAIN,MEAT,Study2,U,161,126,Study,User,-,,Study/JOL,"Study Phase",2779,,,-1,-1,,,,1
w977185_TB,x2t665j4yl,Relational_NO_JOL,1,82,2020-05-07T00:59:13-07:00,4.709921836853,4,versionC_stim.csv,READVersionD.csv,"Read Version D","Relational, read only version D",MAROON,JUSTICE,Study2,U,156,110,Study,User,-,,Study/JOL,"Study Phase",4457,,,-1,-1,,,,1
w977185_TB,x2t665j4yl,Relational_NO_JOL,1,83,2020-05-07T00:59:15-07:00,2.485148191452,4,versionC_stim.csv,READVersionD.csv,"Read Version D","Relational, read only version D",DONKEY,MULE,Study2,B,108,168,Study,User,-,,Study/JOL,"Study Phase",2165,,,-1,-1,,,,1
w977185_TB,x2t665j4yl,Relational_NO_JOL,1,84,2020-05-07T00:59:17-07:00,2.0608098506927,4,versionC_stim.csv,READVersionD.csv,"Read Version D","Relational, read only version D",TIE,SHOELACE,Study2,B,99,171,Study,User,-,,Study/JOL,"Study Phase",1847,,,-1,-1,,,,1
w977185_TB,x2t665j4yl,Relational_NO_JOL,1,85,2020-05-07T00:59:19-07:00,1.9072489738464,4,versionC_stim.csv,READVersionD.csv,"Read Version D","Relational, read only version D",CLOTHES,CAKE,Study2,U,166,167,Study,User,-,,Study/JOL,"Study Phase",1672,,,-1,-1,,,,1
w977185_TB,x2t665j4yl,Relational_NO_JOL,1,86,2020-05-07T00:59:22-07:00,3.5072720050812,4,versionC_stim.csv,READVersionD.csv,"Read Version D","Relational, read only version D",ABLE,CRACKLE,Study2,U,162,129,Study,User,-,,Study/JOL,"Study Phase",3194,,,-1,-1,,,,1
w977185_TB,x2t665j4yl,Relational_NO_JOL,1,87,2020-05-07T00:59:27-07:00,4.9115641117096,4,versionC_stim.csv,READVersionD.csv,"Read Version D","Relational, read only version D",AWAY,GONE,Study2,S,142,140,Study,User,-,,Study/JOL,"Study Phase",4647,,,-1,-1,,,,1
w977185_TB,x2t665j4yl,Relational_NO_JOL,1,88,2020-05-07T00:59:31-07:00,3.2077040672302,4,versionC_stim.csv,READVersionD.csv,"Read Version D","Relational, read only version D",LONG,EXTENSION,Study2,B,96,135,Study,User,-,,Study/JOL,"Study Phase",2965,,,-1,-1,,,,1
w977185_TB,x2t665j4yl,Relational_NO_JOL,1,89,2020-05-07T00:59:34-07:00,2.9936349391937,4,versionC_stim.csv,READVersionD.csv,"Read Version D","Relational, read only version D",SARDINE,FISH,Study2,F,130,134,Study,User,-,,Study/JOL,"Study Phase",2735,,,-1,-1,,,,1
w977185_TB,x2t665j4yl,Relational_NO_JOL,1,90,2020-05-07T00:59:35-07:00,1.7149119377136,4,versionC_stim.csv,READVersionD.csv,"Read Version D","Relational, read only version D",TAN,SUN,Study2,S,155,163,Study,User,-,,Study/JOL,"Study Phase",1494,,,-1,-1,,,,1
w977185_TB,x2t665j4yl,Relational_NO_JOL,1,91,2020-05-07T00:59:38-07:00,2.3209710121155,4,versionC_stim.csv,READVersionD.csv,"Read Version D","Relational, read only version D",SPOOKY,OCTOBER,BUFFER4,Buffer,180,177,Study,User,-,,Study/JOL,BUFFER2,2065,,,-1,-1,,,,1
w977185_TB,x2t665j4yl,Relational_NO_JOL,1,92,2020-05-07T00:59:44-07:00,6.5328190326691,4,versionC_stim.csv,READVersionD.csv,"Read Version D","Relational, read only version D",WEAKS,DAYS,BUFFER4,Buffer,176,179,Study,User,-,,Study/JOL,BUFFER2,6267,,,-1,-1,,,,1
w977185_TB,x2t665j4yl,Relational_NO_JOL,1,93,2020-05-07T00:59:47-07:00,3.0524339675903,4,versionC_stim.csv,READVersionD.csv,"Read Version D","Relational, read only version D",YEAR,MONTH,BUFFER4,Buffer,177,180,Study,User,-,,Study/JOL,BUFFER2,2810,,,-1,-1,,,,1
w977185_TB,x2t665j4yl,Relational_NO_JOL,1,94,2020-05-07T00:59:50-07:00,3.0284080505371,4,versionC_stim.csv,READVersionD.csv,"Read Version D","Relational, read only version D",SHED,TOOL,BUFFER4,Buffer,178,178,Study,User,-,,Study/JOL,BUFFER2,2787,,,-1,-1,,,,1
w977185_TB,x2t665j4yl,Relational_NO_JOL,1,95,2020-05-07T00:59:54-07:00,3.517865896225,4,versionC_stim.csv,READVersionD.csv,"Read Version D","Relational, read only version D",MARCH,SPRING,BUFFER4,Buffer,179,181,Study,User,-,,Study/JOL,BUFFER2,3276,,,-1,-1,,,,1
w977185_TB,x2t665j4yl,Relational_NO_JOL,1,96,2020-05-07T00:59:57-07:00,3.6710231304169,4,versionC_stim.csv,READVersionD.csv,"Read Version D","Relational, read only version D",,,,,,0,Instruct,User,-,"You have completed this section. Please press Enter.",Filler_Instruction,Instruct2,3422,,,-1,-1,,,,1
w977185_TB,x2t665j4yl,Relational_NO_JOL,1,97,2020-05-07T01:00:00-07:00,2.316957950592,4,versionC_stim.csv,READVersionD.csv,"Read Version D","Relational, read only version D",,,,,,0,Instruct,User,-,"You have completed this section. Please press Enter.",Filler_Instruction,Instruct5,2066,,,-1,-1,,,,1
w977185_TB,x2t665j4yl,Relational_NO_JOL,1,98,2020-05-07T01:00:22-07:00,21.837679862976,4,versionC_stim.csv,READVersionD.csv,"Read Version D","Relational, read only version D",,,,,,0,FreeRecall,-,10,"What were you supposed to focus on while you studied each pair? (Hint: Think back to the instructions). Type your answer in the space below.",,CHECK3,21577,"The pairs that went together. ",0,11188,20518,0,0,,1
w977185_TB,x2t665j4yl,Relational_NO_JOL,1,99,2020-05-07T01:02:22-07:00,120.26908016205,4,versionC_stim.csv,READVersionD.csv,"Read Version D","Relational, read only version D",,,,,,0,FreeRecall,120,120,"Please list the 50 US states in alphabetical order. The task will automatically advance to the next screen after two minutes.",,Filler1,120002,"Alabama alaska Arizona California Colorado Connecticut Delaware Flordia Georgia Hawaii Idaho Illinois Indiana Iowa Kansas Kentucky Louisiana Maine Maryland Massachu",0,31435,118757,0,0,,1
w977185_TB,x2t665j4yl,Relational_NO_JOL,1,100,2020-05-07T01:02:33-07:00,11.394748926163,4,versionC_stim.csv,READVersionD.csv,"Read Version D","Relational, read only version D",,,,,,0,Instruct,-,10,"You will now be presented with the first word from each of the previously studied item pairs. Please type the missing word. If you do not know the word, you may guess or press Enter to skip forward to the next pair.",,Instruct3,11124,,,-1,-1,,,,1
w977185_TB,x2t665j4yl,Relational_NO_JOL,1,101,2020-05-07T01:02:47-07:00,13.949305057526,4,versionC_stim.csv,READVersionD.csv,"Read Version D","Relational, read only version D",ABLE,CRACKLE,Study2,U,162,129,Test,User,-,,Recall,Recall1,13676,Can,40,12123,12527,0,0,,1
w977185_TB,x2t665j4yl,Relational_NO_JOL,1,102,2020-05-07T01:02:53-07:00,5.4656510353088,4,versionC_stim.csv,READVersionD.csv,"Read Version D","Relational, read only version D",CLOTHES,CAKE,Study2,U,166,167,Test,User,-,,Recall,Recall1,5190,Shoes,22.222222222222,3402,4335,0,0,,1
w977185_TB,x2t665j4yl,Relational_NO_JOL,1,103,2020-05-07T01:03:06-07:00,13.241027832031,4,versionC_stim.csv,READVersionD.csv,"Read Version D","Relational, read only version D",MYSTERY,DETECTIVE,Study2,B,100,97,Test,User,-,,Recall,Recall1,12953,"suspense ",23.529411764706,8714,11645,0,0,,1
w977185_TB,x2t665j4yl,Relational_NO_JOL,1,104,2020-05-07T01:03:10-07:00,4.3381221294403,4,versionC_stim.csv,READVersionD.csv,"Read Version D","Relational, read only version D",STRAWBERRY,FRUIT,Study2,F,124,157,Test,User,-,,Recall,Recall1,4098,fruit,100,1542,2596,1,1,,1
w977185_TB,x2t665j4yl,Relational_NO_JOL,1,105,2020-05-07T01:03:15-07:00,4.6178679466248,4,versionC_stim.csv,READVersionD.csv,"Read Version D","Relational, read only version D",WAX,CANDLE,Study2,S,139,150,Test,User,-,,Recall,Recall1,4350,candle,100,2420,3354,1,1,,1
w977185_TB,x2t665j4yl,Relational_NO_JOL,1,106,2020-05-07T01:03:18-07:00,3.2250669002533,4,versionC_stim.csv,READVersionD.csv,"Read Version D","Relational, read only version D",BRAWL,FIGHT,Study2,F,135,162,Test,User,-,,Recall,Recall1,2983,fight,100,1355,1918,1,1,,1
w977185_TB,x2t665j4yl,Relational_NO_JOL,1,107,2020-05-07T01:03:30-07:00,11.756640195847,4,versionC_stim.csv,READVersionD.csv,"Read Version D","Relational, read only version D",Morning,TEMPERATURE,Study2,U,173,172,Test,User,-,,Recall,Recall1,11500,temperature,100,3628,10224,1,1,,1
w977185_TB,x2t665j4yl,Relational_NO_JOL,1,108,2020-05-07T01:03:52-07:00,22.061362028122,4,versionC_stim.csv,READVersionD.csv,"Read Version D","Relational, read only version D",FICTION,LISTEN,Study2,U,164,147,Test,User,-,,Recall,Recall1,21782,novels,16.666666666667,19394,20837,0,0,,1
w977185_TB,x2t665j4yl,Relational_NO_JOL,1,109,2020-05-07T01:04:17-07:00,24.662613868713,4,versionC_stim.csv,READVersionD.csv,"Read Version D","Relational, read only version D",REEL,ROD,Study2,S,150,127,Test,User,-,,Recall,Recall1,24380,Stagger,20,20613,23519,0,0,,1
w977185_TB,x2t665j4yl,Relational_NO_JOL,1,110,2020-05-07T01:04:28-07:00,11.105309009552,4,versionC_stim.csv,READVersionD.csv,"Read Version D","Relational, read only version D",TOIL,LEASE,Study2,U,170,149,Test,User,-,,Recall,Recall1,10858,labor,40,9815,10724,0,0,,1
w977185_TB,x2t665j4yl,Relational_NO_JOL,1,111,2020-05-07T01:04:31-07:00,2.8727960586548,4,versionC_stim.csv,READVersionD.csv,"Read Version D","Relational, read only version D",HATE,NAME,Study2,U,167,107,Test,User,-,,Recall,Recall1,2615,Love,25,1770,2388,0,0,,1
w977185_TB,x2t665j4yl,Relational_NO_JOL,1,112,2020-05-07T01:04:34-07:00,3.1272790431976,4,versionC_stim.csv,READVersionD.csv,"Read Version D","Relational, read only version D",NOISE,LOUD,Study2,S,152,152,Test,User,-,,Recall,Recall1,2874,Loud,100,1796,2535,1,1,,1
w977185_TB,x2t665j4yl,Relational_NO_JOL,1,113,2020-05-07T01:04:40-07:00,6.1177339553833,4,versionC_stim.csv,READVersionD.csv,"Read Version D","Relational, read only version D",VILLAIN,BAD,Study2,F,118,148,Test,User,-,,Recall,Recall1,5870,"Enemy ",0,1928,4383,0,0,,1
w977185_TB,x2t665j4yl,Relational_NO_JOL,1,114,2020-05-07T01:04:44-07:00,4.1132080554962,4,versionC_stim.csv,READVersionD.csv,"Read Version D","Relational, read only version D",CAR,DRIVER,Study2,B,106,170,Test,User,-,,Recall,Recall1,3874,Drive,90.909090909091,2982,3676,0,1,,1
w977185_TB,x2t665j4yl,Relational_NO_JOL,1,115,2020-05-07T01:04:54-07:00,9.6488039493561,4,versionC_stim.csv,READVersionD.csv,"Read Version D","Relational, read only version D",STEAK,GIVE,Study2,U,158,143,Test,User,-,,Recall,Recall1,9393,Eat,28.571428571429,8620,9191,0,0,,1
w977185_TB,x2t665j4yl,Relational_NO_JOL,1,116,2020-05-07T01:04:57-07:00,3.2719130516052,4,versionC_stim.csv,READVersionD.csv,"Read Version D","Relational, read only version D",BALLOON,POP,Study2,F,123,156,Test,User,-,,Recall,Recall1,3025,Pop,100,1964,2600,1,1,,1
w977185_TB,x2t665j4yl,Relational_NO_JOL,1,117,2020-05-07T01:05:02-07:00,5.5181069374084,4,versionC_stim.csv,READVersionD.csv,"Read Version D","Relational, read only version D",DRINK,WATER,Study2,S,143,115,Test,User,-,,Recall,Recall1,5271,Soda,22.222222222222,4077,5043,0,0,,1
w977185_TB,x2t665j4yl,Relational_NO_JOL,1,118,2020-05-07T01:05:13-07:00,10.614091873169,4,versionC_stim.csv,READVersionD.csv,"Read Version D","Relational, read only version D",SHAVE,RAZOR,Study2,S,136,174,Test,User,-,,Recall,Recall1,10375,Clean,20,7991,10174,0,0,,1
w977185_TB,x2t665j4yl,Relational_NO_JOL,1,119,2020-05-07T01:05:19-07:00,5.6951150894165,4,versionC_stim.csv,READVersionD.csv,"Read Version D","Relational, read only version D",CLOTH,STRETCH,Study2,U,157,165,Test,User,-,,Recall,Recall1,5455,Shoes,33.333333333333,4568,5262,0,0,,1
w977185_TB,x2t665j4yl,Relational_NO_JOL,1,120,2020-05-07T01:05:26-07:00,7.4243350028992,4,versionC_stim.csv,READVersionD.csv,"Read Version D","Relational, read only version D",BREAKABLE,GLASS,Study2,F,127,118,Test,User,-,,Recall,Recall1,7162,fragle,36.363636363636,5658,6890,0,0,,1
w977185_TB,x2t665j4yl,Relational_NO_JOL,1,121,2020-05-07T01:05:35-07:00,8.663458108902,4,versionC_stim.csv,READVersionD.csv,"Read Version D","Relational, read only version D",LOVE,AFFECTION,Study2,B,115,176,Test,User,-,,Recall,Recall1,3989,Hate,30.769230769231,1489,3794,0,0,,0.95
w977185_TB,x2t665j4yl,Relational_NO_JOL,1,122,2020-05-07T01:05:39-07:00,3.8564667701721,4,versionC_stim.csv,READVersionD.csv,"Read Version D","Relational, read only version D",PENGUIN,BIRD,Study2,F,119,133,Test,User,-,,Recall,Recall1,3585,Bird,100,1727,3441,1,1,,1
w977185_TB,x2t665j4yl,Relational_NO_JOL,1,123,2020-05-07T01:05:43-07:00,3.9210450649261,4,versionC_stim.csv,READVersionD.csv,"Read Version D","Relational, read only version D",MAROON,JUSTICE,Study2,U,156,110,Test,User,-,,Recall,Recall1,3624,Color,16.666666666667,1941,3413,0,0,,1
w977185_TB,x2t665j4yl,Relational_NO_JOL,1,124,2020-05-07T01:05:46-07:00,3.9605569839478,4,versionC_stim.csv,READVersionD.csv,"Read Version D","Relational, read only version D",SEATBELT,SAFETY,Study2,S,147,98,Test,User,-,,Recall,Recall1,3707,Safety,100,1756,3169,1,1,,1
w977185_TB,x2t665j4yl,Relational_NO_JOL,1,125,2020-05-07T01:05:55-07:00,8.5273070335388,4,versionC_stim.csv,READVersionD.csv,"Read Version D","Relational, read only version D",CLEAR,MOAT,Study2,U,169,106,Test,User,-,,Recall,Recall1,8275,coloe,22.222222222222,7249,7937,0,0,,1
w977185_TB,x2t665j4yl,Relational_NO_JOL,1,126,2020-05-07T01:06:04-07:00,9.1441190242767,4,versionC_stim.csv,READVersionD.csv,"Read Version D","Relational, read only version D",THIMBLE,THREAD,Study2,F,121,124,Test,User,-,,Recall,Recall1,8900,stuble,33.333333333333,4249,5613,0,0,,1
w977185_TB,x2t665j4yl,Relational_NO_JOL,1,127,2020-05-07T01:06:09-07:00,5.1836309432983,4,versionC_stim.csv,READVersionD.csv,"Read Version D","Relational, read only version D",HEAD,SCALP,Study2,B,105,153,Test,User,-,,Recall,Recall1,4929,body,0,2820,4622,0,0,,1
w977185_TB,x2t665j4yl,Relational_NO_JOL,1,128,2020-05-07T01:06:14-07:00,4.3941020965576,4,versionC_stim.csv,READVersionD.csv,"Read Version D","Relational, read only version D",SHAKE,Shell,Study2,U,163,144,Test,User,-,,Recall,Recall1,4149,cold,22.222222222222,3119,3548,0,0,,1
w977185_TB,x2t665j4yl,Relational_NO_JOL,1,129,2020-05-07T01:06:17-07:00,3.2307529449463,4,versionC_stim.csv,READVersionD.csv,"Read Version D","Relational, read only version D",DOG,FURRY,Study2,B,102,141,Test,User,-,,Recall,Recall1,2979,pet,0,2336,2817,0,0,,1
w977185_TB,x2t665j4yl,Relational_NO_JOL,1,130,2020-05-07T01:06:24-07:00,7.2760829925537,4,versionC_stim.csv,READVersionD.csv,"Read Version D","Relational, read only version D",CARBON,ELEMENT,Study2,S,141,121,Test,User,-,,Recall,Recall1,7021,element,100,1956,6865,1,1,,1
w977185_TB,x2t665j4yl,Relational_NO_JOL,1,131,2020-05-07T01:06:27-07:00,2.9589741230011,4,versionC_stim.csv,READVersionD.csv,"Read Version D","Relational, read only version D",LIE,TRUTH,Study2,S,148,128,Test,User,-,,Recall,Recall1,2722,truth,100,1674,2329,1,1,,1
w977185_TB,x2t665j4yl,Relational_NO_JOL,1,132,2020-05-07T01:06:32-07:00,5.1695218086243,4,versionC_stim.csv,READVersionD.csv,"Read Version D","Relational, read only version D",BANKER,MONEY,Study2,F,132,114,Test,User,-,,Recall,Recall1,4929,money,100,3497,4693,1,1,,1
w977185_TB,x2t665j4yl,Relational_NO_JOL,1,133,2020-05-07T01:06:41-07:00,8.3039820194244,4,versionC_stim.csv,READVersionD.csv,"Read Version D","Relational, read only version D",SCISSORS,SHEARS,Study2,B,112,125,Test,User,-,,Recall,Recall1,8066,idk,0,4518,7773,0,0,,1
w977185_TB,x2t665j4yl,Relational_NO_JOL,1,134,2020-05-07T01:06:45-07:00,4.4215490818024,4,versionC_stim.csv,READVersionD.csv,"Read Version D","Relational, read only version D",FAVORITE,BEST,Study2,F,125,164,Test,User,-,,Recall,Recall1,4180,idk,0,3545,3864,0,0,,1
w977185_TB,x2t665j4yl,Relational_NO_JOL,1,135,2020-05-07T01:06:51-07:00,5.7257580757141,4,versionC_stim.csv,READVersionD.csv,"Read Version D","Relational, read only version D",CHILDREN,MIRROR,Study2,U,174,104,Test,User,-,,Recall,Recall1,5479,parents,15.384615384615,3993,5264,0,0,,1
w977185_TB,x2t665j4yl,Relational_NO_JOL,1,136,2020-05-07T01:06:58-07:00,6.9617400169373,4,versionC_stim.csv,READVersionD.csv,"Read Version D","Relational, read only version D",FIGHT,FEUD,Study2,B,113,131,Test,User,-,,Recall,Recall1,6705,"brawl ",0,1677,6492,0,0,,1
w977185_TB,x2t665j4yl,Relational_NO_JOL,1,137,2020-05-07T01:07:03-07:00,4.8034718036652,4,versionC_stim.csv,READVersionD.csv,"Read Version D","Relational, read only version D",COMMUNICATION,PHONE,Study2,S,149,151,Test,User,-,,Recall,Recall1,4538,idk,0,3916,4206,0,0,,1
w977185_TB,x2t665j4yl,Relational_NO_JOL,1,138,2020-05-07T01:07:06-07:00,3.7675561904907,4,versionC_stim.csv,READVersionD.csv,"Read Version D","Relational, read only version D",TICK,FLEA,Study2,S,151,139,Test,User,-,,Recall,Recall1,3510,flea,100,2292,3144,1,1,,1
w977185_TB,x2t665j4yl,Relational_NO_JOL,1,139,2020-05-07T01:07:10-07:00,3.9419279098511,4,versionC_stim.csv,READVersionD.csv,"Read Version D","Relational, read only version D",COLD,CHILL,Study2,B,114,138,Test,User,-,,Recall,Recall1,3692,ice,25,2703,3079,0,0,,1
w977185_TB,x2t665j4yl,Relational_NO_JOL,1,140,2020-05-07T01:07:17-07:00,6.627641916275,4,versionC_stim.csv,READVersionD.csv,"Read Version D","Relational, read only version D",ELECTION,MAZE,Study2,U,159,102,Test,User,-,,Recall,Recall1,6370,politics,0,2465,6083,0,0,,1
w977185_TB,x2t665j4yl,Relational_NO_JOL,1,141,2020-05-07T01:07:23-07:00,5.5941030979156,4,versionC_stim.csv,READVersionD.csv,"Read Version D","Relational, read only version D",AIRCRAFT,PLANE,Study2,F,129,120,Test,User,-,,Recall,Recall1,4325,plane,100,3084,3950,1,1,,1
w977185_TB,x2t665j4yl,Relational_NO_JOL,1,142,2020-05-07T01:07:26-07:00,3.6493320465088,4,versionC_stim.csv,READVersionD.csv,"Read Version D","Relational, read only version D",JAR,MASON,Study2,S,138,123,Test,User,-,,Recall,Recall1,3397,idk,0,2772,3040,0,0,,1
w977185_TB,x2t665j4yl,Relational_NO_JOL,1,143,2020-05-07T01:07:30-07:00,3.6130058765411,4,versionC_stim.csv,READVersionD.csv,"Read Version D","Relational, read only version D",HAVE,OWN,Study2,S,153,142,Test,User,-,,Recall,Recall1,3351,own,100,2860,3115,1,1,,1
w977185_TB,x2t665j4yl,Relational_NO_JOL,1,144,2020-05-07T01:07:36-07:00,6.5445160865784,4,versionC_stim.csv,READVersionD.csv,"Read Version D","Relational, read only version D",EQUAL,RIGHTS,Study2,S,137,166,Test,User,-,,Recall,Recall1,6281,idk,22.222222222222,5697,5957,0,0,,1
w977185_TB,x2t665j4yl,Relational_NO_JOL,1,145,2020-05-07T01:07:39-07:00,2.9312679767609,4,versionC_stim.csv,READVersionD.csv,"Read Version D","Relational, read only version D",SARDINE,FISH,Study2,F,130,134,Test,User,-,,Recall,Recall1,2678,fish,100,1767,2228,1,1,,1
w977185_TB,x2t665j4yl,Relational_NO_JOL,1,146,2020-05-07T01:07:42-07:00,2.9471659660339,4,versionC_stim.csv,READVersionD.csv,"Read Version D","Relational, read only version D",LONG,EXTENSION,Study2,B,96,135,Test,User,-,,Recall,Recall1,2679,short,28.571428571429,1408,2525,0,0,,1
w977185_TB,x2t665j4yl,Relational_NO_JOL,1,147,2020-05-07T01:07:50-07:00,7.503445148468,4,versionC_stim.csv,READVersionD.csv,"Read Version D","Relational, read only version D",TRUTHFUL,HONEST,Study2,F,133,159,Test,User,-,,Recall,Recall1,7231,honesty,92.307692307692,4664,7069,0,1,,1
w977185_TB,x2t665j4yl,Relational_NO_JOL,1,148,2020-05-07T01:07:57-07:00,7.1628649234772,4,versionC_stim.csv,READVersionD.csv,"Read Version D","Relational, read only version D",SMELL,INCENSE,Study2,B,110,146,Test,User,-,,Recall,Recall1,6918,idk,20,6268,6577,0,0,,1
w977185_TB,x2t665j4yl,Relational_NO_JOL,1,149,2020-05-07T01:08:01-07:00,3.707526922226,4,versionC_stim.csv,READVersionD.csv,"Read Version D","Relational, read only version D",WET,DRY,Study2,S,146,112,Test,User,-,,Recall,Recall1,3423,dry,100,1703,3181,1,1,,1
w977185_TB,x2t665j4yl,Relational_NO_JOL,1,150,2020-05-07T01:08:09-07:00,8.1726260185242,4,versionC_stim.csv,READVersionD.csv,"Read Version D","Relational, read only version D",BRACELET,WRIST,Study2,S,140,111,Test,User,-,,Recall,Recall1,7899,wrist,100,6507,7465,1,1,,1
w977185_TB,x2t665j4yl,Relational_NO_JOL,1,151,2020-05-07T01:08:12-07:00,3.4804680347443,4,versionC_stim.csv,READVersionD.csv,"Read Version D","Relational, read only version D",NAP,SLEEP,Study2,F,134,161,Test,User,-,,Recall,Recall1,3221,sleep,100,1669,2948,1,1,,1
w977185_TB,x2t665j4yl,Relational_NO_JOL,1,152,2020-05-07T01:08:15-07:00,3.2512838840485,4,versionC_stim.csv,READVersionD.csv,"Read Version D","Relational, read only version D",SIGN,LOAN,Study2,U,171,109,Test,User,-,,Recall,Recall1,3001,idk,0,2519,2737,0,0,,1
w977185_TB,x2t665j4yl,Relational_NO_JOL,1,153,2020-05-07T01:08:19-07:00,3.7268581390381,4,versionC_stim.csv,READVersionD.csv,"Read Version D","Relational, read only version D",PANTHER,CAT,Study2,F,126,173,Test,User,-,,Recall,Recall1,3473,cat,100,1320,3307,1,1,,1
w977185_TB,x2t665j4yl,Relational_NO_JOL,1,154,2020-05-07T01:08:34-07:00,14.891458034515,4,versionC_stim.csv,READVersionD.csv,"Read Version D","Relational, read only version D",END,ADJOURN,Study2,B,101,99,Test,User,-,,Recall,Recall1,14610,beginng,14.285714285714,1340,14092,0,0,,1
w977185_TB,x2t665j4yl,Relational_NO_JOL,1,155,2020-05-07T01:08:38-07:00,3.4498410224915,4,versionC_stim.csv,READVersionD.csv,"Read Version D","Relational, read only version D",AWAY,GONE,Study2,S,142,140,Test,User,-,,Recall,Recall1,3195,far,0,2122,2820,0,0,,1
w977185_TB,x2t665j4yl,Relational_NO_JOL,1,156,2020-05-07T01:08:41-07:00,3.404510974884,4,versionC_stim.csv,READVersionD.csv,"Read Version D","Relational, read only version D",TIE,SHOELACE,Study2,B,99,171,Test,User,-,,Recall,Recall1,3159,shoe,66.666666666667,1942,2553,0,0,,1
w977185_TB,x2t665j4yl,Relational_NO_JOL,1,157,2020-05-07T01:08:44-07:00,2.6468060016632,4,versionC_stim.csv,READVersionD.csv,"Read Version D","Relational, read only version D",DONKEY,MULE,Study2,B,108,168,Test,User,-,,Recall,Recall1,2389,mule,100,1558,2211,1,1,,1
w977185_TB,x2t665j4yl,Relational_NO_JOL,1,158,2020-05-07T01:08:48-07:00,4.3278608322144,4,versionC_stim.csv,READVersionD.csv,"Read Version D","Relational, read only version D",JOKE,KEYS,Study2,U,165,122,Test,User,-,,Recall,Recall1,4071,funny,22.222222222222,2975,3816,0,0,,1
w977185_TB,x2t665j4yl,Relational_NO_JOL,1,159,2020-05-07T01:08:50-07:00,2.4983580112457,4,versionC_stim.csv,READVersionD.csv,"Read Version D","Relational, read only version D",TEMPER,TANTRUM,Study2,S,154,160,Test,User,-,,Recall,Recall1,2240,bad,20,1552,1961,0,0,,1
w977185_TB,x2t665j4yl,Relational_NO_JOL,1,160,2020-05-07T01:08:56-07:00,5.3440580368042,4,versionC_stim.csv,READVersionD.csv,"Read Version D","Relational, read only version D",CUT,CHOP,Study2,B,107,119,Test,User,-,,Recall,Recall1,5096,scissors,33.333333333333,2794,4872,0,0,,1
w977185_TB,x2t665j4yl,Relational_NO_JOL,1,161,2020-05-07T01:09:03-07:00,7.7189331054688,4,versionC_stim.csv,READVersionD.csv,"Read Version D","Relational, read only version D",FLIP,TURN,Study2,F,116,155,Test,User,-,,Recall,Recall1,7472,turn,100,5319,7254,1,1,,1
w977185_TB,x2t665j4yl,Relational_NO_JOL,1,162,2020-05-07T01:09:06-07:00,2.681144952774,4,versionC_stim.csv,READVersionD.csv,"Read Version D","Relational, read only version D",BANG,FUZZY,Study2,U,168,158,Test,User,-,,Recall,Recall1,2434,pow,0,1541,2200,0,0,,1
w977185_TB,x2t665j4yl,Relational_NO_JOL,1,163,2020-05-07T01:09:10-07:00,3.3895590305328,4,versionC_stim.csv,READVersionD.csv,"Read Version D","Relational, read only version D",EAT,DINE,Study2,B,111,117,Test,User,-,,Recall,Recall1,3136,food,25,2094,2912,0,0,,1
w977185_TB,x2t665j4yl,Relational_NO_JOL,1,164,2020-05-07T01:09:17-07:00,7.097373008728,4,versionC_stim.csv,READVersionD.csv,"Read Version D","Relational, read only version D",WINDSHIELD,CAR,Study2,F,117,169,Test,User,-,,Recall,Recall1,1719,car,100,890,1549,1,1,,0.889
w977185_TB,x2t665j4yl,Relational_NO_JOL,1,165,2020-05-07T01:09:22-07:00,5.5984020233154,4,versionC_stim.csv,READVersionD.csv,"Read Version D","Relational, read only version D",OBTAIN,MEAT,Study2,U,161,126,Test,User,-,,Recall,Recall1,5309,hold,0,4183,5014,0,0,,1
w977185_TB,x2t665j4yl,Relational_NO_JOL,1,166,2020-05-07T01:09:26-07:00,3.441910982132,4,versionC_stim.csv,READVersionD.csv,"Read Version D","Relational, read only version D",TRASH,LITTER,Study2,B,103,130,Test,User,-,,Recall,Recall1,3191,can,0,1229,2484,0,0,,1
w977185_TB,x2t665j4yl,Relational_NO_JOL,1,167,2020-05-07T01:09:30-07:00,4.6200749874115,4,versionC_stim.csv,READVersionD.csv,"Read Version D","Relational, read only version D",SCAR,MAIN,Study2,U,175,116,Test,User,-,,Recall,Recall1,4373,sore,0,3470,4219,0,0,,1
w977185_TB,x2t665j4yl,Relational_NO_JOL,1,168,2020-05-07T01:09:38-07:00,7.6298768520355,4,versionC_stim.csv,READVersionD.csv,"Read Version D","Relational, read only version D",TAN,SUN,Study2,S,155,163,Test,User,-,,Recall,Recall1,7380,sun,100,6289,7042,1,1,,1
w977185_TB,x2t665j4yl,Relational_NO_JOL,1,169,2020-05-07T01:09:44-07:00,6.485199213028,4,versionC_stim.csv,READVersionD.csv,"Read Version D","Relational, read only version D",OUNCE,BOTH,Study2,U,172,105,Test,User,-,,Recall,Recall1,6216,quater,20,3556,5940,0,0,,1
w977185_TB,x2t665j4yl,Relational_NO_JOL,1,170,2020-05-07T01:09:48-07:00,3.227618932724,4,versionC_stim.csv,READVersionD.csv,"Read Version D","Relational, read only version D",ACTRESS,STAR,Study2,F,120,100,Test,User,-,,Recall,Recall1,2979,star,100,2118,2772,1,1,,1
w977185_TB,x2t665j4yl,Relational_NO_JOL,1,171,2020-05-07T01:09:56-07:00,8.3710799217224,4,versionC_stim.csv,READVersionD.csv,"Read Version D","Relational, read only version D",REVENGE,EVEN,Study2,F,122,113,Test,User,-,,Recall,Recall1,7118,"get back ",16.666666666667,2330,6956,0,0,,1
w977185_TB,x2t665j4yl,Relational_NO_JOL,1,172,2020-05-07T01:10:01-07:00,4.9813611507416,4,versionC_stim.csv,READVersionD.csv,"Read Version D","Relational, read only version D",GROUND,EARTH,Study2,S,144,132,Test,User,-,,Recall,Recall1,4691,earth,100,2906,4125,1,1,,1
w977185_TB,x2t665j4yl,Relational_NO_JOL,1,173,2020-05-07T01:10:05-07:00,3.8449668884277,4,versionC_stim.csv,READVersionD.csv,"Read Version D","Relational, read only version D",PAPER,DOCUMENT,Study2,B,109,175,Test,User,-,,Recall,Recall1,3589,pencil,28.571428571429,2445,3369,0,0,,1
w977185_TB,x2t665j4yl,Relational_NO_JOL,1,174,2020-05-07T01:10:07-07:00,2.5777781009674,4,versionC_stim.csv,READVersionD.csv,"Read Version D","Relational, read only version D",LONELY,ALONE,Study2,S,145,101,Test,User,-,,Recall,Recall1,2326,alone,100,1452,2061,1,1,,1
w977185_TB,x2t665j4yl,Relational_NO_JOL,1,175,2020-05-07T01:10:11-07:00,3.1881468296051,4,versionC_stim.csv,READVersionD.csv,"Read Version D","Relational, read only version D",COFFIN,DEAD,Study2,F,128,145,Test,User,-,,Recall,Recall1,2933,dead,100,1274,2728,1,1,,1
w977185_TB,x2t665j4yl,Relational_NO_JOL,1,176,2020-05-07T01:10:16-07:00,5.6982650756836,4,versionC_stim.csv,READVersionD.csv,"Read Version D","Relational, read only version D",GAME,CLUE,Study2,B,97,137,Test,User,-,,Recall,Recall1,5439,playstaion,14.285714285714,3029,5102,0,0,,1
w977185_TB,x2t665j4yl,Relational_NO_JOL,1,177,2020-05-07T01:10:23-07:00,6.5135440826416,4,versionC_stim.csv,READVersionD.csv,"Read Version D","Relational, read only version D",RED,CHERRY,Study2,B,104,136,Test,User,-,,Recall,Recall1,6265,color,36.363636363636,1761,6062,0,0,,1
w977185_TB,x2t665j4yl,Relational_NO_JOL,1,178,2020-05-07T01:10:28-07:00,5.2994318008423,4,versionC_stim.csv,READVersionD.csv,"Read Version D","Relational, read only version D",LEAGUE,BASEBALL,Study2,F,131,108,Test,User,-,,Recall,Recall1,5039,basketball,88.888888888889,2228,4744,0,1,,1
w977185_TB,x2t665j4yl,Relational_NO_JOL,1,179,2020-05-07T01:10:32-07:00,4.2431790828705,4,versionC_stim.csv,READVersionD.csv,"Read Version D","Relational, read only version D",PLANT,CACTUS,Study2,B,98,154,Test,User,-,,Recall,Recall1,3998,flower,0,2555,3834,0,0,,1
w977185_TB,x2t665j4yl,Relational_NO_JOL,1,180,2020-05-07T01:10:51-07:00,18.728449106216,4,versionC_stim.csv,READVersionD.csv,"Read Version D","Relational, read only version D",CHARM,VEHICLE,Study2,U,160,103,Test,User,-,,Recall,Recall1,18461,"bracelet ",40,1553,11093,0,0,,1
w977185_TB,x2t665j4yl,Relational_NO_JOL,1,181,2020-05-07T01:11:02-07:00,11.143442869186,4,versionC_stim.csv,READVersionD.csv,"Read Version D","Relational, read only version D",,,,,,0,Instruct,,10,"You will now be presented with a new set of word pairs. Please study each pair. Remember that your memory will be tested! When finished, press Enter to move to the next pair.",Initial_Instruct,Instruct4,10896,,,-1,-1,,,,1
w977185_TB,x2t665j4yl,Relational_NO_JOL,1,182,2020-05-07T01:11:18-07:00,15.853382110596,4,versionC_stim.csv,READVersionD.csv,"Read Version D","Relational, read only version D",,,,,,0,Instruct,-,15,"As you study, please think about how the two concepts are RELATED to each other. For example, if you see the pair TURTLE-CAT, think about how both are alive, they are both animals, and both can be kept as pets.",,Instruct20,15602,,,-1,-1,,,,1
w977185_TB,x2t665j4yl,Relational_NO_JOL,1,183,2020-05-07T01:11:36-07:00,18.261061906815,4,versionC_stim.csv,READVersionD.csv,"Read Version D","Relational, read only version D",,,,,,0,FreeRecall,-,10,"What you should think about as you study each item pair? Type your response in the box below.",,CHECK4,18012,"the pair that go together ",0,8722,16185,0,0,,1
w977185_TB,x2t665j4yl,Relational_NO_JOL,1,184,2020-05-07T01:11:44-07:00,7.3580451011658,4,versionC_stim.csv,READVersionD.csv,"Read Version D","Relational, read only version D",,,,,,0,Instruct,User,-,"Press Enter when you are readty to begin",,Instruct11,7074,,,-1,-1,,,,1
w977185_TB,x2t665j4yl,Relational_NO_JOL,1,185,2020-05-07T01:11:46-07:00,2.6676959991455,4,versionC_stim.csv,READVersionD.csv,"Read Version D","Relational, read only version D",GREEN,TREES,BUFFER1,Buffer,1,5,Study,User,-,,Study/JOL,BUFFER3,2422,,,-1,-1,,,,1
w977185_TB,x2t665j4yl,Relational_NO_JOL,1,186,2020-05-07T01:11:47-07:00,0.72387385368347,4,versionC_stim.csv,READVersionD.csv,"Read Version D","Relational, read only version D",BUTTER,PEANUT,BUFFER1,Buffer,3,3,Study,User,-,,Study/JOL,BUFFER3,509,,,-1,-1,,,,1
w977185_TB,x2t665j4yl,Relational_NO_JOL,1,187,2020-05-07T01:11:51-07:00,3.8526010513306,4,versionC_stim.csv,READVersionD.csv,"Read Version D","Relational, read only version D",CATCHER,BASEBALL,BUFFER1,Buffer,2,2,Study,User,-,,Study/JOL,BUFFER3,3583,,,-1,-1,,,,1
w977185_TB,x2t665j4yl,Relational_NO_JOL,1,188,2020-05-07T01:11:52-07:00,1.5228080749512,4,versionC_stim.csv,READVersionD.csv,"Read Version D","Relational, read only version D",JAM,SPACE,BUFFER1,Buffer,5,4,Study,User,-,,Study/JOL,BUFFER3,1315,,,-1,-1,,,,1
w977185_TB,x2t665j4yl,Relational_NO_JOL,1,189,2020-05-07T01:11:55-07:00,2.9044239521027,4,versionC_stim.csv,READVersionD.csv,"Read Version D","Relational, read only version D",HIDE,SCARE,BUFFER1,Buffer,4,6,Study,User,-,,Study/JOL,BUFFER3,1638,,,-1,-1,,,,1
w977185_TB,x2t665j4yl,Relational_NO_JOL,1,190,2020-05-07T01:11:57-07:00,2.0657920837402,4,versionC_stim.csv,READVersionD.csv,"Read Version D","Relational, read only version D",SALAD,LETTUCE,Study1,S,59,41,Study,User,-,,Study/JOL,"Study Phase2",1835,,,-1,-1,,,,1
w977185_TB,x2t665j4yl,Relational_NO_JOL,1,191,2020-05-07T01:11:59-07:00,1.963711977005,4,versionC_stim.csv,READVersionD.csv,"Read Version D","Relational, read only version D",CHILD,BABY,Study1,S,64,61,Study,User,-,,Study/JOL,"Study Phase2",1750,,,-1,-1,,,,1
w977185_TB,x2t665j4yl,Relational_NO_JOL,1,192,2020-05-07T01:12:01-07:00,1.5702278614044,4,versionC_stim.csv,READVersionD.csv,"Read Version D","Relational, read only version D",ATTORNEY,LAW,Study1,F,34,46,Study,User,-,,Study/JOL,"Study Phase2",1361,,,-1,-1,,,,1
w977185_TB,x2t665j4yl,Relational_NO_JOL,1,193,2020-05-07T01:12:03-07:00,1.6668741703033,4,versionC_stim.csv,READVersionD.csv,"Read Version D","Relational, read only version D",CLEAN,HYGIENE,Study1,B,17,82,Study,User,-,,Study/JOL,"Study Phase2",1416,,,-1,-1,,,,1
w977185_TB,x2t665j4yl,Relational_NO_JOL,1,194,2020-05-07T01:12:04-07:00,1.3528590202332,4,versionC_stim.csv,READVersionD.csv,"Read Version D","Relational, read only version D",LATCH,KEY,Study1,F,36,78,Study,User,-,,Study/JOL,"Study Phase2",1144,,,-1,-1,,,,1
w977185_TB,x2t665j4yl,Relational_NO_JOL,1,195,2020-05-07T01:12:05-07:00,1.3103969097137,4,versionC_stim.csv,READVersionD.csv,"Read Version D","Relational, read only version D",SIP,DRINK,Study1,F,27,13,Study,User,-,,Study/JOL,"Study Phase2",1063,,,-1,-1,,,,1
w977185_TB,x2t665j4yl,Relational_NO_JOL,1,196,2020-05-07T01:12:07-07:00,1.3695170879364,4,versionC_stim.csv,READVersionD.csv,"Read Version D","Relational, read only version D",ADD,VALLEY,Study1,U,82,35,Study,User,-,,Study/JOL,"Study Phase2",1127,,,-1,-1,,,,1
w977185_TB,x2t665j4yl,Relational_NO_JOL,1,197,2020-05-07T01:12:08-07:00,1.4097378253937,4,versionC_stim.csv,READVersionD.csv,"Read Version D","Relational, read only version D",TALK,DISCUSSION,Study1,B,21,62,Study,User,-,,Study/JOL,"Study Phase2",1185,,,-1,-1,,,,1
w977185_TB,x2t665j4yl,Relational_NO_JOL,1,198,2020-05-07T01:12:10-07:00,1.5149121284485,4,versionC_stim.csv,READVersionD.csv,"Read Version D","Relational, read only version D",STING,HORNET,Study1,B,11,18,Study,User,-,,Study/JOL,"Study Phase2",1319,,,-1,-1,,,,1
w977185_TB,x2t665j4yl,Relational_NO_JOL,1,199,2020-05-07T01:12:11-07:00,1.3258228302002,4,versionC_stim.csv,READVersionD.csv,"Read Version D","Relational, read only version D",BIRD,SWAN,Study1,B,14,77,Study,User,-,,Study/JOL,"Study Phase2",1117,,,-1,-1,,,,1
w977185_TB,x2t665j4yl,Relational_NO_JOL,1,200,2020-05-07T01:12:12-07:00,1.4548799991608,4,versionC_stim.csv,READVersionD.csv,"Read Version D","Relational, read only version D",TOILET,BATHROOM,Study1,S,58,39,Study,User,-,,Study/JOL,"Study Phase2",1225,,,-1,-1,,,,1
w977185_TB,x2t665j4yl,Relational_NO_JOL,1,201,2020-05-07T01:12:13-07:00,0.88699102401733,4,versionC_stim.csv,READVersionD.csv,"Read Version D","Relational, read only version D",PLANT,ROOT,Study1,B,13,26,Study,User,-,,Study/JOL,"Study Phase2",670,,,-1,-1,,,,1
w977185_TB,x2t665j4yl,Relational_NO_JOL,1,202,2020-05-07T01:12:15-07:00,1.8143291473389,4,versionC_stim.csv,READVersionD.csv,"Read Version D","Relational, read only version D",BRONZE,ARTERY,Study1,U,74,67,Study,User,-,,Study/JOL,"Study Phase2",1605,,,-1,-1,,,,1
w977185_TB,x2t665j4yl,Relational_NO_JOL,1,203,2020-05-07T01:12:17-07:00,1.4935069084167,4,versionC_stim.csv,READVersionD.csv,"Read Version D","Relational, read only version D",FLOOR,DISCOVER,Study1,U,71,68,Study,User,-,,Study/JOL,"Study Phase2",1290,,,-1,-1,,,,1
w977185_TB,x2t665j4yl,Relational_NO_JOL,1,204,2020-05-07T01:12:19-07:00,2.4579079151154,4,versionC_stim.csv,READVersionD.csv,"Read Version D","Relational, read only version D",DEFINITION,MEANING,Study1,S,62,22,Study,User,-,,Study/JOL,"Study Phase2",1245,,,-1,-1,,,,1
w977185_TB,x2t665j4yl,Relational_NO_JOL,1,205,2020-05-07T01:12:21-07:00,2.0110940933228,4,versionC_stim.csv,READVersionD.csv,"Read Version D","Relational, read only version D",GROWTH,HEIGHT,Study1,F,30,51,Study,User,-,,Study/JOL,"Study Phase2",1748,,,-1,-1,,,,1
w977185_TB,x2t665j4yl,Relational_NO_JOL,1,206,2020-05-07T01:12:23-07:00,1.5359280109406,4,versionC_stim.csv,READVersionD.csv,"Read Version D","Relational, read only version D",SIGHT,DEBATE,Study1,U,73,17,Study,User,-,,Study/JOL,"Study Phase2",1322,,,-1,-1,,,,1
w977185_TB,x2t665j4yl,Relational_NO_JOL,1,207,2020-05-07T01:12:24-07:00,1.4453821182251,4,versionC_stim.csv,READVersionD.csv,"Read Version D","Relational, read only version D",NEWS,EDITOR,Study1,B,10,52,Study,User,-,,Study/JOL,"Study Phase2",1238,,,-1,-1,,,,1
w977185_TB,x2t665j4yl,Relational_NO_JOL,1,208,2020-05-07T01:12:26-07:00,1.8681337833405,4,versionC_stim.csv,READVersionD.csv,"Read Version D","Relational, read only version D",BAR,GRILL,Study1,S,52,45,Study,User,-,,Study/JOL,"Study Phase2",1655,,,-1,-1,,,,1
w977185_TB,x2t665j4yl,Relational_NO_JOL,1,209,2020-05-07T01:12:27-07:00,1.2955021858215,4,versionC_stim.csv,READVersionD.csv,"Read Version D","Relational, read only version D",POSITION,MACHINE,Study1,U,76,40,Study,User,-,,Study/JOL,"Study Phase2",1075,,,-1,-1,,,,1
w977185_TB,x2t665j4yl,Relational_NO_JOL,1,210,2020-05-07T01:12:28-07:00,1.2001240253448,4,versionC_stim.csv,READVersionD.csv,"Read Version D","Relational, read only version D",LION,ART,Study1,U,79,23,Study,User,-,,Study/JOL,"Study Phase2",956,,,-1,-1,,,,1
w977185_TB,x2t665j4yl,Relational_NO_JOL,1,211,2020-05-07T01:12:30-07:00,1.2993569374084,4,versionC_stim.csv,READVersionD.csv,"Read Version D","Relational, read only version D",COW,HERD,Study1,B,22,21,Study,User,-,,Study/JOL,"Study Phase2",1066,,,-1,-1,,,,1
w977185_TB,x2t665j4yl,Relational_NO_JOL,1,212,2020-05-07T01:12:31-07:00,1.2466340065002,4,versionC_stim.csv,READVersionD.csv,"Read Version D","Relational, read only version D",WOMAN,LIFT,Study1,U,69,60,Study,User,-,,Study/JOL,"Study Phase2",1037,,,-1,-1,,,,1
w977185_TB,x2t665j4yl,Relational_NO_JOL,1,213,2020-05-07T01:12:32-07:00,1.230309009552,4,versionC_stim.csv,READVersionD.csv,"Read Version D","Relational, read only version D",CHORE,WORK,Study1,F,39,31,Study,User,-,,Study/JOL,"Study Phase2",1008,,,-1,-1,,,,1
w977185_TB,x2t665j4yl,Relational_NO_JOL,1,214,2020-05-07T01:12:34-07:00,1.4628520011902,4,versionC_stim.csv,READVersionD.csv,"Read Version D","Relational, read only version D",FLOWER,ORCHID,Study1,B,24,54,Study,User,-,,Study/JOL,"Study Phase2",1193,,,-1,-1,,,,1
w977185_TB,x2t665j4yl,Relational_NO_JOL,1,215,2020-05-07T01:12:35-07:00,1.3416678905487,4,versionC_stim.csv,READVersionD.csv,"Read Version D","Relational, read only version D",FISH,TUNA,Study1,B,25,58,Study,User,-,,Study/JOL,"Study Phase2",1116,,,-1,-1,,,,1
w977185_TB,x2t665j4yl,Relational_NO_JOL,1,216,2020-05-07T01:12:36-07:00,1.3512771129608,4,versionC_stim.csv,READVersionD.csv,"Read Version D","Relational, read only version D",CHILI,HOT,Study1,F,37,7,Study,User,-,,Study/JOL,"Study Phase2",1138,,,-1,-1,,,,1
w977185_TB,x2t665j4yl,Relational_NO_JOL,1,217,2020-05-07T01:12:38-07:00,1.2301249504089,4,versionC_stim.csv,READVersionD.csv,"Read Version D","Relational, read only version D",SODA,POP,Study1,S,56,59,Study,User,-,,Study/JOL,"Study Phase2",1018,,,-1,-1,,,,1
w977185_TB,x2t665j4yl,Relational_NO_JOL,1,218,2020-05-07T01:12:45-07:00,7.4474399089813,4,versionC_stim.csv,READVersionD.csv,"Read Version D","Relational, read only version D",TUCK,ALLOW,Study1,U,78,14,Study,User,-,,Study/JOL,"Study Phase2",2034,,,-1,-1,,,,0.909
w977185_TB,x2t665j4yl,Relational_NO_JOL,1,219,2020-05-07T01:12:47-07:00,1.5966150760651,4,versionC_stim.csv,READVersionD.csv,"Read Version D","Relational, read only version D",SITE,LOCATION,Study1,S,48,37,Study,User,-,,Study/JOL,"Study Phase2",1385,,,-1,-1,,,,1
w977185_TB,x2t665j4yl,Relational_NO_JOL,1,220,2020-05-07T01:12:48-07:00,1.3091340065002,4,versionC_stim.csv,READVersionD.csv,"Read Version D","Relational, read only version D",BELT,SOON,Study1,U,70,47,Study,User,-,,Study/JOL,"Study Phase2",1091,,,-1,-1,,,,1
w977185_TB,x2t665j4yl,Relational_NO_JOL,1,221,2020-05-07T01:12:49-07:00,1.2705569267273,4,versionC_stim.csv,READVersionD.csv,"Read Version D","Relational, read only version D",CAR,HAPPY,Study1,U,77,70,Study,User,-,,Study/JOL,"Study Phase2",1055,,,-1,-1,,,,1
w977185_TB,x2t665j4yl,Relational_NO_JOL,1,222,2020-05-07T01:12:52-07:00,2.3472321033478,4,versionC_stim.csv,READVersionD.csv,"Read Version D","Relational, read only version D",ROCK,GEOLOGY,Study1,B,19,65,Study,User,-,,Study/JOL,"Study Phase2",1136,,,-1,-1,,,,1
w977185_TB,x2t665j4yl,Relational_NO_JOL,1,223,2020-05-07T01:12:53-07:00,1.8350038528442,4,versionC_stim.csv,READVersionD.csv,"Read Version D","Relational, read only version D",HUNGRY,PARK,Study1,U,68,9,Study,User,-,,Study/JOL,"Study Phase2",1572,,,-1,-1,,,,1
w977185_TB,x2t665j4yl,Relational_NO_JOL,1,224,2020-05-07T01:13:07-07:00,14.070973157883,4,versionC_stim.csv,READVersionD.csv,"Read Version D","Relational, read only version D",,,,,,0,Instruct,-,3,"Remember to focus on how the two items are similiar while you study!",,CHECK5,13782,,,-1,-1,,,,1
w977185_TB,x2t665j4yl,Relational_NO_JOL,1,225,2020-05-07T01:13:11-07:00,3.4361529350281,4,versionC_stim.csv,READVersionD.csv,"Read Version D","Relational, read only version D",WASTE,DUMP,Study1,S,49,49,Study,User,-,,Study/JOL,"Study Phase2",3154,,,-1,-1,,,,1
w977185_TB,x2t665j4yl,Relational_NO_JOL,1,226,2020-05-07T01:13:12-07:00,1.3636059761047,4,versionC_stim.csv,READVersionD.csv,"Read Version D","Relational, read only version D",CARD,CREDIT,Study1,B,23,86,Study,User,-,,Study/JOL,"Study Phase2",1126,,,-1,-1,,,,1
w977185_TB,x2t665j4yl,Relational_NO_JOL,1,227,2020-05-07T01:13:13-07:00,1.0807440280914,4,versionC_stim.csv,READVersionD.csv,"Read Version D","Relational, read only version D",RACKET,BALL,Study1,F,38,79,Study,User,-,,Study/JOL,"Study Phase2",877,,,-1,-1,,,,1
w977185_TB,x2t665j4yl,Relational_NO_JOL,1,228,2020-05-07T01:13:15-07:00,1.4597759246826,4,versionC_stim.csv,READVersionD.csv,"Read Version D","Relational, read only version D",RIDDLE,SUGAR,Study1,U,81,64,Study,User,-,,Study/JOL,"Study Phase2",1249,,,-1,-1,,,,1
w977185_TB,x2t665j4yl,Relational_NO_JOL,1,229,2020-05-07T01:13:16-07:00,1.2583470344543,4,versionC_stim.csv,READVersionD.csv,"Read Version D","Relational, read only version D",ROUND,CIRCLE,Study1,S,65,28,Study,User,-,,Study/JOL,"Study Phase2",1041,,,-1,-1,,,,1
w977185_TB,x2t665j4yl,Relational_NO_JOL,1,230,2020-05-07T01:13:19-07:00,2.6628739833832,4,versionC_stim.csv,READVersionD.csv,"Read Version D","Relational, read only version D",BAD,DELINQUENT,Study1,B,6,48,Study,User,-,,Study/JOL,"Study Phase2",2385,,,-1,-1,,,,1
w977185_TB,x2t665j4yl,Relational_NO_JOL,1,231,2020-05-07T01:13:20-07:00,1.4355311393738,4,versionC_stim.csv,READVersionD.csv,"Read Version D","Relational, read only version D",WIND,BLOW,Study1,S,55,76,Study,User,-,,Study/JOL,"Study Phase2",1226,,,-1,-1,,,,1
w977185_TB,x2t665j4yl,Relational_NO_JOL,1,232,2020-05-07T01:13:21-07:00,1.097021818161,4,versionC_stim.csv,READVersionD.csv,"Read Version D","Relational, read only version D",JURY,TRIAL,Study1,S,50,8,Study,User,-,,Study/JOL,"Study Phase2",867,,,-1,-1,,,,1
w977185_TB,x2t665j4yl,Relational_NO_JOL,1,233,2020-05-07T01:13:22-07:00,1.1792981624603,4,versionC_stim.csv,READVersionD.csv,"Read Version D","Relational, read only version D",COLD,BITTER,Study1,B,12,66,Study,User,-,,Study/JOL,"Study Phase2",953,,,-1,-1,,,,1
w977185_TB,x2t665j4yl,Relational_NO_JOL,1,234,2020-05-07T01:13:24-07:00,1.1467399597168,4,versionC_stim.csv,READVersionD.csv,"Read Version D","Relational, read only version D",STOMACH,DIGESTION,Study1,B,7,34,Study,User,-,,Study/JOL,"Study Phase2",908,,,-1,-1,,,,1
w977185_TB,x2t665j4yl,Relational_NO_JOL,1,235,2020-05-07T01:13:25-07:00,1.1260170936584,4,versionC_stim.csv,READVersionD.csv,"Read Version D","Relational, read only version D",VASE,KING,Study1,U,85,12,Study,User,-,,Study/JOL,"Study Phase2",901,,,-1,-1,,,,1
w977185_TB,x2t665j4yl,Relational_NO_JOL,1,236,2020-05-07T01:13:26-07:00,1.0905900001526,4,versionC_stim.csv,READVersionD.csv,"Read Version D","Relational, read only version D",ENOUGH,FULL,Study1,F,26,75,Study,User,-,,Study/JOL,"Study Phase2",883,,,-1,-1,,,,1
w977185_TB,x2t665j4yl,Relational_NO_JOL,1,237,2020-05-07T01:13:27-07:00,1.0514798164368,4,versionC_stim.csv,READVersionD.csv,"Read Version D","Relational, read only version D",WAR,REVOLUTION,Study1,B,20,33,Study,User,-,,Study/JOL,"Study Phase2",840,,,-1,-1,,,,1
w977185_TB,x2t665j4yl,Relational_NO_JOL,1,238,2020-05-07T01:13:28-07:00,1.2632381916046,4,versionC_stim.csv,READVersionD.csv,"Read Version D","Relational, read only version D",FAMINE,HUNGER,Study1,F,40,32,Study,User,-,,Study/JOL,"Study Phase2",1019,,,-1,-1,,,,1
w977185_TB,x2t665j4yl,Relational_NO_JOL,1,239,2020-05-07T01:13:29-07:00,1.2772808074951,4,versionC_stim.csv,READVersionD.csv,"Read Version D","Relational, read only version D",LIVER,KIDNEY,Study1,S,53,30,Study,User,-,,Study/JOL,"Study Phase2",1063,,,-1,-1,,,,1
w977185_TB,x2t665j4yl,Relational_NO_JOL,1,240,2020-05-07T01:13:39-07:00,9.7945320606232,4,versionC_stim.csv,READVersionD.csv,"Read Version D","Relational, read only version D",ACCIDENT,STRONG,Study1,U,80,81,Study,User,-,,Study/JOL,"Study Phase2",3793,,,-1,-1,,,,0.947
w977185_TB,x2t665j4yl,Relational_NO_JOL,1,241,2020-05-07T01:13:41-07:00,1.5080070495605,4,versionC_stim.csv,READVersionD.csv,"Read Version D","Relational, read only version D",WATER,BRIDGE,Study1,B,18,56,Study,User,-,,Study/JOL,"Study Phase2",1283,,,-1,-1,,,,1
w977185_TB,x2t665j4yl,Relational_NO_JOL,1,242,2020-05-07T01:13:42-07:00,1.3827130794525,4,versionC_stim.csv,READVersionD.csv,"Read Version D","Relational, read only version D",STENCH,SMELL,Study1,F,42,80,Study,User,-,,Study/JOL,"Study Phase2",1115,,,-1,-1,,,,1
w977185_TB,x2t665j4yl,Relational_NO_JOL,1,243,2020-05-07T01:13:43-07:00,1.3177750110626,4,versionC_stim.csv,READVersionD.csv,"Read Version D","Relational, read only version D",BLAZE,FIRE,Study1,F,45,15,Study,User,-,,Study/JOL,"Study Phase2",1098,,,-1,-1,,,,1
w977185_TB,x2t665j4yl,Relational_NO_JOL,1,244,2020-05-07T01:13:45-07:00,1.2920169830322,4,versionC_stim.csv,READVersionD.csv,"Read Version D","Relational, read only version D",WASP,BUG,Study1,F,32,84,Study,User,-,,Study/JOL,"Study Phase2",1078,,,-1,-1,,,,1
w977185_TB,x2t665j4yl,Relational_NO_JOL,1,245,2020-05-07T01:13:46-07:00,1.208792924881,4,versionC_stim.csv,READVersionD.csv,"Read Version D","Relational, read only version D",OUT,WAY,Study1,B,16,36,Study,User,-,,Study/JOL,"Study Phase2",983,,,-1,-1,,,,1
w977185_TB,x2t665j4yl,Relational_NO_JOL,1,246,2020-05-07T01:13:47-07:00,1.1014139652252,4,versionC_stim.csv,READVersionD.csv,"Read Version D","Relational, read only version D",DROWSY,SLEEP,Study1,F,41,16,Study,User,-,,Study/JOL,"Study Phase2",889,,,-1,-1,,,,1
w977185_TB,x2t665j4yl,Relational_NO_JOL,1,247,2020-05-07T01:13:48-07:00,1.1818759441376,4,versionC_stim.csv,READVersionD.csv,"Read Version D","Relational, read only version D",DOG,PAW,Study1,B,15,19,Study,User,-,,Study/JOL,"Study Phase2",972,,,-1,-1,,,,1
w977185_TB,x2t665j4yl,Relational_NO_JOL,1,248,2020-05-07T01:13:49-07:00,1.2177700996399,4,versionC_stim.csv,READVersionD.csv,"Read Version D","Relational, read only version D",HAND,FIX,Study1,U,75,29,Study,User,-,,Study/JOL,"Study Phase2",967,,,-1,-1,,,,1
w977185_TB,x2t665j4yl,Relational_NO_JOL,1,249,2020-05-07T01:13:51-07:00,1.3911199569702,4,versionC_stim.csv,READVersionD.csv,"Read Version D","Relational, read only version D",DESIGN,ARCHITECTURE,Study1,S,51,85,Study,User,-,,Study/JOL,"Study Phase2",1176,,,-1,-1,,,,1
w977185_TB,x2t665j4yl,Relational_NO_JOL,1,250,2020-05-07T01:13:52-07:00,1.1257219314575,4,versionC_stim.csv,READVersionD.csv,"Read Version D","Relational, read only version D",BEE,HONEY,Study1,S,63,44,Study,User,-,,Study/JOL,"Study Phase2",902,,,-1,-1,,,,1
w977185_TB,x2t665j4yl,Relational_NO_JOL,1,251,2020-05-07T01:14:06-07:00,13.853052139282,4,versionC_stim.csv,READVersionD.csv,"Read Version D","Relational, read only version D",PILOT,PLANE,Study1,F,44,83,Study,User,-,,Study/JOL,"Study Phase2",12439,,,-1,-1,,,,1
w977185_TB,x2t665j4yl,Relational_NO_JOL,1,252,2020-05-07T01:14:07-07:00,1.2517778873444,4,versionC_stim.csv,READVersionD.csv,"Read Version D","Relational, read only version D",WOULD,CASH,Study1,U,83,38,Study,User,-,,Study/JOL,"Study Phase2",1020,,,-1,-1,,,,1
w977185_TB,x2t665j4yl,Relational_NO_JOL,1,253,2020-05-07T01:14:08-07:00,1.2766900062561,4,versionC_stim.csv,READVersionD.csv,"Read Version D","Relational, read only version D",SACKING,DIETARY,Study1,U,67,69,Study,User,-,,Study/JOL,"Study Phase2",1058,,,-1,-1,,,,1
w977185_TB,x2t665j4yl,Relational_NO_JOL,1,254,2020-05-07T01:14:10-07:00,1.9117691516876,4,versionC_stim.csv,READVersionD.csv,"Read Version D","Relational, read only version D",HAMMER,CHISEL,Study1,B,9,27,Study,User,-,,Study/JOL,"Study Phase2",1677,,,-1,-1,,,,1
w977185_TB,x2t665j4yl,Relational_NO_JOL,1,255,2020-05-07T01:14:12-07:00,1.3591928482056,4,versionC_stim.csv,READVersionD.csv,"Read Version D","Relational, read only version D",FUTURE,PAST,Study1,S,61,73,Study,User,-,,Study/JOL,"Study Phase2",1136,,,-1,-1,,,,1
w977185_TB,x2t665j4yl,Relational_NO_JOL,1,256,2020-05-07T01:14:13-07:00,1.220999956131,4,versionC_stim.csv,READVersionD.csv,"Read Version D","Relational, read only version D",CLUTTER,PUSHER,Study1,U,66,74,Study,User,-,,Study/JOL,"Study Phase2",998,,,-1,-1,,,,1
w977185_TB,x2t665j4yl,Relational_NO_JOL,1,257,2020-05-07T01:14:14-07:00,1.30717420578,4,versionC_stim.csv,READVersionD.csv,"Read Version D","Relational, read only version D",ASSIGNMENT,DUE,Study1,S,46,71,Study,User,-,,Study/JOL,"Study Phase2",1093,,,-1,-1,,,,1
w977185_TB,x2t665j4yl,Relational_NO_JOL,1,258,2020-05-07T01:14:15-07:00,1.2311789989471,4,versionC_stim.csv,READVersionD.csv,"Read Version D","Relational, read only version D",SEIZE,TAKE,Study1,F,29,10,Study,User,-,,Study/JOL,"Study Phase2",999,,,-1,-1,,,,1
w977185_TB,x2t665j4yl,Relational_NO_JOL,1,259,2020-05-07T01:14:17-07:00,1.2863128185272,4,versionC_stim.csv,READVersionD.csv,"Read Version D","Relational, read only version D",AMOUNT,NUMBER,Study1,S,47,57,Study,User,-,,Study/JOL,"Study Phase2",1073,,,-1,-1,,,,1
w977185_TB,x2t665j4yl,Relational_NO_JOL,1,260,2020-05-07T01:14:18-07:00,1.3632400035858,4,versionC_stim.csv,READVersionD.csv,"Read Version D","Relational, read only version D",CHEESE,WINE,Study1,S,57,42,Study,User,-,,Study/JOL,"Study Phase2",1139,,,-1,-1,,,,1
w977185_TB,x2t665j4yl,Relational_NO_JOL,1,261,2020-05-07T01:14:19-07:00,1.3308351039886,4,versionC_stim.csv,READVersionD.csv,"Read Version D","Relational, read only version D",SICK,HIDE,Study1,U,84,20,Study,User,-,,Study/JOL,"Study Phase2",1112,,,-1,-1,,,,1
w977185_TB,x2t665j4yl,Relational_NO_JOL,1,262,2020-05-07T01:14:21-07:00,1.3308529853821,4,versionC_stim.csv,READVersionD.csv,"Read Version D","Relational, read only version D",FOOT,SHOE,Study1,S,60,24,Study,User,-,,Study/JOL,"Study Phase2",1107,,,-1,-1,,,,1
w977185_TB,x2t665j4yl,Relational_NO_JOL,1,263,2020-05-07T01:14:22-07:00,1.1309549808502,4,versionC_stim.csv,READVersionD.csv,"Read Version D","Relational, read only version D",ATTIRE,CLOTHES,Study1,F,43,72,Study,User,-,,Study/JOL,"Study Phase2",927,,,-1,-1,,,,1
w977185_TB,x2t665j4yl,Relational_NO_JOL,1,264,2020-05-07T01:14:23-07:00,1.1014530658722,4,versionC_stim.csv,READVersionD.csv,"Read Version D","Relational, read only version D",MONEY,WAGE,Study1,B,8,63,Study,User,-,,Study/JOL,"Study Phase2",874,,,-1,-1,,,,1
w977185_TB,x2t665j4yl,Relational_NO_JOL,1,265,2020-05-07T01:14:25-07:00,2.2304298877716,4,versionC_stim.csv,READVersionD.csv,"Read Version D","Relational, read only version D",BUSINESS,DEATH,Study1,U,72,11,Study,User,-,,Study/JOL,"Study Phase2",1016,,,-1,-1,,,,1
w977185_TB,x2t665j4yl,Relational_NO_JOL,1,266,2020-05-07T01:14:27-07:00,1.7638349533081,4,versionC_stim.csv,READVersionD.csv,"Read Version D","Relational, read only version D",DIVISION,MATH,Study1,F,33,53,Study,User,-,,Study/JOL,"Study Phase2",1471,,,-1,-1,,,,1
w977185_TB,x2t665j4yl,Relational_NO_JOL,1,267,2020-05-07T01:14:28-07:00,1.2019481658936,4,versionC_stim.csv,READVersionD.csv,"Read Version D","Relational, read only version D",FANTASTIC,GREAT,Study1,F,35,55,Study,User,-,,Study/JOL,"Study Phase2",985,,,-1,-1,,,,1
w977185_TB,x2t665j4yl,Relational_NO_JOL,1,268,2020-05-07T01:14:29-07:00,1.2419998645782,4,versionC_stim.csv,READVersionD.csv,"Read Version D","Relational, read only version D",CAVE,DARK,Study1,F,28,43,Study,User,-,,Study/JOL,"Study Phase2",1025,,,-1,-1,,,,1
w977185_TB,x2t665j4yl,Relational_NO_JOL,1,269,2020-05-07T01:14:30-07:00,1.1230380535126,4,versionC_stim.csv,READVersionD.csv,"Read Version D","Relational, read only version D",WORD,SENTENCE,Study1,F,31,50,Study,User,-,,Study/JOL,"Study Phase2",909,,,-1,-1,,,,1
w977185_TB,x2t665j4yl,Relational_NO_JOL,1,270,2020-05-07T01:14:32-07:00,1.294410943985,4,versionC_stim.csv,READVersionD.csv,"Read Version D","Relational, read only version D",END,BEGIN,Study1,S,54,25,Study,User,-,,Study/JOL,"Study Phase2",1086,,,-1,-1,,,,1
w977185_TB,x2t665j4yl,Relational_NO_JOL,1,271,2020-05-07T01:14:34-07:00,2.8022861480713,4,versionC_stim.csv,READVersionD.csv,"Read Version D","Relational, read only version D",CHOCOLATE,MALT,BUFFER2,Buffer,88,89,Study,User,-,,Study/JOL,BUFFER4,2538,,,-1,-1,,,,1
w977185_TB,x2t665j4yl,Relational_NO_JOL,1,272,2020-05-07T01:14:36-07:00,1.2666318416595,4,versionC_stim.csv,READVersionD.csv,"Read Version D","Relational, read only version D",POLICE,SHERRIF,BUFFER2,Buffer,87,88,Study,User,-,,Study/JOL,BUFFER4,1045,,,-1,-1,,,,1
w977185_TB,x2t665j4yl,Relational_NO_JOL,1,273,2020-05-07T01:14:37-07:00,1.2931890487671,4,versionC_stim.csv,READVersionD.csv,"Read Version D","Relational, read only version D",SPACE,MOON,BUFFER2,Buffer,89,91,Study,User,-,,Study/JOL,BUFFER4,1061,,,-1,-1,,,,1
w977185_TB,x2t665j4yl,Relational_NO_JOL,1,274,2020-05-07T01:14:39-07:00,2.221951007843,4,versionC_stim.csv,READVersionD.csv,"Read Version D","Relational, read only version D",GOOSE,GEESE,BUFFER2,Buffer,86,87,Study,User,-,,Study/JOL,BUFFER4,1006,,,-1,-1,,,,1
w977185_TB,x2t665j4yl,Relational_NO_JOL,1,275,2020-05-07T01:14:41-07:00,1.67178606987,4,versionC_stim.csv,READVersionD.csv,"Read Version D","Relational, read only version D",STUFF,THING,BUFFER2,Buffer,90,90,Study,User,-,,Study/JOL,BUFFER4,1342,,,-1,-1,,,,1
w977185_TB,x2t665j4yl,Relational_NO_JOL,1,276,2020-05-07T01:14:45-07:00,3.8578178882599,4,versionC_stim.csv,READVersionD.csv,"Read Version D","Relational, read only version D",,,,,,0,Instruct,User,-,"You have completed this section. Please press Enter.",Filler_Instruction,Instruct5,3571,,,-1,-1,,,,1
w977185_TB,x2t665j4yl,Relational_NO_JOL,1,277,2020-05-07T01:15:03-07:00,17.973186016083,4,versionC_stim.csv,READVersionD.csv,"Read Version D","Relational, read only version D",,,,,,0,FreeRecall,-,10,"What were you supposed to focus on while you studied each pair? (Hint: Think back to the instructions). Type your answer in the space below.",,CHECK3,17679," focus on how the two items are similiar while you study ",0,12735,12735,0,0,,1
w977185_TB,x2t665j4yl,Relational_NO_JOL,1,278,2020-05-07T01:15:05-07:00,2.3479890823364,4,versionC_stim.csv,READVersionD.csv,"Read Version D","Relational, read only version D",,,,,,0,Instruct,User,-,"You have completed this section. Please press Enter.",Filler_Instruction,Instruct5,2081,,,-1,-1,,,,1
w977185_TB,x2t665j4yl,Relational_NO_JOL,1,279,2020-05-07T01:17:05-07:00,120.3095729351,4,versionC_stim.csv,READVersionD.csv,"Read Version D","Relational, read only version D",,,,,,0,FreeRecall,120,120,"Please list the 50 US states in reverse alphabetical order (z - a). The task will automatically advance to the next screen after two minutes.",,Filler2,120003,"Alabama Alaska Arizona Arkansas California Connecticut Delaware Flordia Georgia Hawii Idaho Illinois Indiana Iowa KAnsas Kentucky Loiusanan maine Maryland Massachusetts Michigan Minnesota Mississippi ",0,13495,119016,0,0,,1
w977185_TB,x2t665j4yl,Relational_NO_JOL,1,280,2020-05-07T01:17:17-07:00,11.936713933945,4,versionC_stim.csv,READVersionD.csv,"Read Version D","Relational, read only version D",,,,,,0,Instruct,-,10,"You will now be presented with the first word from each of the previously studied item pairs. Please type the missing word. If you do not know the word, you may guess or press Enter to skip forward to the next pair.",,Instruct6,11662,,,-1,-1,,,,1
w977185_TB,x2t665j4yl,Relational_NO_JOL,1,281,2020-05-07T01:18:51-07:00,94.014703989029,4,versionC_stim.csv,READVersionD.csv,"Read Version D","Relational, read only version D",CLUTTER,PUSHER,Study1,U,66,74,Test,User,-,,Recall,Recall2,93742,pusher,100,91139,93221,1,1,,1
w977185_TB,x2t665j4yl,Relational_NO_JOL,1,282,2020-05-07T01:19:32-07:00,40.905490159988,4,versionC_stim.csv,READVersionD.csv,"Read Version D","Relational, read only version D",ADD,VALLEY,Study1,U,82,35,Test,User,-,,Recall,Recall2,40613,Valley,100,35191,37216,1,1,,1
w977185_TB,x2t665j4yl,Relational_NO_JOL,1,283,2020-05-07T01:20:12-07:00,39.90558886528,4,versionC_stim.csv,READVersionD.csv,"Read Version D","Relational, read only version D",BEE,HONEY,Study1,S,63,44,Test,User,-,,Recall,Recall2,39633,honey,100,36272,37853,1,1,,1
w977185_TB,x2t665j4yl,Relational_NO_JOL,1,284,2020-05-07T01:20:16-07:00,3.7785451412201,4,versionC_stim.csv,READVersionD.csv,"Read Version D","Relational, read only version D",FUTURE,PAST,Study1,S,61,73,Test,User,-,,Recall,Recall2,3518,past,100,1946,3137,1,1,,1
w977185_TB,x2t665j4yl,Relational_NO_JOL,1,285,2020-05-07T01:20:34-07:00,18.335362911224,4,versionC_stim.csv,READVersionD.csv,"Read Version D","Relational, read only version D",JURY,TRIAL,Study1,S,50,8,Test,User,-,,Recall,Recall2,18026,"attorney ",15.384615384615,12597,16682,0,0,,1
w977185_TB,x2t665j4yl,Relational_NO_JOL,1,286,2020-05-07T01:20:39-07:00,4.3054389953613,4,versionC_stim.csv,READVersionD.csv,"Read Version D","Relational, read only version D",AMOUNT,NUMBER,Study1,S,47,57,Test,User,-,,Recall,Recall2,3974,full,20,2046,3143,0,0,,1
w977185_TB,x2t665j4yl,Relational_NO_JOL,1,287,2020-05-07T01:20:42-07:00,3.6775269508362,4,versionC_stim.csv,READVersionD.csv,"Read Version D","Relational, read only version D",CAR,HAPPY,Study1,U,77,70,Test,User,-,,Recall,Recall2,3411,happy,100,1818,3138,1,1,,1
w977185_TB,x2t665j4yl,Relational_NO_JOL,1,288,2020-05-07T01:20:47-07:00,4.4563009738922,4,versionC_stim.csv,READVersionD.csv,"Read Version D","Relational, read only version D",WASP,BUG,Study1,F,32,84,Test,User,-,,Recall,Recall2,4190,sting,25,1630,2899,0,0,,1
w977185_TB,x2t665j4yl,Relational_NO_JOL,1,289,2020-05-07T01:21:58-07:00,71.236618041992,4,versionC_stim.csv,READVersionD.csv,"Read Version D","Relational, read only version D",GROWTH,HEIGHT,Study1,F,30,51,Test,User,-,,Recall,Recall2,70969,"maturity ",14.285714285714,68412,70488,0,0,,1
w977185_TB,x2t665j4yl,Relational_NO_JOL,1,290,2020-05-07T01:22:01-07:00,2.6570560932159,4,versionC_stim.csv,READVersionD.csv,"Read Version D","Relational, read only version D",FLOWER,ORCHID,Study1,B,24,54,Test,User,-,,Recall,Recall2,2391,plant,0,1294,2181,0,0,,1
w977185_TB,x2t665j4yl,Relational_NO_JOL,1,291,2020-05-07T01:22:04-07:00,2.9750988483429,4,versionC_stim.csv,READVersionD.csv,"Read Version D","Relational, read only version D",SITE,LOCATION,Study1,S,48,37,Test,User,-,,Recall,Recall2,2697,web,0,1625,2403,0,0,,1
w977185_TB,x2t665j4yl,Relational_NO_JOL,1,292,2020-05-07T01:22:09-07:00,5.6237590312958,4,versionC_stim.csv,READVersionD.csv,"Read Version D","Relational, read only version D",CHORE,WORK,Study1,F,39,31,Test,User,-,,Recall,Recall2,5319,allowance,15.384615384615,2542,5097,0,0,,1
w977185_TB,x2t665j4yl,Relational_NO_JOL,1,293,2020-05-07T01:22:14-07:00,4.7586669921875,4,versionC_stim.csv,READVersionD.csv,"Read Version D","Relational, read only version D",WOMAN,LIFT,Study1,U,69,60,Test,User,-,,Recall,Recall2,4495,strong,20,2741,4321,0,0,,1
w977185_TB,x2t665j4yl,Relational_NO_JOL,1,294,2020-05-07T01:22:18-07:00,3.9894630908966,4,versionC_stim.csv,READVersionD.csv,"Read Version D","Relational, read only version D",WORD,SENTENCE,Study1,F,31,50,Test,User,-,,Recall,Recall2,2630,book,0,1603,2399,0,0,,1
w977185_TB,x2t665j4yl,Relational_NO_JOL,1,295,2020-05-07T01:22:22-07:00,4.1259698867798,4,versionC_stim.csv,READVersionD.csv,"Read Version D","Relational, read only version D",LIVER,KIDNEY,Study1,S,53,30,Test,User,-,,Recall,Recall2,3877,kidney,100,1460,3513,1,1,,1
w977185_TB,x2t665j4yl,Relational_NO_JOL,1,296,2020-05-07T01:22:25-07:00,3.2732920646667,4,versionC_stim.csv,READVersionD.csv,"Read Version D","Relational, read only version D",SIGHT,DEBATE,Study1,U,73,17,Test,User,-,,Recall,Recall2,2994,on,0,2409,2721,0,0,,1
w977185_TB,x2t665j4yl,Relational_NO_JOL,1,297,2020-05-07T01:22:28-07:00,2.8310389518738,4,versionC_stim.csv,READVersionD.csv,"Read Version D","Relational, read only version D",PLANT,ROOT,Study1,B,13,26,Test,User,-,,Recall,Recall2,2566,flower,20,1457,2429,0,0,,1
w977185_TB,x2t665j4yl,Relational_NO_JOL,1,298,2020-05-07T01:22:32-07:00,3.4980361461639,4,versionC_stim.csv,READVersionD.csv,"Read Version D","Relational, read only version D",STING,HORNET,Study1,B,11,18,Test,User,-,,Recall,Recall2,3234,"wasp ",0,2108,2977,0,0,,1
w977185_TB,x2t665j4yl,Relational_NO_JOL,1,299,2020-05-07T01:22:35-07:00,3.4212560653687,4,versionC_stim.csv,READVersionD.csv,"Read Version D","Relational, read only version D",ACCIDENT,STRONG,Study1,U,80,81,Test,User,-,,Recall,Recall2,3146,cAR,22.222222222222,1407,2937,0,0,,1
w977185_TB,x2t665j4yl,Relational_NO_JOL,1,300,2020-05-07T01:22:38-07:00,2.9509439468384,4,versionC_stim.csv,READVersionD.csv,"Read Version D","Relational, read only version D",DOG,PAW,Study1,B,15,19,Test,User,-,,Recall,Recall2,2690,PET,33.333333333333,1981,2483,0,0,,1
w977185_TB,x2t665j4yl,Relational_NO_JOL,1,301,2020-05-07T01:22:44-07:00,6.200719833374,4,versionC_stim.csv,READVersionD.csv,"Read Version D","Relational, read only version D",MONEY,WAGE,Study1,B,8,63,Test,User,-,,Recall,Recall2,5953,"GOOD LIFE",30.769230769231,3181,5252,0,0,,1
w977185_TB,x2t665j4yl,Relational_NO_JOL,1,302,2020-05-07T01:22:51-07:00,6.3702600002289,4,versionC_stim.csv,READVersionD.csv,"Read Version D","Relational, read only version D",SACKING,DIETARY,Study1,U,67,69,Test,User,-,,Recall,Recall2,6117,IDK,20,5488,5801,0,0,,1
w977185_TB,x2t665j4yl,Relational_NO_JOL,1,303,2020-05-07T01:22:53-07:00,2.8329620361328,4,versionC_stim.csv,READVersionD.csv,"Read Version D","Relational, read only version D",LION,ART,Study1,U,79,23,Test,User,-,,Recall,Recall2,2563,ART,100,1822,2417,1,1,,1
w977185_TB,x2t665j4yl,Relational_NO_JOL,1,304,2020-05-07T01:22:59-07:00,5.3169651031494,4,versionC_stim.csv,READVersionD.csv,"Read Version D","Relational, read only version D",SALAD,LETTUCE,Study1,S,59,41,Test,User,-,,Recall,Recall2,5057,HEALTY,30.769230769231,1417,4881,0,0,,1
w977185_TB,x2t665j4yl,Relational_NO_JOL,1,305,2020-05-07T01:23:03-07:00,4.1025390625,4,versionC_stim.csv,READVersionD.csv,"Read Version D","Relational, read only version D",SIP,DRINK,Study1,F,27,13,Test,User,-,,Recall,Recall2,3845,DRINK,100,2258,3107,1,1,,1
w977185_TB,x2t665j4yl,Relational_NO_JOL,1,306,2020-05-07T01:23:07-07:00,4.224396944046,4,versionC_stim.csv,READVersionD.csv,"Read Version D","Relational, read only version D",RIDDLE,SUGAR,Study1,U,81,64,Test,User,-,,Recall,Recall2,3970,"fun ",25,2520,3780,0,0,,1
w977185_TB,x2t665j4yl,Relational_NO_JOL,1,307,2020-05-07T01:23:12-07:00,5.2105319499969,4,versionC_stim.csv,READVersionD.csv,"Read Version D","Relational, read only version D",DESIGN,ARCHITECTURE,Study1,S,51,85,Test,User,-,,Recall,Recall2,4927,"fashion ",31.578947368421,1622,4769,0,0,,1
w977185_TB,x2t665j4yl,Relational_NO_JOL,1,308,2020-05-07T01:23:18-07:00,5.6553540229797,4,versionC_stim.csv,READVersionD.csv,"Read Version D","Relational, read only version D",COW,HERD,Study1,B,22,21,Test,User,-,,Recall,Recall2,5384,beed,50,4720,5231,0,0,,1
w977185_TB,x2t665j4yl,Relational_NO_JOL,1,309,2020-05-07T01:23:24-07:00,5.68887591362,4,versionC_stim.csv,READVersionD.csv,"Read Version D","Relational, read only version D",SEIZE,TAKE,Study1,F,29,10,Test,User,-,,Recall,Recall2,5426,idk,28.571428571429,4775,5061,0,0,,1
w977185_TB,x2t665j4yl,Relational_NO_JOL,1,310,2020-05-07T01:23:29-07:00,4.9492311477661,4,versionC_stim.csv,READVersionD.csv,"Read Version D","Relational, read only version D",BELT,SOON,Study1,U,70,47,Test,User,-,,Recall,Recall2,3529,seat,25,1497,3366,0,0,,1
w977185_TB,x2t665j4yl,Relational_NO_JOL,1,311,2020-05-07T01:23:35-07:00,6.2412309646606,4,versionC_stim.csv,READVersionD.csv,"Read Version D","Relational, read only version D",FAMINE,HUNGER,Study1,F,40,32,Test,User,-,,Recall,Recall2,5970,woman,18.181818181818,4642,5519,0,0,,1
w977185_TB,x2t665j4yl,Relational_NO_JOL,1,312,2020-05-07T01:23:39-07:00,3.8881890773773,4,versionC_stim.csv,READVersionD.csv,"Read Version D","Relational, read only version D",WOULD,CASH,Study1,U,83,38,Test,User,-,,Recall,Recall2,3608,should,40,2078,3193,0,0,,1
w977185_TB,x2t665j4yl,Relational_NO_JOL,1,313,2020-05-07T01:23:42-07:00,3.4183819293976,4,versionC_stim.csv,READVersionD.csv,"Read Version D","Relational, read only version D",STENCH,SMELL,Study1,F,42,80,Test,User,-,,Recall,Recall2,3160,stink,20,1766,2886,0,0,,1
w977185_TB,x2t665j4yl,Relational_NO_JOL,1,314,2020-05-07T01:23:48-07:00,5.6982939243317,4,versionC_stim.csv,READVersionD.csv,"Read Version D","Relational, read only version D",BIRD,SWAN,Study1,B,14,77,Test,User,-,,Recall,Recall2,5436,house,22.222222222222,4105,5230,0,0,,1
w977185_TB,x2t665j4yl,Relational_NO_JOL,1,315,2020-05-07T01:23:52-07:00,4.540333032608,4,versionC_stim.csv,READVersionD.csv,"Read Version D","Relational, read only version D",VASE,KING,Study1,U,85,12,Test,User,-,,Recall,Recall2,4253,art,0,3549,4072,0,0,,1
w977185_TB,x2t665j4yl,Relational_NO_JOL,1,316,2020-05-07T01:23:55-07:00,2.8385860919952,4,versionC_stim.csv,READVersionD.csv,"Read Version D","Relational, read only version D",SODA,POP,Study1,S,56,59,Test,User,-,,Recall,Recall2,2579,pop,100,1147,1523,1,1,,1
w977185_TB,x2t665j4yl,Relational_NO_JOL,1,317,2020-05-07T01:23:58-07:00,3.2165229320526,4,versionC_stim.csv,READVersionD.csv,"Read Version D","Relational, read only version D",CHILI,HOT,Study1,F,37,7,Test,User,-,,Recall,Recall2,2940,hot,100,1431,2726,1,1,,1
w977185_TB,x2t665j4yl,Relational_NO_JOL,1,318,2020-05-07T01:24:03-07:00,4.2372350692749,4,versionC_stim.csv,READVersionD.csv,"Read Version D","Relational, read only version D",BUSINESS,DEATH,Study1,U,72,11,Test,User,-,,Recall,Recall2,3959,money,20,3007,3832,0,0,,1
w977185_TB,x2t665j4yl,Relational_NO_JOL,1,319,2020-05-07T01:24:05-07:00,2.6512989997864,4,versionC_stim.csv,READVersionD.csv,"Read Version D","Relational, read only version D",WATER,BRIDGE,Study1,B,18,56,Test,User,-,,Recall,Recall2,2385,drink,36.363636363636,1396,2118,0,0,,1
w977185_TB,x2t665j4yl,Relational_NO_JOL,1,320,2020-05-07T01:24:09-07:00,3.8884878158569,4,versionC_stim.csv,READVersionD.csv,"Read Version D","Relational, read only version D",CLEAN,HYGIENE,Study1,B,17,82,Test,User,-,,Recall,Recall2,3624,dirty,16.666666666667,1578,3491,0,0,,1
w977185_TB,x2t665j4yl,Relational_NO_JOL,1,321,2020-05-07T01:24:12-07:00,3.0375571250916,4,versionC_stim.csv,READVersionD.csv,"Read Version D","Relational, read only version D",CHEESE,WINE,Study1,S,57,42,Test,User,-,,Recall,Recall2,2772,wine,100,1466,2549,1,1,,1
w977185_TB,x2t665j4yl,Relational_NO_JOL,1,322,2020-05-07T01:24:18-07:00,5.6889128684998,4,versionC_stim.csv,READVersionD.csv,"Read Version D","Relational, read only version D",HAND,FIX,Study1,U,75,29,Test,User,-,,Recall,Recall2,5406,soap,0,1423,4896,0,0,,1
w977185_TB,x2t665j4yl,Relational_NO_JOL,1,323,2020-05-07T01:24:22-07:00,3.6819341182709,4,versionC_stim.csv,READVersionD.csv,"Read Version D","Relational, read only version D",WIND,BLOW,Study1,S,55,76,Test,User,-,,Recall,Recall2,3399,blw,85.714285714286,1939,3278,0,1,,1
w977185_TB,x2t665j4yl,Relational_NO_JOL,1,324,2020-05-07T01:24:25-07:00,3.7650210857391,4,versionC_stim.csv,READVersionD.csv,"Read Version D","Relational, read only version D",DROWSY,SLEEP,Study1,F,41,16,Test,User,-,,Recall,Recall2,3472,tired,20,1920,3196,0,0,,1
w977185_TB,x2t665j4yl,Relational_NO_JOL,1,325,2020-05-07T01:24:29-07:00,3.6126358509064,4,versionC_stim.csv,READVersionD.csv,"Read Version D","Relational, read only version D",FANTASTIC,GREAT,Study1,F,35,55,Test,User,-,,Recall,Recall2,3308,great,100,1691,3091,1,1,,1
w977185_TB,x2t665j4yl,Relational_NO_JOL,1,326,2020-05-07T01:24:32-07:00,2.4939799308777,4,versionC_stim.csv,READVersionD.csv,"Read Version D","Relational, read only version D",DIVISION,MATH,Study1,F,33,53,Test,User,-,,Recall,Recall2,2236,math,100,1296,1900,1,1,,1
w977185_TB,x2t665j4yl,Relational_NO_JOL,1,327,2020-05-07T01:24:35-07:00,3.9396312236786,4,versionC_stim.csv,READVersionD.csv,"Read Version D","Relational, read only version D",PILOT,PLANE,Study1,F,44,83,Test,User,-,,Recall,Recall2,3675,plane,100,1600,3266,1,1,,1
w977185_TB,x2t665j4yl,Relational_NO_JOL,1,328,2020-05-07T01:24:38-07:00,2.7846097946167,4,versionC_stim.csv,READVersionD.csv,"Read Version D","Relational, read only version D",TUCK,ALLOW,Study1,U,78,14,Test,User,-,,Recall,Recall2,2522,bed,0,2020,2332,0,0,,1
w977185_TB,x2t665j4yl,Relational_NO_JOL,1,329,2020-05-07T01:24:43-07:00,4.2631311416626,4,versionC_stim.csv,READVersionD.csv,"Read Version D","Relational, read only version D",RACKET,BALL,Study1,F,38,79,Test,User,-,,Recall,Recall2,3969,noise,0,2831,3800,0,0,,1
w977185_TB,x2t665j4yl,Relational_NO_JOL,1,330,2020-05-07T01:24:49-07:00,6.4396278858185,4,versionC_stim.csv,READVersionD.csv,"Read Version D","Relational, read only version D",DEFINITION,MEANING,Study1,S,62,22,Test,User,-,,Recall,Recall2,6176,word,0,3375,5840,0,0,,1
w977185_TB,x2t665j4yl,Relational_NO_JOL,1,331,2020-05-07T01:24:58-07:00,8.769021987915,4,versionC_stim.csv,READVersionD.csv,"Read Version D","Relational, read only version D",LATCH,KEY,Study1,F,36,78,Test,User,-,,Recall,Recall2,8496,"on ",0,8023,8427,0,0,,1
w977185_TB,x2t665j4yl,Relational_NO_JOL,1,332,2020-05-07T01:25:01-07:00,3.0717470645905,4,versionC_stim.csv,READVersionD.csv,"Read Version D","Relational, read only version D",CHILD,BABY,Study1,S,64,61,Test,User,-,,Recall,Recall2,2814,parent,20,1566,2604,0,0,,1
w977185_TB,x2t665j4yl,Relational_NO_JOL,1,333,2020-05-07T01:25:05-07:00,4.6244459152222,4,versionC_stim.csv,READVersionD.csv,"Read Version D","Relational, read only version D",ROUND,CIRCLE,Study1,S,65,28,Test,User,-,,Recall,Recall2,4317,circle,100,2372,4147,1,1,,1
w977185_TB,x2t665j4yl,Relational_NO_JOL,1,334,2020-05-07T01:25:11-07:00,5.5699021816254,4,versionC_stim.csv,READVersionD.csv,"Read Version D","Relational, read only version D",POSITION,MACHINE,Study1,U,76,40,Test,User,-,,Recall,Recall2,5301,bed,20,4843,5212,0,0,,1
w977185_TB,x2t665j4yl,Relational_NO_JOL,1,335,2020-05-07T01:25:16-07:00,4.9254298210144,4,versionC_stim.csv,READVersionD.csv,"Read Version D","Relational, read only version D",CARD,CREDIT,Study1,B,23,86,Test,User,-,,Recall,Recall2,4653,book,0,3724,4401,0,0,,1
w977185_TB,x2t665j4yl,Relational_NO_JOL,1,336,2020-05-07T01:25:21-07:00,4.776388168335,4,versionC_stim.csv,READVersionD.csv,"Read Version D","Relational, read only version D",ROCK,GEOLOGY,Study1,B,19,65,Test,User,-,,Recall,Recall2,4487,hard,0,3817,4414,0,0,,1
w977185_TB,x2t665j4yl,Relational_NO_JOL,1,337,2020-05-07T01:25:36-07:00,14.94356584549,4,versionC_stim.csv,READVersionD.csv,"Read Version D","Relational, read only version D",TALK,DISCUSSION,Study1,B,21,62,Test,User,-,,Recall,Recall2,14664,quiet,26.666666666667,13482,14476,0,0,,1
w977185_TB,x2t665j4yl,Relational_NO_JOL,1,338,2020-05-07T01:25:39-07:00,3.5058550834656,4,versionC_stim.csv,READVersionD.csv,"Read Version D","Relational, read only version D",ATTIRE,CLOTHES,Study1,F,43,72,Test,User,-,,Recall,Recall2,3215,cloths,92.307692307692,1906,2988,0,1,,1
w977185_TB,x2t665j4yl,Relational_NO_JOL,1,339,2020-05-07T01:25:43-07:00,3.746505022049,4,versionC_stim.csv,READVersionD.csv,"Read Version D","Relational, read only version D",BRONZE,ARTERY,Study1,U,74,67,Test,User,-,,Recall,Recall2,3484,metal,18.181818181818,1435,3137,0,0,,1
w977185_TB,x2t665j4yl,Relational_NO_JOL,1,340,2020-05-07T01:25:49-07:00,5.6836428642273,4,versionC_stim.csv,READVersionD.csv,"Read Version D","Relational, read only version D",BLAZE,FIRE,Study1,F,45,15,Test,User,-,,Recall,Recall2,5394,fire,100,1587,5265,1,1,,1
w977185_TB,x2t665j4yl,Relational_NO_JOL,1,341,2020-05-07T01:25:51-07:00,2.2737731933594,4,versionC_stim.csv,READVersionD.csv,"Read Version D","Relational, read only version D",BAD,DELINQUENT,Study1,B,6,48,Test,User,-,,Recall,Recall2,1983,good,14.285714285714,1345,1850,0,0,,1
w977185_TB,x2t665j4yl,Relational_NO_JOL,1,342,2020-05-07T01:25:58-07:00,7.3008489608765,4,versionC_stim.csv,READVersionD.csv,"Read Version D","Relational, read only version D",ENOUGH,FULL,Study1,F,26,75,Test,User,-,,Recall,Recall2,7015,idk,0,3262,6771,0,0,,1
w977185_TB,x2t665j4yl,Relational_NO_JOL,1,343,2020-05-07T01:26:01-07:00,2.6411259174347,4,versionC_stim.csv,READVersionD.csv,"Read Version D","Relational, read only version D",FISH,TUNA,Study1,B,25,58,Test,User,-,,Recall,Recall2,2386,tuna,100,1519,2201,1,1,,1
w977185_TB,x2t665j4yl,Relational_NO_JOL,1,344,2020-05-07T01:26:11-07:00,10.40313410759,4,versionC_stim.csv,READVersionD.csv,"Read Version D","Relational, read only version D",WAR,REVOLUTION,Study1,B,20,33,Test,User,-,,Recall,Recall2,10125,zone,28.571428571429,2453,9918,0,0,,1
w977185_TB,x2t665j4yl,Relational_NO_JOL,1,345,2020-05-07T01:26:14-07:00,2.7390649318695,4,versionC_stim.csv,READVersionD.csv,"Read Version D","Relational, read only version D",TOILET,BATHROOM,Study1,S,58,39,Test,User,-,,Recall,Recall2,2438,seat,33.333333333333,1471,2114,0,0,,1
w977185_TB,x2t665j4yl,Relational_NO_JOL,1,346,2020-05-07T01:26:22-07:00,7.6597709655762,4,versionC_stim.csv,READVersionD.csv,"Read Version D","Relational, read only version D",HUNGRY,PARK,Study1,U,68,9,Test,User,-,,Recall,Recall2,2865,eat,28.571428571429,1854,2679,0,0,,0.933
w977185_TB,x2t665j4yl,Relational_NO_JOL,1,347,2020-05-07T01:26:28-07:00,6.3197591304779,4,versionC_stim.csv,READVersionD.csv,"Read Version D","Relational, read only version D",SICK,HIDE,Study1,U,84,20,Test,User,-,,Recall,Recall2,6016,corona,0,2804,4974,0,0,,1
w977185_TB,x2t665j4yl,Relational_NO_JOL,1,348,2020-05-07T01:26:33-07:00,4.7886610031128,4,versionC_stim.csv,READVersionD.csv,"Read Version D","Relational, read only version D",BAR,GRILL,Study1,S,52,45,Test,User,-,,Recall,Recall2,3405,grill,100,2207,3094,1,1,,1
w977185_TB,x2t665j4yl,Relational_NO_JOL,1,349,2020-05-07T01:26:40-07:00,6.9364588260651,4,versionC_stim.csv,READVersionD.csv,"Read Version D","Relational, read only version D",END,BEGIN,Study1,S,54,25,Test,User,-,,Recall,Recall2,6655,"beginning ",71.428571428571,1740,6093,0,0,,1
w977185_TB,x2t665j4yl,Relational_NO_JOL,1,350,2020-05-07T01:26:47-07:00,6.9636790752411,4,versionC_stim.csv,READVersionD.csv,"Read Version D","Relational, read only version D",COLD,BITTER,Study1,B,12,66,Test,User,-,,Recall,Recall2,1778,hot,22.222222222222,1294,1577,0,0,,0.889
w977185_TB,x2t665j4yl,Relational_NO_JOL,1,351,2020-05-07T01:26:50-07:00,2.9852681159973,4,versionC_stim.csv,READVersionD.csv,"Read Version D","Relational, read only version D",FOOT,SHOE,Study1,S,60,24,Test,User,-,,Recall,Recall2,2707,leg,28.571428571429,2139,2553,0,0,,1
w977185_TB,x2t665j4yl,Relational_NO_JOL,1,352,2020-05-07T01:26:54-07:00,4.4956669807434,4,versionC_stim.csv,READVersionD.csv,"Read Version D","Relational, read only version D",NEWS,EDITOR,Study1,B,10,52,Test,User,-,,Recall,Recall2,4210,paper,36.363636363636,3241,3991,0,0,,1
w977185_TB,x2t665j4yl,Relational_NO_JOL,1,353,2020-05-07T01:26:57-07:00,2.4149188995361,4,versionC_stim.csv,READVersionD.csv,"Read Version D","Relational, read only version D",WASTE,DUMP,Study1,S,49,49,Test,User,-,,Recall,Recall2,2153,time,25,1317,1925,0,0,,1
w977185_TB,x2t665j4yl,Relational_NO_JOL,1,354,2020-05-07T01:26:58-07:00,1.8780090808868,4,versionC_stim.csv,READVersionD.csv,"Read Version D","Relational, read only version D",CAVE,DARK,Study1,F,28,43,Test,User,-,,Recall,Recall2,1634,man,28.571428571429,1182,1444,0,0,,1
w977185_TB,x2t665j4yl,Relational_NO_JOL,1,355,2020-05-07T01:27:00-07:00,1.8893358707428,4,versionC_stim.csv,READVersionD.csv,"Read Version D","Relational, read only version D",ATTORNEY,LAW,Study1,F,34,46,Test,User,-,,Recall,Recall2,1663,law,100,1158,1608,1,1,,1
w977185_TB,x2t665j4yl,Relational_NO_JOL,1,356,2020-05-07T01:27:03-07:00,3.1255040168762,4,versionC_stim.csv,READVersionD.csv,"Read Version D","Relational, read only version D",FLOOR,DISCOVER,Study1,U,71,68,Test,User,-,,Recall,Recall2,2846,house,30.769230769231,1875,2689,0,0,,1
w977185_TB,x2t665j4yl,Relational_NO_JOL,1,357,2020-05-07T01:27:06-07:00,2.3436801433563,4,versionC_stim.csv,READVersionD.csv,"Read Version D","Relational, read only version D",ASSIGNMENT,DUE,Study1,S,46,71,Test,User,-,,Recall,Recall2,2083,due,100,1512,1831,1,1,,1
w977185_TB,x2t665j4yl,Relational_NO_JOL,1,358,2020-05-07T01:27:08-07:00,2.7001748085022,4,versionC_stim.csv,READVersionD.csv,"Read Version D","Relational, read only version D",OUT,WAY,Study1,B,16,36,Test,User,-,,Recall,Recall2,2411,side,0,1695,2218,0,0,,1
w977185_TB,x2t665j4yl,Relational_NO_JOL,1,359,2020-05-07T01:27:11-07:00,2.8641359806061,4,versionC_stim.csv,READVersionD.csv,"Read Version D","Relational, read only version D",HAMMER,CHISEL,Study1,B,9,27,Test,User,-,,Recall,Recall2,2583,nail,40,1853,2358,0,0,,1
w977185_TB,x2t665j4yl,Relational_NO_JOL,1,360,2020-05-07T01:27:17-07:00,5.5683422088623,4,versionC_stim.csv,READVersionD.csv,"Read Version D","Relational, read only version D",STOMACH,DIGESTION,Study1,B,7,34,Test,User,-,,Recall,Recall2,5302,hungry,13.333333333333,3175,4910,0,0,,1
w977185_TB,x2t665j4yl,Relational_NO_JOL,1,361,2020-05-07T01:27:19-07:00,2.3983747959137,4,versionC_stim.csv,READVersionD.csv,"Read Version D","Relational, read only version D",,,,,,0,Instruct,User,-,"You have completed this section. Please press Enter.",,Instruct7,2140,,,-1,-1,,,,1
w977185_TB,x2t665j4yl,Relational_NO_JOL,1,362,2020-05-07T01:27:23-07:00,4.0973670482635,4,versionC_stim.csv,READVersionD.csv,"Read Version D","Relational, read only version D",,,,,,0,Instruct,User,-,"The following screen will ask you a few questions abour your experience today. You must complete these questions to receive credit.",,Instruct8,3826,,,-1,-1,,,,1
