Username,ID,ExperimentName,Session,Trial,Date,TimeDif,"Condition Number","Stimuli File","Order File","Condition Description","Condition Notes",Stimuli*Cue,Stimuli*Answer,Stimuli*Shuffle,"Stimuli*Stimuli Notes",Stimuli*Value,Procedure*Item,"Procedure*Trial Type","Procedure*Max Time","Procedure*Min Time",Procedure*Text,"Procedure*Procedure Notes",Procedure*Shuffle,Response*RT,Response*Response,Response*Accuracy,Response*RTfirst,Response*RTlast,Response*strictAcc,Response*lenientAcc,Response*focus,Response*Focus
w10020600_bmm,dnokd0cjlr,Relational_NO_JOL,1,1,2020-05-07T08:28:21-07:00,20.350082874298,1,versionA_stim.csv,READVersionA.csv,"Read Version A","Relational, read only version A",,,,,,0,Instruct,-,10,"In this section, you will be presented with a series of word pairs. Please study both items in the pair.",,Instruct13,20161,,,-1,-1,,,,1
w10020600_bmm,dnokd0cjlr,Relational_NO_JOL,1,2,2020-05-07T08:28:38-07:00,17.554563999176,1,versionA_stim.csv,READVersionA.csv,"Read Version A","Relational, read only version A",,,,,,0,Instruct,-,15,"As you study, please think about how the two concepts are RELATED to each other. For example, if you see the pair TURTLE-CAT, think about how both are alive, they are both animals, and both can be kept as pets.",,Instruct19,17298,,,-1,-1,,,,1
w10020600_bmm,dnokd0cjlr,Relational_NO_JOL,1,3,2020-05-07T08:29:50-07:00,71.644189119339,1,versionA_stim.csv,READVersionA.csv,"Read Version A","Relational, read only version A",,,,,,0,FreeRecall,-,10,"What you should think about as you study each item pair? Type your response in the box below.",,CHECK1,31590,"How they are related",0,5851,9621,0,0,,0.994
w10020600_bmm,dnokd0cjlr,Relational_NO_JOL,1,4,2020-05-07T08:30:00-07:00,10.331997871399,1,versionA_stim.csv,READVersionA.csv,"Read Version A","Relational, read only version A",,,,,,0,Instruct,User,-,"You will now begin the experiment. Press ENTER when you are ready to begin.",,Instruct000,10108,,,-1,-1,,,,1
w10020600_bmm,dnokd0cjlr,Relational_NO_JOL,1,5,2020-05-07T08:30:16-07:00,16.033017158508,1,versionA_stim.csv,READVersionA.csv,"Read Version A","Relational, read only version A",SCARE,HIDE,BUFFER1,Buffer,4,6,Study,User,-,,Study/JOL,BUFFER,15789,,,-1,-1,,,,1
w10020600_bmm,dnokd0cjlr,Relational_NO_JOL,1,6,2020-05-07T08:30:26-07:00,10.152498960495,1,versionA_stim.csv,READVersionA.csv,"Read Version A","Relational, read only version A",TREES,GREEN,BUFFER1,Buffer,1,3,Study,User,-,,Study/JOL,BUFFER,9920,,,-1,-1,,,,1
w10020600_bmm,dnokd0cjlr,Relational_NO_JOL,1,7,2020-05-07T08:30:35-07:00,8.9722218513489,1,versionA_stim.csv,READVersionA.csv,"Read Version A","Relational, read only version A",SPACE,JAM,BUFFER1,Buffer,5,2,Study,User,-,,Study/JOL,BUFFER,8699,,,-1,-1,,,,1
w10020600_bmm,dnokd0cjlr,Relational_NO_JOL,1,8,2020-05-07T08:30:49-07:00,13.437612056732,1,versionA_stim.csv,READVersionA.csv,"Read Version A","Relational, read only version A",BASEBALL,CATCHER,BUFFER1,Buffer,2,4,Study,User,-,,Study/JOL,BUFFER,13194,,,-1,-1,,,,1
w10020600_bmm,dnokd0cjlr,Relational_NO_JOL,1,9,2020-05-07T08:31:01-07:00,12.058504104614,1,versionA_stim.csv,READVersionA.csv,"Read Version A","Relational, read only version A",PEANUT,BUTTER,BUFFER1,Buffer,3,5,Study,User,-,,Study/JOL,BUFFER,11827,,,-1,-1,,,,1
w10020600_bmm,dnokd0cjlr,Relational_NO_JOL,1,10,2020-05-07T08:31:10-07:00,9.3897340297699,1,versionA_stim.csv,READVersionA.csv,"Read Version A","Relational, read only version A",SUGAR,RIDDLE,Study1,U,81,75,Study,User,-,,Study/JOL,"Study Phase",9148,,,-1,-1,,,,1
w10020600_bmm,dnokd0cjlr,Relational_NO_JOL,1,11,2020-05-07T08:31:27-07:00,16.862031936646,1,versionA_stim.csv,READVersionA.csv,"Read Version A","Relational, read only version A",ORCHID,FLOWER,Study1,F,24,13,Study,User,-,,Study/JOL,"Study Phase",16623,,,-1,-1,,,,1
w10020600_bmm,dnokd0cjlr,Relational_NO_JOL,1,12,2020-05-07T08:31:49-07:00,21.539937019348,1,versionA_stim.csv,READVersionA.csv,"Read Version A","Relational, read only version A",HEIGHT,GROWTH,Study1,B,30,29,Study,User,-,,Study/JOL,"Study Phase",8745,,,-1,-1,,,,0.977
w10020600_bmm,dnokd0cjlr,Relational_NO_JOL,1,13,2020-05-07T08:31:56-07:00,7.7335510253906,1,versionA_stim.csv,READVersionA.csv,"Read Version A","Relational, read only version A",MATH,DIVISION,Study1,B,33,70,Study,User,-,,Study/JOL,"Study Phase",7478,,,-1,-1,,,,1
w10020600_bmm,dnokd0cjlr,Relational_NO_JOL,1,14,2020-05-07T08:32:04-07:00,7.7555708885193,1,versionA_stim.csv,READVersionA.csv,"Read Version A","Relational, read only version A",TAKE,SEIZE,Study1,B,29,57,Study,User,-,,Study/JOL,"Study Phase",7511,,,-1,-1,,,,1
w10020600_bmm,dnokd0cjlr,Relational_NO_JOL,1,15,2020-05-07T08:32:10-07:00,5.4719529151917,1,versionA_stim.csv,READVersionA.csv,"Read Version A","Relational, read only version A",LOCATION,SITE,Study1,S,48,16,Study,User,-,,Study/JOL,"Study Phase",5243,,,-1,-1,,,,1
w10020600_bmm,dnokd0cjlr,Relational_NO_JOL,1,16,2020-05-07T08:32:19-07:00,8.888001203537,1,versionA_stim.csv,READVersionA.csv,"Read Version A","Relational, read only version A",PAW,DOG,Study1,F,15,47,Study,User,-,,Study/JOL,"Study Phase",8645,,,-1,-1,,,,1
w10020600_bmm,dnokd0cjlr,Relational_NO_JOL,1,17,2020-05-07T08:32:35-07:00,16.688210964203,1,versionA_stim.csv,READVersionA.csv,"Read Version A","Relational, read only version A",ARCHITECTURE,DESIGN,Study1,S,51,38,Study,User,-,,Study/JOL,"Study Phase",1358,,,-1,-1,,,,0.857
w10020600_bmm,dnokd0cjlr,Relational_NO_JOL,1,18,2020-05-07T08:32:56-07:00,20.537864923477,1,versionA_stim.csv,READVersionA.csv,"Read Version A","Relational, read only version A",WAY,OUT,Study1,F,16,62,Study,User,-,,Study/JOL,"Study Phase",20302,,,-1,-1,,,,1
w10020600_bmm,dnokd0cjlr,Relational_NO_JOL,1,19,2020-05-07T08:33:01-07:00,5.1823949813843,1,versionA_stim.csv,READVersionA.csv,"Read Version A","Relational, read only version A",GRILL,BAR,Study1,S,52,84,Study,User,-,,Study/JOL,"Study Phase",4936,,,-1,-1,,,,1
w10020600_bmm,dnokd0cjlr,Relational_NO_JOL,1,20,2020-05-07T08:33:14-07:00,13.042469024658,1,versionA_stim.csv,READVersionA.csv,"Read Version A","Relational, read only version A",HORNET,STING,Study1,F,11,32,Study,User,-,,Study/JOL,"Study Phase",3515,,,-1,-1,,,,0.944
w10020600_bmm,dnokd0cjlr,Relational_NO_JOL,1,21,2020-05-07T08:33:21-07:00,7.4628479480743,1,versionA_stim.csv,READVersionA.csv,"Read Version A","Relational, read only version A",ARTERY,BRONZE,Study1,U,74,66,Study,User,-,,Study/JOL,"Study Phase",7222,,,-1,-1,,,,1
w10020600_bmm,dnokd0cjlr,Relational_NO_JOL,1,22,2020-05-07T08:33:31-07:00,9.8569490909576,1,versionA_stim.csv,READVersionA.csv,"Read Version A","Relational, read only version A",BUG,WASP,Study1,B,32,34,Study,User,-,,Study/JOL,"Study Phase",9608,,,-1,-1,,,,1
w10020600_bmm,dnokd0cjlr,Relational_NO_JOL,1,23,2020-05-07T08:33:40-07:00,8.6912529468536,1,versionA_stim.csv,READVersionA.csv,"Read Version A","Relational, read only version A",HIDE,SICK,Study1,U,84,10,Study,User,-,,Study/JOL,"Study Phase",8434,,,-1,-1,,,,1
w10020600_bmm,dnokd0cjlr,Relational_NO_JOL,1,24,2020-05-07T08:33:50-07:00,10.424679994583,1,versionA_stim.csv,READVersionA.csv,"Read Version A","Relational, read only version A",DIETARY,SACKING,Study1,U,67,58,Study,User,-,,Study/JOL,"Study Phase",10177,,,-1,-1,,,,1
w10020600_bmm,dnokd0cjlr,Relational_NO_JOL,1,25,2020-05-07T08:33:57-07:00,6.7439489364624,1,versionA_stim.csv,READVersionA.csv,"Read Version A","Relational, read only version A",SWAN,BIRD,Study1,F,14,56,Study,User,-,,Study/JOL,"Study Phase",6467,,,-1,-1,,,,1
w10020600_bmm,dnokd0cjlr,Relational_NO_JOL,1,26,2020-05-07T08:34:12-07:00,15.054066181183,1,versionA_stim.csv,READVersionA.csv,"Read Version A","Relational, read only version A",CIRCLE,ROUND,Study1,S,65,35,Study,User,-,,Study/JOL,"Study Phase",1513,,,-1,-1,,,,0.875
w10020600_bmm,dnokd0cjlr,Relational_NO_JOL,1,27,2020-05-07T08:34:21-07:00,9.0835049152374,1,versionA_stim.csv,READVersionA.csv,"Read Version A","Relational, read only version A",NUMBER,AMOUNT,Study1,S,47,27,Study,User,-,,Study/JOL,"Study Phase",8828,,,-1,-1,,,,1
w10020600_bmm,dnokd0cjlr,Relational_NO_JOL,1,28,2020-05-07T08:34:30-07:00,8.7719089984894,1,versionA_stim.csv,READVersionA.csv,"Read Version A","Relational, read only version A",CHISEL,HAMMER,Study1,F,9,44,Study,User,-,,Study/JOL,"Study Phase",8524,,,-1,-1,,,,1
w10020600_bmm,dnokd0cjlr,Relational_NO_JOL,1,29,2020-05-07T08:34:36-07:00,5.5516600608826,1,versionA_stim.csv,READVersionA.csv,"Read Version A","Relational, read only version A",BLOW,WIND,Study1,S,55,12,Study,User,-,,Study/JOL,"Study Phase",5309,,,-1,-1,,,,1
w10020600_bmm,dnokd0cjlr,Relational_NO_JOL,1,30,2020-05-07T08:34:49-07:00,13.395145893097,1,versionA_stim.csv,READVersionA.csv,"Read Version A","Relational, read only version A",PARK,HUNGRY,Study1,U,68,64,Study,User,-,,Study/JOL,"Study Phase",1443,,,-1,-1,,,,0.875
w10020600_bmm,dnokd0cjlr,Relational_NO_JOL,1,31,2020-05-07T08:34:54-07:00,4.8526139259338,1,versionA_stim.csv,READVersionA.csv,"Read Version A","Relational, read only version A",ART,LION,Study1,U,79,24,Study,User,-,,Study/JOL,"Study Phase",4614,,,-1,-1,,,,1
w10020600_bmm,dnokd0cjlr,Relational_NO_JOL,1,32,2020-05-07T08:35:04-07:00,10.104457139969,1,versionA_stim.csv,READVersionA.csv,"Read Version A","Relational, read only version A",GEOLOGY,ROCK,Study1,F,19,15,Study,User,-,,Study/JOL,"Study Phase",9858,,,-1,-1,,,,1
w10020600_bmm,dnokd0cjlr,Relational_NO_JOL,1,33,2020-05-07T08:35:11-07:00,7.3720860481262,1,versionA_stim.csv,READVersionA.csv,"Read Version A","Relational, read only version A",EDITOR,NEWS,Study1,F,10,18,Study,User,-,,Study/JOL,"Study Phase",7118,,,-1,-1,,,,1
w10020600_bmm,dnokd0cjlr,Relational_NO_JOL,1,34,2020-05-07T08:35:20-07:00,8.217376947403,1,versionA_stim.csv,READVersionA.csv,"Read Version A","Relational, read only version A",BALL,RACKET,Study1,B,38,25,Study,User,-,,Study/JOL,"Study Phase",7016,,,-1,-1,,,,1
w10020600_bmm,dnokd0cjlr,Relational_NO_JOL,1,35,2020-05-07T08:35:30-07:00,10.82340502739,1,versionA_stim.csv,READVersionA.csv,"Read Version A","Relational, read only version A",SMELL,STENCH,Study1,B,42,41,Study,User,-,,Study/JOL,"Study Phase",10585,,,-1,-1,,,,1
w10020600_bmm,dnokd0cjlr,Relational_NO_JOL,1,36,2020-05-07T08:35:37-07:00,6.2426989078522,1,versionA_stim.csv,READVersionA.csv,"Read Version A","Relational, read only version A",VALLEY,ADD,Study1,U,82,67,Study,User,-,,Study/JOL,"Study Phase",5991,,,-1,-1,,,,1
w10020600_bmm,dnokd0cjlr,Relational_NO_JOL,1,37,2020-05-07T08:35:49-07:00,12.188523054123,1,versionA_stim.csv,READVersionA.csv,"Read Version A","Relational, read only version A",FULL,ENOUGH,Study1,B,26,17,Study,User,-,,Study/JOL,"Study Phase",1398,,,-1,-1,,,,0.857
w10020600_bmm,dnokd0cjlr,Relational_NO_JOL,1,38,2020-05-07T08:35:55-07:00,6.2132890224457,1,versionA_stim.csv,READVersionA.csv,"Read Version A","Relational, read only version A",HUNGER,FAMINE,Study1,B,40,31,Study,User,-,,Study/JOL,"Study Phase",5978,,,-1,-1,,,,1
w10020600_bmm,dnokd0cjlr,Relational_NO_JOL,1,39,2020-05-07T08:36:05-07:00,9.8342580795288,1,versionA_stim.csv,READVersionA.csv,"Read Version A","Relational, read only version A",KIDNEY,LIVER,Study1,S,53,9,Study,User,-,,Study/JOL,"Study Phase",9566,,,-1,-1,,,,1
w10020600_bmm,dnokd0cjlr,Relational_NO_JOL,1,40,2020-05-07T08:36:14-07:00,8.6612229347229,1,versionA_stim.csv,READVersionA.csv,"Read Version A","Relational, read only version A",LAW,ATTORNEY,Study1,B,34,51,Study,User,-,,Study/JOL,"Study Phase",8406,,,-1,-1,,,,1
w10020600_bmm,dnokd0cjlr,Relational_NO_JOL,1,41,2020-05-07T08:36:18-07:00,4.6342170238495,1,versionA_stim.csv,READVersionA.csv,"Read Version A","Relational, read only version A",DRINK,SIP,Study1,B,27,8,Study,User,-,,Study/JOL,"Study Phase",4377,,,-1,-1,,,,1
w10020600_bmm,dnokd0cjlr,Relational_NO_JOL,1,42,2020-05-07T08:36:29-07:00,10.477571964264,1,versionA_stim.csv,READVersionA.csv,"Read Version A","Relational, read only version A",PAST,FUTURE,Study1,S,61,40,Study,User,-,,Study/JOL,"Study Phase",10224,,,-1,-1,,,,1
w10020600_bmm,dnokd0cjlr,Relational_NO_JOL,1,43,2020-05-07T08:36:36-07:00,7.6666090488434,1,versionA_stim.csv,READVersionA.csv,"Read Version A","Relational, read only version A",LIFT,WOMAN,Study1,U,69,21,Study,User,-,,Study/JOL,"Study Phase",7420,,,-1,-1,,,,1
w10020600_bmm,dnokd0cjlr,Relational_NO_JOL,1,44,2020-05-07T08:36:42-07:00,5.5525069236755,1,versionA_stim.csv,READVersionA.csv,"Read Version A","Relational, read only version A",,,,,,0,Instruct,-,3,"Remember to focus on how the two items are similiar while you study!",,CHECK2,5313,,,-1,-1,,,,1
w10020600_bmm,dnokd0cjlr,Relational_NO_JOL,1,45,2020-05-07T08:36:51-07:00,8.7201008796692,1,versionA_stim.csv,READVersionA.csv,"Read Version A","Relational, read only version A",STRONG,ACCIDENT,Study1,U,80,60,Study,User,-,,Study/JOL,"Study Phase",8489,,,-1,-1,,,,1
w10020600_bmm,dnokd0cjlr,Relational_NO_JOL,1,46,2020-05-07T08:37:02-07:00,11.739737033844,1,versionA_stim.csv,READVersionA.csv,"Read Version A","Relational, read only version A",FIRE,BLAZE,Study1,B,45,52,Study,User,-,,Study/JOL,"Study Phase",2919,,,-1,-1,,,,0.933
w10020600_bmm,dnokd0cjlr,Relational_NO_JOL,1,47,2020-05-07T08:37:07-07:00,4.4464221000671,1,versionA_stim.csv,READVersionA.csv,"Read Version A","Relational, read only version A",BEGIN,END,Study1,S,54,36,Study,User,-,,Study/JOL,"Study Phase",4194,,,-1,-1,,,,1
w10020600_bmm,dnokd0cjlr,Relational_NO_JOL,1,48,2020-05-07T08:37:14-07:00,7.4093160629272,1,versionA_stim.csv,READVersionA.csv,"Read Version A","Relational, read only version A",BITTER,COLD,Study1,F,12,19,Study,User,-,,Study/JOL,"Study Phase",7152,,,-1,-1,,,,1
w10020600_bmm,dnokd0cjlr,Relational_NO_JOL,1,49,2020-05-07T08:37:21-07:00,7.2464089393616,1,versionA_stim.csv,READVersionA.csv,"Read Version A","Relational, read only version A",DIGESTION,STOMACH,Study1,F,7,37,Study,User,-,,Study/JOL,"Study Phase",6997,,,-1,-1,,,,1
w10020600_bmm,dnokd0cjlr,Relational_NO_JOL,1,50,2020-05-07T08:37:26-07:00,4.8941509723663,1,versionA_stim.csv,READVersionA.csv,"Read Version A","Relational, read only version A",BABY,CHILD,Study1,S,64,80,Study,User,-,,Study/JOL,"Study Phase",3659,,,-1,-1,,,,1
w10020600_bmm,dnokd0cjlr,Relational_NO_JOL,1,51,2020-05-07T08:37:37-07:00,10.403302907944,1,versionA_stim.csv,READVersionA.csv,"Read Version A","Relational, read only version A",DUMP,WASTE,Study1,S,49,83,Study,User,-,,Study/JOL,"Study Phase",6427,,,-1,-1,,,,1
w10020600_bmm,dnokd0cjlr,Relational_NO_JOL,1,52,2020-05-07T08:37:46-07:00,9.7467260360718,1,versionA_stim.csv,READVersionA.csv,"Read Version A","Relational, read only version A",WINE,CHEESE,Study1,S,57,59,Study,User,-,,Study/JOL,"Study Phase",9514,,,-1,-1,,,,1
w10020600_bmm,dnokd0cjlr,Relational_NO_JOL,1,53,2020-05-07T08:37:52-07:00,5.8730700016022,1,versionA_stim.csv,READVersionA.csv,"Read Version A","Relational, read only version A",DARK,CAVE,Study1,B,28,74,Study,User,-,,Study/JOL,"Study Phase",5637,,,-1,-1,,,,1
w10020600_bmm,dnokd0cjlr,Relational_NO_JOL,1,54,2020-05-07T08:38:15-07:00,22.748289108276,1,versionA_stim.csv,READVersionA.csv,"Read Version A","Relational, read only version A",FIX,HAND,Study1,U,75,65,Study,User,-,,Study/JOL,"Study Phase",3160,,,-1,-1,,,,1
w10020600_bmm,dnokd0cjlr,Relational_NO_JOL,1,55,2020-05-07T08:38:26-07:00,10.645628929138,1,versionA_stim.csv,READVersionA.csv,"Read Version A","Relational, read only version A",HERD,COW,Study1,F,22,30,Study,User,-,,Study/JOL,"Study Phase",10404,,,-1,-1,,,,1
w10020600_bmm,dnokd0cjlr,Relational_NO_JOL,1,56,2020-05-07T08:38:38-07:00,11.9151699543,1,versionA_stim.csv,READVersionA.csv,"Read Version A","Relational, read only version A",CREDIT,CARD,Study1,F,23,7,Study,User,-,,Study/JOL,"Study Phase",1299,,,-1,-1,,,,0.857
w10020600_bmm,dnokd0cjlr,Relational_NO_JOL,1,57,2020-05-07T08:38:47-07:00,8.9522271156311,1,versionA_stim.csv,READVersionA.csv,"Read Version A","Relational, read only version A",DISCOVER,FLOOR,Study1,U,71,22,Study,User,-,,Study/JOL,"Study Phase",2962,,,-1,-1,,,,0.933
w10020600_bmm,dnokd0cjlr,Relational_NO_JOL,1,58,2020-05-07T08:39:08-07:00,21.144706964493,1,versionA_stim.csv,READVersionA.csv,"Read Version A","Relational, read only version A",TRIAL,JURY,Study1,S,50,68,Study,User,-,,Study/JOL,"Study Phase",13952,,,-1,-1,,,,0.986
w10020600_bmm,dnokd0cjlr,Relational_NO_JOL,1,59,2020-05-07T08:39:15-07:00,7.3704409599304,1,versionA_stim.csv,READVersionA.csv,"Read Version A","Relational, read only version A",BATHROOM,TOILET,Study1,S,58,69,Study,User,-,,Study/JOL,"Study Phase",1306,,,-1,-1,,,,0.857
w10020600_bmm,dnokd0cjlr,Relational_NO_JOL,1,60,2020-05-07T08:39:21-07:00,5.7252309322357,1,versionA_stim.csv,READVersionA.csv,"Read Version A","Relational, read only version A",HONEY,BEE,Study1,S,63,78,Study,User,-,,Study/JOL,"Study Phase",5486,,,-1,-1,,,,1
w10020600_bmm,dnokd0cjlr,Relational_NO_JOL,1,61,2020-05-07T08:39:24-07:00,3.4867432117462,1,versionA_stim.csv,READVersionA.csv,"Read Version A","Relational, read only version A",DUE,ASSIGNMENT,Study1,S,46,54,Study,User,-,,Study/JOL,"Study Phase",3243,,,-1,-1,,,,1
w10020600_bmm,dnokd0cjlr,Relational_NO_JOL,1,62,2020-05-07T08:39:32-07:00,7.4386558532715,1,versionA_stim.csv,READVersionA.csv,"Read Version A","Relational, read only version A",HOT,CHILI,Study1,B,37,20,Study,User,-,,Study/JOL,"Study Phase",1260,,,-1,-1,,,,0.857
w10020600_bmm,dnokd0cjlr,Relational_NO_JOL,1,63,2020-05-07T08:39:40-07:00,8.2195930480957,1,versionA_stim.csv,READVersionA.csv,"Read Version A","Relational, read only version A",PUSHER,CLUTTER,Study1,U,66,82,Study,User,-,,Study/JOL,"Study Phase",1132,,,-1,-1,,,,0.833
w10020600_bmm,dnokd0cjlr,Relational_NO_JOL,1,64,2020-05-07T08:39:45-07:00,5.1004779338837,1,versionA_stim.csv,READVersionA.csv,"Read Version A","Relational, read only version A",GREAT,FANTASTIC,Study1,B,35,85,Study,User,-,,Study/JOL,"Study Phase",4341,,,-1,-1,,,,1
w10020600_bmm,dnokd0cjlr,Relational_NO_JOL,1,65,2020-05-07T08:39:49-07:00,4.3918600082397,1,versionA_stim.csv,READVersionA.csv,"Read Version A","Relational, read only version A",SENTENCE,WORD,Study1,B,31,39,Study,User,-,,Study/JOL,"Study Phase",3709,,,-1,-1,,,,1
w10020600_bmm,dnokd0cjlr,Relational_NO_JOL,1,66,2020-05-07T08:39:58-07:00,8.7100040912628,1,versionA_stim.csv,READVersionA.csv,"Read Version A","Relational, read only version A",ALLOW,TUCK,Study1,U,78,26,Study,User,-,,Study/JOL,"Study Phase",1153,,,-1,-1,,,,0.833
w10020600_bmm,dnokd0cjlr,Relational_NO_JOL,1,67,2020-05-07T08:40:04-07:00,5.4928698539734,1,versionA_stim.csv,READVersionA.csv,"Read Version A","Relational, read only version A",MEANING,DEFINITION,Study1,S,62,46,Study,User,-,,Study/JOL,"Study Phase",5251,,,-1,-1,,,,1
w10020600_bmm,dnokd0cjlr,Relational_NO_JOL,1,68,2020-05-07T08:40:07-07:00,3.0828521251678,1,versionA_stim.csv,READVersionA.csv,"Read Version A","Relational, read only version A",SHOE,FOOT,Study1,S,60,76,Study,User,-,,Study/JOL,"Study Phase",2832,,,-1,-1,,,,1
w10020600_bmm,dnokd0cjlr,Relational_NO_JOL,1,69,2020-05-07T08:40:11-07:00,4.4143130779266,1,versionA_stim.csv,READVersionA.csv,"Read Version A","Relational, read only version A",POP,SODA,Study1,S,56,81,Study,User,-,,Study/JOL,"Study Phase",3500,,,-1,-1,,,,1
w10020600_bmm,dnokd0cjlr,Relational_NO_JOL,1,70,2020-05-07T08:40:22-07:00,11.261865854263,1,versionA_stim.csv,READVersionA.csv,"Read Version A","Relational, read only version A",SOON,BELT,Study1,U,70,55,Study,User,-,,Study/JOL,"Study Phase",11012,,,-1,-1,,,,1
w10020600_bmm,dnokd0cjlr,Relational_NO_JOL,1,71,2020-05-07T08:40:25-07:00,2.4077749252319,1,versionA_stim.csv,READVersionA.csv,"Read Version A","Relational, read only version A",DELINQUENT,BAD,Study1,F,6,72,Study,User,-,,Study/JOL,"Study Phase",2162,,,-1,-1,,,,1
w10020600_bmm,dnokd0cjlr,Relational_NO_JOL,1,72,2020-05-07T08:40:32-07:00,7.4468581676483,1,versionA_stim.csv,READVersionA.csv,"Read Version A","Relational, read only version A",PLANE,PILOT,Study1,B,44,28,Study,User,-,,Study/JOL,"Study Phase",1651,,,-1,-1,,,,0.889
w10020600_bmm,dnokd0cjlr,Relational_NO_JOL,1,73,2020-05-07T08:40:45-07:00,12.767309904099,1,versionA_stim.csv,READVersionA.csv,"Read Version A","Relational, read only version A",DEBATE,SIGHT,Study1,U,73,14,Study,User,-,,Study/JOL,"Study Phase",991,,,-1,-1,,,,0.8
w10020600_bmm,dnokd0cjlr,Relational_NO_JOL,1,74,2020-05-07T08:40:57-07:00,11.791612148285,1,versionA_stim.csv,READVersionA.csv,"Read Version A","Relational, read only version A",WORK,CHORE,Study1,B,39,33,Study,User,-,,Study/JOL,"Study Phase",11318,,,-1,-1,,,,1
w10020600_bmm,dnokd0cjlr,Relational_NO_JOL,1,75,2020-05-07T08:41:27-07:00,29.721783876419,1,versionA_stim.csv,READVersionA.csv,"Read Version A","Relational, read only version A",HYGIENE,CLEAN,Study1,F,17,48,Study,User,-,,Study/JOL,"Study Phase",6325,,,-1,-1,,,,1
w10020600_bmm,dnokd0cjlr,Relational_NO_JOL,1,76,2020-05-07T08:41:41-07:00,14.399974107742,1,versionA_stim.csv,READVersionA.csv,"Read Version A","Relational, read only version A",WAGE,MONEY,Study1,F,8,45,Study,User,-,,Study/JOL,"Study Phase",1349,,,-1,-1,,,,0.857
w10020600_bmm,dnokd0cjlr,Relational_NO_JOL,1,77,2020-05-07T08:41:54-07:00,12.994516849518,1,versionA_stim.csv,READVersionA.csv,"Read Version A","Relational, read only version A",SLEEP,DROWSY,Study1,B,41,86,Study,User,-,,Study/JOL,"Study Phase",1104,,,-1,-1,,,,0.833
w10020600_bmm,dnokd0cjlr,Relational_NO_JOL,1,78,2020-05-07T08:42:01-07:00,6.9100911617279,1,versionA_stim.csv,READVersionA.csv,"Read Version A","Relational, read only version A",DISCUSSION,TALK,Study1,F,21,61,Study,User,-,,Study/JOL,"Study Phase",6687,,,-1,-1,,,,1
w10020600_bmm,dnokd0cjlr,Relational_NO_JOL,1,79,2020-05-07T08:42:11-07:00,9.9953508377075,1,versionA_stim.csv,READVersionA.csv,"Read Version A","Relational, read only version A",REVOLUTION,WAR,Study1,F,20,71,Study,User,-,,Study/JOL,"Study Phase",1281,,,-1,-1,,,,0.857
w10020600_bmm,dnokd0cjlr,Relational_NO_JOL,1,80,2020-05-07T08:42:15-07:00,4.1840970516205,1,versionA_stim.csv,READVersionA.csv,"Read Version A","Relational, read only version A",KING,VASE,Study1,U,85,53,Study,User,-,,Study/JOL,"Study Phase",3930,,,-1,-1,,,,1
w10020600_bmm,dnokd0cjlr,Relational_NO_JOL,1,81,2020-05-07T08:42:25-07:00,9.9308879375458,1,versionA_stim.csv,READVersionA.csv,"Read Version A","Relational, read only version A",MACHINE,POSITION,Study1,U,76,23,Study,User,-,,Study/JOL,"Study Phase",717,,,-1,-1,,,,0.75
w10020600_bmm,dnokd0cjlr,Relational_NO_JOL,1,82,2020-05-07T08:42:30-07:00,5.1584839820862,1,versionA_stim.csv,READVersionA.csv,"Read Version A","Relational, read only version A",CASH,WOULD,Study1,U,83,79,Study,User,-,,Study/JOL,"Study Phase",4798,,,-1,-1,,,,1
w10020600_bmm,dnokd0cjlr,Relational_NO_JOL,1,83,2020-05-07T08:42:36-07:00,6.1146790981293,1,versionA_stim.csv,READVersionA.csv,"Read Version A","Relational, read only version A",DEATH,BUSINESS,Study1,U,72,50,Study,User,-,,Study/JOL,"Study Phase",5865,,,-1,-1,,,,1
w10020600_bmm,dnokd0cjlr,Relational_NO_JOL,1,84,2020-05-07T08:42:45-07:00,8.8536279201508,1,versionA_stim.csv,READVersionA.csv,"Read Version A","Relational, read only version A",KEY,LATCH,Study1,B,36,63,Study,User,-,,Study/JOL,"Study Phase",896,,,-1,-1,,,,0.8
w10020600_bmm,dnokd0cjlr,Relational_NO_JOL,1,85,2020-05-07T08:42:49-07:00,3.6088261604309,1,versionA_stim.csv,READVersionA.csv,"Read Version A","Relational, read only version A",BRIDGE,WATER,Study1,F,18,42,Study,User,-,,Study/JOL,"Study Phase",3350,,,-1,-1,,,,1
w10020600_bmm,dnokd0cjlr,Relational_NO_JOL,1,86,2020-05-07T08:42:57-07:00,7.9391758441925,1,versionA_stim.csv,READVersionA.csv,"Read Version A","Relational, read only version A",LETTUCE,SALAD,Study1,S,59,11,Study,User,-,,Study/JOL,"Study Phase",7691,,,-1,-1,,,,1
w10020600_bmm,dnokd0cjlr,Relational_NO_JOL,1,87,2020-05-07T08:43:04-07:00,7.2637331485748,1,versionA_stim.csv,READVersionA.csv,"Read Version A","Relational, read only version A",TUNA,FISH,Study1,F,25,73,Study,User,-,,Study/JOL,"Study Phase",6999,,,-1,-1,,,,1
w10020600_bmm,dnokd0cjlr,Relational_NO_JOL,1,88,2020-05-07T08:43:19-07:00,14.784632921219,1,versionA_stim.csv,READVersionA.csv,"Read Version A","Relational, read only version A",CLOTHES,ATTIRE,Study1,B,43,43,Study,User,-,,Study/JOL,"Study Phase",14537,,,-1,-1,,,,1
w10020600_bmm,dnokd0cjlr,Relational_NO_JOL,1,89,2020-05-07T08:43:28-07:00,9.6139409542084,1,versionA_stim.csv,READVersionA.csv,"Read Version A","Relational, read only version A",HAPPY,CAR,Study1,U,77,49,Study,User,-,,Study/JOL,"Study Phase",922,,,-1,-1,,,,0.8
w10020600_bmm,dnokd0cjlr,Relational_NO_JOL,1,90,2020-05-07T08:43:37-07:00,8.5160620212555,1,versionA_stim.csv,READVersionA.csv,"Read Version A","Relational, read only version A",ROOT,PLANT,Study1,F,13,77,Study,User,-,,Study/JOL,"Study Phase",3641,,,-1,-1,,,,0.947
w10020600_bmm,dnokd0cjlr,Relational_NO_JOL,1,91,2020-05-07T08:43:45-07:00,8.179582118988,1,versionA_stim.csv,READVersionA.csv,"Read Version A","Relational, read only version A",SHERRIF,POLICE,BUFFER2,Buffer,87,88,Study,User,-,,Study/JOL,BUFFER2,6937,,,-1,-1,,,,1
w10020600_bmm,dnokd0cjlr,Relational_NO_JOL,1,92,2020-05-07T08:43:59-07:00,13.863896846771,1,versionA_stim.csv,READVersionA.csv,"Read Version A","Relational, read only version A",MOON,SPACE,BUFFER2,Buffer,89,87,Study,User,-,,Study/JOL,BUFFER2,10792,,,-1,-1,,,,1
w10020600_bmm,dnokd0cjlr,Relational_NO_JOL,1,93,2020-05-07T08:44:07-07:00,7.665796995163,1,versionA_stim.csv,READVersionA.csv,"Read Version A","Relational, read only version A",MALT,CHOCOLATE,BUFFER2,Buffer,88,90,Study,User,-,,Study/JOL,BUFFER2,780,,,-1,-1,,,,0.75
w10020600_bmm,dnokd0cjlr,Relational_NO_JOL,1,94,2020-05-07T08:44:13-07:00,6.7818620204926,1,versionA_stim.csv,READVersionA.csv,"Read Version A","Relational, read only version A",THING,STUFF,BUFFER2,Buffer,90,91,Study,User,-,,Study/JOL,BUFFER2,6535,,,-1,-1,,,,1
w10020600_bmm,dnokd0cjlr,Relational_NO_JOL,1,95,2020-05-07T08:44:20-07:00,6.8735680580139,1,versionA_stim.csv,READVersionA.csv,"Read Version A","Relational, read only version A",GEESE,GOOSE,BUFFER2,Buffer,86,89,Study,User,-,,Study/JOL,BUFFER2,6623,,,-1,-1,,,,1
w10020600_bmm,dnokd0cjlr,Relational_NO_JOL,1,96,2020-05-07T08:44:26-07:00,5.9957010746002,1,versionA_stim.csv,READVersionA.csv,"Read Version A","Relational, read only version A",,,,,,0,Instruct,User,-,"You have completed this section. Please press Enter.",Filler_Instruction,Instruct2,925,,,-1,-1,,,,0.8
w10020600_bmm,dnokd0cjlr,Relational_NO_JOL,1,97,2020-05-07T08:44:31-07:00,4.4168088436127,1,versionA_stim.csv,READVersionA.csv,"Read Version A","Relational, read only version A",,,,,,0,Instruct,User,-,"You have completed this section. Please press Enter.",Filler_Instruction,Instruct5,4155,,,-1,-1,,,,1
w10020600_bmm,dnokd0cjlr,Relational_NO_JOL,1,98,2020-05-07T08:44:58-07:00,27.441755056381,1,versionA_stim.csv,READVersionA.csv,"Read Version A","Relational, read only version A",,,,,,0,FreeRecall,-,10,"What were you supposed to focus on while you studied each pair? (Hint: Think back to the instructions). Type your answer in the space below.",,CHECK3,27188,"How the pairs were similar",0,11467,18937,0,0,,1
w10020600_bmm,dnokd0cjlr,Relational_NO_JOL,1,99,2020-05-07T08:47:03-07:00,124.89074492455,1,versionA_stim.csv,READVersionA.csv,"Read Version A","Relational, read only version A",,,,,,0,FreeRecall,120,120,"Please list the 50 US states in alphabetical order. The task will automatically advance to the next screen after two minutes.",,Filler1,120004,"Alabama Alaska Arizona Arkansas California Colorado Connecticut Delaware Florida Georgia Hawaii Idaho Illinois Indiana Iowa Kansas Kentucky ",0,18342,117436,0,0,,1
w10020600_bmm,dnokd0cjlr,Relational_NO_JOL,1,100,2020-05-07T08:47:15-07:00,12.014940023422,1,versionA_stim.csv,READVersionA.csv,"Read Version A","Relational, read only version A",,,,,,0,Instruct,-,10,"You will now be presented with the first word from each of the previously studied item pairs. Please type the missing word. If you do not know the word, you may guess or press Enter to skip forward to the next pair.",,Instruct3,11766,,,-1,-1,,,,1
w10020600_bmm,dnokd0cjlr,Relational_NO_JOL,1,101,2020-05-07T08:47:30-07:00,14.678950071335,1,versionA_stim.csv,READVersionA.csv,"Read Version A","Relational, read only version A",ARCHITECTURE,DESIGN,Study1,S,51,38,Test,User,-,,Recall,Recall1,3669,geology,15.384615384615,1226,2291,0,0,,0.947
w10020600_bmm,dnokd0cjlr,Relational_NO_JOL,1,102,2020-05-07T08:47:40-07:00,10.578638076782,1,versionA_stim.csv,READVersionA.csv,"Read Version A","Relational, read only version A",EDITOR,NEWS,Study1,F,10,18,Test,User,-,,Recall,Recall1,10323,book,0,8010,8808,0,0,,1
w10020600_bmm,dnokd0cjlr,Relational_NO_JOL,1,103,2020-05-07T08:47:47-07:00,6.6794128417969,1,versionA_stim.csv,READVersionA.csv,"Read Version A","Relational, read only version A",GRILL,BAR,Study1,S,52,84,Test,User,-,,Recall,Recall1,6444,bar,100,3133,3583,1,1,,1
w10020600_bmm,dnokd0cjlr,Relational_NO_JOL,1,104,2020-05-07T08:47:58-07:00,11.230581045151,1,versionA_stim.csv,READVersionA.csv,"Read Version A","Relational, read only version A",LIFT,WOMAN,Study1,U,69,21,Test,User,-,,Recall,Recall1,3337,heavy,20,1190,1822,0,0,,0.941
w10020600_bmm,dnokd0cjlr,Relational_NO_JOL,1,105,2020-05-07T08:48:04-07:00,6.1784379482269,1,versionA_stim.csv,READVersionA.csv,"Read Version A","Relational, read only version A",BATHROOM,TOILET,Study1,S,58,69,Test,User,-,,Recall,Recall1,5935,toilet,100,3058,4568,1,1,,1
w10020600_bmm,dnokd0cjlr,Relational_NO_JOL,1,106,2020-05-07T08:48:14-07:00,10.068176984787,1,versionA_stim.csv,READVersionA.csv,"Read Version A","Relational, read only version A",WINE,CHEESE,Study1,S,57,59,Test,User,-,,Recall,Recall1,3238,cheese,100,996,1891,1,1,,0.941
w10020600_bmm,dnokd0cjlr,Relational_NO_JOL,1,107,2020-05-07T08:48:28-07:00,13.224953174591,1,versionA_stim.csv,READVersionA.csv,"Read Version A","Relational, read only version A",POP,SODA,Study1,S,56,81,Test,User,-,,Recall,Recall1,12980,soda,100,7311,11678,1,1,,1
w10020600_bmm,dnokd0cjlr,Relational_NO_JOL,1,108,2020-05-07T08:48:35-07:00,7.3719239234924,1,versionA_stim.csv,READVersionA.csv,"Read Version A","Relational, read only version A",PARK,HUNGRY,Study1,U,68,64,Test,User,-,,Recall,Recall1,6487,hungry,100,1821,5101,1,1,,1
w10020600_bmm,dnokd0cjlr,Relational_NO_JOL,1,109,2020-05-07T08:48:44-07:00,9.0514099597931,1,versionA_stim.csv,READVersionA.csv,"Read Version A","Relational, read only version A",LETTUCE,SALAD,Study1,S,59,11,Test,User,-,,Recall,Recall1,2957,salad,100,949,1846,1,1,,0.933
w10020600_bmm,dnokd0cjlr,Relational_NO_JOL,1,110,2020-05-07T08:49:00-07:00,15.572582960129,1,versionA_stim.csv,READVersionA.csv,"Read Version A","Relational, read only version A",DISCOVER,FLOOR,Study1,U,71,22,Test,User,-,,Recall,Recall1,3071,space,0,1013,1670,0,0,,0.938
w10020600_bmm,dnokd0cjlr,Relational_NO_JOL,1,111,2020-05-07T08:49:05-07:00,5.6903851032257,1,versionA_stim.csv,READVersionA.csv,"Read Version A","Relational, read only version A",PAW,DOG,Study1,F,15,47,Test,User,-,,Recall,Recall1,3472,dog,100,1907,2356,1,1,,1
w10020600_bmm,dnokd0cjlr,Relational_NO_JOL,1,112,2020-05-07T08:49:11-07:00,5.8915960788727,1,versionA_stim.csv,READVersionA.csv,"Read Version A","Relational, read only version A",SOON,BELT,Study1,U,70,55,Test,User,-,,Recall,Recall1,5641,,0,-1,-1,0,0,,1
w10020600_bmm,dnokd0cjlr,Relational_NO_JOL,1,113,2020-05-07T08:49:26-07:00,14.458354949951,1,versionA_stim.csv,READVersionA.csv,"Read Version A","Relational, read only version A",DIETARY,SACKING,Study1,U,67,58,Test,User,-,,Recall,Recall1,14229,,0,-1,-1,0,0,,1
w10020600_bmm,dnokd0cjlr,Relational_NO_JOL,1,114,2020-05-07T08:49:40-07:00,14.14915895462,1,versionA_stim.csv,READVersionA.csv,"Read Version A","Relational, read only version A",SUGAR,RIDDLE,Study1,U,81,75,Test,User,-,,Recall,Recall1,4966,sweet,18.181818181818,1419,2094,0,0,,0.96
w10020600_bmm,dnokd0cjlr,Relational_NO_JOL,1,115,2020-05-07T08:49:45-07:00,5.6702449321747,1,versionA_stim.csv,READVersionA.csv,"Read Version A","Relational, read only version A",HOT,CHILI,Study1,B,37,20,Test,User,-,,Recall,Recall1,5422,chili,100,2529,3446,1,1,,1
w10020600_bmm,dnokd0cjlr,Relational_NO_JOL,1,116,2020-05-07T08:49:56-07:00,10.848124027252,1,versionA_stim.csv,READVersionA.csv,"Read Version A","Relational, read only version A",TRIAL,JURY,Study1,S,50,68,Test,User,-,,Recall,Recall1,9537,jury,100,3358,4561,1,1,,1
w10020600_bmm,dnokd0cjlr,Relational_NO_JOL,1,117,2020-05-07T08:50:03-07:00,7.1809720993042,1,versionA_stim.csv,READVersionA.csv,"Read Version A","Relational, read only version A",ALLOW,TUCK,Study1,U,78,26,Test,User,-,,Recall,Recall1,5545,,0,-1,-1,0,0,,1
w10020600_bmm,dnokd0cjlr,Relational_NO_JOL,1,118,2020-05-07T08:50:13-07:00,9.9211978912354,1,versionA_stim.csv,READVersionA.csv,"Read Version A","Relational, read only version A",HUNGER,FAMINE,Study1,B,40,31,Test,User,-,,Recall,Recall1,2851,famine,100,1025,2143,1,1,,0.933
w10020600_bmm,dnokd0cjlr,Relational_NO_JOL,1,119,2020-05-07T08:50:26-07:00,12.528851032257,1,versionA_stim.csv,READVersionA.csv,"Read Version A","Relational, read only version A",BEGIN,END,Study1,S,54,36,Test,User,-,,Recall,Recall1,12276,start,0,3709,10974,0,0,,1
w10020600_bmm,dnokd0cjlr,Relational_NO_JOL,1,120,2020-05-07T08:50:31-07:00,4.7590498924255,1,versionA_stim.csv,READVersionA.csv,"Read Version A","Relational, read only version A",BLOW,WIND,Study1,S,55,12,Test,User,-,,Recall,Recall1,4506,"wind ",100,1696,3522,1,1,,1
w10020600_bmm,dnokd0cjlr,Relational_NO_JOL,1,121,2020-05-07T08:50:40-07:00,9.1801450252533,1,versionA_stim.csv,READVersionA.csv,"Read Version A","Relational, read only version A",TUNA,FISH,Study1,F,25,73,Test,User,-,,Recall,Recall1,3254,fish,100,1305,2427,1,1,,0.941
w10020600_bmm,dnokd0cjlr,Relational_NO_JOL,1,122,2020-05-07T08:50:50-07:00,9.8018481731415,1,versionA_stim.csv,READVersionA.csv,"Read Version A","Relational, read only version A",BUG,WASP,Study1,B,32,34,Test,User,-,,Recall,Recall1,9553,wasp,100,5336,6401,1,1,,1
w10020600_bmm,dnokd0cjlr,Relational_NO_JOL,1,123,2020-05-07T08:51:19-07:00,29.288026809692,1,versionA_stim.csv,READVersionA.csv,"Read Version A","Relational, read only version A",ORCHID,FLOWER,Study1,F,24,13,Test,User,-,,Recall,Recall1,2852,flower,100,1285,2341,1,1,,0.933
w10020600_bmm,dnokd0cjlr,Relational_NO_JOL,1,124,2020-05-07T08:51:31-07:00,11.904425144196,1,versionA_stim.csv,READVersionA.csv,"Read Version A","Relational, read only version A",BALL,RACKET,Study1,B,38,25,Test,User,-,,Recall,Recall1,11661,circle,33.333333333333,6877,9750,0,0,,1
w10020600_bmm,dnokd0cjlr,Relational_NO_JOL,1,125,2020-05-07T08:51:44-07:00,13.002920866013,1,versionA_stim.csv,READVersionA.csv,"Read Version A","Relational, read only version A",DIGESTION,STOMACH,Study1,F,7,37,Test,User,-,,Recall,Recall1,12761,food,18.181818181818,11348,12128,0,0,,1
w10020600_bmm,dnokd0cjlr,Relational_NO_JOL,1,126,2020-05-07T08:51:54-07:00,10.565479040146,1,versionA_stim.csv,READVersionA.csv,"Read Version A","Relational, read only version A",KING,VASE,Study1,U,85,53,Test,User,-,,Recall,Recall1,3151,queen,22.222222222222,989,2346,0,0,,0.938
w10020600_bmm,dnokd0cjlr,Relational_NO_JOL,1,127,2020-05-07T08:52:16-07:00,21.317238092422,1,versionA_stim.csv,READVersionA.csv,"Read Version A","Relational, read only version A",BRIDGE,WATER,Study1,F,18,42,Test,User,-,,Recall,Recall1,4070,water,100,2108,2938,1,1,,0.952
w10020600_bmm,dnokd0cjlr,Relational_NO_JOL,1,128,2020-05-07T08:52:26-07:00,10.683510065079,1,versionA_stim.csv,READVersionA.csv,"Read Version A","Relational, read only version A",HERD,COW,Study1,F,22,30,Test,User,-,,Recall,Recall1,4237,cows,85.714285714286,1194,3584,0,1,,0.955
w10020600_bmm,dnokd0cjlr,Relational_NO_JOL,1,129,2020-05-07T08:52:32-07:00,5.5000967979431,1,versionA_stim.csv,READVersionA.csv,"Read Version A","Relational, read only version A",CIRCLE,ROUND,Study1,S,65,35,Test,User,-,,Recall,Recall1,5236,round,100,2090,3088,1,1,,1
w10020600_bmm,dnokd0cjlr,Relational_NO_JOL,1,130,2020-05-07T08:52:39-07:00,7.1542479991913,1,versionA_stim.csv,READVersionA.csv,"Read Version A","Relational, read only version A",DEATH,BUSINESS,Study1,U,72,50,Test,User,-,,Recall,Recall1,6891,,0,-1,-1,0,0,,1
w10020600_bmm,dnokd0cjlr,Relational_NO_JOL,1,131,2020-05-07T08:52:42-07:00,3.1094350814819,1,versionA_stim.csv,READVersionA.csv,"Read Version A","Relational, read only version A",HYGIENE,CLEAN,Study1,F,17,48,Test,User,-,,Recall,Recall1,2872,clean,100,1363,2088,1,1,,1
w10020600_bmm,dnokd0cjlr,Relational_NO_JOL,1,132,2020-05-07T08:52:46-07:00,3.5949211120605,1,versionA_stim.csv,READVersionA.csv,"Read Version A","Relational, read only version A",PAST,FUTURE,Study1,S,61,40,Test,User,-,,Recall,Recall1,3332,future,100,1688,2726,1,1,,1
w10020600_bmm,dnokd0cjlr,Relational_NO_JOL,1,133,2020-05-07T08:52:52-07:00,6.2233848571777,1,versionA_stim.csv,READVersionA.csv,"Read Version A","Relational, read only version A",DISCUSSION,TALK,Study1,F,21,61,Test,User,-,,Recall,Recall1,5976,talk,100,3937,5215,1,1,,1
w10020600_bmm,dnokd0cjlr,Relational_NO_JOL,1,134,2020-05-07T08:53:02-07:00,10.276481151581,1,versionA_stim.csv,READVersionA.csv,"Read Version A","Relational, read only version A",STRONG,ACCIDENT,Study1,U,80,60,Test,User,-,,Recall,Recall1,10012,,0,-1,-1,0,0,,1
w10020600_bmm,dnokd0cjlr,Relational_NO_JOL,1,135,2020-05-07T08:53:17-07:00,14.921078920364,1,versionA_stim.csv,READVersionA.csv,"Read Version A","Relational, read only version A",WORK,CHORE,Study1,B,39,33,Test,User,-,,Recall,Recall1,2233,wage,22.222222222222,769,1499,0,0,,0.917
w10020600_bmm,dnokd0cjlr,Relational_NO_JOL,1,136,2020-05-07T08:53:31-07:00,13.462112903595,1,versionA_stim.csv,READVersionA.csv,"Read Version A","Relational, read only version A",DUE,ASSIGNMENT,Study1,S,46,54,Test,User,-,,Recall,Recall1,11255,amount,50,9835,10716,0,0,,1
w10020600_bmm,dnokd0cjlr,Relational_NO_JOL,1,137,2020-05-07T08:53:43-07:00,12.313699960709,1,versionA_stim.csv,READVersionA.csv,"Read Version A","Relational, read only version A",MEANING,DEFINITION,Study1,S,62,46,Test,User,-,,Recall,Recall1,12054,definition,100,8140,10552,1,1,,1
w10020600_bmm,dnokd0cjlr,Relational_NO_JOL,1,138,2020-05-07T08:53:53-07:00,10.037971019745,1,versionA_stim.csv,READVersionA.csv,"Read Version A","Relational, read only version A",SENTENCE,WORD,Study1,B,31,39,Test,User,-,,Recall,Recall1,2991,words,88.888888888889,1162,1827,0,1,,0.933
w10020600_bmm,dnokd0cjlr,Relational_NO_JOL,1,139,2020-05-07T08:54:01-07:00,8.416228055954,1,versionA_stim.csv,READVersionA.csv,"Read Version A","Relational, read only version A",WAY,OUT,Study1,F,16,62,Test,User,-,,Recall,Recall1,8163,direction,16.666666666667,5662,7492,0,0,,1
w10020600_bmm,dnokd0cjlr,Relational_NO_JOL,1,140,2020-05-07T08:54:10-07:00,8.4601571559906,1,versionA_stim.csv,READVersionA.csv,"Read Version A","Relational, read only version A",ART,LION,Study1,U,79,24,Test,User,-,,Recall,Recall1,8209,painter,36.363636363636,6413,7530,0,0,,1
w10020600_bmm,dnokd0cjlr,Relational_NO_JOL,1,141,2020-05-07T08:54:20-07:00,10.59165596962,1,versionA_stim.csv,READVersionA.csv,"Read Version A","Relational, read only version A",DELINQUENT,BAD,Study1,F,6,72,Test,User,-,,Recall,Recall1,10345,bad,100,6659,6976,1,1,,1
w10020600_bmm,dnokd0cjlr,Relational_NO_JOL,1,142,2020-05-07T08:54:34-07:00,13.280208826065,1,versionA_stim.csv,READVersionA.csv,"Read Version A","Relational, read only version A",SLEEP,DROWSY,Study1,B,41,86,Test,User,-,,Recall,Recall1,13038,bed,22.222222222222,6928,12539,0,0,,1
w10020600_bmm,dnokd0cjlr,Relational_NO_JOL,1,143,2020-05-07T08:54:44-07:00,10.609361171722,1,versionA_stim.csv,READVersionA.csv,"Read Version A","Relational, read only version A",GEOLOGY,ROCK,Study1,F,19,15,Test,User,-,,Recall,Recall1,10339,architect,30.769230769231,2857,6589,0,0,,1
w10020600_bmm,dnokd0cjlr,Relational_NO_JOL,1,144,2020-05-07T08:54:53-07:00,8.368546962738,1,versionA_stim.csv,READVersionA.csv,"Read Version A","Relational, read only version A",GREAT,FANTASTIC,Study1,B,35,85,Test,User,-,,Recall,Recall1,1754,bad,16.666666666667,1089,1381,0,0,,0.889
w10020600_bmm,dnokd0cjlr,Relational_NO_JOL,1,145,2020-05-07T08:54:59-07:00,5.9516649246216,1,versionA_stim.csv,READVersionA.csv,"Read Version A","Relational, read only version A",SHOE,FOOT,Study1,S,60,76,Test,User,-,,Recall,Recall1,5703,foot,100,4616,5182,1,1,,1
w10020600_bmm,dnokd0cjlr,Relational_NO_JOL,1,146,2020-05-07T08:55:06-07:00,7.4936890602112,1,versionA_stim.csv,READVersionA.csv,"Read Version A","Relational, read only version A",LAW,ATTORNEY,Study1,B,34,51,Test,User,-,,Recall,Recall1,7238,trial,30.769230769231,5569,6546,0,0,,1
w10020600_bmm,dnokd0cjlr,Relational_NO_JOL,1,147,2020-05-07T08:55:13-07:00,6.8226730823517,1,versionA_stim.csv,READVersionA.csv,"Read Version A","Relational, read only version A",NUMBER,AMOUNT,Study1,S,47,27,Test,User,-,,Recall,Recall1,6566,,0,-1,-1,0,0,,1
w10020600_bmm,dnokd0cjlr,Relational_NO_JOL,1,148,2020-05-07T08:55:20-07:00,7.1905229091644,1,versionA_stim.csv,READVersionA.csv,"Read Version A","Relational, read only version A",TAKE,SEIZE,Study1,B,29,57,Test,User,-,,Recall,Recall1,6919,steal,40,4954,5641,0,0,,1
w10020600_bmm,dnokd0cjlr,Relational_NO_JOL,1,149,2020-05-07T08:56:03-07:00,42.616863965988,1,versionA_stim.csv,READVersionA.csv,"Read Version A","Relational, read only version A",HONEY,BEE,Study1,S,63,78,Test,User,-,,Recall,Recall1,9198,sweet,50,7410,8657,0,0,,0.978
w10020600_bmm,dnokd0cjlr,Relational_NO_JOL,1,150,2020-05-07T08:56:16-07:00,12.861289978027,1,versionA_stim.csv,READVersionA.csv,"Read Version A","Relational, read only version A",DEBATE,SIGHT,Study1,U,73,14,Test,User,-,,Recall,Recall1,12616,choose,18.181818181818,9644,11059,0,0,,1
w10020600_bmm,dnokd0cjlr,Relational_NO_JOL,1,151,2020-05-07T08:56:28-07:00,12.642671108246,1,versionA_stim.csv,READVersionA.csv,"Read Version A","Relational, read only version A",DRINK,SIP,Study1,B,27,8,Test,User,-,,Recall,Recall1,1833,sip,100,687,1043,1,1,,0.9
w10020600_bmm,dnokd0cjlr,Relational_NO_JOL,1,152,2020-05-07T08:56:45-07:00,16.515429019928,1,versionA_stim.csv,READVersionA.csv,"Read Version A","Relational, read only version A",CLOTHES,ATTIRE,Study1,B,43,43,Test,User,-,,Recall,Recall1,2681,shop,0,1099,1923,0,0,,0.929
w10020600_bmm,dnokd0cjlr,Relational_NO_JOL,1,153,2020-05-07T08:56:55-07:00,10.024407863617,1,versionA_stim.csv,READVersionA.csv,"Read Version A","Relational, read only version A",FULL,ENOUGH,Study1,B,26,17,Test,User,-,,Recall,Recall1,9766,taken,36.363636363636,7368,8083,0,0,,1
w10020600_bmm,dnokd0cjlr,Relational_NO_JOL,1,154,2020-05-07T08:57:10-07:00,15.156661987305,1,versionA_stim.csv,READVersionA.csv,"Read Version A","Relational, read only version A",HORNET,STING,Study1,F,11,32,Test,User,-,,Recall,Recall1,2488,sting,100,968,1852,1,1,,0.923
w10020600_bmm,dnokd0cjlr,Relational_NO_JOL,1,155,2020-05-07T08:57:16-07:00,5.8094120025635,1,versionA_stim.csv,READVersionA.csv,"Read Version A","Relational, read only version A",WAGE,MONEY,Study1,F,8,45,Test,User,-,,Recall,Recall1,5559,money,100,1860,2805,1,1,,1
w10020600_bmm,dnokd0cjlr,Relational_NO_JOL,1,156,2020-05-07T08:57:21-07:00,5.60808801651,1,versionA_stim.csv,READVersionA.csv,"Read Version A","Relational, read only version A",PUSHER,CLUTTER,Study1,U,66,82,Test,User,-,,Recall,Recall1,690,,0,-1,-1,0,0,,0.75
w10020600_bmm,dnokd0cjlr,Relational_NO_JOL,1,157,2020-05-07T08:57:31-07:00,9.4165239334106,1,versionA_stim.csv,READVersionA.csv,"Read Version A","Relational, read only version A",CASH,WOULD,Study1,U,83,79,Test,User,-,,Recall,Recall1,9170,money,20,6707,8360,0,0,,1
w10020600_bmm,dnokd0cjlr,Relational_NO_JOL,1,158,2020-05-07T08:57:35-07:00,4.1386361122131,1,versionA_stim.csv,READVersionA.csv,"Read Version A","Relational, read only version A",DARK,CAVE,Study1,B,28,74,Test,User,-,,Recall,Recall1,3897,light,0,2314,2982,0,0,,1
w10020600_bmm,dnokd0cjlr,Relational_NO_JOL,1,159,2020-05-07T08:57:49-07:00,14.212282896042,1,versionA_stim.csv,READVersionA.csv,"Read Version A","Relational, read only version A",REVOLUTION,WAR,Study1,F,20,71,Test,User,-,,Recall,Recall1,1493,war,100,442,817,1,1,,0.875
w10020600_bmm,dnokd0cjlr,Relational_NO_JOL,1,160,2020-05-07T08:58:01-07:00,12.010223150253,1,versionA_stim.csv,READVersionA.csv,"Read Version A","Relational, read only version A",VALLEY,ADD,Study1,U,82,67,Test,User,-,,Recall,Recall1,1836,land,57.142857142857,1000,1470,0,0,,0.9
w10020600_bmm,dnokd0cjlr,Relational_NO_JOL,1,161,2020-05-07T08:58:10-07:00,9.0878009796143,1,versionA_stim.csv,READVersionA.csv,"Read Version A","Relational, read only version A",BITTER,COLD,Study1,F,12,19,Test,User,-,,Recall,Recall1,8839,cold,100,7989,8434,1,1,,1
w10020600_bmm,dnokd0cjlr,Relational_NO_JOL,1,162,2020-05-07T08:58:20-07:00,9.8209300041199,1,versionA_stim.csv,READVersionA.csv,"Read Version A","Relational, read only version A",MATH,DIVISION,Study1,B,33,70,Test,User,-,,Recall,Recall1,3256,division,100,1147,2793,1,1,,0.941
w10020600_bmm,dnokd0cjlr,Relational_NO_JOL,1,163,2020-05-07T08:58:40-07:00,19.411774873734,1,versionA_stim.csv,READVersionA.csv,"Read Version A","Relational, read only version A",KIDNEY,LIVER,Study1,S,53,9,Test,User,-,,Recall,Recall1,1769,liver,100,712,1484,1,1,,0.889
w10020600_bmm,dnokd0cjlr,Relational_NO_JOL,1,164,2020-05-07T08:58:44-07:00,4.0802941322327,1,versionA_stim.csv,READVersionA.csv,"Read Version A","Relational, read only version A",SWAN,BIRD,Study1,F,14,56,Test,User,-,,Recall,Recall1,3816,bird,100,2396,3224,1,1,,1
w10020600_bmm,dnokd0cjlr,Relational_NO_JOL,1,165,2020-05-07T08:58:48-07:00,4.2527949810028,1,versionA_stim.csv,READVersionA.csv,"Read Version A","Relational, read only version A",ROOT,PLANT,Study1,F,13,77,Test,User,-,,Recall,Recall1,3992,plant,100,2535,3564,1,1,,1
w10020600_bmm,dnokd0cjlr,Relational_NO_JOL,1,166,2020-05-07T08:58:53-07:00,4.756227016449,1,versionA_stim.csv,READVersionA.csv,"Read Version A","Relational, read only version A",ARTERY,BRONZE,Study1,U,74,66,Test,User,-,,Recall,Recall1,4512,bronze,100,1975,3840,1,1,,1
w10020600_bmm,dnokd0cjlr,Relational_NO_JOL,1,167,2020-05-07T08:58:59-07:00,6.6328940391541,1,versionA_stim.csv,READVersionA.csv,"Read Version A","Relational, read only version A",LOCATION,SITE,Study1,S,48,16,Test,User,-,,Recall,Recall1,1342,site,100,583,1073,1,1,,0.857
w10020600_bmm,dnokd0cjlr,Relational_NO_JOL,1,168,2020-05-07T08:59:10-07:00,11.122982978821,1,versionA_stim.csv,READVersionA.csv,"Read Version A","Relational, read only version A",HIDE,SICK,Study1,U,84,10,Test,User,-,,Recall,Recall1,4187,scared,40,1025,2488,0,0,,0.952
w10020600_bmm,dnokd0cjlr,Relational_NO_JOL,1,169,2020-05-07T08:59:21-07:00,10.340587854385,1,versionA_stim.csv,READVersionA.csv,"Read Version A","Relational, read only version A",CHISEL,HAMMER,Study1,F,9,44,Test,User,-,,Recall,Recall1,2260,hammer,100,876,1597,1,1,,0.917
w10020600_bmm,dnokd0cjlr,Relational_NO_JOL,1,170,2020-05-07T08:59:24-07:00,3.5631260871887,1,versionA_stim.csv,READVersionA.csv,"Read Version A","Relational, read only version A",SMELL,STENCH,Study1,B,42,41,Test,User,-,,Recall,Recall1,3300,stench,100,1773,2665,1,1,,1
w10020600_bmm,dnokd0cjlr,Relational_NO_JOL,1,171,2020-05-07T08:59:27-07:00,2.5404748916626,1,versionA_stim.csv,READVersionA.csv,"Read Version A","Relational, read only version A",BABY,CHILD,Study1,S,64,80,Test,User,-,,Recall,Recall1,2302,child,100,1296,1973,1,1,,1
w10020600_bmm,dnokd0cjlr,Relational_NO_JOL,1,172,2020-05-07T08:59:34-07:00,6.7057831287384,1,versionA_stim.csv,READVersionA.csv,"Read Version A","Relational, read only version A",PLANE,PILOT,Study1,B,44,28,Test,User,-,,Recall,Recall1,6457,pilot,100,2347,6015,1,1,,1
w10020600_bmm,dnokd0cjlr,Relational_NO_JOL,1,173,2020-05-07T08:59:39-07:00,5.1079840660095,1,versionA_stim.csv,READVersionA.csv,"Read Version A","Relational, read only version A",FIRE,BLAZE,Study1,B,45,52,Test,User,-,,Recall,Recall1,4844,blaze,100,2927,4254,1,1,,1
w10020600_bmm,dnokd0cjlr,Relational_NO_JOL,1,174,2020-05-07T08:59:45-07:00,6.202006816864,1,versionA_stim.csv,READVersionA.csv,"Read Version A","Relational, read only version A",MACHINE,POSITION,Study1,U,76,23,Test,User,-,,Recall,Recall1,5934,position,100,1960,3486,1,1,,1
w10020600_bmm,dnokd0cjlr,Relational_NO_JOL,1,175,2020-05-07T08:59:55-07:00,10.616755008698,1,versionA_stim.csv,READVersionA.csv,"Read Version A","Relational, read only version A",DUMP,WASTE,Study1,S,49,83,Test,User,-,,Recall,Recall1,9279,waste,100,7967,8746,1,1,,1
w10020600_bmm,dnokd0cjlr,Relational_NO_JOL,1,176,2020-05-07T09:00:04-07:00,8.1335561275482,1,versionA_stim.csv,READVersionA.csv,"Read Version A","Relational, read only version A",KEY,LATCH,Study1,B,36,63,Test,User,-,,Recall,Recall1,1823,lock,44.444444444444,838,1477,0,0,,0.889
w10020600_bmm,dnokd0cjlr,Relational_NO_JOL,1,177,2020-05-07T09:00:11-07:00,7.5324740409851,1,versionA_stim.csv,READVersionA.csv,"Read Version A","Relational, read only version A",HAPPY,CAR,Study1,U,77,49,Test,User,-,,Recall,Recall1,7289,emotion,0,3778,6764,0,0,,1
w10020600_bmm,dnokd0cjlr,Relational_NO_JOL,1,178,2020-05-07T09:00:18-07:00,7.1736149787903,1,versionA_stim.csv,READVersionA.csv,"Read Version A","Relational, read only version A",HEIGHT,GROWTH,Study1,B,30,29,Test,User,-,,Recall,Recall1,6940,growth,100,4279,6351,1,1,,1
w10020600_bmm,dnokd0cjlr,Relational_NO_JOL,1,179,2020-05-07T09:00:25-07:00,6.5218238830566,1,versionA_stim.csv,READVersionA.csv,"Read Version A","Relational, read only version A",CREDIT,CARD,Study1,F,23,7,Test,User,-,,Recall,Recall1,1798,card,100,803,1196,1,1,,0.889
w10020600_bmm,dnokd0cjlr,Relational_NO_JOL,1,180,2020-05-07T09:00:29-07:00,4.4314110279083,1,versionA_stim.csv,READVersionA.csv,"Read Version A","Relational, read only version A",FIX,HAND,Study1,U,75,65,Test,User,-,,Recall,Recall1,4160,hands,88.888888888889,2611,3411,0,1,,1
w10020600_bmm,dnokd0cjlr,Relational_NO_JOL,1,181,2020-05-07T09:00:51-07:00,21.591467142105,1,versionA_stim.csv,READVersionA.csv,"Read Version A","Relational, read only version A",,,,,,0,Instruct,-,10,"You will now be presented with a new set of word pairs. Please study each pair. Remember that your memory will be tested! When finished, press Enter to move to the next pair.",Initial_Instruct,Instruct4,21337,,,-1,-1,,,,1
w10020600_bmm,dnokd0cjlr,Relational_NO_JOL,1,182,2020-05-07T09:01:07-07:00,16.109724998474,1,versionA_stim.csv,READVersionA.csv,"Read Version A","Relational, read only version A",,,,,,0,Instruct,-,15,"As you study, please think about how the two concepts are RELATED to each other. For example, if you see the pair TURTLE-CAT, think about how both are alive, they are both animals, and both can be kept as pets.",,Instruct20,15819,,,-1,-1,,,,1
w10020600_bmm,dnokd0cjlr,Relational_NO_JOL,1,183,2020-05-07T09:01:43-07:00,35.701093912125,1,versionA_stim.csv,READVersionA.csv,"Read Version A","Relational, read only version A",,,,,,0,FreeRecall,-,10,"What you should think about as you study each item pair? Type your response in the box below.",,CHECK4,13687,"How the two concepts are related ",0,1635,10690,0,0,,0.986
w10020600_bmm,dnokd0cjlr,Relational_NO_JOL,1,184,2020-05-07T09:01:49-07:00,5.8980629444122,1,versionA_stim.csv,READVersionA.csv,"Read Version A","Relational, read only version A",,,,,,0,Instruct,User,-,"Press Enter when you are readty to begin",,Instruct11,1130,,,-1,-1,,,,0.833
w10020600_bmm,dnokd0cjlr,Relational_NO_JOL,1,185,2020-05-07T09:02:09-07:00,20.221784114838,1,versionA_stim.csv,READVersionA.csv,"Read Version A","Relational, read only version A",NOODLE,STRING,BUFFER3,Buffer,92,95,Study,User,-,,Study/JOL,BUFFER3,19966,,,-1,-1,,,,1
w10020600_bmm,dnokd0cjlr,Relational_NO_JOL,1,186,2020-05-07T09:02:28-07:00,19.682013988495,1,versionA_stim.csv,READVersionA.csv,"Read Version A","Relational, read only version A",CAMP,ADVENTURE,BUFFER3,Buffer,95,94,Study,User,-,,Study/JOL,BUFFER3,1452,,,-1,-1,,,,0.875
w10020600_bmm,dnokd0cjlr,Relational_NO_JOL,1,187,2020-05-07T09:02:33-07:00,4.3730280399323,1,versionA_stim.csv,READVersionA.csv,"Read Version A","Relational, read only version A",SHRIMP,FISH,BUFFER3,Buffer,93,96,Study,User,-,,Study/JOL,BUFFER3,4130,,,-1,-1,,,,1
w10020600_bmm,dnokd0cjlr,Relational_NO_JOL,1,188,2020-05-07T09:02:43-07:00,10.577999830246,1,versionA_stim.csv,READVersionA.csv,"Read Version A","Relational, read only version A",ICE,FROZEN,BUFFER3,Buffer,94,93,Study,User,-,,Study/JOL,BUFFER3,9359,,,-1,-1,,,,1
w10020600_bmm,dnokd0cjlr,Relational_NO_JOL,1,189,2020-05-07T09:02:59-07:00,15.126412153244,1,versionA_stim.csv,READVersionA.csv,"Read Version A","Relational, read only version A",CARROT,POTATO,BUFFER3,Buffer,91,92,Study,User,-,,Study/JOL,BUFFER3,14869,,,-1,-1,,,,1
w10020600_bmm,dnokd0cjlr,Relational_NO_JOL,1,190,2020-05-07T09:03:11-07:00,12.093112945557,1,versionA_stim.csv,READVersionA.csv,"Read Version A","Relational, read only version A",ELEMENT,CARBON,Study2,S,141,161,Study,User,-,,Study/JOL,"Study Phase2",868,,,-1,-1,,,,0.8
w10020600_bmm,dnokd0cjlr,Relational_NO_JOL,1,191,2020-05-07T09:03:21-07:00,10.388208866119,1,versionA_stim.csv,READVersionA.csv,"Read Version A","Relational, read only version A",FRUIT,STRAWBERRY,Study2,B,124,155,Study,User,-,,Study/JOL,"Study Phase2",10116,,,-1,-1,,,,1
w10020600_bmm,dnokd0cjlr,Relational_NO_JOL,1,192,2020-05-07T09:03:31-07:00,9.5679061412811,1,versionA_stim.csv,READVersionA.csv,"Read Version A","Relational, read only version A",STRETCH,CLOTH,Study2,U,157,118,Study,User,-,,Study/JOL,"Study Phase2",9315,,,-1,-1,,,,1
w10020600_bmm,dnokd0cjlr,Relational_NO_JOL,1,193,2020-05-07T09:03:38-07:00,7.778776884079,1,versionA_stim.csv,READVersionA.csv,"Read Version A","Relational, read only version A",CRACKLE,ABLE,Study2,U,162,100,Study,User,-,,Study/JOL,"Study Phase2",1243,,,-1,-1,,,,0.857
w10020600_bmm,dnokd0cjlr,Relational_NO_JOL,1,194,2020-05-07T09:03:52-07:00,13.220431089401,1,versionA_stim.csv,READVersionA.csv,"Read Version A","Relational, read only version A",ROD,REEL,Study2,S,150,98,Study,User,-,,Study/JOL,"Study Phase2",2904,,,-1,-1,,,,0.933
w10020600_bmm,dnokd0cjlr,Relational_NO_JOL,1,195,2020-05-07T09:03:55-07:00,3.723140001297,1,versionA_stim.csv,READVersionA.csv,"Read Version A","Relational, read only version A",CANDLE,WAX,Study2,S,139,101,Study,User,-,,Study/JOL,"Study Phase2",3475,,,-1,-1,,,,1
w10020600_bmm,dnokd0cjlr,Relational_NO_JOL,1,196,2020-05-07T09:04:03-07:00,7.3346679210663,1,versionA_stim.csv,READVersionA.csv,"Read Version A","Relational, read only version A",SLEEP,NAP,Study2,B,134,164,Study,User,-,,Study/JOL,"Study Phase2",753,,,-1,-1,,,,0.75
w10020600_bmm,dnokd0cjlr,Relational_NO_JOL,1,197,2020-05-07T09:04:25-07:00,22.098729133606,1,versionA_stim.csv,READVersionA.csv,"Read Version A","Relational, read only version A",NAME,HATE,Study2,U,167,169,Study,User,-,,Study/JOL,"Study Phase2",21839,,,-1,-1,,,,1
w10020600_bmm,dnokd0cjlr,Relational_NO_JOL,1,198,2020-05-07T09:04:34-07:00,8.9932849407196,1,versionA_stim.csv,READVersionA.csv,"Read Version A","Relational, read only version A",POP,BALLOON,Study2,B,123,124,Study,User,-,,Study/JOL,"Study Phase2",8739,,,-1,-1,,,,1
w10020600_bmm,dnokd0cjlr,Relational_NO_JOL,1,199,2020-05-07T09:04:42-07:00,8.1089239120483,1,versionA_stim.csv,READVersionA.csv,"Read Version A","Relational, read only version A",SAFETY,SEATBELT,Study2,S,147,173,Study,User,-,,Study/JOL,"Study Phase2",858,,,-1,-1,,,,0.8
w10020600_bmm,dnokd0cjlr,Relational_NO_JOL,1,200,2020-05-07T09:04:47-07:00,5.0521149635315,1,versionA_stim.csv,READVersionA.csv,"Read Version A","Relational, read only version A",SUN,TAN,Study2,S,155,97,Study,User,-,,Study/JOL,"Study Phase2",3813,,,-1,-1,,,,1
w10020600_bmm,dnokd0cjlr,Relational_NO_JOL,1,201,2020-05-07T09:04:53-07:00,5.8386890888214,1,versionA_stim.csv,READVersionA.csv,"Read Version A","Relational, read only version A",Shell,SHAKE,Study2,U,163,123,Study,User,-,,Study/JOL,"Study Phase2",5305,,,-1,-1,,,,1
w10020600_bmm,dnokd0cjlr,Relational_NO_JOL,1,202,2020-05-07T09:05:00-07:00,6.8495221138,1,versionA_stim.csv,READVersionA.csv,"Read Version A","Relational, read only version A",DRY,WET,Study2,S,146,143,Study,User,-,,Study/JOL,"Study Phase2",954,,,-1,-1,,,,0.8
w10020600_bmm,dnokd0cjlr,Relational_NO_JOL,1,203,2020-05-07T09:05:08-07:00,8.9091818332672,1,versionA_stim.csv,READVersionA.csv,"Read Version A","Relational, read only version A",MASON,JAR,Study2,S,138,103,Study,User,-,,Study/JOL,"Study Phase2",3012,,,-1,-1,,,,0.933
w10020600_bmm,dnokd0cjlr,Relational_NO_JOL,1,204,2020-05-07T09:05:18-07:00,9.7503311634064,1,versionA_stim.csv,READVersionA.csv,"Read Version A","Relational, read only version A",WATER,DRINK,Study2,S,143,153,Study,User,-,,Study/JOL,"Study Phase2",665,,,-1,-1,,,,0.75
w10020600_bmm,dnokd0cjlr,Relational_NO_JOL,1,205,2020-05-07T09:05:29-07:00,11.207477807999,1,versionA_stim.csv,READVersionA.csv,"Read Version A","Relational, read only version A",BAD,VILLAIN,Study2,B,118,113,Study,User,-,,Study/JOL,"Study Phase2",9638,,,-1,-1,,,,1
w10020600_bmm,dnokd0cjlr,Relational_NO_JOL,1,206,2020-05-07T09:05:34-07:00,4.1281352043152,1,versionA_stim.csv,READVersionA.csv,"Read Version A","Relational, read only version A",FEUD,FIGHT,Study2,F,113,162,Study,User,-,,Study/JOL,"Study Phase2",3863,,,-1,-1,,,,1
w10020600_bmm,dnokd0cjlr,Relational_NO_JOL,1,207,2020-05-07T09:05:43-07:00,9.2733178138733,1,versionA_stim.csv,READVersionA.csv,"Read Version A","Relational, read only version A",PLANE,AIRCRAFT,Study2,B,129,149,Study,User,-,,Study/JOL,"Study Phase2",8467,,,-1,-1,,,,1
w10020600_bmm,dnokd0cjlr,Relational_NO_JOL,1,208,2020-05-07T09:05:54-07:00,11.506026983261,1,versionA_stim.csv,READVersionA.csv,"Read Version A","Relational, read only version A",FIGHT,BRAWL,Study2,B,135,172,Study,User,-,,Study/JOL,"Study Phase2",995,,,-1,-1,,,,0.8
w10020600_bmm,dnokd0cjlr,Relational_NO_JOL,1,209,2020-05-07T09:05:57-07:00,3.0861790180206,1,versionA_stim.csv,READVersionA.csv,"Read Version A","Relational, read only version A",ADJOURN,END,Study2,F,101,171,Study,User,-,,Study/JOL,"Study Phase2",2826,,,-1,-1,,,,1
w10020600_bmm,dnokd0cjlr,Relational_NO_JOL,1,210,2020-05-07T09:06:05-07:00,7.3225710391998,1,versionA_stim.csv,READVersionA.csv,"Read Version A","Relational, read only version A",ALONE,LONELY,Study2,S,145,114,Study,User,-,,Study/JOL,"Study Phase2",7047,,,-1,-1,,,,1
w10020600_bmm,dnokd0cjlr,Relational_NO_JOL,1,211,2020-05-07T09:06:09-07:00,3.7883899211884,1,versionA_stim.csv,READVersionA.csv,"Read Version A","Relational, read only version A",RIGHTS,EQUAL,Study2,S,137,157,Study,User,-,,Study/JOL,"Study Phase2",3529,,,-1,-1,,,,1
w10020600_bmm,dnokd0cjlr,Relational_NO_JOL,1,212,2020-05-07T09:06:15-07:00,6.0821011066437,1,versionA_stim.csv,READVersionA.csv,"Read Version A","Relational, read only version A",EARTH,GROUND,Study2,S,144,135,Study,User,-,,Study/JOL,"Study Phase2",5835,,,-1,-1,,,,1
w10020600_bmm,dnokd0cjlr,Relational_NO_JOL,1,213,2020-05-07T09:06:23-07:00,8.2401909828186,1,versionA_stim.csv,READVersionA.csv,"Read Version A","Relational, read only version A",OWN,HAVE,Study2,S,153,160,Study,User,-,,Study/JOL,"Study Phase2",899,,,-1,-1,,,,0.8
w10020600_bmm,dnokd0cjlr,Relational_NO_JOL,1,214,2020-05-07T09:06:30-07:00,7.5338101387024,1,versionA_stim.csv,READVersionA.csv,"Read Version A","Relational, read only version A",LOUD,NOISE,Study2,S,152,122,Study,User,-,,Study/JOL,"Study Phase2",764,,,-1,-1,,,,0.75
w10020600_bmm,dnokd0cjlr,Relational_NO_JOL,1,215,2020-05-07T09:06:34-07:00,3.7763409614563,1,versionA_stim.csv,READVersionA.csv,"Read Version A","Relational, read only version A",CHILL,COLD,Study2,F,114,126,Study,User,-,,Study/JOL,"Study Phase2",3517,,,-1,-1,,,,1
w10020600_bmm,dnokd0cjlr,Relational_NO_JOL,1,216,2020-05-07T09:06:39-07:00,4.35213804245,1,versionA_stim.csv,READVersionA.csv,"Read Version A","Relational, read only version A",LISTEN,FICTION,Study2,U,164,107,Study,User,-,,Study/JOL,"Study Phase2",4104,,,-1,-1,,,,1
w10020600_bmm,dnokd0cjlr,Relational_NO_JOL,1,217,2020-05-07T09:06:46-07:00,7.4035828113556,1,versionA_stim.csv,READVersionA.csv,"Read Version A","Relational, read only version A",FISH,SARDINE,Study2,B,130,125,Study,User,-,,Study/JOL,"Study Phase2",7154,,,-1,-1,,,,1
w10020600_bmm,dnokd0cjlr,Relational_NO_JOL,1,218,2020-05-07T09:06:54-07:00,7.7340071201324,1,versionA_stim.csv,READVersionA.csv,"Read Version A","Relational, read only version A",TANTRUM,TEMPER,Study2,S,154,156,Study,User,-,,Study/JOL,"Study Phase2",5517,,,-1,-1,,,,1
w10020600_bmm,dnokd0cjlr,Relational_NO_JOL,1,219,2020-05-07T09:07:07-07:00,13.815567970276,1,versionA_stim.csv,READVersionA.csv,"Read Version A","Relational, read only version A",AFFECTION,LOVE,Study2,F,115,130,Study,User,-,,Study/JOL,"Study Phase2",13575,,,-1,-1,,,,1
w10020600_bmm,dnokd0cjlr,Relational_NO_JOL,1,220,2020-05-07T09:07:16-07:00,8.3820760250092,1,versionA_stim.csv,READVersionA.csv,"Read Version A","Relational, read only version A",LOAN,SIGN,Study2,U,171,165,Study,User,-,,Study/JOL,"Study Phase2",767,,,-1,-1,,,,0.75
w10020600_bmm,dnokd0cjlr,Relational_NO_JOL,1,221,2020-05-07T09:07:27-07:00,11.503583908081,1,versionA_stim.csv,READVersionA.csv,"Read Version A","Relational, read only version A",CAKE,CLOTHES,Study2,U,166,175,Study,User,-,,Study/JOL,"Study Phase2",11242,,,-1,-1,,,,1
w10020600_bmm,dnokd0cjlr,Relational_NO_JOL,1,222,2020-05-07T09:07:32-07:00,4.7014150619507,1,versionA_stim.csv,READVersionA.csv,"Read Version A","Relational, read only version A",DETECTIVE,MYSTERY,Study2,F,100,159,Study,User,-,,Study/JOL,"Study Phase2",3782,,,-1,-1,,,,1
w10020600_bmm,dnokd0cjlr,Relational_NO_JOL,1,223,2020-05-07T09:07:40-07:00,7.6032180786133,1,versionA_stim.csv,READVersionA.csv,"Read Version A","Relational, read only version A",MULE,DONKEY,Study2,F,108,137,Study,User,-,,Study/JOL,"Study Phase2",845,,,-1,-1,,,,0.8
w10020600_bmm,dnokd0cjlr,Relational_NO_JOL,1,224,2020-05-07T09:07:44-07:00,4.0689878463745,1,versionA_stim.csv,READVersionA.csv,"Read Version A","Relational, read only version A",,,,,,0,Instruct,-,3,"Remember to focus on how the two items are similiar while you study!",,CHECK5,3788,,,-1,-1,,,,1
w10020600_bmm,dnokd0cjlr,Relational_NO_JOL,1,225,2020-05-07T09:07:47-07:00,3.6099910736084,1,versionA_stim.csv,READVersionA.csv,"Read Version A","Relational, read only version A",CACTUS,PLANT,Study2,F,98,112,Study,User,-,,Study/JOL,"Study Phase2",3184,,,-1,-1,,,,1
w10020600_bmm,dnokd0cjlr,Relational_NO_JOL,1,226,2020-05-07T09:07:59-07:00,11.252861976624,1,versionA_stim.csv,READVersionA.csv,"Read Version A","Relational, read only version A",MOAT,CLEAR,Study2,U,169,106,Study,User,-,,Study/JOL,"Study Phase2",1455,,,-1,-1,,,,0.875
w10020600_bmm,dnokd0cjlr,Relational_NO_JOL,1,227,2020-05-07T09:08:04-07:00,5.045746088028,1,versionA_stim.csv,READVersionA.csv,"Read Version A","Relational, read only version A",CLUE,GAME,Study2,F,97,132,Study,User,-,,Study/JOL,"Study Phase2",4787,,,-1,-1,,,,1
w10020600_bmm,dnokd0cjlr,Relational_NO_JOL,1,228,2020-05-07T09:08:11-07:00,7.3444049358368,1,versionA_stim.csv,READVersionA.csv,"Read Version A","Relational, read only version A",CAR,WINDSHIELD,Study2,B,117,138,Study,User,-,,Study/JOL,"Study Phase2",6428,,,-1,-1,,,,1
w10020600_bmm,dnokd0cjlr,Relational_NO_JOL,1,229,2020-05-07T09:08:23-07:00,12.083899021149,1,versionA_stim.csv,READVersionA.csv,"Read Version A","Relational, read only version A",TRUTH,LIE,Study2,S,148,134,Study,User,-,,Study/JOL,"Study Phase2",11801,,,-1,-1,,,,1
w10020600_bmm,dnokd0cjlr,Relational_NO_JOL,1,230,2020-05-07T09:08:27-07:00,3.8097920417786,1,versionA_stim.csv,READVersionA.csv,"Read Version A","Relational, read only version A",GLASS,BREAKABLE,Study2,B,127,133,Study,User,-,,Study/JOL,"Study Phase2",3561,,,-1,-1,,,,1
w10020600_bmm,dnokd0cjlr,Relational_NO_JOL,1,231,2020-05-07T09:08:34-07:00,6.7037220001221,1,versionA_stim.csv,READVersionA.csv,"Read Version A","Relational, read only version A",GONE,AWAY,Study2,S,142,131,Study,User,-,,Study/JOL,"Study Phase2",718,,,-1,-1,,,,0.75
w10020600_bmm,dnokd0cjlr,Relational_NO_JOL,1,232,2020-05-07T09:08:40-07:00,6.0451710224152,1,versionA_stim.csv,READVersionA.csv,"Read Version A","Relational, read only version A",SCALP,HEAD,Study2,F,105,119,Study,User,-,,Study/JOL,"Study Phase2",690,,,-1,-1,,,,0.75
w10020600_bmm,dnokd0cjlr,Relational_NO_JOL,1,233,2020-05-07T09:08:45-07:00,5.7459659576416,1,versionA_stim.csv,READVersionA.csv,"Read Version A","Relational, read only version A",BEST,FAVORITE,Study2,B,125,110,Study,User,-,,Study/JOL,"Study Phase2",5492,,,-1,-1,,,,1
w10020600_bmm,dnokd0cjlr,Relational_NO_JOL,1,234,2020-05-07T09:08:53-07:00,7.225841999054,1,versionA_stim.csv,READVersionA.csv,"Read Version A","Relational, read only version A",SHEARS,SCISSORS,Study2,F,112,146,Study,User,-,,Study/JOL,"Study Phase2",877,,,-1,-1,,,,0.8
w10020600_bmm,dnokd0cjlr,Relational_NO_JOL,1,235,2020-05-07T09:09:05-07:00,12.222255945206,1,versionA_stim.csv,READVersionA.csv,"Read Version A","Relational, read only version A",HONEST,TRUTHFUL,Study2,B,133,170,Study,User,-,,Study/JOL,"Study Phase2",10961,,,-1,-1,,,,1
w10020600_bmm,dnokd0cjlr,Relational_NO_JOL,1,236,2020-05-07T09:09:13-07:00,7.8260159492493,1,versionA_stim.csv,READVersionA.csv,"Read Version A","Relational, read only version A",MEAT,OBTAIN,Study2,U,161,151,Study,User,-,,Study/JOL,"Study Phase2",5047,,,-1,-1,,,,1
w10020600_bmm,dnokd0cjlr,Relational_NO_JOL,1,237,2020-05-07T09:09:22-07:00,9.2668881416321,1,versionA_stim.csv,READVersionA.csv,"Read Version A","Relational, read only version A",VEHICLE,CHARM,Study2,U,160,109,Study,User,-,,Study/JOL,"Study Phase2",8979,,,-1,-1,,,,1
w10020600_bmm,dnokd0cjlr,Relational_NO_JOL,1,238,2020-05-07T09:09:28-07:00,6.4455549716949,1,versionA_stim.csv,READVersionA.csv,"Read Version A","Relational, read only version A",CHERRY,RED,Study2,F,104,140,Study,User,-,,Study/JOL,"Study Phase2",782,,,-1,-1,,,,0.75
w10020600_bmm,dnokd0cjlr,Relational_NO_JOL,1,239,2020-05-07T09:09:32-07:00,3.8219430446625,1,versionA_stim.csv,READVersionA.csv,"Read Version A","Relational, read only version A",EXTENSION,LONG,Study2,F,96,144,Study,User,-,,Study/JOL,"Study Phase2",3579,,,-1,-1,,,,1
w10020600_bmm,dnokd0cjlr,Relational_NO_JOL,1,240,2020-05-07T09:09:50-07:00,17.610822916031,1,versionA_stim.csv,READVersionA.csv,"Read Version A","Relational, read only version A",THREAD,THIMBLE,Study2,B,121,115,Study,User,-,,Study/JOL,"Study Phase2",17360,,,-1,-1,,,,1
w10020600_bmm,dnokd0cjlr,Relational_NO_JOL,1,241,2020-05-07T09:09:56-07:00,6.6893348693848,1,versionA_stim.csv,READVersionA.csv,"Read Version A","Relational, read only version A",GIVE,STEAK,Study2,U,158,174,Study,User,-,,Study/JOL,"Study Phase2",808,,,-1,-1,,,,0.75
w10020600_bmm,dnokd0cjlr,Relational_NO_JOL,1,242,2020-05-07T09:10:08-07:00,11.966581106186,1,versionA_stim.csv,READVersionA.csv,"Read Version A","Relational, read only version A",EVEN,REVENGE,Study2,B,122,142,Study,User,-,,Study/JOL,"Study Phase2",10723,,,-1,-1,,,,1
w10020600_bmm,dnokd0cjlr,Relational_NO_JOL,1,243,2020-05-07T09:10:17-07:00,8.4360330104828,1,versionA_stim.csv,READVersionA.csv,"Read Version A","Relational, read only version A",MAZE,ELECTION,Study2,U,159,158,Study,User,-,,Study/JOL,"Study Phase2",1072,,,-1,-1,,,,0.833
w10020600_bmm,dnokd0cjlr,Relational_NO_JOL,1,244,2020-05-07T09:10:21-07:00,3.8843328952789,1,versionA_stim.csv,READVersionA.csv,"Read Version A","Relational, read only version A",MAIN,SCAR,Study2,U,175,116,Study,User,-,,Study/JOL,"Study Phase2",3613,,,-1,-1,,,,1
w10020600_bmm,dnokd0cjlr,Relational_NO_JOL,1,245,2020-05-07T09:10:26-07:00,5.6594390869141,1,versionA_stim.csv,READVersionA.csv,"Read Version A","Relational, read only version A",MONEY,BANKER,Study2,B,132,129,Study,User,-,,Study/JOL,"Study Phase2",5400,,,-1,-1,,,,1
w10020600_bmm,dnokd0cjlr,Relational_NO_JOL,1,246,2020-05-07T09:10:30-07:00,3.3188500404358,1,versionA_stim.csv,READVersionA.csv,"Read Version A","Relational, read only version A",DRIVER,CAR,Study2,F,106,176,Study,User,-,,Study/JOL,"Study Phase2",3026,,,-1,-1,,,,1
w10020600_bmm,dnokd0cjlr,Relational_NO_JOL,1,247,2020-05-07T09:10:37-07:00,7.3349850177765,1,versionA_stim.csv,READVersionA.csv,"Read Version A","Relational, read only version A",STAR,ACTRESS,Study2,B,120,104,Study,User,-,,Study/JOL,"Study Phase2",1284,,,-1,-1,,,,0.857
w10020600_bmm,dnokd0cjlr,Relational_NO_JOL,1,248,2020-05-07T09:10:48-07:00,10.981777906418,1,versionA_stim.csv,READVersionA.csv,"Read Version A","Relational, read only version A",KEYS,JOKE,Study2,U,165,147,Study,User,-,,Study/JOL,"Study Phase2",10716,,,-1,-1,,,,1
w10020600_bmm,dnokd0cjlr,Relational_NO_JOL,1,249,2020-05-07T09:10:54-07:00,5.966658115387,1,versionA_stim.csv,READVersionA.csv,"Read Version A","Relational, read only version A",WRIST,BRACELET,Study2,S,140,145,Study,User,-,,Study/JOL,"Study Phase2",669,,,-1,-1,,,,0.75
w10020600_bmm,dnokd0cjlr,Relational_NO_JOL,1,250,2020-05-07T09:11:01-07:00,7.0608069896698,1,versionA_stim.csv,READVersionA.csv,"Read Version A","Relational, read only version A",INCENSE,SMELL,Study2,F,110,167,Study,User,-,,Study/JOL,"Study Phase2",1195,,,-1,-1,,,,0.833
w10020600_bmm,dnokd0cjlr,Relational_NO_JOL,1,251,2020-05-07T09:11:08-07:00,6.8284759521484,1,versionA_stim.csv,READVersionA.csv,"Read Version A","Relational, read only version A",TURN,FLIP,Study2,B,116,150,Study,User,-,,Study/JOL,"Study Phase2",751,,,-1,-1,,,,0.75
w10020600_bmm,dnokd0cjlr,Relational_NO_JOL,1,252,2020-05-07T09:11:26-07:00,17.855206012726,1,versionA_stim.csv,READVersionA.csv,"Read Version A","Relational, read only version A",FUZZY,BANG,Study2,U,168,111,Study,User,-,,Study/JOL,"Study Phase2",767,,,-1,-1,,,,0.75
w10020600_bmm,dnokd0cjlr,Relational_NO_JOL,1,253,2020-05-07T09:11:39-07:00,13.337352991104,1,versionA_stim.csv,READVersionA.csv,"Read Version A","Relational, read only version A",CAT,PANTHER,Study2,B,126,163,Study,User,-,,Study/JOL,"Study Phase2",1980,,,-1,-1,,,,0.9
w10020600_bmm,dnokd0cjlr,Relational_NO_JOL,1,254,2020-05-07T09:11:45-07:00,6.1041269302368,1,versionA_stim.csv,READVersionA.csv,"Read Version A","Relational, read only version A",FLEA,TICK,Study2,S,151,120,Study,User,-,,Study/JOL,"Study Phase2",522,,,-1,-1,,,,0.667
w10020600_bmm,dnokd0cjlr,Relational_NO_JOL,1,255,2020-05-07T09:12:23-07:00,37.57356095314,1,versionA_stim.csv,READVersionA.csv,"Read Version A","Relational, read only version A",LITTER,TRASH,Study2,F,103,168,Study,User,-,,Study/JOL,"Study Phase2",37324,,,-1,-1,,,,1
w10020600_bmm,dnokd0cjlr,Relational_NO_JOL,1,256,2020-05-07T09:12:37-07:00,13.705955028534,1,versionA_stim.csv,READVersionA.csv,"Read Version A","Relational, read only version A",TEMPERATURE,Morning,Study2,U,173,152,Study,User,-,,Study/JOL,"Study Phase2",13435,,,-1,-1,,,,1
w10020600_bmm,dnokd0cjlr,Relational_NO_JOL,1,257,2020-05-07T09:12:45-07:00,8.2330889701843,1,versionA_stim.csv,READVersionA.csv,"Read Version A","Relational, read only version A",PHONE,COMMUNICATION,Study2,S,149,117,Study,User,-,,Study/JOL,"Study Phase2",932,,,-1,-1,,,,0.8
w10020600_bmm,dnokd0cjlr,Relational_NO_JOL,1,258,2020-05-07T09:12:50-07:00,5.0402901172638,1,versionA_stim.csv,READVersionA.csv,"Read Version A","Relational, read only version A",DOCUMENT,PAPER,Study2,F,109,99,Study,User,-,,Study/JOL,"Study Phase2",4786,,,-1,-1,,,,1
w10020600_bmm,dnokd0cjlr,Relational_NO_JOL,1,259,2020-05-07T09:13:06-07:00,16.128066062927,1,versionA_stim.csv,READVersionA.csv,"Read Version A","Relational, read only version A",RAZOR,SHAVE,Study2,S,136,148,Study,User,-,,Study/JOL,"Study Phase2",15851,,,-1,-1,,,,1
w10020600_bmm,dnokd0cjlr,Relational_NO_JOL,1,260,2020-05-07T09:13:22-07:00,16.410578012466,1,versionA_stim.csv,READVersionA.csv,"Read Version A","Relational, read only version A",DINE,EAT,Study2,F,111,127,Study,User,-,,Study/JOL,"Study Phase2",16111,,,-1,-1,,,,1
w10020600_bmm,dnokd0cjlr,Relational_NO_JOL,1,261,2020-05-07T09:13:27-07:00,4.9922029972076,1,versionA_stim.csv,READVersionA.csv,"Read Version A","Relational, read only version A",SHOELACE,TIE,Study2,F,99,139,Study,User,-,,Study/JOL,"Study Phase2",673,,,-1,-1,,,,0.75
w10020600_bmm,dnokd0cjlr,Relational_NO_JOL,1,262,2020-05-07T09:13:44-07:00,17.117427825928,1,versionA_stim.csv,READVersionA.csv,"Read Version A","Relational, read only version A",FURRY,DOG,Study2,F,102,128,Study,User,-,,Study/JOL,"Study Phase2",606,,,-1,-1,,,,0.667
w10020600_bmm,dnokd0cjlr,Relational_NO_JOL,1,263,2020-05-07T09:13:47-07:00,2.3581750392914,1,versionA_stim.csv,READVersionA.csv,"Read Version A","Relational, read only version A",CHOP,CUT,Study2,F,107,136,Study,User,-,,Study/JOL,"Study Phase2",2097,,,-1,-1,,,,1
w10020600_bmm,dnokd0cjlr,Relational_NO_JOL,1,264,2020-05-07T09:13:51-07:00,3.8757100105286,1,versionA_stim.csv,READVersionA.csv,"Read Version A","Relational, read only version A",BIRD,PENGUIN,Study2,B,119,141,Study,User,-,,Study/JOL,"Study Phase2",3613,,,-1,-1,,,,1
w10020600_bmm,dnokd0cjlr,Relational_NO_JOL,1,265,2020-05-07T09:13:53-07:00,2.3135809898376,1,versionA_stim.csv,READVersionA.csv,"Read Version A","Relational, read only version A",DEAD,COFFIN,Study2,B,128,108,Study,User,-,,Study/JOL,"Study Phase2",2076,,,-1,-1,,,,1
w10020600_bmm,dnokd0cjlr,Relational_NO_JOL,1,266,2020-05-07T09:13:56-07:00,3.2803490161896,1,versionA_stim.csv,READVersionA.csv,"Read Version A","Relational, read only version A",BOTH,OUNCE,Study2,U,172,102,Study,User,-,,Study/JOL,"Study Phase2",3037,,,-1,-1,,,,1
w10020600_bmm,dnokd0cjlr,Relational_NO_JOL,1,267,2020-05-07T09:14:19-07:00,22.732554912567,1,versionA_stim.csv,READVersionA.csv,"Read Version A","Relational, read only version A",MIRROR,CHILDREN,Study2,U,174,154,Study,User,-,,Study/JOL,"Study Phase2",22383,,,-1,-1,,,,1
w10020600_bmm,dnokd0cjlr,Relational_NO_JOL,1,268,2020-05-07T09:14:24-07:00,5.0385251045227,1,versionA_stim.csv,READVersionA.csv,"Read Version A","Relational, read only version A",LEASE,TOIL,Study2,U,170,166,Study,User,-,,Study/JOL,"Study Phase2",678,,,-1,-1,,,,0.75
w10020600_bmm,dnokd0cjlr,Relational_NO_JOL,1,269,2020-05-07T09:14:44-07:00,20.401072978973,1,versionA_stim.csv,READVersionA.csv,"Read Version A","Relational, read only version A",BASEBALL,LEAGUE,Study2,B,131,121,Study,User,-,,Study/JOL,"Study Phase2",20145,,,-1,-1,,,,1
w10020600_bmm,dnokd0cjlr,Relational_NO_JOL,1,270,2020-05-07T09:14:59-07:00,14.582050085068,1,versionA_stim.csv,READVersionA.csv,"Read Version A","Relational, read only version A",JUSTICE,MAROON,Study2,U,156,105,Study,User,-,,Study/JOL,"Study Phase2",730,,,-1,-1,,,,0.75
w10020600_bmm,dnokd0cjlr,Relational_NO_JOL,1,271,2020-05-07T09:15:03-07:00,3.5824730396271,1,versionA_stim.csv,READVersionA.csv,"Read Version A","Relational, read only version A",OCTOBER,SPOOKY,BUFFER4,Buffer,180,181,Study,User,-,,Study/JOL,BUFFER4,3305,,,-1,-1,,,,1
w10020600_bmm,dnokd0cjlr,Relational_NO_JOL,1,272,2020-05-07T09:15:06-07:00,3.4677000045776,1,versionA_stim.csv,READVersionA.csv,"Read Version A","Relational, read only version A",MONTH,YEAR,BUFFER4,Buffer,177,177,Study,User,-,,Study/JOL,BUFFER4,3199,,,-1,-1,,,,1
w10020600_bmm,dnokd0cjlr,Relational_NO_JOL,1,273,2020-05-07T09:15:14-07:00,8.2494349479675,1,versionA_stim.csv,READVersionA.csv,"Read Version A","Relational, read only version A",DAYS,WEAKS,BUFFER4,Buffer,176,178,Study,User,-,,Study/JOL,BUFFER4,1159,,,-1,-1,,,,0.833
w10020600_bmm,dnokd0cjlr,Relational_NO_JOL,1,274,2020-05-07T09:15:20-07:00,6.1128978729248,1,versionA_stim.csv,READVersionA.csv,"Read Version A","Relational, read only version A",SPRING,MARCH,BUFFER4,Buffer,179,180,Study,User,-,,Study/JOL,BUFFER4,642,,,-1,-1,,,,0.75
w10020600_bmm,dnokd0cjlr,Relational_NO_JOL,1,275,2020-05-07T09:15:34-07:00,13.183612108231,1,versionA_stim.csv,READVersionA.csv,"Read Version A","Relational, read only version A",TOOL,SHED,BUFFER4,Buffer,178,179,Study,User,-,,Study/JOL,BUFFER4,1613,,,-1,-1,,,,0.889
w10020600_bmm,dnokd0cjlr,Relational_NO_JOL,1,276,2020-05-07T09:15:39-07:00,5.5062820911407,1,versionA_stim.csv,READVersionA.csv,"Read Version A","Relational, read only version A",,,,,,0,Instruct,User,-,"You have completed this section. Please press Enter.",Filler_Instruction,Instruct5,722,,,-1,-1,,,,0.75
w10020600_bmm,dnokd0cjlr,Relational_NO_JOL,1,277,2020-05-07T09:16:01-07:00,22.25699877739,1,versionA_stim.csv,READVersionA.csv,"Read Version A","Relational, read only version A",,,,,,0,FreeRecall,-,10,"What were you supposed to focus on while you studied each pair? (Hint: Think back to the instructions). Type your answer in the space below.",,CHECK3,21971,"How the two concepts were related ",0,5874,15473,0,0,,1
w10020600_bmm,dnokd0cjlr,Relational_NO_JOL,1,278,2020-05-07T09:16:07-07:00,5.4776401519775,1,versionA_stim.csv,READVersionA.csv,"Read Version A","Relational, read only version A",,,,,,0,Instruct,User,-,"You have completed this section. Please press Enter.",Filler_Instruction,Instruct5,1183,,,-1,-1,,,,0.833
w10020600_bmm,dnokd0cjlr,Relational_NO_JOL,1,279,2020-05-07T09:18:07-07:00,120.24436306953,1,versionA_stim.csv,READVersionA.csv,"Read Version A","Relational, read only version A",,,,,,0,FreeRecall,120,120,"Please list the 50 US states in reverse alphabetical order (z - a). The task will automatically advance to the next screen after two minutes.",,Filler2,120002,"Wyoming Wisconsin West Virginia Washington Virginia Vermont Utah Texas Tennessee",0,14427,99782,0,0,,1
w10020600_bmm,dnokd0cjlr,Relational_NO_JOL,1,280,2020-05-07T09:18:18-07:00,10.971177816391,1,versionA_stim.csv,READVersionA.csv,"Read Version A","Relational, read only version A",,,,,,0,Instruct,-,10,"You will now be presented with the first word from each of the previously studied item pairs. Please type the missing word. If you do not know the word, you may guess or press Enter to skip forward to the next pair.",,Instruct6,10717,,,-1,-1,,,,1
w10020600_bmm,dnokd0cjlr,Relational_NO_JOL,1,281,2020-05-07T09:18:33-07:00,14.9732670784,1,versionA_stim.csv,READVersionA.csv,"Read Version A","Relational, read only version A",AFFECTION,LOVE,Study2,F,115,130,Test,User,-,,Recall,Recall2,1841,love,100,832,1521,1,1,,0.9
w10020600_bmm,dnokd0cjlr,Relational_NO_JOL,1,282,2020-05-07T09:18:43-07:00,10.258848905563,1,versionA_stim.csv,READVersionA.csv,"Read Version A","Relational, read only version A",CHOP,CUT,Study2,F,107,136,Test,User,-,,Recall,Recall2,10014,cut,100,7924,8508,1,1,,1
w10020600_bmm,dnokd0cjlr,Relational_NO_JOL,1,283,2020-05-07T09:18:55-07:00,11.612433195114,1,versionA_stim.csv,READVersionA.csv,"Read Version A","Relational, read only version A",PLANE,AIRCRAFT,Study2,B,129,149,Test,User,-,,Recall,Recall2,11359,pilot,30.769230769231,6871,7939,0,0,,1
w10020600_bmm,dnokd0cjlr,Relational_NO_JOL,1,284,2020-05-07T09:19:00-07:00,5.1765968799591,1,versionA_stim.csv,READVersionA.csv,"Read Version A","Relational, read only version A",RAZOR,SHAVE,Study2,S,136,148,Test,User,-,,Recall,Recall2,4901,shave,100,3603,4256,1,1,,1
w10020600_bmm,dnokd0cjlr,Relational_NO_JOL,1,285,2020-05-07T09:19:15-07:00,14.653096914291,1,versionA_stim.csv,READVersionA.csv,"Read Version A","Relational, read only version A",CAKE,CLOTHES,Study2,U,166,175,Test,User,-,,Recall,Recall2,14034,birthday,26.666666666667,2710,4461,0,0,,1
w10020600_bmm,dnokd0cjlr,Relational_NO_JOL,1,286,2020-05-07T09:19:56-07:00,41.687200069427,1,versionA_stim.csv,READVersionA.csv,"Read Version A","Relational, read only version A",ROD,REEL,Study2,S,150,98,Test,User,-,,Recall,Recall2,1714,pole,25,897,1382,0,0,,0.889
w10020600_bmm,dnokd0cjlr,Relational_NO_JOL,1,287,2020-05-07T09:20:31-07:00,34.83821606636,1,versionA_stim.csv,READVersionA.csv,"Read Version A","Relational, read only version A",FISH,SARDINE,Study2,B,130,125,Test,User,-,,Recall,Recall2,34565,shrimp,46.153846153846,32348,33793,0,0,,1
w10020600_bmm,dnokd0cjlr,Relational_NO_JOL,1,288,2020-05-07T09:20:59-07:00,27.949405908585,1,versionA_stim.csv,READVersionA.csv,"Read Version A","Relational, read only version A",CANDLE,WAX,Study2,S,139,101,Test,User,-,,Recall,Recall2,27678,fire,0,26634,27089,0,0,,1
w10020600_bmm,dnokd0cjlr,Relational_NO_JOL,1,289,2020-05-07T09:21:12-07:00,13.12312912941,1,versionA_stim.csv,READVersionA.csv,"Read Version A","Relational, read only version A",GONE,AWAY,Study2,S,142,131,Test,User,-,,Recall,Recall2,12851,away,100,11641,12265,1,1,,1
w10020600_bmm,dnokd0cjlr,Relational_NO_JOL,1,290,2020-05-07T09:21:19-07:00,7.0760090351105,1,versionA_stim.csv,READVersionA.csv,"Read Version A","Relational, read only version A",FLEA,TICK,Study2,S,151,120,Test,User,-,,Recall,Recall2,1819,tick,100,915,1447,1,1,,0.889
w10020600_bmm,dnokd0cjlr,Relational_NO_JOL,1,291,2020-05-07T09:21:36-07:00,16.097512960434,1,versionA_stim.csv,READVersionA.csv,"Read Version A","Relational, read only version A",MASON,JAR,Study2,S,138,103,Test,User,-,,Recall,Recall2,1295,fix,0,454,857,0,0,,0.857
w10020600_bmm,dnokd0cjlr,Relational_NO_JOL,1,292,2020-05-07T09:21:47-07:00,11.666743040085,1,versionA_stim.csv,READVersionA.csv,"Read Version A","Relational, read only version A",TRUTH,LIE,Study2,S,148,134,Test,User,-,,Recall,Recall2,1798,lie,100,757,1117,1,1,,0.889
w10020600_bmm,dnokd0cjlr,Relational_NO_JOL,1,293,2020-05-07T09:22:12-07:00,25.153759002686,1,versionA_stim.csv,READVersionA.csv,"Read Version A","Relational, read only version A",FUZZY,BANG,Study2,U,168,111,Test,User,-,,Recall,Recall2,24851,,0,-1,-1,0,0,,1
w10020600_bmm,dnokd0cjlr,Relational_NO_JOL,1,294,2020-05-07T09:22:43-07:00,31.160191774368,1,versionA_stim.csv,READVersionA.csv,"Read Version A","Relational, read only version A",TURN,FLIP,Study2,B,116,150,Test,User,-,,Recall,Recall2,8865,direction,15.384615384615,6719,8232,0,0,,0.978
w10020600_bmm,dnokd0cjlr,Relational_NO_JOL,1,295,2020-05-07T09:22:58-07:00,14.597295045853,1,versionA_stim.csv,READVersionA.csv,"Read Version A","Relational, read only version A",SLEEP,NAP,Study2,B,134,164,Test,User,-,,Recall,Recall2,14340,night,25,13278,13880,0,0,,1
w10020600_bmm,dnokd0cjlr,Relational_NO_JOL,1,296,2020-05-07T09:23:10-07:00,11.961241960526,1,versionA_stim.csv,READVersionA.csv,"Read Version A","Relational, read only version A",EVEN,REVENGE,Study2,B,122,142,Test,User,-,,Recall,Recall2,11699,level,50,9852,11345,0,0,,1
w10020600_bmm,dnokd0cjlr,Relational_NO_JOL,1,297,2020-05-07T09:23:17-07:00,7.2738780975342,1,versionA_stim.csv,READVersionA.csv,"Read Version A","Relational, read only version A",CACTUS,PLANT,Study2,F,98,112,Test,User,-,,Recall,Recall2,1788,plant,100,632,1481,1,1,,0.889
w10020600_bmm,dnokd0cjlr,Relational_NO_JOL,1,298,2020-05-07T09:23:34-07:00,17.108877897263,1,versionA_stim.csv,READVersionA.csv,"Read Version A","Relational, read only version A",CAR,WINDSHIELD,Study2,B,117,138,Test,User,-,,Recall,Recall2,16840,windshield,100,2379,15600,1,1,,1
w10020600_bmm,dnokd0cjlr,Relational_NO_JOL,1,299,2020-05-07T09:24:16-07:00,41.256081104279,1,versionA_stim.csv,READVersionA.csv,"Read Version A","Relational, read only version A",BOTH,OUNCE,Study2,U,172,102,Test,User,-,,Recall,Recall2,40993,,0,-1,-1,0,0,,1
w10020600_bmm,dnokd0cjlr,Relational_NO_JOL,1,300,2020-05-07T09:24:32-07:00,16.054312944412,1,versionA_stim.csv,READVersionA.csv,"Read Version A","Relational, read only version A",CAT,PANTHER,Study2,B,126,163,Test,User,-,,Recall,Recall2,1751,dog,0,929,1369,0,0,,0.889
w10020600_bmm,dnokd0cjlr,Relational_NO_JOL,1,301,2020-05-07T09:24:40-07:00,8.2649869918823,1,versionA_stim.csv,READVersionA.csv,"Read Version A","Relational, read only version A",MAIN,SCAR,Study2,U,175,116,Test,User,-,,Recall,Recall2,7983,,0,-1,-1,0,0,,1
w10020600_bmm,dnokd0cjlr,Relational_NO_JOL,1,302,2020-05-07T09:24:46-07:00,5.9764750003815,1,versionA_stim.csv,READVersionA.csv,"Read Version A","Relational, read only version A",FIGHT,BRAWL,Study2,B,135,172,Test,User,-,,Recall,Recall2,5714,brawl,100,3814,5077,1,1,,1
w10020600_bmm,dnokd0cjlr,Relational_NO_JOL,1,303,2020-05-07T09:25:02-07:00,16.328794956207,1,versionA_stim.csv,READVersionA.csv,"Read Version A","Relational, read only version A",CLUE,GAME,Study2,F,97,132,Test,User,-,,Recall,Recall2,1680,game,100,565,1095,1,1,,0.889
w10020600_bmm,dnokd0cjlr,Relational_NO_JOL,1,304,2020-05-07T09:25:12-07:00,9.9926421642303,1,versionA_stim.csv,READVersionA.csv,"Read Version A","Relational, read only version A",SHOELACE,TIE,Study2,F,99,139,Test,User,-,,Recall,Recall2,1288,tie,100,316,585,1,1,,0.857
w10020600_bmm,dnokd0cjlr,Relational_NO_JOL,1,305,2020-05-07T09:25:38-07:00,26.186341047287,1,versionA_stim.csv,READVersionA.csv,"Read Version A","Relational, read only version A",THREAD,THIMBLE,Study2,B,121,115,Test,User,-,,Recall,Recall2,7703,sew,20,271,654,0,0,,0.974
w10020600_bmm,dnokd0cjlr,Relational_NO_JOL,1,306,2020-05-07T09:26:03-07:00,24.113852977753,1,versionA_stim.csv,READVersionA.csv,"Read Version A","Relational, read only version A",SHEARS,SCISSORS,Study2,F,112,146,Test,User,-,,Recall,Recall2,23870,clippers,50,22134,23417,0,0,,1
w10020600_bmm,dnokd0cjlr,Relational_NO_JOL,1,307,2020-05-07T09:26:10-07:00,7.5851879119873,1,versionA_stim.csv,READVersionA.csv,"Read Version A","Relational, read only version A",MOAT,CLEAR,Study2,U,169,106,Test,User,-,,Recall,Recall2,1819,clear,100,774,1520,1,1,,0.889
w10020600_bmm,dnokd0cjlr,Relational_NO_JOL,1,308,2020-05-07T09:26:19-07:00,9.2116990089417,1,versionA_stim.csv,READVersionA.csv,"Read Version A","Relational, read only version A",LOAN,SIGN,Study2,U,171,165,Test,User,-,,Recall,Recall2,1672,money,22.222222222222,72,890,0,0,,0.889
w10020600_bmm,dnokd0cjlr,Relational_NO_JOL,1,309,2020-05-07T09:26:25-07:00,5.1705238819122,1,versionA_stim.csv,READVersionA.csv,"Read Version A","Relational, read only version A",STAR,ACTRESS,Study2,B,120,104,Test,User,-,,Recall,Recall2,4929,actress,100,3000,4305,1,1,,1
w10020600_bmm,dnokd0cjlr,Relational_NO_JOL,1,310,2020-05-07T09:26:30-07:00,5.1125781536102,1,versionA_stim.csv,READVersionA.csv,"Read Version A","Relational, read only version A",BIRD,PENGUIN,Study2,B,119,141,Test,User,-,,Recall,Recall2,4868,penguin,100,2267,3778,1,1,,1
w10020600_bmm,dnokd0cjlr,Relational_NO_JOL,1,311,2020-05-07T09:26:35-07:00,5.2034480571747,1,versionA_stim.csv,READVersionA.csv,"Read Version A","Relational, read only version A",TEMPERATURE,Morning,Study2,U,173,152,Test,User,-,,Recall,Recall2,4926,cold,18.181818181818,4237,4643,0,0,,1
w10020600_bmm,dnokd0cjlr,Relational_NO_JOL,1,312,2020-05-07T09:26:46-07:00,11.538793802261,1,versionA_stim.csv,READVersionA.csv,"Read Version A","Relational, read only version A",DOCUMENT,PAPER,Study2,F,109,99,Test,User,-,,Recall,Recall2,1838,paper,100,632,1194,1,1,,0.9
w10020600_bmm,dnokd0cjlr,Relational_NO_JOL,1,313,2020-05-07T09:26:57-07:00,10.305274009705,1,versionA_stim.csv,READVersionA.csv,"Read Version A","Relational, read only version A",PHONE,COMMUNICATION,Study2,S,149,117,Test,User,-,,Recall,Recall2,1270,call,23.529411764706,344,853,0,0,,0.857
w10020600_bmm,dnokd0cjlr,Relational_NO_JOL,1,314,2020-05-07T09:27:03-07:00,6.1564710140228,1,versionA_stim.csv,READVersionA.csv,"Read Version A","Relational, read only version A",CHILL,COLD,Study2,F,114,126,Test,User,-,,Recall,Recall2,5893,"frigid ",20,2663,4894,0,0,,1
w10020600_bmm,dnokd0cjlr,Relational_NO_JOL,1,315,2020-05-07T09:27:05-07:00,2.0037231445312,1,versionA_stim.csv,READVersionA.csv,"Read Version A","Relational, read only version A",CHERRY,RED,Study2,F,104,140,Test,User,-,,Recall,Recall2,1793,red,100,1222,1540,1,1,,1
w10020600_bmm,dnokd0cjlr,Relational_NO_JOL,1,316,2020-05-07T09:27:24-07:00,18.905156850815,1,versionA_stim.csv,READVersionA.csv,"Read Version A","Relational, read only version A",MONEY,BANKER,Study2,B,132,129,Test,User,-,,Recall,Recall2,3383,pay,22.222222222222,2675,2994,0,0,,0.941
w10020600_bmm,dnokd0cjlr,Relational_NO_JOL,1,317,2020-05-07T09:27:36-07:00,12.231579065323,1,versionA_stim.csv,READVersionA.csv,"Read Version A","Relational, read only version A",JUSTICE,MAROON,Study2,U,156,105,Test,User,-,,Recall,Recall2,11006,hero,40,9612,10248,0,0,,1
w10020600_bmm,dnokd0cjlr,Relational_NO_JOL,1,318,2020-05-07T09:27:50-07:00,13.91517496109,1,versionA_stim.csv,READVersionA.csv,"Read Version A","Relational, read only version A",LEASE,TOIL,Study2,U,170,166,Test,User,-,,Recall,Recall2,10794,own,28.571428571429,2507,10160,0,0,,1
w10020600_bmm,dnokd0cjlr,Relational_NO_JOL,1,319,2020-05-07T09:27:58-07:00,8.0925011634827,1,versionA_stim.csv,READVersionA.csv,"Read Version A","Relational, read only version A",HONEST,TRUTHFUL,Study2,B,133,170,Test,User,-,,Recall,Recall2,7814,truth,76.923076923077,5638,7263,0,1,,1
w10020600_bmm,dnokd0cjlr,Relational_NO_JOL,1,320,2020-05-07T09:28:14-07:00,15.502491950989,1,versionA_stim.csv,READVersionA.csv,"Read Version A","Relational, read only version A",WATER,DRINK,Study2,S,143,153,Test,User,-,,Recall,Recall2,15262,lake,22.222222222222,13696,14637,0,0,,1
w10020600_bmm,dnokd0cjlr,Relational_NO_JOL,1,321,2020-05-07T09:28:29-07:00,15.692482948303,1,versionA_stim.csv,READVersionA.csv,"Read Version A","Relational, read only version A",EARTH,GROUND,Study2,S,144,135,Test,User,-,,Recall,Recall2,1830,ground,100,273,1160,1,1,,0.9
w10020600_bmm,dnokd0cjlr,Relational_NO_JOL,1,322,2020-05-07T09:28:49-07:00,19.364862918854,1,versionA_stim.csv,READVersionA.csv,"Read Version A","Relational, read only version A",MAZE,ELECTION,Study2,U,159,158,Test,User,-,,Recall,Recall2,1160,law,18.181818181818,138,453,0,0,,0.833
w10020600_bmm,dnokd0cjlr,Relational_NO_JOL,1,323,2020-05-07T09:28:56-07:00,7.1522541046143,1,versionA_stim.csv,READVersionA.csv,"Read Version A","Relational, read only version A",OWN,HAVE,Study2,S,153,160,Test,User,-,,Recall,Recall2,6895,obtain,20,4334,5549,0,0,,1
w10020600_bmm,dnokd0cjlr,Relational_NO_JOL,1,324,2020-05-07T09:29:02-07:00,6.3699400424957,1,versionA_stim.csv,READVersionA.csv,"Read Version A","Relational, read only version A",RIGHTS,EQUAL,Study2,S,137,157,Test,User,-,,Recall,Recall2,6105,equal,100,2998,5481,1,1,,1
w10020600_bmm,dnokd0cjlr,Relational_NO_JOL,1,325,2020-05-07T09:29:07-07:00,4.4382288455963,1,versionA_stim.csv,READVersionA.csv,"Read Version A","Relational, read only version A",CRACKLE,ABLE,Study2,U,162,100,Test,User,-,,Recall,Recall2,4168,fire,25,2984,3582,0,0,,1
w10020600_bmm,dnokd0cjlr,Relational_NO_JOL,1,326,2020-05-07T09:29:54-07:00,47.104974985123,1,versionA_stim.csv,READVersionA.csv,"Read Version A","Relational, read only version A",BASEBALL,LEAGUE,Study2,B,131,121,Test,User,-,,Recall,Recall2,46644,pitch,0,45002,45947,0,0,,1
w10020600_bmm,dnokd0cjlr,Relational_NO_JOL,1,327,2020-05-07T09:30:00-07:00,6.551460981369,1,versionA_stim.csv,READVersionA.csv,"Read Version A","Relational, read only version A",SUN,TAN,Study2,S,155,97,Test,User,-,,Recall,Recall2,6283,day,33.333333333333,5336,5654,0,0,,1
w10020600_bmm,dnokd0cjlr,Relational_NO_JOL,1,328,2020-05-07T09:30:09-07:00,9.0288231372833,1,versionA_stim.csv,READVersionA.csv,"Read Version A","Relational, read only version A",LITTER,TRASH,Study2,F,103,168,Test,User,-,,Recall,Recall2,2330,trash,100,931,1637,1,1,,0.917
w10020600_bmm,dnokd0cjlr,Relational_NO_JOL,1,329,2020-05-07T09:30:22-07:00,12.331593036652,1,versionA_stim.csv,READVersionA.csv,"Read Version A","Relational, read only version A",POP,BALLOON,Study2,B,123,124,Test,User,-,,Recall,Recall2,12080,balloon,100,10509,11540,1,1,,1
w10020600_bmm,dnokd0cjlr,Relational_NO_JOL,1,330,2020-05-07T09:30:28-07:00,6.0687110424042,1,versionA_stim.csv,READVersionA.csv,"Read Version A","Relational, read only version A",BAD,VILLAIN,Study2,B,118,113,Test,User,-,,Recall,Recall2,5798,good,0,1443,1910,0,0,,1
w10020600_bmm,dnokd0cjlr,Relational_NO_JOL,1,331,2020-05-07T09:30:37-07:00,9.7703688144684,1,versionA_stim.csv,READVersionA.csv,"Read Version A","Relational, read only version A",FURRY,DOG,Study2,F,102,128,Test,User,-,,Recall,Recall2,9485,animal,0,8032,8803,0,0,,1
w10020600_bmm,dnokd0cjlr,Relational_NO_JOL,1,332,2020-05-07T09:31:15-07:00,37.407880067825,1,versionA_stim.csv,READVersionA.csv,"Read Version A","Relational, read only version A",DEAD,COFFIN,Study2,B,128,108,Test,User,-,,Recall,Recall2,37161,alive,18.181818181818,34115,36432,0,0,,1
w10020600_bmm,dnokd0cjlr,Relational_NO_JOL,1,333,2020-05-07T09:31:20-07:00,4.9915330410004,1,versionA_stim.csv,READVersionA.csv,"Read Version A","Relational, read only version A",MIRROR,CHILDREN,Study2,U,174,154,Test,User,-,,Recall,Recall2,4734,reflection,33.333333333333,1871,4261,0,0,,1
w10020600_bmm,dnokd0cjlr,Relational_NO_JOL,1,334,2020-05-07T09:31:29-07:00,9.3493270874023,1,versionA_stim.csv,READVersionA.csv,"Read Version A","Relational, read only version A",DETECTIVE,MYSTERY,Study2,F,100,159,Test,User,-,,Recall,Recall2,1342,spy,40,374,696,0,0,,0.857
w10020600_bmm,dnokd0cjlr,Relational_NO_JOL,1,335,2020-05-07T09:31:45-07:00,15.971177816391,1,versionA_stim.csv,READVersionA.csv,"Read Version A","Relational, read only version A",STRETCH,CLOTH,Study2,U,157,118,Test,User,-,,Recall,Recall2,6643,cloth,100,5377,6021,1,1,,0.971
w10020600_bmm,dnokd0cjlr,Relational_NO_JOL,1,336,2020-05-07T09:32:25-07:00,39.46574306488,1,versionA_stim.csv,READVersionA.csv,"Read Version A","Relational, read only version A",GLASS,BREAKABLE,Study2,B,127,133,Test,User,-,,Recall,Recall2,39185,breakable,100,36181,38299,1,1,,1
w10020600_bmm,dnokd0cjlr,Relational_NO_JOL,1,337,2020-05-07T09:32:32-07:00,6.9403920173645,1,versionA_stim.csv,READVersionA.csv,"Read Version A","Relational, read only version A",SCALP,HEAD,Study2,F,105,119,Test,User,-,,Recall,Recall2,1162,head,100,144,644,1,1,,0.833
w10020600_bmm,dnokd0cjlr,Relational_NO_JOL,1,338,2020-05-07T09:32:36-07:00,4.6218168735504,1,versionA_stim.csv,READVersionA.csv,"Read Version A","Relational, read only version A",VEHICLE,CHARM,Study2,U,160,109,Test,User,-,,Recall,Recall2,4097,driver,18.181818181818,2336,3646,0,0,,1
w10020600_bmm,dnokd0cjlr,Relational_NO_JOL,1,339,2020-05-07T09:32:55-07:00,18.557933092117,1,versionA_stim.csv,READVersionA.csv,"Read Version A","Relational, read only version A",WRIST,BRACELET,Study2,S,140,145,Test,User,-,,Recall,Recall2,3063,bracelets,94.117647058824,390,2476,0,1,,0.938
w10020600_bmm,dnokd0cjlr,Relational_NO_JOL,1,340,2020-05-07T09:33:01-07:00,6.3460431098938,1,versionA_stim.csv,READVersionA.csv,"Read Version A","Relational, read only version A",INCENSE,SMELL,Study2,F,110,167,Test,User,-,,Recall,Recall2,740,,0,-1,-1,0,0,,0.75
w10020600_bmm,dnokd0cjlr,Relational_NO_JOL,1,341,2020-05-07T09:33:09-07:00,7.683168888092,1,versionA_stim.csv,READVersionA.csv,"Read Version A","Relational, read only version A",DINE,EAT,Study2,F,111,127,Test,User,-,,Recall,Recall2,1206,eat,100,334,612,1,1,,0.833
w10020600_bmm,dnokd0cjlr,Relational_NO_JOL,1,342,2020-05-07T09:33:15-07:00,6.4268450737,1,versionA_stim.csv,READVersionA.csv,"Read Version A","Relational, read only version A",DRIVER,CAR,Study2,F,106,176,Test,User,-,,Recall,Recall2,6159,vehicle,20,4283,5424,0,0,,1
w10020600_bmm,dnokd0cjlr,Relational_NO_JOL,1,343,2020-05-07T09:33:29-07:00,14.123744010925,1,versionA_stim.csv,READVersionA.csv,"Read Version A","Relational, read only version A",FEUD,FIGHT,Study2,F,113,162,Test,User,-,,Recall,Recall2,13865,fight,100,12823,13332,1,1,,1
w10020600_bmm,dnokd0cjlr,Relational_NO_JOL,1,344,2020-05-07T09:33:33-07:00,3.925822019577,1,versionA_stim.csv,READVersionA.csv,"Read Version A","Relational, read only version A",EXTENSION,LONG,Study2,F,96,144,Test,User,-,,Recall,Recall2,3638,long,100,1843,2648,1,1,,1
w10020600_bmm,dnokd0cjlr,Relational_NO_JOL,1,345,2020-05-07T09:33:42-07:00,8.9890868663788,1,versionA_stim.csv,READVersionA.csv,"Read Version A","Relational, read only version A",NAME,HATE,Study2,U,167,169,Test,User,-,,Recall,Recall2,8724,hate,100,7710,8128,1,1,,1
w10020600_bmm,dnokd0cjlr,Relational_NO_JOL,1,346,2020-05-07T09:33:50-07:00,7.8549900054932,1,versionA_stim.csv,READVersionA.csv,"Read Version A","Relational, read only version A",BEST,FAVORITE,Study2,B,125,110,Test,User,-,,Recall,Recall2,7595,good,16.666666666667,6762,7403,0,0,,1
w10020600_bmm,dnokd0cjlr,Relational_NO_JOL,1,347,2020-05-07T09:34:18-07:00,27.77433013916,1,versionA_stim.csv,READVersionA.csv,"Read Version A","Relational, read only version A",TANTRUM,TEMPER,Study2,S,154,156,Test,User,-,,Recall,Recall2,5977,temper,100,1480,5085,1,1,,0.967
w10020600_bmm,dnokd0cjlr,Relational_NO_JOL,1,348,2020-05-07T09:34:27-07:00,9.2662518024445,1,versionA_stim.csv,READVersionA.csv,"Read Version A","Relational, read only version A",DRY,WET,Study2,S,146,143,Test,User,-,,Recall,Recall2,9003,wet,100,8141,8438,1,1,,1
w10020600_bmm,dnokd0cjlr,Relational_NO_JOL,1,349,2020-05-07T09:34:38-07:00,10.971628189087,1,versionA_stim.csv,READVersionA.csv,"Read Version A","Relational, read only version A",SAFETY,SEATBELT,Study2,S,147,173,Test,User,-,,Recall,Recall2,3127,security,37.5,826,2224,0,0,,0.938
w10020600_bmm,dnokd0cjlr,Relational_NO_JOL,1,350,2020-05-07T09:34:42-07:00,4.2775249481201,1,versionA_stim.csv,READVersionA.csv,"Read Version A","Relational, read only version A",LOUD,NOISE,Study2,S,152,122,Test,User,-,,Recall,Recall2,4000,noise,100,2698,3484,1,1,,1
w10020600_bmm,dnokd0cjlr,Relational_NO_JOL,1,351,2020-05-07T09:34:47-07:00,4.2827739715576,1,versionA_stim.csv,READVersionA.csv,"Read Version A","Relational, read only version A",LISTEN,FICTION,Study2,U,164,107,Test,User,-,,Recall,Recall2,4009,sound,33.333333333333,2637,3301,0,0,,1
w10020600_bmm,dnokd0cjlr,Relational_NO_JOL,1,352,2020-05-07T09:34:53-07:00,6.6455180644989,1,versionA_stim.csv,READVersionA.csv,"Read Version A","Relational, read only version A",ALONE,LONELY,Study2,S,145,114,Test,User,-,,Recall,Recall2,1822,lonely,100,128,1045,1,1,,0.889
w10020600_bmm,dnokd0cjlr,Relational_NO_JOL,1,353,2020-05-07T09:35:00-07:00,7.1485078334808,1,versionA_stim.csv,READVersionA.csv,"Read Version A","Relational, read only version A",MULE,DONKEY,Study2,F,108,137,Test,User,-,,Recall,Recall2,1798,donkey,100,424,1274,1,1,,0.889
w10020600_bmm,dnokd0cjlr,Relational_NO_JOL,1,354,2020-05-07T09:35:04-07:00,3.2565581798553,1,versionA_stim.csv,READVersionA.csv,"Read Version A","Relational, read only version A",ELEMENT,CARBON,Study2,S,141,161,Test,User,-,,Recall,Recall2,2986,carbon,100,1443,2595,1,1,,1
w10020600_bmm,dnokd0cjlr,Relational_NO_JOL,1,355,2020-05-07T09:35:08-07:00,4.5754849910736,1,versionA_stim.csv,READVersionA.csv,"Read Version A","Relational, read only version A",KEYS,JOKE,Study2,U,165,147,Test,User,-,,Recall,Recall2,4314,joke,100,3383,3980,1,1,,1
w10020600_bmm,dnokd0cjlr,Relational_NO_JOL,1,356,2020-05-07T09:35:15-07:00,7.0797028541565,1,versionA_stim.csv,READVersionA.csv,"Read Version A","Relational, read only version A",GIVE,STEAK,Study2,U,158,174,Test,User,-,,Recall,Recall2,1493,take,66.666666666667,388,819,0,0,,0.875
w10020600_bmm,dnokd0cjlr,Relational_NO_JOL,1,357,2020-05-07T09:35:27-07:00,11.704171180725,1,versionA_stim.csv,READVersionA.csv,"Read Version A","Relational, read only version A",ADJOURN,END,Study2,F,101,171,Test,User,-,,Recall,Recall2,3808,end,100,853,1155,1,1,,0.947
w10020600_bmm,dnokd0cjlr,Relational_NO_JOL,1,358,2020-05-07T09:35:33-07:00,6.3944389820099,1,versionA_stim.csv,READVersionA.csv,"Read Version A","Relational, read only version A",MEAT,OBTAIN,Study2,U,161,151,Test,User,-,,Recall,Recall2,6054,take,40,3962,5442,0,0,,1
w10020600_bmm,dnokd0cjlr,Relational_NO_JOL,1,359,2020-05-07T09:35:56-07:00,23.02036690712,1,versionA_stim.csv,READVersionA.csv,"Read Version A","Relational, read only version A",FRUIT,STRAWBERRY,Study2,B,124,155,Test,User,-,,Recall,Recall2,22737,melon,13.333333333333,20850,22082,0,0,,1
w10020600_bmm,dnokd0cjlr,Relational_NO_JOL,1,360,2020-05-07T09:36:03-07:00,6.9417660236359,1,versionA_stim.csv,READVersionA.csv,"Read Version A","Relational, read only version A",Shell,SHAKE,Study2,U,163,123,Test,User,-,,Recall,Recall2,6674,shake,100,5320,5838,1,1,,1
w10020600_bmm,dnokd0cjlr,Relational_NO_JOL,1,361,2020-05-07T09:36:09-07:00,5.5516769886017,1,versionA_stim.csv,READVersionA.csv,"Read Version A","Relational, read only version A",,,,,,0,Instruct,User,-,"You have completed this section. Please press Enter.",,Instruct7,688,,,-1,-1,,,,0.75
w10020600_bmm,dnokd0cjlr,Relational_NO_JOL,1,362,2020-05-07T09:36:17-07:00,7.9690320491791,1,versionA_stim.csv,READVersionA.csv,"Read Version A","Relational, read only version A",,,,,,0,Instruct,User,-,"The following screen will ask you a few questions abour your experience today. You must complete these questions to receive credit.",,Instruct8,876,,,-1,-1,,,,0.8
