Username,ID,ExperimentName,Session,Trial,Date,TimeDif,"Condition Number","Stimuli File","Order File","Condition Description","Condition Notes",Stimuli*Cue,Stimuli*Answer,Stimuli*Shuffle,"Stimuli*Stimuli Notes",Stimuli*Value,Procedure*Item,"Procedure*Trial Type","Procedure*Max Time","Procedure*Min Time",Procedure*Text,"Procedure*Procedure Notes",Procedure*Shuffle,Response*RT,Response*Response,Response*Accuracy,Response*RTfirst,Response*RTlast,Response*strictAcc,Response*lenientAcc,Response*focus,Response*Focus
w10041439_jkn,sw0ijgxqji,Relational_NO_JOL,1,1,2020-05-03T11:59:32-07:00,13.827847957611,3,versionC_stim.csv,READVersionC.csv,"Read Version C","Relational, read only version C",,,,,,0,Instruct,-,10,"In this section, you will be presented with a series of word pairs. Please study both items in the pair.",,Instruct15,13516,,,-1,-1,,,,1
w10041439_jkn,sw0ijgxqji,Relational_NO_JOL,1,2,2020-05-03T11:59:49-07:00,16.283388137817,3,versionC_stim.csv,READVersionC.csv,"Read Version C","Relational, read only version C",,,,,,0,Instruct,-,15,"As you study, please think about how the two concepts are RELATED to each other. For example, if you see the pair TURTLE-CAT, think about how both are alive, they are both animals, and both can be kept as pets.",,Instruct19,15878,,,-1,-1,,,,0.975
w10041439_jkn,sw0ijgxqji,Relational_NO_JOL,1,3,2020-05-03T12:00:32-07:00,43.579454898834,3,versionC_stim.csv,READVersionC.csv,"Read Version C","Relational, read only version C",,,,,,0,FreeRecall,-,10,"What you should think about as you study each item pair? Type your response in the box below.",,CHECK1,43229,"The relationship between the two, like for example, TURTLE-CAT. Both are alive and both can be kept as pets.",0,9406,41846,0,0,,1
w10041439_jkn,sw0ijgxqji,Relational_NO_JOL,1,4,2020-05-03T12:00:36-07:00,3.8175120353699,3,versionC_stim.csv,READVersionC.csv,"Read Version C","Relational, read only version C",,,,,,0,Instruct,User,-,"You will now begin the experiment. Press ENTER when you are ready to begin.",,Instruct000,3518,,,-1,-1,,,,1
w10041439_jkn,sw0ijgxqji,Relational_NO_JOL,1,5,2020-05-03T12:00:41-07:00,5.0781140327454,3,versionC_stim.csv,READVersionC.csv,"Read Version C","Relational, read only version C",BUTTER,PEANUT,BUFFER1,Buffer,3,5,Study,User,-,,Study/JOL,BUFFER,4361,,,-1,-1,,,,1
w10041439_jkn,sw0ijgxqji,Relational_NO_JOL,1,6,2020-05-03T12:00:47-07:00,6.0638349056244,3,versionC_stim.csv,READVersionC.csv,"Read Version C","Relational, read only version C",HIDE,SCARE,BUFFER1,Buffer,4,4,Study,User,-,,Study/JOL,BUFFER,5727,,,-1,-1,,,,1
w10041439_jkn,sw0ijgxqji,Relational_NO_JOL,1,7,2020-05-03T12:00:50-07:00,3.1708669662476,3,versionC_stim.csv,READVersionC.csv,"Read Version C","Relational, read only version C",JAM,SPACE,BUFFER1,Buffer,5,3,Study,User,-,,Study/JOL,BUFFER,2816,,,-1,-1,,,,1
w10041439_jkn,sw0ijgxqji,Relational_NO_JOL,1,8,2020-05-03T12:00:55-07:00,4.5417101383209,3,versionC_stim.csv,READVersionC.csv,"Read Version C","Relational, read only version C",GREEN,TREES,BUFFER1,Buffer,1,6,Study,User,-,,Study/JOL,BUFFER,4199,,,-1,-1,,,,1
w10041439_jkn,sw0ijgxqji,Relational_NO_JOL,1,9,2020-05-03T12:00:59-07:00,4.0764760971069,3,versionC_stim.csv,READVersionC.csv,"Read Version C","Relational, read only version C",CATCHER,BASEBALL,BUFFER1,Buffer,2,2,Study,User,-,,Study/JOL,BUFFER,3742,,,-1,-1,,,,1
w10041439_jkn,sw0ijgxqji,Relational_NO_JOL,1,10,2020-05-03T12:01:04-07:00,5.4138269424438,3,versionC_stim.csv,READVersionC.csv,"Read Version C","Relational, read only version C",LIVER,KIDNEY,Study1,S,53,45,Study,User,-,,Study/JOL,"Study Phase",5092,,,-1,-1,,,,1
w10041439_jkn,sw0ijgxqji,Relational_NO_JOL,1,11,2020-05-03T12:01:07-07:00,2.5519468784332,3,versionC_stim.csv,READVersionC.csv,"Read Version C","Relational, read only version C",CAVE,DARK,Study1,F,28,54,Study,User,-,,Study/JOL,"Study Phase",2217,,,-1,-1,,,,1
w10041439_jkn,sw0ijgxqji,Relational_NO_JOL,1,12,2020-05-03T12:01:09-07:00,1.9384880065918,3,versionC_stim.csv,READVersionC.csv,"Read Version C","Relational, read only version C",WAR,REVOLUTION,Study1,B,20,13,Study,User,-,,Study/JOL,"Study Phase",1677,,,-1,-1,,,,1
w10041439_jkn,sw0ijgxqji,Relational_NO_JOL,1,13,2020-05-03T12:01:11-07:00,2.3770661354065,3,versionC_stim.csv,READVersionC.csv,"Read Version C","Relational, read only version C",LATCH,KEY,Study1,F,36,62,Study,User,-,,Study/JOL,"Study Phase",2037,,,-1,-1,,,,1
w10041439_jkn,sw0ijgxqji,Relational_NO_JOL,1,14,2020-05-03T12:01:13-07:00,1.8148539066315,3,versionC_stim.csv,READVersionC.csv,"Read Version C","Relational, read only version C",WORD,SENTENCE,Study1,F,31,22,Study,User,-,,Study/JOL,"Study Phase",1559,,,-1,-1,,,,1
w10041439_jkn,sw0ijgxqji,Relational_NO_JOL,1,15,2020-05-03T12:01:25-07:00,12.193629980087,3,versionC_stim.csv,READVersionC.csv,"Read Version C","Relational, read only version C",POSITION,MACHINE,Study1,U,76,85,Study,User,-,,Study/JOL,"Study Phase",4793,,,-1,-1,,,,1
w10041439_jkn,sw0ijgxqji,Relational_NO_JOL,1,16,2020-05-03T12:01:28-07:00,2.8788039684296,3,versionC_stim.csv,READVersionC.csv,"Read Version C","Relational, read only version C",CHEESE,WINE,Study1,S,57,84,Study,User,-,,Study/JOL,"Study Phase",2540,,,-1,-1,,,,1
w10041439_jkn,sw0ijgxqji,Relational_NO_JOL,1,17,2020-05-03T12:01:33-07:00,4.7968060970306,3,versionC_stim.csv,READVersionC.csv,"Read Version C","Relational, read only version C",VASE,KING,Study1,U,85,50,Study,User,-,,Study/JOL,"Study Phase",4453,,,-1,-1,,,,1
w10041439_jkn,sw0ijgxqji,Relational_NO_JOL,1,18,2020-05-03T12:01:36-07:00,2.6661159992218,3,versionC_stim.csv,READVersionC.csv,"Read Version C","Relational, read only version C",DOG,PAW,Study1,B,15,17,Study,User,-,,Study/JOL,"Study Phase",2317,,,-1,-1,,,,1
w10041439_jkn,sw0ijgxqji,Relational_NO_JOL,1,19,2020-05-03T12:01:39-07:00,3.1892130374908,3,versionC_stim.csv,READVersionC.csv,"Read Version C","Relational, read only version C",BUSINESS,DEATH,Study1,U,72,44,Study,User,-,,Study/JOL,"Study Phase",2854,,,-1,-1,,,,1
w10041439_jkn,sw0ijgxqji,Relational_NO_JOL,1,20,2020-05-03T12:01:42-07:00,2.9396350383759,3,versionC_stim.csv,READVersionC.csv,"Read Version C","Relational, read only version C",BAD,DELINQUENT,Study1,B,6,27,Study,User,-,,Study/JOL,"Study Phase",2608,,,-1,-1,,,,1
w10041439_jkn,sw0ijgxqji,Relational_NO_JOL,1,21,2020-05-03T12:01:45-07:00,3.0306107997894,3,versionC_stim.csv,READVersionC.csv,"Read Version C","Relational, read only version C",SIP,DRINK,Study1,F,27,11,Study,User,-,,Study/JOL,"Study Phase",2690,,,-1,-1,,,,1
w10041439_jkn,sw0ijgxqji,Relational_NO_JOL,1,22,2020-05-03T12:01:46-07:00,1.3002560138702,3,versionC_stim.csv,READVersionC.csv,"Read Version C","Relational, read only version C",OUT,WAY,Study1,B,16,16,Study,User,-,,Study/JOL,"Study Phase",1039,,,-1,-1,,,,1
w10041439_jkn,sw0ijgxqji,Relational_NO_JOL,1,23,2020-05-03T12:01:50-07:00,3.9771900177002,3,versionC_stim.csv,READVersionC.csv,"Read Version C","Relational, read only version C",ACCIDENT,STRONG,Study1,U,80,61,Study,User,-,,Study/JOL,"Study Phase",3664,,,-1,-1,,,,1
w10041439_jkn,sw0ijgxqji,Relational_NO_JOL,1,24,2020-05-03T12:01:52-07:00,1.7525820732117,3,versionC_stim.csv,READVersionC.csv,"Read Version C","Relational, read only version C",WOMAN,LIFT,Study1,U,69,40,Study,User,-,,Study/JOL,"Study Phase",1485,,,-1,-1,,,,1
w10041439_jkn,sw0ijgxqji,Relational_NO_JOL,1,25,2020-05-03T12:01:53-07:00,1.5437300205231,3,versionC_stim.csv,READVersionC.csv,"Read Version C","Relational, read only version C",FANTASTIC,GREAT,Study1,F,35,77,Study,User,-,,Study/JOL,"Study Phase",1294,,,-1,-1,,,,1
w10041439_jkn,sw0ijgxqji,Relational_NO_JOL,1,26,2020-05-03T12:01:54-07:00,0.95723390579224,3,versionC_stim.csv,READVersionC.csv,"Read Version C","Relational, read only version C",BLAZE,FIRE,Study1,F,45,31,Study,User,-,,Study/JOL,"Study Phase",727,,,-1,-1,,,,1
w10041439_jkn,sw0ijgxqji,Relational_NO_JOL,1,27,2020-05-03T12:02:00-07:00,5.6426310539246,3,versionC_stim.csv,READVersionC.csv,"Read Version C","Relational, read only version C",ADD,VALLEY,Study1,U,82,19,Study,User,-,,Study/JOL,"Study Phase",5288,,,-1,-1,,,,1
w10041439_jkn,sw0ijgxqji,Relational_NO_JOL,1,28,2020-05-03T12:02:02-07:00,1.8983600139618,3,versionC_stim.csv,READVersionC.csv,"Read Version C","Relational, read only version C",FLOOR,DISCOVER,Study1,U,71,58,Study,User,-,,Study/JOL,"Study Phase",1631,,,-1,-1,,,,1
w10041439_jkn,sw0ijgxqji,Relational_NO_JOL,1,29,2020-05-03T12:02:03-07:00,1.1900908946991,3,versionC_stim.csv,READVersionC.csv,"Read Version C","Relational, read only version C",MONEY,WAGE,Study1,B,8,24,Study,User,-,,Study/JOL,"Study Phase",935,,,-1,-1,,,,1
w10041439_jkn,sw0ijgxqji,Relational_NO_JOL,1,30,2020-05-03T12:02:05-07:00,1.6854422092438,3,versionC_stim.csv,READVersionC.csv,"Read Version C","Relational, read only version C",SEIZE,TAKE,Study1,F,29,25,Study,User,-,,Study/JOL,"Study Phase",1394,,,-1,-1,,,,1
w10041439_jkn,sw0ijgxqji,Relational_NO_JOL,1,31,2020-05-03T12:02:06-07:00,1.7535898685455,3,versionC_stim.csv,READVersionC.csv,"Read Version C","Relational, read only version C",ATTORNEY,LAW,Study1,F,34,12,Study,User,-,,Study/JOL,"Study Phase",1494,,,-1,-1,,,,1
w10041439_jkn,sw0ijgxqji,Relational_NO_JOL,1,32,2020-05-03T12:02:08-07:00,1.914519071579,3,versionC_stim.csv,READVersionC.csv,"Read Version C","Relational, read only version C",PLANT,ROOT,Study1,B,13,37,Study,User,-,,Study/JOL,"Study Phase",1616,,,-1,-1,,,,1
w10041439_jkn,sw0ijgxqji,Relational_NO_JOL,1,33,2020-05-03T12:02:10-07:00,1.8100900650024,3,versionC_stim.csv,READVersionC.csv,"Read Version C","Relational, read only version C",FLOWER,ORCHID,Study1,B,24,26,Study,User,-,,Study/JOL,"Study Phase",1539,,,-1,-1,,,,1
w10041439_jkn,sw0ijgxqji,Relational_NO_JOL,1,34,2020-05-03T12:02:12-07:00,1.5123817920685,3,versionC_stim.csv,READVersionC.csv,"Read Version C","Relational, read only version C",STING,HORNET,Study1,B,11,39,Study,User,-,,Study/JOL,"Study Phase",1236,,,-1,-1,,,,1
w10041439_jkn,sw0ijgxqji,Relational_NO_JOL,1,35,2020-05-03T12:02:13-07:00,1.3728401660919,3,versionC_stim.csv,READVersionC.csv,"Read Version C","Relational, read only version C",COW,HERD,Study1,B,22,32,Study,User,-,,Study/JOL,"Study Phase",1100,,,-1,-1,,,,1
w10041439_jkn,sw0ijgxqji,Relational_NO_JOL,1,36,2020-05-03T12:02:14-07:00,1.4808440208435,3,versionC_stim.csv,READVersionC.csv,"Read Version C","Relational, read only version C",AMOUNT,NUMBER,Study1,S,47,28,Study,User,-,,Study/JOL,"Study Phase",1212,,,-1,-1,,,,1
w10041439_jkn,sw0ijgxqji,Relational_NO_JOL,1,37,2020-05-03T12:02:17-07:00,2.3780219554901,3,versionC_stim.csv,READVersionC.csv,"Read Version C","Relational, read only version C",HAMMER,CHISEL,Study1,B,9,33,Study,User,-,,Study/JOL,"Study Phase",2032,,,-1,-1,,,,1
w10041439_jkn,sw0ijgxqji,Relational_NO_JOL,1,38,2020-05-03T12:02:19-07:00,2.3152029514313,3,versionC_stim.csv,READVersionC.csv,"Read Version C","Relational, read only version C",RACKET,BALL,Study1,F,38,65,Study,User,-,,Study/JOL,"Study Phase",1980,,,-1,-1,,,,1
w10041439_jkn,sw0ijgxqji,Relational_NO_JOL,1,39,2020-05-03T12:02:21-07:00,1.504124879837,3,versionC_stim.csv,READVersionC.csv,"Read Version C","Relational, read only version C",SITE,LOCATION,Study1,S,48,56,Study,User,-,,Study/JOL,"Study Phase",1190,,,-1,-1,,,,1
w10041439_jkn,sw0ijgxqji,Relational_NO_JOL,1,40,2020-05-03T12:02:22-07:00,1.6000561714172,3,versionC_stim.csv,READVersionC.csv,"Read Version C","Relational, read only version C",ASSIGNMENT,DUE,Study1,S,46,64,Study,User,-,,Study/JOL,"Study Phase",1344,,,-1,-1,,,,1
w10041439_jkn,sw0ijgxqji,Relational_NO_JOL,1,41,2020-05-03T12:02:24-07:00,1.6269528865814,3,versionC_stim.csv,READVersionC.csv,"Read Version C","Relational, read only version C",PILOT,PLANE,Study1,F,44,59,Study,User,-,,Study/JOL,"Study Phase",1356,,,-1,-1,,,,1
w10041439_jkn,sw0ijgxqji,Relational_NO_JOL,1,42,2020-05-03T12:02:26-07:00,2.0086810588837,3,versionC_stim.csv,READVersionC.csv,"Read Version C","Relational, read only version C",DIVISION,MATH,Study1,F,33,9,Study,User,-,,Study/JOL,"Study Phase",1739,,,-1,-1,,,,1
w10041439_jkn,sw0ijgxqji,Relational_NO_JOL,1,43,2020-05-03T12:02:27-07:00,0.96178603172302,3,versionC_stim.csv,READVersionC.csv,"Read Version C","Relational, read only version C",CHILD,BABY,Study1,S,64,71,Study,User,-,,Study/JOL,"Study Phase",700,,,-1,-1,,,,1
w10041439_jkn,sw0ijgxqji,Relational_NO_JOL,1,44,2020-05-03T12:02:32-07:00,5.0053989887238,3,versionC_stim.csv,READVersionC.csv,"Read Version C","Relational, read only version C",,,,,,0,Instruct,-,3,"Remember to focus on how the two items are similiar while you study!",,CHECK2,4678,,,-1,-1,,,,1
w10041439_jkn,sw0ijgxqji,Relational_NO_JOL,1,45,2020-05-03T12:02:34-07:00,2.2584910392761,3,versionC_stim.csv,READVersionC.csv,"Read Version C","Relational, read only version C",BRONZE,ARTERY,Study1,U,74,23,Study,User,-,,Study/JOL,"Study Phase",1859,,,-1,-1,,,,1
w10041439_jkn,sw0ijgxqji,Relational_NO_JOL,1,46,2020-05-03T12:02:37-07:00,2.6378929615021,3,versionC_stim.csv,READVersionC.csv,"Read Version C","Relational, read only version C",STOMACH,DIGESTION,Study1,B,7,48,Study,User,-,,Study/JOL,"Study Phase",2287,,,-1,-1,,,,1
w10041439_jkn,sw0ijgxqji,Relational_NO_JOL,1,47,2020-05-03T12:02:39-07:00,2.1302759647369,3,versionC_stim.csv,READVersionC.csv,"Read Version C","Relational, read only version C",ROUND,CIRCLE,Study1,S,65,52,Study,User,-,,Study/JOL,"Study Phase",1869,,,-1,-1,,,,1
w10041439_jkn,sw0ijgxqji,Relational_NO_JOL,1,48,2020-05-03T12:02:40-07:00,0.61705303192139,3,versionC_stim.csv,READVersionC.csv,"Read Version C","Relational, read only version C",HAND,FIX,Study1,U,75,60,Study,User,-,,Study/JOL,"Study Phase",345,,,-1,-1,,,,1
w10041439_jkn,sw0ijgxqji,Relational_NO_JOL,1,49,2020-05-03T12:02:40-07:00,0.54544401168823,3,versionC_stim.csv,READVersionC.csv,"Read Version C","Relational, read only version C",COLD,BITTER,Study1,B,12,80,Study,User,-,,Study/JOL,"Study Phase",277,,,-1,-1,,,,1
w10041439_jkn,sw0ijgxqji,Relational_NO_JOL,1,50,2020-05-03T12:02:41-07:00,0.60297989845276,3,versionC_stim.csv,READVersionC.csv,"Read Version C","Relational, read only version C",HUNGRY,PARK,Study1,U,68,86,Study,User,-,,Study/JOL,"Study Phase",326,,,-1,-1,,,,1
w10041439_jkn,sw0ijgxqji,Relational_NO_JOL,1,51,2020-05-03T12:02:43-07:00,2.7381529808044,3,versionC_stim.csv,READVersionC.csv,"Read Version C","Relational, read only version C",WASTE,DUMP,Study1,S,49,79,Study,User,-,,Study/JOL,"Study Phase",2426,,,-1,-1,,,,1
w10041439_jkn,sw0ijgxqji,Relational_NO_JOL,1,52,2020-05-03T12:02:45-07:00,1.5281510353088,3,versionC_stim.csv,READVersionC.csv,"Read Version C","Relational, read only version C",FUTURE,PAST,Study1,S,61,18,Study,User,-,,Study/JOL,"Study Phase",1215,,,-1,-1,,,,1
w10041439_jkn,sw0ijgxqji,Relational_NO_JOL,1,53,2020-05-03T12:02:46-07:00,1.1202311515808,3,versionC_stim.csv,READVersionC.csv,"Read Version C","Relational, read only version C",FAMINE,HUNGER,Study1,F,40,49,Study,User,-,,Study/JOL,"Study Phase",861,,,-1,-1,,,,1
w10041439_jkn,sw0ijgxqji,Relational_NO_JOL,1,54,2020-05-03T12:02:47-07:00,0.97221088409424,3,versionC_stim.csv,READVersionC.csv,"Read Version C","Relational, read only version C",CLUTTER,PUSHER,Study1,U,66,43,Study,User,-,,Study/JOL,"Study Phase",711,,,-1,-1,,,,1
w10041439_jkn,sw0ijgxqji,Relational_NO_JOL,1,55,2020-05-03T12:02:50-07:00,2.796767950058,3,versionC_stim.csv,READVersionC.csv,"Read Version C","Relational, read only version C",WIND,BLOW,Study1,S,55,69,Study,User,-,,Study/JOL,"Study Phase",2480,,,-1,-1,,,,1
w10041439_jkn,sw0ijgxqji,Relational_NO_JOL,1,56,2020-05-03T12:02:51-07:00,0.91943407058716,3,versionC_stim.csv,READVersionC.csv,"Read Version C","Relational, read only version C",TOILET,BATHROOM,Study1,S,58,38,Study,User,-,,Study/JOL,"Study Phase",661,,,-1,-1,,,,1
w10041439_jkn,sw0ijgxqji,Relational_NO_JOL,1,57,2020-05-03T12:02:52-07:00,1.5930171012878,3,versionC_stim.csv,READVersionC.csv,"Read Version C","Relational, read only version C",DESIGN,ARCHITECTURE,Study1,S,51,41,Study,User,-,,Study/JOL,"Study Phase",1302,,,-1,-1,,,,1
w10041439_jkn,sw0ijgxqji,Relational_NO_JOL,1,58,2020-05-03T12:02:54-07:00,1.328449010849,3,versionC_stim.csv,READVersionC.csv,"Read Version C","Relational, read only version C",SICK,HIDE,Study1,U,84,57,Study,User,-,,Study/JOL,"Study Phase",1085,,,-1,-1,,,,1
w10041439_jkn,sw0ijgxqji,Relational_NO_JOL,1,59,2020-05-03T12:03:00-07:00,6.234885931015,3,versionC_stim.csv,READVersionC.csv,"Read Version C","Relational, read only version C",BIRD,SWAN,Study1,B,14,46,Study,User,-,,Study/JOL,"Study Phase",5917,,,-1,-1,,,,1
w10041439_jkn,sw0ijgxqji,Relational_NO_JOL,1,60,2020-05-03T12:03:01-07:00,0.88608503341675,3,versionC_stim.csv,READVersionC.csv,"Read Version C","Relational, read only version C",LION,ART,Study1,U,79,82,Study,User,-,,Study/JOL,"Study Phase",636,,,-1,-1,,,,1
w10041439_jkn,sw0ijgxqji,Relational_NO_JOL,1,61,2020-05-03T12:03:03-07:00,2.2363939285278,3,versionC_stim.csv,READVersionC.csv,"Read Version C","Relational, read only version C",CLEAN,HYGIENE,Study1,B,17,20,Study,User,-,,Study/JOL,"Study Phase",1890,,,-1,-1,,,,1
w10041439_jkn,sw0ijgxqji,Relational_NO_JOL,1,62,2020-05-03T12:03:05-07:00,1.6719720363617,3,versionC_stim.csv,READVersionC.csv,"Read Version C","Relational, read only version C",DROWSY,SLEEP,Study1,F,41,10,Study,User,-,,Study/JOL,"Study Phase",1415,,,-1,-1,,,,1
w10041439_jkn,sw0ijgxqji,Relational_NO_JOL,1,63,2020-05-03T12:03:06-07:00,0.9210958480835,3,versionC_stim.csv,READVersionC.csv,"Read Version C","Relational, read only version C",CHORE,WORK,Study1,F,39,81,Study,User,-,,Study/JOL,"Study Phase",665,,,-1,-1,,,,1
w10041439_jkn,sw0ijgxqji,Relational_NO_JOL,1,64,2020-05-03T12:03:06-07:00,0.7871720790863,3,versionC_stim.csv,READVersionC.csv,"Read Version C","Relational, read only version C",TALK,DISCUSSION,Study1,B,21,72,Study,User,-,,Study/JOL,"Study Phase",548,,,-1,-1,,,,1
w10041439_jkn,sw0ijgxqji,Relational_NO_JOL,1,65,2020-05-03T12:03:07-07:00,0.92109799385071,3,versionC_stim.csv,READVersionC.csv,"Read Version C","Relational, read only version C",ENOUGH,FULL,Study1,F,26,7,Study,User,-,,Study/JOL,"Study Phase",657,,,-1,-1,,,,1
w10041439_jkn,sw0ijgxqji,Relational_NO_JOL,1,66,2020-05-03T12:03:08-07:00,0.89545702934265,3,versionC_stim.csv,READVersionC.csv,"Read Version C","Relational, read only version C",SODA,POP,Study1,S,56,15,Study,User,-,,Study/JOL,"Study Phase",633,,,-1,-1,,,,1
w10041439_jkn,sw0ijgxqji,Relational_NO_JOL,1,67,2020-05-03T12:03:09-07:00,0.83976793289185,3,versionC_stim.csv,READVersionC.csv,"Read Version C","Relational, read only version C",FOOT,SHOE,Study1,S,60,63,Study,User,-,,Study/JOL,"Study Phase",594,,,-1,-1,,,,1
w10041439_jkn,sw0ijgxqji,Relational_NO_JOL,1,68,2020-05-03T12:03:10-07:00,0.92562913894653,3,versionC_stim.csv,READVersionC.csv,"Read Version C","Relational, read only version C",RIDDLE,SUGAR,Study1,U,81,75,Study,User,-,,Study/JOL,"Study Phase",664,,,-1,-1,,,,1
w10041439_jkn,sw0ijgxqji,Relational_NO_JOL,1,69,2020-05-03T12:03:12-07:00,1.6570038795471,3,versionC_stim.csv,READVersionC.csv,"Read Version C","Relational, read only version C",JURY,TRIAL,Study1,S,50,35,Study,User,-,,Study/JOL,"Study Phase",1385,,,-1,-1,,,,1
w10041439_jkn,sw0ijgxqji,Relational_NO_JOL,1,70,2020-05-03T12:03:12-07:00,0.73365998268127,3,versionC_stim.csv,READVersionC.csv,"Read Version C","Relational, read only version C",FISH,TUNA,Study1,B,25,51,Study,User,-,,Study/JOL,"Study Phase",461,,,-1,-1,,,,1
w10041439_jkn,sw0ijgxqji,Relational_NO_JOL,1,71,2020-05-03T12:03:13-07:00,0.49657607078552,3,versionC_stim.csv,READVersionC.csv,"Read Version C","Relational, read only version C",CHILI,HOT,Study1,F,37,34,Study,User,-,,Study/JOL,"Study Phase",239,,,-1,-1,,,,1
w10041439_jkn,sw0ijgxqji,Relational_NO_JOL,1,72,2020-05-03T12:03:13-07:00,0.54974293708801,3,versionC_stim.csv,READVersionC.csv,"Read Version C","Relational, read only version C",CAR,HAPPY,Study1,U,77,47,Study,User,-,,Study/JOL,"Study Phase",282,,,-1,-1,,,,1
w10041439_jkn,sw0ijgxqji,Relational_NO_JOL,1,73,2020-05-03T12:03:14-07:00,0.58618497848511,3,versionC_stim.csv,READVersionC.csv,"Read Version C","Relational, read only version C",BAR,GRILL,Study1,S,52,78,Study,User,-,,Study/JOL,"Study Phase",333,,,-1,-1,,,,1
w10041439_jkn,sw0ijgxqji,Relational_NO_JOL,1,74,2020-05-03T12:03:15-07:00,0.62804007530212,3,versionC_stim.csv,READVersionC.csv,"Read Version C","Relational, read only version C",WASP,BUG,Study1,F,32,73,Study,User,-,,Study/JOL,"Study Phase",374,,,-1,-1,,,,1
w10041439_jkn,sw0ijgxqji,Relational_NO_JOL,1,75,2020-05-03T12:03:19-07:00,4.4446139335632,3,versionC_stim.csv,READVersionC.csv,"Read Version C","Relational, read only version C",END,BEGIN,Study1,S,54,83,Study,User,-,,Study/JOL,"Study Phase",4112,,,-1,-1,,,,1
w10041439_jkn,sw0ijgxqji,Relational_NO_JOL,1,76,2020-05-03T12:03:21-07:00,2.0814001560211,3,versionC_stim.csv,READVersionC.csv,"Read Version C","Relational, read only version C",TUCK,ALLOW,Study1,U,78,42,Study,User,-,,Study/JOL,"Study Phase",1810,,,-1,-1,,,,1
w10041439_jkn,sw0ijgxqji,Relational_NO_JOL,1,77,2020-05-03T12:03:22-07:00,0.62605094909668,3,versionC_stim.csv,READVersionC.csv,"Read Version C","Relational, read only version C",NEWS,EDITOR,Study1,B,10,55,Study,User,-,,Study/JOL,"Study Phase",355,,,-1,-1,,,,1
w10041439_jkn,sw0ijgxqji,Relational_NO_JOL,1,78,2020-05-03T12:03:24-07:00,2.0503630638123,3,versionC_stim.csv,READVersionC.csv,"Read Version C","Relational, read only version C",SIGHT,DEBATE,Study1,U,73,67,Study,User,-,,Study/JOL,"Study Phase",1774,,,-1,-1,,,,1
w10041439_jkn,sw0ijgxqji,Relational_NO_JOL,1,79,2020-05-03T12:03:28-07:00,4.27552485466,3,versionC_stim.csv,READVersionC.csv,"Read Version C","Relational, read only version C",DEFINITION,MEANING,Study1,S,62,21,Study,User,-,,Study/JOL,"Study Phase",3922,,,-1,-1,,,,1
w10041439_jkn,sw0ijgxqji,Relational_NO_JOL,1,80,2020-05-03T12:03:31-07:00,3.0311679840088,3,versionC_stim.csv,READVersionC.csv,"Read Version C","Relational, read only version C",BEE,HONEY,Study1,S,63,29,Study,User,-,,Study/JOL,"Study Phase",2689,,,-1,-1,,,,1
w10041439_jkn,sw0ijgxqji,Relational_NO_JOL,1,81,2020-05-03T12:03:32-07:00,0.82039999961853,3,versionC_stim.csv,READVersionC.csv,"Read Version C","Relational, read only version C",ATTIRE,CLOTHES,Study1,F,43,76,Study,User,-,,Study/JOL,"Study Phase",553,,,-1,-1,,,,1
w10041439_jkn,sw0ijgxqji,Relational_NO_JOL,1,82,2020-05-03T12:03:34-07:00,1.8691229820251,3,versionC_stim.csv,READVersionC.csv,"Read Version C","Relational, read only version C",WATER,BRIDGE,Study1,B,18,70,Study,User,-,,Study/JOL,"Study Phase",1592,,,-1,-1,,,,1
w10041439_jkn,sw0ijgxqji,Relational_NO_JOL,1,83,2020-05-03T12:03:36-07:00,1.826339006424,3,versionC_stim.csv,READVersionC.csv,"Read Version C","Relational, read only version C",ROCK,GEOLOGY,Study1,B,19,36,Study,User,-,,Study/JOL,"Study Phase",1568,,,-1,-1,,,,1
w10041439_jkn,sw0ijgxqji,Relational_NO_JOL,1,84,2020-05-03T12:03:38-07:00,2.7033469676971,3,versionC_stim.csv,READVersionC.csv,"Read Version C","Relational, read only version C",STENCH,SMELL,Study1,F,42,30,Study,User,-,,Study/JOL,"Study Phase",2370,,,-1,-1,,,,1
w10041439_jkn,sw0ijgxqji,Relational_NO_JOL,1,85,2020-05-03T12:03:40-07:00,1.3866121768951,3,versionC_stim.csv,READVersionC.csv,"Read Version C","Relational, read only version C",SACKING,DIETARY,Study1,U,67,14,Study,User,-,,Study/JOL,"Study Phase",1116,,,-1,-1,,,,1
w10041439_jkn,sw0ijgxqji,Relational_NO_JOL,1,86,2020-05-03T12:03:42-07:00,1.8532519340515,3,versionC_stim.csv,READVersionC.csv,"Read Version C","Relational, read only version C",GROWTH,HEIGHT,Study1,F,30,53,Study,User,-,,Study/JOL,"Study Phase",1504,,,-1,-1,,,,1
w10041439_jkn,sw0ijgxqji,Relational_NO_JOL,1,87,2020-05-03T12:03:43-07:00,1.0990409851074,3,versionC_stim.csv,READVersionC.csv,"Read Version C","Relational, read only version C",CARD,CREDIT,Study1,B,23,74,Study,User,-,,Study/JOL,"Study Phase",792,,,-1,-1,,,,1
w10041439_jkn,sw0ijgxqji,Relational_NO_JOL,1,88,2020-05-03T12:03:44-07:00,0.98826694488525,3,versionC_stim.csv,READVersionC.csv,"Read Version C","Relational, read only version C",SALAD,LETTUCE,Study1,S,59,68,Study,User,-,,Study/JOL,"Study Phase",731,,,-1,-1,,,,1
w10041439_jkn,sw0ijgxqji,Relational_NO_JOL,1,89,2020-05-03T12:03:45-07:00,1.2662100791931,3,versionC_stim.csv,READVersionC.csv,"Read Version C","Relational, read only version C",WOULD,CASH,Study1,U,83,8,Study,User,-,,Study/JOL,"Study Phase",1011,,,-1,-1,,,,1
w10041439_jkn,sw0ijgxqji,Relational_NO_JOL,1,90,2020-05-03T12:03:46-07:00,0.87369799613953,3,versionC_stim.csv,READVersionC.csv,"Read Version C","Relational, read only version C",BELT,SOON,Study1,U,70,66,Study,User,-,,Study/JOL,"Study Phase",606,,,-1,-1,,,,1
w10041439_jkn,sw0ijgxqji,Relational_NO_JOL,1,91,2020-05-03T12:03:47-07:00,0.85081100463867,3,versionC_stim.csv,READVersionC.csv,"Read Version C","Relational, read only version C",SPACE,MOON,BUFFER2,Buffer,89,90,Study,User,-,,Study/JOL,BUFFER2,592,,,-1,-1,,,,1
w10041439_jkn,sw0ijgxqji,Relational_NO_JOL,1,92,2020-05-03T12:03:48-07:00,0.95024704933167,3,versionC_stim.csv,READVersionC.csv,"Read Version C","Relational, read only version C",POLICE,SHERRIF,BUFFER2,Buffer,87,91,Study,User,-,,Study/JOL,BUFFER2,656,,,-1,-1,,,,1
w10041439_jkn,sw0ijgxqji,Relational_NO_JOL,1,93,2020-05-03T12:03:48-07:00,0.78521990776062,3,versionC_stim.csv,READVersionC.csv,"Read Version C","Relational, read only version C",CHOCOLATE,MALT,BUFFER2,Buffer,88,89,Study,User,-,,Study/JOL,BUFFER2,511,,,-1,-1,,,,1
w10041439_jkn,sw0ijgxqji,Relational_NO_JOL,1,94,2020-05-03T12:03:49-07:00,0.66587996482849,3,versionC_stim.csv,READVersionC.csv,"Read Version C","Relational, read only version C",GOOSE,GEESE,BUFFER2,Buffer,86,88,Study,User,-,,Study/JOL,BUFFER2,400,,,-1,-1,,,,1
w10041439_jkn,sw0ijgxqji,Relational_NO_JOL,1,95,2020-05-03T12:03:50-07:00,0.57320499420166,3,versionC_stim.csv,READVersionC.csv,"Read Version C","Relational, read only version C",STUFF,THING,BUFFER2,Buffer,90,87,Study,User,-,,Study/JOL,BUFFER2,311,,,-1,-1,,,,1
w10041439_jkn,sw0ijgxqji,Relational_NO_JOL,1,96,2020-05-03T12:03:51-07:00,1.7205011844635,3,versionC_stim.csv,READVersionC.csv,"Read Version C","Relational, read only version C",,,,,,0,Instruct,User,-,"You have completed this section. Please press Enter.",Filler_Instruction,Instruct2,1453,,,-1,-1,,,,1
w10041439_jkn,sw0ijgxqji,Relational_NO_JOL,1,97,2020-05-03T12:03:53-07:00,1.2987959384918,3,versionC_stim.csv,READVersionC.csv,"Read Version C","Relational, read only version C",,,,,,0,Instruct,User,-,"You have completed this section. Please press Enter.",Filler_Instruction,Instruct5,1015,,,-1,-1,,,,1
w10041439_jkn,sw0ijgxqji,Relational_NO_JOL,1,98,2020-05-03T12:04:42-07:00,49.054115056992,3,versionC_stim.csv,READVersionC.csv,"Read Version C","Relational, read only version C",,,,,,0,FreeRecall,-,10,"What were you supposed to focus on while you studied each pair? (Hint: Think back to the instructions). Type your answer in the space below.",,CHECK3,48679,"Look for the similarities between the two, for example, TURTLE-CAT. Both are alive and both can be kept as pets.",0,8253,43970,0,0,,1
w10041439_jkn,sw0ijgxqji,Relational_NO_JOL,1,99,2020-05-03T12:06:43-07:00,120.79834580421,3,versionC_stim.csv,READVersionC.csv,"Read Version C","Relational, read only version C",,,,,,0,FreeRecall,120,120,"Please list the 50 US states in alphabetical order. The task will automatically advance to the next screen after two minutes.",,Filler1,120005,"Alabama Arkansas ALaska California florida Pennsylvania, Georgia, ohio new mexico new jersey Arizona Oklahoma Michigan Oregon texas Delaware Louisiana Nevada Idaho Colorado Illinois massachussetts north Carolina ",0,8962,119680,0,0,,1
w10041439_jkn,sw0ijgxqji,Relational_NO_JOL,1,100,2020-05-03T12:06:55-07:00,12.070985078812,3,versionC_stim.csv,READVersionC.csv,"Read Version C","Relational, read only version C",,,,,,0,Instruct,-,10,"You will now be presented with the first word from each of the previously studied item pairs. Please type the missing word. If you do not know the word, you may guess or press Enter to skip forward to the next pair.",,Instruct3,11722,,,-1,-1,,,,1
w10041439_jkn,sw0ijgxqji,Relational_NO_JOL,1,101,2020-05-03T12:06:59-07:00,3.9597139358521,3,versionC_stim.csv,READVersionC.csv,"Read Version C","Relational, read only version C",CHEESE,WINE,Study1,S,57,84,Test,User,-,,Recall,Recall1,3619,wine,100,2269,2779,1,1,,1
w10041439_jkn,sw0ijgxqji,Relational_NO_JOL,1,102,2020-05-03T12:07:07-07:00,8.3547050952911,3,versionC_stim.csv,READVersionC.csv,"Read Version C","Relational, read only version C",OUT,WAY,Study1,B,16,16,Test,User,-,,Recall,Recall1,8027,break,25,4313,6202,0,0,,1
w10041439_jkn,sw0ijgxqji,Relational_NO_JOL,1,103,2020-05-03T12:07:12-07:00,5.3199429512024,3,versionC_stim.csv,READVersionC.csv,"Read Version C","Relational, read only version C",LATCH,KEY,Study1,F,36,62,Test,User,-,,Recall,Recall1,4972,key,100,2944,3408,1,1,,1
w10041439_jkn,sw0ijgxqji,Relational_NO_JOL,1,104,2020-05-03T12:07:21-07:00,8.8734829425812,3,versionC_stim.csv,READVersionC.csv,"Read Version C","Relational, read only version C",LION,ART,Study1,U,79,82,Test,User,-,,Recall,Recall1,8515,art,100,6790,7095,1,1,,1
w10041439_jkn,sw0ijgxqji,Relational_NO_JOL,1,105,2020-05-03T12:07:26-07:00,4.5515170097351,3,versionC_stim.csv,READVersionC.csv,"Read Version C","Relational, read only version C",DROWSY,SLEEP,Study1,F,41,10,Test,User,-,,Recall,Recall1,4192,sleepy,90.909090909091,2034,2987,0,1,,1
w10041439_jkn,sw0ijgxqji,Relational_NO_JOL,1,106,2020-05-03T12:07:30-07:00,4.3408119678497,3,versionC_stim.csv,READVersionC.csv,"Read Version C","Relational, read only version C",ROUND,CIRCLE,Study1,S,65,52,Test,User,-,,Recall,Recall1,3992,about,0,1906,2510,0,0,,1
w10041439_jkn,sw0ijgxqji,Relational_NO_JOL,1,107,2020-05-03T12:07:36-07:00,6.3099792003632,3,versionC_stim.csv,READVersionC.csv,"Read Version C","Relational, read only version C",WASTE,DUMP,Study1,S,49,79,Test,User,-,,Recall,Recall1,5934,trash,0,3049,3656,0,0,,1
w10041439_jkn,sw0ijgxqji,Relational_NO_JOL,1,108,2020-05-03T12:07:40-07:00,3.9035348892212,3,versionC_stim.csv,READVersionC.csv,"Read Version C","Relational, read only version C",SEIZE,TAKE,Study1,F,29,25,Test,User,-,,Recall,Recall1,3535,take,100,1371,1873,1,1,,1
w10041439_jkn,sw0ijgxqji,Relational_NO_JOL,1,109,2020-05-03T12:07:44-07:00,3.9136719703674,3,versionC_stim.csv,READVersionC.csv,"Read Version C","Relational, read only version C",WASP,BUG,Study1,F,32,73,Test,User,-,,Recall,Recall1,3573,bug,100,1779,2086,1,1,,1
w10041439_jkn,sw0ijgxqji,Relational_NO_JOL,1,110,2020-05-03T12:07:50-07:00,5.5102670192719,3,versionC_stim.csv,READVersionC.csv,"Read Version C","Relational, read only version C",COLD,BITTER,Study1,B,12,80,Test,User,-,,Recall,Recall1,5167,warm,20,2873,3585,0,0,,1
w10041439_jkn,sw0ijgxqji,Relational_NO_JOL,1,111,2020-05-03T12:07:53-07:00,3.4714889526367,3,versionC_stim.csv,READVersionC.csv,"Read Version C","Relational, read only version C",ATTORNEY,LAW,Study1,F,34,12,Test,User,-,,Recall,Recall1,3128,law,100,1320,2104,1,1,,1
w10041439_jkn,sw0ijgxqji,Relational_NO_JOL,1,112,2020-05-03T12:08:00-07:00,6.5832140445709,3,versionC_stim.csv,READVersionC.csv,"Read Version C","Relational, read only version C",SACKING,DIETARY,Study1,U,67,14,Test,User,-,,Recall,Recall1,6230,food,18.181818181818,4863,5635,0,0,,1
w10041439_jkn,sw0ijgxqji,Relational_NO_JOL,1,113,2020-05-03T12:08:03-07:00,3.0292649269104,3,versionC_stim.csv,READVersionC.csv,"Read Version C","Relational, read only version C",CAVE,DARK,Study1,F,28,54,Test,User,-,,Recall,Recall1,2701,dark,100,1642,2359,1,1,,1
w10041439_jkn,sw0ijgxqji,Relational_NO_JOL,1,114,2020-05-03T12:08:12-07:00,9.5157930850983,3,versionC_stim.csv,READVersionC.csv,"Read Version C","Relational, read only version C",AMOUNT,NUMBER,Study1,S,47,28,Test,User,-,,Recall,Recall1,9163,acoount,15.384615384615,7407,8590,0,0,,1
w10041439_jkn,sw0ijgxqji,Relational_NO_JOL,1,115,2020-05-03T12:08:16-07:00,3.9914331436157,3,versionC_stim.csv,READVersionC.csv,"Read Version C","Relational, read only version C",FANTASTIC,GREAT,Study1,F,35,77,Test,User,-,,Recall,Recall1,3659,good,22.222222222222,2125,3056,0,0,,1
w10041439_jkn,sw0ijgxqji,Relational_NO_JOL,1,116,2020-05-03T12:08:22-07:00,6.016049861908,3,versionC_stim.csv,READVersionC.csv,"Read Version C","Relational, read only version C",VASE,KING,Study1,U,85,50,Test,User,-,,Recall,Recall1,5698,king,100,4750,5287,1,1,,1
w10041439_jkn,sw0ijgxqji,Relational_NO_JOL,1,117,2020-05-03T12:08:26-07:00,3.6949739456177,3,versionC_stim.csv,READVersionC.csv,"Read Version C","Relational, read only version C",FUTURE,PAST,Study1,S,61,18,Test,User,-,,Recall,Recall1,3337,present,54.545454545455,1645,2984,0,0,,1
w10041439_jkn,sw0ijgxqji,Relational_NO_JOL,1,118,2020-05-03T12:08:30-07:00,3.9196300506592,3,versionC_stim.csv,READVersionC.csv,"Read Version C","Relational, read only version C",PLANT,ROOT,Study1,B,13,37,Test,User,-,,Recall,Recall1,3578,root,100,2183,2648,1,1,,1
w10041439_jkn,sw0ijgxqji,Relational_NO_JOL,1,119,2020-05-03T12:08:34-07:00,3.8982720375061,3,versionC_stim.csv,READVersionC.csv,"Read Version C","Relational, read only version C",CARD,CREDIT,Study1,B,23,74,Test,User,-,,Recall,Recall1,3567,credit,100,1942,2900,1,1,,1
w10041439_jkn,sw0ijgxqji,Relational_NO_JOL,1,120,2020-05-03T12:08:38-07:00,4.4634470939636,3,versionC_stim.csv,READVersionC.csv,"Read Version C","Relational, read only version C",DESIGN,ARCHITECTURE,Study1,S,51,41,Test,User,-,,Recall,Recall1,4075,home,25,3241,3762,0,0,,1
w10041439_jkn,sw0ijgxqji,Relational_NO_JOL,1,121,2020-05-03T12:08:43-07:00,4.6355848312378,3,versionC_stim.csv,READVersionC.csv,"Read Version C","Relational, read only version C",BAR,GRILL,Study1,S,52,78,Test,User,-,,Recall,Recall1,4303,grill,100,2962,3740,1,1,,1
w10041439_jkn,sw0ijgxqji,Relational_NO_JOL,1,122,2020-05-03T12:08:47-07:00,4.2640731334686,3,versionC_stim.csv,READVersionC.csv,"Read Version C","Relational, read only version C",HAND,FIX,Study1,U,75,60,Test,User,-,,Recall,Recall1,3888,wash,0,1420,2496,0,0,,1
w10041439_jkn,sw0ijgxqji,Relational_NO_JOL,1,123,2020-05-03T12:08:51-07:00,3.591374874115,3,versionC_stim.csv,READVersionC.csv,"Read Version C","Relational, read only version C",WOULD,CASH,Study1,U,83,8,Test,User,-,,Recall,Recall1,3250,could,22.222222222222,1342,2591,0,0,,1
w10041439_jkn,sw0ijgxqji,Relational_NO_JOL,1,124,2020-05-03T12:08:54-07:00,3.7550461292267,3,versionC_stim.csv,READVersionC.csv,"Read Version C","Relational, read only version C",FAMINE,HUNGER,Study1,F,40,49,Test,User,-,,Recall,Recall1,3398,hunger,100,2239,3071,1,1,,1
w10041439_jkn,sw0ijgxqji,Relational_NO_JOL,1,125,2020-05-03T12:08:58-07:00,3.238538980484,3,versionC_stim.csv,READVersionC.csv,"Read Version C","Relational, read only version C",JURY,TRIAL,Study1,S,50,35,Test,User,-,,Recall,Recall1,2869,case,22.222222222222,2031,2474,0,0,,1
w10041439_jkn,sw0ijgxqji,Relational_NO_JOL,1,126,2020-05-03T12:09:01-07:00,2.7890229225159,3,versionC_stim.csv,READVersionC.csv,"Read Version C","Relational, read only version C",ASSIGNMENT,DUE,Study1,S,46,64,Test,User,-,,Recall,Recall1,2494,due,100,1740,2084,1,1,,1
w10041439_jkn,sw0ijgxqji,Relational_NO_JOL,1,127,2020-05-03T12:09:05-07:00,4.6725420951843,3,versionC_stim.csv,READVersionC.csv,"Read Version C","Relational, read only version C",POSITION,MACHINE,Study1,U,76,85,Test,User,-,,Recall,Recall1,4316,place,50,3241,3981,0,0,,1
w10041439_jkn,sw0ijgxqji,Relational_NO_JOL,1,128,2020-05-03T12:09:08-07:00,2.4210498332977,3,versionC_stim.csv,READVersionC.csv,"Read Version C","Relational, read only version C",BLAZE,FIRE,Study1,F,45,31,Test,User,-,,Recall,Recall1,2077,fire,100,1166,1700,1,1,,1
w10041439_jkn,sw0ijgxqji,Relational_NO_JOL,1,129,2020-05-03T12:09:12-07:00,4.3363540172577,3,versionC_stim.csv,READVersionC.csv,"Read Version C","Relational, read only version C",STOMACH,DIGESTION,Study1,B,7,48,Test,User,-,,Recall,Recall1,4001,hungry,13.333333333333,2114,3356,0,0,,1
w10041439_jkn,sw0ijgxqji,Relational_NO_JOL,1,130,2020-05-03T12:09:17-07:00,4.8405320644379,3,versionC_stim.csv,READVersionC.csv,"Read Version C","Relational, read only version C",GROWTH,HEIGHT,Study1,F,30,53,Test,User,-,,Recall,Recall1,4480,large,18.181818181818,3127,4150,0,0,,1
w10041439_jkn,sw0ijgxqji,Relational_NO_JOL,1,131,2020-05-03T12:09:20-07:00,2.8598110675812,3,versionC_stim.csv,READVersionC.csv,"Read Version C","Relational, read only version C",BEE,HONEY,Study1,S,63,29,Test,User,-,,Recall,Recall1,2516,sting,20,1565,2256,0,0,,1
w10041439_jkn,sw0ijgxqji,Relational_NO_JOL,1,132,2020-05-03T12:09:23-07:00,3.0811579227448,3,versionC_stim.csv,READVersionC.csv,"Read Version C","Relational, read only version C",CHILI,HOT,Study1,F,37,34,Test,User,-,,Recall,Recall1,2731,pot,66.666666666667,1993,2431,0,0,,1
w10041439_jkn,sw0ijgxqji,Relational_NO_JOL,1,133,2020-05-03T12:09:27-07:00,4.503751039505,3,versionC_stim.csv,READVersionC.csv,"Read Version C","Relational, read only version C",TALK,DISCUSSION,Study1,B,21,72,Test,User,-,,Recall,Recall1,4126,discuss,82.352941176471,2298,3459,0,1,,1
w10041439_jkn,sw0ijgxqji,Relational_NO_JOL,1,134,2020-05-03T12:09:37-07:00,9.3019609451294,3,versionC_stim.csv,READVersionC.csv,"Read Version C","Relational, read only version C",CLEAN,HYGIENE,Study1,B,17,20,Test,User,-,,Recall,Recall1,8979,home,36.363636363636,7282,8441,0,0,,1
w10041439_jkn,sw0ijgxqji,Relational_NO_JOL,1,135,2020-05-03T12:09:41-07:00,4.9323000907898,3,versionC_stim.csv,READVersionC.csv,"Read Version C","Relational, read only version C",FOOT,SHOE,Study1,S,60,63,Test,User,-,,Recall,Recall1,4576,ball,0,3188,4297,0,0,,1
w10041439_jkn,sw0ijgxqji,Relational_NO_JOL,1,136,2020-05-03T12:09:51-07:00,9.9849228858948,3,versionC_stim.csv,READVersionC.csv,"Read Version C","Relational, read only version C",TUCK,ALLOW,Study1,U,78,42,Test,User,-,,Recall,Recall1,9656,roll,44.444444444444,3337,9276,0,0,,1
w10041439_jkn,sw0ijgxqji,Relational_NO_JOL,1,137,2020-05-03T12:09:55-07:00,4.0240299701691,3,versionC_stim.csv,READVersionC.csv,"Read Version C","Relational, read only version C",MONEY,WAGE,Study1,B,8,24,Test,User,-,,Recall,Recall1,3677,account,18.181818181818,2197,3443,0,0,,1
w10041439_jkn,sw0ijgxqji,Relational_NO_JOL,1,138,2020-05-03T12:09:59-07:00,4.0028460025787,3,versionC_stim.csv,READVersionC.csv,"Read Version C","Relational, read only version C",STING,HORNET,Study1,B,11,39,Test,User,-,,Recall,Recall1,3625,bee,22.222222222222,3057,3375,0,0,,1
w10041439_jkn,sw0ijgxqji,Relational_NO_JOL,1,139,2020-05-03T12:10:04-07:00,4.1844520568848,3,versionC_stim.csv,READVersionC.csv,"Read Version C","Relational, read only version C",DOG,PAW,Study1,B,15,17,Test,User,-,,Recall,Recall1,3837,bite,0,2592,3442,0,0,,1
w10041439_jkn,sw0ijgxqji,Relational_NO_JOL,1,140,2020-05-03T12:10:08-07:00,4.7512590885162,3,versionC_stim.csv,READVersionC.csv,"Read Version C","Relational, read only version C",HUNGRY,PARK,Study1,U,68,86,Test,User,-,,Recall,Recall1,4396,stomach,18.181818181818,2635,3979,0,0,,1
w10041439_jkn,sw0ijgxqji,Relational_NO_JOL,1,141,2020-05-03T12:10:12-07:00,3.7537980079651,3,versionC_stim.csv,READVersionC.csv,"Read Version C","Relational, read only version C",FLOOR,DISCOVER,Study1,U,71,58,Test,User,-,,Recall,Recall1,3404,design,28.571428571429,1579,2544,0,0,,1
w10041439_jkn,sw0ijgxqji,Relational_NO_JOL,1,142,2020-05-03T12:10:16-07:00,3.6340520381927,3,versionC_stim.csv,READVersionC.csv,"Read Version C","Relational, read only version C",BUSINESS,DEATH,Study1,U,72,44,Test,User,-,,Recall,Recall1,3279,card,22.222222222222,2191,3037,0,0,,1
w10041439_jkn,sw0ijgxqji,Relational_NO_JOL,1,143,2020-05-03T12:10:19-07:00,2.8628108501434,3,versionC_stim.csv,READVersionC.csv,"Read Version C","Relational, read only version C",RACKET,BALL,Study1,F,38,65,Test,User,-,,Recall,Recall1,2528,ball,100,1316,2247,1,1,,1
w10041439_jkn,sw0ijgxqji,Relational_NO_JOL,1,144,2020-05-03T12:11:05-07:00,46.74018907547,3,versionC_stim.csv,READVersionC.csv,"Read Version C","Relational, read only version C",BAD,DELINQUENT,Study1,B,6,27,Test,User,-,,Recall,Recall1,46384,mean,28.571428571429,45140,46003,0,0,,1
w10041439_jkn,sw0ijgxqji,Relational_NO_JOL,1,145,2020-05-03T12:11:11-07:00,5.374783039093,3,versionC_stim.csv,READVersionC.csv,"Read Version C","Relational, read only version C",CHORE,WORK,Study1,F,39,81,Test,User,-,,Recall,Recall1,5027,clean,0,2985,4567,0,0,,1
w10041439_jkn,sw0ijgxqji,Relational_NO_JOL,1,146,2020-05-03T12:11:18-07:00,7.4171559810638,3,versionC_stim.csv,READVersionC.csv,"Read Version C","Relational, read only version C",DEFINITION,MEANING,Study1,S,62,21,Test,User,-,,Recall,Recall1,7075,meaning,100,5731,6793,1,1,,1
w10041439_jkn,sw0ijgxqji,Relational_NO_JOL,1,147,2020-05-03T12:11:22-07:00,3.7018568515778,3,versionC_stim.csv,READVersionC.csv,"Read Version C","Relational, read only version C",FISH,TUNA,Study1,B,25,51,Test,User,-,,Recall,Recall1,3338,net,28.571428571429,2630,3057,0,0,,1
w10041439_jkn,sw0ijgxqji,Relational_NO_JOL,1,148,2020-05-03T12:11:25-07:00,2.9285960197449,3,versionC_stim.csv,READVersionC.csv,"Read Version C","Relational, read only version C",ATTIRE,CLOTHES,Study1,F,43,76,Test,User,-,,Recall,Recall1,2586,clothes,100,1281,2346,1,1,,1
w10041439_jkn,sw0ijgxqji,Relational_NO_JOL,1,149,2020-05-03T12:11:34-07:00,8.8556940555573,3,versionC_stim.csv,READVersionC.csv,"Read Version C","Relational, read only version C",ROCK,GEOLOGY,Study1,B,19,36,Test,User,-,,Recall,Recall1,8492,stadium,0,5162,7945,0,0,,1
w10041439_jkn,sw0ijgxqji,Relational_NO_JOL,1,150,2020-05-03T12:11:38-07:00,4.3805220127106,3,versionC_stim.csv,READVersionC.csv,"Read Version C","Relational, read only version C",PILOT,PLANE,Study1,F,44,59,Test,User,-,,Recall,Recall1,4065,plane,100,2071,3560,1,1,,1
w10041439_jkn,sw0ijgxqji,Relational_NO_JOL,1,151,2020-05-03T12:11:43-07:00,5.1611740589142,3,versionC_stim.csv,READVersionC.csv,"Read Version C","Relational, read only version C",WATER,BRIDGE,Study1,B,18,70,Test,User,-,,Recall,Recall1,4827,bottle,33.333333333333,2174,4241,0,0,,1
w10041439_jkn,sw0ijgxqji,Relational_NO_JOL,1,152,2020-05-03T12:11:49-07:00,5.9555449485779,3,versionC_stim.csv,READVersionC.csv,"Read Version C","Relational, read only version C",WAR,REVOLUTION,Study1,B,20,13,Test,User,-,,Recall,Recall1,5612,revolution,100,3506,5206,1,1,,1
w10041439_jkn,sw0ijgxqji,Relational_NO_JOL,1,153,2020-05-03T12:11:54-07:00,4.5756900310516,3,versionC_stim.csv,READVersionC.csv,"Read Version C","Relational, read only version C",WORD,SENTENCE,Study1,F,31,22,Test,User,-,,Recall,Recall1,4227,count,30.769230769231,1400,3631,0,0,,1
w10041439_jkn,sw0ijgxqji,Relational_NO_JOL,1,154,2020-05-03T12:11:58-07:00,4.5369908809662,3,versionC_stim.csv,READVersionC.csv,"Read Version C","Relational, read only version C",STENCH,SMELL,Study1,F,42,30,Test,User,-,,Recall,Recall1,4226,smell,100,2152,3842,1,1,,1
w10041439_jkn,sw0ijgxqji,Relational_NO_JOL,1,155,2020-05-03T12:12:01-07:00,2.4945731163025,3,versionC_stim.csv,READVersionC.csv,"Read Version C","Relational, read only version C",CAR,HAPPY,Study1,U,77,47,Test,User,-,,Recall,Recall1,2146,wash,22.222222222222,1238,1706,0,0,,1
w10041439_jkn,sw0ijgxqji,Relational_NO_JOL,1,156,2020-05-03T12:12:06-07:00,4.7327830791473,3,versionC_stim.csv,READVersionC.csv,"Read Version C","Relational, read only version C",BELT,SOON,Study1,U,70,66,Test,User,-,,Recall,Recall1,4373,pants,22.222222222222,1926,3809,0,0,,1
w10041439_jkn,sw0ijgxqji,Relational_NO_JOL,1,157,2020-05-03T12:12:10-07:00,4.7619619369507,3,versionC_stim.csv,READVersionC.csv,"Read Version C","Relational, read only version C",TOILET,BATHROOM,Study1,S,58,38,Test,User,-,,Recall,Recall1,4430,paper,30.769230769231,1320,3823,0,0,,1
w10041439_jkn,sw0ijgxqji,Relational_NO_JOL,1,158,2020-05-03T12:12:14-07:00,3.5867779254913,3,versionC_stim.csv,READVersionC.csv,"Read Version C","Relational, read only version C",WIND,BLOW,Study1,S,55,69,Test,User,-,,Recall,Recall1,3241,chill,22.222222222222,2112,2835,0,0,,1
w10041439_jkn,sw0ijgxqji,Relational_NO_JOL,1,159,2020-05-03T12:12:16-07:00,2.3022420406342,3,versionC_stim.csv,READVersionC.csv,"Read Version C","Relational, read only version C",SODA,POP,Study1,S,56,15,Test,User,-,,Recall,Recall1,1942,pop,100,1180,1546,1,1,,1
w10041439_jkn,sw0ijgxqji,Relational_NO_JOL,1,160,2020-05-03T12:12:23-07:00,6.3972520828247,3,versionC_stim.csv,READVersionC.csv,"Read Version C","Relational, read only version C",ADD,VALLEY,Study1,U,82,19,Test,User,-,,Recall,Recall1,6044,division,14.285714285714,2075,5389,0,0,,1
w10041439_jkn,sw0ijgxqji,Relational_NO_JOL,1,161,2020-05-03T12:12:29-07:00,6.8741159439087,3,versionC_stim.csv,READVersionC.csv,"Read Version C","Relational, read only version C",BRONZE,ARTERY,Study1,U,74,23,Test,User,-,,Recall,Recall1,6512,artery,100,4817,5714,1,1,,1
w10041439_jkn,sw0ijgxqji,Relational_NO_JOL,1,162,2020-05-03T12:12:38-07:00,8.564838886261,3,versionC_stim.csv,READVersionC.csv,"Read Version C","Relational, read only version C",FLOWER,ORCHID,Study1,B,24,26,Test,User,-,,Recall,Recall1,8216,orchid,100,6355,7991,1,1,,1
w10041439_jkn,sw0ijgxqji,Relational_NO_JOL,1,163,2020-05-03T12:12:41-07:00,2.7183330059052,3,versionC_stim.csv,READVersionC.csv,"Read Version C","Relational, read only version C",SIGHT,DEBATE,Study1,U,73,67,Test,User,-,,Recall,Recall1,2383,see,44.444444444444,1664,1988,0,0,,1
w10041439_jkn,sw0ijgxqji,Relational_NO_JOL,1,164,2020-05-03T12:12:44-07:00,2.8469841480255,3,versionC_stim.csv,READVersionC.csv,"Read Version C","Relational, read only version C",SIP,DRINK,Study1,F,27,11,Test,User,-,,Recall,Recall1,2517,drink,100,1385,2131,1,1,,1
w10041439_jkn,sw0ijgxqji,Relational_NO_JOL,1,165,2020-05-03T12:12:47-07:00,3.8443858623505,3,versionC_stim.csv,READVersionC.csv,"Read Version C","Relational, read only version C",SALAD,LETTUCE,Study1,S,59,68,Test,User,-,,Recall,Recall1,3518,bowl,18.181818181818,1920,3172,0,0,,1
w10041439_jkn,sw0ijgxqji,Relational_NO_JOL,1,166,2020-05-03T12:12:53-07:00,5.1012251377106,3,versionC_stim.csv,READVersionC.csv,"Read Version C","Relational, read only version C",DIVISION,MATH,Study1,F,33,9,Test,User,-,,Recall,Recall1,4714,math,100,3639,4327,1,1,,1
w10041439_jkn,sw0ijgxqji,Relational_NO_JOL,1,167,2020-05-03T12:12:57-07:00,4.3129420280457,3,versionC_stim.csv,READVersionC.csv,"Read Version C","Relational, read only version C",RIDDLE,SUGAR,Study1,U,81,75,Test,User,-,,Recall,Recall1,3990,solve,20,1660,3712,0,0,,1
w10041439_jkn,sw0ijgxqji,Relational_NO_JOL,1,168,2020-05-03T12:12:59-07:00,2.3174059391022,3,versionC_stim.csv,READVersionC.csv,"Read Version C","Relational, read only version C",WOMAN,LIFT,Study1,U,69,40,Test,User,-,,Recall,Recall1,1943,man,0,1420,1621,0,0,,1
w10041439_jkn,sw0ijgxqji,Relational_NO_JOL,1,169,2020-05-03T12:13:34-07:00,34.512343883514,3,versionC_stim.csv,READVersionC.csv,"Read Version C","Relational, read only version C",SITE,LOCATION,Study1,S,48,56,Test,User,-,,Recall,Recall1,34173,web,0,33353,33687,0,0,,1
w10041439_jkn,sw0ijgxqji,Relational_NO_JOL,1,170,2020-05-03T12:13:36-07:00,2.7667770385742,3,versionC_stim.csv,READVersionC.csv,"Read Version C","Relational, read only version C",HAMMER,CHISEL,Study1,B,9,33,Test,User,-,,Recall,Recall1,2408,nail,40,1264,1892,0,0,,1
w10041439_jkn,sw0ijgxqji,Relational_NO_JOL,1,171,2020-05-03T12:13:39-07:00,2.7874290943146,3,versionC_stim.csv,READVersionC.csv,"Read Version C","Relational, read only version C",END,BEGIN,Study1,S,54,83,Test,User,-,,Recall,Recall1,2424,book,22.222222222222,1564,2086,0,0,,1
w10041439_jkn,sw0ijgxqji,Relational_NO_JOL,1,172,2020-05-03T12:13:43-07:00,3.8494729995728,3,versionC_stim.csv,READVersionC.csv,"Read Version C","Relational, read only version C",NEWS,EDITOR,Study1,B,10,55,Test,User,-,,Recall,Recall1,3507,cast,20,2446,3175,0,0,,1
w10041439_jkn,sw0ijgxqji,Relational_NO_JOL,1,173,2020-05-03T12:13:47-07:00,3.7644379138947,3,versionC_stim.csv,READVersionC.csv,"Read Version C","Relational, read only version C",ENOUGH,FULL,Study1,F,26,7,Test,User,-,,Recall,Recall1,3411,said,0,1357,2645,0,0,,1
w10041439_jkn,sw0ijgxqji,Relational_NO_JOL,1,174,2020-05-03T12:13:51-07:00,4.6194970607758,3,versionC_stim.csv,READVersionC.csv,"Read Version C","Relational, read only version C",CHILD,BABY,Study1,S,64,71,Test,User,-,,Recall,Recall1,4291,man,28.571428571429,3574,3904,0,0,,1
w10041439_jkn,sw0ijgxqji,Relational_NO_JOL,1,175,2020-05-03T12:13:59-07:00,7.8537440299988,3,versionC_stim.csv,READVersionC.csv,"Read Version C","Relational, read only version C",BIRD,SWAN,Study1,B,14,46,Test,User,-,,Recall,Recall1,7524,song,50,1869,2813,0,0,,1
w10041439_jkn,sw0ijgxqji,Relational_NO_JOL,1,176,2020-05-03T12:14:05-07:00,5.4044768810272,3,versionC_stim.csv,READVersionC.csv,"Read Version C","Relational, read only version C",COW,HERD,Study1,B,22,32,Test,User,-,,Recall,Recall1,5081,utter,44.444444444444,3794,4549,0,0,,1
w10041439_jkn,sw0ijgxqji,Relational_NO_JOL,1,177,2020-05-03T12:14:14-07:00,8.9030590057373,3,versionC_stim.csv,READVersionC.csv,"Read Version C","Relational, read only version C",ACCIDENT,STRONG,Study1,U,80,61,Test,User,-,,Recall,Recall1,8572,car,22.222222222222,7491,7886,0,0,,1
w10041439_jkn,sw0ijgxqji,Relational_NO_JOL,1,178,2020-05-03T12:14:19-07:00,5.1548571586609,3,versionC_stim.csv,READVersionC.csv,"Read Version C","Relational, read only version C",SICK,HIDE,Study1,U,84,57,Test,User,-,,Recall,Recall1,4816,ill,28.571428571429,4100,4503,0,0,,1
w10041439_jkn,sw0ijgxqji,Relational_NO_JOL,1,179,2020-05-03T12:14:22-07:00,3.6432628631592,3,versionC_stim.csv,READVersionC.csv,"Read Version C","Relational, read only version C",CLUTTER,PUSHER,Study1,U,66,43,Test,User,-,,Recall,Recall1,3267,mess,20,2567,3101,0,0,,1
w10041439_jkn,sw0ijgxqji,Relational_NO_JOL,1,180,2020-05-03T12:14:26-07:00,3.2605419158936,3,versionC_stim.csv,READVersionC.csv,"Read Version C","Relational, read only version C",LIVER,KIDNEY,Study1,S,53,45,Test,User,-,,Recall,Recall1,2923,kidney,100,1093,2217,1,1,,1
w10041439_jkn,sw0ijgxqji,Relational_NO_JOL,1,181,2020-05-03T12:14:48-07:00,21.944388151169,3,versionC_stim.csv,READVersionC.csv,"Read Version C","Relational, read only version C",,,,,,0,Instruct,,10,"You will now be presented with a new set of word pairs. Please study each pair. Remember that your memory will be tested! When finished, press Enter to move to the next pair.",Initial_Instruct,Instruct4,21585,,,-1,-1,,,,0.981
w10041439_jkn,sw0ijgxqji,Relational_NO_JOL,1,182,2020-05-03T12:15:04-07:00,16.65832901001,3,versionC_stim.csv,READVersionC.csv,"Read Version C","Relational, read only version C",,,,,,0,Instruct,-,15,"As you study, please think about how the two concepts are RELATED to each other. For example, if you see the pair TURTLE-CAT, think about how both are alive, they are both animals, and both can be kept as pets.",,Instruct20,16325,,,-1,-1,,,,1
w10041439_jkn,sw0ijgxqji,Relational_NO_JOL,1,183,2020-05-03T12:15:18-07:00,13.406445980072,3,versionC_stim.csv,READVersionC.csv,"Read Version C","Relational, read only version C",,,,,,0,FreeRecall,-,10,"What you should think about as you study each item pair? Type your response in the box below.",,CHECK4,13043,"Think about how the two concepts are RELATED to each other. For example, if you see the pair TURTLE-CAT, think about how both are alive, they are both animals, and both can be kept as pets.",0,11290,11290,0,0,,1
w10041439_jkn,sw0ijgxqji,Relational_NO_JOL,1,184,2020-05-03T12:15:21-07:00,3.0429780483246,3,versionC_stim.csv,READVersionC.csv,"Read Version C","Relational, read only version C",,,,,,0,Instruct,User,-,"Press Enter when you are readty to begin",,Instruct11,2706,,,-1,-1,,,,1
w10041439_jkn,sw0ijgxqji,Relational_NO_JOL,1,185,2020-05-03T12:16:01-07:00,40.322057008743,3,versionC_stim.csv,READVersionC.csv,"Read Version C","Relational, read only version C",FISH,SHRIMP,BUFFER3,Buffer,93,94,Study,User,-,,Study/JOL,BUFFER3,39974,,,-1,-1,,,,1
w10041439_jkn,sw0ijgxqji,Relational_NO_JOL,1,186,2020-05-03T12:16:09-07:00,7.9903290271759,3,versionC_stim.csv,READVersionC.csv,"Read Version C","Relational, read only version C",ADVENTURE,CAMP,BUFFER3,Buffer,95,93,Study,User,-,,Study/JOL,BUFFER3,7673,,,-1,-1,,,,1
w10041439_jkn,sw0ijgxqji,Relational_NO_JOL,1,187,2020-05-03T12:16:17-07:00,8.0251669883728,3,versionC_stim.csv,READVersionC.csv,"Read Version C","Relational, read only version C",POTATO,CARROT,BUFFER3,Buffer,91,95,Study,User,-,,Study/JOL,BUFFER3,7667,,,-1,-1,,,,1
w10041439_jkn,sw0ijgxqji,Relational_NO_JOL,1,188,2020-05-03T12:16:22-07:00,5.3438777923584,3,versionC_stim.csv,READVersionC.csv,"Read Version C","Relational, read only version C",STRING,NOODLE,BUFFER3,Buffer,92,92,Study,User,-,,Study/JOL,BUFFER3,4990,,,-1,-1,,,,1
w10041439_jkn,sw0ijgxqji,Relational_NO_JOL,1,189,2020-05-03T12:16:27-07:00,4.9701430797577,3,versionC_stim.csv,READVersionC.csv,"Read Version C","Relational, read only version C",FROZEN,ICE,BUFFER3,Buffer,94,96,Study,User,-,,Study/JOL,BUFFER3,4627,,,-1,-1,,,,1
w10041439_jkn,sw0ijgxqji,Relational_NO_JOL,1,190,2020-05-03T12:16:32-07:00,4.5926320552826,3,versionC_stim.csv,READVersionC.csv,"Read Version C","Relational, read only version C",WET,DRY,Study2,S,146,157,Study,User,-,,Study/JOL,"Study Phase2",4244,,,-1,-1,,,,1
w10041439_jkn,sw0ijgxqji,Relational_NO_JOL,1,191,2020-05-03T12:16:38-07:00,5.7827248573303,3,versionC_stim.csv,READVersionC.csv,"Read Version C","Relational, read only version C",PLANT,CACTUS,Study2,B,98,170,Study,User,-,,Study/JOL,"Study Phase2",5463,,,-1,-1,,,,1
w10041439_jkn,sw0ijgxqji,Relational_NO_JOL,1,192,2020-05-03T12:16:43-07:00,5.6929500102997,3,versionC_stim.csv,READVersionC.csv,"Read Version C","Relational, read only version C",PENGUIN,BIRD,Study2,F,119,140,Study,User,-,,Study/JOL,"Study Phase2",5335,,,-1,-1,,,,1
w10041439_jkn,sw0ijgxqji,Relational_NO_JOL,1,193,2020-05-03T12:16:47-07:00,3.8682260513306,3,versionC_stim.csv,READVersionC.csv,"Read Version C","Relational, read only version C",BANKER,MONEY,Study2,F,132,164,Study,User,-,,Study/JOL,"Study Phase2",3512,,,-1,-1,,,,1
w10041439_jkn,sw0ijgxqji,Relational_NO_JOL,1,194,2020-05-03T12:16:53-07:00,5.9737560749054,3,versionC_stim.csv,READVersionC.csv,"Read Version C","Relational, read only version C",AWAY,GONE,Study2,S,142,111,Study,User,-,,Study/JOL,"Study Phase2",5622,,,-1,-1,,,,1
w10041439_jkn,sw0ijgxqji,Relational_NO_JOL,1,195,2020-05-03T12:17:00-07:00,6.8562169075012,3,versionC_stim.csv,READVersionC.csv,"Read Version C","Relational, read only version C",Morning,TEMPERATURE,Study2,U,173,125,Study,User,-,,Study/JOL,"Study Phase2",6535,,,-1,-1,,,,1
w10041439_jkn,sw0ijgxqji,Relational_NO_JOL,1,196,2020-05-03T12:17:05-07:00,5.3219809532166,3,versionC_stim.csv,READVersionC.csv,"Read Version C","Relational, read only version C",ABLE,CRACKLE,Study2,U,162,103,Study,User,-,,Study/JOL,"Study Phase2",4978,,,-1,-1,,,,1
w10041439_jkn,sw0ijgxqji,Relational_NO_JOL,1,197,2020-05-03T12:17:10-07:00,4.8116941452026,3,versionC_stim.csv,READVersionC.csv,"Read Version C","Relational, read only version C",BRAWL,FIGHT,Study2,F,135,115,Study,User,-,,Study/JOL,"Study Phase2",4456,,,-1,-1,,,,1
w10041439_jkn,sw0ijgxqji,Relational_NO_JOL,1,198,2020-05-03T12:17:16-07:00,6.0070140361786,3,versionC_stim.csv,READVersionC.csv,"Read Version C","Relational, read only version C",EAT,DINE,Study2,B,111,146,Study,User,-,,Study/JOL,"Study Phase2",5664,,,-1,-1,,,,1
w10041439_jkn,sw0ijgxqji,Relational_NO_JOL,1,199,2020-05-03T12:17:24-07:00,7.4003319740295,3,versionC_stim.csv,READVersionC.csv,"Read Version C","Relational, read only version C",CLOTH,STRETCH,Study2,U,157,142,Study,User,-,,Study/JOL,"Study Phase2",7057,,,-1,-1,,,,1
w10041439_jkn,sw0ijgxqji,Relational_NO_JOL,1,200,2020-05-03T12:17:30-07:00,5.9458029270172,3,versionC_stim.csv,READVersionC.csv,"Read Version C","Relational, read only version C",SCISSORS,SHEARS,Study2,B,112,120,Study,User,-,,Study/JOL,"Study Phase2",5590,,,-1,-1,,,,1
w10041439_jkn,sw0ijgxqji,Relational_NO_JOL,1,201,2020-05-03T12:17:41-07:00,11.636537075043,3,versionC_stim.csv,READVersionC.csv,"Read Version C","Relational, read only version C",SMELL,INCENSE,Study2,B,110,101,Study,User,-,,Study/JOL,"Study Phase2",11278,,,-1,-1,,,,1
w10041439_jkn,sw0ijgxqji,Relational_NO_JOL,1,202,2020-05-03T12:17:45-07:00,4.0709800720215,3,versionC_stim.csv,READVersionC.csv,"Read Version C","Relational, read only version C",GAME,CLUE,Study2,B,97,175,Study,User,-,,Study/JOL,"Study Phase2",3713,,,-1,-1,,,,1
w10041439_jkn,sw0ijgxqji,Relational_NO_JOL,1,203,2020-05-03T12:17:49-07:00,3.4447269439697,3,versionC_stim.csv,READVersionC.csv,"Read Version C","Relational, read only version C",SIGN,LOAN,Study2,U,171,122,Study,User,-,,Study/JOL,"Study Phase2",3086,,,-1,-1,,,,1
w10041439_jkn,sw0ijgxqji,Relational_NO_JOL,1,204,2020-05-03T12:17:58-07:00,8.7432579994202,3,versionC_stim.csv,READVersionC.csv,"Read Version C","Relational, read only version C",CARBON,ELEMENT,Study2,S,141,124,Study,User,-,,Study/JOL,"Study Phase2",8406,,,-1,-1,,,,1
w10041439_jkn,sw0ijgxqji,Relational_NO_JOL,1,205,2020-05-03T12:18:02-07:00,4.2366018295288,3,versionC_stim.csv,READVersionC.csv,"Read Version C","Relational, read only version C",HEAD,SCALP,Study2,B,105,156,Study,User,-,,Study/JOL,"Study Phase2",3914,,,-1,-1,,,,1
w10041439_jkn,sw0ijgxqji,Relational_NO_JOL,1,206,2020-05-03T12:18:05-07:00,3.6685221195221,3,versionC_stim.csv,READVersionC.csv,"Read Version C","Relational, read only version C",HATE,NAME,Study2,U,167,172,Study,User,-,,Study/JOL,"Study Phase2",3329,,,-1,-1,,,,1
w10041439_jkn,sw0ijgxqji,Relational_NO_JOL,1,207,2020-05-03T12:18:11-07:00,5.6951758861542,3,versionC_stim.csv,READVersionC.csv,"Read Version C","Relational, read only version C",LONG,EXTENSION,Study2,B,96,137,Study,User,-,,Study/JOL,"Study Phase2",5347,,,-1,-1,,,,1
w10041439_jkn,sw0ijgxqji,Relational_NO_JOL,1,208,2020-05-03T12:18:18-07:00,6.5824301242828,3,versionC_stim.csv,READVersionC.csv,"Read Version C","Relational, read only version C",SHAKE,Shell,Study2,U,163,131,Study,User,-,,Study/JOL,"Study Phase2",6245,,,-1,-1,,,,1
w10041439_jkn,sw0ijgxqji,Relational_NO_JOL,1,209,2020-05-03T12:18:23-07:00,5.810996055603,3,versionC_stim.csv,READVersionC.csv,"Read Version C","Relational, read only version C",TEMPER,TANTRUM,Study2,S,154,126,Study,User,-,,Study/JOL,"Study Phase2",5411,,,-1,-1,,,,1
w10041439_jkn,sw0ijgxqji,Relational_NO_JOL,1,210,2020-05-03T12:18:28-07:00,4.0490329265594,3,versionC_stim.csv,READVersionC.csv,"Read Version C","Relational, read only version C",CAR,DRIVER,Study2,B,106,139,Study,User,-,,Study/JOL,"Study Phase2",3716,,,-1,-1,,,,1
w10041439_jkn,sw0ijgxqji,Relational_NO_JOL,1,211,2020-05-03T12:18:40-07:00,12.138926029205,3,versionC_stim.csv,READVersionC.csv,"Read Version C","Relational, read only version C",THIMBLE,THREAD,Study2,F,121,152,Study,User,-,,Study/JOL,"Study Phase2",11796,,,-1,-1,,,,1
w10041439_jkn,sw0ijgxqji,Relational_NO_JOL,1,212,2020-05-03T12:18:45-07:00,4.8292810916901,3,versionC_stim.csv,READVersionC.csv,"Read Version C","Relational, read only version C",NOISE,LOUD,Study2,S,152,162,Study,User,-,,Study/JOL,"Study Phase2",4501,,,-1,-1,,,,1
w10041439_jkn,sw0ijgxqji,Relational_NO_JOL,1,213,2020-05-03T12:18:49-07:00,4.4839758872986,3,versionC_stim.csv,READVersionC.csv,"Read Version C","Relational, read only version C",TRASH,LITTER,Study2,B,103,97,Study,User,-,,Study/JOL,"Study Phase2",4132,,,-1,-1,,,,1
w10041439_jkn,sw0ijgxqji,Relational_NO_JOL,1,214,2020-05-03T12:18:55-07:00,5.5885539054871,3,versionC_stim.csv,READVersionC.csv,"Read Version C","Relational, read only version C",PANTHER,CAT,Study2,F,126,114,Study,User,-,,Study/JOL,"Study Phase2",5255,,,-1,-1,,,,1
w10041439_jkn,sw0ijgxqji,Relational_NO_JOL,1,215,2020-05-03T12:18:59-07:00,4.8234350681305,3,versionC_stim.csv,READVersionC.csv,"Read Version C","Relational, read only version C",LONELY,ALONE,Study2,S,145,145,Study,User,-,,Study/JOL,"Study Phase2",4056,,,-1,-1,,,,1
w10041439_jkn,sw0ijgxqji,Relational_NO_JOL,1,216,2020-05-03T12:19:08-07:00,8.9778890609741,3,versionC_stim.csv,READVersionC.csv,"Read Version C","Relational, read only version C",FLIP,TURN,Study2,F,116,99,Study,User,-,,Study/JOL,"Study Phase2",8620,,,-1,-1,,,,1
w10041439_jkn,sw0ijgxqji,Relational_NO_JOL,1,217,2020-05-03T12:19:19-07:00,11.096204042435,3,versionC_stim.csv,READVersionC.csv,"Read Version C","Relational, read only version C",TRUTHFUL,HONEST,Study2,F,133,129,Study,User,-,,Study/JOL,"Study Phase2",10746,,,-1,-1,,,,1
w10041439_jkn,sw0ijgxqji,Relational_NO_JOL,1,218,2020-05-03T12:19:24-07:00,4.1627728939056,3,versionC_stim.csv,READVersionC.csv,"Read Version C","Relational, read only version C",DONKEY,MULE,Study2,B,108,174,Study,User,-,,Study/JOL,"Study Phase2",3822,,,-1,-1,,,,1
w10041439_jkn,sw0ijgxqji,Relational_NO_JOL,1,219,2020-05-03T12:19:28-07:00,4.055074930191,3,versionC_stim.csv,READVersionC.csv,"Read Version C","Relational, read only version C",LIE,TRUTH,Study2,S,148,116,Study,User,-,,Study/JOL,"Study Phase2",3691,,,-1,-1,,,,1
w10041439_jkn,sw0ijgxqji,Relational_NO_JOL,1,220,2020-05-03T12:19:31-07:00,3.6518030166626,3,versionC_stim.csv,READVersionC.csv,"Read Version C","Relational, read only version C",TICK,FLEA,Study2,S,151,133,Study,User,-,,Study/JOL,"Study Phase2",3303,,,-1,-1,,,,1
w10041439_jkn,sw0ijgxqji,Relational_NO_JOL,1,221,2020-05-03T12:19:33-07:00,1.8949179649353,3,versionC_stim.csv,READVersionC.csv,"Read Version C","Relational, read only version C",FICTION,LISTEN,Study2,U,164,176,Study,User,-,,Study/JOL,"Study Phase2",1625,,,-1,-1,,,,1
w10041439_jkn,sw0ijgxqji,Relational_NO_JOL,1,222,2020-05-03T12:19:34-07:00,0.59766507148743,3,versionC_stim.csv,READVersionC.csv,"Read Version C","Relational, read only version C",HAVE,OWN,Study2,S,153,105,Study,User,-,,Study/JOL,"Study Phase2",328,,,-1,-1,,,,1
w10041439_jkn,sw0ijgxqji,Relational_NO_JOL,1,223,2020-05-03T12:19:36-07:00,1.8056061267853,3,versionC_stim.csv,READVersionC.csv,"Read Version C","Relational, read only version C",WINDSHIELD,CAR,Study2,F,117,154,Study,User,-,,Study/JOL,"Study Phase2",1546,,,-1,-1,,,,1
w10041439_jkn,sw0ijgxqji,Relational_NO_JOL,1,224,2020-05-03T12:19:46-07:00,10.782377004623,3,versionC_stim.csv,READVersionC.csv,"Read Version C","Relational, read only version C",,,,,,0,Instruct,-,3,"Remember to focus on how the two items are similiar while you study!",,CHECK5,10440,,,-1,-1,,,,1
w10041439_jkn,sw0ijgxqji,Relational_NO_JOL,1,225,2020-05-03T12:19:57-07:00,10.755584001541,3,versionC_stim.csv,READVersionC.csv,"Read Version C","Relational, read only version C",OBTAIN,MEAT,Study2,U,161,150,Study,User,-,,Study/JOL,"Study Phase2",10420,,,-1,-1,,,,1
w10041439_jkn,sw0ijgxqji,Relational_NO_JOL,1,226,2020-05-03T12:20:07-07:00,9.745579957962,3,versionC_stim.csv,READVersionC.csv,"Read Version C","Relational, read only version C",FAVORITE,BEST,Study2,F,125,112,Study,User,-,,Study/JOL,"Study Phase2",9362,,,-1,-1,,,,1
w10041439_jkn,sw0ijgxqji,Relational_NO_JOL,1,227,2020-05-03T12:20:13-07:00,5.8901419639587,3,versionC_stim.csv,READVersionC.csv,"Read Version C","Relational, read only version C",CHARM,VEHICLE,Study2,U,160,127,Study,User,-,,Study/JOL,"Study Phase2",5548,,,-1,-1,,,,1
w10041439_jkn,sw0ijgxqji,Relational_NO_JOL,1,228,2020-05-03T12:20:21-07:00,8.6616930961609,3,versionC_stim.csv,READVersionC.csv,"Read Version C","Relational, read only version C",COMMUNICATION,PHONE,Study2,S,149,119,Study,User,-,,Study/JOL,"Study Phase2",8308,,,-1,-1,,,,1
w10041439_jkn,sw0ijgxqji,Relational_NO_JOL,1,229,2020-05-03T12:20:26-07:00,4.7476499080658,3,versionC_stim.csv,READVersionC.csv,"Read Version C","Relational, read only version C",JOKE,KEYS,Study2,U,165,173,Study,User,-,,Study/JOL,"Study Phase2",4414,,,-1,-1,,,,1
w10041439_jkn,sw0ijgxqji,Relational_NO_JOL,1,230,2020-05-03T12:20:33-07:00,7.2393329143524,3,versionC_stim.csv,READVersionC.csv,"Read Version C","Relational, read only version C",END,ADJOURN,Study2,B,101,136,Study,User,-,,Study/JOL,"Study Phase2",6879,,,-1,-1,,,,1
w10041439_jkn,sw0ijgxqji,Relational_NO_JOL,1,231,2020-05-03T12:20:40-07:00,6.0755851268768,3,versionC_stim.csv,READVersionC.csv,"Read Version C","Relational, read only version C",STRAWBERRY,FRUIT,Study2,F,124,160,Study,User,-,,Study/JOL,"Study Phase2",5736,,,-1,-1,,,,1
w10041439_jkn,sw0ijgxqji,Relational_NO_JOL,1,232,2020-05-03T12:20:45-07:00,5.3871078491211,3,versionC_stim.csv,READVersionC.csv,"Read Version C","Relational, read only version C",SHAVE,RAZOR,Study2,S,136,118,Study,User,-,,Study/JOL,"Study Phase2",5016,,,-1,-1,,,,1
w10041439_jkn,sw0ijgxqji,Relational_NO_JOL,1,233,2020-05-03T12:20:50-07:00,4.9995691776276,3,versionC_stim.csv,READVersionC.csv,"Read Version C","Relational, read only version C",ACTRESS,STAR,Study2,F,120,169,Study,User,-,,Study/JOL,"Study Phase2",4661,,,-1,-1,,,,1
w10041439_jkn,sw0ijgxqji,Relational_NO_JOL,1,234,2020-05-03T12:21:02-07:00,12.31777381897,3,versionC_stim.csv,READVersionC.csv,"Read Version C","Relational, read only version C",PAPER,DOCUMENT,Study2,B,109,113,Study,User,-,,Study/JOL,"Study Phase2",11957,,,-1,-1,,,,1
w10041439_jkn,sw0ijgxqji,Relational_NO_JOL,1,235,2020-05-03T12:21:09-07:00,7.0964071750641,3,versionC_stim.csv,READVersionC.csv,"Read Version C","Relational, read only version C",SEATBELT,SAFETY,Study2,S,147,135,Study,User,-,,Study/JOL,"Study Phase2",6759,,,-1,-1,,,,1
w10041439_jkn,sw0ijgxqji,Relational_NO_JOL,1,236,2020-05-03T12:21:13-07:00,3.4942018985748,3,versionC_stim.csv,READVersionC.csv,"Read Version C","Relational, read only version C",CUT,CHOP,Study2,B,107,166,Study,User,-,,Study/JOL,"Study Phase2",3176,,,-1,-1,,,,1
w10041439_jkn,sw0ijgxqji,Relational_NO_JOL,1,237,2020-05-03T12:21:18-07:00,4.7945239543915,3,versionC_stim.csv,READVersionC.csv,"Read Version C","Relational, read only version C",WAX,CANDLE,Study2,S,139,132,Study,User,-,,Study/JOL,"Study Phase2",4473,,,-1,-1,,,,1
w10041439_jkn,sw0ijgxqji,Relational_NO_JOL,1,238,2020-05-03T12:21:23-07:00,5.2202839851379,3,versionC_stim.csv,READVersionC.csv,"Read Version C","Relational, read only version C",TIE,SHOELACE,Study2,B,99,130,Study,User,-,,Study/JOL,"Study Phase2",4867,,,-1,-1,,,,1
w10041439_jkn,sw0ijgxqji,Relational_NO_JOL,1,239,2020-05-03T12:21:28-07:00,4.7220060825348,3,versionC_stim.csv,READVersionC.csv,"Read Version C","Relational, read only version C",FIGHT,FEUD,Study2,B,113,104,Study,User,-,,Study/JOL,"Study Phase2",4387,,,-1,-1,,,,1
w10041439_jkn,sw0ijgxqji,Relational_NO_JOL,1,240,2020-05-03T12:21:32-07:00,4.5480620861053,3,versionC_stim.csv,READVersionC.csv,"Read Version C","Relational, read only version C",COFFIN,DEAD,Study2,F,128,106,Study,User,-,,Study/JOL,"Study Phase2",4180,,,-1,-1,,,,1
w10041439_jkn,sw0ijgxqji,Relational_NO_JOL,1,241,2020-05-03T12:21:38-07:00,5.5055558681488,3,versionC_stim.csv,READVersionC.csv,"Read Version C","Relational, read only version C",MYSTERY,DETECTIVE,Study2,B,100,171,Study,User,-,,Study/JOL,"Study Phase2",5162,,,-1,-1,,,,1
w10041439_jkn,sw0ijgxqji,Relational_NO_JOL,1,242,2020-05-03T12:21:41-07:00,3.4960401058197,3,versionC_stim.csv,READVersionC.csv,"Read Version C","Relational, read only version C",NAP,SLEEP,Study2,F,134,102,Study,User,-,,Study/JOL,"Study Phase2",3142,,,-1,-1,,,,1
w10041439_jkn,sw0ijgxqji,Relational_NO_JOL,1,243,2020-05-03T12:21:46-07:00,4.7190568447113,3,versionC_stim.csv,READVersionC.csv,"Read Version C","Relational, read only version C",CHILDREN,MIRROR,Study2,U,174,163,Study,User,-,,Study/JOL,"Study Phase2",4368,,,-1,-1,,,,1
w10041439_jkn,sw0ijgxqji,Relational_NO_JOL,1,244,2020-05-03T12:21:51-07:00,4.6776721477509,3,versionC_stim.csv,READVersionC.csv,"Read Version C","Relational, read only version C",REEL,ROD,Study2,S,150,138,Study,User,-,,Study/JOL,"Study Phase2",4327,,,-1,-1,,,,1
w10041439_jkn,sw0ijgxqji,Relational_NO_JOL,1,245,2020-05-03T12:22:27-07:00,36.106669902802,3,versionC_stim.csv,READVersionC.csv,"Read Version C","Relational, read only version C",RED,CHERRY,Study2,B,104,147,Study,User,-,,Study/JOL,"Study Phase2",35768,,,-1,-1,,,,1
w10041439_jkn,sw0ijgxqji,Relational_NO_JOL,1,246,2020-05-03T12:22:32-07:00,5.6117341518402,3,versionC_stim.csv,READVersionC.csv,"Read Version C","Relational, read only version C",CLOTHES,CAKE,Study2,U,166,155,Study,User,-,,Study/JOL,"Study Phase2",5268,,,-1,-1,,,,1
w10041439_jkn,sw0ijgxqji,Relational_NO_JOL,1,247,2020-05-03T12:22:38-07:00,5.6116638183594,3,versionC_stim.csv,READVersionC.csv,"Read Version C","Relational, read only version C",LEAGUE,BASEBALL,Study2,F,131,168,Study,User,-,,Study/JOL,"Study Phase2",5232,,,-1,-1,,,,1
w10041439_jkn,sw0ijgxqji,Relational_NO_JOL,1,248,2020-05-03T12:22:46-07:00,8.0464119911194,3,versionC_stim.csv,READVersionC.csv,"Read Version C","Relational, read only version C",BREAKABLE,GLASS,Study2,F,127,123,Study,User,-,,Study/JOL,"Study Phase2",7499,,,-1,-1,,,,1
w10041439_jkn,sw0ijgxqji,Relational_NO_JOL,1,249,2020-05-03T12:22:51-07:00,4.9511580467224,3,versionC_stim.csv,READVersionC.csv,"Read Version C","Relational, read only version C",CLEAR,MOAT,Study2,U,169,117,Study,User,-,,Study/JOL,"Study Phase2",4562,,,-1,-1,,,,1
w10041439_jkn,sw0ijgxqji,Relational_NO_JOL,1,250,2020-05-03T12:22:55-07:00,4.2091739177704,3,versionC_stim.csv,READVersionC.csv,"Read Version C","Relational, read only version C",REVENGE,EVEN,Study2,F,122,161,Study,User,-,,Study/JOL,"Study Phase2",3867,,,-1,-1,,,,1
w10041439_jkn,sw0ijgxqji,Relational_NO_JOL,1,251,2020-05-03T12:23:02-07:00,6.6006190776825,3,versionC_stim.csv,READVersionC.csv,"Read Version C","Relational, read only version C",EQUAL,RIGHTS,Study2,S,137,121,Study,User,-,,Study/JOL,"Study Phase2",6228,,,-1,-1,,,,1
w10041439_jkn,sw0ijgxqji,Relational_NO_JOL,1,252,2020-05-03T12:23:20-07:00,18.784888982773,3,versionC_stim.csv,READVersionC.csv,"Read Version C","Relational, read only version C",ELECTION,MAZE,Study2,U,159,167,Study,User,-,,Study/JOL,"Study Phase2",18421,,,-1,-1,,,,1
w10041439_jkn,sw0ijgxqji,Relational_NO_JOL,1,253,2020-05-03T12:23:24-07:00,3.5544831752777,3,versionC_stim.csv,READVersionC.csv,"Read Version C","Relational, read only version C",TAN,SUN,Study2,S,155,165,Study,User,-,,Study/JOL,"Study Phase2",3192,,,-1,-1,,,,1
w10041439_jkn,sw0ijgxqji,Relational_NO_JOL,1,254,2020-05-03T12:23:29-07:00,4.7954978942871,3,versionC_stim.csv,READVersionC.csv,"Read Version C","Relational, read only version C",BANG,FUZZY,Study2,U,168,148,Study,User,-,,Study/JOL,"Study Phase2",4458,,,-1,-1,,,,1
w10041439_jkn,sw0ijgxqji,Relational_NO_JOL,1,255,2020-05-03T12:23:34-07:00,5.2863121032715,3,versionC_stim.csv,READVersionC.csv,"Read Version C","Relational, read only version C",DRINK,WATER,Study2,S,143,158,Study,User,-,,Study/JOL,"Study Phase2",4941,,,-1,-1,,,,1
w10041439_jkn,sw0ijgxqji,Relational_NO_JOL,1,256,2020-05-03T12:23:39-07:00,5.3965308666229,3,versionC_stim.csv,READVersionC.csv,"Read Version C","Relational, read only version C",BRACELET,WRIST,Study2,S,140,98,Study,User,-,,Study/JOL,"Study Phase2",5025,,,-1,-1,,,,1
w10041439_jkn,sw0ijgxqji,Relational_NO_JOL,1,257,2020-05-03T12:23:45-07:00,5.9583311080933,3,versionC_stim.csv,READVersionC.csv,"Read Version C","Relational, read only version C",TOIL,LEASE,Study2,U,170,109,Study,User,-,,Study/JOL,"Study Phase2",5611,,,-1,-1,,,,1
w10041439_jkn,sw0ijgxqji,Relational_NO_JOL,1,258,2020-05-03T12:23:50-07:00,4.1905288696289,3,versionC_stim.csv,READVersionC.csv,"Read Version C","Relational, read only version C",BALLOON,POP,Study2,F,123,153,Study,User,-,,Study/JOL,"Study Phase2",3811,,,-1,-1,,,,1
w10041439_jkn,sw0ijgxqji,Relational_NO_JOL,1,259,2020-05-03T12:23:56-07:00,6.3458940982819,3,versionC_stim.csv,READVersionC.csv,"Read Version C","Relational, read only version C",MAROON,JUSTICE,Study2,U,156,128,Study,User,-,,Study/JOL,"Study Phase2",5971,,,-1,-1,,,,1
w10041439_jkn,sw0ijgxqji,Relational_NO_JOL,1,260,2020-05-03T12:24:01-07:00,5.1716909408569,3,versionC_stim.csv,READVersionC.csv,"Read Version C","Relational, read only version C",OUNCE,BOTH,Study2,U,172,149,Study,User,-,,Study/JOL,"Study Phase2",4822,,,-1,-1,,,,1
w10041439_jkn,sw0ijgxqji,Relational_NO_JOL,1,261,2020-05-03T12:24:06-07:00,4.7279889583588,3,versionC_stim.csv,READVersionC.csv,"Read Version C","Relational, read only version C",GROUND,EARTH,Study2,S,144,110,Study,User,-,,Study/JOL,"Study Phase2",4345,,,-1,-1,,,,1
w10041439_jkn,sw0ijgxqji,Relational_NO_JOL,1,262,2020-05-03T12:24:12-07:00,6.14555311203,3,versionC_stim.csv,READVersionC.csv,"Read Version C","Relational, read only version C",LOVE,AFFECTION,Study2,B,115,151,Study,User,-,,Study/JOL,"Study Phase2",5787,,,-1,-1,,,,1
w10041439_jkn,sw0ijgxqji,Relational_NO_JOL,1,263,2020-05-03T12:24:17-07:00,5.0070760250092,3,versionC_stim.csv,READVersionC.csv,"Read Version C","Relational, read only version C",SCAR,MAIN,Study2,U,175,144,Study,User,-,,Study/JOL,"Study Phase2",4659,,,-1,-1,,,,1
w10041439_jkn,sw0ijgxqji,Relational_NO_JOL,1,264,2020-05-03T12:24:22-07:00,5.3930559158325,3,versionC_stim.csv,READVersionC.csv,"Read Version C","Relational, read only version C",STEAK,GIVE,Study2,U,158,134,Study,User,-,,Study/JOL,"Study Phase2",5041,,,-1,-1,,,,1
w10041439_jkn,sw0ijgxqji,Relational_NO_JOL,1,265,2020-05-03T12:24:28-07:00,5.5634760856628,3,versionC_stim.csv,READVersionC.csv,"Read Version C","Relational, read only version C",VILLAIN,BAD,Study2,F,118,143,Study,User,-,,Study/JOL,"Study Phase2",5220,,,-1,-1,,,,1
w10041439_jkn,sw0ijgxqji,Relational_NO_JOL,1,266,2020-05-03T12:24:32-07:00,4.1406168937683,3,versionC_stim.csv,READVersionC.csv,"Read Version C","Relational, read only version C",JAR,MASON,Study2,S,138,108,Study,User,-,,Study/JOL,"Study Phase2",3796,,,-1,-1,,,,1
w10041439_jkn,sw0ijgxqji,Relational_NO_JOL,1,267,2020-05-03T12:24:40-07:00,7.6953649520874,3,versionC_stim.csv,READVersionC.csv,"Read Version C","Relational, read only version C",SARDINE,FISH,Study2,F,130,107,Study,User,-,,Study/JOL,"Study Phase2",7312,,,-1,-1,,,,1
w10041439_jkn,sw0ijgxqji,Relational_NO_JOL,1,268,2020-05-03T12:24:45-07:00,4.7027430534363,3,versionC_stim.csv,READVersionC.csv,"Read Version C","Relational, read only version C",DOG,FURRY,Study2,B,102,141,Study,User,-,,Study/JOL,"Study Phase2",4338,,,-1,-1,,,,1
w10041439_jkn,sw0ijgxqji,Relational_NO_JOL,1,269,2020-05-03T12:24:50-07:00,5.5543060302734,3,versionC_stim.csv,READVersionC.csv,"Read Version C","Relational, read only version C",AIRCRAFT,PLANE,Study2,F,129,159,Study,User,-,,Study/JOL,"Study Phase2",5191,,,-1,-1,,,,1
w10041439_jkn,sw0ijgxqji,Relational_NO_JOL,1,270,2020-05-03T12:24:54-07:00,4.2220830917358,3,versionC_stim.csv,READVersionC.csv,"Read Version C","Relational, read only version C",COLD,CHILL,Study2,B,114,100,Study,User,-,,Study/JOL,"Study Phase2",3874,,,-1,-1,,,,1
w10041439_jkn,sw0ijgxqji,Relational_NO_JOL,1,271,2020-05-03T12:25:00-07:00,5.409530878067,3,versionC_stim.csv,READVersionC.csv,"Read Version C","Relational, read only version C",MARCH,SPRING,BUFFER4,Buffer,179,179,Study,User,-,,Study/JOL,BUFFER4,5063,,,-1,-1,,,,1
w10041439_jkn,sw0ijgxqji,Relational_NO_JOL,1,272,2020-05-03T12:25:07-07:00,7.3496201038361,3,versionC_stim.csv,READVersionC.csv,"Read Version C","Relational, read only version C",WEAKS,DAYS,BUFFER4,Buffer,176,177,Study,User,-,,Study/JOL,BUFFER4,6989,,,-1,-1,,,,1
w10041439_jkn,sw0ijgxqji,Relational_NO_JOL,1,273,2020-05-03T12:25:14-07:00,7.3885309696198,3,versionC_stim.csv,READVersionC.csv,"Read Version C","Relational, read only version C",SPOOKY,OCTOBER,BUFFER4,Buffer,180,178,Study,User,-,,Study/JOL,BUFFER4,7039,,,-1,-1,,,,1
w10041439_jkn,sw0ijgxqji,Relational_NO_JOL,1,274,2020-05-03T12:25:20-07:00,5.3017048835754,3,versionC_stim.csv,READVersionC.csv,"Read Version C","Relational, read only version C",YEAR,MONTH,BUFFER4,Buffer,177,181,Study,User,-,,Study/JOL,BUFFER4,4947,,,-1,-1,,,,1
w10041439_jkn,sw0ijgxqji,Relational_NO_JOL,1,275,2020-05-03T12:25:30-07:00,10.129358053207,3,versionC_stim.csv,READVersionC.csv,"Read Version C","Relational, read only version C",SHED,TOOL,BUFFER4,Buffer,178,180,Study,User,-,,Study/JOL,BUFFER4,9766,,,-1,-1,,,,1
w10041439_jkn,sw0ijgxqji,Relational_NO_JOL,1,276,2020-05-03T12:25:31-07:00,1.492604970932,3,versionC_stim.csv,READVersionC.csv,"Read Version C","Relational, read only version C",,,,,,0,Instruct,User,-,"You have completed this section. Please press Enter.",Filler_Instruction,Instruct5,1174,,,-1,-1,,,,1
w10041439_jkn,sw0ijgxqji,Relational_NO_JOL,1,277,2020-05-03T12:25:44-07:00,12.869683027267,3,versionC_stim.csv,READVersionC.csv,"Read Version C","Relational, read only version C",,,,,,0,FreeRecall,-,10,"What were you supposed to focus on while you studied each pair? (Hint: Think back to the instructions). Type your answer in the space below.",,CHECK3,12510,"Think about how the two concepts are RELATED to each other. For example, if you see the pair TURTLE-CAT, think about how both are alive, they are both animals, and both can be kept as pets. ",0,10363,10363,0,0,,1
w10041439_jkn,sw0ijgxqji,Relational_NO_JOL,1,278,2020-05-03T12:25:47-07:00,2.3092319965363,3,versionC_stim.csv,READVersionC.csv,"Read Version C","Relational, read only version C",,,,,,0,Instruct,User,-,"You have completed this section. Please press Enter.",Filler_Instruction,Instruct5,1877,,,-1,-1,,,,1
w10041439_jkn,sw0ijgxqji,Relational_NO_JOL,1,279,2020-05-03T12:27:47-07:00,120.40022611618,3,versionC_stim.csv,READVersionC.csv,"Read Version C","Relational, read only version C",,,,,,0,FreeRecall,120,120,"Please list the 50 US states in reverse alphabetical order (z - a). The task will automatically advance to the next screen after two minutes.",,Filler2,120006,"alabama Arkansas Wyoming texas Louisiana new mexico Georgia florida Tennessee Kansas north Dakota south Dakota ohio new York north Carolina south Carolina Washington Hawaii Alaska I didn't notice the z-a till now sorry",0,6076,117227,0,0,,1
w10041439_jkn,sw0ijgxqji,Relational_NO_JOL,1,280,2020-05-03T12:28:06-07:00,19.306369781494,3,versionC_stim.csv,READVersionC.csv,"Read Version C","Relational, read only version C",,,,,,0,Instruct,-,10,"You will now be presented with the first word from each of the previously studied item pairs. Please type the missing word. If you do not know the word, you may guess or press Enter to skip forward to the next pair.",,Instruct6,18927,,,-1,-1,,,,1
w10041439_jkn,sw0ijgxqji,Relational_NO_JOL,1,281,2020-05-03T12:28:21-07:00,15.058245182037,3,versionC_stim.csv,READVersionC.csv,"Read Version C","Relational, read only version C",SHAVE,RAZOR,Study2,S,136,118,Test,User,-,,Recall,Recall2,14689,razor,100,12988,13848,1,1,,1
w10041439_jkn,sw0ijgxqji,Relational_NO_JOL,1,282,2020-05-03T12:28:38-07:00,16.527891874313,3,versionC_stim.csv,READVersionC.csv,"Read Version C","Relational, read only version C",GAME,CLUE,Study2,B,97,175,Test,User,-,,Recall,Recall2,16164,clue,100,15361,15851,1,1,,1
w10041439_jkn,sw0ijgxqji,Relational_NO_JOL,1,283,2020-05-03T12:28:57-07:00,19.604485034943,3,versionC_stim.csv,READVersionC.csv,"Read Version C","Relational, read only version C",TIE,SHOELACE,Study2,B,99,130,Test,User,-,,Recall,Recall2,19265,shoelace,100,17159,18548,1,1,,1
w10041439_jkn,sw0ijgxqji,Relational_NO_JOL,1,284,2020-05-03T12:29:30-07:00,33.037620067596,3,versionC_stim.csv,READVersionC.csv,"Read Version C","Relational, read only version C",COLD,CHILL,Study2,B,114,100,Test,User,-,,Recall,Recall2,32662,chill,100,31508,32136,1,1,,1
w10041439_jkn,sw0ijgxqji,Relational_NO_JOL,1,285,2020-05-03T12:29:42-07:00,11.523751020432,3,versionC_stim.csv,READVersionC.csv,"Read Version C","Relational, read only version C",JOKE,KEYS,Study2,U,165,173,Test,User,-,,Recall,Recall2,11141,keys,100,10239,10726,1,1,,1
w10041439_jkn,sw0ijgxqji,Relational_NO_JOL,1,286,2020-05-03T12:29:53-07:00,11.006525039673,3,versionC_stim.csv,READVersionC.csv,"Read Version C","Relational, read only version C",VILLAIN,BAD,Study2,F,118,143,Test,User,-,,Recall,Recall2,10640,bad,100,9935,10359,1,1,,1
w10041439_jkn,sw0ijgxqji,Relational_NO_JOL,1,287,2020-05-03T12:30:05-07:00,12.027568817139,3,versionC_stim.csv,READVersionC.csv,"Read Version C","Relational, read only version C",LONELY,ALONE,Study2,S,145,145,Test,User,-,,Recall,Recall2,11645,alone,100,10725,11383,1,1,,1
w10041439_jkn,sw0ijgxqji,Relational_NO_JOL,1,288,2020-05-03T12:30:14-07:00,9.1702620983124,3,versionC_stim.csv,READVersionC.csv,"Read Version C","Relational, read only version C",PLANT,CACTUS,Study2,B,98,170,Test,User,-,,Recall,Recall2,8828,cactus,100,7684,8485,1,1,,1
w10041439_jkn,sw0ijgxqji,Relational_NO_JOL,1,289,2020-05-03T12:30:25-07:00,10.712785959244,3,versionC_stim.csv,READVersionC.csv,"Read Version C","Relational, read only version C",FAVORITE,BEST,Study2,F,125,112,Test,User,-,,Recall,Recall2,10327,best,100,9339,9869,1,1,,1
w10041439_jkn,sw0ijgxqji,Relational_NO_JOL,1,290,2020-05-03T12:30:52-07:00,26.59202504158,3,versionC_stim.csv,READVersionC.csv,"Read Version C","Relational, read only version C",CLEAR,MOAT,Study2,U,169,117,Test,User,-,,Recall,Recall2,26251,moat,100,25004,25821,1,1,,1
w10041439_jkn,sw0ijgxqji,Relational_NO_JOL,1,291,2020-05-03T12:31:04-07:00,12.897840976715,3,versionC_stim.csv,READVersionC.csv,"Read Version C","Relational, read only version C",SARDINE,FISH,Study2,F,130,107,Test,User,-,,Recall,Recall2,12555,fish,100,9560,10741,1,1,,1
w10041439_jkn,sw0ijgxqji,Relational_NO_JOL,1,292,2020-05-03T12:31:14-07:00,9.6903650760651,3,versionC_stim.csv,READVersionC.csv,"Read Version C","Relational, read only version C",RED,CHERRY,Study2,B,104,147,Test,User,-,,Recall,Recall2,9342,cherry,100,7748,8928,1,1,,1
w10041439_jkn,sw0ijgxqji,Relational_NO_JOL,1,293,2020-05-03T12:31:35-07:00,20.426823854446,3,versionC_stim.csv,READVersionC.csv,"Read Version C","Relational, read only version C",DRINK,WATER,Study2,S,143,158,Test,User,-,,Recall,Recall2,20080,water,100,18750,19614,1,1,,1
w10041439_jkn,sw0ijgxqji,Relational_NO_JOL,1,294,2020-05-03T12:31:46-07:00,11.181547164917,3,versionC_stim.csv,READVersionC.csv,"Read Version C","Relational, read only version C",LIE,TRUTH,Study2,S,148,116,Test,User,-,,Recall,Recall2,10833,truth,100,7266,9971,1,1,,1
w10041439_jkn,sw0ijgxqji,Relational_NO_JOL,1,295,2020-05-03T12:32:13-07:00,27.013091802597,3,versionC_stim.csv,READVersionC.csv,"Read Version C","Relational, read only version C",PAPER,DOCUMENT,Study2,B,109,113,Test,User,-,,Recall,Recall2,26659,document,100,23349,25919,1,1,,1
w10041439_jkn,sw0ijgxqji,Relational_NO_JOL,1,296,2020-05-03T12:32:56-07:00,43.366959095001,3,versionC_stim.csv,READVersionC.csv,"Read Version C","Relational, read only version C",HAVE,OWN,Study2,S,153,105,Test,User,-,,Recall,Recall2,42992,name,28.571428571429,41197,42352,0,0,,1
w10041439_jkn,sw0ijgxqji,Relational_NO_JOL,1,297,2020-05-03T12:33:30-07:00,33.939817905426,3,versionC_stim.csv,READVersionC.csv,"Read Version C","Relational, read only version C",WINDSHIELD,CAR,Study2,F,117,154,Test,User,-,,Recall,Recall2,33540,,0,-1,-1,0,0,,1
w10041439_jkn,sw0ijgxqji,Relational_NO_JOL,1,298,2020-05-03T12:33:42-07:00,12.172562122345,3,versionC_stim.csv,READVersionC.csv,"Read Version C","Relational, read only version C",ELECTION,MAZE,Study2,U,159,167,Test,User,-,,Recall,Recall2,11338,maze,100,9594,10612,1,1,,1
w10041439_jkn,sw0ijgxqji,Relational_NO_JOL,1,299,2020-05-03T12:33:58-07:00,15.920849084854,3,versionC_stim.csv,READVersionC.csv,"Read Version C","Relational, read only version C",STRAWBERRY,FRUIT,Study2,F,124,160,Test,User,-,,Recall,Recall2,15567,fruit,100,14313,15161,1,1,,1
w10041439_jkn,sw0ijgxqji,Relational_NO_JOL,1,300,2020-05-03T12:34:12-07:00,13.603713989258,3,versionC_stim.csv,READVersionC.csv,"Read Version C","Relational, read only version C",OUNCE,BOTH,Study2,U,172,149,Test,User,-,,Recall,Recall2,13244,both,100,11876,12791,1,1,,1
w10041439_jkn,sw0ijgxqji,Relational_NO_JOL,1,301,2020-05-03T12:34:48-07:00,35.979604959488,3,versionC_stim.csv,READVersionC.csv,"Read Version C","Relational, read only version C",CARBON,ELEMENT,Study2,S,141,124,Test,User,-,,Recall,Recall2,35621,element,100,32854,35190,1,1,,1
w10041439_jkn,sw0ijgxqji,Relational_NO_JOL,1,302,2020-05-03T12:35:07-07:00,18.902851819992,3,versionC_stim.csv,READVersionC.csv,"Read Version C","Relational, read only version C",SHAKE,Shell,Study2,U,163,131,Test,User,-,,Recall,Recall2,18537,shell,100,17163,17920,1,1,,1
w10041439_jkn,sw0ijgxqji,Relational_NO_JOL,1,303,2020-05-03T12:35:18-07:00,11.183605194092,3,versionC_stim.csv,READVersionC.csv,"Read Version C","Relational, read only version C",THIMBLE,THREAD,Study2,F,121,152,Test,User,-,,Recall,Recall2,10825,thread,100,9535,10463,1,1,,1
w10041439_jkn,sw0ijgxqji,Relational_NO_JOL,1,304,2020-05-03T12:35:27-07:00,9.4545929431915,3,versionC_stim.csv,READVersionC.csv,"Read Version C","Relational, read only version C",DOG,FURRY,Study2,B,102,141,Test,User,-,,Recall,Recall2,9074,furry,100,8015,8676,1,1,,1
w10041439_jkn,sw0ijgxqji,Relational_NO_JOL,1,305,2020-05-03T12:35:36-07:00,8.7519149780273,3,versionC_stim.csv,READVersionC.csv,"Read Version C","Relational, read only version C",CHILDREN,MIRROR,Study2,U,174,163,Test,User,-,,Recall,Recall2,8352,mirror,100,6767,7739,1,1,,1
w10041439_jkn,sw0ijgxqji,Relational_NO_JOL,1,306,2020-05-03T12:36:02-07:00,25.729044914246,3,versionC_stim.csv,READVersionC.csv,"Read Version C","Relational, read only version C",EAT,DINE,Study2,B,111,146,Test,User,-,,Recall,Recall2,25307,dine,100,24562,25000,1,1,,1
w10041439_jkn,sw0ijgxqji,Relational_NO_JOL,1,307,2020-05-03T12:36:54-07:00,52.247951984406,3,versionC_stim.csv,READVersionC.csv,"Read Version C","Relational, read only version C",TRASH,LITTER,Study2,B,103,97,Test,User,-,,Recall,Recall2,51864,litter,100,50727,51603,1,1,,1
w10041439_jkn,sw0ijgxqji,Relational_NO_JOL,1,308,2020-05-03T12:37:17-07:00,23.470547199249,3,versionC_stim.csv,READVersionC.csv,"Read Version C","Relational, read only version C",CLOTH,STRETCH,Study2,U,157,142,Test,User,-,,Recall,Recall2,23101,stretch,100,4462,22412,1,1,,1
w10041439_jkn,sw0ijgxqji,Relational_NO_JOL,1,309,2020-05-03T12:37:28-07:00,10.542432785034,3,versionC_stim.csv,READVersionC.csv,"Read Version C","Relational, read only version C",COFFIN,DEAD,Study2,F,128,106,Test,User,-,,Recall,Recall2,10183,dead,100,9264,9778,1,1,,1
w10041439_jkn,sw0ijgxqji,Relational_NO_JOL,1,310,2020-05-03T12:38:07-07:00,39.282956123352,3,versionC_stim.csv,READVersionC.csv,"Read Version C","Relational, read only version C",TOIL,LEASE,Study2,U,170,109,Test,User,-,,Recall,Recall2,38910,tease,80,37777,38490,0,1,,1
w10041439_jkn,sw0ijgxqji,Relational_NO_JOL,1,311,2020-05-03T12:38:26-07:00,18.965601921082,3,versionC_stim.csv,READVersionC.csv,"Read Version C","Relational, read only version C",AIRCRAFT,PLANE,Study2,F,129,159,Test,User,-,,Recall,Recall2,18599,plane,100,17537,18191,1,1,,1
w10041439_jkn,sw0ijgxqji,Relational_NO_JOL,1,312,2020-05-03T12:38:30-07:00,3.9619750976562,3,versionC_stim.csv,READVersionC.csv,"Read Version C","Relational, read only version C",JAR,MASON,Study2,S,138,108,Test,User,-,,Recall,Recall2,3595,mason,100,2401,3054,1,1,,1
w10041439_jkn,sw0ijgxqji,Relational_NO_JOL,1,313,2020-05-03T12:38:45-07:00,15.241913080215,3,versionC_stim.csv,READVersionC.csv,"Read Version C","Relational, read only version C",MAROON,JUSTICE,Study2,U,156,128,Test,User,-,,Recall,Recall2,14895,justice,100,13659,14720,1,1,,1
w10041439_jkn,sw0ijgxqji,Relational_NO_JOL,1,314,2020-05-03T12:38:51-07:00,5.705130815506,3,versionC_stim.csv,READVersionC.csv,"Read Version C","Relational, read only version C",SCAR,MAIN,Study2,U,175,144,Test,User,-,,Recall,Recall2,5351,main,100,2842,4716,1,1,,1
w10041439_jkn,sw0ijgxqji,Relational_NO_JOL,1,315,2020-05-03T12:39:07-07:00,16.116782188416,3,versionC_stim.csv,READVersionC.csv,"Read Version C","Relational, read only version C",PENGUIN,BIRD,Study2,F,119,140,Test,User,-,,Recall,Recall2,15753,bird,100,14859,15517,1,1,,1
w10041439_jkn,sw0ijgxqji,Relational_NO_JOL,1,316,2020-05-03T12:39:31-07:00,23.855680942535,3,versionC_stim.csv,READVersionC.csv,"Read Version C","Relational, read only version C",LEAGUE,BASEBALL,Study2,F,131,168,Test,User,-,,Recall,Recall2,23506,baseball,100,21500,22586,1,1,,1
w10041439_jkn,sw0ijgxqji,Relational_NO_JOL,1,317,2020-05-03T12:40:03-07:00,31.630691051483,3,versionC_stim.csv,READVersionC.csv,"Read Version C","Relational, read only version C",SMELL,INCENSE,Study2,B,110,101,Test,User,-,,Recall,Recall2,31262,incense,100,29401,30530,1,1,,1
w10041439_jkn,sw0ijgxqji,Relational_NO_JOL,1,318,2020-05-03T12:40:14-07:00,11.083670854568,3,versionC_stim.csv,READVersionC.csv,"Read Version C","Relational, read only version C",REVENGE,EVEN,Study2,F,122,161,Test,User,-,,Recall,Recall2,10705,even,100,8808,9911,1,1,,1
w10041439_jkn,sw0ijgxqji,Relational_NO_JOL,1,319,2020-05-03T12:40:27-07:00,13.074023962021,3,versionC_stim.csv,READVersionC.csv,"Read Version C","Relational, read only version C",BRACELET,WRIST,Study2,S,140,98,Test,User,-,,Recall,Recall2,12716,wrist,100,11217,11933,1,1,,1
w10041439_jkn,sw0ijgxqji,Relational_NO_JOL,1,320,2020-05-03T12:40:35-07:00,7.9501700401306,3,versionC_stim.csv,READVersionC.csv,"Read Version C","Relational, read only version C",GROUND,EARTH,Study2,S,144,110,Test,User,-,,Recall,Recall2,7133,earth,100,5585,6339,1,1,,1
w10041439_jkn,sw0ijgxqji,Relational_NO_JOL,1,321,2020-05-03T12:40:50-07:00,14.990067005157,3,versionC_stim.csv,READVersionC.csv,"Read Version C","Relational, read only version C",END,ADJOURN,Study2,B,101,136,Test,User,-,,Recall,Recall2,14266,adjourn,100,11111,12302,1,1,,1
w10041439_jkn,sw0ijgxqji,Relational_NO_JOL,1,322,2020-05-03T12:41:06-07:00,16.388467073441,3,versionC_stim.csv,READVersionC.csv,"Read Version C","Relational, read only version C",WAX,CANDLE,Study2,S,139,132,Test,User,-,,Recall,Recall2,16033,candle,100,14662,15352,1,1,,1
w10041439_jkn,sw0ijgxqji,Relational_NO_JOL,1,323,2020-05-03T12:41:18-07:00,12.221145868301,3,versionC_stim.csv,READVersionC.csv,"Read Version C","Relational, read only version C",FICTION,LISTEN,Study2,U,164,176,Test,User,-,,Recall,Recall2,11838,listen,100,10521,11440,1,1,,1
w10041439_jkn,sw0ijgxqji,Relational_NO_JOL,1,324,2020-05-03T12:41:22-07:00,3.2525851726532,3,versionC_stim.csv,READVersionC.csv,"Read Version C","Relational, read only version C",EQUAL,RIGHTS,Study2,S,137,121,Test,User,-,,Recall,Recall2,2879,rights,100,2018,2714,1,1,,1
w10041439_jkn,sw0ijgxqji,Relational_NO_JOL,1,325,2020-05-03T12:41:25-07:00,3.0518758296967,3,versionC_stim.csv,READVersionC.csv,"Read Version C","Relational, read only version C",BALLOON,POP,Study2,F,123,153,Test,User,-,,Recall,Recall2,2690,pop,100,1688,1984,1,1,,1
w10041439_jkn,sw0ijgxqji,Relational_NO_JOL,1,326,2020-05-03T12:41:44-07:00,19.615810155869,3,versionC_stim.csv,READVersionC.csv,"Read Version C","Relational, read only version C",BREAKABLE,GLASS,Study2,F,127,123,Test,User,-,,Recall,Recall2,19252,glass,100,18514,19127,1,1,,1
w10041439_jkn,sw0ijgxqji,Relational_NO_JOL,1,327,2020-05-03T12:41:49-07:00,4.4685878753662,3,versionC_stim.csv,READVersionC.csv,"Read Version C","Relational, read only version C",TAN,SUN,Study2,S,155,165,Test,User,-,,Recall,Recall2,4107,sun,100,2984,3640,1,1,,1
w10041439_jkn,sw0ijgxqji,Relational_NO_JOL,1,328,2020-05-03T12:41:55-07:00,6.2035250663757,3,versionC_stim.csv,READVersionC.csv,"Read Version C","Relational, read only version C",NAP,SLEEP,Study2,F,134,102,Test,User,-,,Recall,Recall2,5822,sleep,100,3460,5429,1,1,,1
w10041439_jkn,sw0ijgxqji,Relational_NO_JOL,1,329,2020-05-03T12:42:02-07:00,7.3640539646149,3,versionC_stim.csv,READVersionC.csv,"Read Version C","Relational, read only version C",MYSTERY,DETECTIVE,Study2,B,100,171,Test,User,-,,Recall,Recall2,7033,detective,100,4277,6235,1,1,,1
w10041439_jkn,sw0ijgxqji,Relational_NO_JOL,1,330,2020-05-03T12:42:09-07:00,6.8125920295715,3,versionC_stim.csv,READVersionC.csv,"Read Version C","Relational, read only version C",ACTRESS,STAR,Study2,F,120,169,Test,User,-,,Recall,Recall2,6442,star,100,5142,5601,1,1,,1
w10041439_jkn,sw0ijgxqji,Relational_NO_JOL,1,331,2020-05-03T12:42:41-07:00,32.02453494072,3,versionC_stim.csv,READVersionC.csv,"Read Version C","Relational, read only version C",BRAWL,FIGHT,Study2,F,135,115,Test,User,-,,Recall,Recall2,31649,fight,100,30974,31379,1,1,,1
w10041439_jkn,sw0ijgxqji,Relational_NO_JOL,1,332,2020-05-03T12:42:54-07:00,13.224320173264,3,versionC_stim.csv,READVersionC.csv,"Read Version C","Relational, read only version C",SCISSORS,SHEARS,Study2,B,112,120,Test,User,-,,Recall,Recall2,12853,shears,100,11597,12219,1,1,,1
w10041439_jkn,sw0ijgxqji,Relational_NO_JOL,1,333,2020-05-03T12:43:01-07:00,6.4442839622498,3,versionC_stim.csv,READVersionC.csv,"Read Version C","Relational, read only version C",STEAK,GIVE,Study2,U,158,134,Test,User,-,,Recall,Recall2,6087,give,100,2578,5674,1,1,,1
w10041439_jkn,sw0ijgxqji,Relational_NO_JOL,1,334,2020-05-03T12:43:17-07:00,15.979858875275,3,versionC_stim.csv,READVersionC.csv,"Read Version C","Relational, read only version C",SEATBELT,SAFETY,Study2,S,147,135,Test,User,-,,Recall,Recall2,15592,safety,100,13399,14993,1,1,,1
w10041439_jkn,sw0ijgxqji,Relational_NO_JOL,1,335,2020-05-03T12:43:28-07:00,11.526777982712,3,versionC_stim.csv,READVersionC.csv,"Read Version C","Relational, read only version C",CHARM,VEHICLE,Study2,U,160,127,Test,User,-,,Recall,Recall2,11177,vehicle,100,7656,10903,1,1,,1
w10041439_jkn,sw0ijgxqji,Relational_NO_JOL,1,336,2020-05-03T12:43:36-07:00,7.4095511436462,3,versionC_stim.csv,READVersionC.csv,"Read Version C","Relational, read only version C",LOVE,AFFECTION,Study2,B,115,151,Test,User,-,,Recall,Recall2,7073,affection,100,4614,6671,1,1,,1
w10041439_jkn,sw0ijgxqji,Relational_NO_JOL,1,337,2020-05-03T12:43:57-07:00,20.865082979202,3,versionC_stim.csv,READVersionC.csv,"Read Version C","Relational, read only version C",LONG,EXTENSION,Study2,B,96,137,Test,User,-,,Recall,Recall2,20524,extension,100,16781,19971,1,1,,1
w10041439_jkn,sw0ijgxqji,Relational_NO_JOL,1,338,2020-05-03T12:44:05-07:00,8.5930609703064,3,versionC_stim.csv,READVersionC.csv,"Read Version C","Relational, read only version C",TICK,FLEA,Study2,S,151,133,Test,User,-,,Recall,Recall2,8235,flea,100,6740,7753,1,1,,1
w10041439_jkn,sw0ijgxqji,Relational_NO_JOL,1,339,2020-05-03T12:44:15-07:00,9.3630909919739,3,versionC_stim.csv,READVersionC.csv,"Read Version C","Relational, read only version C",COMMUNICATION,PHONE,Study2,S,149,119,Test,User,-,,Recall,Recall2,8985,phone,100,6244,7520,1,1,,1
w10041439_jkn,sw0ijgxqji,Relational_NO_JOL,1,340,2020-05-03T12:44:33-07:00,18.409017086029,3,versionC_stim.csv,READVersionC.csv,"Read Version C","Relational, read only version C",CLOTHES,CAKE,Study2,U,166,155,Test,User,-,,Recall,Recall2,18052,cake,100,16306,17562,1,1,,1
w10041439_jkn,sw0ijgxqji,Relational_NO_JOL,1,341,2020-05-03T12:44:39-07:00,5.6723740100861,3,versionC_stim.csv,READVersionC.csv,"Read Version C","Relational, read only version C",DONKEY,MULE,Study2,B,108,174,Test,User,-,,Recall,Recall2,3497,mule,100,2128,3053,1,1,,1
w10041439_jkn,sw0ijgxqji,Relational_NO_JOL,1,342,2020-05-03T12:44:49-07:00,10.034832000732,3,versionC_stim.csv,READVersionC.csv,"Read Version C","Relational, read only version C",SIGN,LOAN,Study2,U,171,122,Test,User,-,,Recall,Recall2,9628,loan,100,8207,9232,1,1,,1
w10041439_jkn,sw0ijgxqji,Relational_NO_JOL,1,343,2020-05-03T12:44:53-07:00,4.1519508361816,3,versionC_stim.csv,READVersionC.csv,"Read Version C","Relational, read only version C",CAR,DRIVER,Study2,B,106,139,Test,User,-,,Recall,Recall2,3790,driver,100,1894,3266,1,1,,1
w10041439_jkn,sw0ijgxqji,Relational_NO_JOL,1,344,2020-05-03T12:45:07-07:00,13.946128129959,3,versionC_stim.csv,READVersionC.csv,"Read Version C","Relational, read only version C",FIGHT,FEUD,Study2,B,113,104,Test,User,-,,Recall,Recall2,13577,feud,100,12089,13054,1,1,,1
w10041439_jkn,sw0ijgxqji,Relational_NO_JOL,1,345,2020-05-03T12:45:17-07:00,10.099534988403,3,versionC_stim.csv,READVersionC.csv,"Read Version C","Relational, read only version C",FLIP,TURN,Study2,F,116,99,Test,User,-,,Recall,Recall2,9743,turn,100,8657,9360,1,1,,1
w10041439_jkn,sw0ijgxqji,Relational_NO_JOL,1,346,2020-05-03T12:45:28-07:00,10.651306867599,3,versionC_stim.csv,READVersionC.csv,"Read Version C","Relational, read only version C",REEL,ROD,Study2,S,150,138,Test,User,-,,Recall,Recall2,10298,rod,100,7487,8267,1,1,,1
w10041439_jkn,sw0ijgxqji,Relational_NO_JOL,1,347,2020-05-03T12:45:34-07:00,6.6074631214142,3,versionC_stim.csv,READVersionC.csv,"Read Version C","Relational, read only version C",BANG,FUZZY,Study2,U,168,148,Test,User,-,,Recall,Recall2,6246,fuzzy,100,4525,5860,1,1,,1
w10041439_jkn,sw0ijgxqji,Relational_NO_JOL,1,348,2020-05-03T12:45:42-07:00,7.4642729759216,3,versionC_stim.csv,READVersionC.csv,"Read Version C","Relational, read only version C",OBTAIN,MEAT,Study2,U,161,150,Test,User,-,,Recall,Recall2,7086,meat,100,5699,6725,1,1,,1
w10041439_jkn,sw0ijgxqji,Relational_NO_JOL,1,349,2020-05-03T12:45:48-07:00,6.3219709396362,3,versionC_stim.csv,READVersionC.csv,"Read Version C","Relational, read only version C",ABLE,CRACKLE,Study2,U,162,103,Test,User,-,,Recall,Recall2,5966,crackle,100,3757,5523,1,1,,1
w10041439_jkn,sw0ijgxqji,Relational_NO_JOL,1,350,2020-05-03T12:46:00-07:00,12.207840919495,3,versionC_stim.csv,READVersionC.csv,"Read Version C","Relational, read only version C",AWAY,GONE,Study2,S,142,111,Test,User,-,,Recall,Recall2,11859,gone,100,5777,11393,1,1,,1
w10041439_jkn,sw0ijgxqji,Relational_NO_JOL,1,351,2020-05-03T12:46:12-07:00,11.589226007462,3,versionC_stim.csv,READVersionC.csv,"Read Version C","Relational, read only version C",NOISE,LOUD,Study2,S,152,162,Test,User,-,,Recall,Recall2,11220,loud,100,9780,10742,1,1,,1
w10041439_jkn,sw0ijgxqji,Relational_NO_JOL,1,352,2020-05-03T12:46:23-07:00,11.273996114731,3,versionC_stim.csv,READVersionC.csv,"Read Version C","Relational, read only version C",TEMPER,TANTRUM,Study2,S,154,126,Test,User,-,,Recall,Recall2,10923,tantrum,100,8757,10538,1,1,,1
w10041439_jkn,sw0ijgxqji,Relational_NO_JOL,1,353,2020-05-03T12:46:33-07:00,9.4709808826447,3,versionC_stim.csv,READVersionC.csv,"Read Version C","Relational, read only version C",BANKER,MONEY,Study2,F,132,164,Test,User,-,,Recall,Recall2,9089,money,100,7428,8760,1,1,,1
w10041439_jkn,sw0ijgxqji,Relational_NO_JOL,1,354,2020-05-03T12:46:37-07:00,4.1877110004425,3,versionC_stim.csv,READVersionC.csv,"Read Version C","Relational, read only version C",HATE,NAME,Study2,U,167,172,Test,User,-,,Recall,Recall2,3839,name,100,2250,3378,1,1,,1
w10041439_jkn,sw0ijgxqji,Relational_NO_JOL,1,355,2020-05-03T12:46:48-07:00,11.714023113251,3,versionC_stim.csv,READVersionC.csv,"Read Version C","Relational, read only version C",TRUTHFUL,HONEST,Study2,F,133,129,Test,User,-,,Recall,Recall2,11347,honest,100,9372,10930,1,1,,1
w10041439_jkn,sw0ijgxqji,Relational_NO_JOL,1,356,2020-05-03T12:47:00-07:00,11.200470924377,3,versionC_stim.csv,READVersionC.csv,"Read Version C","Relational, read only version C",WET,DRY,Study2,S,146,157,Test,User,-,,Recall,Recall2,10814,dry,100,9593,9957,1,1,,1
w10041439_jkn,sw0ijgxqji,Relational_NO_JOL,1,357,2020-05-03T12:47:08-07:00,8.5838401317596,3,versionC_stim.csv,READVersionC.csv,"Read Version C","Relational, read only version C",CUT,CHOP,Study2,B,107,166,Test,User,-,,Recall,Recall2,8229,chop,100,7152,7998,1,1,,1
w10041439_jkn,sw0ijgxqji,Relational_NO_JOL,1,358,2020-05-03T12:47:21-07:00,13.118621826172,3,versionC_stim.csv,READVersionC.csv,"Read Version C","Relational, read only version C",Morning,TEMPERATURE,Study2,U,173,125,Test,User,-,,Recall,Recall2,12763,temperature,100,9565,12335,1,1,,1
w10041439_jkn,sw0ijgxqji,Relational_NO_JOL,1,359,2020-05-03T12:47:29-07:00,7.3999311923981,3,versionC_stim.csv,READVersionC.csv,"Read Version C","Relational, read only version C",HEAD,SCALP,Study2,B,105,156,Test,User,-,,Recall,Recall2,7049,scalp,100,5643,6737,1,1,,1
w10041439_jkn,sw0ijgxqji,Relational_NO_JOL,1,360,2020-05-03T12:47:41-07:00,11.807900905609,3,versionC_stim.csv,READVersionC.csv,"Read Version C","Relational, read only version C",PANTHER,CAT,Study2,F,126,114,Test,User,-,,Recall,Recall2,11460,cat,100,10411,10978,1,1,,1
w10041439_jkn,sw0ijgxqji,Relational_NO_JOL,1,361,2020-05-03T12:47:42-07:00,1.6539430618286,3,versionC_stim.csv,READVersionC.csv,"Read Version C","Relational, read only version C",,,,,,0,Instruct,User,-,"You have completed this section. Please press Enter.",,Instruct7,1352,,,-1,-1,,,,1
w10041439_jkn,sw0ijgxqji,Relational_NO_JOL,1,362,2020-05-03T12:47:45-07:00,2.7919759750366,3,versionC_stim.csv,READVersionC.csv,"Read Version C","Relational, read only version C",,,,,,0,Instruct,User,-,"The following screen will ask you a few questions abour your experience today. You must complete these questions to receive credit.",,Instruct8,2421,,,-1,-1,,,,1
