Username,ID,ExperimentName,Session,Trial,Date,TimeDif,"Condition Number","Stimuli File","Order File","Condition Description","Condition Notes",Stimuli*Cue,Stimuli*Answer,Stimuli*Shuffle,"Stimuli*Stimuli Notes",Stimuli*Value,Procedure*Item,"Procedure*Trial Type","Procedure*Max Time","Procedure*Min Time",Procedure*Text,"Procedure*Procedure Notes",Procedure*Shuffle,Response*RT,Response*Response,Response*Accuracy,Response*RTfirst,Response*RTlast,Response*strictAcc,Response*lenientAcc,Response*focus,Response*Focus
w10013263_wtm,olq996nes4,Relational_NO_JOL,1,1,2020-05-05T14:59:39-07:00,11.022640943527,3,versionC_stim.csv,READVersionC.csv,"Read Version C","Relational, read only version C",,,,,,0,Instruct,-,10,"In this section, you will be presented with a series of word pairs. Please study both items in the pair.",,Instruct15,10752,,,-1,-1,,,,1
w10013263_wtm,olq996nes4,Relational_NO_JOL,1,2,2020-05-05T15:00:14-07:00,34.812389135361,3,versionC_stim.csv,READVersionC.csv,"Read Version C","Relational, read only version C",,,,,,0,Instruct,-,15,"As you study, please think about how the two concepts are RELATED to each other. For example, if you see the pair TURTLE-CAT, think about how both are alive, they are both animals, and both can be kept as pets.",,Instruct19,34545,,,-1,-1,,,,0.382
w10013263_wtm,olq996nes4,Relational_NO_JOL,1,3,2020-05-05T15:00:37-07:00,22.977144002914,3,versionC_stim.csv,READVersionC.csv,"Read Version C","Relational, read only version C",,,,,,0,FreeRecall,-,10,"What you should think about as you study each item pair? Type your response in the box below.",,CHECK1,22703,"how concepts are related such as cat and turtle being alive, animals, kept as pets.",0,5909,20985,0,0,,1
w10013263_wtm,olq996nes4,Relational_NO_JOL,1,4,2020-05-05T15:00:39-07:00,1.9470179080963,3,versionC_stim.csv,READVersionC.csv,"Read Version C","Relational, read only version C",,,,,,0,Instruct,User,-,"You will now begin the experiment. Press ENTER when you are ready to begin.",,Instruct000,1725,,,-1,-1,,,,1
w10013263_wtm,olq996nes4,Relational_NO_JOL,1,5,2020-05-05T15:00:44-07:00,5.4998600482941,3,versionC_stim.csv,READVersionC.csv,"Read Version C","Relational, read only version C",BUTTER,PEANUT,BUFFER1,Buffer,3,5,Study,User,-,,Study/JOL,BUFFER,5290,,,-1,-1,,,,1
w10013263_wtm,olq996nes4,Relational_NO_JOL,1,6,2020-05-05T15:00:53-07:00,8.5151009559631,3,versionC_stim.csv,READVersionC.csv,"Read Version C","Relational, read only version C",HIDE,SCARE,BUFFER1,Buffer,4,2,Study,User,-,,Study/JOL,BUFFER,8301,,,-1,-1,,,,0.929
w10013263_wtm,olq996nes4,Relational_NO_JOL,1,7,2020-05-05T15:01:01-07:00,8.1744151115417,3,versionC_stim.csv,READVersionC.csv,"Read Version C","Relational, read only version C",JAM,SPACE,BUFFER1,Buffer,5,6,Study,User,-,,Study/JOL,BUFFER,7971,,,-1,-1,,,,1
w10013263_wtm,olq996nes4,Relational_NO_JOL,1,8,2020-05-05T15:01:07-07:00,6.6605930328369,3,versionC_stim.csv,READVersionC.csv,"Read Version C","Relational, read only version C",GREEN,TREES,BUFFER1,Buffer,1,3,Study,User,-,,Study/JOL,BUFFER,6446,,,-1,-1,,,,1
w10013263_wtm,olq996nes4,Relational_NO_JOL,1,9,2020-05-05T15:01:11-07:00,3.0852379798889,3,versionC_stim.csv,READVersionC.csv,"Read Version C","Relational, read only version C",CATCHER,BASEBALL,BUFFER1,Buffer,2,4,Study,User,-,,Study/JOL,BUFFER,2868,,,-1,-1,,,,1
w10013263_wtm,olq996nes4,Relational_NO_JOL,1,10,2020-05-05T15:01:14-07:00,3.2261049747467,3,versionC_stim.csv,READVersionC.csv,"Read Version C","Relational, read only version C",WOMAN,LIFT,Study1,U,69,42,Study,User,-,,Study/JOL,"Study Phase",3012,,,-1,-1,,,,1
w10013263_wtm,olq996nes4,Relational_NO_JOL,1,11,2020-05-05T15:01:21-07:00,6.7783098220825,3,versionC_stim.csv,READVersionC.csv,"Read Version C","Relational, read only version C",ENOUGH,FULL,Study1,F,26,37,Study,User,-,,Study/JOL,"Study Phase",6567,,,-1,-1,,,,1
w10013263_wtm,olq996nes4,Relational_NO_JOL,1,12,2020-05-05T15:01:24-07:00,2.9879801273346,3,versionC_stim.csv,READVersionC.csv,"Read Version C","Relational, read only version C",FUTURE,PAST,Study1,S,61,58,Study,User,-,,Study/JOL,"Study Phase",2774,,,-1,-1,,,,1
w10013263_wtm,olq996nes4,Relational_NO_JOL,1,13,2020-05-05T15:01:35-07:00,11.203460931778,3,versionC_stim.csv,READVersionC.csv,"Read Version C","Relational, read only version C",LATCH,KEY,Study1,F,36,32,Study,User,-,,Study/JOL,"Study Phase",10926,,,-1,-1,,,,1
w10013263_wtm,olq996nes4,Relational_NO_JOL,1,14,2020-05-05T15:01:38-07:00,3.0622661113739,3,versionC_stim.csv,READVersionC.csv,"Read Version C","Relational, read only version C",SITE,LOCATION,Study1,S,48,19,Study,User,-,,Study/JOL,"Study Phase",2819,,,-1,-1,,,,1
w10013263_wtm,olq996nes4,Relational_NO_JOL,1,15,2020-05-05T15:01:42-07:00,3.9226129055023,3,versionC_stim.csv,READVersionC.csv,"Read Version C","Relational, read only version C",BLAZE,FIRE,Study1,F,45,40,Study,User,-,,Study/JOL,"Study Phase",3711,,,-1,-1,,,,1
w10013263_wtm,olq996nes4,Relational_NO_JOL,1,16,2020-05-05T15:01:44-07:00,2.7689671516418,3,versionC_stim.csv,READVersionC.csv,"Read Version C","Relational, read only version C",ADD,VALLEY,Study1,U,82,61,Study,User,-,,Study/JOL,"Study Phase",2526,,,-1,-1,,,,1
w10013263_wtm,olq996nes4,Relational_NO_JOL,1,17,2020-05-05T15:01:50-07:00,5.5547878742218,3,versionC_stim.csv,READVersionC.csv,"Read Version C","Relational, read only version C",CHILI,HOT,Study1,F,37,70,Study,User,-,,Study/JOL,"Study Phase",5339,,,-1,-1,,,,1
w10013263_wtm,olq996nes4,Relational_NO_JOL,1,18,2020-05-05T15:01:54-07:00,3.5731871128082,3,versionC_stim.csv,READVersionC.csv,"Read Version C","Relational, read only version C",SODA,POP,Study1,S,56,8,Study,User,-,,Study/JOL,"Study Phase",3360,,,-1,-1,,,,1
w10013263_wtm,olq996nes4,Relational_NO_JOL,1,19,2020-05-05T15:01:58-07:00,3.9227569103241,3,versionC_stim.csv,READVersionC.csv,"Read Version C","Relational, read only version C",SIGHT,DEBATE,Study1,U,73,43,Study,User,-,,Study/JOL,"Study Phase",3708,,,-1,-1,,,,1
w10013263_wtm,olq996nes4,Relational_NO_JOL,1,20,2020-05-05T15:02:01-07:00,3.6572840213776,3,versionC_stim.csv,READVersionC.csv,"Read Version C","Relational, read only version C",DESIGN,ARCHITECTURE,Study1,S,51,78,Study,User,-,,Study/JOL,"Study Phase",3415,,,-1,-1,,,,1
w10013263_wtm,olq996nes4,Relational_NO_JOL,1,21,2020-05-05T15:02:05-07:00,4.0776119232178,3,versionC_stim.csv,READVersionC.csv,"Read Version C","Relational, read only version C",WIND,BLOW,Study1,S,55,60,Study,User,-,,Study/JOL,"Study Phase",3869,,,-1,-1,,,,1
w10013263_wtm,olq996nes4,Relational_NO_JOL,1,22,2020-05-05T15:02:11-07:00,5.5028309822083,3,versionC_stim.csv,READVersionC.csv,"Read Version C","Relational, read only version C",WOULD,CASH,Study1,U,83,46,Study,User,-,,Study/JOL,"Study Phase",5274,,,-1,-1,,,,1
w10013263_wtm,olq996nes4,Relational_NO_JOL,1,23,2020-05-05T15:02:15-07:00,3.8095450401306,3,versionC_stim.csv,READVersionC.csv,"Read Version C","Relational, read only version C",ASSIGNMENT,DUE,Study1,S,46,81,Study,User,-,,Study/JOL,"Study Phase",3593,,,-1,-1,,,,1
w10013263_wtm,olq996nes4,Relational_NO_JOL,1,24,2020-05-05T15:02:19-07:00,4.0558080673218,3,versionC_stim.csv,READVersionC.csv,"Read Version C","Relational, read only version C",LION,ART,Study1,U,79,66,Study,User,-,,Study/JOL,"Study Phase",3818,,,-1,-1,,,,1
w10013263_wtm,olq996nes4,Relational_NO_JOL,1,25,2020-05-05T15:02:21-07:00,2.7528409957886,3,versionC_stim.csv,READVersionC.csv,"Read Version C","Relational, read only version C",SALAD,LETTUCE,Study1,S,59,59,Study,User,-,,Study/JOL,"Study Phase",2545,,,-1,-1,,,,1
w10013263_wtm,olq996nes4,Relational_NO_JOL,1,26,2020-05-05T15:02:25-07:00,3.2713220119476,3,versionC_stim.csv,READVersionC.csv,"Read Version C","Relational, read only version C",RACKET,BALL,Study1,F,38,13,Study,User,-,,Study/JOL,"Study Phase",1942,,,-1,-1,,,,1
w10013263_wtm,olq996nes4,Relational_NO_JOL,1,27,2020-05-05T15:02:26-07:00,0.9924168586731,3,versionC_stim.csv,READVersionC.csv,"Read Version C","Relational, read only version C",TOILET,BATHROOM,Study1,S,58,77,Study,User,-,,Study/JOL,"Study Phase",775,,,-1,-1,,,,1
w10013263_wtm,olq996nes4,Relational_NO_JOL,1,28,2020-05-05T15:02:27-07:00,1.744695186615,3,versionC_stim.csv,READVersionC.csv,"Read Version C","Relational, read only version C",END,BEGIN,Study1,S,54,14,Study,User,-,,Study/JOL,"Study Phase",1523,,,-1,-1,,,,1
w10013263_wtm,olq996nes4,Relational_NO_JOL,1,29,2020-05-05T15:02:30-07:00,2.5370628833771,3,versionC_stim.csv,READVersionC.csv,"Read Version C","Relational, read only version C",TUCK,ALLOW,Study1,U,78,35,Study,User,-,,Study/JOL,"Study Phase",2320,,,-1,-1,,,,1
w10013263_wtm,olq996nes4,Relational_NO_JOL,1,30,2020-05-05T15:02:33-07:00,2.8865370750427,3,versionC_stim.csv,READVersionC.csv,"Read Version C","Relational, read only version C",PILOT,PLANE,Study1,F,44,33,Study,User,-,,Study/JOL,"Study Phase",2664,,,-1,-1,,,,1
w10013263_wtm,olq996nes4,Relational_NO_JOL,1,31,2020-05-05T15:02:35-07:00,1.9028248786926,3,versionC_stim.csv,READVersionC.csv,"Read Version C","Relational, read only version C",CHEESE,WINE,Study1,S,57,27,Study,User,-,,Study/JOL,"Study Phase",1686,,,-1,-1,,,,1
w10013263_wtm,olq996nes4,Relational_NO_JOL,1,32,2020-05-05T15:02:37-07:00,1.8722040653229,3,versionC_stim.csv,READVersionC.csv,"Read Version C","Relational, read only version C",OUT,WAY,Study1,B,16,41,Study,User,-,,Study/JOL,"Study Phase",1644,,,-1,-1,,,,1
w10013263_wtm,olq996nes4,Relational_NO_JOL,1,33,2020-05-05T15:02:39-07:00,2.1170349121094,3,versionC_stim.csv,READVersionC.csv,"Read Version C","Relational, read only version C",POSITION,MACHINE,Study1,U,76,56,Study,User,-,,Study/JOL,"Study Phase",1915,,,-1,-1,,,,1
w10013263_wtm,olq996nes4,Relational_NO_JOL,1,34,2020-05-05T15:02:41-07:00,2.3805770874023,3,versionC_stim.csv,READVersionC.csv,"Read Version C","Relational, read only version C",JURY,TRIAL,Study1,S,50,82,Study,User,-,,Study/JOL,"Study Phase",2142,,,-1,-1,,,,1
w10013263_wtm,olq996nes4,Relational_NO_JOL,1,35,2020-05-05T15:02:45-07:00,3.7213199138641,3,versionC_stim.csv,READVersionC.csv,"Read Version C","Relational, read only version C",DOG,PAW,Study1,B,15,44,Study,User,-,,Study/JOL,"Study Phase",3504,,,-1,-1,,,,1
w10013263_wtm,olq996nes4,Relational_NO_JOL,1,36,2020-05-05T15:02:48-07:00,3.514111995697,3,versionC_stim.csv,READVersionC.csv,"Read Version C","Relational, read only version C",SACKING,DIETARY,Study1,U,67,47,Study,User,-,,Study/JOL,"Study Phase",3291,,,-1,-1,,,,1
w10013263_wtm,olq996nes4,Relational_NO_JOL,1,37,2020-05-05T15:02:49-07:00,0.83393216133118,3,versionC_stim.csv,READVersionC.csv,"Read Version C","Relational, read only version C",HAND,FIX,Study1,U,75,16,Study,User,-,,Study/JOL,"Study Phase",622,,,-1,-1,,,,1
w10013263_wtm,olq996nes4,Relational_NO_JOL,1,38,2020-05-05T15:02:51-07:00,1.567281961441,3,versionC_stim.csv,READVersionC.csv,"Read Version C","Relational, read only version C",MONEY,WAGE,Study1,B,8,65,Study,User,-,,Study/JOL,"Study Phase",1337,,,-1,-1,,,,1
w10013263_wtm,olq996nes4,Relational_NO_JOL,1,39,2020-05-05T15:02:52-07:00,1.4557640552521,3,versionC_stim.csv,READVersionC.csv,"Read Version C","Relational, read only version C",HAMMER,CHISEL,Study1,B,9,72,Study,User,-,,Study/JOL,"Study Phase",1241,,,-1,-1,,,,1
w10013263_wtm,olq996nes4,Relational_NO_JOL,1,40,2020-05-05T15:02:58-07:00,5.7082738876343,3,versionC_stim.csv,READVersionC.csv,"Read Version C","Relational, read only version C",BELT,SOON,Study1,U,70,11,Study,User,-,,Study/JOL,"Study Phase",5475,,,-1,-1,,,,1
w10013263_wtm,olq996nes4,Relational_NO_JOL,1,41,2020-05-05T15:02:59-07:00,1.2603220939636,3,versionC_stim.csv,READVersionC.csv,"Read Version C","Relational, read only version C",STENCH,SMELL,Study1,F,42,69,Study,User,-,,Study/JOL,"Study Phase",1043,,,-1,-1,,,,1
w10013263_wtm,olq996nes4,Relational_NO_JOL,1,42,2020-05-05T15:03:01-07:00,1.5321409702301,3,versionC_stim.csv,READVersionC.csv,"Read Version C","Relational, read only version C",NEWS,EDITOR,Study1,B,10,62,Study,User,-,,Study/JOL,"Study Phase",1317,,,-1,-1,,,,1
w10013263_wtm,olq996nes4,Relational_NO_JOL,1,43,2020-05-05T15:03:02-07:00,1.1690218448639,3,versionC_stim.csv,READVersionC.csv,"Read Version C","Relational, read only version C",ATTORNEY,LAW,Study1,F,34,73,Study,User,-,,Study/JOL,"Study Phase",956,,,-1,-1,,,,1
w10013263_wtm,olq996nes4,Relational_NO_JOL,1,44,2020-05-05T15:03:06-07:00,4.3691191673279,3,versionC_stim.csv,READVersionC.csv,"Read Version C","Relational, read only version C",,,,,,0,Instruct,-,3,"Remember to focus on how the two items are similiar while you study!",,CHECK2,4132,,,-1,-1,,,,1
w10013263_wtm,olq996nes4,Relational_NO_JOL,1,45,2020-05-05T15:03:08-07:00,1.3903839588165,3,versionC_stim.csv,READVersionC.csv,"Read Version C","Relational, read only version C",LIVER,KIDNEY,Study1,S,53,38,Study,User,-,,Study/JOL,"Study Phase",1174,,,-1,-1,,,,1
w10013263_wtm,olq996nes4,Relational_NO_JOL,1,46,2020-05-05T15:03:08-07:00,0.87133598327637,3,versionC_stim.csv,READVersionC.csv,"Read Version C","Relational, read only version C",FLOOR,DISCOVER,Study1,U,71,30,Study,User,-,,Study/JOL,"Study Phase",646,,,-1,-1,,,,1
w10013263_wtm,olq996nes4,Relational_NO_JOL,1,47,2020-05-05T15:03:10-07:00,1.9394729137421,3,versionC_stim.csv,READVersionC.csv,"Read Version C","Relational, read only version C",RIDDLE,SUGAR,Study1,U,81,12,Study,User,-,,Study/JOL,"Study Phase",1727,,,-1,-1,,,,1
w10013263_wtm,olq996nes4,Relational_NO_JOL,1,48,2020-05-05T15:03:12-07:00,1.162052154541,3,versionC_stim.csv,READVersionC.csv,"Read Version C","Relational, read only version C",WORD,SENTENCE,Study1,F,31,55,Study,User,-,,Study/JOL,"Study Phase",945,,,-1,-1,,,,1
w10013263_wtm,olq996nes4,Relational_NO_JOL,1,49,2020-05-05T15:03:13-07:00,1.1794509887695,3,versionC_stim.csv,READVersionC.csv,"Read Version C","Relational, read only version C",BAR,GRILL,Study1,S,52,23,Study,User,-,,Study/JOL,"Study Phase",946,,,-1,-1,,,,1
w10013263_wtm,olq996nes4,Relational_NO_JOL,1,50,2020-05-05T15:03:15-07:00,2.0830588340759,3,versionC_stim.csv,READVersionC.csv,"Read Version C","Relational, read only version C",COW,HERD,Study1,B,22,57,Study,User,-,,Study/JOL,"Study Phase",1862,,,-1,-1,,,,1
w10013263_wtm,olq996nes4,Relational_NO_JOL,1,51,2020-05-05T15:03:17-07:00,2.0847101211548,3,versionC_stim.csv,READVersionC.csv,"Read Version C","Relational, read only version C",HUNGRY,PARK,Study1,U,68,10,Study,User,-,,Study/JOL,"Study Phase",1855,,,-1,-1,,,,1
w10013263_wtm,olq996nes4,Relational_NO_JOL,1,52,2020-05-05T15:03:32-07:00,14.650427103043,3,versionC_stim.csv,READVersionC.csv,"Read Version C","Relational, read only version C",DIVISION,MATH,Study1,F,33,83,Study,User,-,,Study/JOL,"Study Phase",14365,,,-1,-1,,,,1
w10013263_wtm,olq996nes4,Relational_NO_JOL,1,53,2020-05-05T15:03:32-07:00,0.53521084785461,3,versionC_stim.csv,READVersionC.csv,"Read Version C","Relational, read only version C",FAMINE,HUNGER,Study1,F,40,86,Study,User,-,,Study/JOL,"Study Phase",322,,,-1,-1,,,,1
w10013263_wtm,olq996nes4,Relational_NO_JOL,1,54,2020-05-05T15:03:33-07:00,0.44706296920776,3,versionC_stim.csv,READVersionC.csv,"Read Version C","Relational, read only version C",CARD,CREDIT,Study1,B,23,63,Study,User,-,,Study/JOL,"Study Phase",207,,,-1,-1,,,,1
w10013263_wtm,olq996nes4,Relational_NO_JOL,1,55,2020-05-05T15:03:33-07:00,0.40036916732788,3,versionC_stim.csv,READVersionC.csv,"Read Version C","Relational, read only version C",BRONZE,ARTERY,Study1,U,74,15,Study,User,-,,Study/JOL,"Study Phase",181,,,-1,-1,,,,1
w10013263_wtm,olq996nes4,Relational_NO_JOL,1,56,2020-05-05T15:03:33-07:00,0.43173289299011,3,versionC_stim.csv,READVersionC.csv,"Read Version C","Relational, read only version C",PLANT,ROOT,Study1,B,13,22,Study,User,-,,Study/JOL,"Study Phase",217,,,-1,-1,,,,1
w10013263_wtm,olq996nes4,Relational_NO_JOL,1,57,2020-05-05T15:03:34-07:00,0.72677302360535,3,versionC_stim.csv,READVersionC.csv,"Read Version C","Relational, read only version C",FLOWER,ORCHID,Study1,B,24,36,Study,User,-,,Study/JOL,"Study Phase",521,,,-1,-1,,,,1
w10013263_wtm,olq996nes4,Relational_NO_JOL,1,58,2020-05-05T15:03:36-07:00,1.7195239067078,3,versionC_stim.csv,READVersionC.csv,"Read Version C","Relational, read only version C",CLUTTER,PUSHER,Study1,U,66,49,Study,User,-,,Study/JOL,"Study Phase",1498,,,-1,-1,,,,1
w10013263_wtm,olq996nes4,Relational_NO_JOL,1,59,2020-05-05T15:03:36-07:00,0.50674819946289,3,versionC_stim.csv,READVersionC.csv,"Read Version C","Relational, read only version C",ROUND,CIRCLE,Study1,S,65,71,Study,User,-,,Study/JOL,"Study Phase",278,,,-1,-1,,,,1
w10013263_wtm,olq996nes4,Relational_NO_JOL,1,60,2020-05-05T15:03:37-07:00,0.46306896209717,3,versionC_stim.csv,READVersionC.csv,"Read Version C","Relational, read only version C",FOOT,SHOE,Study1,S,60,31,Study,User,-,,Study/JOL,"Study Phase",252,,,-1,-1,,,,1
w10013263_wtm,olq996nes4,Relational_NO_JOL,1,61,2020-05-05T15:03:37-07:00,0.3552188873291,3,versionC_stim.csv,READVersionC.csv,"Read Version C","Relational, read only version C",DEFINITION,MEANING,Study1,S,62,45,Study,User,-,,Study/JOL,"Study Phase",149,,,-1,-1,,,,1
w10013263_wtm,olq996nes4,Relational_NO_JOL,1,62,2020-05-05T15:03:37-07:00,0.31744599342346,3,versionC_stim.csv,READVersionC.csv,"Read Version C","Relational, read only version C",WAR,REVOLUTION,Study1,B,20,67,Study,User,-,,Study/JOL,"Study Phase",111,,,-1,-1,,,,1
w10013263_wtm,olq996nes4,Relational_NO_JOL,1,63,2020-05-05T15:03:38-07:00,0.37846302986145,3,versionC_stim.csv,READVersionC.csv,"Read Version C","Relational, read only version C",SIP,DRINK,Study1,F,27,7,Study,User,-,,Study/JOL,"Study Phase",152,,,-1,-1,,,,1
w10013263_wtm,olq996nes4,Relational_NO_JOL,1,64,2020-05-05T15:03:38-07:00,0.36024308204651,3,versionC_stim.csv,READVersionC.csv,"Read Version C","Relational, read only version C",SEIZE,TAKE,Study1,F,29,9,Study,User,-,,Study/JOL,"Study Phase",149,,,-1,-1,,,,1
w10013263_wtm,olq996nes4,Relational_NO_JOL,1,65,2020-05-05T15:03:39-07:00,0.32394886016846,3,versionC_stim.csv,READVersionC.csv,"Read Version C","Relational, read only version C",WATER,BRIDGE,Study1,B,18,50,Study,User,-,,Study/JOL,"Study Phase",108,,,-1,-1,,,,1
w10013263_wtm,olq996nes4,Relational_NO_JOL,1,66,2020-05-05T15:03:39-07:00,0.32564306259155,3,versionC_stim.csv,READVersionC.csv,"Read Version C","Relational, read only version C",WASTE,DUMP,Study1,S,49,39,Study,User,-,,Study/JOL,"Study Phase",113,,,-1,-1,,,,1
w10013263_wtm,olq996nes4,Relational_NO_JOL,1,67,2020-05-05T15:03:39-07:00,0.29480409622192,3,versionC_stim.csv,READVersionC.csv,"Read Version C","Relational, read only version C",BAD,DELINQUENT,Study1,B,6,26,Study,User,-,,Study/JOL,"Study Phase",89,,,-1,-1,,,,1
w10013263_wtm,olq996nes4,Relational_NO_JOL,1,68,2020-05-05T15:03:40-07:00,0.35134696960449,3,versionC_stim.csv,READVersionC.csv,"Read Version C","Relational, read only version C",STING,HORNET,Study1,B,11,74,Study,User,-,,Study/JOL,"Study Phase",133,,,-1,-1,,,,1
w10013263_wtm,olq996nes4,Relational_NO_JOL,1,69,2020-05-05T15:03:40-07:00,0.310222864151,3,versionC_stim.csv,READVersionC.csv,"Read Version C","Relational, read only version C",CHILD,BABY,Study1,S,64,84,Study,User,-,,Study/JOL,"Study Phase",96,,,-1,-1,,,,1
w10013263_wtm,olq996nes4,Relational_NO_JOL,1,70,2020-05-05T15:03:40-07:00,0.55321216583252,3,versionC_stim.csv,READVersionC.csv,"Read Version C","Relational, read only version C",BUSINESS,DEATH,Study1,U,72,54,Study,User,-,,Study/JOL,"Study Phase",342,,,-1,-1,,,,1
w10013263_wtm,olq996nes4,Relational_NO_JOL,1,71,2020-05-05T15:03:41-07:00,0.52171587944031,3,versionC_stim.csv,READVersionC.csv,"Read Version C","Relational, read only version C",STOMACH,DIGESTION,Study1,B,7,64,Study,User,-,,Study/JOL,"Study Phase",307,,,-1,-1,,,,1
w10013263_wtm,olq996nes4,Relational_NO_JOL,1,72,2020-05-05T15:03:42-07:00,0.79072904586792,3,versionC_stim.csv,READVersionC.csv,"Read Version C","Relational, read only version C",BIRD,SWAN,Study1,B,14,51,Study,User,-,,Study/JOL,"Study Phase",568,,,-1,-1,,,,1
w10013263_wtm,olq996nes4,Relational_NO_JOL,1,73,2020-05-05T15:03:43-07:00,0.9368200302124,3,versionC_stim.csv,READVersionC.csv,"Read Version C","Relational, read only version C",TALK,DISCUSSION,Study1,B,21,48,Study,User,-,,Study/JOL,"Study Phase",711,,,-1,-1,,,,1
w10013263_wtm,olq996nes4,Relational_NO_JOL,1,74,2020-05-05T15:03:43-07:00,0.78307700157166,3,versionC_stim.csv,READVersionC.csv,"Read Version C","Relational, read only version C",SICK,HIDE,Study1,U,84,28,Study,User,-,,Study/JOL,"Study Phase",572,,,-1,-1,,,,1
w10013263_wtm,olq996nes4,Relational_NO_JOL,1,75,2020-05-05T15:03:44-07:00,0.81082391738892,3,versionC_stim.csv,READVersionC.csv,"Read Version C","Relational, read only version C",DROWSY,SLEEP,Study1,F,41,25,Study,User,-,,Study/JOL,"Study Phase",606,,,-1,-1,,,,1
w10013263_wtm,olq996nes4,Relational_NO_JOL,1,76,2020-05-05T15:03:46-07:00,1.4707090854645,3,versionC_stim.csv,READVersionC.csv,"Read Version C","Relational, read only version C",GROWTH,HEIGHT,Study1,F,30,75,Study,User,-,,Study/JOL,"Study Phase",1261,,,-1,-1,,,,1
w10013263_wtm,olq996nes4,Relational_NO_JOL,1,77,2020-05-05T15:03:47-07:00,1.5922029018402,3,versionC_stim.csv,READVersionC.csv,"Read Version C","Relational, read only version C",CAR,HAPPY,Study1,U,77,21,Study,User,-,,Study/JOL,"Study Phase",1385,,,-1,-1,,,,1
w10013263_wtm,olq996nes4,Relational_NO_JOL,1,78,2020-05-05T15:03:51-07:00,3.9246909618378,3,versionC_stim.csv,READVersionC.csv,"Read Version C","Relational, read only version C",WASP,BUG,Study1,F,32,18,Study,User,-,,Study/JOL,"Study Phase",3709,,,-1,-1,,,,1
w10013263_wtm,olq996nes4,Relational_NO_JOL,1,79,2020-05-05T15:03:56-07:00,4.4588871002197,3,versionC_stim.csv,READVersionC.csv,"Read Version C","Relational, read only version C",FISH,TUNA,Study1,B,25,34,Study,User,-,,Study/JOL,"Study Phase",4237,,,-1,-1,,,,1
w10013263_wtm,olq996nes4,Relational_NO_JOL,1,80,2020-05-05T15:03:59-07:00,3.8229060173035,3,versionC_stim.csv,READVersionC.csv,"Read Version C","Relational, read only version C",COLD,BITTER,Study1,B,12,76,Study,User,-,,Study/JOL,"Study Phase",3593,,,-1,-1,,,,1
w10013263_wtm,olq996nes4,Relational_NO_JOL,1,81,2020-05-05T15:04:00-07:00,0.93955492973328,3,versionC_stim.csv,READVersionC.csv,"Read Version C","Relational, read only version C",VASE,KING,Study1,U,85,53,Study,User,-,,Study/JOL,"Study Phase",729,,,-1,-1,,,,1
w10013263_wtm,olq996nes4,Relational_NO_JOL,1,82,2020-05-05T15:04:02-07:00,1.4406111240387,3,versionC_stim.csv,READVersionC.csv,"Read Version C","Relational, read only version C",ACCIDENT,STRONG,Study1,U,80,52,Study,User,-,,Study/JOL,"Study Phase",1231,,,-1,-1,,,,1
w10013263_wtm,olq996nes4,Relational_NO_JOL,1,83,2020-05-05T15:04:03-07:00,1.3788800239563,3,versionC_stim.csv,READVersionC.csv,"Read Version C","Relational, read only version C",FANTASTIC,GREAT,Study1,F,35,24,Study,User,-,,Study/JOL,"Study Phase",1144,,,-1,-1,,,,1
w10013263_wtm,olq996nes4,Relational_NO_JOL,1,84,2020-05-05T15:04:08-07:00,4.7916059494019,3,versionC_stim.csv,READVersionC.csv,"Read Version C","Relational, read only version C",ROCK,GEOLOGY,Study1,B,19,79,Study,User,-,,Study/JOL,"Study Phase",4574,,,-1,-1,,,,1
w10013263_wtm,olq996nes4,Relational_NO_JOL,1,85,2020-05-05T15:04:12-07:00,3.8051309585571,3,versionC_stim.csv,READVersionC.csv,"Read Version C","Relational, read only version C",ATTIRE,CLOTHES,Study1,F,43,68,Study,User,-,,Study/JOL,"Study Phase",3575,,,-1,-1,,,,1
w10013263_wtm,olq996nes4,Relational_NO_JOL,1,86,2020-05-05T15:04:19-07:00,7.4431149959564,3,versionC_stim.csv,READVersionC.csv,"Read Version C","Relational, read only version C",AMOUNT,NUMBER,Study1,S,47,29,Study,User,-,,Study/JOL,"Study Phase",7228,,,-1,-1,,,,1
w10013263_wtm,olq996nes4,Relational_NO_JOL,1,87,2020-05-05T15:04:22-07:00,2.6906969547272,3,versionC_stim.csv,READVersionC.csv,"Read Version C","Relational, read only version C",CHORE,WORK,Study1,F,39,80,Study,User,-,,Study/JOL,"Study Phase",2474,,,-1,-1,,,,1
w10013263_wtm,olq996nes4,Relational_NO_JOL,1,88,2020-05-05T15:04:23-07:00,0.8665189743042,3,versionC_stim.csv,READVersionC.csv,"Read Version C","Relational, read only version C",CAVE,DARK,Study1,F,28,85,Study,User,-,,Study/JOL,"Study Phase",628,,,-1,-1,,,,1
w10013263_wtm,olq996nes4,Relational_NO_JOL,1,89,2020-05-05T15:04:24-07:00,1.1733331680298,3,versionC_stim.csv,READVersionC.csv,"Read Version C","Relational, read only version C",BEE,HONEY,Study1,S,63,17,Study,User,-,,Study/JOL,"Study Phase",956,,,-1,-1,,,,1
w10013263_wtm,olq996nes4,Relational_NO_JOL,1,90,2020-05-05T15:04:28-07:00,4.3751919269562,3,versionC_stim.csv,READVersionC.csv,"Read Version C","Relational, read only version C",CLEAN,HYGIENE,Study1,B,17,20,Study,User,-,,Study/JOL,"Study Phase",4155,,,-1,-1,,,,1
w10013263_wtm,olq996nes4,Relational_NO_JOL,1,91,2020-05-05T15:04:51-07:00,22.422683954239,3,versionC_stim.csv,READVersionC.csv,"Read Version C","Relational, read only version C",GOOSE,GEESE,BUFFER2,Buffer,86,91,Study,User,-,,Study/JOL,BUFFER2,22132,,,-1,-1,,,,1
w10013263_wtm,olq996nes4,Relational_NO_JOL,1,92,2020-05-05T15:04:52-07:00,0.92121601104736,3,versionC_stim.csv,READVersionC.csv,"Read Version C","Relational, read only version C",CHOCOLATE,MALT,BUFFER2,Buffer,88,88,Study,User,-,,Study/JOL,BUFFER2,690,,,-1,-1,,,,1
w10013263_wtm,olq996nes4,Relational_NO_JOL,1,93,2020-05-05T15:04:52-07:00,0.59256291389465,3,versionC_stim.csv,READVersionC.csv,"Read Version C","Relational, read only version C",STUFF,THING,BUFFER2,Buffer,90,87,Study,User,-,,Study/JOL,BUFFER2,368,,,-1,-1,,,,1
w10013263_wtm,olq996nes4,Relational_NO_JOL,1,94,2020-05-05T15:04:53-07:00,0.55028414726257,3,versionC_stim.csv,READVersionC.csv,"Read Version C","Relational, read only version C",SPACE,MOON,BUFFER2,Buffer,89,90,Study,User,-,,Study/JOL,BUFFER2,311,,,-1,-1,,,,1
w10013263_wtm,olq996nes4,Relational_NO_JOL,1,95,2020-05-05T15:04:53-07:00,0.52648901939392,3,versionC_stim.csv,READVersionC.csv,"Read Version C","Relational, read only version C",POLICE,SHERRIF,BUFFER2,Buffer,87,89,Study,User,-,,Study/JOL,BUFFER2,317,,,-1,-1,,,,1
w10013263_wtm,olq996nes4,Relational_NO_JOL,1,96,2020-05-05T15:04:55-07:00,1.9405360221863,3,versionC_stim.csv,READVersionC.csv,"Read Version C","Relational, read only version C",,,,,,0,Instruct,User,-,"You have completed this section. Please press Enter.",Filler_Instruction,Instruct2,1727,,,-1,-1,,,,1
w10013263_wtm,olq996nes4,Relational_NO_JOL,1,97,2020-05-05T15:04:57-07:00,1.9285168647766,3,versionC_stim.csv,READVersionC.csv,"Read Version C","Relational, read only version C",,,,,,0,Instruct,User,-,"You have completed this section. Please press Enter.",Filler_Instruction,Instruct5,1727,,,-1,-1,,,,1
w10013263_wtm,olq996nes4,Relational_NO_JOL,1,98,2020-05-05T15:05:32-07:00,34.493531942368,3,versionC_stim.csv,READVersionC.csv,"Read Version C","Relational, read only version C",,,,,,0,FreeRecall,-,10,"What were you supposed to focus on while you studied each pair? (Hint: Think back to the instructions). Type your answer in the space below.",,CHECK3,34213,"how concepts are related such as a cat and turtle being an alive, animal, kept as pets.",0,5104,32993,0,0,,1
w10013263_wtm,olq996nes4,Relational_NO_JOL,1,99,2020-05-05T15:07:32-07:00,120.34644198418,3,versionC_stim.csv,READVersionC.csv,"Read Version C","Relational, read only version C",,,,,,0,FreeRecall,120,120,"Please list the 50 US states in alphabetical order. The task will automatically advance to the next screen after two minutes.",,Filler1,120003,"Alaska, Connecticut, North Carolina, South Carolina, Georgia, Illinois, Kansas, Louisiana, M",0,8394,118149,0,0,,0.984
w10013263_wtm,olq996nes4,Relational_NO_JOL,1,100,2020-05-05T15:07:43-07:00,10.719164133072,3,versionC_stim.csv,READVersionC.csv,"Read Version C","Relational, read only version C",,,,,,0,Instruct,-,10,"You will now be presented with the first word from each of the previously studied item pairs. Please type the missing word. If you do not know the word, you may guess or press Enter to skip forward to the next pair.",,Instruct3,10416,,,-1,-1,,,,1
w10013263_wtm,olq996nes4,Relational_NO_JOL,1,101,2020-05-05T15:07:46-07:00,2.9304120540619,3,versionC_stim.csv,READVersionC.csv,"Read Version C","Relational, read only version C",SACKING,DIETARY,Study1,U,67,47,Test,User,-,,Recall,Recall1,2684,,0,-1,-1,0,0,,1
w10013263_wtm,olq996nes4,Relational_NO_JOL,1,102,2020-05-05T15:07:50-07:00,3.7684299945831,3,versionC_stim.csv,READVersionC.csv,"Read Version C","Relational, read only version C",ATTORNEY,LAW,Study1,F,34,73,Test,User,-,,Recall,Recall1,3525,Judge,0,2030,2531,0,0,,1
w10013263_wtm,olq996nes4,Relational_NO_JOL,1,103,2020-05-05T15:07:52-07:00,2.8979909420013,3,versionC_stim.csv,READVersionC.csv,"Read Version C","Relational, read only version C",TOILET,BATHROOM,Study1,S,58,77,Test,User,-,,Recall,Recall1,2657,Bowl,33.333333333333,1095,1587,0,0,,1
w10013263_wtm,olq996nes4,Relational_NO_JOL,1,104,2020-05-05T15:07:56-07:00,3.7073409557343,3,versionC_stim.csv,READVersionC.csv,"Read Version C","Relational, read only version C",SODA,POP,Study1,S,56,8,Test,User,-,,Recall,Recall1,3490,Pop,100,2273,2511,1,1,,1
w10013263_wtm,olq996nes4,Relational_NO_JOL,1,105,2020-05-05T15:08:00-07:00,4.060986995697,3,versionC_stim.csv,READVersionC.csv,"Read Version C","Relational, read only version C",HAND,FIX,Study1,U,75,16,Test,User,-,,Recall,Recall1,3827,Finger,44.444444444444,1619,2799,0,0,,1
w10013263_wtm,olq996nes4,Relational_NO_JOL,1,106,2020-05-05T15:08:03-07:00,3.2899470329285,3,versionC_stim.csv,READVersionC.csv,"Read Version C","Relational, read only version C",MONEY,WAGE,Study1,B,8,65,Test,User,-,,Recall,Recall1,3066,Wage,100,1813,2264,1,1,,1
w10013263_wtm,olq996nes4,Relational_NO_JOL,1,107,2020-05-05T15:08:07-07:00,3.0717248916626,3,versionC_stim.csv,READVersionC.csv,"Read Version C","Relational, read only version C",CLEAN,HYGIENE,Study1,B,17,20,Test,User,-,,Recall,Recall1,2845,Dirty,16.666666666667,1153,1714,0,0,,1
w10013263_wtm,olq996nes4,Relational_NO_JOL,1,108,2020-05-05T15:08:09-07:00,2.7309591770172,3,versionC_stim.csv,READVersionC.csv,"Read Version C","Relational, read only version C",CAVE,DARK,Study1,F,28,85,Test,User,-,,Recall,Recall1,2510,Dark,100,1030,1294,1,1,,1
w10013263_wtm,olq996nes4,Relational_NO_JOL,1,109,2020-05-05T15:08:12-07:00,3.0881388187408,3,versionC_stim.csv,READVersionC.csv,"Read Version C","Relational, read only version C",BLAZE,FIRE,Study1,F,45,40,Test,User,-,,Recall,Recall1,2863,Fire,100,1080,1980,1,1,,1
w10013263_wtm,olq996nes4,Relational_NO_JOL,1,110,2020-05-05T15:08:18-07:00,5.2215549945831,3,versionC_stim.csv,READVersionC.csv,"Read Version C","Relational, read only version C",HUNGRY,PARK,Study1,U,68,10,Test,User,-,,Recall,Recall1,4982,Food,0,1022,3888,0,0,,1
w10013263_wtm,olq996nes4,Relational_NO_JOL,1,111,2020-05-05T15:08:27-07:00,9.0872201919556,3,versionC_stim.csv,READVersionC.csv,"Read Version C","Relational, read only version C",BUSINESS,DEATH,Study1,U,72,54,Test,User,-,,Recall,Recall1,8869,Money,20,4066,7874,0,0,,1
w10013263_wtm,olq996nes4,Relational_NO_JOL,1,112,2020-05-05T15:08:32-07:00,5.5033240318298,3,versionC_stim.csv,READVersionC.csv,"Read Version C","Relational, read only version C",LIVER,KIDNEY,Study1,S,53,38,Test,User,-,,Recall,Recall1,5265,Organ,18.181818181818,1363,4627,0,0,,1
w10013263_wtm,olq996nes4,Relational_NO_JOL,1,113,2020-05-05T15:08:36-07:00,3.4395668506622,3,versionC_stim.csv,READVersionC.csv,"Read Version C","Relational, read only version C",LION,ART,Study1,U,79,66,Test,User,-,,Recall,Recall1,3210,Art,100,1418,1797,1,1,,1
w10013263_wtm,olq996nes4,Relational_NO_JOL,1,114,2020-05-05T15:08:38-07:00,2.6932880878448,3,versionC_stim.csv,READVersionC.csv,"Read Version C","Relational, read only version C",CHILI,HOT,Study1,F,37,70,Test,User,-,,Recall,Recall1,2469,Food,28.571428571429,1255,1562,0,0,,1
w10013263_wtm,olq996nes4,Relational_NO_JOL,1,115,2020-05-05T15:08:41-07:00,2.530415058136,3,versionC_stim.csv,READVersionC.csv,"Read Version C","Relational, read only version C",ASSIGNMENT,DUE,Study1,S,46,81,Test,User,-,,Recall,Recall1,2305,Due,100,1117,1370,1,1,,1
w10013263_wtm,olq996nes4,Relational_NO_JOL,1,116,2020-05-05T15:08:45-07:00,3.755735874176,3,versionC_stim.csv,READVersionC.csv,"Read Version C","Relational, read only version C",WORD,SENTENCE,Study1,F,31,55,Test,User,-,,Recall,Recall1,3525,Letters,40,2016,2697,0,0,,1
w10013263_wtm,olq996nes4,Relational_NO_JOL,1,117,2020-05-05T15:08:48-07:00,3.4317440986633,3,versionC_stim.csv,READVersionC.csv,"Read Version C","Relational, read only version C",DROWSY,SLEEP,Study1,F,41,25,Test,User,-,,Recall,Recall1,3196,Tired,20,1100,2433,0,0,,1
w10013263_wtm,olq996nes4,Relational_NO_JOL,1,118,2020-05-05T15:08:51-07:00,2.5943849086761,3,versionC_stim.csv,READVersionC.csv,"Read Version C","Relational, read only version C",WASP,BUG,Study1,F,32,18,Test,User,-,,Recall,Recall1,2354,Bug,100,1025,1257,1,1,,1
w10013263_wtm,olq996nes4,Relational_NO_JOL,1,119,2020-05-05T15:08:53-07:00,2.2830710411072,3,versionC_stim.csv,READVersionC.csv,"Read Version C","Relational, read only version C",COLD,BITTER,Study1,B,12,76,Test,User,-,,Recall,Recall1,2066,HOT,22.222222222222,1058,1381,0,0,,1
w10013263_wtm,olq996nes4,Relational_NO_JOL,1,120,2020-05-05T15:08:56-07:00,2.9049530029297,3,versionC_stim.csv,READVersionC.csv,"Read Version C","Relational, read only version C",PILOT,PLANE,Study1,F,44,33,Test,User,-,,Recall,Recall1,2677,PLANE,100,1239,1705,1,1,,1
w10013263_wtm,olq996nes4,Relational_NO_JOL,1,121,2020-05-05T15:08:59-07:00,2.8488209247589,3,versionC_stim.csv,READVersionC.csv,"Read Version C","Relational, read only version C",DIVISION,MATH,Study1,F,33,83,Test,User,-,,Recall,Recall1,2626,END,0,1576,1770,0,0,,1
w10013263_wtm,olq996nes4,Relational_NO_JOL,1,122,2020-05-05T15:09:02-07:00,3.3217630386353,3,versionC_stim.csv,READVersionC.csv,"Read Version C","Relational, read only version C",LATCH,KEY,Study1,F,36,32,Test,User,-,,Recall,Recall1,3101,KEY,100,1636,1843,1,1,,1
w10013263_wtm,olq996nes4,Relational_NO_JOL,1,123,2020-05-05T15:09:04-07:00,2.3179531097412,3,versionC_stim.csv,READVersionC.csv,"Read Version C","Relational, read only version C",BAD,DELINQUENT,Study1,B,6,26,Test,User,-,,Recall,Recall1,2083,GOOD,14.285714285714,1005,1277,0,0,,1
w10013263_wtm,olq996nes4,Relational_NO_JOL,1,124,2020-05-05T15:09:18-07:00,14.162125825882,3,versionC_stim.csv,READVersionC.csv,"Read Version C","Relational, read only version C",BELT,SOON,Study1,U,70,11,Test,User,-,,Recall,Recall1,13867,BUCKLE,0,12180,12881,0,0,,1
w10013263_wtm,olq996nes4,Relational_NO_JOL,1,125,2020-05-05T15:09:25-07:00,6.8044340610504,3,versionC_stim.csv,READVersionC.csv,"Read Version C","Relational, read only version C",FAMINE,HUNGER,Study1,F,40,86,Test,User,-,,Recall,Recall1,6577,DISEASE,15.384615384615,3395,5492,0,0,,1
w10013263_wtm,olq996nes4,Relational_NO_JOL,1,126,2020-05-05T15:09:29-07:00,3.6639261245728,3,versionC_stim.csv,READVersionC.csv,"Read Version C","Relational, read only version C",POSITION,MACHINE,Study1,U,76,56,Test,User,-,,Recall,Recall1,3433,FRONT,16.666666666667,2225,2609,0,0,,1
w10013263_wtm,olq996nes4,Relational_NO_JOL,1,127,2020-05-05T15:09:38-07:00,9.4174499511719,3,versionC_stim.csv,READVersionC.csv,"Read Version C","Relational, read only version C",FLOWER,ORCHID,Study1,B,24,36,Test,User,-,,Recall,Recall1,9197,BEAUTY,0,6465,8241,0,0,,1
w10013263_wtm,olq996nes4,Relational_NO_JOL,1,128,2020-05-05T15:09:42-07:00,3.8936879634857,3,versionC_stim.csv,READVersionC.csv,"Read Version C","Relational, read only version C",BEE,HONEY,Study1,S,63,17,Test,User,-,,Recall,Recall1,3673,HIVE,44.444444444444,1531,2666,0,0,,1
w10013263_wtm,olq996nes4,Relational_NO_JOL,1,129,2020-05-05T15:09:45-07:00,3.1351690292358,3,versionC_stim.csv,READVersionC.csv,"Read Version C","Relational, read only version C",WOMAN,LIFT,Study1,U,69,42,Test,User,-,,Recall,Recall1,2924,MAN,0,1686,1834,0,0,,1
w10013263_wtm,olq996nes4,Relational_NO_JOL,1,130,2020-05-05T15:09:48-07:00,2.2474360466003,3,versionC_stim.csv,READVersionC.csv,"Read Version C","Relational, read only version C",FUTURE,PAST,Study1,S,61,58,Test,User,-,,Recall,Recall1,2023,PAST,100,1089,1591,1,1,,1
w10013263_wtm,olq996nes4,Relational_NO_JOL,1,131,2020-05-05T15:09:52-07:00,4.0806238651276,3,versionC_stim.csv,READVersionC.csv,"Read Version C","Relational, read only version C",CLUTTER,PUSHER,Study1,U,66,49,Test,User,-,,Recall,Recall1,3832,GROUP,18.181818181818,2216,2651,0,0,,1
w10013263_wtm,olq996nes4,Relational_NO_JOL,1,132,2020-05-05T15:09:56-07:00,4.1360459327698,3,versionC_stim.csv,READVersionC.csv,"Read Version C","Relational, read only version C",SICK,HIDE,Study1,U,84,28,Test,User,-,,Recall,Recall1,3911,COLD,25,2184,2568,0,0,,0.8
w10013263_wtm,olq996nes4,Relational_NO_JOL,1,133,2020-05-05T15:10:00-07:00,3.908271074295,3,versionC_stim.csv,READVersionC.csv,"Read Version C","Relational, read only version C",WASTE,DUMP,Study1,S,49,39,Test,User,-,,Recall,Recall1,3690,TRASH,0,2023,2628,0,0,,1
w10013263_wtm,olq996nes4,Relational_NO_JOL,1,134,2020-05-05T15:10:04-07:00,4.2818081378937,3,versionC_stim.csv,READVersionC.csv,"Read Version C","Relational, read only version C",STING,HORNET,Study1,B,11,74,Test,User,-,,Recall,Recall1,4053,BUG,0,1817,2031,0,0,,1
w10013263_wtm,olq996nes4,Relational_NO_JOL,1,135,2020-05-05T15:10:09-07:00,4.5616707801819,3,versionC_stim.csv,READVersionC.csv,"Read Version C","Relational, read only version C",STENCH,SMELL,Study1,F,42,69,Test,User,-,,Recall,Recall1,4338,SMELL,100,1743,2158,1,1,,1
w10013263_wtm,olq996nes4,Relational_NO_JOL,1,136,2020-05-05T15:10:11-07:00,2.6386551856995,3,versionC_stim.csv,READVersionC.csv,"Read Version C","Relational, read only version C",STOMACH,DIGESTION,Study1,B,7,64,Test,User,-,,Recall,Recall1,2417,ACHE,15.384615384615,1033,1476,0,0,,1
w10013263_wtm,olq996nes4,Relational_NO_JOL,1,137,2020-05-05T15:10:15-07:00,4.1059849262238,3,versionC_stim.csv,READVersionC.csv,"Read Version C","Relational, read only version C",VASE,KING,Study1,U,85,53,Test,User,-,,Recall,Recall1,3886,GLASS,22.222222222222,1792,2386,0,0,,1
w10013263_wtm,olq996nes4,Relational_NO_JOL,1,138,2020-05-05T15:10:20-07:00,4.1815209388733,3,versionC_stim.csv,READVersionC.csv,"Read Version C","Relational, read only version C",CARD,CREDIT,Study1,B,23,63,Test,User,-,,Recall,Recall1,3944,DELT,40,2504,2915,0,0,,1
w10013263_wtm,olq996nes4,Relational_NO_JOL,1,139,2020-05-05T15:10:23-07:00,3.2571980953217,3,versionC_stim.csv,READVersionC.csv,"Read Version C","Relational, read only version C",BRONZE,ARTERY,Study1,U,74,15,Test,User,-,,Recall,Recall1,3034,GOLD,0,1321,1971,0,0,,1
w10013263_wtm,olq996nes4,Relational_NO_JOL,1,140,2020-05-05T15:10:27-07:00,3.8486559391022,3,versionC_stim.csv,READVersionC.csv,"Read Version C","Relational, read only version C",ACCIDENT,STRONG,Study1,U,80,52,Test,User,-,,Recall,Recall1,3616,CRASH,18.181818181818,1697,2431,0,0,,1
w10013263_wtm,olq996nes4,Relational_NO_JOL,1,141,2020-05-05T15:10:31-07:00,4.2704949378967,3,versionC_stim.csv,READVersionC.csv,"Read Version C","Relational, read only version C",OUT,WAY,Study1,B,16,41,Test,User,-,,Recall,Recall1,4039,FRONT,0,1756,2921,0,0,,1
w10013263_wtm,olq996nes4,Relational_NO_JOL,1,142,2020-05-05T15:10:35-07:00,3.7253589630127,3,versionC_stim.csv,READVersionC.csv,"Read Version C","Relational, read only version C",FOOT,SHOE,Study1,S,60,31,Test,User,-,,Recall,Recall1,3497,TOE,57.142857142857,2308,2474,0,0,,1
w10013263_wtm,olq996nes4,Relational_NO_JOL,1,143,2020-05-05T15:10:39-07:00,4.2482151985168,3,versionC_stim.csv,READVersionC.csv,"Read Version C","Relational, read only version C",BIRD,SWAN,Study1,B,14,51,Test,User,-,,Recall,Recall1,4026,NEST,25,2506,3410,0,0,,1
w10013263_wtm,olq996nes4,Relational_NO_JOL,1,144,2020-05-05T15:10:42-07:00,3.2270300388336,3,versionC_stim.csv,READVersionC.csv,"Read Version C","Relational, read only version C",GROWTH,HEIGHT,Study1,F,30,75,Test,User,-,,Recall,Recall1,3010,HEIGHT,100,1520,2074,1,1,,1
w10013263_wtm,olq996nes4,Relational_NO_JOL,1,145,2020-05-05T15:10:45-07:00,2.7791447639465,3,versionC_stim.csv,READVersionC.csv,"Read Version C","Relational, read only version C",DOG,PAW,Study1,B,15,44,Test,User,-,,Recall,Recall1,2547,CAT,33.333333333333,1342,1629,0,0,,1
w10013263_wtm,olq996nes4,Relational_NO_JOL,1,146,2020-05-05T15:10:52-07:00,7.349710226059,3,versionC_stim.csv,READVersionC.csv,"Read Version C","Relational, read only version C",FANTASTIC,GREAT,Study1,F,35,24,Test,User,-,,Recall,Recall1,7124,GOOD,22.222222222222,5985,6280,0,0,,1
w10013263_wtm,olq996nes4,Relational_NO_JOL,1,147,2020-05-05T15:10:56-07:00,3.894868850708,3,versionC_stim.csv,READVersionC.csv,"Read Version C","Relational, read only version C",ROUND,CIRCLE,Study1,S,65,71,Test,User,-,,Recall,Recall1,3670,SHARP,18.181818181818,1584,2772,0,0,,1
w10013263_wtm,olq996nes4,Relational_NO_JOL,1,148,2020-05-05T15:11:03-07:00,6.5587830543518,3,versionC_stim.csv,READVersionC.csv,"Read Version C","Relational, read only version C",ENOUGH,FULL,Study1,F,26,37,Test,User,-,,Recall,Recall1,6330,FULL,100,5128,5347,1,1,,1
w10013263_wtm,olq996nes4,Relational_NO_JOL,1,149,2020-05-05T15:11:07-07:00,4.1136269569397,3,versionC_stim.csv,READVersionC.csv,"Read Version C","Relational, read only version C",DESIGN,ARCHITECTURE,Study1,S,51,78,Test,User,-,,Recall,Recall1,3893,ARCHITECTURE,100,1195,2982,1,1,,1
w10013263_wtm,olq996nes4,Relational_NO_JOL,1,150,2020-05-05T15:11:12-07:00,4.7485871315002,3,versionC_stim.csv,READVersionC.csv,"Read Version C","Relational, read only version C",FISH,TUNA,Study1,B,25,34,Test,User,-,,Recall,Recall1,4522,BOWL,0,3243,3559,0,0,,1
w10013263_wtm,olq996nes4,Relational_NO_JOL,1,151,2020-05-05T15:11:16-07:00,4.7560069561005,3,versionC_stim.csv,READVersionC.csv,"Read Version C","Relational, read only version C",TUCK,ALLOW,Study1,U,78,35,Test,User,-,,Recall,Recall1,4528,IN,0,3472,3538,0,0,,1
w10013263_wtm,olq996nes4,Relational_NO_JOL,1,152,2020-05-05T15:11:21-07:00,4.8403279781342,3,versionC_stim.csv,READVersionC.csv,"Read Version C","Relational, read only version C",NEWS,EDITOR,Study1,B,10,62,Test,User,-,,Recall,Recall1,4608,PAPER,36.363636363636,1436,3755,0,0,,1
w10013263_wtm,olq996nes4,Relational_NO_JOL,1,153,2020-05-05T15:11:25-07:00,4.080992937088,3,versionC_stim.csv,READVersionC.csv,"Read Version C","Relational, read only version C",HAMMER,CHISEL,Study1,B,9,72,Test,User,-,,Recall,Recall1,3843,CHISEL,100,1421,2310,1,1,,1
w10013263_wtm,olq996nes4,Relational_NO_JOL,1,154,2020-05-05T15:11:35-07:00,9.3783779144287,3,versionC_stim.csv,READVersionC.csv,"Read Version C","Relational, read only version C",AMOUNT,NUMBER,Study1,S,47,29,Test,User,-,,Recall,Recall1,9158,BALANCE,30.769230769231,5357,8277,0,0,,1
w10013263_wtm,olq996nes4,Relational_NO_JOL,1,155,2020-05-05T15:11:44-07:00,9.5472340583801,3,versionC_stim.csv,READVersionC.csv,"Read Version C","Relational, read only version C",COW,HERD,Study1,B,22,57,Test,User,-,,Recall,Recall1,9324,HERD,100,4740,6790,1,1,,1
w10013263_wtm,olq996nes4,Relational_NO_JOL,1,156,2020-05-05T15:11:57-07:00,12.477041006088,3,versionC_stim.csv,READVersionC.csv,"Read Version C","Relational, read only version C",END,BEGIN,Study1,S,54,14,Test,User,-,,Recall,Recall1,12165,BEGINNING,71.428571428571,1133,10938,0,0,,1
w10013263_wtm,olq996nes4,Relational_NO_JOL,1,157,2020-05-05T15:12:00-07:00,3.5072169303894,3,versionC_stim.csv,READVersionC.csv,"Read Version C","Relational, read only version C",CHILD,BABY,Study1,S,64,84,Test,User,-,,Recall,Recall1,3236,PARENT,20,1691,2185,0,0,,1
w10013263_wtm,olq996nes4,Relational_NO_JOL,1,158,2020-05-05T15:12:09-07:00,8.4502370357513,3,versionC_stim.csv,READVersionC.csv,"Read Version C","Relational, read only version C",SIP,DRINK,Study1,F,27,7,Test,User,-,,Recall,Recall1,8205,DRINK,100,2662,7076,1,1,,1
w10013263_wtm,olq996nes4,Relational_NO_JOL,1,159,2020-05-05T15:12:13-07:00,4.3810791969299,3,versionC_stim.csv,READVersionC.csv,"Read Version C","Relational, read only version C",CHORE,WORK,Study1,F,39,80,Test,User,-,,Recall,Recall1,4161,WORK,100,2521,2825,1,1,,1
w10013263_wtm,olq996nes4,Relational_NO_JOL,1,160,2020-05-05T15:12:20-07:00,7.2897889614105,3,versionC_stim.csv,READVersionC.csv,"Read Version C","Relational, read only version C",CHEESE,WINE,Study1,S,57,27,Test,User,-,,Recall,Recall1,7069,FOOD,0,4991,5401,0,0,,1
w10013263_wtm,olq996nes4,Relational_NO_JOL,1,161,2020-05-05T15:12:30-07:00,9.4243679046631,3,versionC_stim.csv,READVersionC.csv,"Read Version C","Relational, read only version C",JURY,TRIAL,Study1,S,50,82,Test,User,-,,Recall,Recall1,8179,JUDGE,0,5481,6235,0,0,,1
w10013263_wtm,olq996nes4,Relational_NO_JOL,1,162,2020-05-05T15:12:34-07:00,4.4980609416962,3,versionC_stim.csv,READVersionC.csv,"Read Version C","Relational, read only version C",TALK,DISCUSSION,Study1,B,21,48,Test,User,-,,Recall,Recall1,4240,SPEAK,13.333333333333,2094,2777,0,0,,1
w10013263_wtm,olq996nes4,Relational_NO_JOL,1,163,2020-05-05T15:12:50-07:00,15.343006134033,3,versionC_stim.csv,READVersionC.csv,"Read Version C","Relational, read only version C",PLANT,ROOT,Study1,B,13,22,Test,User,-,,Recall,Recall1,15039,POT,57.142857142857,13666,14200,0,0,,1
w10013263_wtm,olq996nes4,Relational_NO_JOL,1,164,2020-05-05T15:12:54-07:00,4.1179790496826,3,versionC_stim.csv,READVersionC.csv,"Read Version C","Relational, read only version C",ATTIRE,CLOTHES,Study1,F,43,68,Test,User,-,,Recall,Recall1,3887,CLOTHES,100,2204,2914,1,1,,1
w10013263_wtm,olq996nes4,Relational_NO_JOL,1,165,2020-05-05T15:13:01-07:00,7.0269508361816,3,versionC_stim.csv,READVersionC.csv,"Read Version C","Relational, read only version C",WOULD,CASH,Study1,U,83,46,Test,User,-,,Recall,Recall1,6802,SHOULD,40,5265,5796,0,0,,1
w10013263_wtm,olq996nes4,Relational_NO_JOL,1,166,2020-05-05T15:13:04-07:00,3.4643111228943,3,versionC_stim.csv,READVersionC.csv,"Read Version C","Relational, read only version C",SALAD,LETTUCE,Study1,S,59,59,Test,User,-,,Recall,Recall1,3235,LETTUCE,100,1638,2397,1,1,,1
w10013263_wtm,olq996nes4,Relational_NO_JOL,1,167,2020-05-05T15:13:08-07:00,3.6812100410461,3,versionC_stim.csv,READVersionC.csv,"Read Version C","Relational, read only version C",WIND,BLOW,Study1,S,55,60,Test,User,-,,Recall,Recall1,3442,BLOW,100,2241,2658,1,1,,1
w10013263_wtm,olq996nes4,Relational_NO_JOL,1,168,2020-05-05T15:13:11-07:00,3.6374349594116,3,versionC_stim.csv,READVersionC.csv,"Read Version C","Relational, read only version C",SEIZE,TAKE,Study1,F,29,9,Test,User,-,,Recall,Recall1,3414,CONTROL,18.181818181818,1593,2242,0,0,,1
w10013263_wtm,olq996nes4,Relational_NO_JOL,1,169,2020-05-05T15:13:14-07:00,2.6322050094604,3,versionC_stim.csv,READVersionC.csv,"Read Version C","Relational, read only version C",ROCK,GEOLOGY,Study1,B,19,79,Test,User,-,,Recall,Recall1,2409,PAPER,16.666666666667,1158,1530,0,0,,1
w10013263_wtm,olq996nes4,Relational_NO_JOL,1,170,2020-05-05T15:13:41-07:00,27.091996908188,3,versionC_stim.csv,READVersionC.csv,"Read Version C","Relational, read only version C",WATER,BRIDGE,Study1,B,18,50,Test,User,-,,Recall,Recall1,26789,BOTTLE,33.333333333333,24998,25547,0,0,,0.925
w10013263_wtm,olq996nes4,Relational_NO_JOL,1,171,2020-05-05T15:13:45-07:00,3.9642789363861,3,versionC_stim.csv,READVersionC.csv,"Read Version C","Relational, read only version C",DEFINITION,MEANING,Study1,S,62,45,Test,User,-,,Recall,Recall1,3742,ANSWER,30.769230769231,1826,2687,0,0,,1
w10013263_wtm,olq996nes4,Relational_NO_JOL,1,172,2020-05-05T15:13:50-07:00,4.6425960063934,3,versionC_stim.csv,READVersionC.csv,"Read Version C","Relational, read only version C",CAR,HAPPY,Study1,U,77,21,Test,User,-,,Recall,Recall1,3415,DRIVE,0,2145,2596,0,0,,1
w10013263_wtm,olq996nes4,Relational_NO_JOL,1,173,2020-05-05T15:13:55-07:00,5.5916621685028,3,versionC_stim.csv,READVersionC.csv,"Read Version C","Relational, read only version C",ADD,VALLEY,Study1,U,82,61,Test,User,-,,Recall,Recall1,4259,SUBTRACT,14.285714285714,1484,3283,0,0,,1
w10013263_wtm,olq996nes4,Relational_NO_JOL,1,174,2020-05-05T15:13:59-07:00,3.64848279953,3,versionC_stim.csv,READVersionC.csv,"Read Version C","Relational, read only version C",SIGHT,DEBATE,Study1,U,73,43,Test,User,-,,Recall,Recall1,3413,GLASSES,30.769230769231,1485,2500,0,0,,1
w10013263_wtm,olq996nes4,Relational_NO_JOL,1,175,2020-05-05T15:14:05-07:00,5.4878032207489,3,versionC_stim.csv,READVersionC.csv,"Read Version C","Relational, read only version C",WAR,REVOLUTION,Study1,B,20,67,Test,User,-,,Recall,Recall1,5253,VICTOR,37.5,2312,4218,0,0,,1
w10013263_wtm,olq996nes4,Relational_NO_JOL,1,176,2020-05-05T15:14:08-07:00,3.5649938583374,3,versionC_stim.csv,READVersionC.csv,"Read Version C","Relational, read only version C",BAR,GRILL,Study1,S,52,23,Test,User,-,,Recall,Recall1,3341,GRILL,100,1703,2318,1,1,,1
w10013263_wtm,olq996nes4,Relational_NO_JOL,1,177,2020-05-05T15:14:11-07:00,3.0955879688263,3,versionC_stim.csv,READVersionC.csv,"Read Version C","Relational, read only version C",RACKET,BALL,Study1,F,38,13,Test,User,-,,Recall,Recall1,2871,BALL,100,1134,1485,1,1,,1
w10013263_wtm,olq996nes4,Relational_NO_JOL,1,178,2020-05-05T15:14:16-07:00,4.7564091682434,3,versionC_stim.csv,READVersionC.csv,"Read Version C","Relational, read only version C",FLOOR,DISCOVER,Study1,U,71,30,Test,User,-,,Recall,Recall1,4518,HOME,33.333333333333,3245,3465,0,0,,1
w10013263_wtm,olq996nes4,Relational_NO_JOL,1,179,2020-05-05T15:14:20-07:00,4.0441689491272,3,versionC_stim.csv,READVersionC.csv,"Read Version C","Relational, read only version C",RIDDLE,SUGAR,Study1,U,81,12,Test,User,-,,Recall,Recall1,3798,QUESTION,15.384615384615,1690,2311,0,0,,1
w10013263_wtm,olq996nes4,Relational_NO_JOL,1,180,2020-05-05T15:14:33-07:00,13.120471000671,3,versionC_stim.csv,READVersionC.csv,"Read Version C","Relational, read only version C",SITE,LOCATION,Study1,S,48,19,Test,User,-,,Recall,Recall1,12824,LOCATION,100,4468,11693,1,1,,1
w10013263_wtm,olq996nes4,Relational_NO_JOL,1,181,2020-05-05T15:14:52-07:00,18.46541595459,3,versionC_stim.csv,READVersionC.csv,"Read Version C","Relational, read only version C",,,,,,0,Instruct,,10,"You will now be presented with a new set of word pairs. Please study each pair. Remember that your memory will be tested! When finished, press Enter to move to the next pair.",Initial_Instruct,Instruct4,18182,,,-1,-1,,,,0.044
w10013263_wtm,olq996nes4,Relational_NO_JOL,1,182,2020-05-05T15:15:08-07:00,16.53924202919,3,versionC_stim.csv,READVersionC.csv,"Read Version C","Relational, read only version C",,,,,,0,Instruct,-,15,"As you study, please think about how the two concepts are RELATED to each other. For example, if you see the pair TURTLE-CAT, think about how both are alive, they are both animals, and both can be kept as pets.",,Instruct20,16226,,,-1,-1,,,,1
w10013263_wtm,olq996nes4,Relational_NO_JOL,1,183,2020-05-05T15:15:36-07:00,28.247573852539,3,versionC_stim.csv,READVersionC.csv,"Read Version C","Relational, read only version C",,,,,,0,FreeRecall,-,10,"What you should think about as you study each item pair? Type your response in the box below.",,CHECK4,27954,"How concepts are related such as a cat and turtle being alive, animals, that can be kept as pets.",0,7099,27125,0,0,,1
w10013263_wtm,olq996nes4,Relational_NO_JOL,1,184,2020-05-05T15:15:39-07:00,2.2321209907532,3,versionC_stim.csv,READVersionC.csv,"Read Version C","Relational, read only version C",,,,,,0,Instruct,User,-,"Press Enter when you are readty to begin",,Instruct11,1995,,,-1,-1,,,,1
w10013263_wtm,olq996nes4,Relational_NO_JOL,1,185,2020-05-05T15:15:40-07:00,1.2450110912323,3,versionC_stim.csv,READVersionC.csv,"Read Version C","Relational, read only version C",ADVENTURE,CAMP,BUFFER3,Buffer,95,93,Study,User,-,,Study/JOL,BUFFER3,1026,,,-1,-1,,,,1
w10013263_wtm,olq996nes4,Relational_NO_JOL,1,186,2020-05-05T15:15:41-07:00,1.118989944458,3,versionC_stim.csv,READVersionC.csv,"Read Version C","Relational, read only version C",FROZEN,ICE,BUFFER3,Buffer,94,96,Study,User,-,,Study/JOL,BUFFER3,875,,,-1,-1,,,,1
w10013263_wtm,olq996nes4,Relational_NO_JOL,1,187,2020-05-05T15:15:42-07:00,1.2016429901123,3,versionC_stim.csv,READVersionC.csv,"Read Version C","Relational, read only version C",POTATO,CARROT,BUFFER3,Buffer,91,95,Study,User,-,,Study/JOL,BUFFER3,978,,,-1,-1,,,,1
w10013263_wtm,olq996nes4,Relational_NO_JOL,1,188,2020-05-05T15:15:43-07:00,1.2776651382446,3,versionC_stim.csv,READVersionC.csv,"Read Version C","Relational, read only version C",STRING,NOODLE,BUFFER3,Buffer,92,94,Study,User,-,,Study/JOL,BUFFER3,1049,,,-1,-1,,,,1
w10013263_wtm,olq996nes4,Relational_NO_JOL,1,189,2020-05-05T15:15:46-07:00,3.0064489841461,3,versionC_stim.csv,READVersionC.csv,"Read Version C","Relational, read only version C",FISH,SHRIMP,BUFFER3,Buffer,93,92,Study,User,-,,Study/JOL,BUFFER3,2755,,,-1,-1,,,,1
w10013263_wtm,olq996nes4,Relational_NO_JOL,1,190,2020-05-05T15:15:49-07:00,2.4326870441437,3,versionC_stim.csv,READVersionC.csv,"Read Version C","Relational, read only version C",NOISE,LOUD,Study2,S,152,133,Study,User,-,,Study/JOL,"Study Phase2",2196,,,-1,-1,,,,1
w10013263_wtm,olq996nes4,Relational_NO_JOL,1,191,2020-05-05T15:15:50-07:00,1.41477394104,3,versionC_stim.csv,READVersionC.csv,"Read Version C","Relational, read only version C",SMELL,INCENSE,Study2,B,110,118,Study,User,-,,Study/JOL,"Study Phase2",1176,,,-1,-1,,,,1
w10013263_wtm,olq996nes4,Relational_NO_JOL,1,192,2020-05-05T15:15:53-07:00,2.2691030502319,3,versionC_stim.csv,READVersionC.csv,"Read Version C","Relational, read only version C",JOKE,KEYS,Study2,U,165,142,Study,User,-,,Study/JOL,"Study Phase2",2040,,,-1,-1,,,,1
w10013263_wtm,olq996nes4,Relational_NO_JOL,1,193,2020-05-05T15:15:56-07:00,3.0746159553528,3,versionC_stim.csv,READVersionC.csv,"Read Version C","Relational, read only version C",GAME,CLUE,Study2,B,97,148,Study,User,-,,Study/JOL,"Study Phase2",2834,,,-1,-1,,,,1
w10013263_wtm,olq996nes4,Relational_NO_JOL,1,194,2020-05-05T15:16:04-07:00,8.1144289970398,3,versionC_stim.csv,READVersionC.csv,"Read Version C","Relational, read only version C",CHILDREN,MIRROR,Study2,U,174,172,Study,User,-,,Study/JOL,"Study Phase2",7889,,,-1,-1,,,,1
w10013263_wtm,olq996nes4,Relational_NO_JOL,1,195,2020-05-05T15:16:34-07:00,30.199720859528,3,versionC_stim.csv,READVersionC.csv,"Read Version C","Relational, read only version C",SCISSORS,SHEARS,Study2,B,112,117,Study,User,-,,Study/JOL,"Study Phase2",29899,,,-1,-1,,,,1
w10013263_wtm,olq996nes4,Relational_NO_JOL,1,196,2020-05-05T15:16:38-07:00,4.4062452316284,3,versionC_stim.csv,READVersionC.csv,"Read Version C","Relational, read only version C",LOVE,AFFECTION,Study2,B,115,168,Study,User,-,,Study/JOL,"Study Phase2",4155,,,-1,-1,,,,1
w10013263_wtm,olq996nes4,Relational_NO_JOL,1,197,2020-05-05T15:16:39-07:00,0.85571789741516,3,versionC_stim.csv,READVersionC.csv,"Read Version C","Relational, read only version C",COMMUNICATION,PHONE,Study2,S,149,129,Study,User,-,,Study/JOL,"Study Phase2",637,,,-1,-1,,,,1
w10013263_wtm,olq996nes4,Relational_NO_JOL,1,198,2020-05-05T15:16:40-07:00,0.67394089698792,3,versionC_stim.csv,READVersionC.csv,"Read Version C","Relational, read only version C",OBTAIN,MEAT,Study2,U,161,140,Study,User,-,,Study/JOL,"Study Phase2",456,,,-1,-1,,,,1
w10013263_wtm,olq996nes4,Relational_NO_JOL,1,199,2020-05-05T15:16:43-07:00,3.6014971733093,3,versionC_stim.csv,READVersionC.csv,"Read Version C","Relational, read only version C",SHAKE,Shell,Study2,U,163,153,Study,User,-,,Study/JOL,"Study Phase2",3372,,,-1,-1,,,,1
w10013263_wtm,olq996nes4,Relational_NO_JOL,1,200,2020-05-05T15:16:55-07:00,11.832566022873,3,versionC_stim.csv,READVersionC.csv,"Read Version C","Relational, read only version C",DOG,FURRY,Study2,B,102,155,Study,User,-,,Study/JOL,"Study Phase2",11536,,,-1,-1,,,,1
w10013263_wtm,olq996nes4,Relational_NO_JOL,1,201,2020-05-05T15:16:56-07:00,0.9868049621582,3,versionC_stim.csv,READVersionC.csv,"Read Version C","Relational, read only version C",BALLOON,POP,Study2,F,123,121,Study,User,-,,Study/JOL,"Study Phase2",752,,,-1,-1,,,,1
w10013263_wtm,olq996nes4,Relational_NO_JOL,1,202,2020-05-05T15:16:57-07:00,1.1212239265442,3,versionC_stim.csv,READVersionC.csv,"Read Version C","Relational, read only version C",CLOTH,STRETCH,Study2,U,157,171,Study,User,-,,Study/JOL,"Study Phase2",877,,,-1,-1,,,,1
w10013263_wtm,olq996nes4,Relational_NO_JOL,1,203,2020-05-05T15:16:58-07:00,0.90069103240967,3,versionC_stim.csv,READVersionC.csv,"Read Version C","Relational, read only version C",LONG,EXTENSION,Study2,B,96,165,Study,User,-,,Study/JOL,"Study Phase2",680,,,-1,-1,,,,1
w10013263_wtm,olq996nes4,Relational_NO_JOL,1,204,2020-05-05T15:17:00-07:00,1.382472038269,3,versionC_stim.csv,READVersionC.csv,"Read Version C","Relational, read only version C",CLOTHES,CAKE,Study2,U,166,158,Study,User,-,,Study/JOL,"Study Phase2",1161,,,-1,-1,,,,1
w10013263_wtm,olq996nes4,Relational_NO_JOL,1,205,2020-05-05T15:17:01-07:00,1.5613808631897,3,versionC_stim.csv,READVersionC.csv,"Read Version C","Relational, read only version C",BRAWL,FIGHT,Study2,F,135,163,Study,User,-,,Study/JOL,"Study Phase2",1333,,,-1,-1,,,,1
w10013263_wtm,olq996nes4,Relational_NO_JOL,1,206,2020-05-05T15:17:02-07:00,1.1673631668091,3,versionC_stim.csv,READVersionC.csv,"Read Version C","Relational, read only version C",FIGHT,FEUD,Study2,B,113,176,Study,User,-,,Study/JOL,"Study Phase2",931,,,-1,-1,,,,1
w10013263_wtm,olq996nes4,Relational_NO_JOL,1,207,2020-05-05T15:17:04-07:00,1.7976880073547,3,versionC_stim.csv,READVersionC.csv,"Read Version C","Relational, read only version C",Morning,TEMPERATURE,Study2,U,173,137,Study,User,-,,Study/JOL,"Study Phase2",1576,,,-1,-1,,,,1
w10013263_wtm,olq996nes4,Relational_NO_JOL,1,208,2020-05-05T15:17:05-07:00,1.0144917964935,3,versionC_stim.csv,READVersionC.csv,"Read Version C","Relational, read only version C",NAP,SLEEP,Study2,F,134,147,Study,User,-,,Study/JOL,"Study Phase2",770,,,-1,-1,,,,1
w10013263_wtm,olq996nes4,Relational_NO_JOL,1,209,2020-05-05T15:17:08-07:00,2.355907201767,3,versionC_stim.csv,READVersionC.csv,"Read Version C","Relational, read only version C",SARDINE,FISH,Study2,F,130,135,Study,User,-,,Study/JOL,"Study Phase2",2047,,,-1,-1,,,,1
w10013263_wtm,olq996nes4,Relational_NO_JOL,1,210,2020-05-05T15:17:08-07:00,0.63817596435547,3,versionC_stim.csv,READVersionC.csv,"Read Version C","Relational, read only version C",GROUND,EARTH,Study2,S,144,164,Study,User,-,,Study/JOL,"Study Phase2",401,,,-1,-1,,,,1
w10013263_wtm,olq996nes4,Relational_NO_JOL,1,211,2020-05-05T15:17:09-07:00,0.92543196678162,3,versionC_stim.csv,READVersionC.csv,"Read Version C","Relational, read only version C",FICTION,LISTEN,Study2,U,164,152,Study,User,-,,Study/JOL,"Study Phase2",702,,,-1,-1,,,,1
w10013263_wtm,olq996nes4,Relational_NO_JOL,1,212,2020-05-05T15:17:10-07:00,1.2354469299316,3,versionC_stim.csv,READVersionC.csv,"Read Version C","Relational, read only version C",PAPER,DOCUMENT,Study2,B,109,128,Study,User,-,,Study/JOL,"Study Phase2",989,,,-1,-1,,,,1
w10013263_wtm,olq996nes4,Relational_NO_JOL,1,213,2020-05-05T15:17:11-07:00,0.88188314437866,3,versionC_stim.csv,READVersionC.csv,"Read Version C","Relational, read only version C",CARBON,ELEMENT,Study2,S,141,131,Study,User,-,,Study/JOL,"Study Phase2",667,,,-1,-1,,,,1
w10013263_wtm,olq996nes4,Relational_NO_JOL,1,214,2020-05-05T15:17:12-07:00,0.71038389205933,3,versionC_stim.csv,READVersionC.csv,"Read Version C","Relational, read only version C",OUNCE,BOTH,Study2,U,172,159,Study,User,-,,Study/JOL,"Study Phase2",465,,,-1,-1,,,,1
w10013263_wtm,olq996nes4,Relational_NO_JOL,1,215,2020-05-05T15:17:14-07:00,2.0968160629272,3,versionC_stim.csv,READVersionC.csv,"Read Version C","Relational, read only version C",THIMBLE,THREAD,Study2,F,121,114,Study,User,-,,Study/JOL,"Study Phase2",1873,,,-1,-1,,,,1
w10013263_wtm,olq996nes4,Relational_NO_JOL,1,216,2020-05-05T15:17:15-07:00,0.88948202133179,3,versionC_stim.csv,READVersionC.csv,"Read Version C","Relational, read only version C",COFFIN,DEAD,Study2,F,128,149,Study,User,-,,Study/JOL,"Study Phase2",656,,,-1,-1,,,,1
w10013263_wtm,olq996nes4,Relational_NO_JOL,1,217,2020-05-05T15:17:16-07:00,1.0670719146729,3,versionC_stim.csv,READVersionC.csv,"Read Version C","Relational, read only version C",WET,DRY,Study2,S,146,97,Study,User,-,,Study/JOL,"Study Phase2",846,,,-1,-1,,,,1
w10013263_wtm,olq996nes4,Relational_NO_JOL,1,218,2020-05-05T15:17:17-07:00,1.0348200798035,3,versionC_stim.csv,READVersionC.csv,"Read Version C","Relational, read only version C",CHARM,VEHICLE,Study2,U,160,126,Study,User,-,,Study/JOL,"Study Phase2",809,,,-1,-1,,,,1
w10013263_wtm,olq996nes4,Relational_NO_JOL,1,219,2020-05-05T15:17:19-07:00,1.5163888931274,3,versionC_stim.csv,READVersionC.csv,"Read Version C","Relational, read only version C",ACTRESS,STAR,Study2,F,120,136,Study,User,-,,Study/JOL,"Study Phase2",1288,,,-1,-1,,,,1
w10013263_wtm,olq996nes4,Relational_NO_JOL,1,220,2020-05-05T15:17:20-07:00,1.3398640155792,3,versionC_stim.csv,READVersionC.csv,"Read Version C","Relational, read only version C",ABLE,CRACKLE,Study2,U,162,105,Study,User,-,,Study/JOL,"Study Phase2",1114,,,-1,-1,,,,1
w10013263_wtm,olq996nes4,Relational_NO_JOL,1,221,2020-05-05T15:17:21-07:00,0.81787204742432,3,versionC_stim.csv,READVersionC.csv,"Read Version C","Relational, read only version C",TOIL,LEASE,Study2,U,170,130,Study,User,-,,Study/JOL,"Study Phase2",594,,,-1,-1,,,,1
w10013263_wtm,olq996nes4,Relational_NO_JOL,1,222,2020-05-05T15:17:22-07:00,1.2248110771179,3,versionC_stim.csv,READVersionC.csv,"Read Version C","Relational, read only version C",BANG,FUZZY,Study2,U,168,161,Study,User,-,,Study/JOL,"Study Phase2",996,,,-1,-1,,,,1
w10013263_wtm,olq996nes4,Relational_NO_JOL,1,223,2020-05-05T15:17:23-07:00,1.2730538845062,3,versionC_stim.csv,READVersionC.csv,"Read Version C","Relational, read only version C",FLIP,TURN,Study2,F,116,113,Study,User,-,,Study/JOL,"Study Phase2",1049,,,-1,-1,,,,1
w10013263_wtm,olq996nes4,Relational_NO_JOL,1,224,2020-05-05T15:17:27-07:00,3.9425230026245,3,versionC_stim.csv,READVersionC.csv,"Read Version C","Relational, read only version C",,,,,,0,Instruct,-,3,"Remember to focus on how the two items are similiar while you study!",,CHECK5,3713,,,-1,-1,,,,1
w10013263_wtm,olq996nes4,Relational_NO_JOL,1,225,2020-05-05T15:17:28-07:00,0.66274905204773,3,versionC_stim.csv,READVersionC.csv,"Read Version C","Relational, read only version C",BREAKABLE,GLASS,Study2,F,127,112,Study,User,-,,Study/JOL,"Study Phase2",441,,,-1,-1,,,,1
w10013263_wtm,olq996nes4,Relational_NO_JOL,1,226,2020-05-05T15:17:28-07:00,0.50114893913269,3,versionC_stim.csv,READVersionC.csv,"Read Version C","Relational, read only version C",FAVORITE,BEST,Study2,F,125,119,Study,User,-,,Study/JOL,"Study Phase2",282,,,-1,-1,,,,1
w10013263_wtm,olq996nes4,Relational_NO_JOL,1,227,2020-05-05T15:17:29-07:00,0.45299601554871,3,versionC_stim.csv,READVersionC.csv,"Read Version C","Relational, read only version C",JAR,MASON,Study2,S,138,162,Study,User,-,,Study/JOL,"Study Phase2",236,,,-1,-1,,,,1
w10013263_wtm,olq996nes4,Relational_NO_JOL,1,228,2020-05-05T15:17:29-07:00,0.4107038974762,3,versionC_stim.csv,READVersionC.csv,"Read Version C","Relational, read only version C",HAVE,OWN,Study2,S,153,127,Study,User,-,,Study/JOL,"Study Phase2",189,,,-1,-1,,,,1
w10013263_wtm,olq996nes4,Relational_NO_JOL,1,229,2020-05-05T15:17:30-07:00,0.38617205619812,3,versionC_stim.csv,READVersionC.csv,"Read Version C","Relational, read only version C",WINDSHIELD,CAR,Study2,F,117,110,Study,User,-,,Study/JOL,"Study Phase2",161,,,-1,-1,,,,1
w10013263_wtm,olq996nes4,Relational_NO_JOL,1,230,2020-05-05T15:17:30-07:00,0.4193959236145,3,versionC_stim.csv,READVersionC.csv,"Read Version C","Relational, read only version C",TEMPER,TANTRUM,Study2,S,154,143,Study,User,-,,Study/JOL,"Study Phase2",174,,,-1,-1,,,,1
w10013263_wtm,olq996nes4,Relational_NO_JOL,1,231,2020-05-05T15:17:30-07:00,0.45063614845276,3,versionC_stim.csv,READVersionC.csv,"Read Version C","Relational, read only version C",REEL,ROD,Study2,S,150,167,Study,User,-,,Study/JOL,"Study Phase2",228,,,-1,-1,,,,1
w10013263_wtm,olq996nes4,Relational_NO_JOL,1,232,2020-05-05T15:17:31-07:00,0.84634494781494,3,versionC_stim.csv,READVersionC.csv,"Read Version C","Relational, read only version C",TRASH,LITTER,Study2,B,103,100,Study,User,-,,Study/JOL,"Study Phase2",624,,,-1,-1,,,,1
w10013263_wtm,olq996nes4,Relational_NO_JOL,1,233,2020-05-05T15:17:32-07:00,0.78521013259888,3,versionC_stim.csv,READVersionC.csv,"Read Version C","Relational, read only version C",REVENGE,EVEN,Study2,F,122,104,Study,User,-,,Study/JOL,"Study Phase2",560,,,-1,-1,,,,1
w10013263_wtm,olq996nes4,Relational_NO_JOL,1,234,2020-05-05T15:17:33-07:00,0.79179096221924,3,versionC_stim.csv,READVersionC.csv,"Read Version C","Relational, read only version C",AWAY,GONE,Study2,S,142,108,Study,User,-,,Study/JOL,"Study Phase2",552,,,-1,-1,,,,1
w10013263_wtm,olq996nes4,Relational_NO_JOL,1,235,2020-05-05T15:17:34-07:00,0.75017881393433,3,versionC_stim.csv,READVersionC.csv,"Read Version C","Relational, read only version C",TICK,FLEA,Study2,S,151,146,Study,User,-,,Study/JOL,"Study Phase2",505,,,-1,-1,,,,1
w10013263_wtm,olq996nes4,Relational_NO_JOL,1,236,2020-05-05T15:17:34-07:00,0.79270315170288,3,versionC_stim.csv,READVersionC.csv,"Read Version C","Relational, read only version C",WAX,CANDLE,Study2,S,139,106,Study,User,-,,Study/JOL,"Study Phase2",573,,,-1,-1,,,,1
w10013263_wtm,olq996nes4,Relational_NO_JOL,1,237,2020-05-05T15:17:35-07:00,0.77668285369873,3,versionC_stim.csv,READVersionC.csv,"Read Version C","Relational, read only version C",LEAGUE,BASEBALL,Study2,F,131,139,Study,User,-,,Study/JOL,"Study Phase2",535,,,-1,-1,,,,1
w10013263_wtm,olq996nes4,Relational_NO_JOL,1,238,2020-05-05T15:17:36-07:00,1.218316078186,3,versionC_stim.csv,READVersionC.csv,"Read Version C","Relational, read only version C",END,ADJOURN,Study2,B,101,101,Study,User,-,,Study/JOL,"Study Phase2",977,,,-1,-1,,,,1
w10013263_wtm,olq996nes4,Relational_NO_JOL,1,239,2020-05-05T15:17:37-07:00,0.89984893798828,3,versionC_stim.csv,READVersionC.csv,"Read Version C","Relational, read only version C",SCAR,MAIN,Study2,U,175,132,Study,User,-,,Study/JOL,"Study Phase2",673,,,-1,-1,,,,1
w10013263_wtm,olq996nes4,Relational_NO_JOL,1,240,2020-05-05T15:17:39-07:00,1.561240196228,3,versionC_stim.csv,READVersionC.csv,"Read Version C","Relational, read only version C",PANTHER,CAT,Study2,F,126,166,Study,User,-,,Study/JOL,"Study Phase2",1342,,,-1,-1,,,,1
w10013263_wtm,olq996nes4,Relational_NO_JOL,1,241,2020-05-05T15:17:40-07:00,0.70091986656189,3,versionC_stim.csv,READVersionC.csv,"Read Version C","Relational, read only version C",ELECTION,MAZE,Study2,U,159,145,Study,User,-,,Study/JOL,"Study Phase2",476,,,-1,-1,,,,1
w10013263_wtm,olq996nes4,Relational_NO_JOL,1,242,2020-05-05T15:17:44-07:00,4.4447410106659,3,versionC_stim.csv,READVersionC.csv,"Read Version C","Relational, read only version C",AIRCRAFT,PLANE,Study2,F,129,173,Study,User,-,,Study/JOL,"Study Phase2",4203,,,-1,-1,,,,1
w10013263_wtm,olq996nes4,Relational_NO_JOL,1,243,2020-05-05T15:17:45-07:00,1.1875801086426,3,versionC_stim.csv,READVersionC.csv,"Read Version C","Relational, read only version C",STRAWBERRY,FRUIT,Study2,F,124,154,Study,User,-,,Study/JOL,"Study Phase2",951,,,-1,-1,,,,1
w10013263_wtm,olq996nes4,Relational_NO_JOL,1,244,2020-05-05T15:17:46-07:00,0.95104598999023,3,versionC_stim.csv,READVersionC.csv,"Read Version C","Relational, read only version C",TAN,SUN,Study2,S,155,99,Study,User,-,,Study/JOL,"Study Phase2",719,,,-1,-1,,,,1
w10013263_wtm,olq996nes4,Relational_NO_JOL,1,245,2020-05-05T15:17:48-07:00,1.4855298995972,3,versionC_stim.csv,READVersionC.csv,"Read Version C","Relational, read only version C",RED,CHERRY,Study2,B,104,103,Study,User,-,,Study/JOL,"Study Phase2",1251,,,-1,-1,,,,1
w10013263_wtm,olq996nes4,Relational_NO_JOL,1,246,2020-05-05T15:17:49-07:00,0.91591095924377,3,versionC_stim.csv,READVersionC.csv,"Read Version C","Relational, read only version C",CUT,CHOP,Study2,B,107,160,Study,User,-,,Study/JOL,"Study Phase2",649,,,-1,-1,,,,1
w10013263_wtm,olq996nes4,Relational_NO_JOL,1,247,2020-05-05T15:17:51-07:00,2.5195591449738,3,versionC_stim.csv,READVersionC.csv,"Read Version C","Relational, read only version C",COLD,CHILL,Study2,B,114,120,Study,User,-,,Study/JOL,"Study Phase2",2293,,,-1,-1,,,,1
w10013263_wtm,olq996nes4,Relational_NO_JOL,1,248,2020-05-05T15:17:52-07:00,1.2357280254364,3,versionC_stim.csv,READVersionC.csv,"Read Version C","Relational, read only version C",CAR,DRIVER,Study2,B,106,111,Study,User,-,,Study/JOL,"Study Phase2",984,,,-1,-1,,,,1
w10013263_wtm,olq996nes4,Relational_NO_JOL,1,249,2020-05-05T15:18:05-07:00,12.399317979813,3,versionC_stim.csv,READVersionC.csv,"Read Version C","Relational, read only version C",BRACELET,WRIST,Study2,S,140,156,Study,User,-,,Study/JOL,"Study Phase2",12105,,,-1,-1,,,,1
w10013263_wtm,olq996nes4,Relational_NO_JOL,1,250,2020-05-05T15:18:07-07:00,1.8208849430084,3,versionC_stim.csv,READVersionC.csv,"Read Version C","Relational, read only version C",BANKER,MONEY,Study2,F,132,141,Study,User,-,,Study/JOL,"Study Phase2",1587,,,-1,-1,,,,1
w10013263_wtm,olq996nes4,Relational_NO_JOL,1,251,2020-05-05T15:18:09-07:00,1.9591519832611,3,versionC_stim.csv,READVersionC.csv,"Read Version C","Relational, read only version C",MYSTERY,DETECTIVE,Study2,B,100,125,Study,User,-,,Study/JOL,"Study Phase2",1740,,,-1,-1,,,,1
w10013263_wtm,olq996nes4,Relational_NO_JOL,1,252,2020-05-05T15:18:10-07:00,1.507688999176,3,versionC_stim.csv,READVersionC.csv,"Read Version C","Relational, read only version C",DONKEY,MULE,Study2,B,108,170,Study,User,-,,Study/JOL,"Study Phase2",1273,,,-1,-1,,,,1
w10013263_wtm,olq996nes4,Relational_NO_JOL,1,253,2020-05-05T15:18:11-07:00,1.3530020713806,3,versionC_stim.csv,READVersionC.csv,"Read Version C","Relational, read only version C",PENGUIN,BIRD,Study2,F,119,102,Study,User,-,,Study/JOL,"Study Phase2",1127,,,-1,-1,,,,1
w10013263_wtm,olq996nes4,Relational_NO_JOL,1,254,2020-05-05T15:18:12-07:00,1.090950012207,3,versionC_stim.csv,READVersionC.csv,"Read Version C","Relational, read only version C",SIGN,LOAN,Study2,U,171,107,Study,User,-,,Study/JOL,"Study Phase2",865,,,-1,-1,,,,1
w10013263_wtm,olq996nes4,Relational_NO_JOL,1,255,2020-05-05T15:18:14-07:00,1.1674327850342,3,versionC_stim.csv,READVersionC.csv,"Read Version C","Relational, read only version C",LIE,TRUTH,Study2,S,148,123,Study,User,-,,Study/JOL,"Study Phase2",948,,,-1,-1,,,,1
w10013263_wtm,olq996nes4,Relational_NO_JOL,1,256,2020-05-05T15:18:14-07:00,0.75742506980896,3,versionC_stim.csv,READVersionC.csv,"Read Version C","Relational, read only version C",HEAD,SCALP,Study2,B,105,174,Study,User,-,,Study/JOL,"Study Phase2",531,,,-1,-1,,,,1
w10013263_wtm,olq996nes4,Relational_NO_JOL,1,257,2020-05-05T15:18:15-07:00,0.86283206939697,3,versionC_stim.csv,READVersionC.csv,"Read Version C","Relational, read only version C",CLEAR,MOAT,Study2,U,169,115,Study,User,-,,Study/JOL,"Study Phase2",625,,,-1,-1,,,,1
w10013263_wtm,olq996nes4,Relational_NO_JOL,1,258,2020-05-05T15:18:16-07:00,0.8883330821991,3,versionC_stim.csv,READVersionC.csv,"Read Version C","Relational, read only version C",SHAVE,RAZOR,Study2,S,136,157,Study,User,-,,Study/JOL,"Study Phase2",666,,,-1,-1,,,,1
w10013263_wtm,olq996nes4,Relational_NO_JOL,1,259,2020-05-05T15:18:17-07:00,0.86196088790894,3,versionC_stim.csv,READVersionC.csv,"Read Version C","Relational, read only version C",VILLAIN,BAD,Study2,F,118,150,Study,User,-,,Study/JOL,"Study Phase2",636,,,-1,-1,,,,1
w10013263_wtm,olq996nes4,Relational_NO_JOL,1,260,2020-05-05T15:18:33-07:00,15.71632194519,3,versionC_stim.csv,READVersionC.csv,"Read Version C","Relational, read only version C",TIE,SHOELACE,Study2,B,99,116,Study,User,-,,Study/JOL,"Study Phase2",15422,,,-1,-1,,,,1
w10013263_wtm,olq996nes4,Relational_NO_JOL,1,261,2020-05-05T15:18:33-07:00,0.74788212776184,3,versionC_stim.csv,READVersionC.csv,"Read Version C","Relational, read only version C",EQUAL,RIGHTS,Study2,S,137,98,Study,User,-,,Study/JOL,"Study Phase2",513,,,-1,-1,,,,1
w10013263_wtm,olq996nes4,Relational_NO_JOL,1,262,2020-05-05T15:18:34-07:00,0.50641798973083,3,versionC_stim.csv,READVersionC.csv,"Read Version C","Relational, read only version C",SEATBELT,SAFETY,Study2,S,147,151,Study,User,-,,Study/JOL,"Study Phase2",284,,,-1,-1,,,,1
w10013263_wtm,olq996nes4,Relational_NO_JOL,1,263,2020-05-05T15:18:34-07:00,0.45887899398804,3,versionC_stim.csv,READVersionC.csv,"Read Version C","Relational, read only version C",TRUTHFUL,HONEST,Study2,F,133,144,Study,User,-,,Study/JOL,"Study Phase2",213,,,-1,-1,,,,1
w10013263_wtm,olq996nes4,Relational_NO_JOL,1,264,2020-05-05T15:18:36-07:00,1.1948349475861,3,versionC_stim.csv,READVersionC.csv,"Read Version C","Relational, read only version C",DRINK,WATER,Study2,S,143,169,Study,User,-,,Study/JOL,"Study Phase2",941,,,-1,-1,,,,1
w10013263_wtm,olq996nes4,Relational_NO_JOL,1,265,2020-05-05T15:18:38-07:00,2.4068880081177,3,versionC_stim.csv,READVersionC.csv,"Read Version C","Relational, read only version C",STEAK,GIVE,Study2,U,158,124,Study,User,-,,Study/JOL,"Study Phase2",2173,,,-1,-1,,,,0.545
w10013263_wtm,olq996nes4,Relational_NO_JOL,1,266,2020-05-05T15:18:38-07:00,0.43413305282593,3,versionC_stim.csv,READVersionC.csv,"Read Version C","Relational, read only version C",LONELY,ALONE,Study2,S,145,122,Study,User,-,,Study/JOL,"Study Phase2",205,,,-1,-1,,,,1
w10013263_wtm,olq996nes4,Relational_NO_JOL,1,267,2020-05-05T15:18:39-07:00,0.40588998794556,3,versionC_stim.csv,READVersionC.csv,"Read Version C","Relational, read only version C",MAROON,JUSTICE,Study2,U,156,134,Study,User,-,,Study/JOL,"Study Phase2",166,,,-1,-1,,,,1
w10013263_wtm,olq996nes4,Relational_NO_JOL,1,268,2020-05-05T15:18:39-07:00,0.51787400245667,3,versionC_stim.csv,READVersionC.csv,"Read Version C","Relational, read only version C",HATE,NAME,Study2,U,167,138,Study,User,-,,Study/JOL,"Study Phase2",282,,,-1,-1,,,,1
w10013263_wtm,olq996nes4,Relational_NO_JOL,1,269,2020-05-05T15:18:41-07:00,1.1267218589783,3,versionC_stim.csv,READVersionC.csv,"Read Version C","Relational, read only version C",EAT,DINE,Study2,B,111,109,Study,User,-,,Study/JOL,"Study Phase2",908,,,-1,-1,,,,1
w10013263_wtm,olq996nes4,Relational_NO_JOL,1,270,2020-05-05T15:18:41-07:00,0.4615421295166,3,versionC_stim.csv,READVersionC.csv,"Read Version C","Relational, read only version C",PLANT,CACTUS,Study2,B,98,175,Study,User,-,,Study/JOL,"Study Phase2",233,,,-1,-1,,,,1
w10013263_wtm,olq996nes4,Relational_NO_JOL,1,271,2020-05-05T15:18:41-07:00,0.45279598236084,3,versionC_stim.csv,READVersionC.csv,"Read Version C","Relational, read only version C",SPOOKY,OCTOBER,BUFFER4,Buffer,180,178,Study,User,-,,Study/JOL,BUFFER4,191,,,-1,-1,,,,1
w10013263_wtm,olq996nes4,Relational_NO_JOL,1,272,2020-05-05T15:18:42-07:00,0.4281599521637,3,versionC_stim.csv,READVersionC.csv,"Read Version C","Relational, read only version C",YEAR,MONTH,BUFFER4,Buffer,177,180,Study,User,-,,Study/JOL,BUFFER4,196,,,-1,-1,,,,1
w10013263_wtm,olq996nes4,Relational_NO_JOL,1,273,2020-05-05T15:18:42-07:00,0.42730903625488,3,versionC_stim.csv,READVersionC.csv,"Read Version C","Relational, read only version C",WEAKS,DAYS,BUFFER4,Buffer,176,177,Study,User,-,,Study/JOL,BUFFER4,204,,,-1,-1,,,,1
w10013263_wtm,olq996nes4,Relational_NO_JOL,1,274,2020-05-05T15:18:43-07:00,0.45033693313599,3,versionC_stim.csv,READVersionC.csv,"Read Version C","Relational, read only version C",MARCH,SPRING,BUFFER4,Buffer,179,179,Study,User,-,,Study/JOL,BUFFER4,199,,,-1,-1,,,,1
w10013263_wtm,olq996nes4,Relational_NO_JOL,1,275,2020-05-05T15:18:43-07:00,0.41164898872375,3,versionC_stim.csv,READVersionC.csv,"Read Version C","Relational, read only version C",SHED,TOOL,BUFFER4,Buffer,178,181,Study,User,-,,Study/JOL,BUFFER4,185,,,-1,-1,,,,1
w10013263_wtm,olq996nes4,Relational_NO_JOL,1,276,2020-05-05T15:18:49-07:00,6.1813521385193,3,versionC_stim.csv,READVersionC.csv,"Read Version C","Relational, read only version C",,,,,,0,Instruct,User,-,"You have completed this section. Please press Enter.",Filler_Instruction,Instruct5,5863,,,-1,-1,,,,1
w10013263_wtm,olq996nes4,Relational_NO_JOL,1,277,2020-05-05T15:19:03-07:00,13.620649814606,3,versionC_stim.csv,READVersionC.csv,"Read Version C","Relational, read only version C",,,,,,0,FreeRecall,-,10,"What were you supposed to focus on while you studied each pair? (Hint: Think back to the instructions). Type your answer in the space below.",,CHECK3,13326,"this is getting annoying",0,5060,7440,0,0,,1
w10013263_wtm,olq996nes4,Relational_NO_JOL,1,278,2020-05-05T15:19:05-07:00,1.9738421440125,3,versionC_stim.csv,READVersionC.csv,"Read Version C","Relational, read only version C",,,,,,0,Instruct,User,-,"You have completed this section. Please press Enter.",Filler_Instruction,Instruct5,1741,,,-1,-1,,,,1
w10013263_wtm,olq996nes4,Relational_NO_JOL,1,279,2020-05-05T15:21:05-07:00,120.35734987259,3,versionC_stim.csv,READVersionC.csv,"Read Version C","Relational, read only version C",,,,,,0,FreeRecall,120,120,"Please list the 50 US states in reverse alphabetical order (z - a). The task will automatically advance to the next screen after two minutes.",,Filler2,120002,"Alaska, Arizona, California, North Carolina, South Carolina Connecticut, Florida, Georgia, Illinois, Kansas, Maine, Massachusetts ,Mississippi, ",0,3204,119604,0,0,,1
w10013263_wtm,olq996nes4,Relational_NO_JOL,1,280,2020-05-05T15:21:34-07:00,28.779724121094,3,versionC_stim.csv,READVersionC.csv,"Read Version C","Relational, read only version C",,,,,,0,Instruct,-,10,"You will now be presented with the first word from each of the previously studied item pairs. Please type the missing word. If you do not know the word, you may guess or press Enter to skip forward to the next pair.",,Instruct6,28482,,,-1,-1,,,,1
w10013263_wtm,olq996nes4,Relational_NO_JOL,1,281,2020-05-05T15:21:38-07:00,3.9146399497986,3,versionC_stim.csv,READVersionC.csv,"Read Version C","Relational, read only version C",SMELL,INCENSE,Study2,B,110,118,Test,User,-,,Recall,Recall2,3679,STINK,33.333333333333,2360,3155,0,0,,1
w10013263_wtm,olq996nes4,Relational_NO_JOL,1,282,2020-05-05T15:21:40-07:00,2.3694081306458,3,versionC_stim.csv,READVersionC.csv,"Read Version C","Relational, read only version C",FAVORITE,BEST,Study2,F,125,119,Test,User,-,,Recall,Recall2,2128,BEST,100,1591,1953,1,1,,1
w10013263_wtm,olq996nes4,Relational_NO_JOL,1,283,2020-05-05T15:21:43-07:00,2.6604919433594,3,versionC_stim.csv,READVersionC.csv,"Read Version C","Relational, read only version C",MYSTERY,DETECTIVE,Study2,B,100,125,Test,User,-,,Recall,Recall2,2431,SOLVED,26.666666666667,1628,2281,0,0,,1
w10013263_wtm,olq996nes4,Relational_NO_JOL,1,284,2020-05-05T15:21:46-07:00,2.7363588809967,3,versionC_stim.csv,READVersionC.csv,"Read Version C","Relational, read only version C",NOISE,LOUD,Study2,S,152,133,Test,User,-,,Recall,Recall2,2494,LOUD,100,1733,2183,1,1,,1
w10013263_wtm,olq996nes4,Relational_NO_JOL,1,285,2020-05-05T15:21:48-07:00,2.5635461807251,3,versionC_stim.csv,READVersionC.csv,"Read Version C","Relational, read only version C",AIRCRAFT,PLANE,Study2,F,129,173,Test,User,-,,Recall,Recall2,2283,CARRIER,33.333333333333,1426,2109,0,0,,1
w10013263_wtm,olq996nes4,Relational_NO_JOL,1,286,2020-05-05T15:21:59-07:00,10.288326978683,3,versionC_stim.csv,READVersionC.csv,"Read Version C","Relational, read only version C",HEAD,SCALP,Study2,B,105,174,Test,User,-,,Recall,Recall2,9981,ACEH,22.222222222222,9461,9731,0,0,,0.68
w10013263_wtm,olq996nes4,Relational_NO_JOL,1,287,2020-05-05T15:22:03-07:00,4.6164200305939,3,versionC_stim.csv,READVersionC.csv,"Read Version C","Relational, read only version C",Morning,TEMPERATURE,Study2,U,173,137,Test,User,-,,Recall,Recall2,4367,TEMPERATURE,100,2689,4013,1,1,,1
w10013263_wtm,olq996nes4,Relational_NO_JOL,1,288,2020-05-05T15:22:06-07:00,2.631148815155,3,versionC_stim.csv,READVersionC.csv,"Read Version C","Relational, read only version C",PANTHER,CAT,Study2,F,126,166,Test,User,-,,Recall,Recall2,2401,COUGAR,44.444444444444,1349,2090,0,0,,1
w10013263_wtm,olq996nes4,Relational_NO_JOL,1,289,2020-05-05T15:22:09-07:00,2.8057401180267,3,versionC_stim.csv,READVersionC.csv,"Read Version C","Relational, read only version C",JAR,MASON,Study2,S,138,162,Test,User,-,,Recall,Recall2,2551,BOWL,22.222222222222,1719,2113,0,0,,1
w10013263_wtm,olq996nes4,Relational_NO_JOL,1,290,2020-05-05T15:22:10-07:00,1.7676439285278,3,versionC_stim.csv,READVersionC.csv,"Read Version C","Relational, read only version C",SCISSORS,SHEARS,Study2,B,112,117,Test,User,-,,Recall,Recall2,1538,CUT,0,1051,1355,0,0,,1
w10013263_wtm,olq996nes4,Relational_NO_JOL,1,291,2020-05-05T15:22:12-07:00,1.6062040328979,3,versionC_stim.csv,READVersionC.csv,"Read Version C","Relational, read only version C",COLD,CHILL,Study2,B,114,120,Test,User,-,,Recall,Recall2,1380,HOT,25,1003,1130,0,0,,1
w10013263_wtm,olq996nes4,Relational_NO_JOL,1,292,2020-05-05T15:22:14-07:00,2.001307964325,3,versionC_stim.csv,READVersionC.csv,"Read Version C","Relational, read only version C",GAME,CLUE,Study2,B,97,148,Test,User,-,,Recall,Recall2,1759,PLAY,25,944,1483,0,0,,1
w10013263_wtm,olq996nes4,Relational_NO_JOL,1,293,2020-05-05T15:22:16-07:00,2.2143700122833,3,versionC_stim.csv,READVersionC.csv,"Read Version C","Relational, read only version C",ABLE,CRACKLE,Study2,U,162,105,Test,User,-,,Recall,Recall2,1940,COULD,33.333333333333,1423,1765,0,0,,1
w10013263_wtm,olq996nes4,Relational_NO_JOL,1,294,2020-05-05T15:22:19-07:00,2.4347839355469,3,versionC_stim.csv,READVersionC.csv,"Read Version C","Relational, read only version C",JOKE,KEYS,Study2,U,165,142,Test,User,-,,Recall,Recall2,2124,FUNNY,22.222222222222,933,1850,0,0,,1
w10013263_wtm,olq996nes4,Relational_NO_JOL,1,295,2020-05-05T15:22:21-07:00,2.0748929977417,3,versionC_stim.csv,READVersionC.csv,"Read Version C","Relational, read only version C",TRUTHFUL,HONEST,Study2,F,133,144,Test,User,-,,Recall,Recall2,1851,LIAR,0,992,1573,0,0,,1
w10013263_wtm,olq996nes4,Relational_NO_JOL,1,296,2020-05-05T15:22:23-07:00,1.8743660449982,3,versionC_stim.csv,READVersionC.csv,"Read Version C","Relational, read only version C",STEAK,GIVE,Study2,U,158,124,Test,User,-,,Recall,Recall2,1629,FOOD,0,1243,1498,0,0,,1
w10013263_wtm,olq996nes4,Relational_NO_JOL,1,297,2020-05-05T15:22:25-07:00,2.2071099281311,3,versionC_stim.csv,READVersionC.csv,"Read Version C","Relational, read only version C",COMMUNICATION,PHONE,Study2,S,149,129,Test,User,-,,Recall,Recall2,1981,TALK,0,1388,1731,0,0,,1
w10013263_wtm,olq996nes4,Relational_NO_JOL,1,298,2020-05-05T15:22:28-07:00,3.0835480690002,3,versionC_stim.csv,READVersionC.csv,"Read Version C","Relational, read only version C",END,ADJOURN,Study2,B,101,101,Test,User,-,,Recall,Recall2,2825,OVER,36.363636363636,936,2673,0,0,,1
w10013263_wtm,olq996nes4,Relational_NO_JOL,1,299,2020-05-05T15:22:32-07:00,3.751060962677,3,versionC_stim.csv,READVersionC.csv,"Read Version C","Relational, read only version C",SCAR,MAIN,Study2,U,175,132,Test,User,-,,Recall,Recall2,3500,STITCH,20,2315,3086,0,0,,1
w10013263_wtm,olq996nes4,Relational_NO_JOL,1,300,2020-05-05T15:22:33-07:00,1.8334109783173,3,versionC_stim.csv,READVersionC.csv,"Read Version C","Relational, read only version C",REEL,ROD,Study2,S,150,167,Test,User,-,,Recall,Recall2,1607,IN,0,1164,1295,0,0,,1
w10013263_wtm,olq996nes4,Relational_NO_JOL,1,301,2020-05-05T15:22:39-07:00,5.6395380496979,3,versionC_stim.csv,READVersionC.csv,"Read Version C","Relational, read only version C",PAPER,DOCUMENT,Study2,B,109,128,Test,User,-,,Recall,Recall2,5388,WEIGLHT,26.666666666667,4756,5228,0,0,,1
w10013263_wtm,olq996nes4,Relational_NO_JOL,1,302,2020-05-05T15:22:42-07:00,3.2382860183716,3,versionC_stim.csv,READVersionC.csv,"Read Version C","Relational, read only version C",MAROON,JUSTICE,Study2,U,156,134,Test,User,-,,Recall,Recall2,3006,RED,20,2652,2863,0,0,,1
w10013263_wtm,olq996nes4,Relational_NO_JOL,1,303,2020-05-05T15:22:45-07:00,2.2094130516052,3,versionC_stim.csv,READVersionC.csv,"Read Version C","Relational, read only version C",LIE,TRUTH,Study2,S,148,123,Test,User,-,,Recall,Recall2,1936,TRUTH,100,1032,1620,1,1,,1
w10013263_wtm,olq996nes4,Relational_NO_JOL,1,304,2020-05-05T15:22:49-07:00,4.2242460250854,3,versionC_stim.csv,READVersionC.csv,"Read Version C","Relational, read only version C",CLOTHES,CAKE,Study2,U,166,158,Test,User,-,,Recall,Recall2,3921,ARM,28.571428571429,1334,3587,0,0,,1
w10013263_wtm,olq996nes4,Relational_NO_JOL,1,305,2020-05-05T15:22:51-07:00,1.9976229667664,3,versionC_stim.csv,READVersionC.csv,"Read Version C","Relational, read only version C",HAVE,OWN,Study2,S,153,127,Test,User,-,,Recall,Recall2,1764,HAD,0,1349,1603,0,0,,1
w10013263_wtm,olq996nes4,Relational_NO_JOL,1,306,2020-05-05T15:22:55-07:00,4.3313629627228,3,versionC_stim.csv,READVersionC.csv,"Read Version C","Relational, read only version C",LONG,EXTENSION,Study2,B,96,165,Test,User,-,,Recall,Recall2,4087,EXTENSION,100,2052,3224,1,1,,1
w10013263_wtm,olq996nes4,Relational_NO_JOL,1,307,2020-05-05T15:23:03-07:00,8.2900459766388,3,versionC_stim.csv,READVersionC.csv,"Read Version C","Relational, read only version C",CHARM,VEHICLE,Study2,U,160,126,Test,User,-,,Recall,Recall2,8064,JEWLERY,42.857142857143,5696,7456,0,0,,1
w10013263_wtm,olq996nes4,Relational_NO_JOL,1,308,2020-05-05T15:23:06-07:00,2.2045140266418,3,versionC_stim.csv,READVersionC.csv,"Read Version C","Relational, read only version C",TICK,FLEA,Study2,S,151,146,Test,User,-,,Recall,Recall2,1958,BUG,0,1526,1725,0,0,,1
w10013263_wtm,olq996nes4,Relational_NO_JOL,1,309,2020-05-05T15:23:08-07:00,1.9571990966797,3,versionC_stim.csv,READVersionC.csv,"Read Version C","Relational, read only version C",CAR,DRIVER,Study2,B,106,111,Test,User,-,,Recall,Recall2,1704,CRASH,18.181818181818,971,1468,0,0,,1
w10013263_wtm,olq996nes4,Relational_NO_JOL,1,310,2020-05-05T15:23:14-07:00,6.1880049705505,3,versionC_stim.csv,READVersionC.csv,"Read Version C","Relational, read only version C",SARDINE,FISH,Study2,F,130,135,Test,User,-,,Recall,Recall2,5967,FISH,100,3107,5652,1,1,,1
w10013263_wtm,olq996nes4,Relational_NO_JOL,1,311,2020-05-05T15:23:17-07:00,2.9596400260925,3,versionC_stim.csv,READVersionC.csv,"Read Version C","Relational, read only version C",CLOTH,STRETCH,Study2,U,157,171,Test,User,-,,Recall,Recall2,2716,CLOTHES,28.571428571429,1592,2469,0,0,,1
w10013263_wtm,olq996nes4,Relational_NO_JOL,1,312,2020-05-05T15:23:24-07:00,7.4535229206085,3,versionC_stim.csv,READVersionC.csv,"Read Version C","Relational, read only version C",ELECTION,MAZE,Study2,U,159,145,Test,User,-,,Recall,Recall2,7208,VOTE,25,4692,6989,0,0,,1
w10013263_wtm,olq996nes4,Relational_NO_JOL,1,313,2020-05-05T15:23:26-07:00,2.0444889068604,3,versionC_stim.csv,READVersionC.csv,"Read Version C","Relational, read only version C",AWAY,GONE,Study2,S,142,108,Test,User,-,,Recall,Recall2,1776,FAR,0,1323,1533,0,0,,1
w10013263_wtm,olq996nes4,Relational_NO_JOL,1,314,2020-05-05T15:23:29-07:00,2.2866060733795,3,versionC_stim.csv,READVersionC.csv,"Read Version C","Relational, read only version C",BANKER,MONEY,Study2,F,132,141,Test,User,-,,Recall,Recall2,2049,MONEY,100,1330,1782,1,1,,1
w10013263_wtm,olq996nes4,Relational_NO_JOL,1,315,2020-05-05T15:23:31-07:00,2.030219078064,3,versionC_stim.csv,READVersionC.csv,"Read Version C","Relational, read only version C",VILLAIN,BAD,Study2,F,118,150,Test,User,-,,Recall,Recall2,1788,HERO,0,1324,1568,0,0,,1
w10013263_wtm,olq996nes4,Relational_NO_JOL,1,316,2020-05-05T15:23:32-07:00,1.8360209465027,3,versionC_stim.csv,READVersionC.csv,"Read Version C","Relational, read only version C",BALLOON,POP,Study2,F,123,121,Test,User,-,,Recall,Recall2,1609,POP,100,1008,1247,1,1,,1
w10013263_wtm,olq996nes4,Relational_NO_JOL,1,317,2020-05-05T15:23:36-07:00,3.2829420566559,3,versionC_stim.csv,READVersionC.csv,"Read Version C","Relational, read only version C",WINDSHIELD,CAR,Study2,F,117,110,Test,User,-,,Recall,Recall2,3031,GLASS,25,2311,2903,0,0,,1
w10013263_wtm,olq996nes4,Relational_NO_JOL,1,318,2020-05-05T15:23:40-07:00,4.1979198455811,3,versionC_stim.csv,READVersionC.csv,"Read Version C","Relational, read only version C",SHAKE,Shell,Study2,U,163,153,Test,User,-,,Recall,Recall2,3961,MILK,22.222222222222,2396,3221,0,0,,1
w10013263_wtm,olq996nes4,Relational_NO_JOL,1,319,2020-05-05T15:23:45-07:00,4.6443200111389,3,versionC_stim.csv,READVersionC.csv,"Read Version C","Relational, read only version C",TEMPER,TANTRUM,Study2,S,154,143,Test,User,-,,Recall,Recall2,3410,,0,-1,-1,0,0,,1
w10013263_wtm,olq996nes4,Relational_NO_JOL,1,320,2020-05-05T15:23:52-07:00,7.4477431774139,3,versionC_stim.csv,READVersionC.csv,"Read Version C","Relational, read only version C",PLANT,CACTUS,Study2,B,98,175,Test,User,-,,Recall,Recall2,7221,GRASS,36.363636363636,5918,6962,0,0,,1
w10013263_wtm,olq996nes4,Relational_NO_JOL,1,321,2020-05-05T15:24:19-07:00,27.504156827927,3,versionC_stim.csv,READVersionC.csv,"Read Version C","Relational, read only version C",LEAGUE,BASEBALL,Study2,F,131,139,Test,User,-,,Recall,Recall2,27194,GROUP,0,26549,26916,0,0,,1
w10013263_wtm,olq996nes4,Relational_NO_JOL,1,322,2020-05-05T15:24:21-07:00,1.3896842002869,3,versionC_stim.csv,READVersionC.csv,"Read Version C","Relational, read only version C",NAP,SLEEP,Study2,F,134,147,Test,User,-,,Recall,Recall2,1124,TIME,22.222222222222,808,937,0,0,,1
w10013263_wtm,olq996nes4,Relational_NO_JOL,1,323,2020-05-05T15:24:23-07:00,1.7477297782898,3,versionC_stim.csv,READVersionC.csv,"Read Version C","Relational, read only version C",FLIP,TURN,Study2,F,116,113,Test,User,-,,Recall,Recall2,1517,FLOP,0,822,1161,0,0,,1
w10013263_wtm,olq996nes4,Relational_NO_JOL,1,324,2020-05-05T15:24:24-07:00,0.99020409584045,3,versionC_stim.csv,READVersionC.csv,"Read Version C","Relational, read only version C",BRAWL,FIGHT,Study2,F,135,163,Test,User,-,,Recall,Recall2,742,,0,-1,-1,0,0,,1
w10013263_wtm,olq996nes4,Relational_NO_JOL,1,325,2020-05-05T15:24:26-07:00,2.4649469852448,3,versionC_stim.csv,READVersionC.csv,"Read Version C","Relational, read only version C",CHILDREN,MIRROR,Study2,U,174,172,Test,User,-,,Recall,Recall2,2241,MIRROR,100,1429,2017,1,1,,1
w10013263_wtm,olq996nes4,Relational_NO_JOL,1,326,2020-05-05T15:24:29-07:00,2.6588590145111,3,versionC_stim.csv,READVersionC.csv,"Read Version C","Relational, read only version C",RED,CHERRY,Study2,B,104,103,Test,User,-,,Recall,Recall2,2428,MAROON,16.666666666667,1551,2052,0,0,,1
w10013263_wtm,olq996nes4,Relational_NO_JOL,1,327,2020-05-05T15:24:50-07:00,20.920423984528,3,versionC_stim.csv,READVersionC.csv,"Read Version C","Relational, read only version C",ACTRESS,STAR,Study2,F,120,136,Test,User,-,,Recall,Recall2,20634,WOMAN,22.222222222222,20112,20443,0,0,,1
w10013263_wtm,olq996nes4,Relational_NO_JOL,1,328,2020-05-05T15:24:52-07:00,1.9291050434113,3,versionC_stim.csv,READVersionC.csv,"Read Version C","Relational, read only version C",BREAKABLE,GLASS,Study2,F,127,112,Test,User,-,,Recall,Recall2,1697,GLASS,100,1118,1587,1,1,,1
w10013263_wtm,olq996nes4,Relational_NO_JOL,1,329,2020-05-05T15:24:52-07:00,0.2794508934021,3,versionC_stim.csv,READVersionC.csv,"Read Version C","Relational, read only version C",OUNCE,BOTH,Study2,U,172,159,Test,User,-,,Recall,Recall2,53,,0,-1,-1,0,0,,1
w10013263_wtm,olq996nes4,Relational_NO_JOL,1,330,2020-05-05T15:24:52-07:00,0.24225306510925,3,versionC_stim.csv,READVersionC.csv,"Read Version C","Relational, read only version C",PENGUIN,BIRD,Study2,F,119,102,Test,User,-,,Recall,Recall2,13,,0,-1,-1,0,0,,1
w10013263_wtm,olq996nes4,Relational_NO_JOL,1,331,2020-05-05T15:24:53-07:00,1.2550530433655,3,versionC_stim.csv,READVersionC.csv,"Read Version C","Relational, read only version C",LONELY,ALONE,Study2,S,145,122,Test,User,-,,Recall,Recall2,29,,0,-1,-1,0,0,,1
w10013263_wtm,olq996nes4,Relational_NO_JOL,1,332,2020-05-05T15:24:56-07:00,2.9322738647461,3,versionC_stim.csv,READVersionC.csv,"Read Version C","Relational, read only version C",FIGHT,FEUD,Study2,B,113,176,Test,User,-,,Recall,Recall2,2711,FIGHT,22.222222222222,2187,2574,0,0,,1
w10013263_wtm,olq996nes4,Relational_NO_JOL,1,333,2020-05-05T15:24:58-07:00,1.7554240226746,3,versionC_stim.csv,READVersionC.csv,"Read Version C","Relational, read only version C",EQUAL,RIGHTS,Study2,S,137,98,Test,User,-,,Recall,Recall2,1527,EVEN,0,1051,1377,0,0,,1
w10013263_wtm,olq996nes4,Relational_NO_JOL,1,334,2020-05-05T15:25:02-07:00,3.5184690952301,3,versionC_stim.csv,READVersionC.csv,"Read Version C","Relational, read only version C",FICTION,LISTEN,Study2,U,164,152,Test,User,-,,Recall,Recall2,2252,FACT,20,1660,2139,0,0,,1
w10013263_wtm,olq996nes4,Relational_NO_JOL,1,335,2020-05-05T15:25:03-07:00,1.5994820594788,3,versionC_stim.csv,READVersionC.csv,"Read Version C","Relational, read only version C",DONKEY,MULE,Study2,B,108,170,Test,User,-,,Recall,Recall2,1361,KONG,0,861,1202,0,0,,1
w10013263_wtm,olq996nes4,Relational_NO_JOL,1,336,2020-05-05T15:25:06-07:00,2.6350328922272,3,versionC_stim.csv,READVersionC.csv,"Read Version C","Relational, read only version C",SIGN,LOAN,Study2,U,171,107,Test,User,-,,Recall,Recall2,2393,,0,-1,-1,0,0,,1
w10013263_wtm,olq996nes4,Relational_NO_JOL,1,337,2020-05-05T15:25:08-07:00,2.6783690452576,3,versionC_stim.csv,READVersionC.csv,"Read Version C","Relational, read only version C",WAX,CANDLE,Study2,S,139,106,Test,User,-,,Recall,Recall2,2450,MOLD,20,1975,2306,0,0,,1
w10013263_wtm,olq996nes4,Relational_NO_JOL,1,338,2020-05-05T15:25:11-07:00,2.551600933075,3,versionC_stim.csv,READVersionC.csv,"Read Version C","Relational, read only version C",TRASH,LITTER,Study2,B,103,100,Test,User,-,,Recall,Recall2,2314,LITTER,100,1620,2217,1,1,,1
w10013263_wtm,olq996nes4,Relational_NO_JOL,1,339,2020-05-05T15:25:14-07:00,2.5116970539093,3,versionC_stim.csv,READVersionC.csv,"Read Version C","Relational, read only version C",COFFIN,DEAD,Study2,F,128,149,Test,User,-,,Recall,Recall2,2252,ME,33.333333333333,1980,2073,0,0,,1
w10013263_wtm,olq996nes4,Relational_NO_JOL,1,340,2020-05-05T15:25:16-07:00,2.0739569664001,3,versionC_stim.csv,READVersionC.csv,"Read Version C","Relational, read only version C",SEATBELT,SAFETY,Study2,S,147,151,Test,User,-,,Recall,Recall2,1849,Car,22.222222222222,1503,1754,0,0,,1
w10013263_wtm,olq996nes4,Relational_NO_JOL,1,341,2020-05-05T15:25:18-07:00,2.4675540924072,3,versionC_stim.csv,READVersionC.csv,"Read Version C","Relational, read only version C",TIE,SHOELACE,Study2,B,99,116,Test,User,-,,Recall,Recall2,2229,TIED,16.666666666667,1731,2104,0,0,,1
w10013263_wtm,olq996nes4,Relational_NO_JOL,1,342,2020-05-05T15:25:21-07:00,2.5080399513245,3,versionC_stim.csv,READVersionC.csv,"Read Version C","Relational, read only version C",WET,DRY,Study2,S,146,97,Test,User,-,,Recall,Recall2,2273,WATER,25,1591,2125,0,0,,1
w10013263_wtm,olq996nes4,Relational_NO_JOL,1,343,2020-05-05T15:25:23-07:00,2.0669000148773,3,versionC_stim.csv,READVersionC.csv,"Read Version C","Relational, read only version C",CLEAR,MOAT,Study2,U,169,115,Test,User,-,,Recall,Recall2,1794,OPEN,25,1313,1589,0,0,,1
w10013263_wtm,olq996nes4,Relational_NO_JOL,1,344,2020-05-05T15:25:30-07:00,7.8200891017914,3,versionC_stim.csv,READVersionC.csv,"Read Version C","Relational, read only version C",HATE,NAME,Study2,U,167,138,Test,User,-,,Recall,Recall2,7561,DISTASTE,33.333333333333,1846,7208,0,0,,1
w10013263_wtm,olq996nes4,Relational_NO_JOL,1,345,2020-05-05T15:25:34-07:00,4.0096669197083,3,versionC_stim.csv,READVersionC.csv,"Read Version C","Relational, read only version C",GROUND,EARTH,Study2,S,144,164,Test,User,-,,Recall,Recall2,3783,EVEN,22.222222222222,3155,3503,0,0,,1
w10013263_wtm,olq996nes4,Relational_NO_JOL,1,346,2020-05-05T15:25:37-07:00,2.6862540245056,3,versionC_stim.csv,READVersionC.csv,"Read Version C","Relational, read only version C",TAN,SUN,Study2,S,155,99,Test,User,-,,Recall,Recall2,2447,PALE,0,1968,2284,0,0,,1
w10013263_wtm,olq996nes4,Relational_NO_JOL,1,347,2020-05-05T15:25:41-07:00,3.8455748558044,3,versionC_stim.csv,READVersionC.csv,"Read Version C","Relational, read only version C",EAT,DINE,Study2,B,111,109,Test,User,-,,Recall,Recall2,3610,FOOD,25,3138,3484,0,0,,1
w10013263_wtm,olq996nes4,Relational_NO_JOL,1,348,2020-05-05T15:25:43-07:00,1.7614891529083,3,versionC_stim.csv,READVersionC.csv,"Read Version C","Relational, read only version C",DRINK,WATER,Study2,S,143,169,Test,User,-,,Recall,Recall2,1533,DRANK,20,919,1298,0,0,,1
w10013263_wtm,olq996nes4,Relational_NO_JOL,1,349,2020-05-05T15:25:46-07:00,3.1542069911957,3,versionC_stim.csv,READVersionC.csv,"Read Version C","Relational, read only version C",BRACELET,WRIST,Study2,S,140,156,Test,User,-,,Recall,Recall2,2925,NECKLACE,0,1697,2807,0,0,,1
w10013263_wtm,olq996nes4,Relational_NO_JOL,1,350,2020-05-05T15:25:49-07:00,3.560791015625,3,versionC_stim.csv,READVersionC.csv,"Read Version C","Relational, read only version C",CUT,CHOP,Study2,B,107,160,Test,User,-,,Recall,Recall2,3319,SCAR,25,2642,3089,0,0,,1
w10013263_wtm,olq996nes4,Relational_NO_JOL,1,351,2020-05-05T15:25:51-07:00,1.7151968479156,3,versionC_stim.csv,READVersionC.csv,"Read Version C","Relational, read only version C",LOVE,AFFECTION,Study2,B,115,168,Test,User,-,,Recall,Recall2,1461,HATe,30.769230769231,1009,1300,0,0,,1
w10013263_wtm,olq996nes4,Relational_NO_JOL,1,352,2020-05-05T15:25:54-07:00,2.5461640357971,3,versionC_stim.csv,READVersionC.csv,"Read Version C","Relational, read only version C",REVENGE,EVEN,Study2,F,122,104,Test,User,-,,Recall,Recall2,2278,LOVE,50,1809,2110,0,0,,1
w10013263_wtm,olq996nes4,Relational_NO_JOL,1,353,2020-05-05T15:25:57-07:00,3.0389199256897,3,versionC_stim.csv,READVersionC.csv,"Read Version C","Relational, read only version C",SHAVE,RAZOR,Study2,S,136,157,Test,User,-,,Recall,Recall2,2785,CUT,0,2312,2597,0,0,,1
w10013263_wtm,olq996nes4,Relational_NO_JOL,1,354,2020-05-05T15:26:00-07:00,2.9980311393738,3,versionC_stim.csv,READVersionC.csv,"Read Version C","Relational, read only version C",THIMBLE,THREAD,Study2,F,121,114,Test,User,-,,Recall,Recall2,2757,WEED,40,1951,2562,0,0,,1
w10013263_wtm,olq996nes4,Relational_NO_JOL,1,355,2020-05-05T15:26:04-07:00,4.3976969718933,3,versionC_stim.csv,READVersionC.csv,"Read Version C","Relational, read only version C",TOIL,LEASE,Study2,U,170,130,Test,User,-,,Recall,Recall2,4134,,0,-1,-1,0,0,,1
w10013263_wtm,olq996nes4,Relational_NO_JOL,1,356,2020-05-05T15:26:07-07:00,2.7450768947601,3,versionC_stim.csv,READVersionC.csv,"Read Version C","Relational, read only version C",CARBON,ELEMENT,Study2,S,141,131,Test,User,-,,Recall,Recall2,2506,ELEMENT,100,1447,2285,1,1,,1
w10013263_wtm,olq996nes4,Relational_NO_JOL,1,357,2020-05-05T15:26:09-07:00,2.3112812042236,3,versionC_stim.csv,READVersionC.csv,"Read Version C","Relational, read only version C",DOG,FURRY,Study2,B,102,155,Test,User,-,,Recall,Recall2,2087,CAT,0,1113,1870,0,0,,1
w10013263_wtm,olq996nes4,Relational_NO_JOL,1,358,2020-05-05T15:26:12-07:00,2.7283968925476,3,versionC_stim.csv,READVersionC.csv,"Read Version C","Relational, read only version C",STRAWBERRY,FRUIT,Study2,F,124,154,Test,User,-,,Recall,Recall2,2478,FRUIT,100,1638,2272,1,1,,1
w10013263_wtm,olq996nes4,Relational_NO_JOL,1,359,2020-05-05T15:26:14-07:00,1.9679329395294,3,versionC_stim.csv,READVersionC.csv,"Read Version C","Relational, read only version C",BANG,FUZZY,Study2,U,168,161,Test,User,-,,Recall,Recall2,1726,,0,-1,-1,0,0,,1
w10013263_wtm,olq996nes4,Relational_NO_JOL,1,360,2020-05-05T15:26:18-07:00,4.3162000179291,3,versionC_stim.csv,READVersionC.csv,"Read Version C","Relational, read only version C",OBTAIN,MEAT,Study2,U,161,140,Test,User,-,,Recall,Recall2,4059,CONTROL,18.181818181818,2656,3453,0,0,,1
w10013263_wtm,olq996nes4,Relational_NO_JOL,1,361,2020-05-05T15:26:19-07:00,1.246927022934,3,versionC_stim.csv,READVersionC.csv,"Read Version C","Relational, read only version C",,,,,,0,Instruct,User,-,"You have completed this section. Please press Enter.",,Instruct7,994,,,-1,-1,,,,1
w10013263_wtm,olq996nes4,Relational_NO_JOL,1,362,2020-05-05T15:26:22-07:00,2.4451649188995,3,versionC_stim.csv,READVersionC.csv,"Read Version C","Relational, read only version C",,,,,,0,Instruct,User,-,"The following screen will ask you a few questions abour your experience today. You must complete these questions to receive credit.",,Instruct8,2213,,,-1,-1,,,,1
