Username,ID,ExperimentName,Session,Trial,Date,TimeDif,"Condition Number","Stimuli File","Order File","Condition Description","Condition Notes",Stimuli*Cue,Stimuli*Answer,Stimuli*Shuffle,"Stimuli*Stimuli Notes",Stimuli*Value,Procedure*Item,"Procedure*Trial Type","Procedure*Max Time","Procedure*Min Time",Procedure*Text,"Procedure*Procedure Notes",Procedure*Shuffle,Response*RT,Response*Response,Response*Accuracy,Response*RTfirst,Response*RTlast,Response*strictAcc,Response*lenientAcc,Response*focus,Response*Focus
w99603AHC,kuflmrzi1n,Relational_NO_JOL,1,1,2020-05-04T08:30:51-07:00,11.72377705574,1,versionA_stim.csv,READVersionA.csv,"Read Version A","Relational, read only version A",,,,,,0,Instruct,-,10,"In this section, you will be presented with a series of word pairs. Please study both items in the pair.",,Instruct13,11501,,,-1,-1,,,,1
w99603AHC,kuflmrzi1n,Relational_NO_JOL,1,2,2020-05-04T08:31:09-07:00,18.653409004211,1,versionA_stim.csv,READVersionA.csv,"Read Version A","Relational, read only version A",,,,,,0,Instruct,-,15,"As you study, please think about how the two concepts are RELATED to each other. For example, if you see the pair TURTLE-CAT, think about how both are alive, they are both animals, and both can be kept as pets.",,Instruct19,18336,,,-1,-1,,,,1
w99603AHC,kuflmrzi1n,Relational_NO_JOL,1,3,2020-05-04T08:31:23-07:00,14.288639068604,1,versionA_stim.csv,READVersionA.csv,"Read Version A","Relational, read only version A",,,,,,0,FreeRecall,-,10,"What you should think about as you study each item pair? Type your response in the box below.",,CHECK1,13992,"How they relate to each other",0,6802,12961,0,0,,1
w99603AHC,kuflmrzi1n,Relational_NO_JOL,1,4,2020-05-04T08:31:26-07:00,2.599711894989,1,versionA_stim.csv,READVersionA.csv,"Read Version A","Relational, read only version A",,,,,,0,Instruct,User,-,"You will now begin the experiment. Press ENTER when you are ready to begin.",,Instruct000,2321,,,-1,-1,,,,1
w99603AHC,kuflmrzi1n,Relational_NO_JOL,1,5,2020-05-04T08:31:31-07:00,4.4423739910126,1,versionA_stim.csv,READVersionA.csv,"Read Version A","Relational, read only version A",SCARE,HIDE,BUFFER1,Buffer,4,4,Study,User,-,,Study/JOL,BUFFER,4138,,,-1,-1,,,,1
w99603AHC,kuflmrzi1n,Relational_NO_JOL,1,6,2020-05-04T08:31:34-07:00,3.5194780826569,1,versionA_stim.csv,READVersionA.csv,"Read Version A","Relational, read only version A",TREES,GREEN,BUFFER1,Buffer,1,2,Study,User,-,,Study/JOL,BUFFER,3235,,,-1,-1,,,,1
w99603AHC,kuflmrzi1n,Relational_NO_JOL,1,7,2020-05-04T08:31:37-07:00,2.5247490406036,1,versionA_stim.csv,READVersionA.csv,"Read Version A","Relational, read only version A",SPACE,JAM,BUFFER1,Buffer,5,6,Study,User,-,,Study/JOL,BUFFER,2226,,,-1,-1,,,,1
w99603AHC,kuflmrzi1n,Relational_NO_JOL,1,8,2020-05-04T08:31:39-07:00,2.1697719097137,1,versionA_stim.csv,READVersionA.csv,"Read Version A","Relational, read only version A",BASEBALL,CATCHER,BUFFER1,Buffer,2,3,Study,User,-,,Study/JOL,BUFFER,1877,,,-1,-1,,,,1
w99603AHC,kuflmrzi1n,Relational_NO_JOL,1,9,2020-05-04T08:31:41-07:00,1.8309900760651,1,versionA_stim.csv,READVersionA.csv,"Read Version A","Relational, read only version A",PEANUT,BUTTER,BUFFER1,Buffer,3,5,Study,User,-,,Study/JOL,BUFFER,1556,,,-1,-1,,,,1
w99603AHC,kuflmrzi1n,Relational_NO_JOL,1,10,2020-05-04T08:31:44-07:00,3.2311539649963,1,versionA_stim.csv,READVersionA.csv,"Read Version A","Relational, read only version A",PLANE,PILOT,Study1,B,44,21,Study,User,-,,Study/JOL,"Study Phase",2947,,,-1,-1,,,,1
w99603AHC,kuflmrzi1n,Relational_NO_JOL,1,11,2020-05-04T08:31:49-07:00,4.7685298919678,1,versionA_stim.csv,READVersionA.csv,"Read Version A","Relational, read only version A",STRONG,ACCIDENT,Study1,U,80,12,Study,User,-,,Study/JOL,"Study Phase",4493,,,-1,-1,,,,1
w99603AHC,kuflmrzi1n,Relational_NO_JOL,1,12,2020-05-04T08:31:51-07:00,2.6640810966492,1,versionA_stim.csv,READVersionA.csv,"Read Version A","Relational, read only version A",WINE,CHEESE,Study1,S,57,11,Study,User,-,,Study/JOL,"Study Phase",2386,,,-1,-1,,,,1
w99603AHC,kuflmrzi1n,Relational_NO_JOL,1,13,2020-05-04T08:31:53-07:00,1.9215660095215,1,versionA_stim.csv,READVersionA.csv,"Read Version A","Relational, read only version A",SLEEP,DROWSY,Study1,B,41,48,Study,User,-,,Study/JOL,"Study Phase",1635,,,-1,-1,,,,1
w99603AHC,kuflmrzi1n,Relational_NO_JOL,1,14,2020-05-04T08:31:55-07:00,1.7385230064392,1,versionA_stim.csv,READVersionA.csv,"Read Version A","Relational, read only version A",BUG,WASP,Study1,B,32,69,Study,User,-,,Study/JOL,"Study Phase",1450,,,-1,-1,,,,1
w99603AHC,kuflmrzi1n,Relational_NO_JOL,1,15,2020-05-04T08:31:56-07:00,1.5616679191589,1,versionA_stim.csv,READVersionA.csv,"Read Version A","Relational, read only version A",BATHROOM,TOILET,Study1,S,58,10,Study,User,-,,Study/JOL,"Study Phase",1284,,,-1,-1,,,,1
w99603AHC,kuflmrzi1n,Relational_NO_JOL,1,16,2020-05-04T08:31:58-07:00,1.6524069309235,1,versionA_stim.csv,READVersionA.csv,"Read Version A","Relational, read only version A",LETTUCE,SALAD,Study1,S,59,39,Study,User,-,,Study/JOL,"Study Phase",1379,,,-1,-1,,,,1
w99603AHC,kuflmrzi1n,Relational_NO_JOL,1,17,2020-05-04T08:32:01-07:00,3.2644121646881,1,versionA_stim.csv,READVersionA.csv,"Read Version A","Relational, read only version A",FIX,HAND,Study1,U,75,45,Study,User,-,,Study/JOL,"Study Phase",2988,,,-1,-1,,,,1
w99603AHC,kuflmrzi1n,Relational_NO_JOL,1,18,2020-05-04T08:32:04-07:00,2.2582280635834,1,versionA_stim.csv,READVersionA.csv,"Read Version A","Relational, read only version A",WAGE,MONEY,Study1,F,8,57,Study,User,-,,Study/JOL,"Study Phase",1986,,,-1,-1,,,,1
w99603AHC,kuflmrzi1n,Relational_NO_JOL,1,19,2020-05-04T08:32:05-07:00,1.7358419895172,1,versionA_stim.csv,READVersionA.csv,"Read Version A","Relational, read only version A",BEGIN,END,Study1,S,54,49,Study,User,-,,Study/JOL,"Study Phase",1447,,,-1,-1,,,,1
w99603AHC,kuflmrzi1n,Relational_NO_JOL,1,20,2020-05-04T08:32:07-07:00,2.0182118415833,1,versionA_stim.csv,READVersionA.csv,"Read Version A","Relational, read only version A",BABY,CHILD,Study1,S,64,22,Study,User,-,,Study/JOL,"Study Phase",1733,,,-1,-1,,,,1
w99603AHC,kuflmrzi1n,Relational_NO_JOL,1,21,2020-05-04T08:32:10-07:00,2.147027015686,1,versionA_stim.csv,READVersionA.csv,"Read Version A","Relational, read only version A",HONEY,BEE,Study1,S,63,9,Study,User,-,,Study/JOL,"Study Phase",1874,,,-1,-1,,,,1
w99603AHC,kuflmrzi1n,Relational_NO_JOL,1,22,2020-05-04T08:32:17-07:00,7.5763959884644,1,versionA_stim.csv,READVersionA.csv,"Read Version A","Relational, read only version A",CASH,WOULD,Study1,U,83,8,Study,User,-,,Study/JOL,"Study Phase",7295,,,-1,-1,,,,1
w99603AHC,kuflmrzi1n,Relational_NO_JOL,1,23,2020-05-04T08:32:24-07:00,6.4063670635223,1,versionA_stim.csv,READVersionA.csv,"Read Version A","Relational, read only version A",PUSHER,CLUTTER,Study1,U,66,63,Study,User,-,,Study/JOL,"Study Phase",6110,,,-1,-1,,,,1
w99603AHC,kuflmrzi1n,Relational_NO_JOL,1,24,2020-05-04T08:32:25-07:00,1.5987210273743,1,versionA_stim.csv,READVersionA.csv,"Read Version A","Relational, read only version A",POP,SODA,Study1,S,56,30,Study,User,-,,Study/JOL,"Study Phase",1323,,,-1,-1,,,,1
w99603AHC,kuflmrzi1n,Relational_NO_JOL,1,25,2020-05-04T08:32:27-07:00,1.5132269859314,1,versionA_stim.csv,READVersionA.csv,"Read Version A","Relational, read only version A",HERD,COW,Study1,F,22,85,Study,User,-,,Study/JOL,"Study Phase",1211,,,-1,-1,,,,1
w99603AHC,kuflmrzi1n,Relational_NO_JOL,1,26,2020-05-04T08:32:28-07:00,1.6929430961609,1,versionA_stim.csv,READVersionA.csv,"Read Version A","Relational, read only version A",DRINK,SIP,Study1,B,27,65,Study,User,-,,Study/JOL,"Study Phase",1415,,,-1,-1,,,,1
w99603AHC,kuflmrzi1n,Relational_NO_JOL,1,27,2020-05-04T08:32:30-07:00,1.9578588008881,1,versionA_stim.csv,READVersionA.csv,"Read Version A","Relational, read only version A",HOT,CHILI,Study1,B,37,51,Study,User,-,,Study/JOL,"Study Phase",1684,,,-1,-1,,,,1
w99603AHC,kuflmrzi1n,Relational_NO_JOL,1,28,2020-05-04T08:32:32-07:00,1.7183890342712,1,versionA_stim.csv,READVersionA.csv,"Read Version A","Relational, read only version A",DELINQUENT,BAD,Study1,F,6,58,Study,User,-,,Study/JOL,"Study Phase",1427,,,-1,-1,,,,1
w99603AHC,kuflmrzi1n,Relational_NO_JOL,1,29,2020-05-04T08:32:33-07:00,1.4110090732574,1,versionA_stim.csv,READVersionA.csv,"Read Version A","Relational, read only version A",KIDNEY,LIVER,Study1,S,53,14,Study,User,-,,Study/JOL,"Study Phase",1133,,,-1,-1,,,,1
w99603AHC,kuflmrzi1n,Relational_NO_JOL,1,30,2020-05-04T08:32:40-07:00,6.4585108757019,1,versionA_stim.csv,READVersionA.csv,"Read Version A","Relational, read only version A",DEATH,BUSINESS,Study1,U,72,76,Study,User,-,,Study/JOL,"Study Phase",6184,,,-1,-1,,,,1
w99603AHC,kuflmrzi1n,Relational_NO_JOL,1,31,2020-05-04T08:32:43-07:00,2.8930220603943,1,versionA_stim.csv,READVersionA.csv,"Read Version A","Relational, read only version A",VALLEY,ADD,Study1,U,82,19,Study,User,-,,Study/JOL,"Study Phase",2603,,,-1,-1,,,,1
w99603AHC,kuflmrzi1n,Relational_NO_JOL,1,32,2020-05-04T08:32:44-07:00,1.4266610145569,1,versionA_stim.csv,READVersionA.csv,"Read Version A","Relational, read only version A",PAST,FUTURE,Study1,S,61,28,Study,User,-,,Study/JOL,"Study Phase",1139,,,-1,-1,,,,1
w99603AHC,kuflmrzi1n,Relational_NO_JOL,1,33,2020-05-04T08:32:46-07:00,1.5361890792847,1,versionA_stim.csv,READVersionA.csv,"Read Version A","Relational, read only version A",BRIDGE,WATER,Study1,F,18,54,Study,User,-,,Study/JOL,"Study Phase",1248,,,-1,-1,,,,1
w99603AHC,kuflmrzi1n,Relational_NO_JOL,1,34,2020-05-04T08:32:47-07:00,1.783684015274,1,versionA_stim.csv,READVersionA.csv,"Read Version A","Relational, read only version A",HORNET,STING,Study1,F,11,24,Study,User,-,,Study/JOL,"Study Phase",1501,,,-1,-1,,,,1
w99603AHC,kuflmrzi1n,Relational_NO_JOL,1,35,2020-05-04T08:32:49-07:00,1.8478519916534,1,versionA_stim.csv,READVersionA.csv,"Read Version A","Relational, read only version A",BALL,RACKET,Study1,B,38,77,Study,User,-,,Study/JOL,"Study Phase",1569,,,-1,-1,,,,1
w99603AHC,kuflmrzi1n,Relational_NO_JOL,1,36,2020-05-04T08:32:53-07:00,3.791228055954,1,versionA_stim.csv,READVersionA.csv,"Read Version A","Relational, read only version A",FULL,ENOUGH,Study1,B,26,40,Study,User,-,,Study/JOL,"Study Phase",3459,,,-1,-1,,,,1
w99603AHC,kuflmrzi1n,Relational_NO_JOL,1,37,2020-05-04T08:32:58-07:00,5.2186329364777,1,versionA_stim.csv,READVersionA.csv,"Read Version A","Relational, read only version A",LIFT,WOMAN,Study1,U,69,42,Study,User,-,,Study/JOL,"Study Phase",4942,,,-1,-1,,,,1
w99603AHC,kuflmrzi1n,Relational_NO_JOL,1,38,2020-05-04T08:33:02-07:00,3.2858438491821,1,versionA_stim.csv,READVersionA.csv,"Read Version A","Relational, read only version A",DEBATE,SIGHT,Study1,U,73,62,Study,User,-,,Study/JOL,"Study Phase",2993,,,-1,-1,,,,1
w99603AHC,kuflmrzi1n,Relational_NO_JOL,1,39,2020-05-04T08:33:03-07:00,1.4774720668793,1,versionA_stim.csv,READVersionA.csv,"Read Version A","Relational, read only version A",SENTENCE,WORD,Study1,B,31,46,Study,User,-,,Study/JOL,"Study Phase",1192,,,-1,-1,,,,1
w99603AHC,kuflmrzi1n,Relational_NO_JOL,1,40,2020-05-04T08:33:07-07:00,3.6108601093292,1,versionA_stim.csv,READVersionA.csv,"Read Version A","Relational, read only version A",DIETARY,SACKING,Study1,U,67,59,Study,User,-,,Study/JOL,"Study Phase",3272,,,-1,-1,,,,1
w99603AHC,kuflmrzi1n,Relational_NO_JOL,1,41,2020-05-04T08:33:09-07:00,1.8163540363312,1,versionA_stim.csv,READVersionA.csv,"Read Version A","Relational, read only version A",MATH,DIVISION,Study1,B,33,81,Study,User,-,,Study/JOL,"Study Phase",1534,,,-1,-1,,,,1
w99603AHC,kuflmrzi1n,Relational_NO_JOL,1,42,2020-05-04T08:33:13-07:00,4.4565458297729,1,versionA_stim.csv,READVersionA.csv,"Read Version A","Relational, read only version A",GRILL,BAR,Study1,S,52,70,Study,User,-,,Study/JOL,"Study Phase",4175,,,-1,-1,,,,1
w99603AHC,kuflmrzi1n,Relational_NO_JOL,1,43,2020-05-04T08:33:15-07:00,1.9833271503448,1,versionA_stim.csv,READVersionA.csv,"Read Version A","Relational, read only version A",SWAN,BIRD,Study1,F,14,78,Study,User,-,,Study/JOL,"Study Phase",1694,,,-1,-1,,,,1
w99603AHC,kuflmrzi1n,Relational_NO_JOL,1,44,2020-05-04T08:33:20-07:00,4.6695380210876,1,versionA_stim.csv,READVersionA.csv,"Read Version A","Relational, read only version A",,,,,,0,Instruct,-,3,"Remember to focus on how the two items are similiar while you study!",,CHECK2,4392,,,-1,-1,,,,1
w99603AHC,kuflmrzi1n,Relational_NO_JOL,1,45,2020-05-04T08:33:23-07:00,3.7520508766174,1,versionA_stim.csv,READVersionA.csv,"Read Version A","Relational, read only version A",HIDE,SICK,Study1,U,84,53,Study,User,-,,Study/JOL,"Study Phase",3473,,,-1,-1,,,,1
w99603AHC,kuflmrzi1n,Relational_NO_JOL,1,46,2020-05-04T08:33:25-07:00,1.9655210971832,1,versionA_stim.csv,READVersionA.csv,"Read Version A","Relational, read only version A",DIGESTION,STOMACH,Study1,F,7,52,Study,User,-,,Study/JOL,"Study Phase",1692,,,-1,-1,,,,1
w99603AHC,kuflmrzi1n,Relational_NO_JOL,1,47,2020-05-04T08:33:27-07:00,1.7047250270844,1,versionA_stim.csv,READVersionA.csv,"Read Version A","Relational, read only version A",WAY,OUT,Study1,F,16,79,Study,User,-,,Study/JOL,"Study Phase",1421,,,-1,-1,,,,1
w99603AHC,kuflmrzi1n,Relational_NO_JOL,1,48,2020-05-04T08:33:29-07:00,1.5748307704926,1,versionA_stim.csv,READVersionA.csv,"Read Version A","Relational, read only version A",GEOLOGY,ROCK,Study1,F,19,15,Study,User,-,,Study/JOL,"Study Phase",1287,,,-1,-1,,,,1
w99603AHC,kuflmrzi1n,Relational_NO_JOL,1,49,2020-05-04T08:33:32-07:00,3.7086369991302,1,versionA_stim.csv,READVersionA.csv,"Read Version A","Relational, read only version A",CLOTHES,ATTIRE,Study1,B,43,66,Study,User,-,,Study/JOL,"Study Phase",3431,,,-1,-1,,,,1
w99603AHC,kuflmrzi1n,Relational_NO_JOL,1,50,2020-05-04T08:33:35-07:00,2.6057860851288,1,versionA_stim.csv,READVersionA.csv,"Read Version A","Relational, read only version A",SUGAR,RIDDLE,Study1,U,81,47,Study,User,-,,Study/JOL,"Study Phase",2321,,,-1,-1,,,,1
w99603AHC,kuflmrzi1n,Relational_NO_JOL,1,51,2020-05-04T08:33:38-07:00,3.1248850822449,1,versionA_stim.csv,READVersionA.csv,"Read Version A","Relational, read only version A",ARTERY,BRONZE,Study1,U,74,83,Study,User,-,,Study/JOL,"Study Phase",2840,,,-1,-1,,,,1
w99603AHC,kuflmrzi1n,Relational_NO_JOL,1,52,2020-05-04T08:33:41-07:00,2.9193520545959,1,versionA_stim.csv,READVersionA.csv,"Read Version A","Relational, read only version A",MACHINE,POSITION,Study1,U,76,50,Study,User,-,,Study/JOL,"Study Phase",2642,,,-1,-1,,,,1
w99603AHC,kuflmrzi1n,Relational_NO_JOL,1,53,2020-05-04T08:33:44-07:00,2.5086259841919,1,versionA_stim.csv,READVersionA.csv,"Read Version A","Relational, read only version A",ARCHITECTURE,DESIGN,Study1,S,51,29,Study,User,-,,Study/JOL,"Study Phase",2201,,,-1,-1,,,,1
w99603AHC,kuflmrzi1n,Relational_NO_JOL,1,54,2020-05-04T08:33:46-07:00,2.337418794632,1,versionA_stim.csv,READVersionA.csv,"Read Version A","Relational, read only version A",CHISEL,HAMMER,Study1,F,9,34,Study,User,-,,Study/JOL,"Study Phase",1679,,,-1,-1,,,,1
w99603AHC,kuflmrzi1n,Relational_NO_JOL,1,55,2020-05-04T08:33:48-07:00,2.196711063385,1,versionA_stim.csv,READVersionA.csv,"Read Version A","Relational, read only version A",NUMBER,AMOUNT,Study1,S,47,56,Study,User,-,,Study/JOL,"Study Phase",1763,,,-1,-1,,,,1
w99603AHC,kuflmrzi1n,Relational_NO_JOL,1,56,2020-05-04T08:33:51-07:00,2.7731621265411,1,versionA_stim.csv,READVersionA.csv,"Read Version A","Relational, read only version A",ALLOW,TUCK,Study1,U,78,67,Study,User,-,,Study/JOL,"Study Phase",2478,,,-1,-1,,,,1
w99603AHC,kuflmrzi1n,Relational_NO_JOL,1,57,2020-05-04T08:33:53-07:00,2.1063299179077,1,versionA_stim.csv,READVersionA.csv,"Read Version A","Relational, read only version A",REVOLUTION,WAR,Study1,F,20,64,Study,User,-,,Study/JOL,"Study Phase",1821,,,-1,-1,,,,1
w99603AHC,kuflmrzi1n,Relational_NO_JOL,1,58,2020-05-04T08:33:55-07:00,2.2431790828705,1,versionA_stim.csv,READVersionA.csv,"Read Version A","Relational, read only version A",LOCATION,SITE,Study1,S,48,84,Study,User,-,,Study/JOL,"Study Phase",1957,,,-1,-1,,,,1
w99603AHC,kuflmrzi1n,Relational_NO_JOL,1,59,2020-05-04T08:33:58-07:00,3.198961019516,1,versionA_stim.csv,READVersionA.csv,"Read Version A","Relational, read only version A",KING,VASE,Study1,U,85,36,Study,User,-,,Study/JOL,"Study Phase",2901,,,-1,-1,,,,1
w99603AHC,kuflmrzi1n,Relational_NO_JOL,1,60,2020-05-04T08:34:00-07:00,1.6992030143738,1,versionA_stim.csv,READVersionA.csv,"Read Version A","Relational, read only version A",HYGIENE,CLEAN,Study1,F,17,86,Study,User,-,,Study/JOL,"Study Phase",1394,,,-1,-1,,,,1
w99603AHC,kuflmrzi1n,Relational_NO_JOL,1,61,2020-05-04T08:34:02-07:00,2.2777647972107,1,versionA_stim.csv,READVersionA.csv,"Read Version A","Relational, read only version A",KEY,LATCH,Study1,B,36,27,Study,User,-,,Study/JOL,"Study Phase",1990,,,-1,-1,,,,1
w99603AHC,kuflmrzi1n,Relational_NO_JOL,1,62,2020-05-04T08:34:04-07:00,1.4767420291901,1,versionA_stim.csv,READVersionA.csv,"Read Version A","Relational, read only version A",DUMP,WASTE,Study1,S,49,25,Study,User,-,,Study/JOL,"Study Phase",1204,,,-1,-1,,,,1
w99603AHC,kuflmrzi1n,Relational_NO_JOL,1,63,2020-05-04T08:34:05-07:00,1.4846041202545,1,versionA_stim.csv,READVersionA.csv,"Read Version A","Relational, read only version A",ROOT,PLANT,Study1,F,13,55,Study,User,-,,Study/JOL,"Study Phase",1198,,,-1,-1,,,,1
w99603AHC,kuflmrzi1n,Relational_NO_JOL,1,64,2020-05-04T08:34:08-07:00,2.29057097435,1,versionA_stim.csv,READVersionA.csv,"Read Version A","Relational, read only version A",PARK,HUNGRY,Study1,U,68,61,Study,User,-,,Study/JOL,"Study Phase",2016,,,-1,-1,,,,1
w99603AHC,kuflmrzi1n,Relational_NO_JOL,1,65,2020-05-04T08:34:09-07:00,1.7521078586578,1,versionA_stim.csv,READVersionA.csv,"Read Version A","Relational, read only version A",DUE,ASSIGNMENT,Study1,S,46,7,Study,User,-,,Study/JOL,"Study Phase",1478,,,-1,-1,,,,1
w99603AHC,kuflmrzi1n,Relational_NO_JOL,1,66,2020-05-04T08:34:11-07:00,1.8530230522156,1,versionA_stim.csv,READVersionA.csv,"Read Version A","Relational, read only version A",BLOW,WIND,Study1,S,55,18,Study,User,-,,Study/JOL,"Study Phase",1569,,,-1,-1,,,,1
w99603AHC,kuflmrzi1n,Relational_NO_JOL,1,67,2020-05-04T08:34:14-07:00,2.9465980529785,1,versionA_stim.csv,READVersionA.csv,"Read Version A","Relational, read only version A",MEANING,DEFINITION,Study1,S,62,74,Study,User,-,,Study/JOL,"Study Phase",2669,,,-1,-1,,,,1
w99603AHC,kuflmrzi1n,Relational_NO_JOL,1,68,2020-05-04T08:34:17-07:00,2.7151629924774,1,versionA_stim.csv,READVersionA.csv,"Read Version A","Relational, read only version A",HAPPY,CAR,Study1,U,77,31,Study,User,-,,Study/JOL,"Study Phase",2439,,,-1,-1,,,,1
w99603AHC,kuflmrzi1n,Relational_NO_JOL,1,69,2020-05-04T08:34:28-07:00,11.41466999054,1,versionA_stim.csv,READVersionA.csv,"Read Version A","Relational, read only version A",BITTER,COLD,Study1,F,12,72,Study,User,-,,Study/JOL,"Study Phase",11141,,,-1,-1,,,,0.196
w99603AHC,kuflmrzi1n,Relational_NO_JOL,1,70,2020-05-04T08:34:30-07:00,1.6802780628204,1,versionA_stim.csv,READVersionA.csv,"Read Version A","Relational, read only version A",SOON,BELT,Study1,U,70,68,Study,User,-,,Study/JOL,"Study Phase",1394,,,-1,-1,,,,1
w99603AHC,kuflmrzi1n,Relational_NO_JOL,1,71,2020-05-04T08:34:31-07:00,1.5197699069977,1,versionA_stim.csv,READVersionA.csv,"Read Version A","Relational, read only version A",TRIAL,JURY,Study1,S,50,73,Study,User,-,,Study/JOL,"Study Phase",1222,,,-1,-1,,,,1
w99603AHC,kuflmrzi1n,Relational_NO_JOL,1,72,2020-05-04T08:34:33-07:00,1.2741911411285,1,versionA_stim.csv,READVersionA.csv,"Read Version A","Relational, read only version A",GREAT,FANTASTIC,Study1,B,35,13,Study,User,-,,Study/JOL,"Study Phase",996,,,-1,-1,,,,1
w99603AHC,kuflmrzi1n,Relational_NO_JOL,1,73,2020-05-04T08:34:34-07:00,1.606153011322,1,versionA_stim.csv,READVersionA.csv,"Read Version A","Relational, read only version A",HEIGHT,GROWTH,Study1,B,30,44,Study,User,-,,Study/JOL,"Study Phase",1316,,,-1,-1,,,,1
w99603AHC,kuflmrzi1n,Relational_NO_JOL,1,74,2020-05-04T08:34:35-07:00,1.123703956604,1,versionA_stim.csv,READVersionA.csv,"Read Version A","Relational, read only version A",SMELL,STENCH,Study1,B,42,33,Study,User,-,,Study/JOL,"Study Phase",913,,,-1,-1,,,,1
w99603AHC,kuflmrzi1n,Relational_NO_JOL,1,75,2020-05-04T08:34:36-07:00,1.0082449913025,1,versionA_stim.csv,READVersionA.csv,"Read Version A","Relational, read only version A",CIRCLE,ROUND,Study1,S,65,32,Study,User,-,,Study/JOL,"Study Phase",790,,,-1,-1,,,,1
w99603AHC,kuflmrzi1n,Relational_NO_JOL,1,76,2020-05-04T08:34:38-07:00,1.4720559120178,1,versionA_stim.csv,READVersionA.csv,"Read Version A","Relational, read only version A",EDITOR,NEWS,Study1,F,10,38,Study,User,-,,Study/JOL,"Study Phase",1177,,,-1,-1,,,,1
w99603AHC,kuflmrzi1n,Relational_NO_JOL,1,77,2020-05-04T08:34:40-07:00,2.3718831539154,1,versionA_stim.csv,READVersionA.csv,"Read Version A","Relational, read only version A",SHOE,FOOT,Study1,S,60,75,Study,User,-,,Study/JOL,"Study Phase",2092,,,-1,-1,,,,1
w99603AHC,kuflmrzi1n,Relational_NO_JOL,1,78,2020-05-04T08:34:43-07:00,2.4904119968414,1,versionA_stim.csv,READVersionA.csv,"Read Version A","Relational, read only version A",TAKE,SEIZE,Study1,B,29,37,Study,User,-,,Study/JOL,"Study Phase",2211,,,-1,-1,,,,1
w99603AHC,kuflmrzi1n,Relational_NO_JOL,1,79,2020-05-04T08:34:45-07:00,1.798232793808,1,versionA_stim.csv,READVersionA.csv,"Read Version A","Relational, read only version A",LAW,ATTORNEY,Study1,B,34,20,Study,User,-,,Study/JOL,"Study Phase",1521,,,-1,-1,,,,1
w99603AHC,kuflmrzi1n,Relational_NO_JOL,1,80,2020-05-04T08:34:47-07:00,2.7649431228638,1,versionA_stim.csv,READVersionA.csv,"Read Version A","Relational, read only version A",CREDIT,CARD,Study1,F,23,43,Study,User,-,,Study/JOL,"Study Phase",2480,,,-1,-1,,,,1
w99603AHC,kuflmrzi1n,Relational_NO_JOL,1,81,2020-05-04T08:34:49-07:00,1.849536895752,1,versionA_stim.csv,READVersionA.csv,"Read Version A","Relational, read only version A",FIRE,BLAZE,Study1,B,45,41,Study,User,-,,Study/JOL,"Study Phase",1553,,,-1,-1,,,,1
w99603AHC,kuflmrzi1n,Relational_NO_JOL,1,82,2020-05-04T08:34:51-07:00,1.3672449588776,1,versionA_stim.csv,READVersionA.csv,"Read Version A","Relational, read only version A",DARK,CAVE,Study1,B,28,35,Study,User,-,,Study/JOL,"Study Phase",1088,,,-1,-1,,,,1
w99603AHC,kuflmrzi1n,Relational_NO_JOL,1,83,2020-05-04T08:34:53-07:00,2.1256492137909,1,versionA_stim.csv,READVersionA.csv,"Read Version A","Relational, read only version A",PAW,DOG,Study1,F,15,80,Study,User,-,,Study/JOL,"Study Phase",1839,,,-1,-1,,,,1
w99603AHC,kuflmrzi1n,Relational_NO_JOL,1,84,2020-05-04T08:34:55-07:00,2.0841999053955,1,versionA_stim.csv,READVersionA.csv,"Read Version A","Relational, read only version A",HUNGER,FAMINE,Study1,B,40,82,Study,User,-,,Study/JOL,"Study Phase",1808,,,-1,-1,,,,1
w99603AHC,kuflmrzi1n,Relational_NO_JOL,1,85,2020-05-04T08:34:56-07:00,1.2993810176849,1,versionA_stim.csv,READVersionA.csv,"Read Version A","Relational, read only version A",TUNA,FISH,Study1,F,25,16,Study,User,-,,Study/JOL,"Study Phase",1016,,,-1,-1,,,,1
w99603AHC,kuflmrzi1n,Relational_NO_JOL,1,86,2020-05-04T08:34:58-07:00,1.60688996315,1,versionA_stim.csv,READVersionA.csv,"Read Version A","Relational, read only version A",ORCHID,FLOWER,Study1,F,24,23,Study,User,-,,Study/JOL,"Study Phase",1312,,,-1,-1,,,,1
w99603AHC,kuflmrzi1n,Relational_NO_JOL,1,87,2020-05-04T08:35:00-07:00,2.4598591327667,1,versionA_stim.csv,READVersionA.csv,"Read Version A","Relational, read only version A",DISCOVER,FLOOR,Study1,U,71,60,Study,User,-,,Study/JOL,"Study Phase",2189,,,-1,-1,,,,1
w99603AHC,kuflmrzi1n,Relational_NO_JOL,1,88,2020-05-04T08:35:02-07:00,1.7782609462738,1,versionA_stim.csv,READVersionA.csv,"Read Version A","Relational, read only version A",DISCUSSION,TALK,Study1,F,21,17,Study,User,-,,Study/JOL,"Study Phase",1484,,,-1,-1,,,,1
w99603AHC,kuflmrzi1n,Relational_NO_JOL,1,89,2020-05-04T08:35:04-07:00,2.3643229007721,1,versionA_stim.csv,READVersionA.csv,"Read Version A","Relational, read only version A",ART,LION,Study1,U,79,71,Study,User,-,,Study/JOL,"Study Phase",2056,,,-1,-1,,,,1
w99603AHC,kuflmrzi1n,Relational_NO_JOL,1,90,2020-05-04T08:35:06-07:00,1.5948560237885,1,versionA_stim.csv,READVersionA.csv,"Read Version A","Relational, read only version A",WORK,CHORE,Study1,B,39,26,Study,User,-,,Study/JOL,"Study Phase",1321,,,-1,-1,,,,1
w99603AHC,kuflmrzi1n,Relational_NO_JOL,1,91,2020-05-04T08:35:08-07:00,2.1452939510345,1,versionA_stim.csv,READVersionA.csv,"Read Version A","Relational, read only version A",MALT,CHOCOLATE,BUFFER2,Buffer,88,89,Study,User,-,,Study/JOL,BUFFER2,1762,,,-1,-1,,,,1
w99603AHC,kuflmrzi1n,Relational_NO_JOL,1,92,2020-05-04T08:35:10-07:00,2.2792410850525,1,versionA_stim.csv,READVersionA.csv,"Read Version A","Relational, read only version A",THING,STUFF,BUFFER2,Buffer,90,90,Study,User,-,,Study/JOL,BUFFER2,1985,,,-1,-1,,,,1
w99603AHC,kuflmrzi1n,Relational_NO_JOL,1,93,2020-05-04T08:35:12-07:00,1.5433349609375,1,versionA_stim.csv,READVersionA.csv,"Read Version A","Relational, read only version A",GEESE,GOOSE,BUFFER2,Buffer,86,87,Study,User,-,,Study/JOL,BUFFER2,1267,,,-1,-1,,,,1
w99603AHC,kuflmrzi1n,Relational_NO_JOL,1,94,2020-05-04T08:35:13-07:00,1.3048748970032,1,versionA_stim.csv,READVersionA.csv,"Read Version A","Relational, read only version A",MOON,SPACE,BUFFER2,Buffer,89,91,Study,User,-,,Study/JOL,BUFFER2,1021,,,-1,-1,,,,1
w99603AHC,kuflmrzi1n,Relational_NO_JOL,1,95,2020-05-04T08:35:15-07:00,1.6040120124817,1,versionA_stim.csv,READVersionA.csv,"Read Version A","Relational, read only version A",SHERRIF,POLICE,BUFFER2,Buffer,87,88,Study,User,-,,Study/JOL,BUFFER2,1309,,,-1,-1,,,,1
w99603AHC,kuflmrzi1n,Relational_NO_JOL,1,96,2020-05-04T08:35:17-07:00,2.3318831920624,1,versionA_stim.csv,READVersionA.csv,"Read Version A","Relational, read only version A",,,,,,0,Instruct,User,-,"You have completed this section. Please press Enter.",Filler_Instruction,Instruct2,2055,,,-1,-1,,,,1
w99603AHC,kuflmrzi1n,Relational_NO_JOL,1,97,2020-05-04T08:35:22-07:00,4.4957258701324,1,versionA_stim.csv,READVersionA.csv,"Read Version A","Relational, read only version A",,,,,,0,Instruct,User,-,"You have completed this section. Please press Enter.",Filler_Instruction,Instruct5,4204,,,-1,-1,,,,1
w99603AHC,kuflmrzi1n,Relational_NO_JOL,1,98,2020-05-04T08:35:37-07:00,15.463094949722,1,versionA_stim.csv,READVersionA.csv,"Read Version A","Relational, read only version A",,,,,,0,FreeRecall,-,10,"What were you supposed to focus on while you studied each pair? (Hint: Think back to the instructions). Type your answer in the space below.",,CHECK3,15166,"How the two words relate to one another",0,5388,13414,0,0,,1
w99603AHC,kuflmrzi1n,Relational_NO_JOL,1,99,2020-05-04T08:37:37-07:00,120.30183005333,1,versionA_stim.csv,READVersionA.csv,"Read Version A","Relational, read only version A",,,,,,0,FreeRecall,120,120,"Please list the 50 US states in alphabetical order. The task will automatically advance to the next screen after two minutes.",,Filler1,120002,"Alaska, Arkansas, alabama, albequrke, california, Connecticut, Georgia, kansas, Minnesota, Nebraska ",0,13412,113214,0,0,,1
w99603AHC,kuflmrzi1n,Relational_NO_JOL,1,100,2020-05-04T08:37:50-07:00,12.325798988342,1,versionA_stim.csv,READVersionA.csv,"Read Version A","Relational, read only version A",,,,,,0,Instruct,-,10,"You will now be presented with the first word from each of the previously studied item pairs. Please type the missing word. If you do not know the word, you may guess or press Enter to skip forward to the next pair.",,Instruct3,12051,,,-1,-1,,,,1
w99603AHC,kuflmrzi1n,Relational_NO_JOL,1,101,2020-05-04T08:37:55-07:00,5.4564061164856,1,versionA_stim.csv,READVersionA.csv,"Read Version A","Relational, read only version A",PARK,HUNGRY,Study1,U,68,61,Test,User,-,,Recall,Recall1,5161,hungry,100,3130,4082,1,1,,1
w99603AHC,kuflmrzi1n,Relational_NO_JOL,1,102,2020-05-04T08:37:59-07:00,3.7340149879456,1,versionA_stim.csv,READVersionA.csv,"Read Version A","Relational, read only version A",KING,VASE,Study1,U,85,36,Test,User,-,,Recall,Recall1,3443,vase,100,2081,2545,1,1,,1
w99603AHC,kuflmrzi1n,Relational_NO_JOL,1,103,2020-05-04T08:38:04-07:00,4.8599510192871,1,versionA_stim.csv,READVersionA.csv,"Read Version A","Relational, read only version A",GRILL,BAR,Study1,S,52,70,Test,User,-,,Recall,Recall1,4568,,0,-1,-1,0,0,,1
w99603AHC,kuflmrzi1n,Relational_NO_JOL,1,104,2020-05-04T08:38:07-07:00,3.3634078502655,1,versionA_stim.csv,READVersionA.csv,"Read Version A","Relational, read only version A",HAPPY,CAR,Study1,U,77,31,Test,User,-,,Recall,Recall1,3086,,0,-1,-1,0,0,,1
w99603AHC,kuflmrzi1n,Relational_NO_JOL,1,105,2020-05-04T08:38:12-07:00,4.9761099815369,1,versionA_stim.csv,READVersionA.csv,"Read Version A","Relational, read only version A",CLOTHES,ATTIRE,Study1,B,43,66,Test,User,-,,Recall,Recall1,4699,attire,100,1627,3881,1,1,,1
w99603AHC,kuflmrzi1n,Relational_NO_JOL,1,106,2020-05-04T08:38:16-07:00,3.5397741794586,1,versionA_stim.csv,READVersionA.csv,"Read Version A","Relational, read only version A",HYGIENE,CLEAN,Study1,F,17,86,Test,User,-,,Recall,Recall1,3256,clean,100,1201,1807,1,1,,1
w99603AHC,kuflmrzi1n,Relational_NO_JOL,1,107,2020-05-04T08:38:19-07:00,3.7861328125,1,versionA_stim.csv,READVersionA.csv,"Read Version A","Relational, read only version A",CREDIT,CARD,Study1,F,23,43,Test,User,-,,Recall,Recall1,3473,,0,-1,-1,0,0,,1
w99603AHC,kuflmrzi1n,Relational_NO_JOL,1,108,2020-05-04T08:38:23-07:00,3.771959066391,1,versionA_stim.csv,READVersionA.csv,"Read Version A","Relational, read only version A",HIDE,SICK,Study1,U,84,53,Test,User,-,,Recall,Recall1,3493,seek,50,1234,2609,0,0,,1
w99603AHC,kuflmrzi1n,Relational_NO_JOL,1,109,2020-05-04T08:38:28-07:00,4.4523530006409,1,versionA_stim.csv,READVersionA.csv,"Read Version A","Relational, read only version A",SENTENCE,WORD,Study1,B,31,46,Test,User,-,,Recall,Recall1,4163,word,100,2788,3247,1,1,,1
w99603AHC,kuflmrzi1n,Relational_NO_JOL,1,110,2020-05-04T08:38:34-07:00,6.1540651321411,1,versionA_stim.csv,READVersionA.csv,"Read Version A","Relational, read only version A",BUG,WASP,Study1,B,32,69,Test,User,-,,Recall,Recall1,5872,,0,-1,-1,0,0,,1
w99603AHC,kuflmrzi1n,Relational_NO_JOL,1,111,2020-05-04T08:38:38-07:00,4.6565430164337,1,versionA_stim.csv,READVersionA.csv,"Read Version A","Relational, read only version A",MACHINE,POSITION,Study1,U,76,50,Test,User,-,,Recall,Recall1,4357,washer,14.285714285714,1724,3584,0,0,,1
w99603AHC,kuflmrzi1n,Relational_NO_JOL,1,112,2020-05-04T08:38:45-07:00,6.5258939266205,1,versionA_stim.csv,READVersionA.csv,"Read Version A","Relational, read only version A",DARK,CAVE,Study1,B,28,35,Test,User,-,,Recall,Recall1,6101,night,0,2082,5211,0,0,,1
w99603AHC,kuflmrzi1n,Relational_NO_JOL,1,113,2020-05-04T08:38:49-07:00,3.6635849475861,1,versionA_stim.csv,READVersionA.csv,"Read Version A","Relational, read only version A",KEY,LATCH,Study1,B,36,27,Test,User,-,,Recall,Recall1,3278,,0,-1,-1,0,0,,1
w99603AHC,kuflmrzi1n,Relational_NO_JOL,1,114,2020-05-04T08:38:54-07:00,5.6165759563446,1,versionA_stim.csv,READVersionA.csv,"Read Version A","Relational, read only version A",CIRCLE,ROUND,Study1,S,65,32,Test,User,-,,Recall,Recall1,5332,round,100,3316,4244,1,1,,1
w99603AHC,kuflmrzi1n,Relational_NO_JOL,1,115,2020-05-04T08:38:59-07:00,4.3945260047913,1,versionA_stim.csv,READVersionA.csv,"Read Version A","Relational, read only version A",HERD,COW,Study1,F,22,85,Test,User,-,,Recall,Recall1,4102,cow,100,1184,2594,1,1,,1
w99603AHC,kuflmrzi1n,Relational_NO_JOL,1,116,2020-05-04T08:39:04-07:00,5.4847519397736,1,versionA_stim.csv,READVersionA.csv,"Read Version A","Relational, read only version A",REVOLUTION,WAR,Study1,F,20,64,Test,User,-,,Recall,Recall1,5185,war,100,3843,4270,1,1,,1
w99603AHC,kuflmrzi1n,Relational_NO_JOL,1,117,2020-05-04T08:39:08-07:00,4.2146651744843,1,versionA_stim.csv,READVersionA.csv,"Read Version A","Relational, read only version A",FIRE,BLAZE,Study1,B,45,41,Test,User,-,,Recall,Recall1,3873,,0,-1,-1,0,0,,1
w99603AHC,kuflmrzi1n,Relational_NO_JOL,1,118,2020-05-04T08:39:12-07:00,4.0196068286896,1,versionA_stim.csv,READVersionA.csv,"Read Version A","Relational, read only version A",POP,SODA,Study1,S,56,30,Test,User,-,,Recall,Recall1,3712,soda,100,2567,2938,1,1,,1
w99603AHC,kuflmrzi1n,Relational_NO_JOL,1,119,2020-05-04T08:39:23-07:00,10.991376161575,1,versionA_stim.csv,READVersionA.csv,"Read Version A","Relational, read only version A",FULL,ENOUGH,Study1,B,26,40,Test,User,-,,Recall,Recall1,10708,,0,-1,-1,0,0,,1
w99603AHC,kuflmrzi1n,Relational_NO_JOL,1,120,2020-05-04T08:39:28-07:00,4.1306250095367,1,versionA_stim.csv,READVersionA.csv,"Read Version A","Relational, read only version A",MATH,DIVISION,Study1,B,33,81,Test,User,-,,Recall,Recall1,3841,divison,93.333333333333,1540,2807,0,1,,1
w99603AHC,kuflmrzi1n,Relational_NO_JOL,1,121,2020-05-04T08:39:31-07:00,3.0945780277252,1,versionA_stim.csv,READVersionA.csv,"Read Version A","Relational, read only version A",CHISEL,HAMMER,Study1,F,9,34,Test,User,-,,Recall,Recall1,2806,,0,-1,-1,0,0,,1
w99603AHC,kuflmrzi1n,Relational_NO_JOL,1,122,2020-05-04T08:39:38-07:00,7.49343085289,1,versionA_stim.csv,READVersionA.csv,"Read Version A","Relational, read only version A",DUE,ASSIGNMENT,Study1,S,46,7,Test,User,-,,Recall,Recall1,7208,assignment,100,1224,6318,1,1,,1
w99603AHC,kuflmrzi1n,Relational_NO_JOL,1,123,2020-05-04T08:39:42-07:00,3.6757681369781,1,versionA_stim.csv,READVersionA.csv,"Read Version A","Relational, read only version A",GEOLOGY,ROCK,Study1,F,19,15,Test,User,-,,Recall,Recall1,3386,map,0,2095,2380,0,0,,1
w99603AHC,kuflmrzi1n,Relational_NO_JOL,1,124,2020-05-04T08:39:45-07:00,3.3304769992828,1,versionA_stim.csv,READVersionA.csv,"Read Version A","Relational, read only version A",TRIAL,JURY,Study1,S,50,73,Test,User,-,,Recall,Recall1,3030,error,22.222222222222,1349,2091,0,0,,1
w99603AHC,kuflmrzi1n,Relational_NO_JOL,1,125,2020-05-04T08:39:50-07:00,4.8702759742737,1,versionA_stim.csv,READVersionA.csv,"Read Version A","Relational, read only version A",DIGESTION,STOMACH,Study1,F,7,52,Test,User,-,,Recall,Recall1,4582,stomach,100,2513,3617,1,1,,1
w99603AHC,kuflmrzi1n,Relational_NO_JOL,1,126,2020-05-04T08:39:54-07:00,3.8272550106049,1,versionA_stim.csv,READVersionA.csv,"Read Version A","Relational, read only version A",CASH,WOULD,Study1,U,83,8,Test,User,-,,Recall,Recall1,3542,money,20,1807,2509,0,0,,1
w99603AHC,kuflmrzi1n,Relational_NO_JOL,1,127,2020-05-04T08:39:59-07:00,5.0755939483643,1,versionA_stim.csv,READVersionA.csv,"Read Version A","Relational, read only version A",TAKE,SEIZE,Study1,B,29,37,Test,User,-,,Recall,Recall1,4789,sieze,80,1929,3321,0,1,,1
w99603AHC,kuflmrzi1n,Relational_NO_JOL,1,128,2020-05-04T08:40:02-07:00,3.4001829624176,1,versionA_stim.csv,READVersionA.csv,"Read Version A","Relational, read only version A",DEBATE,SIGHT,Study1,U,73,62,Test,User,-,,Recall,Recall1,3108,,0,-1,-1,0,0,,1
w99603AHC,kuflmrzi1n,Relational_NO_JOL,1,129,2020-05-04T08:40:06-07:00,4.1438360214233,1,versionA_stim.csv,READVersionA.csv,"Read Version A","Relational, read only version A",ARCHITECTURE,DESIGN,Study1,S,51,29,Test,User,-,,Recall,Recall1,3855,,0,-1,-1,0,0,,1
w99603AHC,kuflmrzi1n,Relational_NO_JOL,1,130,2020-05-04T08:40:12-07:00,5.5344309806824,1,versionA_stim.csv,READVersionA.csv,"Read Version A","Relational, read only version A",BATHROOM,TOILET,Study1,S,58,10,Test,User,-,,Recall,Recall1,5249,toilet,100,2866,4173,1,1,,1
w99603AHC,kuflmrzi1n,Relational_NO_JOL,1,131,2020-05-04T08:40:15-07:00,2.8251149654388,1,versionA_stim.csv,READVersionA.csv,"Read Version A","Relational, read only version A",VALLEY,ADD,Study1,U,82,19,Test,User,-,,Recall,Recall1,2525,,0,-1,-1,0,0,,1
w99603AHC,kuflmrzi1n,Relational_NO_JOL,1,132,2020-05-04T08:40:39-07:00,24.073337078094,1,versionA_stim.csv,READVersionA.csv,"Read Version A","Relational, read only version A",PLANE,PILOT,Study1,B,44,21,Test,User,-,,Recall,Recall1,23788,pilot,100,1883,22486,1,1,,1
w99603AHC,kuflmrzi1n,Relational_NO_JOL,1,133,2020-05-04T08:40:42-07:00,3.517215013504,1,versionA_stim.csv,READVersionA.csv,"Read Version A","Relational, read only version A",TUNA,FISH,Study1,F,25,16,Test,User,-,,Recall,Recall1,3221,fish,100,2133,2994,1,1,,1
w99603AHC,kuflmrzi1n,Relational_NO_JOL,1,134,2020-05-04T08:40:44-07:00,1.447037935257,1,versionA_stim.csv,READVersionA.csv,"Read Version A","Relational, read only version A",LIFT,WOMAN,Study1,U,69,42,Test,User,-,,Recall,Recall1,1165,,0,-1,-1,0,0,,1
w99603AHC,kuflmrzi1n,Relational_NO_JOL,1,135,2020-05-04T08:40:46-07:00,2.0612051486969,1,versionA_stim.csv,READVersionA.csv,"Read Version A","Relational, read only version A",PAW,DOG,Study1,F,15,80,Test,User,-,,Recall,Recall1,1772,dog,100,1279,1563,1,1,,1
w99603AHC,kuflmrzi1n,Relational_NO_JOL,1,136,2020-05-04T08:40:48-07:00,1.646048784256,1,versionA_stim.csv,READVersionA.csv,"Read Version A","Relational, read only version A",HEIGHT,GROWTH,Study1,B,30,44,Test,User,-,,Recall,Recall1,1357,,0,-1,-1,0,0,,1
w99603AHC,kuflmrzi1n,Relational_NO_JOL,1,137,2020-05-04T08:40:51-07:00,3.2442901134491,1,versionA_stim.csv,READVersionA.csv,"Read Version A","Relational, read only version A",KIDNEY,LIVER,Study1,S,53,14,Test,User,-,,Recall,Recall1,2945,liver,100,2100,2822,1,1,,1
w99603AHC,kuflmrzi1n,Relational_NO_JOL,1,138,2020-05-04T08:40:54-07:00,3.1545519828796,1,versionA_stim.csv,READVersionA.csv,"Read Version A","Relational, read only version A",WINE,CHEESE,Study1,S,57,11,Test,User,-,,Recall,Recall1,2867,cheese,100,1647,2588,1,1,,1
w99603AHC,kuflmrzi1n,Relational_NO_JOL,1,139,2020-05-04T08:40:56-07:00,1.6186730861664,1,versionA_stim.csv,READVersionA.csv,"Read Version A","Relational, read only version A",GREAT,FANTASTIC,Study1,B,35,13,Test,User,-,,Recall,Recall1,1306,,0,-1,-1,0,0,,1
w99603AHC,kuflmrzi1n,Relational_NO_JOL,1,140,2020-05-04T08:40:57-07:00,1.2694427967072,1,versionA_stim.csv,READVersionA.csv,"Read Version A","Relational, read only version A",MEANING,DEFINITION,Study1,S,62,74,Test,User,-,,Recall,Recall1,986,,0,-1,-1,0,0,,1
w99603AHC,kuflmrzi1n,Relational_NO_JOL,1,141,2020-05-04T08:40:58-07:00,1.1425402164459,1,versionA_stim.csv,READVersionA.csv,"Read Version A","Relational, read only version A",DRINK,SIP,Study1,B,27,65,Test,User,-,,Recall,Recall1,925,,0,-1,-1,0,0,,1
w99603AHC,kuflmrzi1n,Relational_NO_JOL,1,142,2020-05-04T08:40:59-07:00,1.2953639030457,1,versionA_stim.csv,READVersionA.csv,"Read Version A","Relational, read only version A",ROOT,PLANT,Study1,F,13,55,Test,User,-,,Recall,Recall1,1006,,0,-1,-1,0,0,,1
w99603AHC,kuflmrzi1n,Relational_NO_JOL,1,143,2020-05-04T08:41:04-07:00,4.4754340648651,1,versionA_stim.csv,READVersionA.csv,"Read Version A","Relational, read only version A",LETTUCE,SALAD,Study1,S,59,39,Test,User,-,,Recall,Recall1,4188,salad,100,2512,4018,1,1,,1
w99603AHC,kuflmrzi1n,Relational_NO_JOL,1,144,2020-05-04T08:41:05-07:00,1.6312239170074,1,versionA_stim.csv,READVersionA.csv,"Read Version A","Relational, read only version A",SHOE,FOOT,Study1,S,60,75,Test,User,-,,Recall,Recall1,1353,,0,-1,-1,0,0,,1
w99603AHC,kuflmrzi1n,Relational_NO_JOL,1,145,2020-05-04T08:41:14-07:00,8.4836111068726,1,versionA_stim.csv,READVersionA.csv,"Read Version A","Relational, read only version A",BABY,CHILD,Study1,S,64,22,Test,User,-,,Recall,Recall1,8191,infant,18.181818181818,1820,7940,0,0,,1
w99603AHC,kuflmrzi1n,Relational_NO_JOL,1,146,2020-05-04T08:41:19-07:00,5.6321158409119,1,versionA_stim.csv,READVersionA.csv,"Read Version A","Relational, read only version A",HUNGER,FAMINE,Study1,B,40,82,Test,User,-,,Recall,Recall1,5328,park,20,2468,5003,0,0,,1
w99603AHC,kuflmrzi1n,Relational_NO_JOL,1,147,2020-05-04T08:41:22-07:00,3.0295941829681,1,versionA_stim.csv,READVersionA.csv,"Read Version A","Relational, read only version A",SWAN,BIRD,Study1,F,14,78,Test,User,-,,Recall,Recall1,2740,lake,0,1980,2477,0,0,,1
w99603AHC,kuflmrzi1n,Relational_NO_JOL,1,148,2020-05-04T08:41:24-07:00,1.416218996048,1,versionA_stim.csv,READVersionA.csv,"Read Version A","Relational, read only version A",EDITOR,NEWS,Study1,F,10,38,Test,User,-,,Recall,Recall1,1113,,0,-1,-1,0,0,,1
w99603AHC,kuflmrzi1n,Relational_NO_JOL,1,149,2020-05-04T08:41:28-07:00,3.8133029937744,1,versionA_stim.csv,READVersionA.csv,"Read Version A","Relational, read only version A",PUSHER,CLUTTER,Study1,U,66,63,Test,User,-,,Recall,Recall1,3507,,0,-1,-1,0,0,,1
w99603AHC,kuflmrzi1n,Relational_NO_JOL,1,150,2020-05-04T08:41:29-07:00,1.4604527950287,1,versionA_stim.csv,READVersionA.csv,"Read Version A","Relational, read only version A",BLOW,WIND,Study1,S,55,18,Test,User,-,,Recall,Recall1,1147,,0,-1,-1,0,0,,1
w99603AHC,kuflmrzi1n,Relational_NO_JOL,1,151,2020-05-04T08:41:32-07:00,2.7302331924438,1,versionA_stim.csv,READVersionA.csv,"Read Version A","Relational, read only version A",DELINQUENT,BAD,Study1,F,6,58,Test,User,-,,Recall,Recall1,2446,bad,100,1543,2137,1,1,,1
w99603AHC,kuflmrzi1n,Relational_NO_JOL,1,152,2020-05-04T08:41:35-07:00,3.496025800705,1,versionA_stim.csv,READVersionA.csv,"Read Version A","Relational, read only version A",FIX,HAND,Study1,U,75,45,Test,User,-,,Recall,Recall1,3214,hand,100,2504,2965,1,1,,1
w99603AHC,kuflmrzi1n,Relational_NO_JOL,1,153,2020-05-04T08:41:37-07:00,1.3156800270081,1,versionA_stim.csv,READVersionA.csv,"Read Version A","Relational, read only version A",SMELL,STENCH,Study1,B,42,33,Test,User,-,,Recall,Recall1,1031,,0,-1,-1,0,0,,1
w99603AHC,kuflmrzi1n,Relational_NO_JOL,1,154,2020-05-04T08:41:38-07:00,1.5706081390381,1,versionA_stim.csv,READVersionA.csv,"Read Version A","Relational, read only version A",BITTER,COLD,Study1,F,12,72,Test,User,-,,Recall,Recall1,1271,,0,-1,-1,0,0,,1
w99603AHC,kuflmrzi1n,Relational_NO_JOL,1,155,2020-05-04T08:41:40-07:00,1.4210069179535,1,versionA_stim.csv,READVersionA.csv,"Read Version A","Relational, read only version A",HOT,CHILI,Study1,B,37,51,Test,User,-,,Recall,Recall1,1135,,0,-1,-1,0,0,,1
w99603AHC,kuflmrzi1n,Relational_NO_JOL,1,156,2020-05-04T08:41:41-07:00,1.1196310520172,1,versionA_stim.csv,READVersionA.csv,"Read Version A","Relational, read only version A",SUGAR,RIDDLE,Study1,U,81,47,Test,User,-,,Recall,Recall1,901,,0,-1,-1,0,0,,1
w99603AHC,kuflmrzi1n,Relational_NO_JOL,1,157,2020-05-04T08:41:42-07:00,1.0355670452118,1,versionA_stim.csv,READVersionA.csv,"Read Version A","Relational, read only version A",SOON,BELT,Study1,U,70,68,Test,User,-,,Recall,Recall1,814,,0,-1,-1,0,0,,1
w99603AHC,kuflmrzi1n,Relational_NO_JOL,1,158,2020-05-04T08:41:45-07:00,3.4436168670654,1,versionA_stim.csv,READVersionA.csv,"Read Version A","Relational, read only version A",WORK,CHORE,Study1,B,39,26,Test,User,-,,Recall,Recall1,3154,,0,-1,-1,0,0,,1
w99603AHC,kuflmrzi1n,Relational_NO_JOL,1,159,2020-05-04T08:41:48-07:00,3.0289070606232,1,versionA_stim.csv,READVersionA.csv,"Read Version A","Relational, read only version A",PAST,FUTURE,Study1,S,61,28,Test,User,-,,Recall,Recall1,2745,future,100,1431,2258,1,1,,1
w99603AHC,kuflmrzi1n,Relational_NO_JOL,1,160,2020-05-04T08:41:53-07:00,4.2180790901184,1,versionA_stim.csv,READVersionA.csv,"Read Version A","Relational, read only version A",DUMP,WASTE,Study1,S,49,25,Test,User,-,,Recall,Recall1,3904,,0,-1,-1,0,0,,1
w99603AHC,kuflmrzi1n,Relational_NO_JOL,1,161,2020-05-04T08:41:56-07:00,3.6838529109955,1,versionA_stim.csv,READVersionA.csv,"Read Version A","Relational, read only version A",WAGE,MONEY,Study1,F,8,57,Test,User,-,,Recall,Recall1,3392,hourly,36.363636363636,2287,3035,0,0,,1
w99603AHC,kuflmrzi1n,Relational_NO_JOL,1,162,2020-05-04T08:42:00-07:00,4.0484819412231,1,versionA_stim.csv,READVersionA.csv,"Read Version A","Relational, read only version A",HORNET,STING,Study1,F,11,24,Test,User,-,,Recall,Recall1,3750,bug,25,2372,3554,0,0,,1
w99603AHC,kuflmrzi1n,Relational_NO_JOL,1,163,2020-05-04T08:42:03-07:00,2.2981951236725,1,versionA_stim.csv,READVersionA.csv,"Read Version A","Relational, read only version A",WAY,OUT,Study1,F,16,79,Test,User,-,,Recall,Recall1,2008,,0,-1,-1,0,0,,1
w99603AHC,kuflmrzi1n,Relational_NO_JOL,1,164,2020-05-04T08:42:05-07:00,2.328460931778,1,versionA_stim.csv,READVersionA.csv,"Read Version A","Relational, read only version A",DISCUSSION,TALK,Study1,F,21,17,Test,User,-,,Recall,Recall1,2046,,0,-1,-1,0,0,,1
w99603AHC,kuflmrzi1n,Relational_NO_JOL,1,165,2020-05-04T08:42:06-07:00,1.4117169380188,1,versionA_stim.csv,READVersionA.csv,"Read Version A","Relational, read only version A",ALLOW,TUCK,Study1,U,78,67,Test,User,-,,Recall,Recall1,1126,,0,-1,-1,0,0,,1
w99603AHC,kuflmrzi1n,Relational_NO_JOL,1,166,2020-05-04T08:42:12-07:00,5.8481290340424,1,versionA_stim.csv,READVersionA.csv,"Read Version A","Relational, read only version A",ARTERY,BRONZE,Study1,U,74,83,Test,User,-,,Recall,Recall1,5538,bronze,100,4223,5182,1,1,,1
w99603AHC,kuflmrzi1n,Relational_NO_JOL,1,167,2020-05-04T08:42:14-07:00,1.5838949680328,1,versionA_stim.csv,READVersionA.csv,"Read Version A","Relational, read only version A",ART,LION,Study1,U,79,71,Test,User,-,,Recall,Recall1,1299,,0,-1,-1,0,0,,1
w99603AHC,kuflmrzi1n,Relational_NO_JOL,1,168,2020-05-04T08:42:17-07:00,2.8645620346069,1,versionA_stim.csv,READVersionA.csv,"Read Version A","Relational, read only version A",DEATH,BUSINESS,Study1,U,72,76,Test,User,-,,Recall,Recall1,2581,,0,-1,-1,0,0,,1
w99603AHC,kuflmrzi1n,Relational_NO_JOL,1,169,2020-05-04T08:42:24-07:00,7.102756023407,1,versionA_stim.csv,READVersionA.csv,"Read Version A","Relational, read only version A",SLEEP,DROWSY,Study1,B,41,48,Test,User,-,,Recall,Recall1,6807,drowsey,92.307692307692,4918,6277,0,1,,1
w99603AHC,kuflmrzi1n,Relational_NO_JOL,1,170,2020-05-04T08:42:26-07:00,1.8685500621796,1,versionA_stim.csv,READVersionA.csv,"Read Version A","Relational, read only version A",DISCOVER,FLOOR,Study1,U,71,60,Test,User,-,,Recall,Recall1,1570,,0,-1,-1,0,0,,1
w99603AHC,kuflmrzi1n,Relational_NO_JOL,1,171,2020-05-04T08:42:28-07:00,2.8034999370575,1,versionA_stim.csv,READVersionA.csv,"Read Version A","Relational, read only version A",BRIDGE,WATER,Study1,F,18,54,Test,User,-,,Recall,Recall1,2509,water,100,1677,2345,1,1,,1
w99603AHC,kuflmrzi1n,Relational_NO_JOL,1,172,2020-05-04T08:42:30-07:00,1.8856089115143,1,versionA_stim.csv,READVersionA.csv,"Read Version A","Relational, read only version A",BEGIN,END,Study1,S,54,49,Test,User,-,,Recall,Recall1,1597,end,100,1064,1402,1,1,,1
w99603AHC,kuflmrzi1n,Relational_NO_JOL,1,173,2020-05-04T08:42:32-07:00,1.4438099861145,1,versionA_stim.csv,READVersionA.csv,"Read Version A","Relational, read only version A",STRONG,ACCIDENT,Study1,U,80,12,Test,User,-,,Recall,Recall1,1152,,0,-1,-1,0,0,,1
w99603AHC,kuflmrzi1n,Relational_NO_JOL,1,174,2020-05-04T08:42:33-07:00,1.7350490093231,1,versionA_stim.csv,READVersionA.csv,"Read Version A","Relational, read only version A",LAW,ATTORNEY,Study1,B,34,20,Test,User,-,,Recall,Recall1,1447,,0,-1,-1,0,0,,1
w99603AHC,kuflmrzi1n,Relational_NO_JOL,1,175,2020-05-04T08:42:36-07:00,2.9841480255127,1,versionA_stim.csv,READVersionA.csv,"Read Version A","Relational, read only version A",HONEY,BEE,Study1,S,63,9,Test,User,-,,Recall,Recall1,2683,bee,100,1901,2476,1,1,,1
w99603AHC,kuflmrzi1n,Relational_NO_JOL,1,176,2020-05-04T08:42:38-07:00,1.7990040779114,1,versionA_stim.csv,READVersionA.csv,"Read Version A","Relational, read only version A",LOCATION,SITE,Study1,S,48,84,Test,User,-,,Recall,Recall1,1505,,0,-1,-1,0,0,,1
w99603AHC,kuflmrzi1n,Relational_NO_JOL,1,177,2020-05-04T08:42:41-07:00,2.9374430179596,1,versionA_stim.csv,READVersionA.csv,"Read Version A","Relational, read only version A",ORCHID,FLOWER,Study1,F,24,23,Test,User,-,,Recall,Recall1,2654,flower,100,1403,2090,1,1,,1
w99603AHC,kuflmrzi1n,Relational_NO_JOL,1,178,2020-05-04T08:42:43-07:00,1.5945429801941,1,versionA_stim.csv,READVersionA.csv,"Read Version A","Relational, read only version A",DIETARY,SACKING,Study1,U,67,59,Test,User,-,,Recall,Recall1,1305,,0,-1,-1,0,0,,1
w99603AHC,kuflmrzi1n,Relational_NO_JOL,1,179,2020-05-04T08:42:44-07:00,1.6080319881439,1,versionA_stim.csv,READVersionA.csv,"Read Version A","Relational, read only version A",BALL,RACKET,Study1,B,38,77,Test,User,-,,Recall,Recall1,1307,,0,-1,-1,0,0,,1
w99603AHC,kuflmrzi1n,Relational_NO_JOL,1,180,2020-05-04T08:42:46-07:00,1.4012079238892,1,versionA_stim.csv,READVersionA.csv,"Read Version A","Relational, read only version A",NUMBER,AMOUNT,Study1,S,47,56,Test,User,-,,Recall,Recall1,1108,,0,-1,-1,0,0,,1
w99603AHC,kuflmrzi1n,Relational_NO_JOL,1,181,2020-05-04T08:42:58-07:00,11.825273036957,1,versionA_stim.csv,READVersionA.csv,"Read Version A","Relational, read only version A",,,,,,0,Instruct,-,10,"You will now be presented with a new set of word pairs. Please study each pair. Remember that your memory will be tested! When finished, press Enter to move to the next pair.",Initial_Instruct,Instruct4,11514,,,-1,-1,,,,1
w99603AHC,kuflmrzi1n,Relational_NO_JOL,1,182,2020-05-04T08:43:14-07:00,16.121659994125,1,versionA_stim.csv,READVersionA.csv,"Read Version A","Relational, read only version A",,,,,,0,Instruct,-,15,"As you study, please think about how the two concepts are RELATED to each other. For example, if you see the pair TURTLE-CAT, think about how both are alive, they are both animals, and both can be kept as pets.",,Instruct20,15839,,,-1,-1,,,,1
w99603AHC,kuflmrzi1n,Relational_NO_JOL,1,183,2020-05-04T08:43:28-07:00,14.355829000473,1,versionA_stim.csv,READVersionA.csv,"Read Version A","Relational, read only version A",,,,,,0,FreeRecall,-,10,"What you should think about as you study each item pair? Type your response in the box below.",,CHECK4,13949,"how they are related to one another ",0,3684,11586,0,0,,1
w99603AHC,kuflmrzi1n,Relational_NO_JOL,1,184,2020-05-04T08:46:52-07:00,203.76516008377,1,versionA_stim.csv,READVersionA.csv,"Read Version A","Relational, read only version A",,,,,,0,Instruct,User,-,"Press Enter when you are readty to begin",,Instruct11,203479,,,-1,-1,,,,0.887
w99603AHC,kuflmrzi1n,Relational_NO_JOL,1,185,2020-05-04T08:46:54-07:00,1.9162559509277,1,versionA_stim.csv,READVersionA.csv,"Read Version A","Relational, read only version A",CAMP,ADVENTURE,BUFFER3,Buffer,95,93,Study,User,-,,Study/JOL,BUFFER3,1610,,,-1,-1,,,,1
w99603AHC,kuflmrzi1n,Relational_NO_JOL,1,186,2020-05-04T08:46:56-07:00,2.1636350154877,1,versionA_stim.csv,READVersionA.csv,"Read Version A","Relational, read only version A",CARROT,POTATO,BUFFER3,Buffer,91,96,Study,User,-,,Study/JOL,BUFFER3,1427,,,-1,-1,,,,1
w99603AHC,kuflmrzi1n,Relational_NO_JOL,1,187,2020-05-04T08:46:57-07:00,1.1366400718689,1,versionA_stim.csv,READVersionA.csv,"Read Version A","Relational, read only version A",SHRIMP,FISH,BUFFER3,Buffer,93,92,Study,User,-,,Study/JOL,BUFFER3,756,,,-1,-1,,,,1
w99603AHC,kuflmrzi1n,Relational_NO_JOL,1,188,2020-05-04T08:46:58-07:00,1.0176558494568,1,versionA_stim.csv,READVersionA.csv,"Read Version A","Relational, read only version A",NOODLE,STRING,BUFFER3,Buffer,92,95,Study,User,-,,Study/JOL,BUFFER3,663,,,-1,-1,,,,1
w99603AHC,kuflmrzi1n,Relational_NO_JOL,1,189,2020-05-04T08:47:00-07:00,2.1681711673737,1,versionA_stim.csv,READVersionA.csv,"Read Version A","Relational, read only version A",ICE,FROZEN,BUFFER3,Buffer,94,94,Study,User,-,,Study/JOL,BUFFER3,1558,,,-1,-1,,,,1
w99603AHC,kuflmrzi1n,Relational_NO_JOL,1,190,2020-05-04T08:47:01-07:00,0.87559700012207,1,versionA_stim.csv,READVersionA.csv,"Read Version A","Relational, read only version A",SHEARS,SCISSORS,Study2,F,112,146,Study,User,-,,Study/JOL,"Study Phase2",653,,,-1,-1,,,,1
w99603AHC,kuflmrzi1n,Relational_NO_JOL,1,191,2020-05-04T08:47:02-07:00,1.1724569797516,1,versionA_stim.csv,READVersionA.csv,"Read Version A","Relational, read only version A",EVEN,REVENGE,Study2,B,122,114,Study,User,-,,Study/JOL,"Study Phase2",939,,,-1,-1,,,,1
w99603AHC,kuflmrzi1n,Relational_NO_JOL,1,192,2020-05-04T08:47:03-07:00,1.0898590087891,1,versionA_stim.csv,READVersionA.csv,"Read Version A","Relational, read only version A",CAKE,CLOTHES,Study2,U,166,170,Study,User,-,,Study/JOL,"Study Phase2",860,,,-1,-1,,,,1
w99603AHC,kuflmrzi1n,Relational_NO_JOL,1,193,2020-05-04T08:47:05-07:00,1.4700679779053,1,versionA_stim.csv,READVersionA.csv,"Read Version A","Relational, read only version A",WRIST,BRACELET,Study2,S,140,129,Study,User,-,,Study/JOL,"Study Phase2",1182,,,-1,-1,,,,1
w99603AHC,kuflmrzi1n,Relational_NO_JOL,1,194,2020-05-04T08:47:06-07:00,1.5074520111084,1,versionA_stim.csv,READVersionA.csv,"Read Version A","Relational, read only version A",STRETCH,CLOTH,Study2,U,157,142,Study,User,-,,Study/JOL,"Study Phase2",1219,,,-1,-1,,,,1
w99603AHC,kuflmrzi1n,Relational_NO_JOL,1,195,2020-05-04T08:47:09-07:00,2.2644510269165,1,versionA_stim.csv,READVersionA.csv,"Read Version A","Relational, read only version A",MAIN,SCAR,Study2,U,175,152,Study,User,-,,Study/JOL,"Study Phase2",1983,,,-1,-1,,,,1
w99603AHC,kuflmrzi1n,Relational_NO_JOL,1,196,2020-05-04T08:47:10-07:00,1.8285729885101,1,versionA_stim.csv,READVersionA.csv,"Read Version A","Relational, read only version A",GIVE,STEAK,Study2,U,158,107,Study,User,-,,Study/JOL,"Study Phase2",1538,,,-1,-1,,,,1
w99603AHC,kuflmrzi1n,Relational_NO_JOL,1,197,2020-05-04T08:47:13-07:00,2.6664309501648,1,versionA_stim.csv,READVersionA.csv,"Read Version A","Relational, read only version A",FIGHT,BRAWL,Study2,B,135,162,Study,User,-,,Study/JOL,"Study Phase2",2366,,,-1,-1,,,,1
w99603AHC,kuflmrzi1n,Relational_NO_JOL,1,198,2020-05-04T08:47:15-07:00,2.3150749206543,1,versionA_stim.csv,READVersionA.csv,"Read Version A","Relational, read only version A",BASEBALL,LEAGUE,Study2,B,131,120,Study,User,-,,Study/JOL,"Study Phase2",2024,,,-1,-1,,,,1
w99603AHC,kuflmrzi1n,Relational_NO_JOL,1,199,2020-05-04T08:47:17-07:00,1.5255720615387,1,versionA_stim.csv,READVersionA.csv,"Read Version A","Relational, read only version A",SUN,TAN,Study2,S,155,127,Study,User,-,,Study/JOL,"Study Phase2",1233,,,-1,-1,,,,1
w99603AHC,kuflmrzi1n,Relational_NO_JOL,1,200,2020-05-04T08:47:18-07:00,1.0058550834656,1,versionA_stim.csv,READVersionA.csv,"Read Version A","Relational, read only version A",DRY,WET,Study2,S,146,160,Study,User,-,,Study/JOL,"Study Phase2",786,,,-1,-1,,,,1
w99603AHC,kuflmrzi1n,Relational_NO_JOL,1,201,2020-05-04T08:47:20-07:00,1.5434918403625,1,versionA_stim.csv,READVersionA.csv,"Read Version A","Relational, read only version A",INCENSE,SMELL,Study2,F,110,131,Study,User,-,,Study/JOL,"Study Phase2",1258,,,-1,-1,,,,1
w99603AHC,kuflmrzi1n,Relational_NO_JOL,1,202,2020-05-04T08:47:22-07:00,2.2236640453339,1,versionA_stim.csv,READVersionA.csv,"Read Version A","Relational, read only version A",FEUD,FIGHT,Study2,F,113,100,Study,User,-,,Study/JOL,"Study Phase2",1939,,,-1,-1,,,,1
w99603AHC,kuflmrzi1n,Relational_NO_JOL,1,203,2020-05-04T08:47:24-07:00,2.0999460220337,1,versionA_stim.csv,READVersionA.csv,"Read Version A","Relational, read only version A",MASON,JAR,Study2,S,138,176,Study,User,-,,Study/JOL,"Study Phase2",1813,,,-1,-1,,,,1
w99603AHC,kuflmrzi1n,Relational_NO_JOL,1,204,2020-05-04T08:47:26-07:00,2.2597949504852,1,versionA_stim.csv,READVersionA.csv,"Read Version A","Relational, read only version A",ELEMENT,CARBON,Study2,S,141,155,Study,User,-,,Study/JOL,"Study Phase2",1955,,,-1,-1,,,,1
w99603AHC,kuflmrzi1n,Relational_NO_JOL,1,205,2020-05-04T08:47:28-07:00,1.4250891208649,1,versionA_stim.csv,READVersionA.csv,"Read Version A","Relational, read only version A",GONE,AWAY,Study2,S,142,149,Study,User,-,,Study/JOL,"Study Phase2",1134,,,-1,-1,,,,1
w99603AHC,kuflmrzi1n,Relational_NO_JOL,1,206,2020-05-04T08:47:29-07:00,1.6459498405457,1,versionA_stim.csv,READVersionA.csv,"Read Version A","Relational, read only version A",RIGHTS,EQUAL,Study2,S,137,110,Study,User,-,,Study/JOL,"Study Phase2",1356,,,-1,-1,,,,1
w99603AHC,kuflmrzi1n,Relational_NO_JOL,1,207,2020-05-04T08:47:31-07:00,2.0106151103973,1,versionA_stim.csv,READVersionA.csv,"Read Version A","Relational, read only version A",STAR,ACTRESS,Study2,B,120,130,Study,User,-,,Study/JOL,"Study Phase2",1711,,,-1,-1,,,,1
w99603AHC,kuflmrzi1n,Relational_NO_JOL,1,208,2020-05-04T08:47:34-07:00,2.5314130783081,1,versionA_stim.csv,READVersionA.csv,"Read Version A","Relational, read only version A",ALONE,LONELY,Study2,S,145,113,Study,User,-,,Study/JOL,"Study Phase2",2243,,,-1,-1,,,,1
w99603AHC,kuflmrzi1n,Relational_NO_JOL,1,209,2020-05-04T08:47:36-07:00,1.9600148200989,1,versionA_stim.csv,READVersionA.csv,"Read Version A","Relational, read only version A",EARTH,GROUND,Study2,S,144,111,Study,User,-,,Study/JOL,"Study Phase2",1662,,,-1,-1,,,,1
w99603AHC,kuflmrzi1n,Relational_NO_JOL,1,210,2020-05-04T08:47:38-07:00,2.5776250362396,1,versionA_stim.csv,READVersionA.csv,"Read Version A","Relational, read only version A",DETECTIVE,MYSTERY,Study2,F,100,163,Study,User,-,,Study/JOL,"Study Phase2",2294,,,-1,-1,,,,1
w99603AHC,kuflmrzi1n,Relational_NO_JOL,1,211,2020-05-04T08:47:40-07:00,2.0220911502838,1,versionA_stim.csv,READVersionA.csv,"Read Version A","Relational, read only version A",BAD,VILLAIN,Study2,B,118,117,Study,User,-,,Study/JOL,"Study Phase2",1718,,,-1,-1,,,,1
w99603AHC,kuflmrzi1n,Relational_NO_JOL,1,212,2020-05-04T08:47:42-07:00,2.0580298900604,1,versionA_stim.csv,READVersionA.csv,"Read Version A","Relational, read only version A",VEHICLE,CHARM,Study2,U,160,157,Study,User,-,,Study/JOL,"Study Phase2",1773,,,-1,-1,,,,1
w99603AHC,kuflmrzi1n,Relational_NO_JOL,1,213,2020-05-04T08:47:45-07:00,2.3417930603027,1,versionA_stim.csv,READVersionA.csv,"Read Version A","Relational, read only version A",Shell,SHAKE,Study2,U,163,168,Study,User,-,,Study/JOL,"Study Phase2",2055,,,-1,-1,,,,1
w99603AHC,kuflmrzi1n,Relational_NO_JOL,1,214,2020-05-04T08:47:47-07:00,2.0547459125519,1,versionA_stim.csv,READVersionA.csv,"Read Version A","Relational, read only version A",AFFECTION,LOVE,Study2,F,115,171,Study,User,-,,Study/JOL,"Study Phase2",1767,,,-1,-1,,,,1
w99603AHC,kuflmrzi1n,Relational_NO_JOL,1,215,2020-05-04T08:47:50-07:00,3.1592581272125,1,versionA_stim.csv,READVersionA.csv,"Read Version A","Relational, read only version A",FUZZY,BANG,Study2,U,168,101,Study,User,-,,Study/JOL,"Study Phase2",2863,,,-1,-1,,,,1
w99603AHC,kuflmrzi1n,Relational_NO_JOL,1,216,2020-05-04T08:47:52-07:00,2.0788028240204,1,versionA_stim.csv,READVersionA.csv,"Read Version A","Relational, read only version A",TURN,FLIP,Study2,B,116,167,Study,User,-,,Study/JOL,"Study Phase2",1784,,,-1,-1,,,,1
w99603AHC,kuflmrzi1n,Relational_NO_JOL,1,217,2020-05-04T08:47:54-07:00,1.6957969665527,1,versionA_stim.csv,READVersionA.csv,"Read Version A","Relational, read only version A",CACTUS,PLANT,Study2,F,98,106,Study,User,-,,Study/JOL,"Study Phase2",1405,,,-1,-1,,,,1
w99603AHC,kuflmrzi1n,Relational_NO_JOL,1,218,2020-05-04T08:47:56-07:00,1.8860590457916,1,versionA_stim.csv,READVersionA.csv,"Read Version A","Relational, read only version A",DINE,EAT,Study2,F,111,138,Study,User,-,,Study/JOL,"Study Phase2",1597,,,-1,-1,,,,1
w99603AHC,kuflmrzi1n,Relational_NO_JOL,1,219,2020-05-04T08:47:59-07:00,3.0710511207581,1,versionA_stim.csv,READVersionA.csv,"Read Version A","Relational, read only version A",EXTENSION,LONG,Study2,F,96,125,Study,User,-,,Study/JOL,"Study Phase2",2785,,,-1,-1,,,,1
w99603AHC,kuflmrzi1n,Relational_NO_JOL,1,220,2020-05-04T08:48:02-07:00,3.6613938808441,1,versionA_stim.csv,READVersionA.csv,"Read Version A","Relational, read only version A",PLANE,AIRCRAFT,Study2,B,129,158,Study,User,-,,Study/JOL,"Study Phase2",3374,,,-1,-1,,,,1
w99603AHC,kuflmrzi1n,Relational_NO_JOL,1,221,2020-05-04T08:48:05-07:00,2.7973940372467,1,versionA_stim.csv,READVersionA.csv,"Read Version A","Relational, read only version A",JUSTICE,MAROON,Study2,U,156,161,Study,User,-,,Study/JOL,"Study Phase2",2501,,,-1,-1,,,,1
w99603AHC,kuflmrzi1n,Relational_NO_JOL,1,222,2020-05-04T08:48:07-07:00,2.2217440605164,1,versionA_stim.csv,READVersionA.csv,"Read Version A","Relational, read only version A",CAT,PANTHER,Study2,B,126,159,Study,User,-,,Study/JOL,"Study Phase2",1920,,,-1,-1,,,,1
w99603AHC,kuflmrzi1n,Relational_NO_JOL,1,223,2020-05-04T08:48:09-07:00,1.6983489990234,1,versionA_stim.csv,READVersionA.csv,"Read Version A","Relational, read only version A",THREAD,THIMBLE,Study2,B,121,150,Study,User,-,,Study/JOL,"Study Phase2",1400,,,-1,-1,,,,1
w99603AHC,kuflmrzi1n,Relational_NO_JOL,1,224,2020-05-04T08:48:13-07:00,4.1082899570465,1,versionA_stim.csv,READVersionA.csv,"Read Version A","Relational, read only version A",,,,,,0,Instruct,-,3,"Remember to focus on how the two items are similiar while you study!",,CHECK5,3815,,,-1,-1,,,,1
w99603AHC,kuflmrzi1n,Relational_NO_JOL,1,225,2020-05-04T08:48:18-07:00,5.1995749473572,1,versionA_stim.csv,READVersionA.csv,"Read Version A","Relational, read only version A",MIRROR,CHILDREN,Study2,U,174,133,Study,User,-,,Study/JOL,"Study Phase2",4911,,,-1,-1,,,,1
w99603AHC,kuflmrzi1n,Relational_NO_JOL,1,226,2020-05-04T08:48:21-07:00,2.6194200515747,1,versionA_stim.csv,READVersionA.csv,"Read Version A","Relational, read only version A",GLASS,BREAKABLE,Study2,B,127,134,Study,User,-,,Study/JOL,"Study Phase2",2333,,,-1,-1,,,,1
w99603AHC,kuflmrzi1n,Relational_NO_JOL,1,227,2020-05-04T08:48:27-07:00,5.5985960960388,1,versionA_stim.csv,READVersionA.csv,"Read Version A","Relational, read only version A",SCALP,HEAD,Study2,F,105,119,Study,User,-,,Study/JOL,"Study Phase2",5313,,,-1,-1,,,,1
w99603AHC,kuflmrzi1n,Relational_NO_JOL,1,228,2020-05-04T08:48:29-07:00,2.0059700012207,1,versionA_stim.csv,READVersionA.csv,"Read Version A","Relational, read only version A",BEST,FAVORITE,Study2,B,125,139,Study,User,-,,Study/JOL,"Study Phase2",1710,,,-1,-1,,,,1
w99603AHC,kuflmrzi1n,Relational_NO_JOL,1,229,2020-05-04T08:48:32-07:00,3.0327599048615,1,versionA_stim.csv,READVersionA.csv,"Read Version A","Relational, read only version A",BIRD,PENGUIN,Study2,B,119,165,Study,User,-,,Study/JOL,"Study Phase2",2744,,,-1,-1,,,,1
w99603AHC,kuflmrzi1n,Relational_NO_JOL,1,230,2020-05-04T08:48:34-07:00,1.9361801147461,1,versionA_stim.csv,READVersionA.csv,"Read Version A","Relational, read only version A",LEASE,TOIL,Study2,U,170,137,Study,User,-,,Study/JOL,"Study Phase2",1635,,,-1,-1,,,,1
w99603AHC,kuflmrzi1n,Relational_NO_JOL,1,231,2020-05-04T08:48:35-07:00,1.7393758296967,1,versionA_stim.csv,READVersionA.csv,"Read Version A","Relational, read only version A",MULE,DONKEY,Study2,F,108,99,Study,User,-,,Study/JOL,"Study Phase2",1450,,,-1,-1,,,,1
w99603AHC,kuflmrzi1n,Relational_NO_JOL,1,232,2020-05-04T08:48:38-07:00,2.6252419948578,1,versionA_stim.csv,READVersionA.csv,"Read Version A","Relational, read only version A",LISTEN,FICTION,Study2,U,164,140,Study,User,-,,Study/JOL,"Study Phase2",2339,,,-1,-1,,,,1
w99603AHC,kuflmrzi1n,Relational_NO_JOL,1,233,2020-05-04T08:48:40-07:00,2.0085480213165,1,versionA_stim.csv,READVersionA.csv,"Read Version A","Relational, read only version A",CHOP,CUT,Study2,F,107,126,Study,User,-,,Study/JOL,"Study Phase2",1720,,,-1,-1,,,,1
w99603AHC,kuflmrzi1n,Relational_NO_JOL,1,234,2020-05-04T08:48:45-07:00,4.8149621486664,1,versionA_stim.csv,READVersionA.csv,"Read Version A","Relational, read only version A",TRUTH,LIE,Study2,S,148,141,Study,User,-,,Study/JOL,"Study Phase2",4531,,,-1,-1,,,,1
w99603AHC,kuflmrzi1n,Relational_NO_JOL,1,235,2020-05-04T08:48:47-07:00,2.0575709342957,1,versionA_stim.csv,READVersionA.csv,"Read Version A","Relational, read only version A",LOUD,NOISE,Study2,S,152,144,Study,User,-,,Study/JOL,"Study Phase2",1759,,,-1,-1,,,,1
w99603AHC,kuflmrzi1n,Relational_NO_JOL,1,236,2020-05-04T08:48:49-07:00,1.8985168933868,1,versionA_stim.csv,READVersionA.csv,"Read Version A","Relational, read only version A",RAZOR,SHAVE,Study2,S,136,121,Study,User,-,,Study/JOL,"Study Phase2",1612,,,-1,-1,,,,1
w99603AHC,kuflmrzi1n,Relational_NO_JOL,1,237,2020-05-04T08:48:51-07:00,2.294830083847,1,versionA_stim.csv,READVersionA.csv,"Read Version A","Relational, read only version A",CRACKLE,ABLE,Study2,U,162,112,Study,User,-,,Study/JOL,"Study Phase2",1994,,,-1,-1,,,,1
w99603AHC,kuflmrzi1n,Relational_NO_JOL,1,238,2020-05-04T08:48:53-07:00,1.9434599876404,1,versionA_stim.csv,READVersionA.csv,"Read Version A","Relational, read only version A",DEAD,COFFIN,Study2,B,128,102,Study,User,-,,Study/JOL,"Study Phase2",1645,,,-1,-1,,,,1
w99603AHC,kuflmrzi1n,Relational_NO_JOL,1,239,2020-05-04T08:48:55-07:00,2.2589919567108,1,versionA_stim.csv,READVersionA.csv,"Read Version A","Relational, read only version A",CHILL,COLD,Study2,F,114,115,Study,User,-,,Study/JOL,"Study Phase2",1963,,,-1,-1,,,,1
w99603AHC,kuflmrzi1n,Relational_NO_JOL,1,240,2020-05-04T08:48:57-07:00,1.8805959224701,1,versionA_stim.csv,READVersionA.csv,"Read Version A","Relational, read only version A",DOCUMENT,PAPER,Study2,F,109,143,Study,User,-,,Study/JOL,"Study Phase2",1590,,,-1,-1,,,,1
w99603AHC,kuflmrzi1n,Relational_NO_JOL,1,241,2020-05-04T08:48:59-07:00,2.0232861042023,1,versionA_stim.csv,READVersionA.csv,"Read Version A","Relational, read only version A",NAME,HATE,Study2,U,167,116,Study,User,-,,Study/JOL,"Study Phase2",1725,,,-1,-1,,,,1
w99603AHC,kuflmrzi1n,Relational_NO_JOL,1,242,2020-05-04T08:49:02-07:00,2.6686170101166,1,versionA_stim.csv,READVersionA.csv,"Read Version A","Relational, read only version A",TEMPERATURE,Morning,Study2,U,173,135,Study,User,-,,Study/JOL,"Study Phase2",2374,,,-1,-1,,,,1
w99603AHC,kuflmrzi1n,Relational_NO_JOL,1,243,2020-05-04T08:49:04-07:00,2.505350112915,1,versionA_stim.csv,READVersionA.csv,"Read Version A","Relational, read only version A",MOAT,CLEAR,Study2,U,169,174,Study,User,-,,Study/JOL,"Study Phase2",2221,,,-1,-1,,,,1
w99603AHC,kuflmrzi1n,Relational_NO_JOL,1,244,2020-05-04T08:49:06-07:00,2.1065499782562,1,versionA_stim.csv,READVersionA.csv,"Read Version A","Relational, read only version A",POP,BALLOON,Study2,B,123,103,Study,User,-,,Study/JOL,"Study Phase2",1819,,,-1,-1,,,,1
w99603AHC,kuflmrzi1n,Relational_NO_JOL,1,245,2020-05-04T08:49:08-07:00,1.9000449180603,1,versionA_stim.csv,READVersionA.csv,"Read Version A","Relational, read only version A",SHOELACE,TIE,Study2,F,99,145,Study,User,-,,Study/JOL,"Study Phase2",1612,,,-1,-1,,,,1
w99603AHC,kuflmrzi1n,Relational_NO_JOL,1,246,2020-05-04T08:49:10-07:00,2.0771460533142,1,versionA_stim.csv,READVersionA.csv,"Read Version A","Relational, read only version A",FURRY,DOG,Study2,F,102,98,Study,User,-,,Study/JOL,"Study Phase2",1765,,,-1,-1,,,,1
w99603AHC,kuflmrzi1n,Relational_NO_JOL,1,247,2020-05-04T08:49:14-07:00,3.2314069271088,1,versionA_stim.csv,READVersionA.csv,"Read Version A","Relational, read only version A",BOTH,OUNCE,Study2,U,172,153,Study,User,-,,Study/JOL,"Study Phase2",2936,,,-1,-1,,,,1
w99603AHC,kuflmrzi1n,Relational_NO_JOL,1,248,2020-05-04T08:49:16-07:00,1.96577501297,1,versionA_stim.csv,READVersionA.csv,"Read Version A","Relational, read only version A",TANTRUM,TEMPER,Study2,S,154,122,Study,User,-,,Study/JOL,"Study Phase2",1508,,,-1,-1,,,,1
w99603AHC,kuflmrzi1n,Relational_NO_JOL,1,249,2020-05-04T08:49:17-07:00,1.9388189315796,1,versionA_stim.csv,READVersionA.csv,"Read Version A","Relational, read only version A",CHERRY,RED,Study2,F,104,151,Study,User,-,,Study/JOL,"Study Phase2",1625,,,-1,-1,,,,1
w99603AHC,kuflmrzi1n,Relational_NO_JOL,1,250,2020-05-04T08:49:19-07:00,1.7646391391754,1,versionA_stim.csv,READVersionA.csv,"Read Version A","Relational, read only version A",PHONE,COMMUNICATION,Study2,S,149,105,Study,User,-,,Study/JOL,"Study Phase2",1448,,,-1,-1,,,,1
w99603AHC,kuflmrzi1n,Relational_NO_JOL,1,251,2020-05-04T08:49:22-07:00,2.6540060043335,1,versionA_stim.csv,READVersionA.csv,"Read Version A","Relational, read only version A",CLUE,GAME,Study2,F,97,104,Study,User,-,,Study/JOL,"Study Phase2",2352,,,-1,-1,,,,1
w99603AHC,kuflmrzi1n,Relational_NO_JOL,1,252,2020-05-04T08:49:24-07:00,2.3401138782501,1,versionA_stim.csv,READVersionA.csv,"Read Version A","Relational, read only version A",KEYS,JOKE,Study2,U,165,109,Study,User,-,,Study/JOL,"Study Phase2",2041,,,-1,-1,,,,1
w99603AHC,kuflmrzi1n,Relational_NO_JOL,1,253,2020-05-04T08:49:26-07:00,1.7253050804138,1,versionA_stim.csv,READVersionA.csv,"Read Version A","Relational, read only version A",DRIVER,CAR,Study2,F,106,166,Study,User,-,,Study/JOL,"Study Phase2",1423,,,-1,-1,,,,1
w99603AHC,kuflmrzi1n,Relational_NO_JOL,1,254,2020-05-04T08:49:28-07:00,2.4645600318909,1,versionA_stim.csv,READVersionA.csv,"Read Version A","Relational, read only version A",ADJOURN,END,Study2,F,101,169,Study,User,-,,Study/JOL,"Study Phase2",2150,,,-1,-1,,,,1
w99603AHC,kuflmrzi1n,Relational_NO_JOL,1,255,2020-05-04T08:49:30-07:00,1.7388048171997,1,versionA_stim.csv,READVersionA.csv,"Read Version A","Relational, read only version A",MEAT,OBTAIN,Study2,U,161,136,Study,User,-,,Study/JOL,"Study Phase2",1440,,,-1,-1,,,,1
w99603AHC,kuflmrzi1n,Relational_NO_JOL,1,256,2020-05-04T08:49:32-07:00,2.1713421344757,1,versionA_stim.csv,READVersionA.csv,"Read Version A","Relational, read only version A",WATER,DRINK,Study2,S,143,175,Study,User,-,,Study/JOL,"Study Phase2",1870,,,-1,-1,,,,1
w99603AHC,kuflmrzi1n,Relational_NO_JOL,1,257,2020-05-04T08:49:34-07:00,1.8179490566254,1,versionA_stim.csv,READVersionA.csv,"Read Version A","Relational, read only version A",FISH,SARDINE,Study2,B,130,118,Study,User,-,,Study/JOL,"Study Phase2",1515,,,-1,-1,,,,1
w99603AHC,kuflmrzi1n,Relational_NO_JOL,1,258,2020-05-04T08:49:39-07:00,4.3648400306702,1,versionA_stim.csv,READVersionA.csv,"Read Version A","Relational, read only version A",OWN,HAVE,Study2,S,153,132,Study,User,-,,Study/JOL,"Study Phase2",4057,,,-1,-1,,,,1
w99603AHC,kuflmrzi1n,Relational_NO_JOL,1,259,2020-05-04T08:49:41-07:00,2.3112118244171,1,versionA_stim.csv,READVersionA.csv,"Read Version A","Relational, read only version A",MAZE,ELECTION,Study2,U,159,147,Study,User,-,,Study/JOL,"Study Phase2",2009,,,-1,-1,,,,1
w99603AHC,kuflmrzi1n,Relational_NO_JOL,1,260,2020-05-04T08:49:43-07:00,2.0008909702301,1,versionA_stim.csv,READVersionA.csv,"Read Version A","Relational, read only version A",SLEEP,NAP,Study2,B,134,123,Study,User,-,,Study/JOL,"Study Phase2",1706,,,-1,-1,,,,1
w99603AHC,kuflmrzi1n,Relational_NO_JOL,1,261,2020-05-04T08:49:45-07:00,1.8369061946869,1,versionA_stim.csv,READVersionA.csv,"Read Version A","Relational, read only version A",MONEY,BANKER,Study2,B,132,124,Study,User,-,,Study/JOL,"Study Phase2",1534,,,-1,-1,,,,1
w99603AHC,kuflmrzi1n,Relational_NO_JOL,1,262,2020-05-04T08:49:47-07:00,2.3363718986511,1,versionA_stim.csv,READVersionA.csv,"Read Version A","Relational, read only version A",LOAN,SIGN,Study2,U,171,164,Study,User,-,,Study/JOL,"Study Phase2",2006,,,-1,-1,,,,1
w99603AHC,kuflmrzi1n,Relational_NO_JOL,1,263,2020-05-04T08:49:50-07:00,3.4693660736084,1,versionA_stim.csv,READVersionA.csv,"Read Version A","Relational, read only version A",CANDLE,WAX,Study2,S,139,97,Study,User,-,,Study/JOL,"Study Phase2",3165,,,-1,-1,,,,1
w99603AHC,kuflmrzi1n,Relational_NO_JOL,1,264,2020-05-04T08:49:55-07:00,4.2643630504608,1,versionA_stim.csv,READVersionA.csv,"Read Version A","Relational, read only version A",SAFETY,SEATBELT,Study2,S,147,173,Study,User,-,,Study/JOL,"Study Phase2",3969,,,-1,-1,,,,1
w99603AHC,kuflmrzi1n,Relational_NO_JOL,1,265,2020-05-04T08:50:00-07:00,5.3771817684174,1,versionA_stim.csv,READVersionA.csv,"Read Version A","Relational, read only version A",LITTER,TRASH,Study2,F,103,156,Study,User,-,,Study/JOL,"Study Phase2",5083,,,-1,-1,,,,1
w99603AHC,kuflmrzi1n,Relational_NO_JOL,1,266,2020-05-04T08:50:03-07:00,3.0766060352325,1,versionA_stim.csv,READVersionA.csv,"Read Version A","Relational, read only version A",ROD,REEL,Study2,S,150,172,Study,User,-,,Study/JOL,"Study Phase2",2764,,,-1,-1,,,,1
w99603AHC,kuflmrzi1n,Relational_NO_JOL,1,267,2020-05-04T08:50:05-07:00,1.9056279659271,1,versionA_stim.csv,READVersionA.csv,"Read Version A","Relational, read only version A",HONEST,TRUTHFUL,Study2,B,133,108,Study,User,-,,Study/JOL,"Study Phase2",1597,,,-1,-1,,,,1
w99603AHC,kuflmrzi1n,Relational_NO_JOL,1,268,2020-05-04T08:50:07-07:00,1.635546207428,1,versionA_stim.csv,READVersionA.csv,"Read Version A","Relational, read only version A",FLEA,TICK,Study2,S,151,128,Study,User,-,,Study/JOL,"Study Phase2",1334,,,-1,-1,,,,1
w99603AHC,kuflmrzi1n,Relational_NO_JOL,1,269,2020-05-04T08:50:11-07:00,4.4019858837128,1,versionA_stim.csv,READVersionA.csv,"Read Version A","Relational, read only version A",CAR,WINDSHIELD,Study2,B,117,154,Study,User,-,,Study/JOL,"Study Phase2",4094,,,-1,-1,,,,1
w99603AHC,kuflmrzi1n,Relational_NO_JOL,1,270,2020-05-04T08:50:13-07:00,2.0248041152954,1,versionA_stim.csv,READVersionA.csv,"Read Version A","Relational, read only version A",FRUIT,STRAWBERRY,Study2,B,124,148,Study,User,-,,Study/JOL,"Study Phase2",1719,,,-1,-1,,,,1
w99603AHC,kuflmrzi1n,Relational_NO_JOL,1,271,2020-05-04T08:50:15-07:00,2.2712218761444,1,versionA_stim.csv,READVersionA.csv,"Read Version A","Relational, read only version A",DAYS,WEAKS,BUFFER4,Buffer,176,178,Study,User,-,,Study/JOL,BUFFER4,1970,,,-1,-1,,,,1
w99603AHC,kuflmrzi1n,Relational_NO_JOL,1,272,2020-05-04T08:50:17-07:00,1.9387860298157,1,versionA_stim.csv,READVersionA.csv,"Read Version A","Relational, read only version A",MONTH,YEAR,BUFFER4,Buffer,177,179,Study,User,-,,Study/JOL,BUFFER4,1641,,,-1,-1,,,,1
w99603AHC,kuflmrzi1n,Relational_NO_JOL,1,273,2020-05-04T08:50:19-07:00,1.7374451160431,1,versionA_stim.csv,READVersionA.csv,"Read Version A","Relational, read only version A",SPRING,MARCH,BUFFER4,Buffer,179,177,Study,User,-,,Study/JOL,BUFFER4,1441,,,-1,-1,,,,1
w99603AHC,kuflmrzi1n,Relational_NO_JOL,1,274,2020-05-04T08:50:21-07:00,2.2085149288177,1,versionA_stim.csv,READVersionA.csv,"Read Version A","Relational, read only version A",OCTOBER,SPOOKY,BUFFER4,Buffer,180,180,Study,User,-,,Study/JOL,BUFFER4,1902,,,-1,-1,,,,1
w99603AHC,kuflmrzi1n,Relational_NO_JOL,1,275,2020-05-04T08:50:23-07:00,1.8875489234924,1,versionA_stim.csv,READVersionA.csv,"Read Version A","Relational, read only version A",TOOL,SHED,BUFFER4,Buffer,178,181,Study,User,-,,Study/JOL,BUFFER4,1583,,,-1,-1,,,,1
w99603AHC,kuflmrzi1n,Relational_NO_JOL,1,276,2020-05-04T08:50:26-07:00,2.7050440311432,1,versionA_stim.csv,READVersionA.csv,"Read Version A","Relational, read only version A",,,,,,0,Instruct,User,-,"You have completed this section. Please press Enter.",Filler_Instruction,Instruct5,2404,,,-1,-1,,,,1
w99603AHC,kuflmrzi1n,Relational_NO_JOL,1,277,2020-05-04T08:50:39-07:00,13.239353895187,1,versionA_stim.csv,READVersionA.csv,"Read Version A","Relational, read only version A",,,,,,0,FreeRecall,-,10,"What were you supposed to focus on while you studied each pair? (Hint: Think back to the instructions). Type your answer in the space below.",,CHECK3,12928,"how they relate to each other",0,2561,11219,0,0,,1
w99603AHC,kuflmrzi1n,Relational_NO_JOL,1,278,2020-05-04T08:50:42-07:00,2.4964771270752,1,versionA_stim.csv,READVersionA.csv,"Read Version A","Relational, read only version A",,,,,,0,Instruct,User,-,"You have completed this section. Please press Enter.",Filler_Instruction,Instruct5,2188,,,-1,-1,,,,1
w99603AHC,kuflmrzi1n,Relational_NO_JOL,1,279,2020-05-04T08:52:42-07:00,120.32390499115,1,versionA_stim.csv,READVersionA.csv,"Read Version A","Relational, read only version A",,,,,,0,FreeRecall,120,120,"Please list the 50 US states in reverse alphabetical order (z - a). The task will automatically advance to the next screen after two minutes.",,Filler2,120001,"alabama Arkansas albequreque arizona califorina florida Georgia, hwiahii indiana , kansas lousianna Minnesota Mississippi Nebraska Rhode Island ",0,3729,109596,0,0,,1
w99603AHC,kuflmrzi1n,Relational_NO_JOL,1,280,2020-05-04T08:52:55-07:00,12.880845069885,1,versionA_stim.csv,READVersionA.csv,"Read Version A","Relational, read only version A",,,,,,0,Instruct,-,10,"You will now be presented with the first word from each of the previously studied item pairs. Please type the missing word. If you do not know the word, you may guess or press Enter to skip forward to the next pair.",,Instruct6,12574,,,-1,-1,,,,0.667
w99603AHC,kuflmrzi1n,Relational_NO_JOL,1,281,2020-05-04T08:53:00-07:00,5.0072419643402,1,versionA_stim.csv,READVersionA.csv,"Read Version A","Relational, read only version A",JUSTICE,MAROON,Study2,U,156,161,Test,User,-,,Recall,Recall2,4709,,0,-1,-1,0,0,,1
w99603AHC,kuflmrzi1n,Relational_NO_JOL,1,282,2020-05-04T08:53:03-07:00,3.0480690002441,1,versionA_stim.csv,READVersionA.csv,"Read Version A","Relational, read only version A",SHEARS,SCISSORS,Study2,F,112,146,Test,User,-,,Recall,Recall2,2734,chop,33.333333333333,1584,2046,0,0,,1
w99603AHC,kuflmrzi1n,Relational_NO_JOL,1,283,2020-05-04T08:53:05-07:00,2.4389379024506,1,versionA_stim.csv,READVersionA.csv,"Read Version A","Relational, read only version A",STAR,ACTRESS,Study2,B,120,130,Test,User,-,,Recall,Recall2,2126,night,16.666666666667,1390,1948,0,0,,1
w99603AHC,kuflmrzi1n,Relational_NO_JOL,1,284,2020-05-04T08:53:07-07:00,2.0741951465607,1,versionA_stim.csv,READVersionA.csv,"Read Version A","Relational, read only version A",LEASE,TOIL,Study2,U,170,137,Test,User,-,,Recall,Recall2,1765,rent,25,1178,1605,0,0,,1
w99603AHC,kuflmrzi1n,Relational_NO_JOL,1,285,2020-05-04T08:53:13-07:00,5.4822158813477,1,versionA_stim.csv,READVersionA.csv,"Read Version A","Relational, read only version A",FURRY,DOG,Study2,F,102,98,Test,User,-,,Recall,Recall2,5154,,0,-1,-1,0,0,,1
w99603AHC,kuflmrzi1n,Relational_NO_JOL,1,286,2020-05-04T08:53:16-07:00,2.8035509586334,1,versionA_stim.csv,READVersionA.csv,"Read Version A","Relational, read only version A",TURN,FLIP,Study2,B,116,167,Test,User,-,,Recall,Recall2,2497,around,0,1625,2318,0,0,,1
w99603AHC,kuflmrzi1n,Relational_NO_JOL,1,287,2020-05-04T08:53:22-07:00,6.5274701118469,1,versionA_stim.csv,READVersionA.csv,"Read Version A","Relational, read only version A",PLANE,AIRCRAFT,Study2,B,129,158,Test,User,-,,Recall,Recall2,6226,pilot,30.769230769231,1515,5775,0,0,,1
w99603AHC,kuflmrzi1n,Relational_NO_JOL,1,288,2020-05-04T08:53:24-07:00,1.7744688987732,1,versionA_stim.csv,READVersionA.csv,"Read Version A","Relational, read only version A",MASON,JAR,Study2,S,138,176,Test,User,-,,Recall,Recall2,1467,jar,100,1041,1320,1,1,,1
w99603AHC,kuflmrzi1n,Relational_NO_JOL,1,289,2020-05-04T08:53:28-07:00,3.9622609615326,1,versionA_stim.csv,READVersionA.csv,"Read Version A","Relational, read only version A",MIRROR,CHILDREN,Study2,U,174,133,Test,User,-,,Recall,Recall2,3624,reflection,33.333333333333,1916,3379,0,0,,1
w99603AHC,kuflmrzi1n,Relational_NO_JOL,1,290,2020-05-04T08:53:30-07:00,1.936576128006,1,versionA_stim.csv,READVersionA.csv,"Read Version A","Relational, read only version A",SHOELACE,TIE,Study2,F,99,145,Test,User,-,,Recall,Recall2,1625,tie,100,1143,1410,1,1,,1
w99603AHC,kuflmrzi1n,Relational_NO_JOL,1,291,2020-05-04T08:53:36-07:00,5.7843759059906,1,versionA_stim.csv,READVersionA.csv,"Read Version A","Relational, read only version A",SUN,TAN,Study2,S,155,127,Test,User,-,,Recall,Recall2,5479,moon,28.571428571429,3324,5193,0,0,,1
w99603AHC,kuflmrzi1n,Relational_NO_JOL,1,292,2020-05-04T08:53:41-07:00,5.153697013855,1,versionA_stim.csv,READVersionA.csv,"Read Version A","Relational, read only version A",BAD,VILLAIN,Study2,B,118,117,Test,User,-,,Recall,Recall2,4836,delinquent,35.294117647059,2271,4611,0,0,,1
w99603AHC,kuflmrzi1n,Relational_NO_JOL,1,293,2020-05-04T08:53:44-07:00,3.5888519287109,1,versionA_stim.csv,READVersionA.csv,"Read Version A","Relational, read only version A",EARTH,GROUND,Study2,S,144,111,Test,User,-,,Recall,Recall2,3285,planet,16.666666666667,2325,3139,0,0,,1
w99603AHC,kuflmrzi1n,Relational_NO_JOL,1,294,2020-05-04T08:53:50-07:00,5.6118760108948,1,versionA_stim.csv,READVersionA.csv,"Read Version A","Relational, read only version A",MONEY,BANKER,Study2,B,132,124,Test,User,-,,Recall,Recall2,5303,wage,40,4669,5189,0,0,,1
w99603AHC,kuflmrzi1n,Relational_NO_JOL,1,295,2020-05-04T08:53:53-07:00,2.6139481067657,1,versionA_stim.csv,READVersionA.csv,"Read Version A","Relational, read only version A",Shell,SHAKE,Study2,U,163,168,Test,User,-,,Recall,Recall2,2300,,0,1363,1363,0,0,,1
w99603AHC,kuflmrzi1n,Relational_NO_JOL,1,296,2020-05-04T08:53:55-07:00,2.7537178993225,1,versionA_stim.csv,READVersionA.csv,"Read Version A","Relational, read only version A",AFFECTION,LOVE,Study2,F,115,171,Test,User,-,,Recall,Recall2,2453,,0,-1,-1,0,0,,1
w99603AHC,kuflmrzi1n,Relational_NO_JOL,1,297,2020-05-04T08:53:57-07:00,2.0877420902252,1,versionA_stim.csv,READVersionA.csv,"Read Version A","Relational, read only version A",VEHICLE,CHARM,Study2,U,160,157,Test,User,-,,Recall,Recall2,1778,car,75,1294,1668,0,1,,1
w99603AHC,kuflmrzi1n,Relational_NO_JOL,1,298,2020-05-04T08:54:00-07:00,2.4446489810944,1,versionA_stim.csv,READVersionA.csv,"Read Version A","Relational, read only version A",DRY,WET,Study2,S,146,160,Test,User,-,,Recall,Recall2,2142,wet,100,1504,1952,1,1,,1
w99603AHC,kuflmrzi1n,Relational_NO_JOL,1,299,2020-05-04T08:54:03-07:00,2.8221559524536,1,versionA_stim.csv,READVersionA.csv,"Read Version A","Relational, read only version A",SLEEP,NAP,Study2,B,134,123,Test,User,-,,Recall,Recall2,2509,drowsy,0,1032,2094,0,0,,1
w99603AHC,kuflmrzi1n,Relational_NO_JOL,1,300,2020-05-04T08:54:05-07:00,2.4284720420837,1,versionA_stim.csv,READVersionA.csv,"Read Version A","Relational, read only version A",SAFETY,SEATBELT,Study2,S,147,173,Test,User,-,,Recall,Recall2,2056,,0,-1,-1,0,0,,1
w99603AHC,kuflmrzi1n,Relational_NO_JOL,1,301,2020-05-04T08:54:15-07:00,9.8352870941162,1,versionA_stim.csv,READVersionA.csv,"Read Version A","Relational, read only version A",KEYS,JOKE,Study2,U,165,109,Test,User,-,,Recall,Recall2,9527,prank,22.222222222222,4261,9128,0,0,,1
w99603AHC,kuflmrzi1n,Relational_NO_JOL,1,302,2020-05-04T08:54:17-07:00,1.5757598876953,1,versionA_stim.csv,READVersionA.csv,"Read Version A","Relational, read only version A",WRIST,BRACELET,Study2,S,140,129,Test,User,-,,Recall,Recall2,1262,,0,-1,-1,0,0,,1
w99603AHC,kuflmrzi1n,Relational_NO_JOL,1,303,2020-05-04T08:54:20-07:00,3.7326030731201,1,versionA_stim.csv,READVersionA.csv,"Read Version A","Relational, read only version A",SCALP,HEAD,Study2,F,105,119,Test,User,-,,Recall,Recall2,3409,,0,-1,-1,0,0,,1
w99603AHC,kuflmrzi1n,Relational_NO_JOL,1,304,2020-05-04T08:54:22-07:00,1.7213320732117,1,versionA_stim.csv,READVersionA.csv,"Read Version A","Relational, read only version A",MEAT,OBTAIN,Study2,U,161,136,Test,User,-,,Recall,Recall2,1312,,0,-1,-1,0,0,,1
w99603AHC,kuflmrzi1n,Relational_NO_JOL,1,305,2020-05-04T08:54:26-07:00,4.457624912262,1,versionA_stim.csv,READVersionA.csv,"Read Version A","Relational, read only version A",CAR,WINDSHIELD,Study2,B,117,154,Test,User,-,,Recall,Recall2,4152,vehicle,35.294117647059,1519,3901,0,0,,1
w99603AHC,kuflmrzi1n,Relational_NO_JOL,1,306,2020-05-04T08:54:28-07:00,1.7117829322815,1,versionA_stim.csv,READVersionA.csv,"Read Version A","Relational, read only version A",TRUTH,LIE,Study2,S,148,141,Test,User,-,,Recall,Recall2,1406,lie,100,954,1254,1,1,,1
w99603AHC,kuflmrzi1n,Relational_NO_JOL,1,307,2020-05-04T08:54:31-07:00,2.5827219486237,1,versionA_stim.csv,READVersionA.csv,"Read Version A","Relational, read only version A",MOAT,CLEAR,Study2,U,169,174,Test,User,-,,Recall,Recall2,2276,clear,100,1237,2098,1,1,,1
w99603AHC,kuflmrzi1n,Relational_NO_JOL,1,308,2020-05-04T08:54:32-07:00,1.6313180923462,1,versionA_stim.csv,READVersionA.csv,"Read Version A","Relational, read only version A",DRIVER,CAR,Study2,F,106,166,Test,User,-,,Recall,Recall2,1298,,0,-1,-1,0,0,,1
w99603AHC,kuflmrzi1n,Relational_NO_JOL,1,309,2020-05-04T08:54:35-07:00,2.2652521133423,1,versionA_stim.csv,READVersionA.csv,"Read Version A","Relational, read only version A",RAZOR,SHAVE,Study2,S,136,121,Test,User,-,,Recall,Recall2,1956,cut,0,1480,1798,0,0,,1
w99603AHC,kuflmrzi1n,Relational_NO_JOL,1,310,2020-05-04T08:54:37-07:00,2.2869069576263,1,versionA_stim.csv,READVersionA.csv,"Read Version A","Relational, read only version A",INCENSE,SMELL,Study2,F,110,131,Test,User,-,,Recall,Recall2,1974,smell,100,1139,1742,1,1,,1
w99603AHC,kuflmrzi1n,Relational_NO_JOL,1,311,2020-05-04T08:54:44-07:00,6.5910708904266,1,versionA_stim.csv,READVersionA.csv,"Read Version A","Relational, read only version A",FRUIT,STRAWBERRY,Study2,B,124,148,Test,User,-,,Recall,Recall2,6277,grape,40,4214,6107,0,0,,1
w99603AHC,kuflmrzi1n,Relational_NO_JOL,1,312,2020-05-04T08:54:47-07:00,3.634094953537,1,versionA_stim.csv,READVersionA.csv,"Read Version A","Relational, read only version A",CLUE,GAME,Study2,F,97,104,Test,User,-,,Recall,Recall2,3327,game,100,1392,3116,1,1,,1
w99603AHC,kuflmrzi1n,Relational_NO_JOL,1,313,2020-05-04T08:54:50-07:00,2.4132452011108,1,versionA_stim.csv,READVersionA.csv,"Read Version A","Relational, read only version A",CHOP,CUT,Study2,F,107,126,Test,User,-,,Recall,Recall2,2099,cut,100,881,1911,1,1,,1
w99603AHC,kuflmrzi1n,Relational_NO_JOL,1,314,2020-05-04T08:54:55-07:00,5.4268219470978,1,versionA_stim.csv,READVersionA.csv,"Read Version A","Relational, read only version A",TANTRUM,TEMPER,Study2,S,154,122,Test,User,-,,Recall,Recall2,5110,temper,100,4129,4944,1,1,,1
w99603AHC,kuflmrzi1n,Relational_NO_JOL,1,315,2020-05-04T08:54:58-07:00,2.8695969581604,1,versionA_stim.csv,READVersionA.csv,"Read Version A","Relational, read only version A",LITTER,TRASH,Study2,F,103,156,Test,User,-,,Recall,Recall2,2541,box,0,1823,2359,0,0,,1
w99603AHC,kuflmrzi1n,Relational_NO_JOL,1,316,2020-05-04T08:55:00-07:00,2.0113039016724,1,versionA_stim.csv,READVersionA.csv,"Read Version A","Relational, read only version A",GIVE,STEAK,Study2,U,158,107,Test,User,-,,Recall,Recall2,1702,take,66.666666666667,1120,1518,0,0,,1
w99603AHC,kuflmrzi1n,Relational_NO_JOL,1,317,2020-05-04T08:55:03-07:00,2.8098990917206,1,versionA_stim.csv,READVersionA.csv,"Read Version A","Relational, read only version A",LISTEN,FICTION,Study2,U,164,140,Test,User,-,,Recall,Recall2,2504,heard,0,1849,2409,0,0,,1
w99603AHC,kuflmrzi1n,Relational_NO_JOL,1,318,2020-05-04T08:55:04-07:00,1.2065470218658,1,versionA_stim.csv,READVersionA.csv,"Read Version A","Relational, read only version A",BIRD,PENGUIN,Study2,B,119,165,Test,User,-,,Recall,Recall2,960,,0,-1,-1,0,0,,1
w99603AHC,kuflmrzi1n,Relational_NO_JOL,1,319,2020-05-04T08:55:06-07:00,1.7762980461121,1,versionA_stim.csv,READVersionA.csv,"Read Version A","Relational, read only version A",DOCUMENT,PAPER,Study2,F,109,143,Test,User,-,,Recall,Recall2,1460,,0,-1,-1,0,0,,1
w99603AHC,kuflmrzi1n,Relational_NO_JOL,1,320,2020-05-04T08:55:07-07:00,1.564514875412,1,versionA_stim.csv,READVersionA.csv,"Read Version A","Relational, read only version A",ELEMENT,CARBON,Study2,S,141,155,Test,User,-,,Recall,Recall2,1227,,0,-1,-1,0,0,,1
w99603AHC,kuflmrzi1n,Relational_NO_JOL,1,321,2020-05-04T08:55:10-07:00,2.5969431400299,1,versionA_stim.csv,READVersionA.csv,"Read Version A","Relational, read only version A",MULE,DONKEY,Study2,F,108,99,Test,User,-,,Recall,Recall2,2284,donkey,100,1275,2000,1,1,,1
w99603AHC,kuflmrzi1n,Relational_NO_JOL,1,322,2020-05-04T08:55:15-07:00,5.3789210319519,1,versionA_stim.csv,READVersionA.csv,"Read Version A","Relational, read only version A",THREAD,THIMBLE,Study2,B,121,150,Test,User,-,,Recall,Recall2,5058,thimble,100,3141,4191,1,1,,1
w99603AHC,kuflmrzi1n,Relational_NO_JOL,1,323,2020-05-04T08:55:17-07:00,1.9425408840179,1,versionA_stim.csv,READVersionA.csv,"Read Version A","Relational, read only version A",BOTH,OUNCE,Study2,U,172,153,Test,User,-,,Recall,Recall2,1632,,0,-1,-1,0,0,,1
w99603AHC,kuflmrzi1n,Relational_NO_JOL,1,324,2020-05-04T08:55:21-07:00,3.6862540245056,1,versionA_stim.csv,READVersionA.csv,"Read Version A","Relational, read only version A",LOUD,NOISE,Study2,S,152,144,Test,User,-,,Recall,Recall2,3380,quite,40,2563,3134,0,0,,1
w99603AHC,kuflmrzi1n,Relational_NO_JOL,1,325,2020-05-04T08:55:22-07:00,1.1947820186615,1,versionA_stim.csv,READVersionA.csv,"Read Version A","Relational, read only version A",FISH,SARDINE,Study2,B,130,118,Test,User,-,,Recall,Recall2,947,,0,-1,-1,0,0,,1
w99603AHC,kuflmrzi1n,Relational_NO_JOL,1,326,2020-05-04T08:55:23-07:00,1.3921408653259,1,versionA_stim.csv,READVersionA.csv,"Read Version A","Relational, read only version A",EXTENSION,LONG,Study2,F,96,125,Test,User,-,,Recall,Recall2,1064,,0,-1,-1,0,0,,1
w99603AHC,kuflmrzi1n,Relational_NO_JOL,1,327,2020-05-04T08:55:27-07:00,3.2261772155762,1,versionA_stim.csv,READVersionA.csv,"Read Version A","Relational, read only version A",HONEST,TRUTHFUL,Study2,B,133,108,Test,User,-,,Recall,Recall2,2920,lie,18.181818181818,1774,2634,0,0,,1
w99603AHC,kuflmrzi1n,Relational_NO_JOL,1,328,2020-05-04T08:55:28-07:00,1.3380959033966,1,versionA_stim.csv,READVersionA.csv,"Read Version A","Relational, read only version A",LOAN,SIGN,Study2,U,171,164,Test,User,-,,Recall,Recall2,1034,,0,-1,-1,0,0,,1
w99603AHC,kuflmrzi1n,Relational_NO_JOL,1,329,2020-05-04T08:55:30-07:00,2.4004669189453,1,versionA_stim.csv,READVersionA.csv,"Read Version A","Relational, read only version A",FEUD,FIGHT,Study2,F,113,100,Test,User,-,,Recall,Recall2,2093,fight,100,1398,1951,1,1,,1
w99603AHC,kuflmrzi1n,Relational_NO_JOL,1,330,2020-05-04T08:55:33-07:00,2.1658899784088,1,versionA_stim.csv,READVersionA.csv,"Read Version A","Relational, read only version A",CHERRY,RED,Study2,F,104,151,Test,User,-,,Recall,Recall2,1840,red,100,1385,1706,1,1,,1
w99603AHC,kuflmrzi1n,Relational_NO_JOL,1,331,2020-05-04T08:55:34-07:00,1.1837730407715,1,versionA_stim.csv,READVersionA.csv,"Read Version A","Relational, read only version A",RIGHTS,EQUAL,Study2,S,137,110,Test,User,-,,Recall,Recall2,933,,0,-1,-1,0,0,,1
w99603AHC,kuflmrzi1n,Relational_NO_JOL,1,332,2020-05-04T08:55:35-07:00,1.1466491222382,1,versionA_stim.csv,READVersionA.csv,"Read Version A","Relational, read only version A",STRETCH,CLOTH,Study2,U,157,142,Test,User,-,,Recall,Recall2,907,,0,-1,-1,0,0,,1
w99603AHC,kuflmrzi1n,Relational_NO_JOL,1,333,2020-05-04T08:55:39-07:00,4.3253228664398,1,versionA_stim.csv,READVersionA.csv,"Read Version A","Relational, read only version A",MAZE,ELECTION,Study2,U,159,147,Test,User,-,,Recall,Recall2,4017,election,100,2439,3731,1,1,,1
w99603AHC,kuflmrzi1n,Relational_NO_JOL,1,334,2020-05-04T08:55:45-07:00,5.7983629703522,1,versionA_stim.csv,READVersionA.csv,"Read Version A","Relational, read only version A",PHONE,COMMUNICATION,Study2,S,149,105,Test,User,-,,Recall,Recall2,5452,"communication ",100,2331,5172,1,1,,1
w99603AHC,kuflmrzi1n,Relational_NO_JOL,1,335,2020-05-04T08:55:46-07:00,1.3577699661255,1,versionA_stim.csv,READVersionA.csv,"Read Version A","Relational, read only version A",FIGHT,BRAWL,Study2,B,135,162,Test,User,-,,Recall,Recall2,1030,,0,-1,-1,0,0,,1
w99603AHC,kuflmrzi1n,Relational_NO_JOL,1,336,2020-05-04T08:55:49-07:00,2.2377920150757,1,versionA_stim.csv,READVersionA.csv,"Read Version A","Relational, read only version A",CAT,PANTHER,Study2,B,126,159,Test,User,-,,Recall,Recall2,1929,dog,0,1448,1750,0,0,,1
w99603AHC,kuflmrzi1n,Relational_NO_JOL,1,337,2020-05-04T08:55:50-07:00,1.5290360450745,1,versionA_stim.csv,READVersionA.csv,"Read Version A","Relational, read only version A",ROD,REEL,Study2,S,150,172,Test,User,-,,Recall,Recall2,1217,,0,-1,-1,0,0,,1
w99603AHC,kuflmrzi1n,Relational_NO_JOL,1,338,2020-05-04T08:55:52-07:00,2.2158019542694,1,versionA_stim.csv,READVersionA.csv,"Read Version A","Relational, read only version A",FLEA,TICK,Study2,S,151,128,Test,User,-,,Recall,Recall2,1905,tick,100,1286,1621,1,1,,1
w99603AHC,kuflmrzi1n,Relational_NO_JOL,1,339,2020-05-04T08:55:54-07:00,1.9569821357727,1,versionA_stim.csv,READVersionA.csv,"Read Version A","Relational, read only version A",EVEN,REVENGE,Study2,B,122,114,Test,User,-,,Recall,Recall2,1648,odd,0,1175,1503,0,0,,1
w99603AHC,kuflmrzi1n,Relational_NO_JOL,1,340,2020-05-04T08:55:57-07:00,2.2051010131836,1,versionA_stim.csv,READVersionA.csv,"Read Version A","Relational, read only version A",WATER,DRINK,Study2,S,143,175,Test,User,-,,Recall,Recall2,1903,,0,-1,-1,0,0,,1
w99603AHC,kuflmrzi1n,Relational_NO_JOL,1,341,2020-05-04T08:55:59-07:00,2.4760768413544,1,versionA_stim.csv,READVersionA.csv,"Read Version A","Relational, read only version A",ALONE,LONELY,Study2,S,145,113,Test,User,-,,Recall,Recall2,2167,,0,-1,-1,0,0,,1
w99603AHC,kuflmrzi1n,Relational_NO_JOL,1,342,2020-05-04T08:56:02-07:00,2.4714760780334,1,versionA_stim.csv,READVersionA.csv,"Read Version A","Relational, read only version A",CACTUS,PLANT,Study2,F,98,106,Test,User,-,,Recall,Recall2,2165,plant,100,1274,1990,1,1,,1
w99603AHC,kuflmrzi1n,Relational_NO_JOL,1,343,2020-05-04T08:56:03-07:00,1.8479690551758,1,versionA_stim.csv,READVersionA.csv,"Read Version A","Relational, read only version A",FUZZY,BANG,Study2,U,168,101,Test,User,-,,Recall,Recall2,1522,,0,-1,-1,0,0,,1
w99603AHC,kuflmrzi1n,Relational_NO_JOL,1,344,2020-05-04T08:56:05-07:00,2.0128409862518,1,versionA_stim.csv,READVersionA.csv,"Read Version A","Relational, read only version A",TEMPERATURE,Morning,Study2,U,173,135,Test,User,-,,Recall,Recall2,1697,,0,-1,-1,0,0,,1
w99603AHC,kuflmrzi1n,Relational_NO_JOL,1,345,2020-05-04T08:56:08-07:00,2.7192459106445,1,versionA_stim.csv,READVersionA.csv,"Read Version A","Relational, read only version A",ADJOURN,END,Study2,F,101,169,Test,User,-,,Recall,Recall2,2402,end,100,1880,2184,1,1,,1
w99603AHC,kuflmrzi1n,Relational_NO_JOL,1,346,2020-05-04T08:56:10-07:00,2.1859321594238,1,versionA_stim.csv,READVersionA.csv,"Read Version A","Relational, read only version A",DETECTIVE,MYSTERY,Study2,F,100,163,Test,User,-,,Recall,Recall2,1870,,0,-1,-1,0,0,,1
w99603AHC,kuflmrzi1n,Relational_NO_JOL,1,347,2020-05-04T08:56:14-07:00,3.4581048488617,1,versionA_stim.csv,READVersionA.csv,"Read Version A","Relational, read only version A",CANDLE,WAX,Study2,S,139,97,Test,User,-,,Recall,Recall2,3151,smell,0,2034,2860,0,0,,1
w99603AHC,kuflmrzi1n,Relational_NO_JOL,1,348,2020-05-04T08:56:15-07:00,1.3816711902618,1,versionA_stim.csv,READVersionA.csv,"Read Version A","Relational, read only version A",CAKE,CLOTHES,Study2,U,166,170,Test,User,-,,Recall,Recall2,1059,,0,-1,-1,0,0,,1
w99603AHC,kuflmrzi1n,Relational_NO_JOL,1,349,2020-05-04T08:56:18-07:00,2.6458759307861,1,versionA_stim.csv,READVersionA.csv,"Read Version A","Relational, read only version A",DEAD,COFFIN,Study2,B,128,102,Test,User,-,,Recall,Recall2,2331,die,22.222222222222,1725,2120,0,0,,1
w99603AHC,kuflmrzi1n,Relational_NO_JOL,1,350,2020-05-04T08:56:19-07:00,1.2914538383484,1,versionA_stim.csv,READVersionA.csv,"Read Version A","Relational, read only version A",POP,BALLOON,Study2,B,123,103,Test,User,-,,Recall,Recall2,980,,0,-1,-1,0,0,,1
w99603AHC,kuflmrzi1n,Relational_NO_JOL,1,351,2020-05-04T08:56:20-07:00,1.3853540420532,1,versionA_stim.csv,READVersionA.csv,"Read Version A","Relational, read only version A",BASEBALL,LEAGUE,Study2,B,131,120,Test,User,-,,Recall,Recall2,1075,,0,-1,-1,0,0,,1
w99603AHC,kuflmrzi1n,Relational_NO_JOL,1,352,2020-05-04T08:56:22-07:00,1.504016160965,1,versionA_stim.csv,READVersionA.csv,"Read Version A","Relational, read only version A",CHILL,COLD,Study2,F,114,115,Test,User,-,,Recall,Recall2,1182,,0,-1,-1,0,0,,1
w99603AHC,kuflmrzi1n,Relational_NO_JOL,1,353,2020-05-04T08:56:24-07:00,1.6859059333801,1,versionA_stim.csv,READVersionA.csv,"Read Version A","Relational, read only version A",GONE,AWAY,Study2,S,142,149,Test,User,-,,Recall,Recall2,1384,,0,-1,-1,0,0,,1
w99603AHC,kuflmrzi1n,Relational_NO_JOL,1,354,2020-05-04T08:56:25-07:00,1.4233150482178,1,versionA_stim.csv,READVersionA.csv,"Read Version A","Relational, read only version A",OWN,HAVE,Study2,S,153,132,Test,User,-,,Recall,Recall2,1083,,0,-1,-1,0,0,,1
w99603AHC,kuflmrzi1n,Relational_NO_JOL,1,355,2020-05-04T08:56:28-07:00,3.1307909488678,1,versionA_stim.csv,READVersionA.csv,"Read Version A","Relational, read only version A",DINE,EAT,Study2,F,111,138,Test,User,-,,Recall,Recall2,2817,,0,-1,-1,0,0,,1
w99603AHC,kuflmrzi1n,Relational_NO_JOL,1,356,2020-05-04T08:56:30-07:00,1.6031210422516,1,versionA_stim.csv,READVersionA.csv,"Read Version A","Relational, read only version A",MAIN,SCAR,Study2,U,175,152,Test,User,-,,Recall,Recall2,1283,,0,-1,-1,0,0,,1
w99603AHC,kuflmrzi1n,Relational_NO_JOL,1,357,2020-05-04T08:56:31-07:00,1.2853529453278,1,versionA_stim.csv,READVersionA.csv,"Read Version A","Relational, read only version A",BEST,FAVORITE,Study2,B,125,139,Test,User,-,,Recall,Recall2,980,,0,-1,-1,0,0,,1
w99603AHC,kuflmrzi1n,Relational_NO_JOL,1,358,2020-05-04T08:56:33-07:00,1.6539800167084,1,versionA_stim.csv,READVersionA.csv,"Read Version A","Relational, read only version A",NAME,HATE,Study2,U,167,116,Test,User,-,,Recall,Recall2,1345,,0,-1,-1,0,0,,1
w99603AHC,kuflmrzi1n,Relational_NO_JOL,1,359,2020-05-04T08:56:34-07:00,1.2808458805084,1,versionA_stim.csv,READVersionA.csv,"Read Version A","Relational, read only version A",GLASS,BREAKABLE,Study2,B,127,134,Test,User,-,,Recall,Recall2,978,,0,-1,-1,0,0,,1
w99603AHC,kuflmrzi1n,Relational_NO_JOL,1,360,2020-05-04T08:56:36-07:00,1.8416211605072,1,versionA_stim.csv,READVersionA.csv,"Read Version A","Relational, read only version A",CRACKLE,ABLE,Study2,U,162,112,Test,User,-,,Recall,Recall2,1533,,0,-1,-1,0,0,,1
w99603AHC,kuflmrzi1n,Relational_NO_JOL,1,361,2020-05-04T08:56:38-07:00,2.3564219474792,1,versionA_stim.csv,READVersionA.csv,"Read Version A","Relational, read only version A",,,,,,0,Instruct,User,-,"You have completed this section. Please press Enter.",,Instruct7,2051,,,-1,-1,,,,1
w99603AHC,kuflmrzi1n,Relational_NO_JOL,1,362,2020-05-04T08:56:40-07:00,2.2255520820618,1,versionA_stim.csv,READVersionA.csv,"Read Version A","Relational, read only version A",,,,,,0,Instruct,User,-,"The following screen will ask you a few questions abour your experience today. You must complete these questions to receive credit.",,Instruct8,1921,,,-1,-1,,,,1
