Username,ID,ExperimentName,Session,Trial,Date,TimeDif,"Condition Number","Stimuli File","Order File","Condition Description","Condition Notes",Stimuli*Cue,Stimuli*Answer,Stimuli*Shuffle,"Stimuli*Stimuli Notes",Stimuli*Value,Procedure*Item,"Procedure*Trial Type","Procedure*Max Time","Procedure*Min Time",Procedure*Text,"Procedure*Procedure Notes",Procedure*Shuffle,Response*RT,Response*Response,Response*Accuracy,Response*RTfirst,Response*RTlast,Response*strictAcc,Response*lenientAcc,Response*focus,Response*Focus
w969399_anw,8h03ts1ety,Relational_NO_JOL,1,1,2020-04-29T13:10:38-07:00,12.441387891769,2,versionA_stim.csv,READVersionB.csv,"Read Version B","Relational, read only version B",,,,,,0,Instruct,-,10,"In this section, you will be presented with a series of word pairs. Please study both items in the pair.",,Instruct13,12197,,,-1,-1,,,,1
w969399_anw,8h03ts1ety,Relational_NO_JOL,1,2,2020-04-29T13:10:57-07:00,19.215142965317,2,versionA_stim.csv,READVersionB.csv,"Read Version B","Relational, read only version B",,,,,,0,Instruct,-,15,"As you study, please think about how the two concepts are RELATED to each other. For example, if you see the pair TURTLE-CAT, think about how both are alive, they are both animals, and both can be kept as pets.",,Instruct19,18890,,,-1,-1,,,,1
w969399_anw,8h03ts1ety,Relational_NO_JOL,1,3,2020-04-29T13:11:19-07:00,22.282076120377,2,versionA_stim.csv,READVersionB.csv,"Read Version B","Relational, read only version B",,,,,,0,FreeRecall,-,10,"What you should think about as you study each item pair? Type your response in the box below.",,CHECK1,21940,"How they are alive, can be kept as pets",0,6718,20074,0,0,,1
w969399_anw,8h03ts1ety,Relational_NO_JOL,1,4,2020-04-29T13:11:22-07:00,2.8122730255127,2,versionA_stim.csv,READVersionB.csv,"Read Version B","Relational, read only version B",,,,,,0,Instruct,User,-,"You will now begin the experiment. Press ENTER when you are ready to begin.",,Instruct000,2454,,,-1,-1,,,,1
w969399_anw,8h03ts1ety,Relational_NO_JOL,1,5,2020-04-29T13:11:26-07:00,3.8679709434509,2,versionA_stim.csv,READVersionB.csv,"Read Version B","Relational, read only version B",SHRIMP,FISH,BUFFER3,Buffer,93,96,Study,User,-,,Study/JOL,BUFFER,3463,,,-1,-1,,,,1
w969399_anw,8h03ts1ety,Relational_NO_JOL,1,6,2020-04-29T13:11:30-07:00,4.0111920833588,2,versionA_stim.csv,READVersionB.csv,"Read Version B","Relational, read only version B",NOODLE,STRING,BUFFER3,Buffer,92,95,Study,User,-,,Study/JOL,BUFFER,3643,,,-1,-1,,,,1
w969399_anw,8h03ts1ety,Relational_NO_JOL,1,7,2020-04-29T13:11:35-07:00,4.635675907135,2,versionA_stim.csv,READVersionB.csv,"Read Version B","Relational, read only version B",CAMP,ADVENTURE,BUFFER3,Buffer,95,92,Study,User,-,,Study/JOL,BUFFER,4275,,,-1,-1,,,,1
w969399_anw,8h03ts1ety,Relational_NO_JOL,1,8,2020-04-29T13:11:38-07:00,3.3906760215759,2,versionA_stim.csv,READVersionB.csv,"Read Version B","Relational, read only version B",CARROT,POTATO,BUFFER3,Buffer,91,93,Study,User,-,,Study/JOL,BUFFER,2960,,,-1,-1,,,,1
w969399_anw,8h03ts1ety,Relational_NO_JOL,1,9,2020-04-29T13:11:40-07:00,1.6388759613037,2,versionA_stim.csv,READVersionB.csv,"Read Version B","Relational, read only version B",ICE,FROZEN,BUFFER3,Buffer,94,94,Study,User,-,,Study/JOL,BUFFER,1349,,,-1,-1,,,,1
w969399_anw,8h03ts1ety,Relational_NO_JOL,1,10,2020-04-29T13:11:41-07:00,1.6347479820251,2,versionA_stim.csv,READVersionB.csv,"Read Version B","Relational, read only version B",SHOELACE,TIE,Study2,F,99,151,Study,User,-,,Study/JOL,"Study Phase",1344,,,-1,-1,,,,1
w969399_anw,8h03ts1ety,Relational_NO_JOL,1,11,2020-04-29T13:11:44-07:00,2.4966740608215,2,versionA_stim.csv,READVersionB.csv,"Read Version B","Relational, read only version B",CAKE,CLOTHES,Study2,U,166,119,Study,User,-,,Study/JOL,"Study Phase",1090,,,-1,-1,,,,1
w969399_anw,8h03ts1ety,Relational_NO_JOL,1,12,2020-04-29T13:11:45-07:00,1.614697933197,2,versionA_stim.csv,READVersionB.csv,"Read Version B","Relational, read only version B",CANDLE,WAX,Study2,S,139,103,Study,User,-,,Study/JOL,"Study Phase",1231,,,-1,-1,,,,1
w969399_anw,8h03ts1ety,Relational_NO_JOL,1,13,2020-04-29T13:11:47-07:00,2.1313500404358,2,versionA_stim.csv,READVersionB.csv,"Read Version B","Relational, read only version B",PHONE,COMMUNICATION,Study2,S,149,110,Study,User,-,,Study/JOL,"Study Phase",1830,,,-1,-1,,,,1
w969399_anw,8h03ts1ety,Relational_NO_JOL,1,14,2020-04-29T13:11:49-07:00,1.5989680290222,2,versionA_stim.csv,READVersionB.csv,"Read Version B","Relational, read only version B",POP,BALLOON,Study2,B,123,152,Study,User,-,,Study/JOL,"Study Phase",1307,,,-1,-1,,,,1
w969399_anw,8h03ts1ety,Relational_NO_JOL,1,15,2020-04-29T13:11:51-07:00,1.9869730472565,2,versionA_stim.csv,READVersionB.csv,"Read Version B","Relational, read only version B",DRY,WET,Study2,S,146,165,Study,User,-,,Study/JOL,"Study Phase",1540,,,-1,-1,,,,1
w969399_anw,8h03ts1ety,Relational_NO_JOL,1,16,2020-04-29T13:11:53-07:00,1.6774098873138,2,versionA_stim.csv,READVersionB.csv,"Read Version B","Relational, read only version B",LOAN,SIGN,Study2,U,171,100,Study,User,-,,Study/JOL,"Study Phase",1366,,,-1,-1,,,,1
w969399_anw,8h03ts1ety,Relational_NO_JOL,1,17,2020-04-29T13:11:55-07:00,2.5314190387726,2,versionA_stim.csv,READVersionB.csv,"Read Version B","Relational, read only version B",BIRD,PENGUIN,Study2,B,119,158,Study,User,-,,Study/JOL,"Study Phase",2179,,,-1,-1,,,,1
w969399_anw,8h03ts1ety,Relational_NO_JOL,1,18,2020-04-29T13:11:58-07:00,2.8968110084534,2,versionA_stim.csv,READVersionB.csv,"Read Version B","Relational, read only version B",MAIN,SCAR,Study2,U,175,153,Study,User,-,,Study/JOL,"Study Phase",2557,,,-1,-1,,,,1
w969399_anw,8h03ts1ety,Relational_NO_JOL,1,19,2020-04-29T13:12:01-07:00,2.5293219089508,2,versionA_stim.csv,READVersionB.csv,"Read Version B","Relational, read only version B",VEHICLE,CHARM,Study2,U,160,125,Study,User,-,,Study/JOL,"Study Phase",2162,,,-1,-1,,,,1
w969399_anw,8h03ts1ety,Relational_NO_JOL,1,20,2020-04-29T13:12:03-07:00,2.1120300292969,2,versionA_stim.csv,READVersionB.csv,"Read Version B","Relational, read only version B",INCENSE,SMELL,Study2,F,110,154,Study,User,-,,Study/JOL,"Study Phase",1808,,,-1,-1,,,,1
w969399_anw,8h03ts1ety,Relational_NO_JOL,1,21,2020-04-29T13:12:05-07:00,1.8937830924988,2,versionA_stim.csv,READVersionB.csv,"Read Version B","Relational, read only version B",EVEN,REVENGE,Study2,B,122,116,Study,User,-,,Study/JOL,"Study Phase",1590,,,-1,-1,,,,1
w969399_anw,8h03ts1ety,Relational_NO_JOL,1,22,2020-04-29T13:12:06-07:00,1.5838248729706,2,versionA_stim.csv,READVersionB.csv,"Read Version B","Relational, read only version B",FRUIT,STRAWBERRY,Study2,B,124,155,Study,User,-,,Study/JOL,"Study Phase",1295,,,-1,-1,,,,1
w969399_anw,8h03ts1ety,Relational_NO_JOL,1,23,2020-04-29T13:12:08-07:00,1.8313601016998,2,versionA_stim.csv,READVersionB.csv,"Read Version B","Relational, read only version B",SUN,TAN,Study2,S,155,169,Study,User,-,,Study/JOL,"Study Phase",1546,,,-1,-1,,,,1
w969399_anw,8h03ts1ety,Relational_NO_JOL,1,24,2020-04-29T13:12:09-07:00,1.3411960601807,2,versionA_stim.csv,READVersionB.csv,"Read Version B","Relational, read only version B",DEAD,COFFIN,Study2,B,128,108,Study,User,-,,Study/JOL,"Study Phase",1043,,,-1,-1,,,,1
w969399_anw,8h03ts1ety,Relational_NO_JOL,1,25,2020-04-29T13:12:11-07:00,1.996551990509,2,versionA_stim.csv,READVersionB.csv,"Read Version B","Relational, read only version B",THREAD,THIMBLE,Study2,B,121,106,Study,User,-,,Study/JOL,"Study Phase",1664,,,-1,-1,,,,1
w969399_anw,8h03ts1ety,Relational_NO_JOL,1,26,2020-04-29T13:12:13-07:00,1.4144480228424,2,versionA_stim.csv,READVersionB.csv,"Read Version B","Relational, read only version B",GIVE,STEAK,Study2,U,158,166,Study,User,-,,Study/JOL,"Study Phase",1101,,,-1,-1,,,,1
w969399_anw,8h03ts1ety,Relational_NO_JOL,1,27,2020-04-29T13:12:14-07:00,1.4005188941956,2,versionA_stim.csv,READVersionB.csv,"Read Version B","Relational, read only version B",MONEY,BANKER,Study2,B,132,104,Study,User,-,,Study/JOL,"Study Phase",978,,,-1,-1,,,,1
w969399_anw,8h03ts1ety,Relational_NO_JOL,1,28,2020-04-29T13:12:16-07:00,1.5886521339417,2,versionA_stim.csv,READVersionB.csv,"Read Version B","Relational, read only version B",WRIST,BRACELET,Study2,S,140,173,Study,User,-,,Study/JOL,"Study Phase",1254,,,-1,-1,,,,1
w969399_anw,8h03ts1ety,Relational_NO_JOL,1,29,2020-04-29T13:12:18-07:00,1.6914889812469,2,versionA_stim.csv,READVersionB.csv,"Read Version B","Relational, read only version B",FISH,SARDINE,Study2,B,130,142,Study,User,-,,Study/JOL,"Study Phase",1308,,,-1,-1,,,,1
w969399_anw,8h03ts1ety,Relational_NO_JOL,1,30,2020-04-29T13:12:19-07:00,1.7446558475494,2,versionA_stim.csv,READVersionB.csv,"Read Version B","Relational, read only version B",CHILL,COLD,Study2,F,114,122,Study,User,-,,Study/JOL,"Study Phase",1450,,,-1,-1,,,,1
w969399_anw,8h03ts1ety,Relational_NO_JOL,1,31,2020-04-29T13:12:21-07:00,1.8652091026306,2,versionA_stim.csv,READVersionB.csv,"Read Version B","Relational, read only version B",STRETCH,CLOTH,Study2,U,157,141,Study,User,-,,Study/JOL,"Study Phase",1577,,,-1,-1,,,,1
w969399_anw,8h03ts1ety,Relational_NO_JOL,1,32,2020-04-29T13:12:23-07:00,1.630439043045,2,versionA_stim.csv,READVersionB.csv,"Read Version B","Relational, read only version B",CAT,PANTHER,Study2,B,126,123,Study,User,-,,Study/JOL,"Study Phase",1355,,,-1,-1,,,,1
w969399_anw,8h03ts1ety,Relational_NO_JOL,1,33,2020-04-29T13:12:29-07:00,6.4212830066681,2,versionA_stim.csv,READVersionB.csv,"Read Version B","Relational, read only version B",CHOP,CUT,Study2,F,107,159,Study,User,-,,Study/JOL,"Study Phase",6060,,,-1,-1,,,,1
w969399_anw,8h03ts1ety,Relational_NO_JOL,1,34,2020-04-29T13:12:31-07:00,2.2735989093781,2,versionA_stim.csv,READVersionB.csv,"Read Version B","Relational, read only version B",MIRROR,CHILDREN,Study2,U,174,149,Study,User,-,,Study/JOL,"Study Phase",1865,,,-1,-1,,,,1
w969399_anw,8h03ts1ety,Relational_NO_JOL,1,35,2020-04-29T13:12:34-07:00,2.3276150226593,2,versionA_stim.csv,READVersionB.csv,"Read Version B","Relational, read only version B",MULE,DONKEY,Study2,F,108,171,Study,User,-,,Study/JOL,"Study Phase",1934,,,-1,-1,,,,1
w969399_anw,8h03ts1ety,Relational_NO_JOL,1,36,2020-04-29T13:12:37-07:00,2.7535040378571,2,versionA_stim.csv,READVersionB.csv,"Read Version B","Relational, read only version B",RIGHTS,EQUAL,Study2,S,137,170,Study,User,-,,Study/JOL,"Study Phase",2386,,,-1,-1,,,,1
w969399_anw,8h03ts1ety,Relational_NO_JOL,1,37,2020-04-29T13:12:38-07:00,1.9187190532684,2,versionA_stim.csv,READVersionB.csv,"Read Version B","Relational, read only version B",TURN,FLIP,Study2,B,116,174,Study,User,-,,Study/JOL,"Study Phase",1625,,,-1,-1,,,,1
w969399_anw,8h03ts1ety,Relational_NO_JOL,1,38,2020-04-29T13:12:40-07:00,1.8624358177185,2,versionA_stim.csv,READVersionB.csv,"Read Version B","Relational, read only version B",JUSTICE,MAROON,Study2,U,156,102,Study,User,-,,Study/JOL,"Study Phase",1565,,,-1,-1,,,,1
w969399_anw,8h03ts1ety,Relational_NO_JOL,1,39,2020-04-29T13:12:42-07:00,1.4063360691071,2,versionA_stim.csv,READVersionB.csv,"Read Version B","Relational, read only version B",DRIVER,CAR,Study2,F,106,105,Study,User,-,,Study/JOL,"Study Phase",1114,,,-1,-1,,,,1
w969399_anw,8h03ts1ety,Relational_NO_JOL,1,40,2020-04-29T13:12:43-07:00,1.2592511177063,2,versionA_stim.csv,READVersionB.csv,"Read Version B","Relational, read only version B",MOAT,CLEAR,Study2,U,169,157,Study,User,-,,Study/JOL,"Study Phase",963,,,-1,-1,,,,1
w969399_anw,8h03ts1ety,Relational_NO_JOL,1,41,2020-04-29T13:12:45-07:00,1.8462738990784,2,versionA_stim.csv,READVersionB.csv,"Read Version B","Relational, read only version B",NAME,HATE,Study2,U,167,118,Study,User,-,,Study/JOL,"Study Phase",1550,,,-1,-1,,,,1
w969399_anw,8h03ts1ety,Relational_NO_JOL,1,42,2020-04-29T13:12:46-07:00,1.4007139205933,2,versionA_stim.csv,READVersionB.csv,"Read Version B","Relational, read only version B",PLANE,AIRCRAFT,Study2,B,129,128,Study,User,-,,Study/JOL,"Study Phase",1109,,,-1,-1,,,,1
w969399_anw,8h03ts1ety,Relational_NO_JOL,1,43,2020-04-29T13:12:48-07:00,1.692556142807,2,versionA_stim.csv,READVersionB.csv,"Read Version B","Relational, read only version B",LEASE,TOIL,Study2,U,170,156,Study,User,-,,Study/JOL,"Study Phase",1393,,,-1,-1,,,,1
w969399_anw,8h03ts1ety,Relational_NO_JOL,1,44,2020-04-29T13:12:54-07:00,5.884997844696,2,versionA_stim.csv,READVersionB.csv,"Read Version B","Relational, read only version B",,,,,,0,Instruct,-,3,"Remember to focus on how the two items are similiar while you study!",,CHECK2,5546,,,-1,-1,,,,1
w969399_anw,8h03ts1ety,Relational_NO_JOL,1,45,2020-04-29T13:12:56-07:00,1.8302240371704,2,versionA_stim.csv,READVersionB.csv,"Read Version B","Relational, read only version B",RAZOR,SHAVE,Study2,S,136,114,Study,User,-,,Study/JOL,"Study Phase",1526,,,-1,-1,,,,1
w969399_anw,8h03ts1ety,Relational_NO_JOL,1,46,2020-04-29T13:12:58-07:00,2.8477699756622,2,versionA_stim.csv,READVersionB.csv,"Read Version B","Relational, read only version B",FEUD,FIGHT,Study2,F,113,113,Study,User,-,,Study/JOL,"Study Phase",2247,,,-1,-1,,,,1
w969399_anw,8h03ts1ety,Relational_NO_JOL,1,47,2020-04-29T13:13:01-07:00,2.2678439617157,2,versionA_stim.csv,READVersionB.csv,"Read Version B","Relational, read only version B",MEAT,OBTAIN,Study2,U,161,168,Study,User,-,,Study/JOL,"Study Phase",1784,,,-1,-1,,,,1
w969399_anw,8h03ts1ety,Relational_NO_JOL,1,48,2020-04-29T13:13:02-07:00,1.6227869987488,2,versionA_stim.csv,READVersionB.csv,"Read Version B","Relational, read only version B",BEST,FAVORITE,Study2,B,125,133,Study,User,-,,Study/JOL,"Study Phase",1334,,,-1,-1,,,,1
w969399_anw,8h03ts1ety,Relational_NO_JOL,1,49,2020-04-29T13:13:04-07:00,1.4848921298981,2,versionA_stim.csv,READVersionB.csv,"Read Version B","Relational, read only version B",DETECTIVE,MYSTERY,Study2,F,100,134,Study,User,-,,Study/JOL,"Study Phase",1109,,,-1,-1,,,,1
w969399_anw,8h03ts1ety,Relational_NO_JOL,1,50,2020-04-29T13:13:06-07:00,1.8826630115509,2,versionA_stim.csv,READVersionB.csv,"Read Version B","Relational, read only version B",DOCUMENT,PAPER,Study2,F,109,139,Study,User,-,,Study/JOL,"Study Phase",1487,,,-1,-1,,,,1
w969399_anw,8h03ts1ety,Relational_NO_JOL,1,51,2020-04-29T13:13:07-07:00,1.5216970443726,2,versionA_stim.csv,READVersionB.csv,"Read Version B","Relational, read only version B",EARTH,GROUND,Study2,S,144,135,Study,User,-,,Study/JOL,"Study Phase",1227,,,-1,-1,,,,1
w969399_anw,8h03ts1ety,Relational_NO_JOL,1,52,2020-04-29T13:13:09-07:00,1.5419988632202,2,versionA_stim.csv,READVersionB.csv,"Read Version B","Relational, read only version B",FIGHT,BRAWL,Study2,B,135,109,Study,User,-,,Study/JOL,"Study Phase",1195,,,-1,-1,,,,1
w969399_anw,8h03ts1ety,Relational_NO_JOL,1,53,2020-04-29T13:13:10-07:00,1.6016080379486,2,versionA_stim.csv,READVersionB.csv,"Read Version B","Relational, read only version B",STAR,ACTRESS,Study2,B,120,131,Study,User,-,,Study/JOL,"Study Phase",1242,,,-1,-1,,,,1
w969399_anw,8h03ts1ety,Relational_NO_JOL,1,54,2020-04-29T13:13:12-07:00,1.518189907074,2,versionA_stim.csv,READVersionB.csv,"Read Version B","Relational, read only version B",TANTRUM,TEMPER,Study2,S,154,147,Study,User,-,,Study/JOL,"Study Phase",1217,,,-1,-1,,,,1
w969399_anw,8h03ts1ety,Relational_NO_JOL,1,55,2020-04-29T13:13:14-07:00,1.5678350925446,2,versionA_stim.csv,READVersionB.csv,"Read Version B","Relational, read only version B",AFFECTION,LOVE,Study2,F,115,148,Study,User,-,,Study/JOL,"Study Phase",1073,,,-1,-1,,,,1
w969399_anw,8h03ts1ety,Relational_NO_JOL,1,56,2020-04-29T13:13:15-07:00,1.8624110221863,2,versionA_stim.csv,READVersionB.csv,"Read Version B","Relational, read only version B",FUZZY,BANG,Study2,U,168,172,Study,User,-,,Study/JOL,"Study Phase",1567,,,-1,-1,,,,1
w969399_anw,8h03ts1ety,Relational_NO_JOL,1,57,2020-04-29T13:13:17-07:00,1.6005411148071,2,versionA_stim.csv,READVersionB.csv,"Read Version B","Relational, read only version B",ROD,REEL,Study2,S,150,146,Study,User,-,,Study/JOL,"Study Phase",1309,,,-1,-1,,,,1
w969399_anw,8h03ts1ety,Relational_NO_JOL,1,58,2020-04-29T13:13:19-07:00,1.5743417739868,2,versionA_stim.csv,READVersionB.csv,"Read Version B","Relational, read only version B",MASON,JAR,Study2,S,138,138,Study,User,-,,Study/JOL,"Study Phase",1272,,,-1,-1,,,,1
w969399_anw,8h03ts1ety,Relational_NO_JOL,1,59,2020-04-29T13:13:20-07:00,1.3575870990753,2,versionA_stim.csv,READVersionB.csv,"Read Version B","Relational, read only version B",CAR,WINDSHIELD,Study2,B,117,140,Study,User,-,,Study/JOL,"Study Phase",1052,,,-1,-1,,,,1
w969399_anw,8h03ts1ety,Relational_NO_JOL,1,60,2020-04-29T13:13:22-07:00,1.9443459510803,2,versionA_stim.csv,READVersionB.csv,"Read Version B","Relational, read only version B",MAZE,ELECTION,Study2,U,159,176,Study,User,-,,Study/JOL,"Study Phase",1613,,,-1,-1,,,,1
w969399_anw,8h03ts1ety,Relational_NO_JOL,1,61,2020-04-29T13:13:23-07:00,1.4668090343475,2,versionA_stim.csv,READVersionB.csv,"Read Version B","Relational, read only version B",FURRY,DOG,Study2,F,102,150,Study,User,-,,Study/JOL,"Study Phase",976,,,-1,-1,,,,1
w969399_anw,8h03ts1ety,Relational_NO_JOL,1,62,2020-04-29T13:13:25-07:00,1.7484481334686,2,versionA_stim.csv,READVersionB.csv,"Read Version B","Relational, read only version B",SAFETY,SEATBELT,Study2,S,147,167,Study,User,-,,Study/JOL,"Study Phase",1249,,,-1,-1,,,,1
w969399_anw,8h03ts1ety,Relational_NO_JOL,1,63,2020-04-29T13:13:27-07:00,1.4610788822174,2,versionA_stim.csv,READVersionB.csv,"Read Version B","Relational, read only version B",DINE,EAT,Study2,F,111,143,Study,User,-,,Study/JOL,"Study Phase",1163,,,-1,-1,,,,1
w969399_anw,8h03ts1ety,Relational_NO_JOL,1,64,2020-04-29T13:13:28-07:00,1.5519680976868,2,versionA_stim.csv,READVersionB.csv,"Read Version B","Relational, read only version B",TRUTH,LIE,Study2,S,148,164,Study,User,-,,Study/JOL,"Study Phase",1200,,,-1,-1,,,,1
w969399_anw,8h03ts1ety,Relational_NO_JOL,1,65,2020-04-29T13:13:30-07:00,2.3362529277802,2,versionA_stim.csv,READVersionB.csv,"Read Version B","Relational, read only version B",CRACKLE,ABLE,Study2,U,162,162,Study,User,-,,Study/JOL,"Study Phase",1908,,,-1,-1,,,,1
w969399_anw,8h03ts1ety,Relational_NO_JOL,1,66,2020-04-29T13:13:32-07:00,1.0914468765259,2,versionA_stim.csv,READVersionB.csv,"Read Version B","Relational, read only version B",SCALP,HEAD,Study2,F,105,112,Study,User,-,,Study/JOL,"Study Phase",790,,,-1,-1,,,,1
w969399_anw,8h03ts1ety,Relational_NO_JOL,1,67,2020-04-29T13:13:33-07:00,1.6808321475983,2,versionA_stim.csv,READVersionB.csv,"Read Version B","Relational, read only version B",SHEARS,SCISSORS,Study2,F,112,137,Study,User,-,,Study/JOL,"Study Phase",1384,,,-1,-1,,,,1
w969399_anw,8h03ts1ety,Relational_NO_JOL,1,68,2020-04-29T13:13:36-07:00,2.7362990379333,2,versionA_stim.csv,READVersionB.csv,"Read Version B","Relational, read only version B",TEMPERATURE,Morning,Study2,U,173,124,Study,User,-,,Study/JOL,"Study Phase",2145,,,-1,-1,,,,1
w969399_anw,8h03ts1ety,Relational_NO_JOL,1,69,2020-04-29T13:13:38-07:00,1.6237699985504,2,versionA_stim.csv,READVersionB.csv,"Read Version B","Relational, read only version B",ADJOURN,END,Study2,F,101,121,Study,User,-,,Study/JOL,"Study Phase",1332,,,-1,-1,,,,1
w969399_anw,8h03ts1ety,Relational_NO_JOL,1,70,2020-04-29T13:13:40-07:00,2.3758289813995,2,versionA_stim.csv,READVersionB.csv,"Read Version B","Relational, read only version B",Shell,SHAKE,Study2,U,163,126,Study,User,-,,Study/JOL,"Study Phase",2034,,,-1,-1,,,,1
w969399_anw,8h03ts1ety,Relational_NO_JOL,1,71,2020-04-29T13:13:41-07:00,1.229080915451,2,versionA_stim.csv,READVersionB.csv,"Read Version B","Relational, read only version B",GONE,AWAY,Study2,S,142,117,Study,User,-,,Study/JOL,"Study Phase",934,,,-1,-1,,,,1
w969399_anw,8h03ts1ety,Relational_NO_JOL,1,72,2020-04-29T13:13:43-07:00,1.6004431247711,2,versionA_stim.csv,READVersionB.csv,"Read Version B","Relational, read only version B",CHERRY,RED,Study2,F,104,145,Study,User,-,,Study/JOL,"Study Phase",1121,,,-1,-1,,,,1
w969399_anw,8h03ts1ety,Relational_NO_JOL,1,73,2020-04-29T13:13:45-07:00,2.2647018432617,2,versionA_stim.csv,READVersionB.csv,"Read Version B","Relational, read only version B",BOTH,OUNCE,Study2,U,172,107,Study,User,-,,Study/JOL,"Study Phase",1736,,,-1,-1,,,,1
w969399_anw,8h03ts1ety,Relational_NO_JOL,1,74,2020-04-29T13:13:47-07:00,1.5439169406891,2,versionA_stim.csv,READVersionB.csv,"Read Version B","Relational, read only version B",LOUD,NOISE,Study2,S,152,130,Study,User,-,,Study/JOL,"Study Phase",1236,,,-1,-1,,,,1
w969399_anw,8h03ts1ety,Relational_NO_JOL,1,75,2020-04-29T13:13:48-07:00,1.6495051383972,2,versionA_stim.csv,READVersionB.csv,"Read Version B","Relational, read only version B",CACTUS,PLANT,Study2,F,98,161,Study,User,-,,Study/JOL,"Study Phase",1272,,,-1,-1,,,,1
w969399_anw,8h03ts1ety,Relational_NO_JOL,1,76,2020-04-29T13:13:50-07:00,1.3638820648193,2,versionA_stim.csv,READVersionB.csv,"Read Version B","Relational, read only version B",LISTEN,FICTION,Study2,U,164,132,Study,User,-,,Study/JOL,"Study Phase",1056,,,-1,-1,,,,1
w969399_anw,8h03ts1ety,Relational_NO_JOL,1,77,2020-04-29T13:13:51-07:00,1.0705428123474,2,versionA_stim.csv,READVersionB.csv,"Read Version B","Relational, read only version B",KEYS,JOKE,Study2,U,165,129,Study,User,-,,Study/JOL,"Study Phase",774,,,-1,-1,,,,1
w969399_anw,8h03ts1ety,Relational_NO_JOL,1,78,2020-04-29T13:13:52-07:00,1.2280271053314,2,versionA_stim.csv,READVersionB.csv,"Read Version B","Relational, read only version B",GLASS,BREAKABLE,Study2,B,127,97,Study,User,-,,Study/JOL,"Study Phase",931,,,-1,-1,,,,1
w969399_anw,8h03ts1ety,Relational_NO_JOL,1,79,2020-04-29T13:13:53-07:00,1.1171610355377,2,versionA_stim.csv,READVersionB.csv,"Read Version B","Relational, read only version B",ALONE,LONELY,Study2,S,145,99,Study,User,-,,Study/JOL,"Study Phase",814,,,-1,-1,,,,1
w969399_anw,8h03ts1ety,Relational_NO_JOL,1,80,2020-04-29T13:13:54-07:00,1.0628950595856,2,versionA_stim.csv,READVersionB.csv,"Read Version B","Relational, read only version B",FLEA,TICK,Study2,S,151,144,Study,User,-,,Study/JOL,"Study Phase",751,,,-1,-1,,,,1
w969399_anw,8h03ts1ety,Relational_NO_JOL,1,81,2020-04-29T13:13:55-07:00,1.3860509395599,2,versionA_stim.csv,READVersionB.csv,"Read Version B","Relational, read only version B",OWN,HAVE,Study2,S,153,101,Study,User,-,,Study/JOL,"Study Phase",1087,,,-1,-1,,,,1
w969399_anw,8h03ts1ety,Relational_NO_JOL,1,82,2020-04-29T13:13:57-07:00,1.6369168758392,2,versionA_stim.csv,READVersionB.csv,"Read Version B","Relational, read only version B",EXTENSION,LONG,Study2,F,96,175,Study,User,-,,Study/JOL,"Study Phase",1330,,,-1,-1,,,,1
w969399_anw,8h03ts1ety,Relational_NO_JOL,1,83,2020-04-29T13:13:58-07:00,1.0368201732635,2,versionA_stim.csv,READVersionB.csv,"Read Version B","Relational, read only version B",WATER,DRINK,Study2,S,143,111,Study,User,-,,Study/JOL,"Study Phase",760,,,-1,-1,,,,1
w969399_anw,8h03ts1ety,Relational_NO_JOL,1,84,2020-04-29T13:13:59-07:00,1.16694688797,2,versionA_stim.csv,READVersionB.csv,"Read Version B","Relational, read only version B",LITTER,TRASH,Study2,F,103,127,Study,User,-,,Study/JOL,"Study Phase",865,,,-1,-1,,,,1
w969399_anw,8h03ts1ety,Relational_NO_JOL,1,85,2020-04-29T13:14:01-07:00,1.4839630126953,2,versionA_stim.csv,READVersionB.csv,"Read Version B","Relational, read only version B",SLEEP,NAP,Study2,B,134,120,Study,User,-,,Study/JOL,"Study Phase",1189,,,-1,-1,,,,1
w969399_anw,8h03ts1ety,Relational_NO_JOL,1,86,2020-04-29T13:14:02-07:00,1.5739750862122,2,versionA_stim.csv,READVersionB.csv,"Read Version B","Relational, read only version B",ELEMENT,CARBON,Study2,S,141,115,Study,User,-,,Study/JOL,"Study Phase",1284,,,-1,-1,,,,1
w969399_anw,8h03ts1ety,Relational_NO_JOL,1,87,2020-04-29T13:14:04-07:00,1.3426678180695,2,versionA_stim.csv,READVersionB.csv,"Read Version B","Relational, read only version B",CLUE,GAME,Study2,F,97,136,Study,User,-,,Study/JOL,"Study Phase",1039,,,-1,-1,,,,1
w969399_anw,8h03ts1ety,Relational_NO_JOL,1,88,2020-04-29T13:14:05-07:00,1.0945792198181,2,versionA_stim.csv,READVersionB.csv,"Read Version B","Relational, read only version B",BAD,VILLAIN,Study2,B,118,98,Study,User,-,,Study/JOL,"Study Phase",801,,,-1,-1,,,,1
w969399_anw,8h03ts1ety,Relational_NO_JOL,1,89,2020-04-29T13:14:06-07:00,1.4149589538574,2,versionA_stim.csv,READVersionB.csv,"Read Version B","Relational, read only version B",HONEST,TRUTHFUL,Study2,B,133,163,Study,User,-,,Study/JOL,"Study Phase",1108,,,-1,-1,,,,1
w969399_anw,8h03ts1ety,Relational_NO_JOL,1,90,2020-04-29T13:14:07-07:00,1.2733318805695,2,versionA_stim.csv,READVersionB.csv,"Read Version B","Relational, read only version B",BASEBALL,LEAGUE,Study2,B,131,160,Study,User,-,,Study/JOL,"Study Phase",936,,,-1,-1,,,,1
w969399_anw,8h03ts1ety,Relational_NO_JOL,1,91,2020-04-29T13:14:09-07:00,1.7054090499878,2,versionA_stim.csv,READVersionB.csv,"Read Version B","Relational, read only version B",OCTOBER,SPOOKY,BUFFER4,Buffer,180,177,Study,User,-,,Study/JOL,BUFFER2,1409,,,-1,-1,,,,1
w969399_anw,8h03ts1ety,Relational_NO_JOL,1,92,2020-04-29T13:14:10-07:00,1.2208740711212,2,versionA_stim.csv,READVersionB.csv,"Read Version B","Relational, read only version B",TOOL,SHED,BUFFER4,Buffer,178,178,Study,User,-,,Study/JOL,BUFFER2,918,,,-1,-1,,,,1
w969399_anw,8h03ts1ety,Relational_NO_JOL,1,93,2020-04-29T13:14:12-07:00,1.2616679668427,2,versionA_stim.csv,READVersionB.csv,"Read Version B","Relational, read only version B",DAYS,WEAKS,BUFFER4,Buffer,176,179,Study,User,-,,Study/JOL,BUFFER2,940,,,-1,-1,,,,1
w969399_anw,8h03ts1ety,Relational_NO_JOL,1,94,2020-04-29T13:14:13-07:00,1.4267020225525,2,versionA_stim.csv,READVersionB.csv,"Read Version B","Relational, read only version B",MONTH,YEAR,BUFFER4,Buffer,177,181,Study,User,-,,Study/JOL,BUFFER2,1140,,,-1,-1,,,,1
w969399_anw,8h03ts1ety,Relational_NO_JOL,1,95,2020-04-29T13:14:14-07:00,1.3080110549927,2,versionA_stim.csv,READVersionB.csv,"Read Version B","Relational, read only version B",SPRING,MARCH,BUFFER4,Buffer,179,180,Study,User,-,,Study/JOL,BUFFER2,905,,,-1,-1,,,,1
w969399_anw,8h03ts1ety,Relational_NO_JOL,1,96,2020-04-29T13:14:17-07:00,2.962721824646,2,versionA_stim.csv,READVersionB.csv,"Read Version B","Relational, read only version B",,,,,,0,Instruct,User,-,"You have completed this section. Please press Enter.",Filler_Instruction,Instruct2,2591,,,-1,-1,,,,1
w969399_anw,8h03ts1ety,Relational_NO_JOL,1,97,2020-04-29T13:14:19-07:00,1.8469090461731,2,versionA_stim.csv,READVersionB.csv,"Read Version B","Relational, read only version B",,,,,,0,Instruct,User,-,"You have completed this section. Please press Enter.",Filler_Instruction,Instruct5,1559,,,-1,-1,,,,1
w969399_anw,8h03ts1ety,Relational_NO_JOL,1,98,2020-04-29T13:14:34-07:00,14.667474031448,2,versionA_stim.csv,READVersionB.csv,"Read Version B","Relational, read only version B",,,,,,0,FreeRecall,-,10,"What were you supposed to focus on while you studied each pair? (Hint: Think back to the instructions). Type your answer in the space below.",,CHECK3,14304,"How the two words relate to each other",0,4419,12990,0,0,,1
w969399_anw,8h03ts1ety,Relational_NO_JOL,1,99,2020-04-29T13:16:34-07:00,120.36070203781,2,versionA_stim.csv,READVersionB.csv,"Read Version B","Relational, read only version B",,,,,,0,FreeRecall,120,120,"Please list the 50 US states in alphabetical order. The task will automatically advance to the next screen after two minutes.",,Filler1,120003,"Mississippi, Georgia, Texas, Washington, California, Iowa, Utah, South Carolina, North Carolina, Wisconsin, Massachusetts, New York, Tennessee, North Dakota, South Dakota, ",0,6010,95936,0,0,,0.985
w969399_anw,8h03ts1ety,Relational_NO_JOL,1,100,2020-04-29T13:16:50-07:00,15.834476947784,2,versionA_stim.csv,READVersionB.csv,"Read Version B","Relational, read only version B",,,,,,0,Instruct,-,10,"You will now be presented with the first word from each of the previously studied item pairs. Please type the missing word. If you do not know the word, you may guess or press Enter to skip forward to the next pair.",,Instruct3,15493,,,-1,-1,,,,1
w969399_anw,8h03ts1ety,Relational_NO_JOL,1,101,2020-04-29T13:16:54-07:00,4.2234709262848,2,versionA_stim.csv,READVersionB.csv,"Read Version B","Relational, read only version B",ROD,REEL,Study2,S,150,146,Test,User,-,,Recall,Recall1,3846,,0,-1,-1,0,0,,1
w969399_anw,8h03ts1ety,Relational_NO_JOL,1,102,2020-04-29T13:16:56-07:00,1.5901620388031,2,versionA_stim.csv,READVersionB.csv,"Read Version B","Relational, read only version B",MONEY,BANKER,Study2,B,132,104,Test,User,-,,Recall,Recall1,1312,,0,-1,-1,0,0,,1
w969399_anw,8h03ts1ety,Relational_NO_JOL,1,103,2020-04-29T13:16:57-07:00,1.3886890411377,2,versionA_stim.csv,READVersionB.csv,"Read Version B","Relational, read only version B",BEST,FAVORITE,Study2,B,125,133,Test,User,-,,Recall,Recall1,1073,,0,-1,-1,0,0,,1
w969399_anw,8h03ts1ety,Relational_NO_JOL,1,104,2020-04-29T13:17:06-07:00,9.1167900562286,2,versionA_stim.csv,READVersionB.csv,"Read Version B","Relational, read only version B",BOTH,OUNCE,Study2,U,172,107,Test,User,-,,Recall,Recall1,8688,OUNCE,100,1584,5771,1,1,,1
w969399_anw,8h03ts1ety,Relational_NO_JOL,1,105,2020-04-29T13:17:14-07:00,7.2216370105743,2,versionA_stim.csv,READVersionB.csv,"Read Version B","Relational, read only version B",LOAN,SIGN,Study2,U,171,100,Test,User,-,,Recall,Recall1,6821,Money,22.222222222222,1425,5817,0,0,,1
w969399_anw,8h03ts1ety,Relational_NO_JOL,1,106,2020-04-29T13:17:20-07:00,6.0110788345337,2,versionA_stim.csv,READVersionB.csv,"Read Version B","Relational, read only version B",MEAT,OBTAIN,Study2,U,161,168,Test,User,-,,Recall,Recall1,5644,Obtain,100,3631,5005,1,1,,1
w969399_anw,8h03ts1ety,Relational_NO_JOL,1,107,2020-04-29T13:17:25-07:00,5.695641040802,2,versionA_stim.csv,READVersionB.csv,"Read Version B","Relational, read only version B",TEMPERATURE,Morning,Study2,U,173,124,Test,User,-,,Recall,Recall1,5306,Mornings,93.333333333333,1853,4605,0,1,,1
w969399_anw,8h03ts1ety,Relational_NO_JOL,1,108,2020-04-29T13:17:27-07:00,2.0115780830383,2,versionA_stim.csv,READVersionB.csv,"Read Version B","Relational, read only version B",SAFETY,SEATBELT,Study2,S,147,167,Test,User,-,,Recall,Recall1,1722,,0,-1,-1,0,0,,1
w969399_anw,8h03ts1ety,Relational_NO_JOL,1,109,2020-04-29T13:17:34-07:00,6.5612149238586,2,versionA_stim.csv,READVersionB.csv,"Read Version B","Relational, read only version B",POP,BALLOON,Study2,B,123,152,Test,User,-,,Recall,Recall1,6187,balloon,100,3228,4822,1,1,,1
w969399_anw,8h03ts1ety,Relational_NO_JOL,1,110,2020-04-29T13:17:40-07:00,6.384535074234,2,versionA_stim.csv,READVersionB.csv,"Read Version B","Relational, read only version B",FRUIT,STRAWBERRY,Study2,B,124,155,Test,User,-,,Recall,Recall1,6039,Strawberry,100,2041,5321,1,1,,1
w969399_anw,8h03ts1ety,Relational_NO_JOL,1,111,2020-04-29T13:17:45-07:00,4.9741470813751,2,versionA_stim.csv,READVersionB.csv,"Read Version B","Relational, read only version B",FISH,SARDINE,Study2,B,130,142,Test,User,-,,Recall,Recall1,4613,shrimp,46.153846153846,1811,3855,0,0,,1
w969399_anw,8h03ts1ety,Relational_NO_JOL,1,112,2020-04-29T13:17:48-07:00,3.194365978241,2,versionA_stim.csv,READVersionB.csv,"Read Version B","Relational, read only version B",CRACKLE,ABLE,Study2,U,162,162,Test,User,-,,Recall,Recall1,2829,POP,0,1751,2104,0,0,,1
w969399_anw,8h03ts1ety,Relational_NO_JOL,1,113,2020-04-29T13:17:50-07:00,1.9770579338074,2,versionA_stim.csv,READVersionB.csv,"Read Version B","Relational, read only version B",ELEMENT,CARBON,Study2,S,141,115,Test,User,-,,Recall,Recall1,1586,,0,-1,-1,0,0,,1
w969399_anw,8h03ts1ety,Relational_NO_JOL,1,114,2020-04-29T13:17:55-07:00,4.9701008796692,2,versionA_stim.csv,READVersionB.csv,"Read Version B","Relational, read only version B",LOUD,NOISE,Study2,S,152,130,Test,User,-,,Recall,Recall1,4559,noise,100,2846,3818,1,1,,1
w969399_anw,8h03ts1ety,Relational_NO_JOL,1,115,2020-04-29T13:18:04-07:00,8.1939899921417,2,versionA_stim.csv,READVersionB.csv,"Read Version B","Relational, read only version B",FUZZY,BANG,Study2,U,168,172,Test,User,-,,Recall,Recall1,7837,bear,50,6023,6473,0,0,,1
w969399_anw,8h03ts1ety,Relational_NO_JOL,1,116,2020-04-29T13:18:06-07:00,2.3739130496979,2,versionA_stim.csv,READVersionB.csv,"Read Version B","Relational, read only version B",CANDLE,WAX,Study2,S,139,103,Test,User,-,,Recall,Recall1,2004,,0,-1,-1,0,0,,1
w969399_anw,8h03ts1ety,Relational_NO_JOL,1,117,2020-04-29T13:18:07-07:00,1.2045249938965,2,versionA_stim.csv,READVersionB.csv,"Read Version B","Relational, read only version B",DINE,EAT,Study2,F,111,143,Test,User,-,,Recall,Recall1,904,,0,-1,-1,0,0,,1
w969399_anw,8h03ts1ety,Relational_NO_JOL,1,118,2020-04-29T13:18:08-07:00,1.3182330131531,2,versionA_stim.csv,READVersionB.csv,"Read Version B","Relational, read only version B",KEYS,JOKE,Study2,U,165,129,Test,User,-,,Recall,Recall1,930,,0,-1,-1,0,0,,1
w969399_anw,8h03ts1ety,Relational_NO_JOL,1,119,2020-04-29T13:18:10-07:00,1.1319551467896,2,versionA_stim.csv,READVersionB.csv,"Read Version B","Relational, read only version B",STAR,ACTRESS,Study2,B,120,131,Test,User,-,,Recall,Recall1,847,,0,-1,-1,0,0,,1
w969399_anw,8h03ts1ety,Relational_NO_JOL,1,120,2020-04-29T13:18:28-07:00,18.677285909653,2,versionA_stim.csv,READVersionB.csv,"Read Version B","Relational, read only version B",RIGHTS,EQUAL,Study2,S,137,170,Test,User,-,,Recall,Recall1,18319,equal,100,14691,17983,1,1,,1
w969399_anw,8h03ts1ety,Relational_NO_JOL,1,121,2020-04-29T13:18:37-07:00,9.0898370742798,2,versionA_stim.csv,READVersionB.csv,"Read Version B","Relational, read only version B",JUSTICE,MAROON,Study2,U,156,102,Test,User,-,,Recall,Recall1,8725,serve,18.181818181818,6822,7524,0,0,,1
w969399_anw,8h03ts1ety,Relational_NO_JOL,1,122,2020-04-29T13:18:41-07:00,3.8754818439484,2,versionA_stim.csv,READVersionB.csv,"Read Version B","Relational, read only version B",LITTER,TRASH,Study2,F,103,127,Test,User,-,,Recall,Recall1,3506,kitten,18.181818181818,1499,2693,0,0,,1
w969399_anw,8h03ts1ety,Relational_NO_JOL,1,123,2020-04-29T13:18:45-07:00,3.8822929859161,2,versionA_stim.csv,READVersionB.csv,"Read Version B","Relational, read only version B",RAZOR,SHAVE,Study2,S,136,114,Test,User,-,,Recall,Recall1,3532,shave,100,1470,1970,1,1,,1
w969399_anw,8h03ts1ety,Relational_NO_JOL,1,124,2020-04-29T13:18:47-07:00,1.7707090377808,2,versionA_stim.csv,READVersionB.csv,"Read Version B","Relational, read only version B",EXTENSION,LONG,Study2,F,96,175,Test,User,-,,Recall,Recall1,1478,,0,-1,-1,0,0,,1
w969399_anw,8h03ts1ety,Relational_NO_JOL,1,125,2020-04-29T13:18:49-07:00,2.0728361606598,2,versionA_stim.csv,READVersionB.csv,"Read Version B","Relational, read only version B",FLEA,TICK,Study2,S,151,144,Test,User,-,,Recall,Recall1,1706,,0,-1,-1,0,0,,1
w969399_anw,8h03ts1ety,Relational_NO_JOL,1,126,2020-04-29T13:18:52-07:00,3.3926298618317,2,versionA_stim.csv,READVersionB.csv,"Read Version B","Relational, read only version B",WRIST,BRACELET,Study2,S,140,173,Test,User,-,,Recall,Recall1,2964,watch,30.769230769231,1628,2393,0,0,,1
w969399_anw,8h03ts1ety,Relational_NO_JOL,1,127,2020-04-29T13:18:59-07:00,6.1764121055603,2,versionA_stim.csv,READVersionB.csv,"Read Version B","Relational, read only version B",CHOP,CUT,Study2,F,107,159,Test,User,-,,Recall,Recall1,5802,cut,100,4131,4597,1,1,,1
w969399_anw,8h03ts1ety,Relational_NO_JOL,1,128,2020-04-29T13:19:05-07:00,6.1511809825897,2,versionA_stim.csv,READVersionB.csv,"Read Version B","Relational, read only version B",FEUD,FIGHT,Study2,F,113,113,Test,User,-,,Recall,Recall1,5768,fight,100,4183,4602,1,1,,1
w969399_anw,8h03ts1ety,Relational_NO_JOL,1,129,2020-04-29T13:19:09-07:00,4.296324968338,2,versionA_stim.csv,READVersionB.csv,"Read Version B","Relational, read only version B",SLEEP,NAP,Study2,B,134,120,Test,User,-,,Recall,Recall1,3940,nap,100,3067,3324,1,1,,1
w969399_anw,8h03ts1ety,Relational_NO_JOL,1,130,2020-04-29T13:19:12-07:00,3.3004729747772,2,versionA_stim.csv,READVersionB.csv,"Read Version B","Relational, read only version B",SCALP,HEAD,Study2,F,105,112,Test,User,-,,Recall,Recall1,2943,hair,50,2117,2409,0,0,,1
w969399_anw,8h03ts1ety,Relational_NO_JOL,1,131,2020-04-29T13:19:24-07:00,12.129870891571,2,versionA_stim.csv,READVersionB.csv,"Read Version B","Relational, read only version B",SHEARS,SCISSORS,Study2,F,112,137,Test,User,-,,Recall,Recall1,11746,scissor,93.333333333333,1278,11011,0,1,,1
w969399_anw,8h03ts1ety,Relational_NO_JOL,1,132,2020-04-29T13:19:28-07:00,3.9774219989777,2,versionA_stim.csv,READVersionB.csv,"Read Version B","Relational, read only version B",STRETCH,CLOTH,Study2,U,157,141,Test,User,-,,Recall,Recall1,3614,,0,-1,-1,0,0,,1
w969399_anw,8h03ts1ety,Relational_NO_JOL,1,133,2020-04-29T13:19:31-07:00,2.494558095932,2,versionA_stim.csv,READVersionB.csv,"Read Version B","Relational, read only version B",SHOELACE,TIE,Study2,F,99,151,Test,User,-,,Recall,Recall1,2137,tie,100,1187,1405,1,1,,1
w969399_anw,8h03ts1ety,Relational_NO_JOL,1,134,2020-04-29T13:19:33-07:00,1.8013269901276,2,versionA_stim.csv,READVersionB.csv,"Read Version B","Relational, read only version B",OWN,HAVE,Study2,S,153,101,Test,User,-,,Recall,Recall1,1491,,0,-1,-1,0,0,,1
w969399_anw,8h03ts1ety,Relational_NO_JOL,1,135,2020-04-29T13:19:37-07:00,4.4281959533691,2,versionA_stim.csv,READVersionB.csv,"Read Version B","Relational, read only version B",CACTUS,PLANT,Study2,F,98,161,Test,User,-,,Recall,Recall1,3996,plant,100,1470,3055,1,1,,1
w969399_anw,8h03ts1ety,Relational_NO_JOL,1,136,2020-04-29T13:19:40-07:00,2.8747160434723,2,versionA_stim.csv,READVersionB.csv,"Read Version B","Relational, read only version B",INCENSE,SMELL,Study2,F,110,154,Test,User,-,,Recall,Recall1,2471,smell,100,1073,1689,1,1,,1
w969399_anw,8h03ts1ety,Relational_NO_JOL,1,137,2020-04-29T13:19:43-07:00,3.0458800792694,2,versionA_stim.csv,READVersionB.csv,"Read Version B","Relational, read only version B",LISTEN,FICTION,Study2,U,164,132,Test,User,-,,Recall,Recall1,2679,hear,0,1856,2217,0,0,,1
w969399_anw,8h03ts1ety,Relational_NO_JOL,1,138,2020-04-29T13:19:45-07:00,1.7765510082245,2,versionA_stim.csv,READVersionB.csv,"Read Version B","Relational, read only version B",DETECTIVE,MYSTERY,Study2,F,100,134,Test,User,-,,Recall,Recall1,1445,,0,-1,-1,0,0,,1
w969399_anw,8h03ts1ety,Relational_NO_JOL,1,139,2020-04-29T13:19:51-07:00,6.3813500404358,2,versionA_stim.csv,READVersionB.csv,"Read Version B","Relational, read only version B",THREAD,THIMBLE,Study2,B,121,106,Test,User,-,,Recall,Recall1,6001,,0,-1,-1,0,0,,1
w969399_anw,8h03ts1ety,Relational_NO_JOL,1,140,2020-04-29T13:19:54-07:00,2.9241769313812,2,versionA_stim.csv,READVersionB.csv,"Read Version B","Relational, read only version B",SUN,TAN,Study2,S,155,169,Test,User,-,,Recall,Recall1,2565,tan,100,1750,2010,1,1,,1
w969399_anw,8h03ts1ety,Relational_NO_JOL,1,141,2020-04-29T13:19:56-07:00,1.4013378620148,2,versionA_stim.csv,READVersionB.csv,"Read Version B","Relational, read only version B",MAIN,SCAR,Study2,U,175,153,Test,User,-,,Recall,Recall1,1099,,0,-1,-1,0,0,,1
w969399_anw,8h03ts1ety,Relational_NO_JOL,1,142,2020-04-29T13:20:00-07:00,4.7287971973419,2,versionA_stim.csv,READVersionB.csv,"Read Version B","Relational, read only version B",CHERRY,RED,Study2,F,104,145,Test,User,-,,Recall,Recall1,4202,red,100,3193,3549,1,1,,1
w969399_anw,8h03ts1ety,Relational_NO_JOL,1,143,2020-04-29T13:20:02-07:00,1.3217079639435,2,versionA_stim.csv,READVersionB.csv,"Read Version B","Relational, read only version B",WATER,DRINK,Study2,S,143,111,Test,User,-,,Recall,Recall1,1018,,0,-1,-1,0,0,,1
w969399_anw,8h03ts1ety,Relational_NO_JOL,1,144,2020-04-29T13:20:11-07:00,9.9249019622803,2,versionA_stim.csv,READVersionB.csv,"Read Version B","Relational, read only version B",MIRROR,CHILDREN,Study2,U,174,149,Test,User,-,,Recall,Recall1,9469,children,100,5287,8561,1,1,,1
w969399_anw,8h03ts1ety,Relational_NO_JOL,1,145,2020-04-29T13:20:16-07:00,4.7021489143372,2,versionA_stim.csv,READVersionB.csv,"Read Version B","Relational, read only version B",CHILL,COLD,Study2,F,114,122,Test,User,-,,Recall,Recall1,4332,hot,28.571428571429,2260,3833,0,0,,1
w969399_anw,8h03ts1ety,Relational_NO_JOL,1,146,2020-04-29T13:20:20-07:00,3.3552350997925,2,versionA_stim.csv,READVersionB.csv,"Read Version B","Relational, read only version B",TRUTH,LIE,Study2,S,148,164,Test,User,-,,Recall,Recall1,2961,lie,100,1437,2462,1,1,,1
w969399_anw,8h03ts1ety,Relational_NO_JOL,1,147,2020-04-29T13:20:21-07:00,1.4253220558167,2,versionA_stim.csv,READVersionB.csv,"Read Version B","Relational, read only version B",CLUE,GAME,Study2,F,97,136,Test,User,-,,Recall,Recall1,1135,,0,-1,-1,0,0,,1
w969399_anw,8h03ts1ety,Relational_NO_JOL,1,148,2020-04-29T13:20:24-07:00,3.4122769832611,2,versionA_stim.csv,READVersionB.csv,"Read Version B","Relational, read only version B",LEASE,TOIL,Study2,U,170,156,Test,User,-,,Recall,Recall1,2928,toil,100,1978,2348,1,1,,1
w969399_anw,8h03ts1ety,Relational_NO_JOL,1,149,2020-04-29T13:20:27-07:00,2.4601650238037,2,versionA_stim.csv,READVersionB.csv,"Read Version B","Relational, read only version B",TURN,FLIP,Study2,B,116,174,Test,User,-,,Recall,Recall1,2084,,0,-1,-1,0,0,,1
w969399_anw,8h03ts1ety,Relational_NO_JOL,1,150,2020-04-29T13:20:28-07:00,1.6467669010162,2,versionA_stim.csv,READVersionB.csv,"Read Version B","Relational, read only version B",BASEBALL,LEAGUE,Study2,B,131,160,Test,User,-,,Recall,Recall1,1363,,0,-1,-1,0,0,,1
w969399_anw,8h03ts1ety,Relational_NO_JOL,1,151,2020-04-29T13:20:33-07:00,4.1655399799347,2,versionA_stim.csv,READVersionB.csv,"Read Version B","Relational, read only version B",TANTRUM,TEMPER,Study2,S,154,147,Test,User,-,,Recall,Recall1,3665,mad,22.222222222222,2450,2709,0,0,,1
w969399_anw,8h03ts1ety,Relational_NO_JOL,1,152,2020-04-29T13:20:34-07:00,1.3521420955658,2,versionA_stim.csv,READVersionB.csv,"Read Version B","Relational, read only version B",MOAT,CLEAR,Study2,U,169,157,Test,User,-,,Recall,Recall1,1040,,0,-1,-1,0,0,,1
w969399_anw,8h03ts1ety,Relational_NO_JOL,1,153,2020-04-29T13:20:39-07:00,4.5199258327484,2,versionA_stim.csv,READVersionB.csv,"Read Version B","Relational, read only version B",EVEN,REVENGE,Study2,B,122,116,Test,User,-,,Recall,Recall1,4071,both,0,3007,3340,0,0,,1
w969399_anw,8h03ts1ety,Relational_NO_JOL,1,154,2020-04-29T13:20:41-07:00,2.8414800167084,2,versionA_stim.csv,READVersionB.csv,"Read Version B","Relational, read only version B",NAME,HATE,Study2,U,167,118,Test,User,-,,Recall,Recall1,2461,,0,-1,-1,0,0,,1
w969399_anw,8h03ts1ety,Relational_NO_JOL,1,155,2020-04-29T13:20:54-07:00,12.739161014557,2,versionA_stim.csv,READVersionB.csv,"Read Version B","Relational, read only version B",FIGHT,BRAWL,Study2,B,135,109,Test,User,-,,Recall,Recall1,12375,grudge,18.181818181818,10225,11730,0,0,,1
w969399_anw,8h03ts1ety,Relational_NO_JOL,1,156,2020-04-29T13:20:55-07:00,1.3767311573029,2,versionA_stim.csv,READVersionB.csv,"Read Version B","Relational, read only version B",CAT,PANTHER,Study2,B,126,123,Test,User,-,,Recall,Recall1,1093,,0,-1,-1,0,0,,1
w969399_anw,8h03ts1ety,Relational_NO_JOL,1,157,2020-04-29T13:21:01-07:00,5.3259949684143,2,versionA_stim.csv,READVersionB.csv,"Read Version B","Relational, read only version B",PLANE,AIRCRAFT,Study2,B,129,128,Test,User,-,,Recall,Recall1,4959,aircraft,100,1776,4274,1,1,,1
w969399_anw,8h03ts1ety,Relational_NO_JOL,1,158,2020-04-29T13:21:02-07:00,1.4773180484772,2,versionA_stim.csv,READVersionB.csv,"Read Version B","Relational, read only version B",GONE,AWAY,Study2,S,142,117,Test,User,-,,Recall,Recall1,1172,,0,-1,-1,0,0,,1
w969399_anw,8h03ts1ety,Relational_NO_JOL,1,159,2020-04-29T13:21:04-07:00,1.4949419498444,2,versionA_stim.csv,READVersionB.csv,"Read Version B","Relational, read only version B",BIRD,PENGUIN,Study2,B,119,158,Test,User,-,,Recall,Recall1,1153,,0,-1,-1,0,0,,1
w969399_anw,8h03ts1ety,Relational_NO_JOL,1,160,2020-04-29T13:21:05-07:00,1.6315870285034,2,versionA_stim.csv,READVersionB.csv,"Read Version B","Relational, read only version B",BAD,VILLAIN,Study2,B,118,98,Test,User,-,,Recall,Recall1,1272,,0,-1,-1,0,0,,1
w969399_anw,8h03ts1ety,Relational_NO_JOL,1,161,2020-04-29T13:21:09-07:00,3.3568179607391,2,versionA_stim.csv,READVersionB.csv,"Read Version B","Relational, read only version B",DRIVER,CAR,Study2,F,106,105,Test,User,-,,Recall,Recall1,2901,safe,28.571428571429,1811,2383,0,0,,1
w969399_anw,8h03ts1ety,Relational_NO_JOL,1,162,2020-04-29T13:21:12-07:00,3.3212230205536,2,versionA_stim.csv,READVersionB.csv,"Read Version B","Relational, read only version B",MULE,DONKEY,Study2,F,108,171,Test,User,-,,Recall,Recall1,2959,donkey,100,1348,2346,1,1,,1
w969399_anw,8h03ts1ety,Relational_NO_JOL,1,163,2020-04-29T13:21:16-07:00,3.8350229263306,2,versionA_stim.csv,READVersionB.csv,"Read Version B","Relational, read only version B",VEHICLE,CHARM,Study2,U,160,125,Test,User,-,,Recall,Recall1,3464,seatbelt,15.384615384615,1289,2805,0,0,,1
w969399_anw,8h03ts1ety,Relational_NO_JOL,1,164,2020-04-29T13:21:17-07:00,1.1914720535278,2,versionA_stim.csv,READVersionB.csv,"Read Version B","Relational, read only version B",GIVE,STEAK,Study2,U,158,166,Test,User,-,,Recall,Recall1,885,,0,-1,-1,0,0,,1
w969399_anw,8h03ts1ety,Relational_NO_JOL,1,165,2020-04-29T13:21:19-07:00,2.1029579639435,2,versionA_stim.csv,READVersionB.csv,"Read Version B","Relational, read only version B",DEAD,COFFIN,Study2,B,128,108,Test,User,-,,Recall,Recall1,1848,,0,-1,-1,0,0,,1
w969399_anw,8h03ts1ety,Relational_NO_JOL,1,166,2020-04-29T13:21:24-07:00,5.0200779438019,2,versionA_stim.csv,READVersionB.csv,"Read Version B","Relational, read only version B",HONEST,TRUTHFUL,Study2,B,133,163,Test,User,-,,Recall,Recall1,4668,truth,76.923076923077,3477,4106,0,1,,1
w969399_anw,8h03ts1ety,Relational_NO_JOL,1,167,2020-04-29T13:21:33-07:00,8.376806974411,2,versionA_stim.csv,READVersionB.csv,"Read Version B","Relational, read only version B",MAZE,ELECTION,Study2,U,159,176,Test,User,-,,Recall,Recall1,7992,election,100,5646,7395,1,1,,1
w969399_anw,8h03ts1ety,Relational_NO_JOL,1,168,2020-04-29T13:21:34-07:00,1.2868790626526,2,versionA_stim.csv,READVersionB.csv,"Read Version B","Relational, read only version B",DOCUMENT,PAPER,Study2,F,109,139,Test,User,-,,Recall,Recall1,975,,0,-1,-1,0,0,,1
w969399_anw,8h03ts1ety,Relational_NO_JOL,1,169,2020-04-29T13:21:39-07:00,4.7823059558868,2,versionA_stim.csv,READVersionB.csv,"Read Version B","Relational, read only version B",PHONE,COMMUNICATION,Study2,S,149,110,Test,User,-,,Recall,Recall1,4322,call,23.529411764706,1663,3671,0,0,,1
w969399_anw,8h03ts1ety,Relational_NO_JOL,1,170,2020-04-29T13:21:42-07:00,2.8856461048126,2,versionA_stim.csv,READVersionB.csv,"Read Version B","Relational, read only version B",AFFECTION,LOVE,Study2,F,115,148,Test,User,-,,Recall,Recall1,2496,,0,-1,-1,0,0,,1
w969399_anw,8h03ts1ety,Relational_NO_JOL,1,171,2020-04-29T13:21:45-07:00,3.667359828949,2,versionA_stim.csv,READVersionB.csv,"Read Version B","Relational, read only version B",GLASS,BREAKABLE,Study2,B,127,97,Test,User,-,,Recall,Recall1,3334,,0,-1,-1,0,0,,1
w969399_anw,8h03ts1ety,Relational_NO_JOL,1,172,2020-04-29T13:21:48-07:00,3.1920771598816,2,versionA_stim.csv,READVersionB.csv,"Read Version B","Relational, read only version B",ADJOURN,END,Study2,F,101,121,Test,User,-,,Recall,Recall1,2829,end,100,2009,2326,1,1,,1
w969399_anw,8h03ts1ety,Relational_NO_JOL,1,173,2020-04-29T13:21:52-07:00,3.2820839881897,2,versionA_stim.csv,READVersionB.csv,"Read Version B","Relational, read only version B",DRY,WET,Study2,S,146,165,Test,User,-,,Recall,Recall1,2916,wet,100,1671,2339,1,1,,1
w969399_anw,8h03ts1ety,Relational_NO_JOL,1,174,2020-04-29T13:21:53-07:00,1.5122208595276,2,versionA_stim.csv,READVersionB.csv,"Read Version B","Relational, read only version B",Shell,SHAKE,Study2,U,163,126,Test,User,-,,Recall,Recall1,1195,,0,-1,-1,0,0,,1
w969399_anw,8h03ts1ety,Relational_NO_JOL,1,175,2020-04-29T13:21:57-07:00,4.1781871318817,2,versionA_stim.csv,READVersionB.csv,"Read Version B","Relational, read only version B",CAR,WINDSHIELD,Study2,B,117,140,Test,User,-,,Recall,Recall1,3707,drive,40,2411,3115,0,0,,1
w969399_anw,8h03ts1ety,Relational_NO_JOL,1,176,2020-04-29T13:22:00-07:00,2.4990558624268,2,versionA_stim.csv,READVersionB.csv,"Read Version B","Relational, read only version B",MASON,JAR,Study2,S,138,138,Test,User,-,,Recall,Recall1,2119,jar,100,1320,1604,1,1,,1
w969399_anw,8h03ts1ety,Relational_NO_JOL,1,177,2020-04-29T13:22:03-07:00,3.0444071292877,2,versionA_stim.csv,READVersionB.csv,"Read Version B","Relational, read only version B",EARTH,GROUND,Study2,S,144,135,Test,User,-,,Recall,Recall1,2664,ground,100,1442,2231,1,1,,1
w969399_anw,8h03ts1ety,Relational_NO_JOL,1,178,2020-04-29T13:22:06-07:00,2.8467230796814,2,versionA_stim.csv,READVersionB.csv,"Read Version B","Relational, read only version B",FURRY,DOG,Study2,F,102,150,Test,User,-,,Recall,Recall1,2455,bear,0,1610,2017,0,0,,1
w969399_anw,8h03ts1ety,Relational_NO_JOL,1,179,2020-04-29T13:22:07-07:00,1.1947798728943,2,versionA_stim.csv,READVersionB.csv,"Read Version B","Relational, read only version B",ALONE,LONELY,Study2,S,145,99,Test,User,-,,Recall,Recall1,895,,0,-1,-1,0,0,,1
w969399_anw,8h03ts1ety,Relational_NO_JOL,1,180,2020-04-29T13:22:08-07:00,1.142364025116,2,versionA_stim.csv,READVersionB.csv,"Read Version B","Relational, read only version B",CAKE,CLOTHES,Study2,U,166,119,Test,User,-,,Recall,Recall1,790,,0,-1,-1,0,0,,1
w969399_anw,8h03ts1ety,Relational_NO_JOL,1,181,2020-04-29T13:22:21-07:00,12.576263904572,2,versionA_stim.csv,READVersionB.csv,"Read Version B","Relational, read only version B",,,,,,0,Instruct,,10,"You will now be presented with a new set of word pairs. Please study each pair. Remember that your memory will be tested! When finished, press Enter to move to the next pair.",,Instruct10,12224,,,-1,-1,,,,1
w969399_anw,8h03ts1ety,Relational_NO_JOL,1,182,2020-04-29T13:22:40-07:00,19.236627101898,2,versionA_stim.csv,READVersionB.csv,"Read Version B","Relational, read only version B",,,,,,0,Instruct,-,15,"As you study, please think about how the two concepts are RELATED to each other. For example, if you see the pair TURTLE-CAT, think about how both are alive, they are both animals, and both can be kept as pets.",,Instruct20,18881,,,-1,-1,,,,1
w969399_anw,8h03ts1ety,Relational_NO_JOL,1,183,2020-04-29T13:23:08-07:00,27.691009044647,2,versionA_stim.csv,READVersionB.csv,"Read Version B","Relational, read only version B",,,,,,0,FreeRecall,-,10,"What you should think about as you study each item pair? Type your response in the box below.",,CHECK4,27333,"Both are alive Both are animals Both can be kept as pets",0,5441,24783,0,0,,1
w969399_anw,8h03ts1ety,Relational_NO_JOL,1,184,2020-04-29T13:23:09-07:00,1.8569619655609,2,versionA_stim.csv,READVersionB.csv,"Read Version B","Relational, read only version B",,,,,,0,Instruct,User,-,"Press Enter when you are readty to begin",,Instruct11,1534,,,-1,-1,,,,1
w969399_anw,8h03ts1ety,Relational_NO_JOL,1,185,2020-04-29T13:23:11-07:00,1.7644600868225,2,versionA_stim.csv,READVersionB.csv,"Read Version B","Relational, read only version B",PEANUT,BUTTER,BUFFER1,Buffer,3,6,Study,User,-,,Study/JOL,BUFFER3,1497,,,-1,-1,,,,1
w969399_anw,8h03ts1ety,Relational_NO_JOL,1,186,2020-04-29T13:23:12-07:00,1.1075048446655,2,versionA_stim.csv,READVersionB.csv,"Read Version B","Relational, read only version B",SPACE,JAM,BUFFER1,Buffer,5,4,Study,User,-,,Study/JOL,BUFFER3,686,,,-1,-1,,,,1
w969399_anw,8h03ts1ety,Relational_NO_JOL,1,187,2020-04-29T13:23:14-07:00,1.7184669971466,2,versionA_stim.csv,READVersionB.csv,"Read Version B","Relational, read only version B",TREES,GREEN,BUFFER1,Buffer,1,3,Study,User,-,,Study/JOL,BUFFER3,1379,,,-1,-1,,,,1
w969399_anw,8h03ts1ety,Relational_NO_JOL,1,188,2020-04-29T13:23:15-07:00,1.0489900112152,2,versionA_stim.csv,READVersionB.csv,"Read Version B","Relational, read only version B",SCARE,HIDE,BUFFER1,Buffer,4,2,Study,User,-,,Study/JOL,BUFFER3,687,,,-1,-1,,,,1
w969399_anw,8h03ts1ety,Relational_NO_JOL,1,189,2020-04-29T13:23:16-07:00,0.84130907058716,2,versionA_stim.csv,READVersionB.csv,"Read Version B","Relational, read only version B",BASEBALL,CATCHER,BUFFER1,Buffer,2,5,Study,User,-,,Study/JOL,BUFFER3,510,,,-1,-1,,,,1
w969399_anw,8h03ts1ety,Relational_NO_JOL,1,190,2020-04-29T13:23:17-07:00,1.0737910270691,2,versionA_stim.csv,READVersionB.csv,"Read Version B","Relational, read only version B",GEOLOGY,ROCK,Study1,F,19,33,Study,User,-,,Study/JOL,"Study Phase2",688,,,-1,-1,,,,1
w969399_anw,8h03ts1ety,Relational_NO_JOL,1,191,2020-04-29T13:23:18-07:00,1.0152199268341,2,versionA_stim.csv,READVersionB.csv,"Read Version B","Relational, read only version B",GRILL,BAR,Study1,S,52,71,Study,User,-,,Study/JOL,"Study Phase2",651,,,-1,-1,,,,1
w969399_anw,8h03ts1ety,Relational_NO_JOL,1,192,2020-04-29T13:23:19-07:00,0.90006995201111,2,versionA_stim.csv,READVersionB.csv,"Read Version B","Relational, read only version B",TAKE,SEIZE,Study1,B,29,77,Study,User,-,,Study/JOL,"Study Phase2",498,,,-1,-1,,,,1
w969399_anw,8h03ts1ety,Relational_NO_JOL,1,193,2020-04-29T13:23:20-07:00,0.80787801742554,2,versionA_stim.csv,READVersionB.csv,"Read Version B","Relational, read only version B",HAPPY,CAR,Study1,U,77,86,Study,User,-,,Study/JOL,"Study Phase2",410,,,-1,-1,,,,1
w969399_anw,8h03ts1ety,Relational_NO_JOL,1,194,2020-04-29T13:23:21-07:00,1.3826651573181,2,versionA_stim.csv,READVersionB.csv,"Read Version B","Relational, read only version B",PUSHER,CLUTTER,Study1,U,66,12,Study,User,-,,Study/JOL,"Study Phase2",973,,,-1,-1,,,,1
w969399_anw,8h03ts1ety,Relational_NO_JOL,1,195,2020-04-29T13:23:23-07:00,1.6356678009033,2,versionA_stim.csv,READVersionB.csv,"Read Version B","Relational, read only version B",WAY,OUT,Study1,F,16,55,Study,User,-,,Study/JOL,"Study Phase2",1177,,,-1,-1,,,,1
w969399_anw,8h03ts1ety,Relational_NO_JOL,1,196,2020-04-29T13:23:24-07:00,1.5395591259003,2,versionA_stim.csv,READVersionB.csv,"Read Version B","Relational, read only version B",KIDNEY,LIVER,Study1,S,53,67,Study,User,-,,Study/JOL,"Study Phase2",1164,,,-1,-1,,,,1
w969399_anw,8h03ts1ety,Relational_NO_JOL,1,197,2020-04-29T13:23:25-07:00,1.0142378807068,2,versionA_stim.csv,READVersionB.csv,"Read Version B","Relational, read only version B",HOT,CHILI,Study1,B,37,14,Study,User,-,,Study/JOL,"Study Phase2",670,,,-1,-1,,,,1
w969399_anw,8h03ts1ety,Relational_NO_JOL,1,198,2020-04-29T13:23:27-07:00,1.5787651538849,2,versionA_stim.csv,READVersionB.csv,"Read Version B","Relational, read only version B",SUGAR,RIDDLE,Study1,U,81,83,Study,User,-,,Study/JOL,"Study Phase2",1207,,,-1,-1,,,,1
w969399_anw,8h03ts1ety,Relational_NO_JOL,1,199,2020-04-29T13:23:28-07:00,1.3487889766693,2,versionA_stim.csv,READVersionB.csv,"Read Version B","Relational, read only version B",TUNA,FISH,Study1,F,25,57,Study,User,-,,Study/JOL,"Study Phase2",683,,,-1,-1,,,,1
w969399_anw,8h03ts1ety,Relational_NO_JOL,1,200,2020-04-29T13:23:29-07:00,1.0281000137329,2,versionA_stim.csv,READVersionB.csv,"Read Version B","Relational, read only version B",DISCOVER,FLOOR,Study1,U,71,66,Study,User,-,,Study/JOL,"Study Phase2",720,,,-1,-1,,,,1
w969399_anw,8h03ts1ety,Relational_NO_JOL,1,201,2020-04-29T13:23:30-07:00,1.0210199356079,2,versionA_stim.csv,READVersionB.csv,"Read Version B","Relational, read only version B",DEATH,BUSINESS,Study1,U,72,59,Study,User,-,,Study/JOL,"Study Phase2",624,,,-1,-1,,,,1
w969399_anw,8h03ts1ety,Relational_NO_JOL,1,202,2020-04-29T13:23:31-07:00,1.1586580276489,2,versionA_stim.csv,READVersionB.csv,"Read Version B","Relational, read only version B",TRIAL,JURY,Study1,S,50,54,Study,User,-,,Study/JOL,"Study Phase2",755,,,-1,-1,,,,1
w969399_anw,8h03ts1ety,Relational_NO_JOL,1,203,2020-04-29T13:23:32-07:00,0.90660190582275,2,versionA_stim.csv,READVersionB.csv,"Read Version B","Relational, read only version B",DEBATE,SIGHT,Study1,U,73,27,Study,User,-,,Study/JOL,"Study Phase2",529,,,-1,-1,,,,1
w969399_anw,8h03ts1ety,Relational_NO_JOL,1,204,2020-04-29T13:23:34-07:00,1.2354390621185,2,versionA_stim.csv,READVersionB.csv,"Read Version B","Relational, read only version B",ORCHID,FLOWER,Study1,F,24,81,Study,User,-,,Study/JOL,"Study Phase2",860,,,-1,-1,,,,1
w969399_anw,8h03ts1ety,Relational_NO_JOL,1,205,2020-04-29T13:23:35-07:00,0.99577403068542,2,versionA_stim.csv,READVersionB.csv,"Read Version B","Relational, read only version B",PAW,DOG,Study1,F,15,51,Study,User,-,,Study/JOL,"Study Phase2",618,,,-1,-1,,,,1
w969399_anw,8h03ts1ety,Relational_NO_JOL,1,206,2020-04-29T13:23:36-07:00,1.4807150363922,2,versionA_stim.csv,READVersionB.csv,"Read Version B","Relational, read only version B",HONEY,BEE,Study1,S,63,74,Study,User,-,,Study/JOL,"Study Phase2",1081,,,-1,-1,,,,1
w969399_anw,8h03ts1ety,Relational_NO_JOL,1,207,2020-04-29T13:23:38-07:00,1.6024780273438,2,versionA_stim.csv,READVersionB.csv,"Read Version B","Relational, read only version B",DUE,ASSIGNMENT,Study1,S,46,18,Study,User,-,,Study/JOL,"Study Phase2",1235,,,-1,-1,,,,1
w969399_anw,8h03ts1ety,Relational_NO_JOL,1,208,2020-04-29T13:23:39-07:00,1.4804828166962,2,versionA_stim.csv,READVersionB.csv,"Read Version B","Relational, read only version B",FULL,ENOUGH,Study1,B,26,70,Study,User,-,,Study/JOL,"Study Phase2",1097,,,-1,-1,,,,1
w969399_anw,8h03ts1ety,Relational_NO_JOL,1,209,2020-04-29T13:23:41-07:00,1.3709001541138,2,versionA_stim.csv,READVersionB.csv,"Read Version B","Relational, read only version B",LAW,ATTORNEY,Study1,B,34,21,Study,User,-,,Study/JOL,"Study Phase2",1021,,,-1,-1,,,,1
w969399_anw,8h03ts1ety,Relational_NO_JOL,1,210,2020-04-29T13:23:42-07:00,1.3558168411255,2,versionA_stim.csv,READVersionB.csv,"Read Version B","Relational, read only version B",CLOTHES,ATTIRE,Study1,B,43,49,Study,User,-,,Study/JOL,"Study Phase2",814,,,-1,-1,,,,1
w969399_anw,8h03ts1ety,Relational_NO_JOL,1,211,2020-04-29T13:23:43-07:00,1.187625169754,2,versionA_stim.csv,READVersionB.csv,"Read Version B","Relational, read only version B",SHOE,FOOT,Study1,S,60,31,Study,User,-,,Study/JOL,"Study Phase2",827,,,-1,-1,,,,1
w969399_anw,8h03ts1ety,Relational_NO_JOL,1,212,2020-04-29T13:23:44-07:00,1.3251750469208,2,versionA_stim.csv,READVersionB.csv,"Read Version B","Relational, read only version B",SMELL,STENCH,Study1,B,42,65,Study,User,-,,Study/JOL,"Study Phase2",995,,,-1,-1,,,,1
w969399_anw,8h03ts1ety,Relational_NO_JOL,1,213,2020-04-29T13:23:46-07:00,1.5023429393768,2,versionA_stim.csv,READVersionB.csv,"Read Version B","Relational, read only version B",DELINQUENT,BAD,Study1,F,6,47,Study,User,-,,Study/JOL,"Study Phase2",1176,,,-1,-1,,,,1
w969399_anw,8h03ts1ety,Relational_NO_JOL,1,214,2020-04-29T13:23:47-07:00,1.3479769229889,2,versionA_stim.csv,READVersionB.csv,"Read Version B","Relational, read only version B",DIETARY,SACKING,Study1,U,67,17,Study,User,-,,Study/JOL,"Study Phase2",970,,,-1,-1,,,,1
w969399_anw,8h03ts1ety,Relational_NO_JOL,1,215,2020-04-29T13:23:48-07:00,1.024435043335,2,versionA_stim.csv,READVersionB.csv,"Read Version B","Relational, read only version B",MATH,DIVISION,Study1,B,33,79,Study,User,-,,Study/JOL,"Study Phase2",672,,,-1,-1,,,,1
w969399_anw,8h03ts1ety,Relational_NO_JOL,1,216,2020-04-29T13:23:50-07:00,1.4878580570221,2,versionA_stim.csv,READVersionB.csv,"Read Version B","Relational, read only version B",SENTENCE,WORD,Study1,B,31,29,Study,User,-,,Study/JOL,"Study Phase2",1052,,,-1,-1,,,,1
w969399_anw,8h03ts1ety,Relational_NO_JOL,1,217,2020-04-29T13:23:51-07:00,1.338495016098,2,versionA_stim.csv,READVersionB.csv,"Read Version B","Relational, read only version B",LOCATION,SITE,Study1,S,48,10,Study,User,-,,Study/JOL,"Study Phase2",929,,,-1,-1,,,,1
w969399_anw,8h03ts1ety,Relational_NO_JOL,1,218,2020-04-29T13:23:52-07:00,1.0920770168304,2,versionA_stim.csv,READVersionB.csv,"Read Version B","Relational, read only version B",WORK,CHORE,Study1,B,39,60,Study,User,-,,Study/JOL,"Study Phase2",692,,,-1,-1,,,,1
w969399_anw,8h03ts1ety,Relational_NO_JOL,1,219,2020-04-29T13:23:54-07:00,1.799576997757,2,versionA_stim.csv,READVersionB.csv,"Read Version B","Relational, read only version B",CHISEL,HAMMER,Study1,F,9,50,Study,User,-,,Study/JOL,"Study Phase2",1380,,,-1,-1,,,,1
w969399_anw,8h03ts1ety,Relational_NO_JOL,1,220,2020-04-29T13:23:55-07:00,1.0800268650055,2,versionA_stim.csv,READVersionB.csv,"Read Version B","Relational, read only version B",FIRE,BLAZE,Study1,B,45,53,Study,User,-,,Study/JOL,"Study Phase2",712,,,-1,-1,,,,1
w969399_anw,8h03ts1ety,Relational_NO_JOL,1,221,2020-04-29T13:23:56-07:00,1.1508500576019,2,versionA_stim.csv,READVersionB.csv,"Read Version B","Relational, read only version B",KING,VASE,Study1,U,85,61,Study,User,-,,Study/JOL,"Study Phase2",737,,,-1,-1,,,,1
w969399_anw,8h03ts1ety,Relational_NO_JOL,1,222,2020-04-29T13:23:57-07:00,1.0041680335999,2,versionA_stim.csv,READVersionB.csv,"Read Version B","Relational, read only version B",GREAT,FANTASTIC,Study1,B,35,44,Study,User,-,,Study/JOL,"Study Phase2",614,,,-1,-1,,,,1
w969399_anw,8h03ts1ety,Relational_NO_JOL,1,223,2020-04-29T13:23:59-07:00,1.3684680461884,2,versionA_stim.csv,READVersionB.csv,"Read Version B","Relational, read only version B",HORNET,STING,Study1,F,11,7,Study,User,-,,Study/JOL,"Study Phase2",965,,,-1,-1,,,,1
w969399_anw,8h03ts1ety,Relational_NO_JOL,1,224,2020-04-29T13:24:04-07:00,5.7035689353943,2,versionA_stim.csv,READVersionB.csv,"Read Version B","Relational, read only version B",,,,,,0,Instruct,-,3,"Remember to focus on how the two items are similiar while you study!",,CHECK5,5273,,,-1,-1,,,,1
w969399_anw,8h03ts1ety,Relational_NO_JOL,1,225,2020-04-29T13:24:07-07:00,2.6730129718781,2,versionA_stim.csv,READVersionB.csv,"Read Version B","Relational, read only version B",BATHROOM,TOILET,Study1,S,58,75,Study,User,-,,Study/JOL,"Study Phase2",2298,,,-1,-1,,,,1
w969399_anw,8h03ts1ety,Relational_NO_JOL,1,226,2020-04-29T13:24:09-07:00,1.8381299972534,2,versionA_stim.csv,READVersionB.csv,"Read Version B","Relational, read only version B",PAST,FUTURE,Study1,S,61,43,Study,User,-,,Study/JOL,"Study Phase2",1543,,,-1,-1,,,,1
w969399_anw,8h03ts1ety,Relational_NO_JOL,1,227,2020-04-29T13:24:10-07:00,1.1849319934845,2,versionA_stim.csv,READVersionB.csv,"Read Version B","Relational, read only version B",REVOLUTION,WAR,Study1,F,20,41,Study,User,-,,Study/JOL,"Study Phase2",793,,,-1,-1,,,,1
w969399_anw,8h03ts1ety,Relational_NO_JOL,1,228,2020-04-29T13:24:11-07:00,1.4508581161499,2,versionA_stim.csv,READVersionB.csv,"Read Version B","Relational, read only version B",SWAN,BIRD,Study1,F,14,84,Study,User,-,,Study/JOL,"Study Phase2",1119,,,-1,-1,,,,1
w969399_anw,8h03ts1ety,Relational_NO_JOL,1,229,2020-04-29T13:24:13-07:00,1.2366278171539,2,versionA_stim.csv,READVersionB.csv,"Read Version B","Relational, read only version B",EDITOR,NEWS,Study1,F,10,42,Study,User,-,,Study/JOL,"Study Phase2",819,,,-1,-1,,,,1
w969399_anw,8h03ts1ety,Relational_NO_JOL,1,230,2020-04-29T13:24:14-07:00,1.1590449810028,2,versionA_stim.csv,READVersionB.csv,"Read Version B","Relational, read only version B",BALL,RACKET,Study1,B,38,34,Study,User,-,,Study/JOL,"Study Phase2",734,,,-1,-1,,,,1
w969399_anw,8h03ts1ety,Relational_NO_JOL,1,231,2020-04-29T13:24:16-07:00,2.4891400337219,2,versionA_stim.csv,READVersionB.csv,"Read Version B","Relational, read only version B",CIRCLE,ROUND,Study1,S,65,32,Study,User,-,,Study/JOL,"Study Phase2",2061,,,-1,-1,,,,1
w969399_anw,8h03ts1ety,Relational_NO_JOL,1,232,2020-04-29T13:24:18-07:00,1.2149391174316,2,versionA_stim.csv,READVersionB.csv,"Read Version B","Relational, read only version B",STRONG,ACCIDENT,Study1,U,80,26,Study,User,-,,Study/JOL,"Study Phase2",887,,,-1,-1,,,,1
w969399_anw,8h03ts1ety,Relational_NO_JOL,1,233,2020-04-29T13:24:19-07:00,1.9271290302277,2,versionA_stim.csv,READVersionB.csv,"Read Version B","Relational, read only version B",DRINK,SIP,Study1,B,27,82,Study,User,-,,Study/JOL,"Study Phase2",1567,,,-1,-1,,,,1
w969399_anw,8h03ts1ety,Relational_NO_JOL,1,234,2020-04-29T13:24:21-07:00,1.2324359416962,2,versionA_stim.csv,READVersionB.csv,"Read Version B","Relational, read only version B",LIFT,WOMAN,Study1,U,69,15,Study,User,-,,Study/JOL,"Study Phase2",846,,,-1,-1,,,,1
w969399_anw,8h03ts1ety,Relational_NO_JOL,1,235,2020-04-29T13:24:22-07:00,1.2494580745697,2,versionA_stim.csv,READVersionB.csv,"Read Version B","Relational, read only version B",ART,LION,Study1,U,79,76,Study,User,-,,Study/JOL,"Study Phase2",871,,,-1,-1,,,,1
w969399_anw,8h03ts1ety,Relational_NO_JOL,1,236,2020-04-29T13:24:24-07:00,1.5536439418793,2,versionA_stim.csv,READVersionB.csv,"Read Version B","Relational, read only version B",HERD,COW,Study1,F,22,64,Study,User,-,,Study/JOL,"Study Phase2",1189,,,-1,-1,,,,1
w969399_anw,8h03ts1ety,Relational_NO_JOL,1,237,2020-04-29T13:24:25-07:00,1.2268669605255,2,versionA_stim.csv,READVersionB.csv,"Read Version B","Relational, read only version B",HYGIENE,CLEAN,Study1,F,17,30,Study,User,-,,Study/JOL,"Study Phase2",881,,,-1,-1,,,,1
w969399_anw,8h03ts1ety,Relational_NO_JOL,1,238,2020-04-29T13:24:26-07:00,1.2142300605774,2,versionA_stim.csv,READVersionB.csv,"Read Version B","Relational, read only version B",SOON,BELT,Study1,U,70,16,Study,User,-,,Study/JOL,"Study Phase2",867,,,-1,-1,,,,1
w969399_anw,8h03ts1ety,Relational_NO_JOL,1,239,2020-04-29T13:24:28-07:00,1.613373041153,2,versionA_stim.csv,READVersionB.csv,"Read Version B","Relational, read only version B",HEIGHT,GROWTH,Study1,B,30,48,Study,User,-,,Study/JOL,"Study Phase2",1264,,,-1,-1,,,,1
w969399_anw,8h03ts1ety,Relational_NO_JOL,1,240,2020-04-29T13:24:29-07:00,1.2633719444275,2,versionA_stim.csv,READVersionB.csv,"Read Version B","Relational, read only version B",BITTER,COLD,Study1,F,12,36,Study,User,-,,Study/JOL,"Study Phase2",948,,,-1,-1,,,,1
w969399_anw,8h03ts1ety,Relational_NO_JOL,1,241,2020-04-29T13:24:30-07:00,1.273668050766,2,versionA_stim.csv,READVersionB.csv,"Read Version B","Relational, read only version B",NUMBER,AMOUNT,Study1,S,47,72,Study,User,-,,Study/JOL,"Study Phase2",940,,,-1,-1,,,,1
w969399_anw,8h03ts1ety,Relational_NO_JOL,1,242,2020-04-29T13:24:31-07:00,1.2846779823303,2,versionA_stim.csv,READVersionB.csv,"Read Version B","Relational, read only version B",LETTUCE,SALAD,Study1,S,59,73,Study,User,-,,Study/JOL,"Study Phase2",877,,,-1,-1,,,,1
w969399_anw,8h03ts1ety,Relational_NO_JOL,1,243,2020-04-29T13:24:33-07:00,1.1518268585205,2,versionA_stim.csv,READVersionB.csv,"Read Version B","Relational, read only version B",HIDE,SICK,Study1,U,84,9,Study,User,-,,Study/JOL,"Study Phase2",808,,,-1,-1,,,,1
w969399_anw,8h03ts1ety,Relational_NO_JOL,1,244,2020-04-29T13:24:34-07:00,1.7157220840454,2,versionA_stim.csv,READVersionB.csv,"Read Version B","Relational, read only version B",DIGESTION,STOMACH,Study1,F,7,20,Study,User,-,,Study/JOL,"Study Phase2",1275,,,-1,-1,,,,1
w969399_anw,8h03ts1ety,Relational_NO_JOL,1,245,2020-04-29T13:24:36-07:00,1.238960981369,2,versionA_stim.csv,READVersionB.csv,"Read Version B","Relational, read only version B",SLEEP,DROWSY,Study1,B,41,56,Study,User,-,,Study/JOL,"Study Phase2",884,,,-1,-1,,,,1
w969399_anw,8h03ts1ety,Relational_NO_JOL,1,246,2020-04-29T13:24:37-07:00,1.3675179481506,2,versionA_stim.csv,READVersionB.csv,"Read Version B","Relational, read only version B",POP,SODA,Study1,S,56,24,Study,User,-,,Study/JOL,"Study Phase2",1056,,,-1,-1,,,,1
w969399_anw,8h03ts1ety,Relational_NO_JOL,1,247,2020-04-29T13:24:39-07:00,1.7816369533539,2,versionA_stim.csv,READVersionB.csv,"Read Version B","Relational, read only version B",BEGIN,END,Study1,S,54,19,Study,User,-,,Study/JOL,"Study Phase2",1371,,,-1,-1,,,,1
w969399_anw,8h03ts1ety,Relational_NO_JOL,1,248,2020-04-29T13:24:40-07:00,1.4047961235046,2,versionA_stim.csv,READVersionB.csv,"Read Version B","Relational, read only version B",ALLOW,TUCK,Study1,U,78,37,Study,User,-,,Study/JOL,"Study Phase2",1073,,,-1,-1,,,,1
w969399_anw,8h03ts1ety,Relational_NO_JOL,1,249,2020-04-29T13:24:42-07:00,1.8107039928436,2,versionA_stim.csv,READVersionB.csv,"Read Version B","Relational, read only version B",MEANING,DEFINITION,Study1,S,62,28,Study,User,-,,Study/JOL,"Study Phase2",1445,,,-1,-1,,,,1
w969399_anw,8h03ts1ety,Relational_NO_JOL,1,250,2020-04-29T13:24:43-07:00,1.3913979530334,2,versionA_stim.csv,READVersionB.csv,"Read Version B","Relational, read only version B",BUG,WASP,Study1,B,32,40,Study,User,-,,Study/JOL,"Study Phase2",965,,,-1,-1,,,,1
w969399_anw,8h03ts1ety,Relational_NO_JOL,1,251,2020-04-29T13:24:45-07:00,1.3190760612488,2,versionA_stim.csv,READVersionB.csv,"Read Version B","Relational, read only version B",CREDIT,CARD,Study1,F,23,25,Study,User,-,,Study/JOL,"Study Phase2",965,,,-1,-1,,,,1
w969399_anw,8h03ts1ety,Relational_NO_JOL,1,252,2020-04-29T13:24:46-07:00,1.764683008194,2,versionA_stim.csv,READVersionB.csv,"Read Version B","Relational, read only version B",CASH,WOULD,Study1,U,83,52,Study,User,-,,Study/JOL,"Study Phase2",1293,,,-1,-1,,,,1
w969399_anw,8h03ts1ety,Relational_NO_JOL,1,253,2020-04-29T13:24:48-07:00,1.6758549213409,2,versionA_stim.csv,READVersionB.csv,"Read Version B","Relational, read only version B",BABY,CHILD,Study1,S,64,35,Study,User,-,,Study/JOL,"Study Phase2",1327,,,-1,-1,,,,1
w969399_anw,8h03ts1ety,Relational_NO_JOL,1,254,2020-04-29T13:24:49-07:00,1.3194811344147,2,versionA_stim.csv,READVersionB.csv,"Read Version B","Relational, read only version B",DARK,CAVE,Study1,B,28,8,Study,User,-,,Study/JOL,"Study Phase2",911,,,-1,-1,,,,1
w969399_anw,8h03ts1ety,Relational_NO_JOL,1,255,2020-04-29T13:24:51-07:00,2.0183138847351,2,versionA_stim.csv,READVersionB.csv,"Read Version B","Relational, read only version B",VALLEY,ADD,Study1,U,82,13,Study,User,-,,Study/JOL,"Study Phase2",1587,,,-1,-1,,,,1
w969399_anw,8h03ts1ety,Relational_NO_JOL,1,256,2020-04-29T13:24:53-07:00,1.5705690383911,2,versionA_stim.csv,READVersionB.csv,"Read Version B","Relational, read only version B",ARCHITECTURE,DESIGN,Study1,S,51,46,Study,User,-,,Study/JOL,"Study Phase2",1202,,,-1,-1,,,,1
w969399_anw,8h03ts1ety,Relational_NO_JOL,1,257,2020-04-29T13:24:54-07:00,1.416571855545,2,versionA_stim.csv,READVersionB.csv,"Read Version B","Relational, read only version B",FIX,HAND,Study1,U,75,11,Study,User,-,,Study/JOL,"Study Phase2",998,,,-1,-1,,,,1
w969399_anw,8h03ts1ety,Relational_NO_JOL,1,258,2020-04-29T13:24:56-07:00,1.2453460693359,2,versionA_stim.csv,READVersionB.csv,"Read Version B","Relational, read only version B",MACHINE,POSITION,Study1,U,76,22,Study,User,-,,Study/JOL,"Study Phase2",901,,,-1,-1,,,,1
w969399_anw,8h03ts1ety,Relational_NO_JOL,1,259,2020-04-29T13:24:57-07:00,1.676530122757,2,versionA_stim.csv,READVersionB.csv,"Read Version B","Relational, read only version B",WINE,CHEESE,Study1,S,57,80,Study,User,-,,Study/JOL,"Study Phase2",1229,,,-1,-1,,,,1
w969399_anw,8h03ts1ety,Relational_NO_JOL,1,260,2020-04-29T13:24:58-07:00,1.102217912674,2,versionA_stim.csv,READVersionB.csv,"Read Version B","Relational, read only version B",PLANE,PILOT,Study1,B,44,38,Study,User,-,,Study/JOL,"Study Phase2",799,,,-1,-1,,,,1
w969399_anw,8h03ts1ety,Relational_NO_JOL,1,261,2020-04-29T13:25:00-07:00,1.2307839393616,2,versionA_stim.csv,READVersionB.csv,"Read Version B","Relational, read only version B",BLOW,WIND,Study1,S,55,63,Study,User,-,,Study/JOL,"Study Phase2",831,,,-1,-1,,,,1
w969399_anw,8h03ts1ety,Relational_NO_JOL,1,262,2020-04-29T13:25:01-07:00,1.5521030426025,2,versionA_stim.csv,READVersionB.csv,"Read Version B","Relational, read only version B",DUMP,WASTE,Study1,S,49,85,Study,User,-,,Study/JOL,"Study Phase2",1137,,,-1,-1,,,,1
w969399_anw,8h03ts1ety,Relational_NO_JOL,1,263,2020-04-29T13:25:03-07:00,1.5371301174164,2,versionA_stim.csv,READVersionB.csv,"Read Version B","Relational, read only version B",WAGE,MONEY,Study1,F,8,62,Study,User,-,,Study/JOL,"Study Phase2",1079,,,-1,-1,,,,1
w969399_anw,8h03ts1ety,Relational_NO_JOL,1,264,2020-04-29T13:25:04-07:00,1.4915709495544,2,versionA_stim.csv,READVersionB.csv,"Read Version B","Relational, read only version B",KEY,LATCH,Study1,B,36,23,Study,User,-,,Study/JOL,"Study Phase2",1196,,,-1,-1,,,,1
w969399_anw,8h03ts1ety,Relational_NO_JOL,1,265,2020-04-29T13:25:05-07:00,1.2748050689697,2,versionA_stim.csv,READVersionB.csv,"Read Version B","Relational, read only version B",DISCUSSION,TALK,Study1,F,21,58,Study,User,-,,Study/JOL,"Study Phase2",948,,,-1,-1,,,,1
w969399_anw,8h03ts1ety,Relational_NO_JOL,1,266,2020-04-29T13:25:07-07:00,1.1758949756622,2,versionA_stim.csv,READVersionB.csv,"Read Version B","Relational, read only version B",BRIDGE,WATER,Study1,F,18,45,Study,User,-,,Study/JOL,"Study Phase2",851,,,-1,-1,,,,1
w969399_anw,8h03ts1ety,Relational_NO_JOL,1,267,2020-04-29T13:25:08-07:00,1.1147170066833,2,versionA_stim.csv,READVersionB.csv,"Read Version B","Relational, read only version B",PARK,HUNGRY,Study1,U,68,69,Study,User,-,,Study/JOL,"Study Phase2",768,,,-1,-1,,,,1
w969399_anw,8h03ts1ety,Relational_NO_JOL,1,268,2020-04-29T13:25:09-07:00,1.4591279029846,2,versionA_stim.csv,READVersionB.csv,"Read Version B","Relational, read only version B",ARTERY,BRONZE,Study1,U,74,78,Study,User,-,,Study/JOL,"Study Phase2",1102,,,-1,-1,,,,1
w969399_anw,8h03ts1ety,Relational_NO_JOL,1,269,2020-04-29T13:25:11-07:00,1.7185161113739,2,versionA_stim.csv,READVersionB.csv,"Read Version B","Relational, read only version B",HUNGER,FAMINE,Study1,B,40,39,Study,User,-,,Study/JOL,"Study Phase2",1389,,,-1,-1,,,,1
w969399_anw,8h03ts1ety,Relational_NO_JOL,1,270,2020-04-29T13:25:12-07:00,1.1844198703766,2,versionA_stim.csv,READVersionB.csv,"Read Version B","Relational, read only version B",ROOT,PLANT,Study1,F,13,68,Study,User,-,,Study/JOL,"Study Phase2",868,,,-1,-1,,,,1
w969399_anw,8h03ts1ety,Relational_NO_JOL,1,271,2020-04-29T13:25:13-07:00,1.1738250255585,2,versionA_stim.csv,READVersionB.csv,"Read Version B","Relational, read only version B",MOON,SPACE,BUFFER2,Buffer,89,88,Study,User,-,,Study/JOL,BUFFER4,774,,,-1,-1,,,,1
w969399_anw,8h03ts1ety,Relational_NO_JOL,1,272,2020-04-29T13:25:15-07:00,1.2384541034698,2,versionA_stim.csv,READVersionB.csv,"Read Version B","Relational, read only version B",MALT,CHOCOLATE,BUFFER2,Buffer,88,91,Study,User,-,,Study/JOL,BUFFER4,870,,,-1,-1,,,,1
w969399_anw,8h03ts1ety,Relational_NO_JOL,1,273,2020-04-29T13:25:16-07:00,1.0871858596802,2,versionA_stim.csv,READVersionB.csv,"Read Version B","Relational, read only version B",SHERRIF,POLICE,BUFFER2,Buffer,87,87,Study,User,-,,Study/JOL,BUFFER4,780,,,-1,-1,,,,1
w969399_anw,8h03ts1ety,Relational_NO_JOL,1,274,2020-04-29T13:25:17-07:00,1.1637010574341,2,versionA_stim.csv,READVersionB.csv,"Read Version B","Relational, read only version B",THING,STUFF,BUFFER2,Buffer,90,89,Study,User,-,,Study/JOL,BUFFER4,784,,,-1,-1,,,,1
w969399_anw,8h03ts1ety,Relational_NO_JOL,1,275,2020-04-29T13:25:19-07:00,1.7197978496552,2,versionA_stim.csv,READVersionB.csv,"Read Version B","Relational, read only version B",GEESE,GOOSE,BUFFER2,Buffer,86,90,Study,User,-,,Study/JOL,BUFFER4,1379,,,-1,-1,,,,1
w969399_anw,8h03ts1ety,Relational_NO_JOL,1,276,2020-04-29T13:25:22-07:00,3.324832201004,2,versionA_stim.csv,READVersionB.csv,"Read Version B","Relational, read only version B",,,,,,0,Instruct,User,-,"You have completed this section. Please press Enter.",Filler_Instruction,Instruct5,2845,,,-1,-1,,,,1
w969399_anw,8h03ts1ety,Relational_NO_JOL,1,277,2020-04-29T13:25:35-07:00,13.269326925278,2,versionA_stim.csv,READVersionB.csv,"Read Version B","Relational, read only version B",,,,,,0,FreeRecall,-,10,"What were you supposed to focus on while you studied each pair? (Hint: Think back to the instructions). Type your answer in the space below.",,CHECK3,12883,"How the two words were similar",0,3048,11134,0,0,,1
w969399_anw,8h03ts1ety,Relational_NO_JOL,1,278,2020-04-29T13:25:37-07:00,2.3083860874176,2,versionA_stim.csv,READVersionB.csv,"Read Version B","Relational, read only version B",,,,,,0,Instruct,User,-,"You have completed this section. Please press Enter.",Filler_Instruction,Instruct5,1937,,,-1,-1,,,,1
w969399_anw,8h03ts1ety,Relational_NO_JOL,1,279,2020-04-29T13:27:38-07:00,120.35259580612,2,versionA_stim.csv,READVersionB.csv,"Read Version B","Relational, read only version B",,,,,,0,FreeRecall,120,120,"Please list the 50 US states in reverse alphabetical order (z - a). The task will automatically advance to the next screen after two minutes.",,Filler2,120003,"Wyoming, Washington, Utah, New York, New Hampshire, Mississippi, North Dakota, North Carolina, South Carolina, Texas, Florida, California, Alabama",0,5548,118848,0,0,,0.986
w969399_anw,8h03ts1ety,Relational_NO_JOL,1,280,2020-04-29T13:27:50-07:00,12.610908031464,2,versionA_stim.csv,READVersionB.csv,"Read Version B","Relational, read only version B",,,,,,0,Instruct,-,10,"You will now be presented with the first word from each of the previously studied item pairs. Please type the missing word. If you do not know the word, you may guess or press Enter to skip forward to the next pair.",,Instruct6,12227,,,-1,-1,,,,1
w969399_anw,8h03ts1ety,Relational_NO_JOL,1,281,2020-04-29T13:27:56-07:00,5.4257881641388,2,versionA_stim.csv,READVersionB.csv,"Read Version B","Relational, read only version B",HEIGHT,GROWTH,Study1,B,30,48,Test,User,-,,Recall,Recall2,5030,Growth,100,1705,2779,1,1,,1
w969399_anw,8h03ts1ety,Relational_NO_JOL,1,282,2020-04-29T13:27:59-07:00,2.8508949279785,2,versionA_stim.csv,READVersionB.csv,"Read Version B","Relational, read only version B",POP,SODA,Study1,S,56,24,Test,User,-,,Recall,Recall2,2447,,0,-1,-1,0,0,,1
w969399_anw,8h03ts1ety,Relational_NO_JOL,1,283,2020-04-29T13:28:01-07:00,2.7166380882263,2,versionA_stim.csv,READVersionB.csv,"Read Version B","Relational, read only version B",MACHINE,POSITION,Study1,U,76,22,Test,User,-,,Recall,Recall2,2320,,0,-1,-1,0,0,,1
w969399_anw,8h03ts1ety,Relational_NO_JOL,1,284,2020-04-29T13:28:04-07:00,2.3209300041199,2,versionA_stim.csv,READVersionB.csv,"Read Version B","Relational, read only version B",SENTENCE,WORD,Study1,B,31,29,Test,User,-,,Recall,Recall2,1953,wor,85.714285714286,1033,1290,0,1,,1
w969399_anw,8h03ts1ety,Relational_NO_JOL,1,285,2020-04-29T13:28:05-07:00,1.5254158973694,2,versionA_stim.csv,READVersionB.csv,"Read Version B","Relational, read only version B",GRILL,BAR,Study1,S,52,71,Test,User,-,,Recall,Recall2,1187,,0,-1,-1,0,0,,1
w969399_anw,8h03ts1ety,Relational_NO_JOL,1,286,2020-04-29T13:28:08-07:00,2.5122668743134,2,versionA_stim.csv,READVersionB.csv,"Read Version B","Relational, read only version B",VALLEY,ADD,Study1,U,82,13,Test,User,-,,Recall,Recall2,2074,,0,-1,-1,0,0,,1
w969399_anw,8h03ts1ety,Relational_NO_JOL,1,287,2020-04-29T13:28:12-07:00,3.8841280937195,2,versionA_stim.csv,READVersionB.csv,"Read Version B","Relational, read only version B",HUNGER,FAMINE,Study1,B,40,39,Test,User,-,,Recall,Recall2,3478,famine,100,2296,2963,1,1,,1
w969399_anw,8h03ts1ety,Relational_NO_JOL,1,288,2020-04-29T13:28:14-07:00,2.1055390834808,2,versionA_stim.csv,READVersionB.csv,"Read Version B","Relational, read only version B",ARTERY,BRONZE,Study1,U,74,78,Test,User,-,,Recall,Recall2,1790,,0,-1,-1,0,0,,1
w969399_anw,8h03ts1ety,Relational_NO_JOL,1,289,2020-04-29T13:28:15-07:00,1.2997369766235,2,versionA_stim.csv,READVersionB.csv,"Read Version B","Relational, read only version B",SUGAR,RIDDLE,Study1,U,81,83,Test,User,-,,Recall,Recall2,978,,0,-1,-1,0,0,,1
w969399_anw,8h03ts1ety,Relational_NO_JOL,1,290,2020-04-29T13:28:16-07:00,1.2422909736633,2,versionA_stim.csv,READVersionB.csv,"Read Version B","Relational, read only version B",DIETARY,SACKING,Study1,U,67,17,Test,User,-,,Recall,Recall2,890,,0,-1,-1,0,0,,1
w969399_anw,8h03ts1ety,Relational_NO_JOL,1,291,2020-04-29T13:28:17-07:00,1.0501918792725,2,versionA_stim.csv,READVersionB.csv,"Read Version B","Relational, read only version B",DUMP,WASTE,Study1,S,49,85,Test,User,-,,Recall,Recall2,707,,0,-1,-1,0,0,,1
w969399_anw,8h03ts1ety,Relational_NO_JOL,1,292,2020-04-29T13:28:20-07:00,2.3229250907898,2,versionA_stim.csv,READVersionB.csv,"Read Version B","Relational, read only version B",MEANING,DEFINITION,Study1,S,62,28,Test,User,-,,Recall,Recall2,1887,,0,-1,-1,0,0,,1
w969399_anw,8h03ts1ety,Relational_NO_JOL,1,293,2020-04-29T13:28:21-07:00,1.1434941291809,2,versionA_stim.csv,READVersionB.csv,"Read Version B","Relational, read only version B",CIRCLE,ROUND,Study1,S,65,32,Test,User,-,,Recall,Recall2,845,,0,-1,-1,0,0,,1
w969399_anw,8h03ts1ety,Relational_NO_JOL,1,294,2020-04-29T13:28:26-07:00,5.0199468135834,2,versionA_stim.csv,READVersionB.csv,"Read Version B","Relational, read only version B",CLOTHES,ATTIRE,Study1,B,43,49,Test,User,-,,Recall,Recall2,4602,attire,100,1135,4020,1,1,,1
w969399_anw,8h03ts1ety,Relational_NO_JOL,1,295,2020-04-29T13:28:30-07:00,3.7756869792938,2,versionA_stim.csv,READVersionB.csv,"Read Version B","Relational, read only version B",MATH,DIVISION,Study1,B,33,79,Test,User,-,,Recall,Recall2,3367,division,100,1519,2821,1,1,,1
w969399_anw,8h03ts1ety,Relational_NO_JOL,1,296,2020-04-29T13:28:33-07:00,3.7970461845398,2,versionA_stim.csv,READVersionB.csv,"Read Version B","Relational, read only version B",EDITOR,NEWS,Study1,F,10,42,Test,User,-,,Recall,Recall2,3398,write,22.222222222222,2364,2864,0,0,,1
w969399_anw,8h03ts1ety,Relational_NO_JOL,1,297,2020-04-29T13:28:36-07:00,2.6268348693848,2,versionA_stim.csv,READVersionB.csv,"Read Version B","Relational, read only version B",LOCATION,SITE,Study1,S,48,10,Test,User,-,,Recall,Recall2,2237,,0,-1,-1,0,0,,1
w969399_anw,8h03ts1ety,Relational_NO_JOL,1,298,2020-04-29T13:28:37-07:00,1.2856659889221,2,versionA_stim.csv,READVersionB.csv,"Read Version B","Relational, read only version B",PARK,HUNGRY,Study1,U,68,69,Test,User,-,,Recall,Recall2,980,,0,-1,-1,0,0,,1
w969399_anw,8h03ts1ety,Relational_NO_JOL,1,299,2020-04-29T13:28:41-07:00,3.3171191215515,2,versionA_stim.csv,READVersionB.csv,"Read Version B","Relational, read only version B",DARK,CAVE,Study1,B,28,8,Test,User,-,,Recall,Recall2,2929,alley,44.444444444444,1868,2432,0,0,,1
w969399_anw,8h03ts1ety,Relational_NO_JOL,1,300,2020-04-29T13:28:43-07:00,2.8755068778992,2,versionA_stim.csv,READVersionB.csv,"Read Version B","Relational, read only version B",HERD,COW,Study1,F,22,64,Test,User,-,,Recall,Recall2,2477,cows,85.714285714286,1260,1921,0,1,,1
w969399_anw,8h03ts1ety,Relational_NO_JOL,1,301,2020-04-29T13:28:45-07:00,1.4006540775299,2,versionA_stim.csv,READVersionB.csv,"Read Version B","Relational, read only version B",DRINK,SIP,Study1,B,27,82,Test,User,-,,Recall,Recall2,1076,,0,-1,-1,0,0,,1
w969399_anw,8h03ts1ety,Relational_NO_JOL,1,302,2020-04-29T13:28:48-07:00,3.2051000595093,2,versionA_stim.csv,READVersionB.csv,"Read Version B","Relational, read only version B",DELINQUENT,BAD,Study1,F,6,47,Test,User,-,,Recall,Recall2,2819,bad,100,1833,2099,1,1,,1
w969399_anw,8h03ts1ety,Relational_NO_JOL,1,303,2020-04-29T13:28:52-07:00,3.6235089302063,2,versionA_stim.csv,READVersionB.csv,"Read Version B","Relational, read only version B",LIFT,WOMAN,Study1,U,69,15,Test,User,-,,Recall,Recall2,3220,heavy,20,2108,2622,0,0,,1
w969399_anw,8h03ts1ety,Relational_NO_JOL,1,304,2020-04-29T13:28:55-07:00,3.7403919696808,2,versionA_stim.csv,READVersionB.csv,"Read Version B","Relational, read only version B",DEBATE,SIGHT,Study1,U,73,27,Test,User,-,,Recall,Recall2,3344,talk,22.222222222222,2404,2778,0,0,,1
w969399_anw,8h03ts1ety,Relational_NO_JOL,1,305,2020-04-29T13:29:02-07:00,6.1675450801849,2,versionA_stim.csv,READVersionB.csv,"Read Version B","Relational, read only version B",PLANE,PILOT,Study1,B,44,38,Test,User,-,,Recall,Recall2,5751,pilot,100,3692,5282,1,1,,1
w969399_anw,8h03ts1ety,Relational_NO_JOL,1,306,2020-04-29T13:29:06-07:00,4.7948729991913,2,versionA_stim.csv,READVersionB.csv,"Read Version B","Relational, read only version B",BALL,RACKET,Study1,B,38,34,Test,User,-,,Recall,Recall2,4394,basketball,50,2678,3918,0,0,,1
w969399_anw,8h03ts1ety,Relational_NO_JOL,1,307,2020-04-29T13:29:09-07:00,2.9520499706268,2,versionA_stim.csv,READVersionB.csv,"Read Version B","Relational, read only version B",KEY,LATCH,Study1,B,36,23,Test,User,-,,Recall,Recall2,2541,lock,44.444444444444,1591,2067,0,0,,1
w969399_anw,8h03ts1ety,Relational_NO_JOL,1,308,2020-04-29T13:29:12-07:00,2.9340560436249,2,versionA_stim.csv,READVersionB.csv,"Read Version B","Relational, read only version B",SLEEP,DROWSY,Study1,B,41,56,Test,User,-,,Recall,Recall2,2541,awake,18.181818181818,1150,2053,0,0,,1
w969399_anw,8h03ts1ety,Relational_NO_JOL,1,309,2020-04-29T13:29:15-07:00,2.6033749580383,2,versionA_stim.csv,READVersionB.csv,"Read Version B","Relational, read only version B",HYGIENE,CLEAN,Study1,F,17,30,Test,User,-,,Recall,Recall2,2206,clean,100,1276,1784,1,1,,1
w969399_anw,8h03ts1ety,Relational_NO_JOL,1,310,2020-04-29T13:29:16-07:00,1.3409049510956,2,versionA_stim.csv,READVersionB.csv,"Read Version B","Relational, read only version B",PUSHER,CLUTTER,Study1,U,66,12,Test,User,-,,Recall,Recall2,1014,,0,-1,-1,0,0,,1
w969399_anw,8h03ts1ety,Relational_NO_JOL,1,311,2020-04-29T13:29:18-07:00,1.8684539794922,2,versionA_stim.csv,READVersionB.csv,"Read Version B","Relational, read only version B",ART,LION,Study1,U,79,76,Test,User,-,,Recall,Recall2,1493,,0,-1,-1,0,0,,1
w969399_anw,8h03ts1ety,Relational_NO_JOL,1,312,2020-04-29T13:29:24-07:00,6.0770950317383,2,versionA_stim.csv,READVersionB.csv,"Read Version B","Relational, read only version B",TRIAL,JURY,Study1,S,50,54,Test,User,-,,Recall,Recall2,5660,jurors,60,3325,5027,0,0,,1
w969399_anw,8h03ts1ety,Relational_NO_JOL,1,313,2020-04-29T13:29:27-07:00,2.5652329921722,2,versionA_stim.csv,READVersionB.csv,"Read Version B","Relational, read only version B",ORCHID,FLOWER,Study1,F,24,81,Test,User,-,,Recall,Recall2,2185,flower,100,1136,1795,1,1,,1
w969399_anw,8h03ts1ety,Relational_NO_JOL,1,314,2020-04-29T13:29:29-07:00,2.7132980823517,2,versionA_stim.csv,READVersionB.csv,"Read Version B","Relational, read only version B",HIDE,SICK,Study1,U,84,9,Test,User,-,,Recall,Recall2,2351,,0,-1,-1,0,0,,1
w969399_anw,8h03ts1ety,Relational_NO_JOL,1,315,2020-04-29T13:29:31-07:00,1.6783499717712,2,versionA_stim.csv,READVersionB.csv,"Read Version B","Relational, read only version B",TUNA,FISH,Study1,F,25,57,Test,User,-,,Recall,Recall2,1371,,0,-1,-1,0,0,,1
w969399_anw,8h03ts1ety,Relational_NO_JOL,1,316,2020-04-29T13:29:34-07:00,3.0357689857483,2,versionA_stim.csv,READVersionB.csv,"Read Version B","Relational, read only version B",FULL,ENOUGH,Study1,B,26,70,Test,User,-,,Recall,Recall2,2654,,0,-1,-1,0,0,,1
w969399_anw,8h03ts1ety,Relational_NO_JOL,1,317,2020-04-29T13:29:37-07:00,2.5225338935852,2,versionA_stim.csv,READVersionB.csv,"Read Version B","Relational, read only version B",KIDNEY,LIVER,Study1,S,53,67,Test,User,-,,Recall,Recall2,2132,liver,100,1190,1758,1,1,,1
w969399_anw,8h03ts1ety,Relational_NO_JOL,1,318,2020-04-29T13:29:38-07:00,1.2006311416626,2,versionA_stim.csv,READVersionB.csv,"Read Version B","Relational, read only version B",FIX,HAND,Study1,U,75,11,Test,User,-,,Recall,Recall2,886,,0,-1,-1,0,0,,1
w969399_anw,8h03ts1ety,Relational_NO_JOL,1,319,2020-04-29T13:29:40-07:00,2.1611459255219,2,versionA_stim.csv,READVersionB.csv,"Read Version B","Relational, read only version B",DIGESTION,STOMACH,Study1,F,7,20,Test,User,-,,Recall,Recall2,1843,,0,-1,-1,0,0,,1
w969399_anw,8h03ts1ety,Relational_NO_JOL,1,320,2020-04-29T13:29:43-07:00,2.8273050785065,2,versionA_stim.csv,READVersionB.csv,"Read Version B","Relational, read only version B",PAST,FUTURE,Study1,S,61,43,Test,User,-,,Recall,Recall2,2438,future,100,1355,1929,1,1,,1
w969399_anw,8h03ts1ety,Relational_NO_JOL,1,321,2020-04-29T13:29:44-07:00,1.5950708389282,2,versionA_stim.csv,READVersionB.csv,"Read Version B","Relational, read only version B",NUMBER,AMOUNT,Study1,S,47,72,Test,User,-,,Recall,Recall2,1269,,0,-1,-1,0,0,,1
w969399_anw,8h03ts1ety,Relational_NO_JOL,1,322,2020-04-29T13:29:49-07:00,4.7073411941528,2,versionA_stim.csv,READVersionB.csv,"Read Version B","Relational, read only version B",HOT,CHILI,Study1,B,37,14,Test,User,-,,Recall,Recall2,4230,chilly,72.727272727273,936,3748,0,0,,1
w969399_anw,8h03ts1ety,Relational_NO_JOL,1,323,2020-04-29T13:29:52-07:00,3.2492158412933,2,versionA_stim.csv,READVersionB.csv,"Read Version B","Relational, read only version B",DUE,ASSIGNMENT,Study1,S,46,18,Test,User,-,,Recall,Recall2,2882,time,42.857142857143,1828,2203,0,0,,1
w969399_anw,8h03ts1ety,Relational_NO_JOL,1,324,2020-04-29T13:29:54-07:00,1.3294229507446,2,versionA_stim.csv,READVersionB.csv,"Read Version B","Relational, read only version B",CREDIT,CARD,Study1,F,23,25,Test,User,-,,Recall,Recall2,1014,,0,-1,-1,0,0,,1
w969399_anw,8h03ts1ety,Relational_NO_JOL,1,325,2020-04-29T13:29:59-07:00,5.0838701725006,2,versionA_stim.csv,READVersionB.csv,"Read Version B","Relational, read only version B",BITTER,COLD,Study1,F,12,36,Test,User,-,,Recall,Recall2,4682,sweet,0,997,3758,0,0,,1
w969399_anw,8h03ts1ety,Relational_NO_JOL,1,326,2020-04-29T13:30:00-07:00,1.1247549057007,2,versionA_stim.csv,READVersionB.csv,"Read Version B","Relational, read only version B",ALLOW,TUCK,Study1,U,78,37,Test,User,-,,Recall,Recall2,832,,0,-1,-1,0,0,,1
w969399_anw,8h03ts1ety,Relational_NO_JOL,1,327,2020-04-29T13:30:03-07:00,3.433571100235,2,versionA_stim.csv,READVersionB.csv,"Read Version B","Relational, read only version B",REVOLUTION,WAR,Study1,F,20,41,Test,User,-,,Recall,Recall2,2976,war,100,2207,2527,1,1,,1
w969399_anw,8h03ts1ety,Relational_NO_JOL,1,328,2020-04-29T13:30:07-07:00,3.5760288238525,2,versionA_stim.csv,READVersionB.csv,"Read Version B","Relational, read only version B",WINE,CHEESE,Study1,S,57,80,Test,User,-,,Recall,Recall2,3180,cheese,100,1723,2456,1,1,,1
w969399_anw,8h03ts1ety,Relational_NO_JOL,1,329,2020-04-29T13:30:09-07:00,1.8750061988831,2,versionA_stim.csv,READVersionB.csv,"Read Version B","Relational, read only version B",GEOLOGY,ROCK,Study1,F,19,33,Test,User,-,,Recall,Recall2,1544,,0,-1,-1,0,0,,1
w969399_anw,8h03ts1ety,Relational_NO_JOL,1,330,2020-04-29T13:30:10-07:00,1.244292974472,2,versionA_stim.csv,READVersionB.csv,"Read Version B","Relational, read only version B",WAY,OUT,Study1,F,16,55,Test,User,-,,Recall,Recall2,858,,0,-1,-1,0,0,,1
w969399_anw,8h03ts1ety,Relational_NO_JOL,1,331,2020-04-29T13:30:12-07:00,2.0963549613953,2,versionA_stim.csv,READVersionB.csv,"Read Version B","Relational, read only version B",DEATH,BUSINESS,Study1,U,72,59,Test,User,-,,Recall,Recall2,1712,,0,-1,-1,0,0,,1
w969399_anw,8h03ts1ety,Relational_NO_JOL,1,332,2020-04-29T13:30:13-07:00,1.1744809150696,2,versionA_stim.csv,READVersionB.csv,"Read Version B","Relational, read only version B",CHISEL,HAMMER,Study1,F,9,50,Test,User,-,,Recall,Recall2,868,,0,-1,-1,0,0,,1
w969399_anw,8h03ts1ety,Relational_NO_JOL,1,333,2020-04-29T13:30:16-07:00,2.7840709686279,2,versionA_stim.csv,READVersionB.csv,"Read Version B","Relational, read only version B",HAPPY,CAR,Study1,U,77,86,Test,User,-,,Recall,Recall2,2317,sad,33.333333333333,1250,1609,0,0,,1
w969399_anw,8h03ts1ety,Relational_NO_JOL,1,334,2020-04-29T13:30:18-07:00,1.7961511611938,2,versionA_stim.csv,READVersionB.csv,"Read Version B","Relational, read only version B",ARCHITECTURE,DESIGN,Study1,S,51,46,Test,User,-,,Recall,Recall2,1463,,0,-1,-1,0,0,,1
w969399_anw,8h03ts1ety,Relational_NO_JOL,1,335,2020-04-29T13:30:22-07:00,3.9853618144989,2,versionA_stim.csv,READVersionB.csv,"Read Version B","Relational, read only version B",WAGE,MONEY,Study1,F,8,62,Test,User,-,,Recall,Recall2,3510,pay,25,1817,3048,0,0,,1
w969399_anw,8h03ts1ety,Relational_NO_JOL,1,336,2020-04-29T13:30:24-07:00,2.346244096756,2,versionA_stim.csv,READVersionB.csv,"Read Version B","Relational, read only version B",HONEY,BEE,Study1,S,63,74,Test,User,-,,Recall,Recall2,1944,bee,100,1299,1572,1,1,,1
w969399_anw,8h03ts1ety,Relational_NO_JOL,1,337,2020-04-29T13:30:27-07:00,2.7223100662231,2,versionA_stim.csv,READVersionB.csv,"Read Version B","Relational, read only version B",TAKE,SEIZE,Study1,B,29,77,Test,User,-,,Recall,Recall2,2328,,0,975,975,0,0,,1
w969399_anw,8h03ts1ety,Relational_NO_JOL,1,338,2020-04-29T13:30:30-07:00,3.2298648357391,2,versionA_stim.csv,READVersionB.csv,"Read Version B","Relational, read only version B",SHOE,FOOT,Study1,S,60,31,Test,User,-,,Recall,Recall2,2850,tie,28.571428571429,1100,2372,0,0,,1
w969399_anw,8h03ts1ety,Relational_NO_JOL,1,339,2020-04-29T13:30:33-07:00,3.2437682151794,2,versionA_stim.csv,READVersionB.csv,"Read Version B","Relational, read only version B",LETTUCE,SALAD,Study1,S,59,73,Test,User,-,,Recall,Recall2,2836,salad,100,1007,2319,1,1,,1
w969399_anw,8h03ts1ety,Relational_NO_JOL,1,340,2020-04-29T13:30:36-07:00,2.3305218219757,2,versionA_stim.csv,READVersionB.csv,"Read Version B","Relational, read only version B",WORK,CHORE,Study1,B,39,60,Test,User,-,,Recall,Recall2,1940,,0,-1,-1,0,0,,1
w969399_anw,8h03ts1ety,Relational_NO_JOL,1,341,2020-04-29T13:30:37-07:00,1.0304050445557,2,versionA_stim.csv,READVersionB.csv,"Read Version B","Relational, read only version B",GREAT,FANTASTIC,Study1,B,35,44,Test,User,-,,Recall,Recall2,747,,0,-1,-1,0,0,,1
w969399_anw,8h03ts1ety,Relational_NO_JOL,1,342,2020-04-29T13:30:41-07:00,4.6285879611969,2,versionA_stim.csv,READVersionB.csv,"Read Version B","Relational, read only version B",BATHROOM,TOILET,Study1,S,58,75,Test,User,-,,Recall,Recall2,4101,shower,33.333333333333,2467,3156,0,0,,1
w969399_anw,8h03ts1ety,Relational_NO_JOL,1,343,2020-04-29T13:30:46-07:00,4.5290780067444,2,versionA_stim.csv,READVersionB.csv,"Read Version B","Relational, read only version B",SWAN,BIRD,Study1,F,14,84,Test,User,-,,Recall,Recall2,4144,duck,25,3288,3654,0,0,,1
w969399_anw,8h03ts1ety,Relational_NO_JOL,1,344,2020-04-29T13:30:49-07:00,2.8758330345154,2,versionA_stim.csv,READVersionB.csv,"Read Version B","Relational, read only version B",CASH,WOULD,Study1,U,83,52,Test,User,-,,Recall,Recall2,2463,,0,1578,1715,0,0,,1
w969399_anw,8h03ts1ety,Relational_NO_JOL,1,345,2020-04-29T13:30:53-07:00,3.9985270500183,2,versionA_stim.csv,READVersionB.csv,"Read Version B","Relational, read only version B",ROOT,PLANT,Study1,F,13,68,Test,User,-,,Recall,Recall2,3634,greens,18.181818181818,2414,3246,0,0,,1
w969399_anw,8h03ts1ety,Relational_NO_JOL,1,346,2020-04-29T13:30:56-07:00,2.7621359825134,2,versionA_stim.csv,READVersionB.csv,"Read Version B","Relational, read only version B",SMELL,STENCH,Study1,B,42,65,Test,User,-,,Recall,Recall2,2365,stench,100,1041,1864,1,1,,1
w969399_anw,8h03ts1ety,Relational_NO_JOL,1,347,2020-04-29T13:30:57-07:00,1.1356348991394,2,versionA_stim.csv,READVersionB.csv,"Read Version B","Relational, read only version B",BUG,WASP,Study1,B,32,40,Test,User,-,,Recall,Recall2,810,,0,-1,-1,0,0,,1
w969399_anw,8h03ts1ety,Relational_NO_JOL,1,348,2020-04-29T13:30:59-07:00,1.9512000083923,2,versionA_stim.csv,READVersionB.csv,"Read Version B","Relational, read only version B",LAW,ATTORNEY,Study1,B,34,21,Test,User,-,,Recall,Recall2,1557,,0,-1,-1,0,0,,1
w969399_anw,8h03ts1ety,Relational_NO_JOL,1,349,2020-04-29T13:31:00-07:00,1.2523601055145,2,versionA_stim.csv,READVersionB.csv,"Read Version B","Relational, read only version B",STRONG,ACCIDENT,Study1,U,80,26,Test,User,-,,Recall,Recall2,859,,0,-1,-1,0,0,,1
w969399_anw,8h03ts1ety,Relational_NO_JOL,1,350,2020-04-29T13:31:01-07:00,1.168200969696,2,versionA_stim.csv,READVersionB.csv,"Read Version B","Relational, read only version B",BEGIN,END,Study1,S,54,19,Test,User,-,,Recall,Recall2,810,p,0,805,805,0,0,,1
w969399_anw,8h03ts1ety,Relational_NO_JOL,1,351,2020-04-29T13:31:02-07:00,1.0777299404144,2,versionA_stim.csv,READVersionB.csv,"Read Version B","Relational, read only version B",FIRE,BLAZE,Study1,B,45,53,Test,User,-,,Recall,Recall2,760,,0,-1,-1,0,0,,1
w969399_anw,8h03ts1ety,Relational_NO_JOL,1,352,2020-04-29T13:31:07-07:00,4.9576141834259,2,versionA_stim.csv,READVersionB.csv,"Read Version B","Relational, read only version B",BABY,CHILD,Study1,S,64,35,Test,User,-,,Recall,Recall2,4529,child,100,2684,4325,1,1,,1
w969399_anw,8h03ts1ety,Relational_NO_JOL,1,353,2020-04-29T13:31:10-07:00,2.3723239898682,2,versionA_stim.csv,READVersionB.csv,"Read Version B","Relational, read only version B",BRIDGE,WATER,Study1,F,18,45,Test,User,-,,Recall,Recall2,1987,,0,-1,-1,0,0,,1
w969399_anw,8h03ts1ety,Relational_NO_JOL,1,354,2020-04-29T13:31:11-07:00,1.7617609500885,2,versionA_stim.csv,READVersionB.csv,"Read Version B","Relational, read only version B",PAW,DOG,Study1,F,15,51,Test,User,-,,Recall,Recall2,1462,,0,-1,-1,0,0,,1
w969399_anw,8h03ts1ety,Relational_NO_JOL,1,355,2020-04-29T13:31:14-07:00,3.035267829895,2,versionA_stim.csv,READVersionB.csv,"Read Version B","Relational, read only version B",DISCUSSION,TALK,Study1,F,21,58,Test,User,-,,Recall,Recall2,2560,word,0,1708,2121,0,0,,1
w969399_anw,8h03ts1ety,Relational_NO_JOL,1,356,2020-04-29T13:31:16-07:00,1.2020490169525,2,versionA_stim.csv,READVersionB.csv,"Read Version B","Relational, read only version B",KING,VASE,Study1,U,85,61,Test,User,-,,Recall,Recall2,880,,0,-1,-1,0,0,,1
w969399_anw,8h03ts1ety,Relational_NO_JOL,1,357,2020-04-29T13:31:17-07:00,1.5950419902802,2,versionA_stim.csv,READVersionB.csv,"Read Version B","Relational, read only version B",SOON,BELT,Study1,U,70,16,Test,User,-,,Recall,Recall2,1284,,0,-1,-1,0,0,,1
w969399_anw,8h03ts1ety,Relational_NO_JOL,1,358,2020-04-29T13:31:19-07:00,1.4967319965363,2,versionA_stim.csv,READVersionB.csv,"Read Version B","Relational, read only version B",DISCOVER,FLOOR,Study1,U,71,66,Test,User,-,,Recall,Recall2,1103,,0,-1,-1,0,0,,1
w969399_anw,8h03ts1ety,Relational_NO_JOL,1,359,2020-04-29T13:31:22-07:00,3.2624540328979,2,versionA_stim.csv,READVersionB.csv,"Read Version B","Relational, read only version B",HORNET,STING,Study1,F,11,7,Test,User,-,,Recall,Recall2,2884,nest,44.444444444444,1705,2429,0,0,,1
w969399_anw,8h03ts1ety,Relational_NO_JOL,1,360,2020-04-29T13:31:23-07:00,1.5540189743042,2,versionA_stim.csv,READVersionB.csv,"Read Version B","Relational, read only version B",BLOW,WIND,Study1,S,55,63,Test,User,-,,Recall,Recall2,1174,,0,-1,-1,0,0,,1
w969399_anw,8h03ts1ety,Relational_NO_JOL,1,361,2020-04-29T13:31:26-07:00,2.3974981307983,2,versionA_stim.csv,READVersionB.csv,"Read Version B","Relational, read only version B",,,,,,0,Instruct,User,-,"You have completed this section. Please press Enter.",,Instruct7,1982,,,-1,-1,,,,1
w969399_anw,8h03ts1ety,Relational_NO_JOL,1,362,2020-04-29T13:31:29-07:00,3.0433959960938,2,versionA_stim.csv,READVersionB.csv,"Read Version B","Relational, read only version B",,,,,,0,Instruct,User,-,"The following screen will ask you a few questions abour your experience today. You must complete these questions to receive credit.",,Instruct8,2650,,,-1,-1,,,,1
