"Username","Response.Response.1","Stimuli.Answer","Trial","Condition.Number","Condition.Description","Stimuli.Cue","Stimuli.Shuffle","Stimuli.Stimuli.Notes","Procedure.Trial.Type","Procedure.Shuffle","Procedure.Post.1.Item","Procedure.Post.1.Trial.Type","Response.RT","Response.Response","Response.post1_JOL","Procedure.Shuffle.1","Response.RT.1"
"w10050706","","tuck",20,5,"JOL Version A","allow","Study1","U","Study","Study Phase",22,"JOL",5001,"","0","Recall1",3840
"w10099624_hjk","approve","tuck",14,5,"JOL Version A","allow","Study1","U","Study","Study Phase",72,"JOL",5008,"","5","Recall1",21133
"W10107879-wra","","tuck",23,5,"JOL Version A","allow","Study1","U","Study","Study Phase",29,"JOL",5016,"","30","Recall1",4453
"w10110599","forbid","tuck",65,5,"JOL Version A","allow","Study1","U","Study","Study Phase",43,"JOL",5006,"","64","Recall1",3052
"w10113200_ems","","tuck",32,5,"JOL Version A","allow","Study1","U","Study","Study Phase",60,"JOL",5011,"","20","Recall1",3370
"w10117888","Permission ","tuck",42,5,"JOL Version A","allow","Study1","U","Study","Study Phase",40,"JOL",5002,"","5","Recall1",9073
"w10123216","","tuck",30,5,"JOL Version A","allow","Study1","U","Study","Study Phase",10,"JOL",5002,"","25","Recall1",3099
"w843029_SD","give","tuck",68,5,"JOL Version A","allow","Study1","U","Study","Study Phase",75,"JOL",5004,"","90","Recall1",26440
"w881414_BAC","Come","tuck",23,5,"JOL Version A","allow","Study1","U","Study","Study Phase",49,"JOL",5003,"","79","Recall1",5473
"W8i4325_SMcM","admit","tuck",48,5,"JOL Version A","allow","Study1","U","Study","Study Phase",52,"JOL",5004,"","10","Recall1",7204
"w10050706","","design",74,5,"JOL Version A","architecture","Study1","S","Study","Study Phase",46,"JOL",5001,"","40","Recall1",3805
"w10099624_hjk","design","design",34,5,"JOL Version A","architecture","Study1","S","Study","Study Phase",23,"JOL",5007,"","86","Recall1",4338
"W10107879-wra","Designe","design",38,5,"JOL Version A","architecture","Study1","S","Study","Study Phase",23,"JOL",5009,"","70","Recall1",7112
"w10110599","work","design",23,5,"JOL Version A","architecture","Study1","S","Study","Study Phase",24,"JOL",5002,"","34","Recall1",2991
"w10113200_ems","Design","design",82,5,"JOL Version A","architecture","Study1","S","Study","Study Phase",16,"JOL",5013,"","50","Recall1",4187
"w10117888","Design ","design",40,5,"JOL Version A","architecture","Study1","S","Study","Study Phase",58,"JOL",5002,"","50","Recall1",4378
"w10123216","design","design",61,5,"JOL Version A","architecture","Study1","S","Study","Study Phase",53,"JOL",5002,"","20","Recall1",10683
"w843029_SD","design","design",84,5,"JOL Version A","architecture","Study1","S","Study","Study Phase",61,"JOL",5003,"","100","Recall1",4166
"w881414_BAC","Build","design",13,5,"JOL Version A","architecture","Study1","S","Study","Study Phase",55,"JOL",5005,"","87","Recall1",2829
"W8i4325_SMcM","design","design",11,5,"JOL Version A","architecture","Study1","S","Study","Study Phase",27,"JOL",5004,"","10","Recall1",12898
"w10050706","crafts","lion",26,5,"JOL Version A","art","Study1","U","Study","Study Phase",78,"JOL",5001,"","0","Recall1",5287
"w10099624_hjk","","lion",12,5,"JOL Version A","art","Study1","U","Study","Study Phase",77,"JOL",5005,"","10","Recall1",3037
"W10107879-wra","","lion",76,5,"JOL Version A","art","Study1","U","Study","Study Phase",81,"JOL",5005,"","40","Recall1",4440
"w10110599","history ","lion",81,5,"JOL Version A","art","Study1","U","Study","Study Phase",38,"JOL",5003,"","23","Recall1",3147
"w10113200_ems","","lion",57,5,"JOL Version A","art","Study1","U","Study","Study Phase",58,"JOL",5014,"","10","Recall1",12434
"w10117888","Huge","lion",39,5,"JOL Version A","art","Study1","U","Study","Study Phase",47,"JOL",5002,"","11","Recall1",11299
"w10123216","lion","lion",90,5,"JOL Version A","art","Study1","U","Study","Study Phase",75,"JOL",5002,"","6","Recall1",4809
"w843029_SD","tiger","lion",47,5,"JOL Version A","art","Study1","U","Study","Study Phase",58,"JOL",5002,"","80","Recall1",15327
"w881414_BAC","Class","lion",26,5,"JOL Version A","art","Study1","U","Study","Study Phase",79,"JOL",5009,"","76","Recall1",2574
"W8i4325_SMcM","lion","lion",44,5,"JOL Version A","art","Study1","U","Study","Study Phase",26,"JOL",5009,"","75","Recall1",21528
"w10050706","","bronze",83,5,"JOL Version A","artery","Study1","U","Study","Study Phase",41,"JOL",5001,"","0","Recall1",1405
"w10099624_hjk","sacking","bronze",29,5,"JOL Version A","artery","Study1","U","Study","Study Phase",8,"JOL",5007,"","4","Recall1",4194
"W10107879-wra","","bronze",67,5,"JOL Version A","artery","Study1","U","Study","Study Phase",75,"JOL",5011,"","45","Recall1",4414
"w10110599","lung","bronze",75,5,"JOL Version A","artery","Study1","U","Study","Study Phase",61,"JOL",5002,"","43","Recall1",4223
"w10113200_ems","Gun","bronze",83,5,"JOL Version A","artery","Study1","U","Study","Study Phase",20,"JOL",5016,"","40","Recall1",7427
"w10117888","Heart","bronze",12,5,"JOL Version A","artery","Study1","U","Study","Study Phase",51,"JOL",5016,"","10","Recall1",7613
"w10123216","bronze","bronze",25,5,"JOL Version A","artery","Study1","U","Study","Study Phase",41,"JOL",5002,"","25","Recall1",4139
"w843029_SD","vein","bronze",14,5,"JOL Version A","artery","Study1","U","Study","Study Phase",55,"JOL",5003,"","10","Recall1",16667
"w881414_BAC","Clog","bronze",52,5,"JOL Version A","artery","Study1","U","Study","Study Phase",43,"JOL",5005,"","40","Recall1",2373
"W8i4325_SMcM","vase","bronze",72,5,"JOL Version A","artery","Study1","U","Study","Study Phase",8,"JOL",5011,"","1","Recall1",13650
"w10050706","child","child",78,5,"JOL Version A","baby","Study1","S","Study","Study Phase",44,"JOL",5002,"","95","Recall1",3362
"w10099624_hjk","child","child",53,5,"JOL Version A","baby","Study1","S","Study","Study Phase",34,"JOL",5006,"","100","Recall1",5819
"W10107879-wra","Child","child",47,5,"JOL Version A","baby","Study1","S","Study","Study Phase",7,"JOL",5005,"","70","Recall1",4712
"w10110599","child","child",46,5,"JOL Version A","baby","Study1","S","Study","Study Phase",15,"JOL",5002,"","85","Recall1",2176
"w10113200_ems","Child","child",14,5,"JOL Version A","baby","Study1","S","Study","Study Phase",72,"JOL",5012,"","100","Recall1",3498
"w10117888","Lotion ","child",11,5,"JOL Version A","baby","Study1","S","Study","Study Phase",65,"JOL",5002,"","10","Recall1",4634
"w10123216","child","child",28,5,"JOL Version A","baby","Study1","S","Study","Study Phase",30,"JOL",5002,"","100","Recall1",2347
"w843029_SD","child","child",53,5,"JOL Version A","baby","Study1","S","Study","Study Phase",49,"JOL",5003,"","100","Recall1",5087
"w881414_BAC","Sitter","child",87,5,"JOL Version A","baby","Study1","S","Study","Study Phase",17,"JOL",5003,"","5","Recall1",3383
"W8i4325_SMcM","child","child",69,5,"JOL Version A","baby","Study1","S","Study","Study Phase",41,"JOL",5011,"","100","Recall1",10316
"w10050706","hoop","racket",35,5,"JOL Version A","ball","Study1","B","Study","Study Phase",37,"JOL",5001,"","20","Recall1",6581
"w10099624_hjk","sport","racket",60,5,"JOL Version A","ball","Study1","B","Study","Study Phase",48,"JOL",5005,"","47","Recall1",5588
"W10107879-wra","Catcher","racket",70,5,"JOL Version A","ball","Study1","B","Study","Study Phase",85,"JOL",5010,"","70","Recall1",8711
"w10110599","basket","racket",60,5,"JOL Version A","ball","Study1","B","Study","Study Phase",39,"JOL",5002,"","45","Recall1",2922
"w10113200_ems","","racket",52,5,"JOL Version A","ball","Study1","B","Study","Study Phase",14,"JOL",5013,"","100","Recall1",13237
"w10117888","Racket ","racket",75,5,"JOL Version A","ball","Study1","B","Study","Study Phase",72,"JOL",5002,"","75","Recall1",5270
"w10123216","racket","racket",56,5,"JOL Version A","ball","Study1","B","Study","Study Phase",52,"JOL",5002,"","40","Recall1",3642
"w843029_SD","racket","racket",40,5,"JOL Version A","ball","Study1","B","Study","Study Phase",8,"JOL",5003,"","100","Recall1",23264
"w881414_BAC","Game","racket",77,5,"JOL Version A","ball","Study1","B","Study","Study Phase",24,"JOL",5007,"","15","Recall1",2978
"W8i4325_SMcM","catcher","racket",35,5,"JOL Version A","ball","Study1","B","Study","Study Phase",45,"JOL",5010,"","75","Recall1",12518
"w10050706","toilet","toilet",67,5,"JOL Version A","bathroom","Study1","S","Study","Study Phase",58,"JOL",5002,"","50","Recall1",3607
"w10099624_hjk","toliet","toilet",11,5,"JOL Version A","bathroom","Study1","S","Study","Study Phase",70,"JOL",5007,"","90","Recall1",2768
"W10107879-wra","Toilet","toilet",27,5,"JOL Version A","bathroom","Study1","S","Study","Study Phase",71,"JOL",5004,"","70","Recall1",7353
"w10110599","toliet","toilet",67,5,"JOL Version A","bathroom","Study1","S","Study","Study Phase",52,"JOL",5000,"","76","Recall1",2201
"w10113200_ems","Toilet","toilet",74,5,"JOL Version A","bathroom","Study1","S","Study","Study Phase",28,"JOL",5015,"","100","Recall1",3890
"w10117888","Toilet ","toilet",65,5,"JOL Version A","bathroom","Study1","S","Study","Study Phase",76,"JOL",5001,"","99","Recall1",4126
"w10123216","toilet","toilet",38,5,"JOL Version A","bathroom","Study1","S","Study","Study Phase",62,"JOL",5002,"","80","Recall1",3599
"w843029_SD","toilet","toilet",70,5,"JOL Version A","bathroom","Study1","S","Study","Study Phase",23,"JOL",5003,"","100","Recall1",8544
"w881414_BAC","Toilet","toilet",33,5,"JOL Version A","bathroom","Study1","S","Study","Study Phase",40,"JOL",5004,"","64","Recall1",3026
"W8i4325_SMcM","toilet","toilet",17,5,"JOL Version A","bathroom","Study1","S","Study","Study Phase",81,"JOL",5003,"","100","Recall1",12792
"w10050706","end","end",80,5,"JOL Version A","begin","Study1","S","Study","Study Phase",71,"JOL",5001,"","100","Recall1",3757
"w10099624_hjk","end","end",84,5,"JOL Version A","begin","Study1","S","Study","Study Phase",24,"JOL",5005,"","74","Recall1",1629
"W10107879-wra","End","end",66,5,"JOL Version A","begin","Study1","S","Study","Study Phase",14,"JOL",5005,"","75","Recall1",6918
"w10110599","end","end",16,5,"JOL Version A","begin","Study1","S","Study","Study Phase",33,"JOL",5001,"","86","Recall1",2508
"w10113200_ems","End","end",45,5,"JOL Version A","begin","Study1","S","Study","Study Phase",81,"JOL",5013,"","90","Recall1",3501
"w10117888","End ","end",26,5,"JOL Version A","begin","Study1","S","Study","Study Phase",9,"JOL",5004,"","99","Recall1",3845
"w10123216","end","end",29,5,"JOL Version A","begin","Study1","S","Study","Study Phase",16,"JOL",5003,"","100","Recall1",1965
"w843029_SD","end","end",30,5,"JOL Version A","begin","Study1","S","Study","Study Phase",19,"JOL",5008,"","100","Recall1",2718
"w881414_BAC","Stop","end",53,5,"JOL Version A","begin","Study1","S","Study","Study Phase",65,"JOL",5003,"","39","Recall1",5129
"W8i4325_SMcM","end","end",87,5,"JOL Version A","begin","Study1","S","Study","Study Phase",50,"JOL",5003,"","50","Recall1",6781
"w10050706","taste","cold",87,5,"JOL Version A","bitter","Study1","F","Study","Study Phase",82,"JOL",5001,"","9","Recall1",3193
"w10099624_hjk","sour","cold",64,5,"JOL Version A","bitter","Study1","F","Study","Study Phase",21,"JOL",5010,"","84","Recall1",3790
"W10107879-wra","","cold",49,5,"JOL Version A","bitter","Study1","F","Study","Study Phase",31,"JOL",5005,"","40","Recall1",3325
"w10110599","sweet","cold",80,5,"JOL Version A","bitter","Study1","F","Study","Study Phase",8,"JOL",5003,"","65","Recall1",2211
"w10113200_ems","Cold","cold",50,5,"JOL Version A","bitter","Study1","F","Study","Study Phase",82,"JOL",5013,"","30","Recall1",3478
"w10117888","Sweet","cold",60,5,"JOL Version A","bitter","Study1","F","Study","Study Phase",23,"JOL",5001,"","69","Recall1",4075
"w10123216","honey","cold",22,5,"JOL Version A","bitter","Study1","F","Study","Study Phase",11,"JOL",5002,"","85","Recall1",19591
"w843029_SD","cold","cold",63,5,"JOL Version A","bitter","Study1","F","Study","Study Phase",56,"JOL",5003,"","100","Recall1",12164
"w881414_BAC","sweet","cold",82,5,"JOL Version A","bitter","Study1","F","Study","Study Phase",20,"JOL",5010,"","10","Recall1",5977
"W8i4325_SMcM","cold","cold",67,5,"JOL Version A","bitter","Study1","F","Study","Study Phase",56,"JOL",5004,"","75","Recall1",11422
"w10050706","pop","wind",72,5,"JOL Version A","blow","Study1","S","Study","Study Phase",18,"JOL",5001,"","20","Recall1",3488
"w10099624_hjk","out","wind",50,5,"JOL Version A","blow","Study1","S","Study","Study Phase",68,"JOL",5009,"","87","Recall1",14201
"W10107879-wra","Wind","wind",73,5,"JOL Version A","blow","Study1","S","Study","Study Phase",58,"JOL",5005,"","60","Recall1",3654
"w10110599","air","wind",79,5,"JOL Version A","blow","Study1","S","Study","Study Phase",13,"JOL",5003,"","54","Recall1",5811
"w10113200_ems","","wind",49,5,"JOL Version A","blow","Study1","S","Study","Study Phase",71,"JOL",5012,"","50","Recall1",3660
"w10117888","Dry","wind",66,5,"JOL Version A","blow","Study1","S","Study","Study Phase",78,"JOL",5016,"","68","Recall1",7436
"w10123216","wind","wind",51,5,"JOL Version A","blow","Study1","S","Study","Study Phase",9,"JOL",5001,"","90","Recall1",2322
"w843029_SD","wind","wind",17,5,"JOL Version A","blow","Study1","S","Study","Study Phase",52,"JOL",5003,"","100","Recall1",4292
"w881414_BAC","Job","wind",65,5,"JOL Version A","blow","Study1","S","Study","Study Phase",22,"JOL",5006,"","27","Recall1",4337
"W8i4325_SMcM","wind","wind",19,5,"JOL Version A","blow","Study1","S","Study","Study Phase",71,"JOL",5003,"","70","Recall1",7816
"w10050706","","water",46,5,"JOL Version A","bridge","Study1","F","Study","Study Phase",83,"JOL",5001,"","10","Recall1",3832
"w10099624_hjk","water","water",58,5,"JOL Version A","bridge","Study1","F","Study","Study Phase",79,"JOL",5005,"","95","Recall1",3168
"W10107879-wra","Water ","water",36,5,"JOL Version A","bridge","Study1","F","Study","Study Phase",44,"JOL",5004,"","75","Recall1",5405
"w10110599","brick","water",61,5,"JOL Version A","bridge","Study1","F","Study","Study Phase",53,"JOL",5004,"","67","Recall1",4072
"w10113200_ems","Water","water",59,5,"JOL Version A","bridge","Study1","F","Study","Study Phase",56,"JOL",5014,"","90","Recall1",3833
"w10117888","Crosd","water",13,5,"JOL Version A","bridge","Study1","F","Study","Study Phase",22,"JOL",5001,"","1","Recall1",5656
"w10123216","water","water",50,5,"JOL Version A","bridge","Study1","F","Study","Study Phase",33,"JOL",5002,"","99","Recall1",2125
"w843029_SD","water","water",51,5,"JOL Version A","bridge","Study1","F","Study","Study Phase",47,"JOL",5002,"","100","Recall1",15747
"w881414_BAC","Gap","water",84,5,"JOL Version A","bridge","Study1","F","Study","Study Phase",62,"JOL",5007,"","8","Recall1",2948
"W8i4325_SMcM","water","water",15,5,"JOL Version A","bridge","Study1","F","Study","Study Phase",35,"JOL",5003,"","50","Recall1",8928
"w10050706","wasp","wasp",27,5,"JOL Version A","bug","Study1","B","Study","Study Phase",59,"JOL",5001,"","10","Recall1",4777
"w10099624_hjk","wasp","wasp",62,5,"JOL Version A","bug","Study1","B","Study","Study Phase",43,"JOL",5008,"","76","Recall1",2728
"W10107879-wra","Insect","wasp",74,5,"JOL Version A","bug","Study1","B","Study","Study Phase",21,"JOL",5004,"","70","Recall1",4272
"w10110599","bite","wasp",34,5,"JOL Version A","bug","Study1","B","Study","Study Phase",86,"JOL",5001,"","64","Recall1",2034
"w10113200_ems","","wasp",28,5,"JOL Version A","bug","Study1","B","Study","Study Phase",36,"JOL",5009,"","50","Recall1",1317
"w10117888","Wasp","wasp",90,5,"JOL Version A","bug","Study1","B","Study","Study Phase",37,"JOL",5002,"","74","Recall1",8863
"w10123216","wasp","wasp",15,5,"JOL Version A","bug","Study1","B","Study","Study Phase",73,"JOL",5002,"","50","Recall1",2031
"w843029_SD","wasp","wasp",60,5,"JOL Version A","bug","Study1","B","Study","Study Phase",21,"JOL",5003,"","100","Recall1",12550
"w881414_BAC","Insect","wasp",62,5,"JOL Version A","bug","Study1","B","Study","Study Phase",27,"JOL",5007,"","30","Recall1",3552
"W8i4325_SMcM","wasp","wasp",50,5,"JOL Version A","bug","Study1","B","Study","Study Phase",47,"JOL",5006,"","75","Recall1",5592
"w10050706","money","would",18,5,"JOL Version A","cash","Study1","U","Study","Study Phase",77,"JOL",5001,"","0","Recall1",6869
"w10099624_hjk","dollar","would",59,5,"JOL Version A","cash","Study1","U","Study","Study Phase",39,"JOL",5006,"","1","Recall1",12144
"W10107879-wra","Money","would",65,5,"JOL Version A","cash","Study1","U","Study","Study Phase",80,"JOL",5013,"","55","Recall1",8475
"w10110599","money","would",33,5,"JOL Version A","cash","Study1","U","Study","Study Phase",42,"JOL",5008,"","35","Recall1",1879
"w10113200_ems","Money","would",84,5,"JOL Version A","cash","Study1","U","Study","Study Phase",11,"JOL",5013,"","0","Recall1",4647
"w10117888","Choice ","would",43,5,"JOL Version A","cash","Study1","U","Study","Study Phase",46,"JOL",5002,"","8","Recall1",12859
"w10123216","wage","would",46,5,"JOL Version A","cash","Study1","U","Study","Study Phase",18,"JOL",5002,"","10","Recall1",4363
"w843029_SD","flow","would",31,5,"JOL Version A","cash","Study1","U","Study","Study Phase",37,"JOL",5005,"","60","Recall1",6267
"w881414_BAC","Money","would",36,5,"JOL Version A","cash","Study1","U","Study","Study Phase",34,"JOL",5009,"","62","Recall1",4455
"W8i4325_SMcM","back","would",31,5,"JOL Version A","cash","Study1","U","Study","Study Phase",54,"JOL",5004,"","5","Recall1",11364
"w10050706","","hammer",57,5,"JOL Version A","chisel","Study1","F","Study","Study Phase",14,"JOL",5001,"","0","Recall1",907
"w10099624_hjk","statue","hammer",35,5,"JOL Version A","chisel","Study1","F","Study","Study Phase",11,"JOL",5005,"","52","Recall1",5877
"W10107879-wra","Hammer","hammer",78,5,"JOL Version A","chisel","Study1","F","Study","Study Phase",16,"JOL",5007,"","70","Recall1",4481
"w10110599","hammer","hammer",45,5,"JOL Version A","chisel","Study1","F","Study","Study Phase",78,"JOL",5005,"","68","Recall1",2097
"w10113200_ems","","hammer",46,5,"JOL Version A","chisel","Study1","F","Study","Study Phase",27,"JOL",5012,"","30","Recall1",7151
"w10117888","Hammer","hammer",53,5,"JOL Version A","chisel","Study1","F","Study","Study Phase",43,"JOL",5002,"","9","Recall1",4995
"w10123216","hammer","hammer",74,5,"JOL Version A","chisel","Study1","F","Study","Study Phase",17,"JOL",5002,"","50","Recall1",3448
"w843029_SD","hammer","hammer",57,5,"JOL Version A","chisel","Study1","F","Study","Study Phase",46,"JOL",5010,"","100","Recall1",3571
"w881414_BAC","Knife","hammer",74,5,"JOL Version A","chisel","Study1","F","Study","Study Phase",54,"JOL",5009,"","18","Recall1",8550
"W8i4325_SMcM","hammer","hammer",66,5,"JOL Version A","chisel","Study1","F","Study","Study Phase",84,"JOL",5003,"","100","Recall1",7034
"w10050706","","round",62,5,"JOL Version A","circle","Study1","S","Study","Study Phase",55,"JOL",5001,"","100","Recall1",3451
"w10099624_hjk","round","round",45,5,"JOL Version A","circle","Study1","S","Study","Study Phase",13,"JOL",5006,"","100","Recall1",2076
"W10107879-wra","Round","round",71,5,"JOL Version A","circle","Study1","S","Study","Study Phase",17,"JOL",5007,"","70","Recall1",6198
"w10110599","round","round",47,5,"JOL Version A","circle","Study1","S","Study","Study Phase",74,"JOL",5004,"","68","Recall1",2162
"w10113200_ems","Round","round",39,5,"JOL Version A","circle","Study1","S","Study","Study Phase",78,"JOL",5009,"","60","Recall1",4219
"w10117888","Round","round",54,5,"JOL Version A","circle","Study1","S","Study","Study Phase",68,"JOL",5002,"","97","Recall1",3536
"w10123216","round","round",70,5,"JOL Version A","circle","Study1","S","Study","Study Phase",21,"JOL",5002,"","98","Recall1",2346
"w843029_SD","round","round",83,5,"JOL Version A","circle","Study1","S","Study","Study Phase",85,"JOL",5003,"","100","Recall1",4158
"w881414_BAC","Round","round",71,5,"JOL Version A","circle","Study1","S","Study","Study Phase",73,"JOL",5006,"","21","Recall1",2755
"W8i4325_SMcM","round","round",37,5,"JOL Version A","circle","Study1","S","Study","Study Phase",23,"JOL",5007,"","100","Recall1",9467
"w10050706","shoes","attire",65,5,"JOL Version A","clothes","Study1","B","Study","Study Phase",50,"JOL",5001,"","70","Recall1",3444
"w10099624_hjk","shirt","attire",33,5,"JOL Version A","clothes","Study1","B","Study","Study Phase",69,"JOL",5008,"","74","Recall1",8906
"W10107879-wra","Pants","attire",31,5,"JOL Version A","clothes","Study1","B","Study","Study Phase",47,"JOL",5004,"","65","Recall1",5060
"w10110599","pant","attire",76,5,"JOL Version A","clothes","Study1","B","Study","Study Phase",56,"JOL",5009,"","68","Recall1",5145
"w10113200_ems","Body","attire",77,5,"JOL Version A","clothes","Study1","B","Study","Study Phase",76,"JOL",5012,"","30","Recall1",8207
"w10117888","Wear","attire",51,5,"JOL Version A","clothes","Study1","B","Study","Study Phase",86,"JOL",5002,"","78","Recall1",3013
"w10123216","wardrobe","attire",33,5,"JOL Version A","clothes","Study1","B","Study","Study Phase",77,"JOL",5002,"","86","Recall1",20615
"w843029_SD","attire","attire",90,5,"JOL Version A","clothes","Study1","B","Study","Study Phase",59,"JOL",5003,"","100","Recall1",21909
"w881414_BAC","Laundry","attire",48,5,"JOL Version A","clothes","Study1","B","Study","Study Phase",25,"JOL",5004,"","44","Recall1",3067
"W8i4325_SMcM","pants","attire",78,5,"JOL Version A","clothes","Study1","B","Study","Study Phase",49,"JOL",5003,"","50","Recall1",30577
"w10050706","card","card",21,5,"JOL Version A","credit","Study1","F","Study","Study Phase",85,"JOL",5001,"","100","Recall1",2577
"w10099624_hjk","card","card",44,5,"JOL Version A","credit","Study1","F","Study","Study Phase",22,"JOL",5009,"","100","Recall1",4699
"W10107879-wra","Card","card",14,5,"JOL Version A","credit","Study1","F","Study","Study Phase",30,"JOL",5004,"","90","Recall1",3657
"w10110599","card","card",63,5,"JOL Version A","credit","Study1","F","Study","Study Phase",57,"JOL",5002,"","85","Recall1",1818
"w10113200_ems","Card","card",24,5,"JOL Version A","credit","Study1","F","Study","Study Phase",18,"JOL",5013,"","100","Recall1",3120
"w10117888","Card","card",77,5,"JOL Version A","credit","Study1","F","Study","Study Phase",12,"JOL",5001,"","99.9","Recall1",2815
"w10123216","card","card",34,5,"JOL Version A","credit","Study1","F","Study","Study Phase",74,"JOL",5002,"","100","Recall1",3020
"w843029_SD","card","card",66,5,"JOL Version A","credit","Study1","F","Study","Study Phase",29,"JOL",5004,"","100","Recall1",20525
"w881414_BAC","Card","card",24,5,"JOL Version A","credit","Study1","F","Study","Study Phase",15,"JOL",5016,"","78","Recall1",1884
"W8i4325_SMcM","card","card",28,5,"JOL Version A","credit","Study1","F","Study","Study Phase",76,"JOL",5003,"","100","Recall1",6025
"w10050706","alley ","cave",75,5,"JOL Version A","dark","Study1","B","Study","Study Phase",62,"JOL",5001,"","30","Recall1",12647
"w10099624_hjk","fear","cave",54,5,"JOL Version A","dark","Study1","B","Study","Study Phase",20,"JOL",5007,"","65","Recall1",5837
"W10107879-wra","Cave","cave",88,5,"JOL Version A","dark","Study1","B","Study","Study Phase",69,"JOL",5011,"","75","Recall1",4042
"w10110599","cave","cave",12,5,"JOL Version A","dark","Study1","B","Study","Study Phase",63,"JOL",5002,"","79","Recall1",1938
"w10113200_ems","","cave",89,5,"JOL Version A","dark","Study1","B","Study","Study Phase",32,"JOL",5013,"","20","Recall1",4588
"w10117888","Mysterious ","cave",36,5,"JOL Version A","dark","Study1","B","Study","Study Phase",84,"JOL",5003,"","70","Recall1",19537
"w10123216","cave","cave",26,5,"JOL Version A","dark","Study1","B","Study","Study Phase",14,"JOL",5001,"","75","Recall1",2446
"w843029_SD","cave","cave",49,5,"JOL Version A","dark","Study1","B","Study","Study Phase",33,"JOL",5003,"","100","Recall1",17102
"w881414_BAC","Night","cave",32,5,"JOL Version A","dark","Study1","B","Study","Study Phase",47,"JOL",5004,"","65","Recall1",2369
"W8i4325_SMcM","cave","cave",29,5,"JOL Version A","dark","Study1","B","Study","Study Phase",85,"JOL",5004,"","100","Recall1",13401
"w10050706","","business",29,5,"JOL Version A","death","Study1","U","Study","Study Phase",33,"JOL",5001,"","0","Recall1",6390
"w10099624_hjk","bed","business",40,5,"JOL Version A","death","Study1","U","Study","Study Phase",65,"JOL",5006,"","5","Recall1",9853
"W10107879-wra","Buissenes","business",32,5,"JOL Version A","death","Study1","U","Study","Study Phase",9,"JOL",5005,"","50","Recall1",10986
"w10110599","life","business",18,5,"JOL Version A","death","Study1","U","Study","Study Phase",69,"JOL",5002,"","57","Recall1",2127
"w10113200_ems","","business",37,5,"JOL Version A","death","Study1","U","Study","Study Phase",9,"JOL",5010,"","30","Recall1",2073
"w10117888","End","business",17,5,"JOL Version A","death","Study1","U","Study","Study Phase",73,"JOL",5002,"","2","Recall1",6486
"w10123216","","business",82,5,"JOL Version A","death","Study1","U","Study","Study Phase",80,"JOL",5002,"","40","Recall1",7155
"w843029_SD","sad","business",22,5,"JOL Version A","death","Study1","U","Study","Study Phase",13,"JOL",5004,"","30","Recall1",23882
"w881414_BAC","Row","business",60,5,"JOL Version A","death","Study1","U","Study","Study Phase",57,"JOL",5013,"","32","Recall1",2435
"W8i4325_SMcM","funeral","business",59,5,"JOL Version A","death","Study1","U","Study","Study Phase",66,"JOL",5004,"","10","Recall1",16960
"w10050706","","sight",76,5,"JOL Version A","debate","Study1","U","Study","Study Phase",29,"JOL",5001,"","2","Recall1",7197
"w10099624_hjk","political","sight",87,5,"JOL Version A","debate","Study1","U","Study","Study Phase",35,"JOL",5006,"","8","Recall1",5022
"W10107879-wra","Talk","sight",51,5,"JOL Version A","debate","Study1","U","Study","Study Phase",60,"JOL",5009,"","20","Recall1",4542
"w10110599","argument ","sight",24,5,"JOL Version A","debate","Study1","U","Study","Study Phase",64,"JOL",5003,"","63","Recall1",4087
"w10113200_ems","Discussion","sight",42,5,"JOL Version A","debate","Study1","U","Study","Study Phase",85,"JOL",5011,"","70","Recall1",10351
"w10117888","Argue","sight",55,5,"JOL Version A","debate","Study1","U","Study","Study Phase",41,"JOL",5002,"","2","Recall1",3849
"w10123216","discussion","sight",75,5,"JOL Version A","debate","Study1","U","Study","Study Phase",67,"JOL",5002,"","4","Recall1",8673
"w843029_SD","argue","sight",59,5,"JOL Version A","debate","Study1","U","Study","Study Phase",74,"JOL",5003,"","0","Recall1",3658
"w881414_BAC","Argue","sight",66,5,"JOL Version A","debate","Study1","U","Study","Study Phase",82,"JOL",5004,"","26","Recall1",2831
"W8i4325_SMcM","talk","sight",70,5,"JOL Version A","debate","Study1","U","Study","Study Phase",64,"JOL",5002,"","5","Recall1",21841
"w10050706","bad","bad",14,5,"JOL Version A","delinquent","Study1","F","Study","Study Phase",9,"JOL",5001,"","0","Recall1",4655
"w10099624_hjk","bad","bad",41,5,"JOL Version A","delinquent","Study1","F","Study","Study Phase",38,"JOL",5005,"","94","Recall1",7223
"W10107879-wra","Bad","bad",45,5,"JOL Version A","delinquent","Study1","F","Study","Study Phase",77,"JOL",5007,"","75","Recall1",11907
"w10110599","bad","bad",30,5,"JOL Version A","delinquent","Study1","F","Study","Study Phase",26,"JOL",5003,"","87","Recall1",2064
"w10113200_ems","Bad","bad",87,5,"JOL Version A","delinquent","Study1","F","Study","Study Phase",25,"JOL",5013,"","100","Recall1",3834
"w10117888","Bad","bad",29,5,"JOL Version A","delinquent","Study1","F","Study","Study Phase",14,"JOL",5002,"","6","Recall1",3309
"w10123216","bad","bad",80,5,"JOL Version A","delinquent","Study1","F","Study","Study Phase",65,"JOL",5001,"","90","Recall1",2852
"w843029_SD","due","bad",39,5,"JOL Version A","delinquent","Study1","F","Study","Study Phase",17,"JOL",5004,"","100","Recall1",7791
"w881414_BAC","Bad","bad",39,5,"JOL Version A","delinquent","Study1","F","Study","Study Phase",10,"JOL",5003,"","58","Recall1",7309
"W8i4325_SMcM","bad","bad",88,5,"JOL Version A","delinquent","Study1","F","Study","Study Phase",69,"JOL",5002,"","20","Recall1",7277
"w10050706","milk","sacking",48,5,"JOL Version A","dietary","Study1","U","Study","Study Phase",30,"JOL",5001,"","0","Recall1",4721
"w10099624_hjk","sacking","sacking",78,5,"JOL Version A","dietary","Study1","U","Study","Study Phase",27,"JOL",5008,"","0","Recall1",4884
"W10107879-wra","Cash","sacking",26,5,"JOL Version A","dietary","Study1","U","Study","Study Phase",86,"JOL",5007,"","20","Recall1",7863
"w10110599","sacking","sacking",56,5,"JOL Version A","dietary","Study1","U","Study","Study Phase",36,"JOL",5002,"","23","Recall1",2844
"w10113200_ems","","sacking",38,5,"JOL Version A","dietary","Study1","U","Study","Study Phase",68,"JOL",5012,"","20","Recall1",5448
"w10117888","Fiber ","sacking",73,5,"JOL Version A","dietary","Study1","U","Study","Study Phase",75,"JOL",5002,"","30","Recall1",5778
"w10123216","","sacking",39,5,"JOL Version A","dietary","Study1","U","Study","Study Phase",70,"JOL",5001,"","10","Recall1",4483
"w843029_SD","weight","sacking",80,5,"JOL Version A","dietary","Study1","U","Study","Study Phase",45,"JOL",5003,"","0","Recall1",22794
"w881414_BAC","Meal","sacking",19,5,"JOL Version A","dietary","Study1","U","Study","Study Phase",23,"JOL",5005,"","83","Recall1",2379
"W8i4325_SMcM","cook","sacking",71,5,"JOL Version A","dietary","Study1","U","Study","Study Phase",58,"JOL",5003,"","5","Recall1",8272
"w10050706","stomach","stomach",38,5,"JOL Version A","digestion","Study1","F","Study","Study Phase",57,"JOL",5001,"","50","Recall1",5388
"w10099624_hjk","stomach","stomach",26,5,"JOL Version A","digestion","Study1","F","Study","Study Phase",41,"JOL",5006,"","91","Recall1",3098
"W10107879-wra","Place","stomach",52,5,"JOL Version A","digestion","Study1","F","Study","Study Phase",13,"JOL",5004,"","20","Recall1",5382
"w10110599","stomach","stomach",44,5,"JOL Version A","digestion","Study1","F","Study","Study Phase",65,"JOL",5002,"","69","Recall1",3346
"w10113200_ems","Stomach","stomach",40,5,"JOL Version A","digestion","Study1","F","Study","Study Phase",44,"JOL",5011,"","90","Recall1",4622
"w10117888","Stomach ","stomach",69,5,"JOL Version A","digestion","Study1","F","Study","Study Phase",69,"JOL",5002,"","67","Recall1",5360
"w10123216","stomach","stomach",66,5,"JOL Version A","digestion","Study1","F","Study","Study Phase",79,"JOL",5002,"","85","Recall1",3798
"w843029_SD","stomach","stomach",54,5,"JOL Version A","digestion","Study1","F","Study","Study Phase",86,"JOL",5003,"","100","Recall1",5210
"w881414_BAC","Throat","stomach",76,5,"JOL Version A","digestion","Study1","F","Study","Study Phase",66,"JOL",5006,"","16","Recall1",7118
"W8i4325_SMcM","tract","stomach",60,5,"JOL Version A","digestion","Study1","F","Study","Study Phase",57,"JOL",5003,"","100","Recall1",14304
"w10050706","find","floor",79,5,"JOL Version A","discover","Study1","U","Study","Study Phase",70,"JOL",5001,"","23","Recall1",3145
"w10099624_hjk","","floor",38,5,"JOL Version A","discover","Study1","U","Study","Study Phase",84,"JOL",5006,"","10","Recall1",5916
"W10107879-wra","Land","floor",18,5,"JOL Version A","discover","Study1","U","Study","Study Phase",65,"JOL",5010,"","45","Recall1",3958
"w10110599","card","floor",54,5,"JOL Version A","discover","Study1","U","Study","Study Phase",11,"JOL",5003,"","34","Recall1",2461
"w10113200_ems","","floor",48,5,"JOL Version A","discover","Study1","U","Study","Study Phase",48,"JOL",5010,"","20","Recall1",2604
"w10117888","World ","floor",76,5,"JOL Version A","discover","Study1","U","Study","Study Phase",74,"JOL",5001,"","Hey1","Recall1",4075
"w10123216","","floor",59,5,"JOL Version A","discover","Study1","U","Study","Study Phase",56,"JOL",5002,"","5","Recall1",4677
"w843029_SD","earth","floor",11,5,"JOL Version A","discover","Study1","U","Study","Study Phase",20,"JOL",5002,"","0","Recall1",33702
"w881414_BAC","Card","floor",18,5,"JOL Version A","discover","Study1","U","Study","Study Phase",71,"JOL",5006,"","84","Recall1",2459
"W8i4325_SMcM","card","floor",49,5,"JOL Version A","discover","Study1","U","Study","Study Phase",72,"JOL",5004,"","20","Recall1",11412
"w10050706","","talk",41,5,"JOL Version A","discussion","Study1","F","Study","Study Phase",75,"JOL",5001,"","60","Recall1",8098
"w10099624_hjk","talk","talk",21,5,"JOL Version A","discussion","Study1","F","Study","Study Phase",46,"JOL",5007,"","88","Recall1",2748
"W10107879-wra","Talk","talk",77,5,"JOL Version A","discussion","Study1","F","Study","Study Phase",54,"JOL",5006,"","50","Recall1",4199
"w10110599","board","talk",26,5,"JOL Version A","discussion","Study1","F","Study","Study Phase",48,"JOL",5002,"","54","Recall1",2033
"w10113200_ems","Debate","talk",17,5,"JOL Version A","discussion","Study1","F","Study","Study Phase",8,"JOL",5010,"","80","Recall1",15477
"w10117888","Talk","talk",34,5,"JOL Version A","discussion","Study1","F","Study","Study Phase",54,"JOL",5002,"","60","Recall1",3884
"w10123216","talk","talk",76,5,"JOL Version A","discussion","Study1","F","Study","Study Phase",57,"JOL",5002,"","85","Recall1",3096
"w843029_SD","talk","talk",56,5,"JOL Version A","discussion","Study1","F","Study","Study Phase",35,"JOL",5007,"","100","Recall1",4414
"w881414_BAC","Talk","talk",40,5,"JOL Version A","discussion","Study1","F","Study","Study Phase",7,"JOL",5012,"","56","Recall1",5165
"W8i4325_SMcM","talk","talk",89,5,"JOL Version A","discussion","Study1","F","Study","Study Phase",59,"JOL",5003,"","50","Recall1",10184
"w10050706","cold","sip",77,5,"JOL Version A","drink","Study1","B","Study","Study Phase",8,"JOL",5000,"","60","Recall1",3440
"w10099624_hjk","","sip",30,5,"JOL Version A","drink","Study1","B","Study","Study Phase",9,"JOL",5008,"","97","Recall1",4602
"W10107879-wra","Beverage","sip",19,5,"JOL Version A","drink","Study1","B","Study","Study Phase",36,"JOL",5004,"","70","Recall1",6358
"w10110599","sip","sip",43,5,"JOL Version A","drink","Study1","B","Study","Study Phase",44,"JOL",5002,"","67","Recall1",2904
"w10113200_ems","","sip",73,5,"JOL Version A","drink","Study1","B","Study","Study Phase",33,"JOL",5013,"","50","Recall1",2078
"w10117888","Water","sip",24,5,"JOL Version A","drink","Study1","B","Study","Study Phase",18,"JOL",5011,"","99","Recall1",7560
"w10123216","sip","sip",85,5,"JOL Version A","drink","Study1","B","Study","Study Phase",50,"JOL",5002,"","70","Recall1",2703
"w843029_SD","sip","sip",29,5,"JOL Version A","drink","Study1","B","Study","Study Phase",42,"JOL",5005,"","100","Recall1",20556
"w881414_BAC","Wate","sip",88,5,"JOL Version A","drink","Study1","B","Study","Study Phase",81,"JOL",5010,"","4","Recall1",5717
"W8i4325_SMcM","water","sip",32,5,"JOL Version A","drink","Study1","B","Study","Study Phase",36,"JOL",5003,"","50","Recall1",8248
"w10050706","time","assignment",45,5,"JOL Version A","due","Study1","S","Study","Study Phase",74,"JOL",5000,"","70","Recall1",3785
"w10099624_hjk","assignment","assignment",47,5,"JOL Version A","due","Study1","S","Study","Study Phase",50,"JOL",5006,"","99","Recall1",3551
"W10107879-wra","Assignment","assignment",44,5,"JOL Version A","due","Study1","S","Study","Study Phase",15,"JOL",5006,"","65","Recall1",6076
"w10110599","assignment ","assignment",17,5,"JOL Version A","due","Study1","S","Study","Study Phase",55,"JOL",5003,"","43","Recall1",3090
"w10113200_ems","Assignment ","assignment",71,5,"JOL Version A","due","Study1","S","Study","Study Phase",63,"JOL",5012,"","100","Recall1",4436
"w10117888","Assignment ","assignment",62,5,"JOL Version A","due","Study1","S","Study","Study Phase",85,"JOL",5012,"","88","Recall1",3861
"w10123216","assignment","assignment",52,5,"JOL Version A","due","Study1","S","Study","Study Phase",35,"JOL",5002,"","50","Recall1",4827
"w843029_SD","assignment","assignment",81,5,"JOL Version A","due","Study1","S","Study","Study Phase",11,"JOL",5005,"","100","Recall1",6684
"w881414_BAC","Homework","assignment",45,5,"JOL Version A","due","Study1","S","Study","Study Phase",31,"JOL",5003,"","47","Recall1",4538
"W8i4325_SMcM","assignment","assignment",14,5,"JOL Version A","due","Study1","S","Study","Study Phase",24,"JOL",5008,"","100","Recall1",20287
"w10050706","waste","waste",55,5,"JOL Version A","dump","Study1","S","Study","Study Phase",67,"JOL",5001,"","20","Recall1",3442
"w10099624_hjk","trash","waste",43,5,"JOL Version A","dump","Study1","S","Study","Study Phase",25,"JOL",5009,"","82","Recall1",2840
"W10107879-wra","","waste",13,5,"JOL Version A","dump","Study1","S","Study","Study Phase",48,"JOL",5004,"","65","Recall1",3970
"w10110599","photo","waste",48,5,"JOL Version A","dump","Study1","S","Study","Study Phase",68,"JOL",5001,"",NA,"Recall1",2128
"w10113200_ems","","waste",18,5,"JOL Version A","dump","Study1","S","Study","Study Phase",31,"JOL",5012,"","70","Recall1",1442
"w10117888","Garbage ","waste",80,5,"JOL Version A","dump","Study1","S","Study","Study Phase",64,"JOL",5002,"","78","Recall1",7254
"w10123216","waste","waste",67,5,"JOL Version A","dump","Study1","S","Study","Study Phase",71,"JOL",5002,"","95","Recall1",2787
"w843029_SD","waste","waste",37,5,"JOL Version A","dump","Study1","S","Study","Study Phase",30,"JOL",5003,"","100","Recall1",21223
"w881414_BAC","Trash","waste",55,5,"JOL Version A","dump","Study1","S","Study","Study Phase",42,"JOL",5004,"","37","Recall1",8861
"W8i4325_SMcM","garbage","waste",81,5,"JOL Version A","dump","Study1","S","Study","Study Phase",79,"JOL",5004,"","75","Recall1",13240
"w10050706","writer","news",43,5,"JOL Version A","editor","Study1","F","Study","Study Phase",52,"JOL",5002,"","5","Recall1",4816
"w10099624_hjk","news","news",88,5,"JOL Version A","editor","Study1","F","Study","Study Phase",36,"JOL",5006,"","27","Recall1",2764
"W10107879-wra","Newspaper ","news",16,5,"JOL Version A","editor","Study1","F","Study","Study Phase",83,"JOL",5004,"","50","Recall1",9132
"w10110599","work","news",21,5,"JOL Version A","editor","Study1","F","Study","Study Phase",25,"JOL",5004,"","76","Recall1",2793
"w10113200_ems","","news",54,5,"JOL Version A","editor","Study1","F","Study","Study Phase",64,"JOL",5012,"","80","Recall1",7062
"w10117888","Newspaper ","news",85,5,"JOL Version A","editor","Study1","F","Study","Study Phase",45,"JOL",5002,"","60","Recall1",11949
"w10123216","news","news",89,5,"JOL Version A","editor","Study1","F","Study","Study Phase",54,"JOL",5001,"","9","Recall1",2567
"w843029_SD","news","news",28,5,"JOL Version A","editor","Study1","F","Study","Study Phase",7,"JOL",5006,"","100","Recall1",6307
"w881414_BAC","Paper","news",27,5,"JOL Version A","editor","Study1","F","Study","Study Phase",78,"JOL",5004,"","75","Recall1",4506
"W8i4325_SMcM","newspaper","news",23,5,"JOL Version A","editor","Study1","F","Study","Study Phase",51,"JOL",5003,"","70","Recall1",22086
"w10050706","","blaze",60,5,"JOL Version A","fire","Study1","B","Study","Study Phase",32,"JOL",5001,"","10","Recall1",2412
"w10099624_hjk","blaze","blaze",27,5,"JOL Version A","fire","Study1","B","Study","Study Phase",83,"JOL",5006,"","95","Recall1",3929
"W10107879-wra","Inferno","blaze",81,5,"JOL Version A","fire","Study1","B","Study","Study Phase",82,"JOL",5005,"","60","Recall1",32458
"w10110599","ice","blaze",31,5,"JOL Version A","fire","Study1","B","Study","Study Phase",28,"JOL",5003,"","69","Recall1",1730
"w10113200_ems","","blaze",47,5,"JOL Version A","fire","Study1","B","Study","Study Phase",26,"JOL",5010,"","20","Recall1",13333
"w10117888","Drill","blaze",49,5,"JOL Version A","fire","Study1","B","Study","Study Phase",39,"JOL",5002,"","90","Recall1",5742
"w10123216","blaze","blaze",40,5,"JOL Version A","fire","Study1","B","Study","Study Phase",48,"JOL",5001,"","75","Recall1",2794
"w843029_SD","blaze","blaze",88,5,"JOL Version A","fire","Study1","B","Study","Study Phase",64,"JOL",5003,"","100","Recall1",4656
"w881414_BAC","Hazard","blaze",79,5,"JOL Version A","fire","Study1","B","Study","Study Phase",14,"JOL",5004,"","13","Recall1",3605
"W8i4325_SMcM","wood","blaze",36,5,"JOL Version A","fire","Study1","B","Study","Study Phase",15,"JOL",5008,"","50","Recall1",19524
"w10050706","","hand",73,5,"JOL Version A","fix","Study1","U","Study","Study Phase",25,"JOL",5000,"","60","Recall1",6066
"w10099624_hjk","quick","hand",89,5,"JOL Version A","fix","Study1","U","Study","Study Phase",31,"JOL",5008,"","35","Recall1",5306
"W10107879-wra","Repair","hand",58,5,"JOL Version A","fix","Study1","U","Study","Study Phase",32,"JOL",5007,"","40","Recall1",6239
"w10110599","broke","hand",53,5,"JOL Version A","fix","Study1","U","Study","Study Phase",49,"JOL",5002,"","84","Recall1",3906
"w10113200_ems","Hand","hand",72,5,"JOL Version A","fix","Study1","U","Study","Study Phase",17,"JOL",5013,"","90","Recall1",5241
"w10117888","Correct ","hand",19,5,"JOL Version A","fix","Study1","U","Study","Study Phase",80,"JOL",5012,"","1","Recall1",7032
"w10123216","hand","hand",16,5,"JOL Version A","fix","Study1","U","Study","Study Phase",22,"JOL",5002,"","35","Recall1",3758
"w843029_SD","hand","hand",73,5,"JOL Version A","fix","Study1","U","Study","Study Phase",51,"JOL",5006,"","100","Recall1",21922
"w881414_BAC","Help","hand",49,5,"JOL Version A","fix","Study1","U","Study","Study Phase",53,"JOL",5006,"","43","Recall1",5328
"W8i4325_SMcM","car","hand",38,5,"JOL Version A","fix","Study1","U","Study","Study Phase",43,"JOL",5009,"","50","Recall1",19630
"w10050706","","enough",53,5,"JOL Version A","full","Study1","B","Study","Study Phase",40,"JOL",5001,"","40","Recall1",1679
"w10099624_hjk","big","enough",72,5,"JOL Version A","full","Study1","B","Study","Study Phase",17,"JOL",5006,"","75","Recall1",38983
"W10107879-wra","Enough","enough",61,5,"JOL Version A","full","Study1","B","Study","Study Phase",34,"JOL",5005,"","60","Recall1",5161
"w10110599","sentence","enough",42,5,"JOL Version A","full","Study1","B","Study","Study Phase",31,"JOL",5002,"","86","Recall1",2533
"w10113200_ems","","enough",33,5,"JOL Version A","full","Study1","B","Study","Study Phase",50,"JOL",5011,"","50","Recall1",1358
"w10117888","Complete ","enough",84,5,"JOL Version A","full","Study1","B","Study","Study Phase",81,"JOL",5012,"","67","Recall1",19136
"w10123216","enough","enough",83,5,"JOL Version A","full","Study1","B","Study","Study Phase",29,"JOL",5002,"","78","Recall1",5112
"w843029_SD","enough","enough",23,5,"JOL Version A","full","Study1","B","Study","Study Phase",32,"JOL",5003,"","100","Recall1",6369
"w881414_BAC","Hungry","enough",29,5,"JOL Version A","full","Study1","B","Study","Study Phase",28,"JOL",5005,"","70","Recall1",4681
"W8i4325_SMcM","empty","enough",51,5,"JOL Version A","full","Study1","B","Study","Study Phase",34,"JOL",5002,"","75","Recall1",14786
"w10050706","","rock",32,5,"JOL Version A","geology","Study1","F","Study","Study Phase",39,"JOL",5001,"","30","Recall1",2406
"w10099624_hjk","rock","rock",32,5,"JOL Version A","geology","Study1","F","Study","Study Phase",78,"JOL",5006,"","100","Recall1",2373
"W10107879-wra","Rock","rock",40,5,"JOL Version A","geology","Study1","F","Study","Study Phase",28,"JOL",5006,"","80","Recall1",4709
"w10110599","rock","rock",41,5,"JOL Version A","geology","Study1","F","Study","Study Phase",30,"JOL",5003,"","64","Recall1",1995
"w10113200_ems","","rock",22,5,"JOL Version A","geology","Study1","F","Study","Study Phase",70,"JOL",5007,"","10","Recall1",2704
"w10117888","Rock","rock",23,5,"JOL Version A","geology","Study1","F","Study","Study Phase",21,"JOL",5002,"","88","Recall1",3066
"w10123216","rock","rock",86,5,"JOL Version A","geology","Study1","F","Study","Study Phase",64,"JOL",5003,"","60","Recall1",3199
"w843029_SD","rock","rock",15,5,"JOL Version A","geology","Study1","F","Study","Study Phase",34,"JOL",5006,"","100","Recall1",4847
"w881414_BAC","WOrld","rock",37,5,"JOL Version A","geology","Study1","F","Study","Study Phase",9,"JOL",5011,"","61","Recall1",2994
"W8i4325_SMcM","rock","rock",62,5,"JOL Version A","geology","Study1","F","Study","Study Phase",70,"JOL",5002,"","100","Recall1",6567
"w10050706","fantastic","fantastic",15,5,"JOL Version A","great","Study1","B","Study","Study Phase",38,"JOL",5001,"","0","Recall1",11421
"w10099624_hjk","bad","fantastic",28,5,"JOL Version A","great","Study1","B","Study","Study Phase",57,"JOL",5007,"","74","Recall1",6187
"W10107879-wra","Fantastic","fantastic",69,5,"JOL Version A","great","Study1","B","Study","Study Phase",12,"JOL",5006,"","65","Recall1",6946
"w10110599","good","fantastic",82,5,"JOL Version A","great","Study1","B","Study","Study Phase",51,"JOL",5002,"","54","Recall1",2569
"w10113200_ems","Fantastic","fantastic",41,5,"JOL Version A","great","Study1","B","Study","Study Phase",80,"JOL",5027,"","100","Recall1",18561
"w10117888","Awesome ","fantastic",22,5,"JOL Version A","great","Study1","B","Study","Study Phase",70,"JOL",5002,"","3","Recall1",7074
"w10123216","fantastic","fantastic",31,5,"JOL Version A","great","Study1","B","Study","Study Phase",27,"JOL",5002,"","60","Recall1",3993
"w843029_SD","fantastic","fantastic",50,5,"JOL Version A","great","Study1","B","Study","Study Phase",26,"JOL",5005,"","100","Recall1",20235
"w881414_BAC","Debate","fantastic",17,5,"JOL Version A","great","Study1","B","Study","Study Phase",36,"JOL",5005,"","86","Recall1",3626
"W8i4325_SMcM","awesome","fantastic",53,5,"JOL Version A","great","Study1","B","Study","Study Phase",80,"JOL",5004,"","100","Recall1",14667
"w10050706","food","bar",66,5,"JOL Version A","grill","Study1","S","Study","Study Phase",16,"JOL",5001,"","40","Recall1",2775
"w10099624_hjk","bar","bar",18,5,"JOL Version A","grill","Study1","S","Study","Study Phase",47,"JOL",5005,"","55","Recall1",5284
"W10107879-wra","Bar","bar",22,5,"JOL Version A","grill","Study1","S","Study","Study Phase",41,"JOL",5004,"","50","Recall1",5903
"w10110599","brick","bar",37,5,"JOL Version A","grill","Study1","S","Study","Study Phase",70,"JOL",5003,"","75","Recall1",8680
"w10113200_ems","","bar",86,5,"JOL Version A","grill","Study1","S","Study","Study Phase",77,"JOL",5014,"","100","Recall1",2085
"w10117888","Bar","bar",31,5,"JOL Version A","grill","Study1","S","Study","Study Phase",36,"JOL",5013,"","70","Recall1",3133
"w10123216","bar","bar",57,5,"JOL Version A","grill","Study1","S","Study","Study Phase",34,"JOL",5001,"","50","Recall1",1893
"w843029_SD","bar","bar",78,5,"JOL Version A","grill","Study1","S","Study","Study Phase",25,"JOL",5003,"","100","Recall1",3150
"w881414_BAC","Oven","bar",47,5,"JOL Version A","grill","Study1","S","Study","Study Phase",21,"JOL",5004,"","45","Recall1",2877
"W8i4325_SMcM","bar","bar",20,5,"JOL Version A","grill","Study1","S","Study","Study Phase",10,"JOL",5008,"","75","Recall1",5476
"w10050706","sad","car",22,5,"JOL Version A","happy","Study1","U","Study","Study Phase",43,"JOL",5001,"","0","Recall1",2244
"w10099624_hjk","delighted","car",86,5,"JOL Version A","happy","Study1","U","Study","Study Phase",73,"JOL",5016,"","6","Recall1",15684
"W10107879-wra","","car",80,5,"JOL Version A","happy","Study1","U","Study","Study Phase",55,"JOL",5005,"","40","Recall1",3889
"w10110599","sad","car",22,5,"JOL Version A","happy","Study1","U","Study","Study Phase",76,"JOL",5004,"","53","Recall1",1675
"w10113200_ems","Car","car",62,5,"JOL Version A","happy","Study1","U","Study","Study Phase",59,"JOL",5010,"","30","Recall1",5824
"w10117888","Sad","car",59,5,"JOL Version A","happy","Study1","U","Study","Study Phase",66,"JOL",5002,"","12","Recall1",4477
"w10123216","","car",43,5,"JOL Version A","happy","Study1","U","Study","Study Phase",49,"JOL",5002,"","20","Recall1",5363
"w843029_SD","sad","car",55,5,"JOL Version A","happy","Study1","U","Study","Study Phase",14,"JOL",5002,"","0","Recall1",12432
"w881414_BAC","Sad","car",50,5,"JOL Version A","happy","Study1","U","Study","Study Phase",74,"JOL",5004,"","42","Recall1",2355
"W8i4325_SMcM","cute","car",63,5,"JOL Version A","happy","Study1","U","Study","Study Phase",55,"JOL",5003,"","10","Recall1",12027
"w10050706","weight","growth",63,5,"JOL Version A","height","Study1","B","Study","Study Phase",17,"JOL",5001,"","50","Recall1",2746
"w10099624_hjk","growth","growth",48,5,"JOL Version A","height","Study1","B","Study","Study Phase",29,"JOL",5012,"","96","Recall1",2328
"W10107879-wra","Legnth","growth",57,5,"JOL Version A","height","Study1","B","Study","Study Phase",78,"JOL",5005,"","65","Recall1",12476
"w10110599","weight","growth",59,5,"JOL Version A","height","Study1","B","Study","Study Phase",21,"JOL",5003,"","64","Recall1",2052
"w10113200_ems","Growth","growth",53,5,"JOL Version A","height","Study1","B","Study","Study Phase",62,"JOL",5014,"","100","Recall1",5554
"w10117888","Growth","growth",72,5,"JOL Version A","height","Study1","B","Study","Study Phase",20,"JOL",5001,"","81","Recall1",5607
"w10123216","growth","growth",77,5,"JOL Version A","height","Study1","B","Study","Study Phase",55,"JOL",5002,"","66","Recall1",2754
"w843029_SD","growth","growth",35,5,"JOL Version A","height","Study1","B","Study","Study Phase",71,"JOL",5003,"","100","Recall1",16390
"w881414_BAC","Tall","growth",31,5,"JOL Version A","height","Study1","B","Study","Study Phase",32,"JOL",5002,"","66","Recall1",4550
"W8i4325_SMcM","weight","growth",77,5,"JOL Version A","height","Study1","B","Study","Study Phase",31,"JOL",5003,"","25","Recall1",12120
"w10050706","","cow",24,5,"JOL Version A","herd","Study1","F","Study","Study Phase",20,"JOL",5001,"","0","Recall1",3955
"w10099624_hjk","cow","cow",52,5,"JOL Version A","herd","Study1","F","Study","Study Phase",16,"JOL",5006,"","100","Recall1",1858
"W10107879-wra","Cows","cow",46,5,"JOL Version A","herd","Study1","F","Study","Study Phase",59,"JOL",5008,"","66","Recall1",3750
"w10110599","cow","cow",27,5,"JOL Version A","herd","Study1","F","Study","Study Phase",82,"JOL",5002,"","89","Recall1",1657
"w10113200_ems","","cow",88,5,"JOL Version A","herd","Study1","F","Study","Study Phase",79,"JOL",5014,"","10","Recall1",1576
"w10117888","Sheep","cow",21,5,"JOL Version A","herd","Study1","F","Study","Study Phase",56,"JOL",5002,"","3","Recall1",4470
"w10123216","cow","cow",69,5,"JOL Version A","herd","Study1","F","Study","Study Phase",69,"JOL",5002,"","89","Recall1",1962
"w843029_SD","cow","cow",34,5,"JOL Version A","herd","Study1","F","Study","Study Phase",16,"JOL",5003,"","100","Recall1",2457
"w881414_BAC","Sheep","cow",54,5,"JOL Version A","herd","Study1","F","Study","Study Phase",46,"JOL",5007,"","38","Recall1",2397
"W8i4325_SMcM","cow","cow",73,5,"JOL Version A","herd","Study1","F","Study","Study Phase",38,"JOL",5003,"","50","Recall1",4408
"w10050706","seek","sick",12,5,"JOL Version A","hide","Study1","U","Study","Study Phase",47,"JOL",5001,"","10","Recall1",2899
"w10099624_hjk","scared","sick",65,5,"JOL Version A","hide","Study1","U","Study","Study Phase",80,"JOL",5006,"","0","Recall1",4689
"W10107879-wra","","sick",84,5,"JOL Version A","hide","Study1","U","Study","Study Phase",19,"JOL",5004,"","45","Recall1",16149
"w10110599","seek","sick",39,5,"JOL Version A","hide","Study1","U","Study","Study Phase",23,"JOL",5003,"","67","Recall1",1620
"w10113200_ems","","sick",64,5,"JOL Version A","hide","Study1","U","Study","Study Phase",12,"JOL",5014,"","10","Recall1",2196
"w10117888","Seek","sick",18,5,"JOL Version A","hide","Study1","U","Study","Study Phase",26,"JOL",5002,"","1","Recall1",8884
"w10123216","scare","sick",48,5,"JOL Version A","hide","Study1","U","Study","Study Phase",24,"JOL",5002,"","20","Recall1",10485
"w843029_SD","seek","sick",71,5,"JOL Version A","hide","Study1","U","Study","Study Phase",80,"JOL",5003,"","40","Recall1",14021
"w881414_BAC","Seek","sick",80,5,"JOL Version A","hide","Study1","U","Study","Study Phase",30,"JOL",5004,"","12","Recall1",2094
"W8i4325_SMcM","cave","sick",12,5,"JOL Version A","hide","Study1","U","Study","Study Phase",74,"JOL",5007,"","0","Recall1",17033
"w10050706","bun","bee",68,5,"JOL Version A","honey","Study1","S","Study","Study Phase",12,"JOL",5001,"","20","Recall1",2583
"w10099624_hjk","bee","bee",75,5,"JOL Version A","honey","Study1","S","Study","Study Phase",59,"JOL",5015,"","85","Recall1",3688
"W10107879-wra","Bee","bee",90,5,"JOL Version A","honey","Study1","S","Study","Study Phase",50,"JOL",5007,"","75","Recall1",3490
"w10110599","bee","bee",90,5,"JOL Version A","honey","Study1","S","Study","Study Phase",16,"JOL",5002,"","67","Recall1",1405
"w10113200_ems","Bee","bee",21,5,"JOL Version A","honey","Study1","S","Study","Study Phase",43,"JOL",5012,"","100","Recall1",2827
"w10117888","Bee","bee",78,5,"JOL Version A","honey","Study1","S","Study","Study Phase",11,"JOL",5002,"","99.9999","Recall1",2899
"w10123216","bee","bee",21,5,"JOL Version A","honey","Study1","S","Study","Study Phase",47,"JOL",5001,"","100","Recall1",3933
"w843029_SD","bee","bee",20,5,"JOL Version A","honey","Study1","S","Study","Study Phase",72,"JOL",5003,"","100","Recall1",2812
"w881414_BAC","Bees","bee",81,5,"JOL Version A","honey","Study1","S","Study","Study Phase",29,"JOL",5003,"","11","Recall1",2571
"W8i4325_SMcM","bee","bee",16,5,"JOL Version A","honey","Study1","S","Study","Study Phase",48,"JOL",5003,"","100","Recall1",4578
"w10050706","wasp","sting",84,5,"JOL Version A","hornet","Study1","F","Study","Study Phase",61,"JOL",5001,"","40","Recall1",2704
"w10099624_hjk","sting","sting",49,5,"JOL Version A","hornet","Study1","F","Study","Study Phase",15,"JOL",5013,"","89","Recall1",5938
"W10107879-wra","Sting","sting",85,5,"JOL Version A","hornet","Study1","F","Study","Study Phase",61,"JOL",5006,"","75","Recall1",4392
"w10110599","sting ","sting",64,5,"JOL Version A","hornet","Study1","F","Study","Study Phase",47,"JOL",5004,"","56","Recall1",3311
"w10113200_ems","","sting",90,5,"JOL Version A","hornet","Study1","F","Study","Study Phase",38,"JOL",5011,"","0","Recall1",1558
"w10117888","Sting","sting",74,5,"JOL Version A","hornet","Study1","F","Study","Study Phase",82,"JOL",5002,"","80","Recall1",4405
"w10123216","sting","sting",27,5,"JOL Version A","hornet","Study1","F","Study","Study Phase",58,"JOL",5001,"","80","Recall1",3753
"w843029_SD","sting","sting",62,5,"JOL Version A","hornet","Study1","F","Study","Study Phase",84,"JOL",5004,"","100","Recall1",5169
"w881414_BAC","Game","sting",72,5,"JOL Version A","hornet","Study1","F","Study","Study Phase",59,"JOL",5005,"","20","Recall1",2820
"W8i4325_SMcM","nest","sting",22,5,"JOL Version A","hornet","Study1","F","Study","Study Phase",18,"JOL",5004,"","50","Recall1",11046
"w10050706","cold","chili",13,5,"JOL Version A","hot","Study1","B","Study","Study Phase",35,"JOL",5002,"","45","Recall1",2588
"w10099624_hjk","blaze","chili",36,5,"JOL Version A","hot","Study1","B","Study","Study Phase",56,"JOL",5006,"","73","Recall1",8616
"W10107879-wra","Cold","chili",68,5,"JOL Version A","hot","Study1","B","Study","Study Phase",39,"JOL",5007,"","65","Recall1",4885
"w10110599","cold","chili",66,5,"JOL Version A","hot","Study1","B","Study","Study Phase",62,"JOL",5001,"","68","Recall1",1933
"w10113200_ems","Chili","chili",68,5,"JOL Version A","hot","Study1","B","Study","Study Phase",29,"JOL",5018,"","100","Recall1",4894
"w10117888","Cold","chili",52,5,"JOL Version A","hot","Study1","B","Study","Study Phase",27,"JOL",5001,"","89","Recall1",3278
"w10123216","fire","chili",72,5,"JOL Version A","hot","Study1","B","Study","Study Phase",37,"JOL",5002,"","50","Recall1",8694
"w843029_SD","chili","chili",46,5,"JOL Version A","hot","Study1","B","Study","Study Phase",69,"JOL",5004,"","100","Recall1",4331
"w881414_BAC","Cold","chili",35,5,"JOL Version A","hot","Study1","B","Study","Study Phase",8,"JOL",5006,"","63","Recall1",2406
"W8i4325_SMcM","cold","chili",55,5,"JOL Version A","hot","Study1","B","Study","Study Phase",17,"JOL",5004,"","100","Recall1",10759
"w10050706","food","famine",50,5,"JOL Version A","hunger","Study1","B","Study","Study Phase",64,"JOL",5001,"","0","Recall1",11112
"w10099624_hjk","famished","famine",39,5,"JOL Version A","hunger","Study1","B","Study","Study Phase",74,"JOL",5007,"","45","Recall1",3486
"W10107879-wra","Diet","famine",11,5,"JOL Version A","hunger","Study1","B","Study","Study Phase",79,"JOL",5005,"","60","Recall1",28179
"w10110599","starvation ","famine",55,5,"JOL Version A","hunger","Study1","B","Study","Study Phase",7,"JOL",5001,"","59","Recall1",4241
"w10113200_ems","","famine",76,5,"JOL Version A","hunger","Study1","B","Study","Study Phase",67,"JOL",5012,"","10","Recall1",2366
"w10117888","Food","famine",27,5,"JOL Version A","hunger","Study1","B","Study","Study Phase",79,"JOL",5002,"","88","Recall1",9230
"w10123216","famine","famine",13,5,"JOL Version A","hunger","Study1","B","Study","Study Phase",25,"JOL",5002,"","40","Recall1",2643
"w843029_SD","taste","famine",24,5,"JOL Version A","hunger","Study1","B","Study","Study Phase",27,"JOL",5003,"","40","Recall1",17765
"w881414_BAC","Food","famine",63,5,"JOL Version A","hunger","Study1","B","Study","Study Phase",84,"JOL",5007,"","29","Recall1",2910
"W8i4325_SMcM","food","famine",84,5,"JOL Version A","hunger","Study1","B","Study","Study Phase",25,"JOL",5009,"","95","Recall1",26471
"w10050706","clean","clean",81,5,"JOL Version A","hygiene","Study1","F","Study","Study Phase",68,"JOL",5001,"","50","Recall1",4161
"w10099624_hjk","clean","clean",85,5,"JOL Version A","hygiene","Study1","F","Study","Study Phase",44,"JOL",5007,"","85","Recall1",4379
"W10107879-wra","Clean","clean",42,5,"JOL Version A","hygiene","Study1","F","Study","Study Phase",64,"JOL",5005,"","70","Recall1",9254
"w10110599","clean ","clean",71,5,"JOL Version A","hygiene","Study1","F","Study","Study Phase",71,"JOL",5005,"","75","Recall1",3197
"w10113200_ems","Clean","clean",56,5,"JOL Version A","hygiene","Study1","F","Study","Study Phase",39,"JOL",5014,"","80","Recall1",3858
"w10117888","Shower","clean",81,5,"JOL Version A","hygiene","Study1","F","Study","Study Phase",67,"JOL",5002,"","Hey 77","Recall1",6268
"w10123216","clean","clean",71,5,"JOL Version A","hygiene","Study1","F","Study","Study Phase",45,"JOL",5002,"","90","Recall1",2438
"w843029_SD","clean","clean",16,5,"JOL Version A","hygiene","Study1","F","Study","Study Phase",57,"JOL",5003,"","100","Recall1",10343
"w881414_BAC","","clean",70,5,"JOL Version A","hygiene","Study1","F","Study","Study Phase",35,"JOL",5002,"","22","Recall1",8088
"W8i4325_SMcM","clean","clean",46,5,"JOL Version A","hygiene","Study1","F","Study","Study Phase",30,"JOL",5007,"","100","Recall1",10039
"w10050706","lock","latch",89,5,"JOL Version A","key","Study1","B","Study","Study Phase",24,"JOL",5001,"","15","Recall1",3801
"w10099624_hjk","door","latch",73,5,"JOL Version A","key","Study1","B","Study","Study Phase",30,"JOL",5008,"","41","Recall1",5297
"W10107879-wra","Latch","latch",86,5,"JOL Version A","key","Study1","B","Study","Study Phase",10,"JOL",5005,"","50","Recall1",13706
"w10110599","latch","latch",19,5,"JOL Version A","key","Study1","B","Study","Study Phase",12,"JOL",5002,"","42","Recall1",2126
"w10113200_ems","","latch",16,5,"JOL Version A","key","Study1","B","Study","Study Phase",57,"JOL",5016,"","50","Recall1",1643
"w10117888","Latch","latch",20,5,"JOL Version A","key","Study1","B","Study","Study Phase",48,"JOL",5002,"","60","Recall1",3326
"w10123216","Latch","latch",84,5,"JOL Version A","key","Study1","B","Study","Study Phase",83,"JOL",5002,"","50","Recall1",5115
"w843029_SD","latch","latch",86,5,"JOL Version A","key","Study1","B","Study","Study Phase",48,"JOL",5003,"","25","Recall1",4894
"w881414_BAC","Hole","latch",90,5,"JOL Version A","key","Study1","B","Study","Study Phase",13,"JOL",5007,"","2","Recall1",2851
"W8i4325_SMcM","word","latch",68,5,"JOL Version A","key","Study1","B","Study","Study Phase",61,"JOL",5008,"","100","Recall1",7170
"w10050706","liver","liver",47,5,"JOL Version A","kidney","Study1","S","Study","Study Phase",60,"JOL",5001,"","30","Recall1",3451
"w10099624_hjk","liver","liver",51,5,"JOL Version A","kidney","Study1","S","Study","Study Phase",58,"JOL",5005,"","60","Recall1",4550
"W10107879-wra","Liver","liver",62,5,"JOL Version A","kidney","Study1","S","Study","Study Phase",11,"JOL",5007,"","70","Recall1",3936
"w10110599","stone","liver",25,5,"JOL Version A","kidney","Study1","S","Study","Study Phase",58,"JOL",5001,"","34","Recall1",1906
"w10113200_ems","","liver",20,5,"JOL Version A","kidney","Study1","S","Study","Study Phase",51,"JOL",5010,"","40","Recall1",5540
"w10117888","Liver","liver",45,5,"JOL Version A","kidney","Study1","S","Study","Study Phase",44,"JOL",5004,"","70","Recall1",3602
"w10123216","liver","liver",53,5,"JOL Version A","kidney","Study1","S","Study","Study Phase",63,"JOL",5002,"","80","Recall1",2684
"w843029_SD","liver","liver",33,5,"JOL Version A","kidney","Study1","S","Study","Study Phase",79,"JOL",5003,"","100","Recall1",3180
"w881414_BAC","Stone","liver",85,5,"JOL Version A","kidney","Study1","S","Study","Study Phase",85,"JOL",5004,"","7","Recall1",2177
"W8i4325_SMcM","liver","liver",79,5,"JOL Version A","kidney","Study1","S","Study","Study Phase",22,"JOL",5006,"","95","Recall1",7075
"w10050706","","vase",31,5,"JOL Version A","king","Study1","U","Study","Study Phase",15,"JOL",5001,"","0","Recall1",8704
"w10099624_hjk","rule","vase",90,5,"JOL Version A","king","Study1","U","Study","Study Phase",37,"JOL",5006,"","0","Recall1",5375
"W10107879-wra","Queen","vase",79,5,"JOL Version A","king","Study1","U","Study","Study Phase",76,"JOL",5007,"","30","Recall1",4532
"w10110599","queen","vase",68,5,"JOL Version A","king","Study1","U","Study","Study Phase",59,"JOL",5002,"","67","Recall1",2805
"w10113200_ems","","vase",75,5,"JOL Version A","king","Study1","U","Study","Study Phase",21,"JOL",5013,"",NA,"Recall1",1714
"w10117888","Valley ","vase",44,5,"JOL Version A","king","Study1","U","Study","Study Phase",30,"JOL",5010,"","5","Recall1",7700
"w10123216","","vase",23,5,"JOL Version A","king","Study1","U","Study","Study Phase",78,"JOL",5001,"","30","Recall1",9643
"w843029_SD","queen","vase",44,5,"JOL Version A","king","Study1","U","Study","Study Phase",66,"JOL",5004,"","30","Recall1",9474
"w881414_BAC","Queen","vase",89,5,"JOL Version A","king","Study1","U","Study","Study Phase",67,"JOL",5006,"","3","Recall1",4696
"W8i4325_SMcM","dictator","vase",24,5,"JOL Version A","king","Study1","U","Study","Study Phase",13,"JOL",5003,"","10","Recall1",25180
"w10050706","officer","attorney",61,5,"JOL Version A","law","Study1","B","Study","Study Phase",84,"JOL",5001,"",NA,"Recall1",3660
"w10099624_hjk","attorney","attorney",79,5,"JOL Version A","law","Study1","B","Study","Study Phase",18,"JOL",5006,"","88","Recall1",3067
"W10107879-wra","Attorney ","attorney",24,5,"JOL Version A","law","Study1","B","Study","Study Phase",53,"JOL",5005,"","75","Recall1",6931
"w10110599","abide","attorney",74,5,"JOL Version A","law","Study1","B","Study","Study Phase",32,"JOL",5003,"","75","Recall1",4476
"w10113200_ems","Attechy","attorney",79,5,"JOL Version A","law","Study1","B","Study","Study Phase",55,"JOL",5012,"","10","Recall1",5045
"w10117888","Attorney ","attorney",70,5,"JOL Version A","law","Study1","B","Study","Study Phase",71,"JOL",5001,"","78","Recall1",5046
"w10123216","","attorney",42,5,"JOL Version A","law","Study1","B","Study","Study Phase",26,"JOL",5001,"","80","Recall1",13179
"w843029_SD","attorney","attorney",27,5,"JOL Version A","law","Study1","B","Study","Study Phase",81,"JOL",5008,"","100","Recall1",3207
"w881414_BAC","Lawyer","attorney",38,5,"JOL Version A","law","Study1","B","Study","Study Phase",77,"JOL",5009,"","59","Recall1",3916
"W8i4325_SMcM","sheriff","attorney",58,5,"JOL Version A","law","Study1","B","Study","Study Phase",20,"JOL",5003,"","100","Recall1",11824
"w10050706","salad","salad",40,5,"JOL Version A","lettuce","Study1","S","Study","Study Phase",7,"JOL",5000,"","40","Recall1",3126
"w10099624_hjk","salad","salad",80,5,"JOL Version A","lettuce","Study1","S","Study","Study Phase",76,"JOL",5010,"","92","Recall1",2443
"W10107879-wra","Salade","salad",25,5,"JOL Version A","lettuce","Study1","S","Study","Study Phase",35,"JOL",5008,"","80","Recall1",4591
"w10110599","salad","salad",86,5,"JOL Version A","lettuce","Study1","S","Study","Study Phase",77,"JOL",5001,"","53","Recall1",2542
"w10113200_ems","Salad","salad",35,5,"JOL Version A","lettuce","Study1","S","Study","Study Phase",40,"JOL",5011,"","100","Recall1",4688
"w10117888","Salad","salad",33,5,"JOL Version A","lettuce","Study1","S","Study","Study Phase",29,"JOL",5012,"","90","Recall1",4732
"w10123216","salad","salad",88,5,"JOL Version A","lettuce","Study1","S","Study","Study Phase",85,"JOL",5001,"","90","Recall1",2662
"w843029_SD","salad","salad",77,5,"JOL Version A","lettuce","Study1","S","Study","Study Phase",28,"JOL",5010,"","100","Recall1",5763
"w881414_BAC","Salad","salad",58,5,"JOL Version A","lettuce","Study1","S","Study","Study Phase",16,"JOL",5004,"","34","Recall1",3435
"W8i4325_SMcM","salad","salad",43,5,"JOL Version A","lettuce","Study1","S","Study","Study Phase",21,"JOL",5005,"","90","Recall1",5063
"w10050706","","woman",34,5,"JOL Version A","lift","Study1","U","Study","Study Phase",63,"JOL",5001,"","0","Recall1",2708
"w10099624_hjk","woman","woman",13,5,"JOL Version A","lift","Study1","U","Study","Study Phase",28,"JOL",5009,"","20","Recall1",3257
"W10107879-wra","Up","woman",60,5,"JOL Version A","lift","Study1","U","Study","Study Phase",51,"JOL",5005,"","55","Recall1",9690
"w10110599","woman","woman",83,5,"JOL Version A","lift","Study1","U","Study","Study Phase",34,"JOL",5002,"","64","Recall1",2260
"w10113200_ems","","woman",30,5,"JOL Version A","lift","Study1","U","Study","Study Phase",73,"JOL",5008,"","40","Recall1",1279
"w10117888","Carry","woman",35,5,"JOL Version A","lift","Study1","U","Study","Study Phase",63,"JOL",5001,"","Hey 40","Recall1",5486
"w10123216","woman","woman",87,5,"JOL Version A","lift","Study1","U","Study","Study Phase",82,"JOL",5002,"","30","Recall1",2891
"w843029_SD","woman","woman",52,5,"JOL Version A","lift","Study1","U","Study","Study Phase",67,"JOL",5004,"","60","Recall1",6570
"w881414_BAC","Weight","woman",78,5,"JOL Version A","lift","Study1","U","Study","Study Phase",52,"JOL",5007,"","14","Recall1",5581
"W8i4325_SMcM","woman","woman",27,5,"JOL Version A","lift","Study1","U","Study","Study Phase",60,"JOL",5003,"","5","Recall1",17670
"w10050706","find","site",69,5,"JOL Version A","location","Study1","S","Study","Study Phase",66,"JOL",5001,"","0","Recall1",6497
"w10099624_hjk","","site",56,5,"JOL Version A","location","Study1","S","Study","Study Phase",51,"JOL",5006,"","73","Recall1",5855
"W10107879-wra","Place","site",39,5,"JOL Version A","location","Study1","S","Study","Study Phase",74,"JOL",5007,"","60","Recall1",4462
"w10110599","spot","site",32,5,"JOL Version A","location","Study1","S","Study","Study Phase",27,"JOL",5008,"","97","Recall1",2464
"w10113200_ems","Site","site",12,5,"JOL Version A","location","Study1","S","Study","Study Phase",46,"JOL",5012,"","90","Recall1",4666
"w10117888","Map","site",61,5,"JOL Version A","location","Study1","S","Study","Study Phase",60,"JOL",5001,"","79","Recall1",4433
"w10123216","site","site",60,5,"JOL Version A","location","Study1","S","Study","Study Phase",13,"JOL",5001,"","75","Recall1",2643
"w843029_SD","site","site",36,5,"JOL Version A","location","Study1","S","Study","Study Phase",77,"JOL",5002,"","100","Recall1",21054
"w881414_BAC","State","site",43,5,"JOL Version A","location","Study1","S","Study","Study Phase",76,"JOL",5004,"","49","Recall1",4073
"W8i4325_SMcM","place","site",33,5,"JOL Version A","location","Study1","S","Study","Study Phase",62,"JOL",5003,"","50","Recall1",28595
"w10050706","gun","position",42,5,"JOL Version A","machine","Study1","U","Study","Study Phase",51,"JOL",5001,"","0","Recall1",3033
"w10099624_hjk","gun","position",23,5,"JOL Version A","machine","Study1","U","Study","Study Phase",45,"JOL",5010,"","5","Recall1",5148
"W10107879-wra","Placement","position",33,5,"JOL Version A","machine","Study1","U","Study","Study Phase",18,"JOL",5009,"","30","Recall1",9029
"w10110599","gun","position",40,5,"JOL Version A","machine","Study1","U","Study","Study Phase",80,"JOL",5002,"","57","Recall1",2677
"w10113200_ems","","position",78,5,"JOL Version A","machine","Study1","U","Study","Study Phase",34,"JOL",5015,"","20","Recall1",2370
"w10117888","Gun","position",48,5,"JOL Version A","machine","Study1","U","Study","Study Phase",53,"JOL",5002,"","","Recall1",4790
"w10123216","location","position",62,5,"JOL Version A","machine","Study1","U","Study","Study Phase",43,"JOL",5002,"","10","Recall1",4571
"w843029_SD","work","position",38,5,"JOL Version A","machine","Study1","U","Study","Study Phase",38,"JOL",5010,"","0","Recall1",18125
"w881414_BAC","Ride","position",73,5,"JOL Version A","machine","Study1","U","Study","Study Phase",33,"JOL",5010,"","19","Recall1",4289
"W8i4325_SMcM","gun","position",42,5,"JOL Version A","machine","Study1","U","Study","Study Phase",9,"JOL",5005,"","10","Recall1",26599
"w10050706","division","division",82,5,"JOL Version A","math","Study1","B","Study","Study Phase",56,"JOL",5001,"","45","Recall1",5378
"w10099624_hjk","divison","division",31,5,"JOL Version A","math","Study1","B","Study","Study Phase",64,"JOL",5008,"","72","Recall1",5918
"W10107879-wra","Division","division",54,5,"JOL Version A","math","Study1","B","Study","Study Phase",25,"JOL",5008,"","60","Recall1",5889
"w10110599","bad","division",58,5,"JOL Version A","math","Study1","B","Study","Study Phase",40,"JOL",5002,"","79","Recall1",2015
"w10113200_ems","Division","division",31,5,"JOL Version A","math","Study1","B","Study","Study Phase",83,"JOL",5009,"","80","Recall1",5255
"w10117888","Division ","division",56,5,"JOL Version A","math","Study1","B","Study","Study Phase",33,"JOL",5001,"","97","Recall1",6388
"w10123216","division","division",78,5,"JOL Version A","math","Study1","B","Study","Study Phase",36,"JOL",5001,"","67","Recall1",6513
"w843029_SD","division","division",69,5,"JOL Version A","math","Study1","B","Study","Study Phase",73,"JOL",5003,"","100","Recall1",23372
"w881414_BAC","Solve","division",86,5,"JOL Version A","math","Study1","B","Study","Study Phase",45,"JOL",5005,"","6","Recall1",2539
"W8i4325_SMcM","division","division",47,5,"JOL Version A","math","Study1","B","Study","Study Phase",46,"JOL",5010,"","100","Recall1",32895
"w10050706","definition","definition",86,5,"JOL Version A","meaning","Study1","S","Study","Study Phase",36,"JOL",5000,"","40","Recall1",6024
"w10099624_hjk","definition","definition",68,5,"JOL Version A","meaning","Study1","S","Study","Study Phase",63,"JOL",5005,"","84","Recall1",3187
"W10107879-wra","","definition",43,5,"JOL Version A","meaning","Study1","S","Study","Study Phase",56,"JOL",5011,"","70","Recall1",3252
"w10110599","sentence ","definition",87,5,"JOL Version A","meaning","Study1","S","Study","Study Phase",14,"JOL",5001,"","74","Recall1",4140
"w10113200_ems","Definition","definition",11,5,"JOL Version A","meaning","Study1","S","Study","Study Phase",13,"JOL",5009,"","100","Recall1",5180
"w10117888","Definition ","definition",57,5,"JOL Version A","meaning","Study1","S","Study","Study Phase",7,"JOL",5002,"","91","Recall1",9526
"w10123216","definition","definition",12,5,"JOL Version A","meaning","Study1","S","Study","Study Phase",12,"JOL",5002,"","70","Recall1",4960
"w843029_SD","definition","definition",89,5,"JOL Version A","meaning","Study1","S","Study","Study Phase",53,"JOL",5002,"","35","Recall1",8388
"w881414_BAC","Word","definition",56,5,"JOL Version A","meaning","Study1","S","Study","Study Phase",70,"JOL",5004,"","36","Recall1",3107
"W8i4325_SMcM","definition","definition",90,5,"JOL Version A","meaning","Study1","S","Study","Study Phase",67,"JOL",5006,"","50","Recall1",15493
"w10050706","","amount",36,5,"JOL Version A","number","Study1","S","Study","Study Phase",65,"JOL",5001,"","65","Recall1",3788
"w10099624_hjk","math","amount",61,5,"JOL Version A","number","Study1","S","Study","Study Phase",67,"JOL",5006,"","59","Recall1",6381
"W10107879-wra","","amount",87,5,"JOL Version A","number","Study1","S","Study","Study Phase",70,"JOL",5005,"","65","Recall1",10874
"w10110599","phone ","amount",70,5,"JOL Version A","number","Study1","S","Study","Study Phase",19,"JOL",5001,"","86","Recall1",4022
"w10113200_ems","","amount",23,5,"JOL Version A","number","Study1","S","Study","Study Phase",65,"JOL",5011,"","90","Recall1",15717
"w10117888","Count","amount",63,5,"JOL Version A","number","Study1","S","Study","Study Phase",52,"JOL",5001,"","85","Recall1",4612
"w10123216","amount","amount",44,5,"JOL Version A","number","Study1","S","Study","Study Phase",81,"JOL",5002,"","50","Recall1",9472
"w843029_SD","amount","amount",65,5,"JOL Version A","number","Study1","S","Study","Study Phase",9,"JOL",5003,"","100","Recall1",6941
"w881414_BAC","One","amount",57,5,"JOL Version A","number","Study1","S","Study","Study Phase",69,"JOL",5005,"","35","Recall1",3613
"W8i4325_SMcM","amount","amount",74,5,"JOL Version A","number","Study1","S","Study","Study Phase",16,"JOL",5005,"","50","Recall1",8665
"w10050706","flower","flower",64,5,"JOL Version A","orchid","Study1","F","Study","Study Phase",21,"JOL",5002,"","0","Recall1",3900
"w10099624_hjk","flower","flower",20,5,"JOL Version A","orchid","Study1","F","Study","Study Phase",14,"JOL",5008,"","25","Recall1",11465
"W10107879-wra","Flower","flower",55,5,"JOL Version A","orchid","Study1","F","Study","Study Phase",38,"JOL",5004,"","70","Recall1",4175
"w10110599","flower","flower",88,5,"JOL Version A","orchid","Study1","F","Study","Study Phase",81,"JOL",5002,"","75","Recall1",2333
"w10113200_ems","","flower",15,5,"JOL Version A","orchid","Study1","F","Study","Study Phase",22,"JOL",5011,"","90","Recall1",1872
"w10117888","Flower","flower",88,5,"JOL Version A","orchid","Study1","F","Study","Study Phase",31,"JOL",5001,"","80","Recall1",3967
"w10123216","flower","flower",18,5,"JOL Version A","orchid","Study1","F","Study","Study Phase",68,"JOL",5003,"","80","Recall1",2825
"w843029_SD","flower","flower",82,5,"JOL Version A","orchid","Study1","F","Study","Study Phase",65,"JOL",5003,"","100","Recall1",2820
"w881414_BAC","Grapes","flower",68,5,"JOL Version A","orchid","Study1","F","Study","Study Phase",64,"JOL",5003,"","24","Recall1",6247
"W8i4325_SMcM","flower","flower",25,5,"JOL Version A","orchid","Study1","F","Study","Study Phase",7,"JOL",5010,"","100","Recall1",5862
"w10050706","place","hungry",33,5,"JOL Version A","park","Study1","U","Study","Study Phase",10,"JOL",5001,"","0","Recall1",6525
"w10099624_hjk","Car","hungry",25,5,"JOL Version A","park","Study1","U","Study","Study Phase",7,"JOL",5015,"","6","Recall1",5456
"W10107879-wra","","hungry",82,5,"JOL Version A","park","Study1","U","Study","Study Phase",68,"JOL",5006,"","20","Recall1",4684
"w10110599","swing","hungry",15,5,"JOL Version A","park","Study1","U","Study","Study Phase",67,"JOL",5002,"",NA,"Recall1",2644
"w10113200_ems","","hungry",69,5,"JOL Version A","park","Study1","U","Study","Study Phase",86,"JOL",5013,"","30","Recall1",5288
"w10117888","Car","hungry",16,5,"JOL Version A","park","Study1","U","Study","Study Phase",83,"JOL",5002,"","20","Recall1",5110
"w10123216","","hungry",64,5,"JOL Version A","park","Study1","U","Study","Study Phase",7,"JOL",5002,"","5","Recall1",5725
"w843029_SD","hungry","hungry",43,5,"JOL Version A","park","Study1","U","Study","Study Phase",76,"JOL",5004,"","60","Recall1",22468
"w881414_BAC","Children","hungry",22,5,"JOL Version A","park","Study1","U","Study","Study Phase",75,"JOL",5004,"","80","Recall1",3537
"W8i4325_SMcM","ball","hungry",40,5,"JOL Version A","park","Study1","U","Study","Study Phase",73,"JOL",5002,"","30","Recall1",12980
"w10050706","future","future",16,5,"JOL Version A","past","Study1","S","Study","Study Phase",27,"JOL",5001,"","80","Recall1",4453
"w10099624_hjk","future","future",77,5,"JOL Version A","past","Study1","S","Study","Study Phase",26,"JOL",5007,"","77","Recall1",2349
"W10107879-wra","Future","future",37,5,"JOL Version A","past","Study1","S","Study","Study Phase",63,"JOL",5008,"","95","Recall1",5128
"w10110599","future ","future",77,5,"JOL Version A","past","Study1","S","Study","Study Phase",29,"JOL",5007,"","86","Recall1",2512
"w10113200_ems","Future","future",66,5,"JOL Version A","past","Study1","S","Study","Study Phase",74,"JOL",5013,"","90","Recall1",4383
"w10117888","Present ","future",15,5,"JOL Version A","past","Study1","S","Study","Study Phase",62,"JOL",5002,"","90","Recall1",7083
"w10123216","future","future",54,5,"JOL Version A","past","Study1","S","Study","Study Phase",15,"JOL",5002,"","95","Recall1",8118
"w843029_SD","future","future",79,5,"JOL Version A","past","Study1","S","Study","Study Phase",60,"JOL",5004,"","100","Recall1",5944
"w881414_BAC","Due","future",46,5,"JOL Version A","past","Study1","S","Study","Study Phase",72,"JOL",5004,"","46","Recall1",5102
"W8i4325_SMcM","present","future",64,5,"JOL Version A","past","Study1","S","Study","Study Phase",11,"JOL",5003,"","75","Recall1",7039
"w10050706","dog","dog",11,5,"JOL Version A","paw","Study1","F","Study","Study Phase",34,"JOL",5000,"","65","Recall1",2556
"w10099624_hjk","dog","dog",71,5,"JOL Version A","paw","Study1","F","Study","Study Phase",49,"JOL",5007,"","96","Recall1",1994
"W10107879-wra","Dog","dog",75,5,"JOL Version A","paw","Study1","F","Study","Study Phase",45,"JOL",5008,"","75","Recall1",4825
"w10110599","dog","dog",84,5,"JOL Version A","paw","Study1","F","Study","Study Phase",60,"JOL",5002,"","76","Recall1",2445
"w10113200_ems","Dog","dog",58,5,"JOL Version A","paw","Study1","F","Study","Study Phase",10,"JOL",5013,"","80","Recall1",8773
"w10117888","Dog","dog",50,5,"JOL Version A","paw","Study1","F","Study","Study Phase",32,"JOL",5001,"","Hey 99","Recall1",3013
"w10123216","dog","dog",36,5,"JOL Version A","paw","Study1","F","Study","Study Phase",59,"JOL",5001,"","99","Recall1",2557
"w843029_SD","dog","dog",26,5,"JOL Version A","paw","Study1","F","Study","Study Phase",62,"JOL",5003,"","100","Recall1",3048
"w881414_BAC","DOg","dog",11,5,"JOL Version A","paw","Study1","F","Study","Study Phase",86,"JOL",5003,"","89","Recall1",1935
"W8i4325_SMcM","dog","dog",61,5,"JOL Version A","paw","Study1","F","Study","Study Phase",78,"JOL",5002,"","100","Recall1",4293
"w10050706","crash","pilot",25,5,"JOL Version A","plane","Study1","B","Study","Study Phase",81,"JOL",5001,"","10","Recall1",7302
"w10099624_hjk","pilot","pilot",67,5,"JOL Version A","plane","Study1","B","Study","Study Phase",40,"JOL",5007,"","94","Recall1",7012
"W10107879-wra","","pilot",34,5,"JOL Version A","plane","Study1","B","Study","Study Phase",73,"JOL",5004,"","70","Recall1",3998
"w10110599","air","pilot",35,5,"JOL Version A","plane","Study1","B","Study","Study Phase",72,"JOL",5002,"","53","Recall1",2436
"w10113200_ems","Pilot","pilot",19,5,"JOL Version A","plane","Study1","B","Study","Study Phase",52,"JOL",5013,"","100","Recall1",4548
"w10117888","Pilot ","pilot",47,5,"JOL Version A","plane","Study1","B","Study","Study Phase",55,"JOL",5002,"","89","Recall1",9718
"w10123216","pilot","pilot",49,5,"JOL Version A","plane","Study1","B","Study","Study Phase",23,"JOL",5002,"","100","Recall1",2277
"w843029_SD","pilot","pilot",19,5,"JOL Version A","plane","Study1","B","Study","Study Phase",39,"JOL",5003,"","100","Recall1",3117
"w881414_BAC","Pilot","pilot",75,5,"JOL Version A","plane","Study1","B","Study","Study Phase",63,"JOL",5005,"","17","Recall1",2650
"W8i4325_SMcM","pilot","pilot",45,5,"JOL Version A","plane","Study1","B","Study","Study Phase",40,"JOL",5007,"","100","Recall1",9740
"w10050706","soda","soda",23,5,"JOL Version A","pop","Study1","S","Study","Study Phase",79,"JOL",5001,"","85","Recall1",5014
"w10099624_hjk","soda","soda",24,5,"JOL Version A","pop","Study1","S","Study","Study Phase",71,"JOL",5005,"","87","Recall1",1941
"W10107879-wra","Soda","soda",28,5,"JOL Version A","pop","Study1","S","Study","Study Phase",72,"JOL",5013,"","85","Recall1",4239
"w10110599","loud","soda",73,5,"JOL Version A","pop","Study1","S","Study","Study Phase",83,"JOL",5002,"","67","Recall1",4819
"w10113200_ems","","soda",25,5,"JOL Version A","pop","Study1","S","Study","Study Phase",41,"JOL",5012,"","70","Recall1",3442
"w10117888","Soda","soda",64,5,"JOL Version A","pop","Study1","S","Study","Study Phase",50,"JOL",5002,"","90","Recall1",3089
"w10123216","soda","soda",35,5,"JOL Version A","pop","Study1","S","Study","Study Phase",86,"JOL",5001,"","90","Recall1",2049
"w843029_SD","soda","soda",72,5,"JOL Version A","pop","Study1","S","Study","Study Phase",83,"JOL",5004,"","100","Recall1",2846
"w881414_BAC","Quiz","soda",61,5,"JOL Version A","pop","Study1","S","Study","Study Phase",80,"JOL",5005,"","31","Recall1",2213
"W8i4325_SMcM","up","soda",13,5,"JOL Version A","pop","Study1","S","Study","Study Phase",75,"JOL",5006,"","95","Recall1",11805
"w10050706","","clutter",37,5,"JOL Version A","pusher","Study1","U","Study","Study Phase",23,"JOL",5002,"","0","Recall1",1479
"w10099624_hjk","sacking","clutter",69,5,"JOL Version A","pusher","Study1","U","Study","Study Phase",32,"JOL",5015,"","4","Recall1",5462
"W10107879-wra","","clutter",21,5,"JOL Version A","pusher","Study1","U","Study","Study Phase",33,"JOL",5007,"","45","Recall1",4145
"w10110599","pull","clutter",38,5,"JOL Version A","pusher","Study1","U","Study","Study Phase",79,"JOL",5002,"","54","Recall1",4498
"w10113200_ems","","clutter",70,5,"JOL Version A","pusher","Study1","U","Study","Study Phase",49,"JOL",5014,"","10","Recall1",1095
"w10117888","Shove ","clutter",68,5,"JOL Version A","pusher","Study1","U","Study","Study Phase",25,"JOL",5003,"","3","Recall1",13195
"w10123216","clutter","clutter",68,5,"JOL Version A","pusher","Study1","U","Study","Study Phase",39,"JOL",5002,"","3","Recall1",3746
"w843029_SD","clutter","clutter",85,5,"JOL Version A","pusher","Study1","U","Study","Study Phase",22,"JOL",5004,"","30","Recall1",26901
"w881414_BAC","Handler","clutter",25,5,"JOL Version A","pusher","Study1","U","Study","Study Phase",39,"JOL",5009,"","77","Recall1",10261
"W8i4325_SMcM","pull","clutter",57,5,"JOL Version A","pusher","Study1","U","Study","Study Phase",29,"JOL",5009,"","10","Recall1",11804
"w10050706","war","war",71,5,"JOL Version A","revolution","Study1","F","Study","Study Phase",86,"JOL",5002,"","40","Recall1",3568
"w10099624_hjk","war","war",74,5,"JOL Version A","revolution","Study1","F","Study","Study Phase",86,"JOL",5007,"","70","Recall1",2604
"W10107879-wra","War","war",48,5,"JOL Version A","revolution","Study1","F","Study","Study Phase",52,"JOL",5008,"","60","Recall1",3557
"w10110599","war","war",49,5,"JOL Version A","revolution","Study1","F","Study","Study Phase",18,"JOL",5001,"","75","Recall1",2057
"w10113200_ems","War","war",51,5,"JOL Version A","revolution","Study1","F","Study","Study Phase",54,"JOL",5011,"","100","Recall1",3196
"w10117888","War","war",32,5,"JOL Version A","revolution","Study1","F","Study","Study Phase",57,"JOL",5001,"","7","Recall1",3029
"w10123216","war","war",81,5,"JOL Version A","revolution","Study1","F","Study","Study Phase",31,"JOL",5002,"","90","Recall1",2100
"w843029_SD","war","war",25,5,"JOL Version A","revolution","Study1","F","Study","Study Phase",31,"JOL",5003,"","60","Recall1",2920
"w881414_BAC","Dance","war",28,5,"JOL Version A","revolution","Study1","F","Study","Study Phase",83,"JOL",5003,"","74","Recall1",3067
"W8i4325_SMcM","war","war",30,5,"JOL Version A","revolution","Study1","F","Study","Study Phase",42,"JOL",5004,"","100","Recall1",5856
"w10050706","plant","plant",88,5,"JOL Version A","root","Study1","F","Study","Study Phase",72,"JOL",5001,"","75","Recall1",3300
"w10099624_hjk","plant","plant",17,5,"JOL Version A","root","Study1","F","Study","Study Phase",62,"JOL",5008,"","50","Recall1",2582
"W10107879-wra","Plant","plant",53,5,"JOL Version A","root","Study1","F","Study","Study Phase",26,"JOL",5005,"","55","Recall1",5222
"w10110599","tree","plant",85,5,"JOL Version A","root","Study1","F","Study","Study Phase",73,"JOL",5000,"","76","Recall1",3279
"w10113200_ems","Plant","plant",13,5,"JOL Version A","root","Study1","F","Study","Study Phase",19,"JOL",5011,"","90","Recall1",3530
"w10117888","Beer","plant",86,5,"JOL Version A","root","Study1","F","Study","Study Phase",38,"JOL",5002,"","5","Recall1",4659
"w10123216","plant","plant",14,5,"JOL Version A","root","Study1","F","Study","Study Phase",19,"JOL",5002,"","95","Recall1",2463
"w843029_SD","plant","plant",74,5,"JOL Version A","root","Study1","F","Study","Study Phase",12,"JOL",5010,"","100","Recall1",3561
"w881414_BAC","Vegetable","plant",30,5,"JOL Version A","root","Study1","F","Study","Study Phase",11,"JOL",5007,"","71","Recall1",6998
"W8i4325_SMcM","plant","plant",86,5,"JOL Version A","root","Study1","F","Study","Study Phase",83,"JOL",5002,"","50","Recall1",6556
"w10050706","","word",58,5,"JOL Version A","sentence","Study1","B","Study","Study Phase",42,"JOL",5001,"","60","Recall1",1321
"w10099624_hjk","word","word",63,5,"JOL Version A","sentence","Study1","B","Study","Study Phase",75,"JOL",5008,"","97","Recall1",8946
"W10107879-wra","Word","word",41,5,"JOL Version A","sentence","Study1","B","Study","Study Phase",24,"JOL",5004,"","75","Recall1",3831
"w10110599","word","word",50,5,"JOL Version A","sentence","Study1","B","Study","Study Phase",17,"JOL",5007,"","79","Recall1",2503
"w10113200_ems","Word","word",36,5,"JOL Version A","sentence","Study1","B","Study","Study Phase",24,"JOL",5012,"","100","Recall1",4204
"w10117888","Word","word",28,5,"JOL Version A","sentence","Study1","B","Study","Study Phase",16,"JOL",5002,"","60","Recall1",3315
"w10123216","word","word",73,5,"JOL Version A","sentence","Study1","B","Study","Study Phase",61,"JOL",5002,"","85","Recall1",2745
"w843029_SD","word","word",42,5,"JOL Version A","sentence","Study1","B","Study","Study Phase",18,"JOL",5003,"","100","Recall1",5140
"w881414_BAC","WOrd","word",44,5,"JOL Version A","sentence","Study1","B","Study","Study Phase",41,"JOL",5004,"","48","Recall1",2338
"W8i4325_SMcM","words","word",56,5,"JOL Version A","sentence","Study1","B","Study","Study Phase",33,"JOL",5009,"","75","Recall1",17168
"w10050706","","foot",30,5,"JOL Version A","shoe","Study1","S","Study","Study Phase",53,"JOL",5003,"","50","Recall1",1465
"w10099624_hjk","foot","foot",19,5,"JOL Version A","shoe","Study1","S","Study","Study Phase",60,"JOL",5006,"","78","Recall1",2893
"W10107879-wra","","foot",30,5,"JOL Version A","shoe","Study1","S","Study","Study Phase",57,"JOL",5004,"","70","Recall1",2849
"w10110599","lace","foot",28,5,"JOL Version A","shoe","Study1","S","Study","Study Phase",85,"JOL",5002,"","87","Recall1",1863
"w10113200_ems","Foot","foot",85,5,"JOL Version A","shoe","Study1","S","Study","Study Phase",84,"JOL",5015,"","80","Recall1",3494
"w10117888","Foot","foot",82,5,"JOL Version A","shoe","Study1","S","Study","Study Phase",10,"JOL",5012,"","88","Recall1",3616
"w10123216","fit","foot",63,5,"JOL Version A","shoe","Study1","S","Study","Study Phase",28,"JOL",5002,"","90","Recall1",5810
"w843029_SD","size","foot",45,5,"JOL Version A","shoe","Study1","S","Study","Study Phase",43,"JOL",5010,"","100","Recall1",3970
"w881414_BAC","Strinf","foot",21,5,"JOL Version A","shoe","Study1","S","Study","Study Phase",12,"JOL",5004,"","81","Recall1",2768
"W8i4325_SMcM","foot","foot",52,5,"JOL Version A","shoe","Study1","S","Study","Study Phase",37,"JOL",5004,"","90","Recall1",14994
"w10050706","wake","drowsy",70,5,"JOL Version A","sleep","Study1","B","Study","Study Phase",69,"JOL",5001,"","80","Recall1",2831
"w10099624_hjk","night","drowsy",82,5,"JOL Version A","sleep","Study1","B","Study","Study Phase",52,"JOL",5013,"","79","Recall1",5346
"W10107879-wra","Drowsy","drowsy",17,5,"JOL Version A","sleep","Study1","B","Study","Study Phase",66,"JOL",5005,"","60","Recall1",10734
"w10110599","over","drowsy",20,5,"JOL Version A","sleep","Study1","B","Study","Study Phase",20,"JOL",5001,"","48","Recall1",8201
"w10113200_ems","","drowsy",27,5,"JOL Version A","sleep","Study1","B","Study","Study Phase",45,"JOL",5014,"","40","Recall1",4411
"w10117888","Drowsy ","drowsy",58,5,"JOL Version A","sleep","Study1","B","Study","Study Phase",17,"JOL",5002,"","80","Recall1",8061
"w10123216","","drowsy",55,5,"JOL Version A","sleep","Study1","B","Study","Study Phase",84,"JOL",5002,"","80","Recall1",3225
"w843029_SD","drowsy","drowsy",76,5,"JOL Version A","sleep","Study1","B","Study","Study Phase",70,"JOL",5003,"","100","Recall1",13880
"w881414_BAC","Kit","drowsy",20,5,"JOL Version A","sleep","Study1","B","Study","Study Phase",60,"JOL",5004,"","82","Recall1",8234
"W8i4325_SMcM","awake","drowsy",21,5,"JOL Version A","sleep","Study1","B","Study","Study Phase",28,"JOL",5005,"","75","Recall1",8262
"w10050706","stench ","stench",52,5,"JOL Version A","smell","Study1","B","Study","Study Phase",31,"JOL",5001,"","60","Recall1",8299
"w10099624_hjk","nose","stench",37,5,"JOL Version A","smell","Study1","B","Study","Study Phase",10,"JOL",5010,"","78","Recall1",10224
"W10107879-wra","Stench","stench",59,5,"JOL Version A","smell","Study1","B","Study","Study Phase",84,"JOL",5005,"","60","Recall1",12373
"w10110599","noise","stench",89,5,"JOL Version A","smell","Study1","B","Study","Study Phase",66,"JOL",5002,"","67","Recall1",2917
"w10113200_ems","Stech","stench",44,5,"JOL Version A","smell","Study1","B","Study","Study Phase",47,"JOL",5013,"","30","Recall1",6314
"w10117888","Taste","stench",30,5,"JOL Version A","smell","Study1","B","Study","Study Phase",61,"JOL",5002,"","70","Recall1",7081
"w10123216","stench","stench",32,5,"JOL Version A","smell","Study1","B","Study","Study Phase",44,"JOL",5002,"","80","Recall1",2603
"w843029_SD","stench","stench",18,5,"JOL Version A","smell","Study1","B","Study","Study Phase",41,"JOL",5004,"","100","Recall1",18094
"w881414_BAC","Bad","stench",69,5,"JOL Version A","smell","Study1","B","Study","Study Phase",61,"JOL",5011,"","23","Recall1",3753
"W8i4325_SMcM","stench","stench",18,5,"JOL Version A","smell","Study1","B","Study","Study Phase",14,"JOL",5005,"","50","Recall1",15630
"w10050706","later","belt",49,5,"JOL Version A","soon","Study1","U","Study","Study Phase",73,"JOL",5000,"",NA,"Recall1",3963
"w10099624_hjk","never","belt",16,5,"JOL Version A","soon","Study1","U","Study","Study Phase",55,"JOL",5006,"","11","Recall1",7525
"W10107879-wra","Later","belt",29,5,"JOL Version A","soon","Study1","U","Study","Study Phase",46,"JOL",5004,"","25","Recall1",5248
"w10110599","late","belt",51,5,"JOL Version A","soon","Study1","U","Study","Study Phase",46,"JOL",5004,"","65","Recall1",2510
"w10113200_ems","Belt","belt",80,5,"JOL Version A","soon","Study1","U","Study","Study Phase",75,"JOL",5013,"","20","Recall1",5203
"w10117888","Later","belt",83,5,"JOL Version A","soon","Study1","U","Study","Study Phase",24,"JOL",5001,"","52","Recall1",5468
"w10123216","","belt",20,5,"JOL Version A","soon","Study1","U","Study","Study Phase",32,"JOL",5002,"","30","Recall1",3048
"w843029_SD","time","belt",75,5,"JOL Version A","soon","Study1","U","Study","Study Phase",40,"JOL",5003,"","0","Recall1",25516
"w881414_BAC","Later","belt",64,5,"JOL Version A","soon","Study1","U","Study","Study Phase",38,"JOL",5007,"","28","Recall1",6127
"W8i4325_SMcM","now","belt",34,5,"JOL Version A","soon","Study1","U","Study","Study Phase",19,"JOL",5004,"","5","Recall1",14173
"w10050706","weak","accident",39,5,"JOL Version A","strong","Study1","U","Study","Study Phase",80,"JOL",5001,"","0","Recall1",4613
"w10099624_hjk","chiseled","accident",15,5,"JOL Version A","strong","Study1","U","Study","Study Phase",33,"JOL",5006,"","12","Recall1",4841
"W10107879-wra","","accident",72,5,"JOL Version A","strong","Study1","U","Study","Study Phase",62,"JOL",5009,"","55","Recall1",7092
"w10110599","weak","accident",14,5,"JOL Version A","strong","Study1","U","Study","Study Phase",54,"JOL",5003,"","57","Recall1",5522
"w10113200_ems","","accident",43,5,"JOL Version A","strong","Study1","U","Study","Study Phase",66,"JOL",5012,"","30","Recall1",14315
"w10117888","Heavy ","accident",37,5,"JOL Version A","strong","Study1","U","Study","Study Phase",8,"JOL",5007,"","70","Recall1",6511
"w10123216","","accident",65,5,"JOL Version A","strong","Study1","U","Study","Study Phase",20,"JOL",5002,"","5","Recall1",6001
"w843029_SD","weak","accident",64,5,"JOL Version A","strong","Study1","U","Study","Study Phase",36,"JOL",5004,"","0","Recall1",25318
"w881414_BAC","Man","accident",67,5,"JOL Version A","strong","Study1","U","Study","Study Phase",18,"JOL",5005,"","25","Recall1",1959
"W8i4325_SMcM","weak","accident",80,5,"JOL Version A","strong","Study1","U","Study","Study Phase",82,"JOL",5003,"","0","Recall1",17152
"w10050706","","riddle",85,5,"JOL Version A","sugar","Study1","U","Study","Study Phase",26,"JOL",5001,"","1","Recall1",4092
"w10099624_hjk","high","riddle",22,5,"JOL Version A","sugar","Study1","U","Study","Study Phase",42,"JOL",5009,"","0","Recall1",6458
"W10107879-wra","","riddle",50,5,"JOL Version A","sugar","Study1","U","Study","Study Phase",20,"JOL",5005,"","20","Recall1",7651
"w10110599","swet","riddle",11,5,"JOL Version A","sugar","Study1","U","Study","Study Phase",84,"JOL",5003,"","13","Recall1",2441
"w10113200_ems","","riddle",55,5,"JOL Version A","sugar","Study1","U","Study","Study Phase",69,"JOL",5013,"","20","Recall1",6416
"w10117888","Sweet ","riddle",67,5,"JOL Version A","sugar","Study1","U","Study","Study Phase",15,"JOL",5002,"","71","Recall1",7361
"w10123216","","riddle",58,5,"JOL Version A","sugar","Study1","U","Study","Study Phase",76,"JOL",5001,"","5","Recall1",5659
"w843029_SD","riddle","riddle",87,5,"JOL Version A","sugar","Study1","U","Study","Study Phase",24,"JOL",5009,"","10","Recall1",8440
"w881414_BAC","SPice","riddle",51,5,"JOL Version A","sugar","Study1","U","Study","Study Phase",68,"JOL",5010,"","41","Recall1",3869
"W8i4325_SMcM","sweet","riddle",75,5,"JOL Version A","sugar","Study1","U","Study","Study Phase",65,"JOL",5004,"","0","Recall1",17285
"w10050706","bird","bird",54,5,"JOL Version A","swan","Study1","F","Study","Study Phase",28,"JOL",5001,"","20","Recall1",3157
"w10099624_hjk","bird","bird",70,5,"JOL Version A","swan","Study1","F","Study","Study Phase",61,"JOL",5006,"","58","Recall1",3297
"W10107879-wra","Bird ","bird",35,5,"JOL Version A","swan","Study1","F","Study","Study Phase",43,"JOL",5005,"","75","Recall1",5307
"w10110599","bird","bird",57,5,"JOL Version A","swan","Study1","F","Study","Study Phase",45,"JOL",5002,"","82","Recall1",1765
"w10113200_ems","Bird","bird",81,5,"JOL Version A","swan","Study1","F","Study","Study Phase",42,"JOL",5013,"","40","Recall1",6247
"w10117888","Bird","bird",89,5,"JOL Version A","swan","Study1","F","Study","Study Phase",49,"JOL",5002,"","7","Recall1",3315
"w10123216","bird","bird",24,5,"JOL Version A","swan","Study1","F","Study","Study Phase",51,"JOL",5002,"","80","Recall1",4055
"w843029_SD","bird","bird",67,5,"JOL Version A","swan","Study1","F","Study","Study Phase",44,"JOL",5003,"","100","Recall1",3858
"w881414_BAC","Geese","bird",16,5,"JOL Version A","swan","Study1","F","Study","Study Phase",44,"JOL",5004,"","22","Recall1",5027
"W8i4325_SMcM","bird","bird",85,5,"JOL Version A","swan","Study1","F","Study","Study Phase",77,"JOL",5011,"","50","Recall1",8128
"w10050706","","seize",51,5,"JOL Version A","take","Study1","B","Study","Study Phase",48,"JOL",5001,"","0","Recall1",14777
"w10099624_hjk","out","seize",66,5,"JOL Version A","take","Study1","B","Study","Study Phase",54,"JOL",5012,"","81","Recall1",3618
"W10107879-wra","Away","seize",20,5,"JOL Version A","take","Study1","B","Study","Study Phase",27,"JOL",5005,"","65","Recall1",5574
"w10110599","give","seize",69,5,"JOL Version A","take","Study1","B","Study","Study Phase",75,"JOL",5003,"","54","Recall1",1768
"w10113200_ems","","seize",29,5,"JOL Version A","take","Study1","B","Study","Study Phase",30,"JOL",5012,"",NA,"Recall1",1486
"w10117888","Give","seize",87,5,"JOL Version A","take","Study1","B","Study","Study Phase",34,"JOL",5013,"","61","Recall1",3880
"w10123216","give","seize",17,5,"JOL Version A","take","Study1","B","Study","Study Phase",66,"JOL",5001,"","55","Recall1",5056
"w843029_SD","seize","seize",48,5,"JOL Version A","take","Study1","B","Study","Study Phase",68,"JOL",5003,"","100","Recall1",30347
"w881414_BAC","Give","seize",83,5,"JOL Version A","take","Study1","B","Study","Study Phase",58,"JOL",5007,"","9","Recall1",3655
"W8i4325_SMcM","out","seize",26,5,"JOL Version A","take","Study1","B","Study","Study Phase",44,"JOL",5009,"","10","Recall1",6461
"w10050706","jury","jury",44,5,"JOL Version A","trial","Study1","S","Study","Study Phase",13,"JOL",5001,"","90","Recall1",4528
"w10099624_hjk","jury","jury",57,5,"JOL Version A","trial","Study1","S","Study","Study Phase",82,"JOL",5006,"","99","Recall1",3702
"W10107879-wra","Jury","jury",12,5,"JOL Version A","trial","Study1","S","Study","Study Phase",42,"JOL",5007,"","75","Recall1",7115
"w10110599","law","jury",29,5,"JOL Version A","trial","Study1","S","Study","Study Phase",41,"JOL",5002,"","65","Recall1",3631
"w10113200_ems","","jury",67,5,"JOL Version A","trial","Study1","S","Study","Study Phase",61,"JOL",5013,"","20","Recall1",1244
"w10117888","Mix ","jury",14,5,"JOL Version A","trial","Study1","S","Study","Study Phase",59,"JOL",5002,"","70","Recall1",4797
"w10123216","jury","jury",47,5,"JOL Version A","trial","Study1","S","Study","Study Phase",72,"JOL",5001,"","90","Recall1",2360
"w843029_SD","jury","jury",58,5,"JOL Version A","trial","Study1","S","Study","Study Phase",10,"JOL",5003,"","100","Recall1",2908
"w881414_BAC","Court","jury",14,5,"JOL Version A","trial","Study1","S","Study","Study Phase",48,"JOL",5003,"","60","Recall1",2723
"W8i4325_SMcM","error","jury",76,5,"JOL Version A","trial","Study1","S","Study","Study Phase",68,"JOL",5005,"","75","Recall1",23914
"w10050706","fish","fish",59,5,"JOL Version A","tuna","Study1","F","Study","Study Phase",19,"JOL",5000,"","80","Recall1",4820
"w10099624_hjk","fish","fish",55,5,"JOL Version A","tuna","Study1","F","Study","Study Phase",53,"JOL",5007,"","100","Recall1",2339
"W10107879-wra","Fish","fish",15,5,"JOL Version A","tuna","Study1","F","Study","Study Phase",67,"JOL",5005,"","85","Recall1",3858
"w10110599","fish","fish",52,5,"JOL Version A","tuna","Study1","F","Study","Study Phase",9,"JOL",5002,"","89","Recall1",1795
"w10113200_ems","Fish","fish",61,5,"JOL Version A","tuna","Study1","F","Study","Study Phase",15,"JOL",5013,"","100","Recall1",3672
"w10117888","Fish","fish",71,5,"JOL Version A","tuna","Study1","F","Study","Study Phase",28,"JOL",5011,"","98","Recall1",3106
"w10123216","fish","fish",41,5,"JOL Version A","tuna","Study1","F","Study","Study Phase",42,"JOL",5001,"","100","Recall1",2194
"w843029_SD","fish","fish",21,5,"JOL Version A","tuna","Study1","F","Study","Study Phase",82,"JOL",5011,"","100","Recall1",2646
"w881414_BAC","Fish","fish",41,5,"JOL Version A","tuna","Study1","F","Study","Study Phase",37,"JOL",5004,"","55","Recall1",1984
"W8i4325_SMcM","fish","fish",82,5,"JOL Version A","tuna","Study1","F","Study","Study Phase",32,"JOL",5004,"","100","Recall1",4943
"w10050706","dark","add",90,5,"JOL Version A","valley","Study1","U","Study","Study Phase",54,"JOL",5003,"","0","Recall1",2956
"w10099624_hjk","land","add",83,5,"JOL Version A","valley","Study1","U","Study","Study Phase",85,"JOL",5005,"","3","Recall1",4080
"W10107879-wra","","add",89,5,"JOL Version A","valley","Study1","U","Study","Study Phase",37,"JOL",5007,"","25","Recall1",6920
"w10110599","ranch","add",78,5,"JOL Version A","valley","Study1","U","Study","Study Phase",22,"JOL",5003,"","32","Recall1",4318
"w10113200_ems","","add",34,5,"JOL Version A","valley","Study1","U","Study","Study Phase",53,"JOL",5013,"","30","Recall1",1307
"w10117888","Rain","add",46,5,"JOL Version A","valley","Study1","U","Study","Study Phase",13,"JOL",5002,"","3","Recall1",9870
"w10123216","peak","add",45,5,"JOL Version A","valley","Study1","U","Study","Study Phase",40,"JOL",5001,"","10","Recall1",6463
"w843029_SD","rock","add",12,5,"JOL Version A","valley","Study1","U","Study","Study Phase",15,"JOL",5004,"","20","Recall1",27640
"w881414_BAC","Hill","add",59,5,"JOL Version A","valley","Study1","U","Study","Study Phase",50,"JOL",5004,"","33","Recall1",3250
"W8i4325_SMcM","hill","add",65,5,"JOL Version A","valley","Study1","U","Study","Study Phase",53,"JOL",5009,"","10","Recall1",10662
"w10050706","work","money",19,5,"JOL Version A","wage","Study1","F","Study","Study Phase",11,"JOL",5001,"","10","Recall1",9456
