"Username","Response.Response.1","Stimuli.Answer","Trial","Condition.Number","Condition.Description","Stimuli.Cue","Stimuli.Shuffle","Stimuli.Stimuli.Notes","Procedure.Trial.Type","Procedure.Shuffle","Response.RT","Response.Response","Procedure.Shuffle.1","Response.RT.1"
"10079569MO","","tuck",65,1,"Read Version A","allow","Study1","U","Study","Study Phase",8005,"","Recall1",3155
"kw781666","let","tuck",59,1,"Read Version A","allow","Study1","U","Study","Study Phase",8012,"","Recall1",3322
"w10026256_hc","","tuck",24,1,"Read Version A","allow","Study1","U","Study","Study Phase",8003,"","Recall1",1301
"w10029079_mjm","no","tuck",14,1,"Read Version A","allow","Study1","U","Study","Study Phase",8002,"","Recall1",11174
"w10065796_sjb","","tuck",67,1,"Read Version A","allow","Study1","U","Study","Study Phase",8001,"","Recall1",1464
"w10074365_jbk","work","tuck",28,1,"Read Version A","allow","Study1","U","Study","Study Phase",8008,"","Recall1",20275
"w10079083bdd","deny","tuck",28,1,"Read Version A","allow","Study1","U","Study","Study Phase",8004,"","Recall1",2753
"w10096664_jer","","tuck",31,1,"Read Version A","allow","Study1","U","Study","Study Phase",8011,"","Recall1",3626
"w10100015_cgs","NO","tuck",24,1,"Read Version A","allow","Study1","U","Study","Study Phase",8002,"","Recall1",1950
"w10106710BL","","tuck",38,1,"Read Version A","allow","Study1","U","Study","Study Phase",8003,"","Recall1",2971
"w10107871LD","enter","tuck",51,1,"Read Version A","allow","Study1","U","Study","Study Phase",8009,"","Recall1",4437
"w10112492ke","decline","tuck",36,1,"Read Version A","allow","Study1","U","Study","Study Phase",8012,"","Recall1",6637
"w10112505","","tuck",29,1,"Read Version A","allow","Study1","U","Study","Study Phase",8008,"","Recall1",3222
"w10123816_lac","parent","tuck",12,1,"Read Version A","allow","Study1","U","Study","Study Phase",8004,"","Recall1",26489
"W10129411_WB","tuck","tuck",47,1,"Read Version A","allow","Study1","U","Study","Study Phase",8000,"","Recall1",6844
"10079569MO","design","design",9,1,"Read Version A","architecture","Study1","S","Study","Study Phase",8001,"","Recall1",3628
"kw781666","design","design",47,1,"Read Version A","architecture","Study1","S","Study","Study Phase",8007,"","Recall1",4611
"w10026256_hc","building","design",64,1,"Read Version A","architecture","Study1","S","Study","Study Phase",8003,"","Recall1",4642
"w10029079_mjm","building","design",46,1,"Read Version A","architecture","Study1","S","Study","Study Phase",8003,"","Recall1",2994
"w10065796_sjb","build","design",21,1,"Read Version A","architecture","Study1","S","Study","Study Phase",8001,"","Recall1",6978
"w10074365_jbk","design","design",29,1,"Read Version A","architecture","Study1","S","Study","Study Phase",8003,"","Recall1",3540
"w10079083bdd","design","design",65,1,"Read Version A","architecture","Study1","S","Study","Study Phase",8002,"","Recall1",3436
"w10096664_jer","House","design",81,1,"Read Version A","architecture","Study1","S","Study","Study Phase",8007,"","Recall1",4469
"w10100015_cgs","BUILDING","design",53,1,"Read Version A","architecture","Study1","S","Study","Study Phase",8002,"","Recall1",2800
"w10106710BL","building","design",16,1,"Read Version A","architecture","Study1","S","Study","Study Phase",8004,"","Recall1",3137
"w10107871LD","men","design",78,1,"Read Version A","architecture","Study1","S","Study","Study Phase",8006,"","Recall1",4044
"w10112492ke","design","design",73,1,"Read Version A","architecture","Study1","S","Study","Study Phase",8005,"","Recall1",11905
"w10112505","building","design",77,1,"Read Version A","architecture","Study1","S","Study","Study Phase",8011,"","Recall1",3309
"w10123816_lac","art","design",38,1,"Read Version A","architecture","Study1","S","Study","Study Phase",8011,"","Recall1",3440
"W10129411_WB","Design","design",39,1,"Read Version A","architecture","Study1","S","Study","Study Phase",8000,"","Recall1",12778
"10079569MO","work","lion",72,1,"Read Version A","art","Study1","U","Study","Study Phase",8003,"","Recall1",5392
"kw781666","craft","lion",48,1,"Read Version A","art","Study1","U","Study","Study Phase",8009,"","Recall1",3704
"w10026256_hc","picasso","lion",45,1,"Read Version A","art","Study1","U","Study","Study Phase",8001,"","Recall1",4881
"w10029079_mjm","decore","lion",20,1,"Read Version A","art","Study1","U","Study","Study Phase",8004,"","Recall1",2431
"w10065796_sjb","picture","lion",76,1,"Read Version A","art","Study1","U","Study","Study Phase",8002,"","Recall1",3913
"w10074365_jbk","paint","lion",73,1,"Read Version A","art","Study1","U","Study","Study Phase",8003,"","Recall1",5226
"w10079083bdd","museum","lion",59,1,"Read Version A","art","Study1","U","Study","Study Phase",8002,"","Recall1",5678
"w10096664_jer","Picture","lion",87,1,"Read Version A","art","Study1","U","Study","Study Phase",8008,"","Recall1",6305
"w10100015_cgs","IFACT","lion",43,1,"Read Version A","art","Study1","U","Study","Study Phase",8001,"","Recall1",3340
"w10106710BL","","lion",73,1,"Read Version A","art","Study1","U","Study","Study Phase",8005,"","Recall1",2400
"w10107871LD","lion","lion",15,1,"Read Version A","art","Study1","U","Study","Study Phase",8007,"","Recall1",12494
"w10112492ke","","lion",20,1,"Read Version A","art","Study1","U","Study","Study Phase",8005,"","Recall1",2276
"w10112505","work","lion",85,1,"Read Version A","art","Study1","U","Study","Study Phase",8003,"","Recall1",3321
"w10123816_lac","painting","lion",63,1,"Read Version A","art","Study1","U","Study","Study Phase",8005,"","Recall1",9770
"W10129411_WB","Lion","lion",10,1,"Read Version A","art","Study1","U","Study","Study Phase",8001,"","Recall1",9250
"10079569MO","","bronze",12,1,"Read Version A","artery","Study1","U","Study","Study Phase",8005,"","Recall1",5131
"kw781666","weapon","bronze",39,1,"Read Version A","artery","Study1","U","Study","Study Phase",8006,"","Recall1",23606
"w10026256_hc","vein","bronze",51,1,"Read Version A","artery","Study1","U","Study","Study Phase",8001,"","Recall1",2717
"w10029079_mjm","medical","bronze",53,1,"Read Version A","artery","Study1","U","Study","Study Phase",8003,"","Recall1",4062
"w10065796_sjb","heart","bronze",66,1,"Read Version A","artery","Study1","U","Study","Study Phase",8001,"","Recall1",3807
"w10074365_jbk","bronze","bronze",25,1,"Read Version A","artery","Study1","U","Study","Study Phase",8003,"","Recall1",4199
"w10079083bdd","","bronze",18,1,"Read Version A","artery","Study1","U","Study","Study Phase",8003,"","Recall1",2920
"w10096664_jer","Doctor ","bronze",52,1,"Read Version A","artery","Study1","U","Study","Study Phase",8009,"","Recall1",9339
"w10100015_cgs","ORGAN","bronze",75,1,"Read Version A","artery","Study1","U","Study","Study Phase",8004,"","Recall1",2020
"w10106710BL","bronze","bronze",23,1,"Read Version A","artery","Study1","U","Study","Study Phase",8004,"","Recall1",10145
"w10107871LD","eat","bronze",10,1,"Read Version A","artery","Study1","U","Study","Study Phase",8027,"","Recall1",4443
"w10112492ke","blood","bronze",77,1,"Read Version A","artery","Study1","U","Study","Study Phase",8004,"","Recall1",8192
"w10112505","throw","bronze",61,1,"Read Version A","artery","Study1","U","Study","Study Phase",8004,"","Recall1",7394
"w10123816_lac","bronze","bronze",65,1,"Read Version A","artery","Study1","U","Study","Study Phase",8012,"","Recall1",4113
"W10129411_WB","Bronze","bronze",40,1,"Read Version A","artery","Study1","U","Study","Study Phase",8000,"","Recall1",3085
"10079569MO","small","child",25,1,"Read Version A","baby","Study1","S","Study","Study Phase",8005,"","Recall1",4062
"kw781666","","child",60,1,"Read Version A","baby","Study1","S","Study","Study Phase",8005,"","Recall1",474
"w10026256_hc","child","child",73,1,"Read Version A","baby","Study1","S","Study","Study Phase",8002,"","Recall1",3408
"w10029079_mjm","infant","child",61,1,"Read Version A","baby","Study1","S","Study","Study Phase",8002,"","Recall1",4538
"w10065796_sjb","doll","child",59,1,"Read Version A","baby","Study1","S","Study","Study Phase",8001,"","Recall1",2663
"w10074365_jbk","child","child",57,1,"Read Version A","baby","Study1","S","Study","Study Phase",8005,"","Recall1",4646
"w10079083bdd","","child",87,1,"Read Version A","baby","Study1","S","Study","Study Phase",8003,"","Recall1",1225
"w10096664_jer","","child",56,1,"Read Version A","baby","Study1","S","Study","Study Phase",8007,"","Recall1",8344
"w10100015_cgs","CHILD","child",66,1,"Read Version A","baby","Study1","S","Study","Study Phase",8002,"","Recall1",2159
"w10106710BL","child","child",70,1,"Read Version A","baby","Study1","S","Study","Study Phase",8007,"","Recall1",2240
"w10107871LD","bottle ","child",11,1,"Read Version A","baby","Study1","S","Study","Study Phase",8011,"","Recall1",7242
"w10112492ke","","child",30,1,"Read Version A","baby","Study1","S","Study","Study Phase",8007,"","Recall1",954
"w10112505","child","child",36,1,"Read Version A","baby","Study1","S","Study","Study Phase",8005,"","Recall1",3040
"w10123816_lac","Cry","child",41,1,"Read Version A","baby","Study1","S","Study","Study Phase",8003,"","Recall1",10710
"W10129411_WB","Child","child",50,1,"Read Version A","baby","Study1","S","Study","Study Phase",8000,"","Recall1",7255
"10079569MO","","racket",81,1,"Read Version A","ball","Study1","B","Study","Study Phase",8005,"","Recall1",1973
"kw781666","","racket",23,1,"Read Version A","ball","Study1","B","Study","Study Phase",8011,"","Recall1",256
"w10026256_hc","circle","racket",67,1,"Read Version A","ball","Study1","B","Study","Study Phase",8001,"","Recall1",5670
"w10029079_mjm","baseball","racket",64,1,"Read Version A","ball","Study1","B","Study","Study Phase",8005,"","Recall1",5782
"w10065796_sjb","bounc","racket",57,1,"Read Version A","ball","Study1","B","Study","Study Phase",8001,"","Recall1",5207
"w10074365_jbk","toss","racket",26,1,"Read Version A","ball","Study1","B","Study","Study Phase",8003,"","Recall1",3633
"w10079083bdd","raquet","racket",12,1,"Read Version A","ball","Study1","B","Study","Study Phase",8003,"","Recall1",4669
"w10096664_jer","Team","racket",83,1,"Read Version A","ball","Study1","B","Study","Study Phase",8008,"","Recall1",5017
"w10100015_cgs","SACK","racket",78,1,"Read Version A","ball","Study1","B","Study","Study Phase",8006,"","Recall1",1566
"w10106710BL","catcher","racket",47,1,"Read Version A","ball","Study1","B","Study","Study Phase",8005,"","Recall1",4949
"w10107871LD","circle","racket",13,1,"Read Version A","ball","Study1","B","Study","Study Phase",8018,"","Recall1",8272
"w10112492ke","racket","racket",48,1,"Read Version A","ball","Study1","B","Study","Study Phase",8008,"","Recall1",27090
"w10112505","circle","racket",50,1,"Read Version A","ball","Study1","B","Study","Study Phase",8005,"","Recall1",3300
"w10123816_lac","catcher","racket",75,1,"Read Version A","ball","Study1","B","Study","Study Phase",8002,"","Recall1",3790
"W10129411_WB","Racket","racket",17,1,"Read Version A","ball","Study1","B","Study","Study Phase",8000,"","Recall1",27519
"10079569MO","toilet","toilet",22,1,"Read Version A","bathroom","Study1","S","Study","Study Phase",8002,"","Recall1",3653
"kw781666","tiolet","toilet",61,1,"Read Version A","bathroom","Study1","S","Study","Study Phase",8006,"","Recall1",3887
"w10026256_hc","pee","toilet",82,1,"Read Version A","bathroom","Study1","S","Study","Study Phase",8001,"","Recall1",5646
"w10029079_mjm","toilet","toilet",65,1,"Read Version A","bathroom","Study1","S","Study","Study Phase",8002,"","Recall1",2354
"w10065796_sjb","sink","toilet",39,1,"Read Version A","bathroom","Study1","S","Study","Study Phase",8003,"","Recall1",2384
"w10074365_jbk","shower","toilet",45,1,"Read Version A","bathroom","Study1","S","Study","Study Phase",8007,"","Recall1",5184
"w10079083bdd","toilet","toilet",86,1,"Read Version A","bathroom","Study1","S","Study","Study Phase",8003,"","Recall1",2843
"w10096664_jer","Floor ","toilet",23,1,"Read Version A","bathroom","Study1","S","Study","Study Phase",8006,"","Recall1",7829
"w10100015_cgs","TOILET","toilet",70,1,"Read Version A","bathroom","Study1","S","Study","Study Phase",8002,"","Recall1",2317
"w10106710BL","toilet","toilet",34,1,"Read Version A","bathroom","Study1","S","Study","Study Phase",8005,"","Recall1",2178
"w10107871LD","toliot","toilet",27,1,"Read Version A","bathroom","Study1","S","Study","Study Phase",8008,"","Recall1",4810
"w10112492ke","toilet","toilet",54,1,"Read Version A","bathroom","Study1","S","Study","Study Phase",8005,"","Recall1",8563
"w10112505","toliet","toilet",35,1,"Read Version A","bathroom","Study1","S","Study","Study Phase",8012,"","Recall1",4142
"w10123816_lac","toilet","toilet",64,1,"Read Version A","bathroom","Study1","S","Study","Study Phase",8002,"","Recall1",5169
"W10129411_WB","Toilet","toilet",23,1,"Read Version A","bathroom","Study1","S","Study","Study Phase",8001,"","Recall1",1917
"10079569MO","end","end",48,1,"Read Version A","begin","Study1","S","Study","Study Phase",8007,"","Recall1",2221
"kw781666","start","end",67,1,"Read Version A","begin","Study1","S","Study","Study Phase",8006,"","Recall1",2800
"w10026256_hc","stop","end",75,1,"Read Version A","begin","Study1","S","Study","Study Phase",8001,"","Recall1",4399
"w10029079_mjm","end","end",78,1,"Read Version A","begin","Study1","S","Study","Study Phase",8002,"","Recall1",1863
"w10065796_sjb","end","end",45,1,"Read Version A","begin","Study1","S","Study","Study Phase",8000,"","Recall1",1470
"w10074365_jbk","start","end",81,1,"Read Version A","begin","Study1","S","Study","Study Phase",8002,"","Recall1",3488
"w10079083bdd","end","end",75,1,"Read Version A","begin","Study1","S","Study","Study Phase",8003,"","Recall1",1480
"w10096664_jer","Start ","end",33,1,"Read Version A","begin","Study1","S","Study","Study Phase",8009,"","Recall1",9544
"w10100015_cgs","END","end",32,1,"Read Version A","begin","Study1","S","Study","Study Phase",8002,"","Recall1",1490
"w10106710BL","end","end",14,1,"Read Version A","begin","Study1","S","Study","Study Phase",8002,"","Recall1",1644
"w10107871LD","new","end",69,1,"Read Version A","begin","Study1","S","Study","Study Phase",8008,"","Recall1",5255
"w10112492ke","end","end",21,1,"Read Version A","begin","Study1","S","Study","Study Phase",8005,"","Recall1",13175
"w10112505","end","end",38,1,"Read Version A","begin","Study1","S","Study","Study Phase",8003,"","Recall1",2378
"w10123816_lac","End","end",30,1,"Read Version A","begin","Study1","S","Study","Study Phase",8002,"","Recall1",3814
"W10129411_WB","End","end",11,1,"Read Version A","begin","Study1","S","Study","Study Phase",8001,"","Recall1",22189
"10079569MO","cold","cold",19,1,"Read Version A","bitter","Study1","F","Study","Study Phase",8006,"","Recall1",5591
"kw781666","cold","cold",19,1,"Read Version A","bitter","Study1","F","Study","Study Phase",8007,"","Recall1",7883
"w10026256_hc","sweet","cold",27,1,"Read Version A","bitter","Study1","F","Study","Study Phase",8001,"","Recall1",3407
"w10029079_mjm","sweet","cold",43,1,"Read Version A","bitter","Study1","F","Study","Study Phase",8002,"","Recall1",6997
"w10065796_sjb","salty","cold",24,1,"Read Version A","bitter","Study1","F","Study","Study Phase",8000,"","Recall1",2997
"w10074365_jbk","cold","cold",51,1,"Read Version A","bitter","Study1","F","Study","Study Phase",8003,"","Recall1",3666
"w10079083bdd","sweet","cold",85,1,"Read Version A","bitter","Study1","F","Study","Study Phase",8002,"","Recall1",3543
"w10096664_jer","Sweet","cold",88,1,"Read Version A","bitter","Study1","F","Study","Study Phase",8007,"","Recall1",7555
"w10100015_cgs","SOUR","cold",40,1,"Read Version A","bitter","Study1","F","Study","Study Phase",8002,"","Recall1",1940
"w10106710BL","sweet","cold",25,1,"Read Version A","bitter","Study1","F","Study","Study Phase",8003,"","Recall1",2830
"w10107871LD","sweet","cold",34,1,"Read Version A","bitter","Study1","F","Study","Study Phase",8007,"","Recall1",4171
"w10112492ke","sweet","cold",12,1,"Read Version A","bitter","Study1","F","Study","Study Phase",8004,"","Recall1",4008
"w10112505","sweet","cold",67,1,"Read Version A","bitter","Study1","F","Study","Study Phase",8005,"","Recall1",13152
"w10123816_lac","cold","cold",42,1,"Read Version A","bitter","Study1","F","Study","Study Phase",8002,"","Recall1",3569
"W10129411_WB","Cold","cold",21,1,"Read Version A","bitter","Study1","F","Study","Study Phase",8000,"","Recall1",2372
"10079569MO","wind","wind",61,1,"Read Version A","blow","Study1","S","Study","Study Phase",8004,"","Recall1",2053
"kw781666","wind","wind",17,1,"Read Version A","blow","Study1","S","Study","Study Phase",8007,"","Recall1",8435
"w10026256_hc","up","wind",48,1,"Read Version A","blow","Study1","S","Study","Study Phase",8001,"","Recall1",2178
"w10029079_mjm","snow","wind",9,1,"Read Version A","blow","Study1","S","Study","Study Phase",8002,"","Recall1",3288
"w10065796_sjb","","wind",15,1,"Read Version A","blow","Study1","S","Study","Study Phase",8002,"","Recall1",1886
"w10074365_jbk","down","wind",32,1,"Read Version A","blow","Study1","S","Study","Study Phase",8005,"","Recall1",4092
"w10079083bdd","","wind",50,1,"Read Version A","blow","Study1","S","Study","Study Phase",8002,"","Recall1",2761
"w10096664_jer","Sneeze ","wind",49,1,"Read Version A","blow","Study1","S","Study","Study Phase",8011,"","Recall1",11492
"w10100015_cgs","MIND","wind",35,1,"Read Version A","blow","Study1","S","Study","Study Phase",8002,"","Recall1",1904
"w10106710BL","wind","wind",58,1,"Read Version A","blow","Study1","S","Study","Study Phase",8005,"","Recall1",1608
"w10107871LD","bubble","wind",54,1,"Read Version A","blow","Study1","S","Study","Study Phase",8028,"","Recall1",6417
"w10112492ke","sneeze","wind",56,1,"Read Version A","blow","Study1","S","Study","Study Phase",8005,"","Recall1",7374
"w10112505","stem","wind",62,1,"Read Version A","blow","Study1","S","Study","Study Phase",8016,"","Recall1",4983
"w10123816_lac","wind","wind",66,1,"Read Version A","blow","Study1","S","Study","Study Phase",8012,"","Recall1",3102
"W10129411_WB","blow","wind",38,1,"Read Version A","blow","Study1","S","Study","Study Phase",8000,"","Recall1",9366
"10079569MO","","water",11,1,"Read Version A","bridge","Study1","F","Study","Study Phase",8000,"","Recall1",1471
"kw781666","gap","water",30,1,"Read Version A","bridge","Study1","F","Study","Study Phase",8007,"","Recall1",4655
"w10026256_hc","water","water",41,1,"Read Version A","bridge","Study1","F","Study","Study Phase",8431,"","Recall1",3938
"w10029079_mjm","road","water",24,1,"Read Version A","bridge","Study1","F","Study","Study Phase",8002,"","Recall1",6733
"w10065796_sjb","walk","water",81,1,"Read Version A","bridge","Study1","F","Study","Study Phase",8000,"","Recall1",2536
"w10074365_jbk","water","water",31,1,"Read Version A","bridge","Study1","F","Study","Study Phase",8003,"","Recall1",3470
"w10079083bdd","river","water",48,1,"Read Version A","bridge","Study1","F","Study","Study Phase",8002,"","Recall1",3047
"w10096664_jer","River","water",19,1,"Read Version A","bridge","Study1","F","Study","Study Phase",8024,"","Recall1",5041
"w10100015_cgs","ROAD","water",63,1,"Read Version A","bridge","Study1","F","Study","Study Phase",8003,"","Recall1",4925
"w10106710BL","water","water",15,1,"Read Version A","bridge","Study1","F","Study","Study Phase",8006,"","Recall1",1629
"w10107871LD","water","water",56,1,"Read Version A","bridge","Study1","F","Study","Study Phase",8024,"","Recall1",4908
"w10112492ke","","water",84,1,"Read Version A","bridge","Study1","F","Study","Study Phase",8004,"","Recall1",8853
"w10112505","burn","water",82,1,"Read Version A","bridge","Study1","F","Study","Study Phase",8004,"","Recall1",4044
"w10123816_lac","water","water",31,1,"Read Version A","bridge","Study1","F","Study","Study Phase",8004,"","Recall1",3588
"W10129411_WB","Water","water",64,1,"Read Version A","bridge","Study1","F","Study","Study Phase",8001,"","Recall1",2324
"10079569MO","wasp","wasp",80,1,"Read Version A","bug","Study1","B","Study","Study Phase",8005,"","Recall1",4012
"kw781666","bite","wasp",86,1,"Read Version A","bug","Study1","B","Study","Study Phase",8008,"","Recall1",9751
"w10026256_hc","fly","wasp",71,1,"Read Version A","bug","Study1","B","Study","Study Phase",8003,"","Recall1",5331
"w10029079_mjm","roach","wasp",74,1,"Read Version A","bug","Study1","B","Study","Study Phase",8002,"","Recall1",2687
"w10065796_sjb","wasp","wasp",41,1,"Read Version A","bug","Study1","B","Study","Study Phase",8001,"","Recall1",4483
"w10074365_jbk","insect","wasp",55,1,"Read Version A","bug","Study1","B","Study","Study Phase",8003,"","Recall1",4239
"w10079083bdd","wasp","wasp",14,1,"Read Version A","bug","Study1","B","Study","Study Phase",8005,"","Recall1",8176
"w10096664_jer","Wasp ","wasp",12,1,"Read Version A","bug","Study1","B","Study","Study Phase",8010,"","Recall1",6402
"w10100015_cgs","BAILEY","wasp",28,1,"Read Version A","bug","Study1","B","Study","Study Phase",8001,"","Recall1",2956
"w10106710BL","insect","wasp",63,1,"Read Version A","bug","Study1","B","Study","Study Phase",8010,"","Recall1",2850
"w10107871LD","grasshopper ","wasp",16,1,"Read Version A","bug","Study1","B","Study","Study Phase",8013,"","Recall1",17688
"w10112492ke","ant","wasp",70,1,"Read Version A","bug","Study1","B","Study","Study Phase",8004,"","Recall1",9121
"w10112505","","wasp",83,1,"Read Version A","bug","Study1","B","Study","Study Phase",8003,"","Recall1",71726
"w10123816_lac","bite","wasp",73,1,"Read Version A","bug","Study1","B","Study","Study Phase",8002,"","Recall1",6181
"W10129411_WB","Wasp","wasp",82,1,"Read Version A","bug","Study1","B","Study","Study Phase",8000,"","Recall1",2181
"10079569MO","money","would",88,1,"Read Version A","cash","Study1","U","Study","Study Phase",8002,"","Recall1",3063
"kw781666","","would",78,1,"Read Version A","cash","Study1","U","Study","Study Phase",8776,"","Recall1",269
"w10026256_hc","wrench","would",60,1,"Read Version A","cash","Study1","U","Study","Study Phase",8003,"","Recall1",3359
"w10029079_mjm","money","would",68,1,"Read Version A","cash","Study1","U","Study","Study Phase",8002,"","Recall1",2131
"w10065796_sjb","back","would",75,1,"Read Version A","cash","Study1","U","Study","Study Phase",8004,"","Recall1",2376
"w10074365_jbk","money","would",9,1,"Read Version A","cash","Study1","U","Study","Study Phase",8009,"","Recall1",3574
"w10079083bdd","","would",34,1,"Read Version A","cash","Study1","U","Study","Study Phase",8003,"","Recall1",2750
"w10096664_jer","Dollar ","would",78,1,"Read Version A","cash","Study1","U","Study","Study Phase",8010,"","Recall1",6410
"w10100015_cgs","MONEY","would",45,1,"Read Version A","cash","Study1","U","Study","Study Phase",8003,"","Recall1",1993
"w10106710BL","money","would",68,1,"Read Version A","cash","Study1","U","Study","Study Phase",8009,"","Recall1",2197
"w10107871LD","job","would",58,1,"Read Version A","cash","Study1","U","Study","Study Phase",8004,"","Recall1",7445
"w10112492ke","money","would",74,1,"Read Version A","cash","Study1","U","Study","Study Phase",8004,"","Recall1",4936
"w10112505","money","would",56,1,"Read Version A","cash","Study1","U","Study","Study Phase",8006,"","Recall1",2389
"w10123816_lac","money","would",53,1,"Read Version A","cash","Study1","U","Study","Study Phase",8002,"","Recall1",3415
"W10129411_WB","Would","would",58,1,"Read Version A","cash","Study1","U","Study","Study Phase",8001,"","Recall1",10577
"10079569MO","stone","hammer",18,1,"Read Version A","chisel","Study1","F","Study","Study Phase",8003,"","Recall1",2884
"kw781666","make","hammer",88,1,"Read Version A","chisel","Study1","F","Study","Study Phase",8698,"","Recall1",11759
"w10026256_hc","hammer","hammer",69,1,"Read Version A","chisel","Study1","F","Study","Study Phase",8001,"","Recall1",6361
"w10029079_mjm","shovel","hammer",86,1,"Read Version A","chisel","Study1","F","Study","Study Phase",8002,"","Recall1",2063
"w10065796_sjb","hammer","hammer",40,1,"Read Version A","chisel","Study1","F","Study","Study Phase",8000,"","Recall1",2733
"w10074365_jbk","carve","hammer",67,1,"Read Version A","chisel","Study1","F","Study","Study Phase",8005,"","Recall1",3645
"w10079083bdd","hammer","hammer",19,1,"Read Version A","chisel","Study1","F","Study","Study Phase",8002,"","Recall1",8902
"w10096664_jer","Tool","hammer",36,1,"Read Version A","chisel","Study1","F","Study","Study Phase",8010,"","Recall1",41251
"w10100015_cgs","BRICK","hammer",11,1,"Read Version A","chisel","Study1","F","Study","Study Phase",8002,"","Recall1",1873
"w10106710BL","hammer","hammer",36,1,"Read Version A","chisel","Study1","F","Study","Study Phase",8002,"","Recall1",2679
"w10107871LD","stick","hammer",86,1,"Read Version A","chisel","Study1","F","Study","Study Phase",8010,"","Recall1",5191
"w10112492ke","","hammer",68,1,"Read Version A","chisel","Study1","F","Study","Study Phase",8004,"","Recall1",17078
"w10112505","","hammer",45,1,"Read Version A","chisel","Study1","F","Study","Study Phase",8004,"","Recall1",1185
"w10123816_lac","chest","hammer",59,1,"Read Version A","chisel","Study1","F","Study","Study Phase",8004,"","Recall1",3393
"W10129411_WB","Hammer","hammer",44,1,"Read Version A","chisel","Study1","F","Study","Study Phase",8000,"","Recall1",2403
"10079569MO","line","round",50,1,"Read Version A","circle","Study1","S","Study","Study Phase",8004,"","Recall1",3808
"kw781666","","round",84,1,"Read Version A","circle","Study1","S","Study","Study Phase",8011,"","Recall1",276
"w10026256_hc","round","round",74,1,"Read Version A","circle","Study1","S","Study","Study Phase",8004,"","Recall1",3980
"w10029079_mjm","sqaur","round",37,1,"Read Version A","circle","Study1","S","Study","Study Phase",8004,"","Recall1",2256
"w10065796_sjb","round","round",27,1,"Read Version A","circle","Study1","S","Study","Study Phase",8001,"","Recall1",2350
"w10074365_jbk","round","round",35,1,"Read Version A","circle","Study1","S","Study","Study Phase",8007,"","Recall1",4472
"w10079083bdd","round","round",58,1,"Read Version A","circle","Study1","S","Study","Study Phase",8002,"","Recall1",2181
"w10096664_jer","Round","round",74,1,"Read Version A","circle","Study1","S","Study","Study Phase",8009,"","Recall1",5825
"w10100015_cgs","ROUND","round",55,1,"Read Version A","circle","Study1","S","Study","Study Phase",8002,"","Recall1",1585
"w10106710BL","round","round",56,1,"Read Version A","circle","Study1","S","Study","Study Phase",8005,"","Recall1",1805
"w10107871LD","ball","round",87,1,"Read Version A","circle","Study1","S","Study","Study Phase",8002,"","Recall1",6113
"w10112492ke","round","round",57,1,"Read Version A","circle","Study1","S","Study","Study Phase",8009,"","Recall1",11627
"w10112505","round","round",9,1,"Read Version A","circle","Study1","S","Study","Study Phase",8013,"","Recall1",1802
"w10123816_lac","around","round",61,1,"Read Version A","circle","Study1","S","Study","Study Phase",8004,"","Recall1",3976
"W10129411_WB","Round","round",32,1,"Read Version A","circle","Study1","S","Study","Study Phase",8001,"","Recall1",2002
"10079569MO","","attire",40,1,"Read Version A","clothes","Study1","B","Study","Study Phase",8005,"","Recall1",3887
"kw781666","shirt","attire",70,1,"Read Version A","clothes","Study1","B","Study","Study Phase",8008,"","Recall1",9978
"w10026256_hc","","attire",86,1,"Read Version A","clothes","Study1","B","Study","Study Phase",8003,"","Recall1",4080
"w10029079_mjm","shoes","attire",12,1,"Read Version A","clothes","Study1","B","Study","Study Phase",8001,"","Recall1",1748
"w10065796_sjb","outfit","attire",82,1,"Read Version A","clothes","Study1","B","Study","Study Phase",8001,"","Recall1",5413
"w10074365_jbk","wash","attire",14,1,"Read Version A","clothes","Study1","B","Study","Study Phase",8003,"","Recall1",4304
"w10079083bdd","","attire",40,1,"Read Version A","clothes","Study1","B","Study","Study Phase",8002,"","Recall1",6153
"w10096664_jer","","attire",40,1,"Read Version A","clothes","Study1","B","Study","Study Phase",8009,"","Recall1",5476
"w10100015_cgs","NO","attire",54,1,"Read Version A","clothes","Study1","B","Study","Study Phase",8004,"","Recall1",1617
"w10106710BL","fashion","attire",85,1,"Read Version A","clothes","Study1","B","Study","Study Phase",8007,"","Recall1",3645
"w10107871LD","money ","attire",9,1,"Read Version A","clothes","Study1","B","Study","Study Phase",8013,"","Recall1",5231
"w10112492ke","shoes","attire",67,1,"Read Version A","clothes","Study1","B","Study","Study Phase",8003,"","Recall1",32881
"w10112505","shirt","attire",48,1,"Read Version A","clothes","Study1","B","Study","Study Phase",8014,"","Recall1",7258
"w10123816_lac","shoe","attire",25,1,"Read Version A","clothes","Study1","B","Study","Study Phase",8002,"","Recall1",15215
"W10129411_WB","Attire","attire",79,1,"Read Version A","clothes","Study1","B","Study","Study Phase",8001,"","Recall1",11399
"10079569MO","card","card",52,1,"Read Version A","credit","Study1","F","Study","Study Phase",8005,"","Recall1",4780
"kw781666","card","card",33,1,"Read Version A","credit","Study1","F","Study","Study Phase",8007,"","Recall1",2817
"w10026256_hc","card","card",12,1,"Read Version A","credit","Study1","F","Study","Study Phase",8001,"","Recall1",2534
"w10029079_mjm","extra","card",22,1,"Read Version A","credit","Study1","F","Study","Study Phase",8002,"","Recall1",2729
"w10065796_sjb","hour","card",84,1,"Read Version A","credit","Study1","F","Study","Study Phase",8001,"","Recall1",3806
"w10074365_jbk","card","card",50,1,"Read Version A","credit","Study1","F","Study","Study Phase",8003,"","Recall1",3208
"w10079083bdd","car","card",88,1,"Read Version A","credit","Study1","F","Study","Study Phase",8003,"","Recall1",1748
"w10096664_jer","","card",72,1,"Read Version A","credit","Study1","F","Study","Study Phase",8012,"","Recall1",9438
"w10100015_cgs","CARD","card",44,1,"Read Version A","credit","Study1","F","Study","Study Phase",8001,"","Recall1",3328
"w10106710BL","card","card",33,1,"Read Version A","credit","Study1","F","Study","Study Phase",8003,"","Recall1",1956
"w10107871LD","card","card",60,1,"Read Version A","credit","Study1","F","Study","Study Phase",8011,"","Recall1",3179
"w10112492ke","card","card",66,1,"Read Version A","credit","Study1","F","Study","Study Phase",8012,"","Recall1",4095
"w10112505","score","card",51,1,"Read Version A","credit","Study1","F","Study","Study Phase",8007,"","Recall1",4480
"w10123816_lac","card","card",86,1,"Read Version A","credit","Study1","F","Study","Study Phase",8004,"","Recall1",3353
"W10129411_WB","Card","card",65,1,"Read Version A","credit","Study1","F","Study","Study Phase",8002,"","Recall1",1989
"10079569MO","cave","cave",71,1,"Read Version A","dark","Study1","B","Study","Study Phase",8002,"","Recall1",3649
"kw781666","","cave",32,1,"Read Version A","dark","Study1","B","Study","Study Phase",8007,"","Recall1",264
"w10026256_hc","light","cave",55,1,"Read Version A","dark","Study1","B","Study","Study Phase",8001,"","Recall1",5321
"w10029079_mjm","light","cave",67,1,"Read Version A","dark","Study1","B","Study","Study Phase",8004,"","Recall1",3372
"w10065796_sjb","day","cave",19,1,"Read Version A","dark","Study1","B","Study","Study Phase",8001,"","Recall1",2665
"w10074365_jbk","moon","cave",22,1,"Read Version A","dark","Study1","B","Study","Study Phase",8003,"","Recall1",7283
"w10079083bdd","","cave",56,1,"Read Version A","dark","Study1","B","Study","Study Phase",8002,"","Recall1",4051
"w10096664_jer","Moon","cave",77,1,"Read Version A","dark","Study1","B","Study","Study Phase",8010,"","Recall1",4158
"w10100015_cgs","LIGHT","cave",56,1,"Read Version A","dark","Study1","B","Study","Study Phase",8005,"","Recall1",1938
"w10106710BL","cave","cave",43,1,"Read Version A","dark","Study1","B","Study","Study Phase",8004,"","Recall1",2217
"w10107871LD","sleep","cave",76,1,"Read Version A","dark","Study1","B","Study","Study Phase",8006,"","Recall1",4017
"w10112492ke","light","cave",10,1,"Read Version A","dark","Study1","B","Study","Study Phase",8014,"","Recall1",2665
"w10112505","light","cave",42,1,"Read Version A","dark","Study1","B","Study","Study Phase",8004,"","Recall1",4273
"w10123816_lac","hide","cave",44,1,"Read Version A","dark","Study1","B","Study","Study Phase",8002,"","Recall1",6572
"W10129411_WB","Cave","cave",63,1,"Read Version A","dark","Study1","B","Study","Study Phase",8000,"","Recall1",5712
"10079569MO","life","business",30,1,"Read Version A","death","Study1","U","Study","Study Phase",8009,"","Recall1",2592
"kw781666","die","business",43,1,"Read Version A","death","Study1","U","Study","Study Phase",8006,"","Recall1",4777
"w10026256_hc","alive","business",65,1,"Read Version A","death","Study1","U","Study","Study Phase",8002,"","Recall1",6591
"w10029079_mjm","sadness","business",32,1,"Read Version A","death","Study1","U","Study","Study Phase",8003,"","Recall1",3089
"w10065796_sjb","","business",70,1,"Read Version A","death","Study1","U","Study","Study Phase",8001,"","Recall1",3286
"w10074365_jbk","life","business",54,1,"Read Version A","death","Study1","U","Study","Study Phase",8003,"","Recall1",4718
"w10079083bdd","business","business",9,1,"Read Version A","death","Study1","U","Study","Study Phase",8003,"","Recall1",4205
"w10096664_jer","","business",47,1,"Read Version A","death","Study1","U","Study","Study Phase",8006,"","Recall1",7367
"w10100015_cgs","DEATH","business",88,1,"Read Version A","death","Study1","U","Study","Study Phase",8003,"","Recall1",1860
"w10106710BL","end","business",29,1,"Read Version A","death","Study1","U","Study","Study Phase",8002,"","Recall1",4967
"w10107871LD","casket ","business",85,1,"Read Version A","death","Study1","U","Study","Study Phase",8010,"","Recall1",6739
"w10112492ke","life","business",45,1,"Read Version A","death","Study1","U","Study","Study Phase",8011,"","Recall1",13156
"w10112505","dead","business",70,1,"Read Version A","death","Study1","U","Study","Study Phase",8009,"","Recall1",2349
"w10123816_lac","Business","business",11,1,"Read Version A","death","Study1","U","Study","Study Phase",8014,"","Recall1",6919
"W10129411_WB","Business","business",81,1,"Read Version A","death","Study1","U","Study","Study Phase",8001,"","Recall1",7194
"10079569MO","talk","sight",44,1,"Read Version A","debate","Study1","U","Study","Study Phase",8002,"","Recall1",5815
"kw781666","","sight",18,1,"Read Version A","debate","Study1","U","Study","Study Phase",8005,"","Recall1",180
"w10026256_hc","talk","sight",66,1,"Read Version A","debate","Study1","U","Study","Study Phase",8001,"","Recall1",2899
"w10029079_mjm","talk","sight",42,1,"Read Version A","debate","Study1","U","Study","Study Phase",8003,"","Recall1",2052
"w10065796_sjb","discussion","sight",74,1,"Read Version A","debate","Study1","U","Study","Study Phase",8000,"","Recall1",8515
"w10074365_jbk","sight","sight",42,1,"Read Version A","debate","Study1","U","Study","Study Phase",8006,"","Recall1",5861
"w10079083bdd","trial","sight",84,1,"Read Version A","debate","Study1","U","Study","Study Phase",8003,"","Recall1",2647
"w10096664_jer","Judge","sight",26,1,"Read Version A","debate","Study1","U","Study","Study Phase",8009,"","Recall1",5363
"w10100015_cgs","CLASS","sight",69,1,"Read Version A","debate","Study1","U","Study","Study Phase",8002,"","Recall1",2904
"w10106710BL","","sight",21,1,"Read Version A","debate","Study1","U","Study","Study Phase",8003,"","Recall1",10337
"w10107871LD","argue","sight",63,1,"Read Version A","debate","Study1","U","Study","Study Phase",8022,"","Recall1",3970
"w10112492ke","argue","sight",31,1,"Read Version A","debate","Study1","U","Study","Study Phase",8009,"","Recall1",10497
"w10112505","aruge","sight",39,1,"Read Version A","debate","Study1","U","Study","Study Phase",8006,"","Recall1",2409
"w10123816_lac","sight","sight",13,1,"Read Version A","debate","Study1","U","Study","Study Phase",8002,"","Recall1",8693
"W10129411_WB","Sight'","sight",18,1,"Read Version A","debate","Study1","U","Study","Study Phase",8001,"","Recall1",6982
"10079569MO","bad","bad",63,1,"Read Version A","delinquent","Study1","F","Study","Study Phase",8001,"","Recall1",4869
"kw781666","bad","bad",71,1,"Read Version A","delinquent","Study1","F","Study","Study Phase",8152,"","Recall1",5195
"w10026256_hc","bad","bad",44,1,"Read Version A","delinquent","Study1","F","Study","Study Phase",8001,"","Recall1",4259
"w10029079_mjm","juvenile","bad",52,1,"Read Version A","delinquent","Study1","F","Study","Study Phase",8002,"","Recall1",4840
"w10065796_sjb","kid","bad",62,1,"Read Version A","delinquent","Study1","F","Study","Study Phase",8002,"","Recall1",3079
"w10074365_jbk","bad","bad",53,1,"Read Version A","delinquent","Study1","F","Study","Study Phase",8003,"","Recall1",2918
"w10079083bdd","bad","bad",73,1,"Read Version A","delinquent","Study1","F","Study","Study Phase",8002,"","Recall1",4853
"w10096664_jer","Felon","bad",69,1,"Read Version A","delinquent","Study1","F","Study","Study Phase",8007,"","Recall1",5920
"w10100015_cgs","BAD","bad",9,1,"Read Version A","delinquent","Study1","F","Study","Study Phase",8004,"","Recall1",1957
"w10106710BL","","bad",62,1,"Read Version A","delinquent","Study1","F","Study","Study Phase",8004,"","Recall1",2289
"w10107871LD","juvenile ","bad",29,1,"Read Version A","delinquent","Study1","F","Study","Study Phase",8006,"","Recall1",7579
"w10112492ke","kid","bad",39,1,"Read Version A","delinquent","Study1","F","Study","Study Phase",8010,"","Recall1",4659
"w10112505","","bad",60,1,"Read Version A","delinquent","Study1","F","Study","Study Phase",8005,"","Recall1",1007
"w10123816_lac","bad","bad",80,1,"Read Version A","delinquent","Study1","F","Study","Study Phase",8017,"","Recall1",3619
"W10129411_WB","juvenile","bad",73,1,"Read Version A","delinquent","Study1","F","Study","Study Phase",8002,"","Recall1",5027
"10079569MO","sacks","sacking",70,1,"Read Version A","dietary","Study1","U","Study","Study Phase",8004,"","Recall1",8292
"kw781666","","sacking",82,1,"Read Version A","dietary","Study1","U","Study","Study Phase",8755,"","Recall1",244
"w10026256_hc","food","sacking",77,1,"Read Version A","dietary","Study1","U","Study","Study Phase",8001,"","Recall1",4147
"w10029079_mjm","weight","sacking",69,1,"Read Version A","dietary","Study1","U","Study","Study Phase",8003,"","Recall1",2924
"w10065796_sjb","food","sacking",51,1,"Read Version A","dietary","Study1","U","Study","Study Phase",8001,"","Recall1",3551
"w10074365_jbk","food","sacking",70,1,"Read Version A","dietary","Study1","U","Study","Study Phase",8006,"","Recall1",4279
"w10079083bdd","food","sacking",43,1,"Read Version A","dietary","Study1","U","Study","Study Phase",8002,"","Recall1",2278
"w10096664_jer","Weight ","sacking",22,1,"Read Version A","dietary","Study1","U","Study","Study Phase",8008,"","Recall1",5784
"w10100015_cgs","FOOD","sacking",20,1,"Read Version A","dietary","Study1","U","Study","Study Phase",8001,"","Recall1",2228
"w10106710BL","","sacking",31,1,"Read Version A","dietary","Study1","U","Study","Study Phase",8002,"","Recall1",2275
"w10107871LD","food","sacking",72,1,"Read Version A","dietary","Study1","U","Study","Study Phase",8009,"","Recall1",20277
"w10112492ke","food","sacking",52,1,"Read Version A","dietary","Study1","U","Study","Study Phase",8006,"","Recall1",17127
"w10112505","food","sacking",31,1,"Read Version A","dietary","Study1","U","Study","Study Phase",8004,"","Recall1",2047
"w10123816_lac","Eat","sacking",36,1,"Read Version A","dietary","Study1","U","Study","Study Phase",8003,"","Recall1",18691
"W10129411_WB","Sacking","sacking",41,1,"Read Version A","dietary","Study1","U","Study","Study Phase",8000,"","Recall1",13994
"10079569MO","food","stomach",87,1,"Read Version A","digestion","Study1","F","Study","Study Phase",8001,"","Recall1",2950
"kw781666","eat","stomach",81,1,"Read Version A","digestion","Study1","F","Study","Study Phase",8323,"","Recall1",12318
"w10026256_hc","stomach","stomach",22,1,"Read Version A","digestion","Study1","F","Study","Study Phase",8001,"","Recall1",4562
"w10029079_mjm","kidney","stomach",10,1,"Read Version A","digestion","Study1","F","Study","Study Phase",8003,"","Recall1",3162
"w10065796_sjb","food","stomach",38,1,"Read Version A","digestion","Study1","F","Study","Study Phase",8001,"","Recall1",2202
"w10074365_jbk","stomach","stomach",69,1,"Read Version A","digestion","Study1","F","Study","Study Phase",8005,"","Recall1",5350
"w10079083bdd","release","stomach",66,1,"Read Version A","digestion","Study1","F","Study","Study Phase",8006,"","Recall1",12950
"w10096664_jer","Heartburn ","stomach",45,1,"Read Version A","digestion","Study1","F","Study","Study Phase",8008,"","Recall1",12430
"w10100015_cgs","LIVER","stomach",74,1,"Read Version A","digestion","Study1","F","Study","Study Phase",8002,"","Recall1",2162
"w10106710BL","stomach","stomach",26,1,"Read Version A","digestion","Study1","F","Study","Study Phase",8003,"","Recall1",3014
"w10107871LD","food","stomach",48,1,"Read Version A","digestion","Study1","F","Study","Study Phase",8014,"","Recall1",5167
"w10112492ke","food","stomach",83,1,"Read Version A","digestion","Study1","F","Study","Study Phase",8006,"","Recall1",4074
"w10112505","system","stomach",81,1,"Read Version A","digestion","Study1","F","Study","Study Phase",8010,"","Recall1",3017
"w10123816_lac","food","stomach",19,1,"Read Version A","digestion","Study1","F","Study","Study Phase",8002,"","Recall1",5335
"W10129411_WB","Stomach","stomach",20,1,"Read Version A","digestion","Study1","F","Study","Study Phase",8001,"","Recall1",4039
"10079569MO","floor","floor",35,1,"Read Version A","discover","Study1","U","Study","Study Phase",8006,"","Recall1",3291
"kw781666","find","floor",79,1,"Read Version A","discover","Study1","U","Study","Study Phase",8748,"","Recall1",3120
"w10026256_hc","around","floor",13,1,"Read Version A","discover","Study1","U","Study","Study Phase",8002,"","Recall1",5482
"w10029079_mjm","card","floor",47,1,"Read Version A","discover","Study1","U","Study","Study Phase",8001,"","Recall1",2219
"w10065796_sjb","find","floor",54,1,"Read Version A","discover","Study1","U","Study","Study Phase",8000,"","Recall1",1709
"w10074365_jbk","adventure","floor",63,1,"Read Version A","discover","Study1","U","Study","Study Phase",8003,"","Recall1",8299
"w10079083bdd","new","floor",60,1,"Read Version A","discover","Study1","U","Study","Study Phase",8003,"","Recall1",2559
"w10096664_jer","Find","floor",84,1,"Read Version A","discover","Study1","U","Study","Study Phase",8009,"","Recall1",3431
"w10100015_cgs","CARD","floor",17,1,"Read Version A","discover","Study1","U","Study","Study Phase",8006,"","Recall1",6099
"w10106710BL","","floor",17,1,"Read Version A","discover","Study1","U","Study","Study Phase",8002,"","Recall1",1125
"w10107871LD","wonder","floor",42,1,"Read Version A","discover","Study1","U","Study","Study Phase",8002,"","Recall1",4781
"w10112492ke","","floor",63,1,"Read Version A","discover","Study1","U","Study","Study Phase",8013,"","Recall1",9367
"w10112505","","floor",32,1,"Read Version A","discover","Study1","U","Study","Study Phase",8004,"","Recall1",4734
"w10123816_lac","card","floor",81,1,"Read Version A","discover","Study1","U","Study","Study Phase",8005,"","Recall1",4134
"W10129411_WB","Floor","floor",59,1,"Read Version A","discover","Study1","U","Study","Study Phase",8001,"","Recall1",11448
"10079569MO","talk","talk",83,1,"Read Version A","discussion","Study1","F","Study","Study Phase",8005,"","Recall1",9751
"kw781666","","talk",24,1,"Read Version A","discussion","Study1","F","Study","Study Phase",8005,"","Recall1",213
"w10026256_hc","talk","talk",33,1,"Read Version A","discussion","Study1","F","Study","Study Phase",8001,"","Recall1",3185
"w10029079_mjm","post","talk",30,1,"Read Version A","discussion","Study1","F","Study","Study Phase",8001,"","Recall1",2670
"w10065796_sjb","talk","talk",79,1,"Read Version A","discussion","Study1","F","Study","Study Phase",8001,"","Recall1",2236
"w10074365_jbk","conclusion","talk",80,1,"Read Version A","discussion","Study1","F","Study","Study Phase",8005,"","Recall1",7571
"w10079083bdd","","talk",32,1,"Read Version A","discussion","Study1","F","Study","Study Phase",8002,"","Recall1",1431
"w10096664_jer","Board","talk",55,1,"Read Version A","discussion","Study1","F","Study","Study Phase",8007,"","Recall1",3964
"w10100015_cgs","ANSWER","talk",57,1,"Read Version A","discussion","Study1","F","Study","Study Phase",8003,"","Recall1",2374
"w10106710BL","","talk",51,1,"Read Version A","discussion","Study1","F","Study","Study Phase",8010,"","Recall1",4991
"w10107871LD","talk","talk",38,1,"Read Version A","discussion","Study1","F","Study","Study Phase",8010,"","Recall1",4142
"w10112492ke","talk","talk",44,1,"Read Version A","discussion","Study1","F","Study","Study Phase",8005,"","Recall1",9889
"w10112505","talk","talk",20,1,"Read Version A","discussion","Study1","F","Study","Study Phase",8004,"","Recall1",2965
"w10123816_lac","group","talk",46,1,"Read Version A","discussion","Study1","F","Study","Study Phase",8002,"","Recall1",9247
"W10129411_WB","Talk","talk",28,1,"Read Version A","discussion","Study1","F","Study","Study Phase",8001,"","Recall1",9352
"10079569MO","pop","sip",84,1,"Read Version A","drink","Study1","B","Study","Study Phase",8002,"","Recall1",3049
"kw781666","water","sip",37,1,"Read Version A","drink","Study1","B","Study","Study Phase",8008,"","Recall1",4341
"w10026256_hc","sip","sip",26,1,"Read Version A","drink","Study1","B","Study","Study Phase",8002,"","Recall1",2071
"w10029079_mjm","hot","sip",19,1,"Read Version A","drink","Study1","B","Study","Study Phase",8001,"","Recall1",3278
"w10065796_sjb","","sip",73,1,"Read Version A","drink","Study1","B","Study","Study Phase",8004,"","Recall1",2911
"w10074365_jbk","water","sip",65,1,"Read Version A","drink","Study1","B","Study","Study Phase",8003,"","Recall1",3474
"w10079083bdd","eat","sip",67,1,"Read Version A","drink","Study1","B","Study","Study Phase",8003,"","Recall1",4390
"w10096664_jer","Soda","sip",29,1,"Read Version A","drink","Study1","B","Study","Study Phase",8010,"","Recall1",5133
"w10100015_cgs","LOTS","sip",80,1,"Read Version A","drink","Study1","B","Study","Study Phase",8001,"","Recall1",1946
"w10106710BL","sip","sip",66,1,"Read Version A","drink","Study1","B","Study","Study Phase",8006,"","Recall1",2015
"w10107871LD","sip","sip",12,1,"Read Version A","drink","Study1","B","Study","Study Phase",8005,"","Recall1",3699
"w10112492ke","","sip",88,1,"Read Version A","drink","Study1","B","Study","Study Phase",8012,"","Recall1",789
"w10112505","","sip",28,1,"Read Version A","drink","Study1","B","Study","Study Phase",8007,"","Recall1",14189
"w10123816_lac","wine","sip",52,1,"Read Version A","drink","Study1","B","Study","Study Phase",8002,"","Recall1",3440
"W10129411_WB","Sip","sip",36,1,"Read Version A","drink","Study1","B","Study","Study Phase",8001,"","Recall1",14716
"10079569MO","assignment","assignment",15,1,"Read Version A","due","Study1","S","Study","Study Phase",8001,"","Recall1",4250
"kw781666","assignment","assignment",21,1,"Read Version A","due","Study1","S","Study","Study Phase",8006,"","Recall1",7409
"w10026256_hc","now","assignment",21,1,"Read Version A","due","Study1","S","Study","Study Phase",8001,"","Recall1",5551
"w10029079_mjm","homework","assignment",45,1,"Read Version A","due","Study1","S","Study","Study Phase",8003,"","Recall1",2384
"w10065796_sjb","date","assignment",35,1,"Read Version A","due","Study1","S","Study","Study Phase",8000,"","Recall1",1786
"w10074365_jbk","assignment","assignment",11,1,"Read Version A","due","Study1","S","Study","Study Phase",8004,"","Recall1",5522
"w10079083bdd","date","assignment",16,1,"Read Version A","due","Study1","S","Study","Study Phase",8003,"","Recall1",1871
"w10096664_jer","Time","assignment",30,1,"Read Version A","due","Study1","S","Study","Study Phase",8009,"","Recall1",6073
"w10100015_cgs","TOMORROW","assignment",25,1,"Read Version A","due","Study1","S","Study","Study Phase",8003,"","Recall1",1906
"w10106710BL","assignment","assignment",61,1,"Read Version A","due","Study1","S","Study","Study Phase",8009,"","Recall1",4835
"w10107871LD","assignment ","assignment",57,1,"Read Version A","due","Study1","S","Study","Study Phase",8016,"","Recall1",4142
"w10112492ke","line","assignment",23,1,"Read Version A","due","Study1","S","Study","Study Phase",8002,"","Recall1",12606
"w10112505","now","assignment",23,1,"Read Version A","due","Study1","S","Study","Study Phase",8011,"","Recall1",5082
"w10123816_lac","Assignment ","assignment",76,1,"Read Version A","due","Study1","S","Study","Study Phase",8003,"","Recall1",4107
"W10129411_WB","Assignment","assignment",51,1,"Read Version A","due","Study1","S","Study","Study Phase",8000,"","Recall1",3800
"10079569MO","truck","waste",55,1,"Read Version A","dump","Study1","S","Study","Study Phase",8004,"","Recall1",3454
"kw781666","dumpster","waste",12,1,"Read Version A","dump","Study1","S","Study","Study Phase",8005,"","Recall1",4404
"w10026256_hc","","waste",34,1,"Read Version A","dump","Study1","S","Study","Study Phase",8002,"","Recall1",9358
"w10029079_mjm","trash","waste",15,1,"Read Version A","dump","Study1","S","Study","Study Phase",8002,"","Recall1",6708
"w10065796_sjb","waste","waste",77,1,"Read Version A","dump","Study1","S","Study","Study Phase",8001,"","Recall1",3080
"w10074365_jbk","trash","waste",59,1,"Read Version A","dump","Study1","S","Study","Study Phase",8003,"","Recall1",4825
"w10079083bdd","","waste",55,1,"Read Version A","dump","Study1","S","Study","Study Phase",8003,"","Recall1",4263
"w10096664_jer","","waste",51,1,"Read Version A","dump","Study1","S","Study","Study Phase",8013,"","Recall1",5158
"w10100015_cgs","TRUCK","waste",19,1,"Read Version A","dump","Study1","S","Study","Study Phase",8005,"","Recall1",1907
"w10106710BL","waste","waste",57,1,"Read Version A","dump","Study1","S","Study","Study Phase",8004,"","Recall1",2176
"w10107871LD","waste","waste",23,1,"Read Version A","dump","Study1","S","Study","Study Phase",8007,"","Recall1",4566
"w10112492ke","pour","waste",17,1,"Read Version A","dump","Study1","S","Study","Study Phase",8004,"","Recall1",3354
"w10112505","throw","waste",13,1,"Read Version A","dump","Study1","S","Study","Study Phase",8015,"","Recall1",3651
"w10123816_lac","garbage ","waste",40,1,"Read Version A","dump","Study1","S","Study","Study Phase",8001,"","Recall1",7307
"W10129411_WB","Waste","waste",77,1,"Read Version A","dump","Study1","S","Study","Study Phase",8003,"","Recall1",6374
"10079569MO","paper","news",85,1,"Read Version A","editor","Study1","F","Study","Study Phase",8004,"","Recall1",3933
"kw781666","","news",27,1,"Read Version A","editor","Study1","F","Study","Study Phase",8008,"","Recall1",372
"w10026256_hc","write","news",68,1,"Read Version A","editor","Study1","F","Study","Study Phase",8001,"","Recall1",5478
"w10029079_mjm","chief","news",17,1,"Read Version A","editor","Study1","F","Study","Study Phase",8002,"","Recall1",6221
"w10065796_sjb","newspaper","news",36,1,"Read Version A","editor","Study1","F","Study","Study Phase",8000,"","Recall1",3198
"w10074365_jbk","write","news",75,1,"Read Version A","editor","Study1","F","Study","Study Phase",8001,"","Recall1",4383
"w10079083bdd","","news",74,1,"Read Version A","editor","Study1","F","Study","Study Phase",8003,"","Recall1",1645
"w10096664_jer","Chief","news",42,1,"Read Version A","editor","Study1","F","Study","Study Phase",8008,"","Recall1",6891
"w10100015_cgs","AUTHOR","news",46,1,"Read Version A","editor","Study1","F","Study","Study Phase",8002,"","Recall1",2259
"w10106710BL","news","news",49,1,"Read Version A","editor","Study1","F","Study","Study Phase",8003,"","Recall1",2306
"w10107871LD","writer","news",73,1,"Read Version A","editor","Study1","F","Study","Study Phase",8002,"","Recall1",4295
"w10112492ke","","news",71,1,"Read Version A","editor","Study1","F","Study","Study Phase",8005,"","Recall1",3935
"w10112505","newspaper","news",59,1,"Read Version A","editor","Study1","F","Study","Study Phase",8015,"","Recall1",5554
"w10123816_lac","book","news",50,1,"Read Version A","editor","Study1","F","Study","Study Phase",8003,"","Recall1",3784
"W10129411_WB","News","news",67,1,"Read Version A","editor","Study1","F","Study","Study Phase",8000,"","Recall1",7073
"10079569MO","out","blaze",62,1,"Read Version A","fire","Study1","B","Study","Study Phase",8002,"","Recall1",3136
"kw781666","flame","blaze",14,1,"Read Version A","fire","Study1","B","Study","Study Phase",8005,"","Recall1",7141
"w10026256_hc","pit","blaze",52,1,"Read Version A","fire","Study1","B","Study","Study Phase",8003,"","Recall1",3252
"w10029079_mjm","snow","blaze",77,1,"Read Version A","fire","Study1","B","Study","Study Phase",8004,"","Recall1",1925
"w10065796_sjb","blaze","blaze",88,1,"Read Version A","fire","Study1","B","Study","Study Phase",8000,"","Recall1",4425
"w10074365_jbk","ladder","blaze",13,1,"Read Version A","fire","Study1","B","Study","Study Phase",8003,"","Recall1",7870
"w10079083bdd","alarm","blaze",81,1,"Read Version A","fire","Study1","B","Study","Study Phase",8003,"","Recall1",2164
"w10096664_jer","Distinguish ","blaze",10,1,"Read Version A","fire","Study1","B","Study","Study Phase",8007,"","Recall1",16559
"w10100015_cgs","HOT","blaze",41,1,"Read Version A","fire","Study1","B","Study","Study Phase",8008,"","Recall1",2960
"w10106710BL","burn","blaze",12,1,"Read Version A","fire","Study1","B","Study","Study Phase",8004,"","Recall1",6406
"w10107871LD","hot","blaze",24,1,"Read Version A","fire","Study1","B","Study","Study Phase",8005,"","Recall1",3605
"w10112492ke","water","blaze",19,1,"Read Version A","fire","Study1","B","Study","Study Phase",8004,"","Recall1",9239
"w10112505","alarm","blaze",76,1,"Read Version A","fire","Study1","B","Study","Study Phase",8004,"","Recall1",2192
"w10123816_lac","ball","blaze",45,1,"Read Version A","fire","Study1","B","Study","Study Phase",8005,"","Recall1",9099
"W10129411_WB","Blaze","blaze",84,1,"Read Version A","fire","Study1","B","Study","Study Phase",8004,"","Recall1",7454
"10079569MO","empty","hand",73,1,"Read Version A","fix","Study1","U","Study","Study Phase",8005,"","Recall1",7088
"kw781666","mend","hand",10,1,"Read Version A","fix","Study1","U","Study","Study Phase",8006,"","Recall1",16793
"w10026256_hc","done","hand",38,1,"Read Version A","fix","Study1","U","Study","Study Phase",8003,"","Recall1",5608
"w10029079_mjm","","hand",13,1,"Read Version A","fix","Study1","U","Study","Study Phase",8131,"","Recall1",2467
"w10065796_sjb","tool","hand",13,1,"Read Version A","fix","Study1","U","Study","Study Phase",8000,"","Recall1",3617
"w10074365_jbk","hand","hand",30,1,"Read Version A","fix","Study1","U","Study","Study Phase",8003,"","Recall1",3084
"w10079083bdd","","hand",47,1,"Read Version A","fix","Study1","U","Study","Study Phase",8002,"","Recall1",3339
"w10096664_jer","Find","hand",13,1,"Read Version A","fix","Study1","U","Study","Study Phase",8005,"","Recall1",3794
"w10100015_cgs","FIX","hand",86,1,"Read Version A","fix","Study1","U","Study","Study Phase",8001,"","Recall1",3383
"w10106710BL","","hand",35,1,"Read Version A","fix","Study1","U","Study","Study Phase",8003,"","Recall1",1755
"w10107871LD","hands","hand",21,1,"Read Version A","fix","Study1","U","Study","Study Phase",8003,"","Recall1",4323
"w10112492ke","break","hand",60,1,"Read Version A","fix","Study1","U","Study","Study Phase",8011,"","Recall1",3373
"w10112505","","hand",22,1,"Read Version A","fix","Study1","U","Study","Study Phase",8011,"","Recall1",2638
"w10123816_lac","hammer ","hand",15,1,"Read Version A","fix","Study1","U","Study","Study Phase",8008,"","Recall1",12236
"W10129411_WB","Hand","hand",49,1,"Read Version A","fix","Study1","U","Study","Study Phase",8000,"","Recall1",7273
"10079569MO","tank","enough",17,1,"Read Version A","full","Study1","B","Study","Study Phase",8007,"","Recall1",6111
"kw781666","enough","enough",20,1,"Read Version A","full","Study1","B","Study","Study Phase",8006,"","Recall1",4118
"w10026256_hc","skinny","enough",49,1,"Read Version A","full","Study1","B","Study","Study Phase",8001,"","Recall1",5024
"w10029079_mjm","empty","enough",39,1,"Read Version A","full","Study1","B","Study","Study Phase",8002,"","Recall1",4311
"w10065796_sjb","empty","enough",10,1,"Read Version A","full","Study1","B","Study","Study Phase",8002,"","Recall1",5663
"w10074365_jbk","cup","enough",60,1,"Read Version A","full","Study1","B","Study","Study Phase",8008,"","Recall1",4556
"w10079083bdd","","enough",69,1,"Read Version A","full","Study1","B","Study","Study Phase",8002,"","Recall1",1416
"w10096664_jer","Empty ","enough",85,1,"Read Version A","full","Study1","B","Study","Study Phase",8014,"","Recall1",10915
"w10100015_cgs","EMPTY","enough",84,1,"Read Version A","full","Study1","B","Study","Study Phase",8002,"","Recall1",2062
"w10106710BL","","enough",67,1,"Read Version A","full","Study1","B","Study","Study Phase",8004,"","Recall1",1223
"w10107871LD","empty","enough",47,1,"Read Version A","full","Study1","B","Study","Study Phase",8010,"","Recall1",6776
"w10112492ke","empty","enough",58,1,"Read Version A","full","Study1","B","Study","Study Phase",8004,"","Recall1",2671
"w10112505","","enough",43,1,"Read Version A","full","Study1","B","Study","Study Phase",8005,"","Recall1",1332
"w10123816_lac","stomach","enough",57,1,"Read Version A","full","Study1","B","Study","Study Phase",8004,"","Recall1",6378
"W10129411_WB","Empty","enough",66,1,"Read Version A","full","Study1","B","Study","Study Phase",8001,"","Recall1",8765
"10079569MO","rock","rock",76,1,"Read Version A","geology","Study1","F","Study","Study Phase",8007,"","Recall1",2046
"kw781666","","rock",83,1,"Read Version A","geology","Study1","F","Study","Study Phase",8738,"","Recall1",229
"w10026256_hc","rock","rock",47,1,"Read Version A","geology","Study1","F","Study","Study Phase",8001,"","Recall1",2848
"w10029079_mjm","science","rock",44,1,"Read Version A","geology","Study1","F","Study","Study Phase",8002,"","Recall1",2626
"w10065796_sjb","rock","rock",86,1,"Read Version A","geology","Study1","F","Study","Study Phase",8001,"","Recall1",3712
"w10074365_jbk","rock","rock",41,1,"Read Version A","geology","Study1","F","Study","Study Phase",8004,"","Recall1",3327
"w10079083bdd","rocl","rock",21,1,"Read Version A","geology","Study1","F","Study","Study Phase",8002,"","Recall1",1802
"w10096664_jer","Rock","rock",18,1,"Read Version A","geology","Study1","F","Study","Study Phase",8009,"","Recall1",3201
"w10100015_cgs","WORLD","rock",76,1,"Read Version A","geology","Study1","F","Study","Study Phase",8001,"","Recall1",2099
"w10106710BL","rock","rock",75,1,"Read Version A","geology","Study1","F","Study","Study Phase",8003,"","Recall1",3975
"w10107871LD","world","rock",35,1,"Read Version A","geology","Study1","F","Study","Study Phase",8011,"","Recall1",3941
"w10112492ke","world","rock",18,1,"Read Version A","geology","Study1","F","Study","Study Phase",8006,"","Recall1",4437
"w10112505","","rock",52,1,"Read Version A","geology","Study1","F","Study","Study Phase",8004,"","Recall1",1067
"w10123816_lac","rock","rock",39,1,"Read Version A","geology","Study1","F","Study","Study Phase",8002,"","Recall1",3007
"W10129411_WB","Rocks","rock",56,1,"Read Version A","geology","Study1","F","Study","Study Phase",8000,"","Recall1",9245
"10079569MO","","fantastic",36,1,"Read Version A","great","Study1","B","Study","Study Phase",8004,"","Recall1",7411
"kw781666","","fantastic",66,1,"Read Version A","great","Study1","B","Study","Study Phase",8011,"","Recall1",313
"w10026256_hc","value","fantastic",9,1,"Read Version A","great","Study1","B","Study","Study Phase",8001,"","Recall1",4773
"w10029079_mjm","bad","fantastic",66,1,"Read Version A","great","Study1","B","Study","Study Phase",8002,"","Recall1",2269
"w10065796_sjb","fantastic","fantastic",29,1,"Read Version A","great","Study1","B","Study","Study Phase",8001,"","Recall1",6271
"w10074365_jbk","big","fantastic",78,1,"Read Version A","great","Study1","B","Study","Study Phase",8004,"","Recall1",5804
"w10079083bdd","good","fantastic",64,1,"Read Version A","great","Study1","B","Study","Study Phase",8003,"","Recall1",2963
"w10096664_jer","Super","fantastic",25,1,"Read Version A","great","Study1","B","Study","Study Phase",8009,"","Recall1",5389
"w10100015_cgs","GATSBY","fantastic",34,1,"Read Version A","great","Study1","B","Study","Study Phase",8004,"","Recall1",3445
"w10106710BL","fantastic","fantastic",53,1,"Read Version A","great","Study1","B","Study","Study Phase",8004,"","Recall1",4259
"w10107871LD","excellent ","fantastic",50,1,"Read Version A","great","Study1","B","Study","Study Phase",8009,"","Recall1",6939
"w10112492ke","","fantastic",32,1,"Read Version A","great","Study1","B","Study","Study Phase",8008,"","Recall1",1913
"w10112505","awesome","fantastic",14,1,"Read Version A","great","Study1","B","Study","Study Phase",8005,"","Recall1",4702
"w10123816_lac","good","fantastic",67,1,"Read Version A","great","Study1","B","Study","Study Phase",8002,"","Recall1",10295
"W10129411_WB","Fantastic","fantastic",35,1,"Read Version A","great","Study1","B","Study","Study Phase",8001,"","Recall1",5733
"10079569MO","","bar",64,1,"Read Version A","grill","Study1","S","Study","Study Phase",8002,"","Recall1",7027
"kw781666","","bar",11,1,"Read Version A","grill","Study1","S","Study","Study Phase",8005,"","Recall1",257
"w10026256_hc","burger","bar",11,1,"Read Version A","grill","Study1","S","Study","Study Phase",8001,"","Recall1",3500
"w10029079_mjm","meat","bar",85,1,"Read Version A","grill","Study1","S","Study","Study Phase",8002,"","Recall1",2836
"w10065796_sjb","food","bar",56,1,"Read Version A","grill","Study1","S","Study","Study Phase",8001,"","Recall1",3107
"w10074365_jbk","bar","bar",71,1,"Read Version A","grill","Study1","S","Study","Study Phase",8002,"","Recall1",2894
"w10079083bdd","","bar",26,1,"Read Version A","grill","Study1","S","Study","Study Phase",8001,"","Recall1",1688
"w10096664_jer","Cook","bar",80,1,"Read Version A","grill","Study1","S","Study","Study Phase",8007,"","Recall1",5389
"w10100015_cgs","BAR","bar",58,1,"Read Version A","grill","Study1","S","Study","Study Phase",8002,"","Recall1",1863
"w10106710BL","bar","bar",32,1,"Read Version A","grill","Study1","S","Study","Study Phase",8002,"","Recall1",2710
"w10107871LD","barbecue ","bar",55,1,"Read Version A","grill","Study1","S","Study","Study Phase",8026,"","Recall1",4646
"w10112492ke","bar","bar",26,1,"Read Version A","grill","Study1","S","Study","Study Phase",8010,"","Recall1",4065
"w10112505","teeth","bar",41,1,"Read Version A","grill","Study1","S","Study","Study Phase",8005,"","Recall1",3472
"w10123816_lac","bar","bar",85,1,"Read Version A","grill","Study1","S","Study","Study Phase",8002,"","Recall1",2842
"W10129411_WB","Bar","bar",87,1,"Read Version A","grill","Study1","S","Study","Study Phase",8001,"","Recall1",2114
"10079569MO","target","car",20,1,"Read Version A","happy","Study1","U","Study","Study Phase",8003,"","Recall1",3846
"kw781666","smile","car",87,1,"Read Version A","happy","Study1","U","Study","Study Phase",8438,"","Recall1",3474
"w10026256_hc","sad","car",70,1,"Read Version A","happy","Study1","U","Study","Study Phase",8002,"","Recall1",4444
"w10029079_mjm","sad","car",40,1,"Read Version A","happy","Study1","U","Study","Study Phase",8001,"","Recall1",1355
"w10065796_sjb","sad","car",63,1,"Read Version A","happy","Study1","U","Study","Study Phase",8000,"","Recall1",1928
"w10074365_jbk","smile","car",48,1,"Read Version A","happy","Study1","U","Study","Study Phase",8005,"","Recall1",4782
"w10079083bdd","","car",11,1,"Read Version A","happy","Study1","U","Study","Study Phase",8003,"","Recall1",2671
"w10096664_jer","Sad","car",27,1,"Read Version A","happy","Study1","U","Study","Study Phase",8012,"","Recall1",3647
"w10100015_cgs","SAD","car",14,1,"Read Version A","happy","Study1","U","Study","Study Phase",8006,"","Recall1",1869
"w10106710BL","sad","car",88,1,"Read Version A","happy","Study1","U","Study","Study Phase",8003,"","Recall1",1705
"w10107871LD","emotional","car",65,1,"Read Version A","happy","Study1","U","Study","Study Phase",8007,"","Recall1",5182
"w10112492ke","sad","car",79,1,"Read Version A","happy","Study1","U","Study","Study Phase",8004,"","Recall1",2934
"w10112505","smile","car",78,1,"Read Version A","happy","Study1","U","Study","Study Phase",8004,"","Recall1",1784
"w10123816_lac","food","car",14,1,"Read Version A","happy","Study1","U","Study","Study Phase",8018,"","Recall1",10111
"W10129411_WB","Car","car",31,1,"Read Version A","happy","Study1","U","Study","Study Phase",8001,"","Recall1",6508
"10079569MO","small","growth",21,1,"Read Version A","height","Study1","B","Study","Study Phase",8005,"","Recall1",2781
"kw781666","tall","growth",46,1,"Read Version A","height","Study1","B","Study","Study Phase",8009,"","Recall1",19162
"w10026256_hc","tall","growth",80,1,"Read Version A","height","Study1","B","Study","Study Phase",8003,"","Recall1",6429
"w10029079_mjm","size","growth",31,1,"Read Version A","height","Study1","B","Study","Study Phase",8005,"","Recall1",2097
"w10065796_sjb","growth","growth",34,1,"Read Version A","height","Study1","B","Study","Study Phase",8003,"","Recall1",2021
"w10074365_jbk","tall","growth",77,1,"Read Version A","height","Study1","B","Study","Study Phase",8003,"","Recall1",3782
"w10079083bdd","weight","growth",52,1,"Read Version A","height","Study1","B","Study","Study Phase",8003,"","Recall1",4275
"w10096664_jer","Tall","growth",79,1,"Read Version A","height","Study1","B","Study","Study Phase",8009,"","Recall1",3788
"w10100015_cgs","SMALL","growth",13,1,"Read Version A","height","Study1","B","Study","Study Phase",8002,"","Recall1",1836
"w10106710BL","","growth",82,1,"Read Version A","height","Study1","B","Study","Study Phase",8008,"","Recall1",1355
"w10107871LD","building ","growth",43,1,"Read Version A","height","Study1","B","Study","Study Phase",8006,"","Recall1",4874
"w10112492ke","tall","growth",76,1,"Read Version A","height","Study1","B","Study","Study Phase",8005,"","Recall1",13291
"w10112505","growth","growth",17,1,"Read Version A","height","Study1","B","Study","Study Phase",8008,"","Recall1",2344
"w10123816_lac","growth","growth",68,1,"Read Version A","height","Study1","B","Study","Study Phase",8003,"","Recall1",3502
"W10129411_WB","growth","growth",13,1,"Read Version A","height","Study1","B","Study","Study Phase",8001,"","Recall1",17337
"10079569MO","sheep","cow",24,1,"Read Version A","herd","Study1","F","Study","Study Phase",8005,"","Recall1",3807
"kw781666","","cow",35,1,"Read Version A","herd","Study1","F","Study","Study Phase",8007,"","Recall1",275
"w10026256_hc","cow","cow",54,1,"Read Version A","herd","Study1","F","Study","Study Phase",8001,"","Recall1",3366
"w10029079_mjm","cow","cow",49,1,"Read Version A","herd","Study1","F","Study","Study Phase",8865,"","Recall1",1693
"w10065796_sjb","cow","cow",25,1,"Read Version A","herd","Study1","F","Study","Study Phase",8003,"","Recall1",2131
"w10074365_jbk","cows","cow",18,1,"Read Version A","herd","Study1","F","Study","Study Phase",8008,"","Recall1",4648
"w10079083bdd","sheep","cow",27,1,"Read Version A","herd","Study1","F","Study","Study Phase",8003,"","Recall1",4209
"w10096664_jer","Sheep","cow",64,1,"Read Version A","herd","Study1","F","Study","Study Phase",8008,"","Recall1",7936
"w10100015_cgs","SHEEP","cow",33,1,"Read Version A","herd","Study1","F","Study","Study Phase",8003,"","Recall1",1665
"w10106710BL","cow","cow",40,1,"Read Version A","herd","Study1","F","Study","Study Phase",8002,"","Recall1",2487
"w10107871LD","sheep","cow",75,1,"Read Version A","herd","Study1","F","Study","Study Phase",8003,"","Recall1",7422
"w10112492ke","cow","cow",35,1,"Read Version A","herd","Study1","F","Study","Study Phase",8004,"","Recall1",6221
"w10112505","together","cow",87,1,"Read Version A","herd","Study1","F","Study","Study Phase",8008,"","Recall1",2724
"w10123816_lac","sheep","cow",27,1,"Read Version A","herd","Study1","F","Study","Study Phase",8004,"","Recall1",5185
"W10129411_WB","Cow","cow",71,1,"Read Version A","herd","Study1","F","Study","Study Phase",8001,"","Recall1",24740
"10079569MO","sick","sick",57,1,"Read Version A","hide","Study1","U","Study","Study Phase",8001,"","Recall1",2887
"kw781666","seek","sick",77,1,"Read Version A","hide","Study1","U","Study","Study Phase",8757,"","Recall1",3863
"w10026256_hc","n'seek","sick",58,1,"Read Version A","hide","Study1","U","Study","Study Phase",8002,"","Recall1",3964
"w10029079_mjm","scary","sick",41,1,"Read Version A","hide","Study1","U","Study","Study Phase",8002,"","Recall1",4712
"w10065796_sjb","","sick",55,1,"Read Version A","hide","Study1","U","Study","Study Phase",8001,"","Recall1",6416
"w10074365_jbk","seek","sick",21,1,"Read Version A","hide","Study1","U","Study","Study Phase",8008,"","Recall1",8179
"w10079083bdd","seek","sick",25,1,"Read Version A","hide","Study1","U","Study","Study Phase",8004,"","Recall1",3186
"w10096664_jer","Seek","sick",44,1,"Read Version A","hide","Study1","U","Study","Study Phase",8007,"","Recall1",12160
"w10100015_cgs","SEEK","sick",47,1,"Read Version A","hide","Study1","U","Study","Study Phase",8003,"","Recall1",2308
"w10106710BL","seek","sick",77,1,"Read Version A","hide","Study1","U","Study","Study Phase",8008,"","Recall1",2820
"w10107871LD","seek","sick",40,1,"Read Version A","hide","Study1","U","Study","Study Phase",8230,"","Recall1",3738
"w10112492ke","","sick",85,1,"Read Version A","hide","Study1","U","Study","Study Phase",8008,"","Recall1",4467
"w10112505","find","sick",71,1,"Read Version A","hide","Study1","U","Study","Study Phase",8006,"","Recall1",3980
"w10123816_lac","scare","sick",20,1,"Read Version A","hide","Study1","U","Study","Study Phase",8004,"","Recall1",10412
"W10129411_WB","Sick and Scare","sick",9,1,"Read Version A","hide","Study1","U","Study","Study Phase",8000,"","Recall1",15774
"10079569MO","sweet","bee",53,1,"Read Version A","honey","Study1","S","Study","Study Phase",8003,"","Recall1",5338
"kw781666","","bee",68,1,"Read Version A","honey","Study1","S","Study","Study Phase",8007,"","Recall1",193
"w10026256_hc","pot","bee",15,1,"Read Version A","honey","Study1","S","Study","Study Phase",8001,"","Recall1",2338
"w10029079_mjm","bee","bee",84,1,"Read Version A","honey","Study1","S","Study","Study Phase",8003,"","Recall1",3233
"w10065796_sjb","comb","bee",61,1,"Read Version A","honey","Study1","S","Study","Study Phase",8001,"","Recall1",2604
"w10074365_jbk","jar","bee",68,1,"Read Version A","honey","Study1","S","Study","Study Phase",8003,"","Recall1",5629
"w10079083bdd","bee","bee",61,1,"Read Version A","honey","Study1","S","Study","Study Phase",8003,"","Recall1",1759
"w10096664_jer","Sweet","bee",63,1,"Read Version A","honey","Study1","S","Study","Study Phase",8016,"","Recall1",6920
"w10100015_cgs","BEE","bee",42,1,"Read Version A","honey","Study1","S","Study","Study Phase",8002,"","Recall1",2199
"w10106710BL","bee","bee",44,1,"Read Version A","honey","Study1","S","Study","Study Phase",8003,"","Recall1",1733
"w10107871LD","bee","bee",82,1,"Read Version A","honey","Study1","S","Study","Study Phase",8006,"","Recall1",3208
"w10112492ke","bee","bee",75,1,"Read Version A","honey","Study1","S","Study","Study Phase",8008,"","Recall1",5430
"w10112505","cone","bee",44,1,"Read Version A","honey","Study1","S","Study","Study Phase",8005,"","Recall1",3378
"w10123816_lac","bee","bee",49,1,"Read Version A","honey","Study1","S","Study","Study Phase",8001,"","Recall1",3946
"W10129411_WB","Bee","bee",15,1,"Read Version A","honey","Study1","S","Study","Study Phase",8000,"","Recall1",4701
"10079569MO","bug","sting",28,1,"Read Version A","hornet","Study1","F","Study","Study Phase",8007,"","Recall1",3281
"kw781666","sting","sting",22,1,"Read Version A","hornet","Study1","F","Study","Study Phase",8009,"","Recall1",4526
"w10026256_hc","nest","sting",39,1,"Read Version A","hornet","Study1","F","Study","Study Phase",8001,"","Recall1",4538
"w10029079_mjm","bee","sting",79,1,"Read Version A","hornet","Study1","F","Study","Study Phase",8002,"","Recall1",2649
"w10065796_sjb","sting","sting",22,1,"Read Version A","hornet","Study1","F","Study","Study Phase",8001,"","Recall1",1717
"w10074365_jbk","wasp","sting",61,1,"Read Version A","hornet","Study1","F","Study","Study Phase",8009,"","Recall1",3898
"w10079083bdd","sting","sting",24,1,"Read Version A","hornet","Study1","F","Study","Study Phase",8003,"","Recall1",4643
"w10096664_jer","Bee","sting",73,1,"Read Version A","hornet","Study1","F","Study","Study Phase",8008,"","Recall1",4627
"w10100015_cgs","NEST","sting",61,1,"Read Version A","hornet","Study1","F","Study","Study Phase",8002,"","Recall1",2220
"w10106710BL","wasp","sting",64,1,"Read Version A","hornet","Study1","F","Study","Study Phase",8009,"","Recall1",3314
"w10107871LD","honey","sting",25,1,"Read Version A","hornet","Study1","F","Study","Study Phase",8017,"","Recall1",4164
"w10112492ke","wasp","sting",22,1,"Read Version A","hornet","Study1","F","Study","Study Phase",8009,"","Recall1",4675
"w10112505","bee","sting",75,1,"Read Version A","hornet","Study1","F","Study","Study Phase",8006,"","Recall1",3682
"w10123816_lac","Sting","sting",62,1,"Read Version A","hornet","Study1","F","Study","Study Phase",8003,"","Recall1",4163
"W10129411_WB","Sting","sting",75,1,"Read Version A","hornet","Study1","F","Study","Study Phase",8000,"","Recall1",12113
"10079569MO","steam","chili",37,1,"Read Version A","hot","Study1","B","Study","Study Phase",8001,"","Recall1",5071
"kw781666","cold","chili",9,1,"Read Version A","hot","Study1","B","Study","Study Phase",8005,"","Recall1",3500
"w10026256_hc","cold","chili",28,1,"Read Version A","hot","Study1","B","Study","Study Phase",8007,"","Recall1",4732
"w10029079_mjm","cold","chili",81,1,"Read Version A","hot","Study1","B","Study","Study Phase",8001,"","Recall1",1546
"w10065796_sjb","cold","chili",85,1,"Read Version A","hot","Study1","B","Study","Study Phase",8001,"","Recall1",2462
"w10074365_jbk","cold","chili",46,1,"Read Version A","hot","Study1","B","Study","Study Phase",8008,"","Recall1",3265
"w10079083bdd","cold","chili",37,1,"Read Version A","hot","Study1","B","Study","Study Phase",8003,"","Recall1",1780
"w10096664_jer","Spicy ","chili",24,1,"Read Version A","hot","Study1","B","Study","Study Phase",8007,"","Recall1",9381
"w10100015_cgs","DAMN","chili",18,1,"Read Version A","hot","Study1","B","Study","Study Phase",8002,"","Recall1",1948
"w10106710BL","cold","chili",54,1,"Read Version A","hot","Study1","B","Study","Study Phase",8009,"","Recall1",4071
"w10107871LD","spicy ","chili",14,1,"Read Version A","hot","Study1","B","Study","Study Phase",8008,"","Recall1",7203
"w10112492ke","cold","chili",33,1,"Read Version A","hot","Study1","B","Study","Study Phase",8004,"","Recall1",7357
"w10112505","cold","chili",19,1,"Read Version A","hot","Study1","B","Study","Study Phase",8005,"","Recall1",2597
"w10123816_lac","chili","chili",22,1,"Read Version A","hot","Study1","B","Study","Study Phase",8005,"","Recall1",3356
"W10129411_WB","Chili","chili",62,1,"Read Version A","hot","Study1","B","Study","Study Phase",8000,"","Recall1",7413
"10079569MO","famine","famine",38,1,"Read Version A","hunger","Study1","B","Study","Study Phase",8002,"","Recall1",3620
"kw781666","famine","famine",44,1,"Read Version A","hunger","Study1","B","Study","Study Phase",8007,"","Recall1",25065
"w10026256_hc","games","famine",63,1,"Read Version A","hunger","Study1","B","Study","Study Phase",8001,"","Recall1",5390
"w10029079_mjm","starving","famine",54,1,"Read Version A","hunger","Study1","B","Study","Study Phase",8002,"","Recall1",3026
"w10065796_sjb","famine","famine",32,1,"Read Version A","hunger","Study1","B","Study","Study Phase",8002,"","Recall1",2477
"w10074365_jbk","food","famine",23,1,"Read Version A","hunger","Study1","B","Study","Study Phase",8003,"","Recall1",6672
"w10079083bdd","","famine",70,1,"Read Version A","hunger","Study1","B","Study","Study Phase",8003,"","Recall1",1659
"w10096664_jer","Poverty ","famine",9,1,"Read Version A","hunger","Study1","B","Study","Study Phase",8009,"","Recall1",15536
"w10100015_cgs","HIPPOS","famine",72,1,"Read Version A","hunger","Study1","B","Study","Study Phase",8007,"","Recall1",3116
"w10106710BL","famine","famine",84,1,"Read Version A","hunger","Study1","B","Study","Study Phase",8003,"","Recall1",2114
"w10107871LD","park","famine",84,1,"Read Version A","hunger","Study1","B","Study","Study Phase",8013,"","Recall1",4552
"w10112492ke","food","famine",25,1,"Read Version A","hunger","Study1","B","Study","Study Phase",8009,"","Recall1",5558
"w10112505","game","famine",16,1,"Read Version A","hunger","Study1","B","Study","Study Phase",8004,"","Recall1",4955
"w10123816_lac","famine","famine",29,1,"Read Version A","hunger","Study1","B","Study","Study Phase",8003,"","Recall1",4329
"W10129411_WB","Famine","famine",46,1,"Read Version A","hunger","Study1","B","Study","Study Phase",8001,"","Recall1",7156
"10079569MO","clean","clean",16,1,"Read Version A","hygiene","Study1","F","Study","Study Phase",8008,"","Recall1",3772
"kw781666","clean","clean",29,1,"Read Version A","hygiene","Study1","F","Study","Study Phase",8023,"","Recall1",11987
"w10026256_hc","clean","clean",72,1,"Read Version A","hygiene","Study1","F","Study","Study Phase",8001,"","Recall1",2818
"w10029079_mjm","wash","clean",16,1,"Read Version A","hygiene","Study1","F","Study","Study Phase",8004,"","Recall1",2689
"w10065796_sjb","shower","clean",37,1,"Read Version A","hygiene","Study1","F","Study","Study Phase",8003,"","Recall1",2616
"w10074365_jbk","clean","clean",10,1,"Read Version A","hygiene","Study1","F","Study","Study Phase",8005,"","Recall1",3132
"w10079083bdd","clean","clean",35,1,"Read Version A","hygiene","Study1","F","Study","Study Phase",8003,"","Recall1",2160
"w10096664_jer","Toothbrush ","clean",82,1,"Read Version A","hygiene","Study1","F","Study","Study Phase",8011,"","Recall1",6529
"w10100015_cgs","Bath","clean",67,1,"Read Version A","hygiene","Study1","F","Study","Study Phase",8005,"","Recall1",4498
"w10106710BL","clean","clean",20,1,"Read Version A","hygiene","Study1","F","Study","Study Phase",8003,"","Recall1",1709
"w10107871LD","clean","clean",83,1,"Read Version A","hygiene","Study1","F","Study","Study Phase",8020,"","Recall1",4168
"w10112492ke","bath","clean",82,1,"Read Version A","hygiene","Study1","F","Study","Study Phase",8005,"","Recall1",33609
"w10112505","good","clean",25,1,"Read Version A","hygiene","Study1","F","Study","Study Phase",8006,"","Recall1",3066
"w10123816_lac","shower","clean",48,1,"Read Version A","hygiene","Study1","F","Study","Study Phase",8003,"","Recall1",3940
"W10129411_WB","Clean","clean",83,1,"Read Version A","hygiene","Study1","F","Study","Study Phase",8001,"","Recall1",6427
"10079569MO","lock","latch",56,1,"Read Version A","key","Study1","B","Study","Study Phase",8002,"","Recall1",3060
"kw781666","lock","latch",13,1,"Read Version A","key","Study1","B","Study","Study Phase",8008,"","Recall1",4355
"w10026256_hc","card","latch",83,1,"Read Version A","key","Study1","B","Study","Study Phase",8005,"","Recall1",4785
"w10029079_mjm","lock","latch",51,1,"Read Version A","key","Study1","B","Study","Study Phase",8002,"","Recall1",1996
"w10065796_sjb","lock","latch",68,1,"Read Version A","key","Study1","B","Study","Study Phase",8000,"","Recall1",3290
"w10074365_jbk","lock","latch",19,1,"Read Version A","key","Study1","B","Study","Study Phase",8007,"","Recall1",3395
"w10079083bdd","hole","latch",53,1,"Read Version A","key","Study1","B","Study","Study Phase",8002,"","Recall1",2278
"w10096664_jer","Load","latch",71,1,"Read Version A","key","Study1","B","Study","Study Phase",8008,"","Recall1",10212
"w10100015_cgs","HOLE","latch",71,1,"Read Version A","key","Study1","B","Study","Study Phase",8002,"","Recall1",1733
"w10106710BL","","latch",86,1,"Read Version A","key","Study1","B","Study","Study Phase",8003,"","Recall1",1862
"w10107871LD","house","latch",71,1,"Read Version A","key","Study1","B","Study","Study Phase",8002,"","Recall1",4075
"w10112492ke","lock","latch",65,1,"Read Version A","key","Study1","B","Study","Study Phase",8011,"","Recall1",3241
"w10112505","word","latch",68,1,"Read Version A","key","Study1","B","Study","Study Phase",8011,"","Recall1",2198
"w10123816_lac","Card","latch",58,1,"Read Version A","key","Study1","B","Study","Study Phase",8006,"","Recall1",6646
"W10129411_WB","Latch","latch",86,1,"Read Version A","key","Study1","B","Study","Study Phase",8001,"","Recall1",21731
"10079569MO","organ","liver",67,1,"Read Version A","kidney","Study1","S","Study","Study Phase",8001,"","Recall1",3390
"kw781666","liver","liver",64,1,"Read Version A","kidney","Study1","S","Study","Study Phase",8006,"","Recall1",3221
"w10026256_hc","stones","liver",61,1,"Read Version A","kidney","Study1","S","Study","Study Phase",8004,"","Recall1",3878
"w10029079_mjm","liver","liver",34,1,"Read Version A","kidney","Study1","S","Study","Study Phase",8002,"","Recall1",4166
"w10065796_sjb","organ","liver",80,1,"Read Version A","kidney","Study1","S","Study","Study Phase",8001,"","Recall1",2178
"w10074365_jbk","stone","liver",83,1,"Read Version A","kidney","Study1","S","Study","Study Phase",8006,"","Recall1",3414
"w10079083bdd","liver","liver",72,1,"Read Version A","kidney","Study1","S","Study","Study Phase",8002,"","Recall1",7209
"w10096664_jer","Liquor ","liver",38,1,"Read Version A","kidney","Study1","S","Study","Study Phase",8004,"","Recall1",8948
"w10100015_cgs","LIVER","liver",26,1,"Read Version A","kidney","Study1","S","Study","Study Phase",8002,"","Recall1",2291
"w10106710BL","liver","liver",55,1,"Read Version A","kidney","Study1","S","Study","Study Phase",8009,"","Recall1",2448
"w10107871LD","liver","liver",81,1,"Read Version A","kidney","Study1","S","Study","Study Phase",8021,"","Recall1",3940
"w10112492ke","liver5","liver",47,1,"Read Version A","kidney","Study1","S","Study","Study Phase",8011,"","Recall1",29655
"w10112505","stone","liver",79,1,"Read Version A","kidney","Study1","S","Study","Study Phase",8005,"","Recall1",3907
"w10123816_lac","liver","liver",71,1,"Read Version A","kidney","Study1","S","Study","Study Phase",8004,"","Recall1",3153
"W10129411_WB","Liver","liver",54,1,"Read Version A","kidney","Study1","S","Study","Study Phase",8000,"","Recall1",2750
"10079569MO","vase","vase",34,1,"Read Version A","king","Study1","U","Study","Study Phase",8001,"","Recall1",4011
"kw781666","","vase",45,1,"Read Version A","king","Study1","U","Study","Study Phase",8007,"","Recall1",360
"w10026256_hc","queen","vase",85,1,"Read Version A","king","Study1","U","Study","Study Phase",8001,"","Recall1",5109
"w10029079_mjm","queen","vase",18,1,"Read Version A","king","Study1","U","Study","Study Phase",8003,"","Recall1",1870
"w10065796_sjb","queen","vase",47,1,"Read Version A","king","Study1","U","Study","Study Phase",8002,"","Recall1",2181
"w10074365_jbk","rule","vase",16,1,"Read Version A","king","Study1","U","Study","Study Phase",8003,"","Recall1",7539
"w10079083bdd","","vase",44,1,"Read Version A","king","Study1","U","Study","Study Phase",8007,"","Recall1",2154
"w10096664_jer","Queen","vase",43,1,"Read Version A","king","Study1","U","Study","Study Phase",8007,"","Recall1",14744
"w10100015_cgs","QUEEN","vase",59,1,"Read Version A","king","Study1","U","Study","Study Phase",8002,"","Recall1",1856
"w10106710BL","","vase",60,1,"Read Version A","king","Study1","U","Study","Study Phase",8005,"","Recall1",3312
"w10107871LD","powerful ","vase",59,1,"Read Version A","king","Study1","U","Study","Study Phase",8007,"","Recall1",8523
"w10112492ke","queen","vase",72,1,"Read Version A","king","Study1","U","Study","Study Phase",8013,"","Recall1",3714
"w10112505","queen","vase",10,1,"Read Version A","king","Study1","U","Study","Study Phase",8009,"","Recall1",2188
"w10123816_lac","palace","vase",72,1,"Read Version A","king","Study1","U","Study","Study Phase",8003,"","Recall1",7200
"W10129411_WB","Pin","vase",24,1,"Read Version A","king","Study1","U","Study","Study Phase",8001,"","Recall1",3583
"10079569MO","book","attorney",74,1,"Read Version A","law","Study1","B","Study","Study Phase",8000,"","Recall1",3789
"kw781666","jury","attorney",34,1,"Read Version A","law","Study1","B","Study","Study Phase",8005,"","Recall1",3702
"w10026256_hc","attorney","attorney",57,1,"Read Version A","law","Study1","B","Study","Study Phase",8001,"","Recall1",4306
"w10029079_mjm","School","attorney",23,1,"Read Version A","law","Study1","B","Study","Study Phase",8002,"","Recall1",3182
"w10065796_sjb","court","attorney",64,1,"Read Version A","law","Study1","B","Study","Study Phase",8003,"","Recall1",2743
"w10074365_jbk","attorney","attorney",52,1,"Read Version A","law","Study1","B","Study","Study Phase",8010,"","Recall1",3697
"w10079083bdd","trial","attorney",38,1,"Read Version A","law","Study1","B","Study","Study Phase",8002,"","Recall1",5865
"w10096664_jer","Sheriff ","attorney",50,1,"Read Version A","law","Study1","B","Study","Study Phase",8021,"","Recall1",7507
"w10100015_cgs","FULL","attorney",30,1,"Read Version A","law","Study1","B","Study","Study Phase",8002,"","Recall1",3577
"w10106710BL","attorney","attorney",22,1,"Read Version A","law","Study1","B","Study","Study Phase",8002,"","Recall1",2765
"w10107871LD","jury","attorney",70,1,"Read Version A","law","Study1","B","Study","Study Phase",8018,"","Recall1",5293
"w10112492ke","attorney","attorney",87,1,"Read Version A","law","Study1","B","Study","Study Phase",8004,"","Recall1",5264
"w10112505","","attorney",47,1,"Read Version A","law","Study1","B","Study","Study Phase",8004,"","Recall1",21180
"w10123816_lac","attorney ","attorney",33,1,"Read Version A","law","Study1","B","Study","Study Phase",8002,"","Recall1",8346
"W10129411_WB","Attorney","attorney",72,1,"Read Version A","law","Study1","B","Study","Study Phase",8001,"","Recall1",2907
"10079569MO","green","salad",13,1,"Read Version A","lettuce","Study1","S","Study","Study Phase",8005,"","Recall1",3322
"kw781666","","salad",38,1,"Read Version A","lettuce","Study1","S","Study","Study Phase",8005,"","Recall1",865
"w10026256_hc","spinach","salad",18,1,"Read Version A","lettuce","Study1","S","Study","Study Phase",8004,"","Recall1",5348
"w10029079_mjm","green","salad",71,1,"Read Version A","lettuce","Study1","S","Study","Study Phase",8002,"","Recall1",2576
"w10065796_sjb","salad","salad",46,1,"Read Version A","lettuce","Study1","S","Study","Study Phase",8002,"","Recall1",2004
"w10074365_jbk","salad","salad",66,1,"Read Version A","lettuce","Study1","S","Study","Study Phase",8008,"","Recall1",3329
"w10079083bdd","salad","salad",83,1,"Read Version A","lettuce","Study1","S","Study","Study Phase",8002,"","Recall1",2945
"w10096664_jer","Vegetables","salad",14,1,"Read Version A","lettuce","Study1","S","Study","Study Phase",8012,"","Recall1",11276
"w10100015_cgs","SALAD","salad",87,1,"Read Version A","lettuce","Study1","S","Study","Study Phase",8002,"","Recall1",2183
"w10106710BL","crunch","salad",13,1,"Read Version A","lettuce","Study1","S","Study","Study Phase",8001,"","Recall1",2926
"w10107871LD","salad","salad",61,1,"Read Version A","lettuce","Study1","S","Study","Study Phase",8024,"","Recall1",7844
"w10112492ke","cheese","salad",62,1,"Read Version A","lettuce","Study1","S","Study","Study Phase",8005,"","Recall1",4205
"w10112505","green","salad",26,1,"Read Version A","lettuce","Study1","S","Study","Study Phase",8004,"","Recall1",10252
"w10123816_lac","salad","salad",70,1,"Read Version A","lettuce","Study1","S","Study","Study Phase",8004,"","Recall1",3659
"W10129411_WB","Salad","salad",43,1,"Read Version A","lettuce","Study1","S","Study","Study Phase",8001,"","Recall1",3917
"10079569MO","woman","woman",77,1,"Read Version A","lift","Study1","U","Study","Study Phase",8006,"","Recall1",2291
"kw781666","pick","woman",50,1,"Read Version A","lift","Study1","U","Study","Study Phase",8006,"","Recall1",12128
"w10026256_hc","up","woman",88,1,"Read Version A","lift","Study1","U","Study","Study Phase",8001,"","Recall1",1608
"w10029079_mjm","carry","woman",56,1,"Read Version A","lift","Study1","U","Study","Study Phase",8002,"","Recall1",2402
"w10065796_sjb","carry","woman",48,1,"Read Version A","lift","Study1","U","Study","Study Phase",8003,"","Recall1",3264
"w10074365_jbk","women","woman",38,1,"Read Version A","lift","Study1","U","Study","Study Phase",8003,"","Recall1",4573
"w10079083bdd","heavy","woman",80,1,"Read Version A","lift","Study1","U","Study","Study Phase",8002,"","Recall1",2433
"w10096664_jer","Heavy","woman",60,1,"Read Version A","lift","Study1","U","Study","Study Phase",8010,"","Recall1",3451
"w10100015_cgs","HEAVY","woman",22,1,"Read Version A","lift","Study1","U","Study","Study Phase",8003,"","Recall1",2121
"w10106710BL","woman","woman",59,1,"Read Version A","lift","Study1","U","Study","Study Phase",8009,"","Recall1",3107
"w10107871LD","allow","woman",68,1,"Read Version A","lift","Study1","U","Study","Study Phase",8008,"","Recall1",14589
"w10112492ke","high","woman",15,1,"Read Version A","lift","Study1","U","Study","Study Phase",8009,"","Recall1",12829
"w10112505","up","woman",15,1,"Read Version A","lift","Study1","U","Study","Study Phase",8009,"","Recall1",5229
"w10123816_lac","woman","woman",17,1,"Read Version A","lift","Study1","U","Study","Study Phase",8003,"","Recall1",4552
"W10129411_WB","Woman","woman",78,1,"Read Version A","lift","Study1","U","Study","Study Phase",8001,"","Recall1",7908
"10079569MO","place","site",86,1,"Read Version A","location","Study1","S","Study","Study Phase",8003,"","Recall1",3606
"kw781666","place","site",73,1,"Read Version A","location","Study1","S","Study","Study Phase",8199,"","Recall1",16720
"w10026256_hc","site","site",81,1,"Read Version A","location","Study1","S","Study","Study Phase",8002,"","Recall1",3952
"w10029079_mjm","spot","site",26,1,"Read Version A","location","Study1","S","Study","Study Phase",8002,"","Recall1",4997
"w10065796_sjb","place","site",42,1,"Read Version A","location","Study1","S","Study","Study Phase",8000,"","Recall1",4201
"w10074365_jbk","place","site",76,1,"Read Version A","location","Study1","S","Study","Study Phase",8002,"","Recall1",6029
"w10079083bdd","","site",29,1,"Read Version A","location","Study1","S","Study","Study Phase",8002,"","Recall1",2969
"w10096664_jer","SPOT","site",20,1,"Read Version A","location","Study1","S","Study","Study Phase",8011,"","Recall1",7007
"w10100015_cgs","ON","site",12,1,"Read Version A","location","Study1","S","Study","Study Phase",8006,"","Recall1",2053
"w10106710BL","map","site",52,1,"Read Version A","location","Study1","S","Study","Study Phase",8004,"","Recall1",2984
"w10107871LD","map","site",62,1,"Read Version A","location","Study1","S","Study","Study Phase",8035,"","Recall1",3555
"w10112492ke","","site",53,1,"Read Version A","location","Study1","S","Study","Study Phase",8004,"","Recall1",16392
"w10112505","place","site",66,1,"Read Version A","location","Study1","S","Study","Study Phase",8011,"","Recall1",4366
"w10123816_lac","site","site",10,1,"Read Version A","location","Study1","S","Study","Study Phase",8002,"","Recall1",6059
"W10129411_WB","Site","site",22,1,"Read Version A","location","Study1","S","Study","Study Phase",8001,"","Recall1",3406
"10079569MO","position","position",10,1,"Read Version A","machine","Study1","U","Study","Study Phase",8005,"","Recall1",5948
"kw781666","position","position",65,1,"Read Version A","machine","Study1","U","Study","Study Phase",8006,"","Recall1",11818
"w10026256_hc","robot","position",87,1,"Read Version A","machine","Study1","U","Study","Study Phase",8001,"","Recall1",6209
"w10029079_mjm","work","position",50,1,"Read Version A","machine","Study1","U","Study","Study Phase",8560,"","Recall1",2005
"w10065796_sjb","worker","position",23,1,"Read Version A","machine","Study1","U","Study","Study Phase",8003,"","Recall1",4432
"w10074365_jbk","technology","position",27,1,"Read Version A","machine","Study1","U","Study","Study Phase",8003,"","Recall1",9241
"w10079083bdd","order","position",13,1,"Read Version A","machine","Study1","U","Study","Study Phase",8002,"","Recall1",5969
"w10096664_jer","Paper","position",76,1,"Read Version A","machine","Study1","U","Study","Study Phase",8010,"","Recall1",4992
"w10100015_cgs","WASH","position",29,1,"Read Version A","machine","Study1","U","Study","Study Phase",8002,"","Recall1",1861
"w10106710BL","","position",11,1,"Read Version A","machine","Study1","U","Study","Study Phase",8003,"","Recall1",7201
"w10107871LD","tool","position",39,1,"Read Version A","machine","Study1","U","Study","Study Phase",8010,"","Recall1",5147
"w10112492ke","","position",64,1,"Read Version A","machine","Study1","U","Study","Study Phase",8005,"","Recall1",2113
"w10112505","","position",72,1,"Read Version A","machine","Study1","U","Study","Study Phase",8004,"","Recall1",6892
"w10123816_lac","site","position",32,1,"Read Version A","machine","Study1","U","Study","Study Phase",8003,"","Recall1",10069
"W10129411_WB","Position","position",34,1,"Read Version A","machine","Study1","U","Study","Study Phase",8002,"","Recall1",11237
"10079569MO","number","division",54,1,"Read Version A","math","Study1","B","Study","Study Phase",8001,"","Recall1",2923
"kw781666","","division",52,1,"Read Version A","math","Study1","B","Study","Study Phase",8007,"","Recall1",281
"w10026256_hc","boring","division",62,1,"Read Version A","math","Study1","B","Study","Study Phase",8001,"","Recall1",3658
"w10029079_mjm","numbers","division",60,1,"Read Version A","math","Study1","B","Study","Study Phase",8002,"","Recall1",6948
"w10065796_sjb","equation","division",65,1,"Read Version A","math","Study1","B","Study","Study Phase",8002,"","Recall1",4518
"w10074365_jbk","work","division",17,1,"Read Version A","math","Study1","B","Study","Study Phase",8006,"","Recall1",6356
"w10079083bdd","school","division",20,1,"Read Version A","math","Study1","B","Study","Study Phase",8006,"","Recall1",3612
"w10096664_jer","","division",61,1,"Read Version A","math","Study1","B","Study","Study Phase",8007,"","Recall1",5677
"w10100015_cgs","HARD","division",73,1,"Read Version A","math","Study1","B","Study","Study Phase",8002,"","Recall1",1553
"w10106710BL","division","division",27,1,"Read Version A","math","Study1","B","Study","Study Phase",8002,"","Recall1",2736
"w10107871LD","number ","division",28,1,"Read Version A","math","Study1","B","Study","Study Phase",8009,"","Recall1",8899
"w10112492ke","subtract","division",11,1,"Read Version A","math","Study1","B","Study","Study Phase",8004,"","Recall1",15085
"w10112505","numbers","division",73,1,"Read Version A","math","Study1","B","Study","Study Phase",8005,"","Recall1",4944
"w10123816_lac","numbers","division",56,1,"Read Version A","math","Study1","B","Study","Study Phase",8005,"","Recall1",7579
"W10129411_WB","Division","division",60,1,"Read Version A","math","Study1","B","Study","Study Phase",8001,"","Recall1",2972
"10079569MO","definition","definition",79,1,"Read Version A","meaning","Study1","S","Study","Study Phase",8003,"","Recall1",2900
"kw781666","definition","definition",57,1,"Read Version A","meaning","Study1","S","Study","Study Phase",8009,"","Recall1",5414
"w10026256_hc","sentence","definition",17,1,"Read Version A","meaning","Study1","S","Study","Study Phase",8006,"","Recall1",4837
"w10029079_mjm","saying","definition",73,1,"Read Version A","meaning","Study1","S","Study","Study Phase",8002,"","Recall1",3272
"w10065796_sjb","definition","definition",53,1,"Read Version A","meaning","Study1","S","Study","Study Phase",8001,"","Recall1",3203
"w10074365_jbk","definition","definition",88,1,"Read Version A","meaning","Study1","S","Study","Study Phase",8003,"","Recall1",8685
"w10079083bdd","word","definition",17,1,"Read Version A","meaning","Study1","S","Study","Study Phase",8006,"","Recall1",5911
"w10096664_jer","Definition ","definition",67,1,"Read Version A","meaning","Study1","S","Study","Study Phase",8006,"","Recall1",7016
"w10100015_cgs","DEAD","definition",48,1,"Read Version A","meaning","Study1","S","Study","Study Phase",8009,"","Recall1",3655
"w10106710BL","definition","definition",45,1,"Read Version A","meaning","Study1","S","Study","Study Phase",8006,"","Recall1",2969
"w10107871LD","word","definition",80,1,"Read Version A","meaning","Study1","S","Study","Study Phase",8005,"","Recall1",3543
"w10112492ke","space","definition",61,1,"Read Version A","meaning","Study1","S","Study","Study Phase",8004,"","Recall1",24951
"w10112505","word","definition",80,1,"Read Version A","meaning","Study1","S","Study","Study Phase",8012,"","Recall1",2983
"w10123816_lac","word","definition",82,1,"Read Version A","meaning","Study1","S","Study","Study Phase",8002,"","Recall1",4686
"W10129411_WB","Definition","definition",53,1,"Read Version A","meaning","Study1","S","Study","Study Phase",8000,"","Recall1",4262
"10079569MO","amount","amount",46,1,"Read Version A","number","Study1","S","Study","Study Phase",8005,"","Recall1",8387
"kw781666","","amount",62,1,"Read Version A","number","Study1","S","Study","Study Phase",8005,"","Recall1",813
"w10026256_hc","letter","amount",31,1,"Read Version A","number","Study1","S","Study","Study Phase",8001,"","Recall1",6366
"w10029079_mjm","letter","amount",55,1,"Read Version A","number","Study1","S","Study","Study Phase",8003,"","Recall1",3293
"w10065796_sjb","phone","amount",30,1,"Read Version A","number","Study1","S","Study","Study Phase",8001,"","Recall1",4299
"w10074365_jbk","digit","amount",74,1,"Read Version A","number","Study1","S","Study","Study Phase",8006,"","Recall1",4562
"w10079083bdd","letter","amount",62,1,"Read Version A","number","Study1","S","Study","Study Phase",8003,"","Recall1",2918
"w10096664_jer","Math","amount",57,1,"Read Version A","number","Study1","S","Study","Study Phase",8009,"","Recall1",3519
"w10100015_cgs","ZERO","amount",68,1,"Read Version A","number","Study1","S","Study","Study Phase",8003,"","Recall1",2426
"w10106710BL","","amount",19,1,"Read Version A","number","Study1","S","Study","Study Phase",8002,"","Recall1",3926
"w10107871LD","phone","amount",88,1,"Read Version A","number","Study1","S","Study","Study Phase",8001,"","Recall1",4591
"w10112492ke","","amount",24,1,"Read Version A","number","Study1","S","Study","Study Phase",8004,"","Recall1",3903
"w10112505","call","amount",27,1,"Read Version A","number","Study1","S","Study","Study Phase",8006,"","Recall1",7836
"w10123816_lac","amount","amount",47,1,"Read Version A","number","Study1","S","Study","Study Phase",8002,"","Recall1",3994
"W10129411_WB","Amount","amount",16,1,"Read Version A","number","Study1","S","Study","Study Phase",8001,"","Recall1",2674
"10079569MO","flower","flower",41,1,"Read Version A","orchid","Study1","F","Study","Study Phase",8003,"","Recall1",4518
"kw781666","flower","flower",56,1,"Read Version A","orchid","Study1","F","Study","Study Phase",8006,"","Recall1",5139
"w10026256_hc","flower","flower",32,1,"Read Version A","orchid","Study1","F","Study","Study Phase",8002,"","Recall1",4692
"w10029079_mjm","flower","flower",87,1,"Read Version A","orchid","Study1","F","Study","Study Phase",8006,"","Recall1",2654
"w10065796_sjb","flower","flower",12,1,"Read Version A","orchid","Study1","F","Study","Study Phase",8001,"","Recall1",2696
"w10074365_jbk","flower","flower",34,1,"Read Version A","orchid","Study1","F","Study","Study Phase",8003,"","Recall1",2897
"w10079083bdd","flower","flower",68,1,"Read Version A","orchid","Study1","F","Study","Study Phase",8003,"","Recall1",2363
"w10096664_jer","Flower ","flower",37,1,"Read Version A","orchid","Study1","F","Study","Study Phase",8006,"","Recall1",7251
"w10100015_cgs","FLOWER","flower",37,1,"Read Version A","orchid","Study1","F","Study","Study Phase",8003,"","Recall1",3356
"w10106710BL","flower","flower",78,1,"Read Version A","orchid","Study1","F","Study","Study Phase",8008,"","Recall1",2388
"w10107871LD","flower ","flower",67,1,"Read Version A","orchid","Study1","F","Study","Study Phase",8022,"","Recall1",5575
"w10112492ke","flower","flower",59,1,"Read Version A","orchid","Study1","F","Study","Study Phase",8006,"","Recall1",4102
"w10112505","music","flower",37,1,"Read Version A","orchid","Study1","F","Study","Study Phase",8004,"","Recall1",5928
