Username,ID,ExperimentName,Session,Trial,Date,TimeDif,"Condition Number","Stimuli File","Order File","Condition Description","Condition Notes",Stimuli*Cue,Stimuli*Answer,Stimuli*Shuffle,"Stimuli*Stimuli Notes",Stimuli*Value,Procedure*Item,"Procedure*Trial Type","Procedure*Max Time","Procedure*Min Time",Procedure*Text,"Procedure*Procedure Notes",Procedure*Shuffle,Response*RT,Response*Response,Response*Accuracy,Response*RTfirst,Response*RTlast,Response*strictAcc,Response*lenientAcc,Response*focus,Response*Focus
5ed60b61acd3f60009eab81e,u6rtnlr9gg,"Deep vs Shallow",1,1,2020-07-08T14:34:57-07:00,11.615097045898,3,versionC_stim.csv,RLVersionC.csv,"Realational Version C","Relational, read only version C",,,,,,0,Instruct,-,10,"In this section, you will be presented with a series of word pairs. Please study both items in the pair.",,Instruct15,11309,,,-1,-1,,,,1
5ed60b61acd3f60009eab81e,u6rtnlr9gg,"Deep vs Shallow",1,2,2020-07-08T14:35:13-07:00,16.214902877808,3,versionC_stim.csv,RLVersionC.csv,"Realational Version C","Relational, read only version C",,,,,,0,Instruct,-,15,"As you study, please think about how the two concepts are RELATED to each other. For example, if you see the pair TURTLE-CAT, think about how both are alive, they are both animals, and both can be kept as pets.",,Instruct19,15794,,,-1,-1,,,,1
5ed60b61acd3f60009eab81e,u6rtnlr9gg,"Deep vs Shallow",1,3,2020-07-08T14:35:39-07:00,25.674019098282,3,versionC_stim.csv,RLVersionC.csv,"Realational Version C","Relational, read only version C",,,,,,0,FreeRecall,-,10,"What you should think about as you study each item pair? Type your response in the box below.",,CHECK1,25242,"how each of the items can be linked to one another e.g. things they have in common ",0,5258,23334,0,0,,1
5ed60b61acd3f60009eab81e,u6rtnlr9gg,"Deep vs Shallow",1,4,2020-07-08T14:35:42-07:00,2.8990879058838,3,versionC_stim.csv,RLVersionC.csv,"Realational Version C","Relational, read only version C",,,,,,0,Instruct,User,-,"You will now begin the experiment. Press ENTER when you are ready to begin.",,Instruct000,2531,,,-1,-1,,,,1
5ed60b61acd3f60009eab81e,u6rtnlr9gg,"Deep vs Shallow",1,5,2020-07-08T14:35:52-07:00,10.868578910828,3,versionC_stim.csv,RLVersionC.csv,"Realational Version C","Relational, read only version C",GREEN,TREES,BUFFER1,Buffer,1,6,Study,User,-,,Study/JOL,BUFFER,10434,,,-1,-1,,,,1
5ed60b61acd3f60009eab81e,u6rtnlr9gg,"Deep vs Shallow",1,6,2020-07-08T14:36:01-07:00,8.8081290721893,3,versionC_stim.csv,RLVersionC.csv,"Realational Version C","Relational, read only version C",BUTTER,PEANUT,BUFFER1,Buffer,3,5,Study,User,-,,Study/JOL,BUFFER,8437,,,-1,-1,,,,1
5ed60b61acd3f60009eab81e,u6rtnlr9gg,"Deep vs Shallow",1,7,2020-07-08T14:36:09-07:00,7.4510900974274,3,versionC_stim.csv,RLVersionC.csv,"Realational Version C","Relational, read only version C",CATCHER,BASEBALL,BUFFER1,Buffer,2,2,Study,User,-,,Study/JOL,BUFFER,7071,,,-1,-1,,,,1
5ed60b61acd3f60009eab81e,u6rtnlr9gg,"Deep vs Shallow",1,8,2020-07-08T14:36:19-07:00,10.588102817535,3,versionC_stim.csv,RLVersionC.csv,"Realational Version C","Relational, read only version C",HIDE,SCARE,BUFFER1,Buffer,4,3,Study,User,-,,Study/JOL,BUFFER,10155,,,-1,-1,,,,1
5ed60b61acd3f60009eab81e,u6rtnlr9gg,"Deep vs Shallow",1,9,2020-07-08T14:36:34-07:00,15.0561439991,3,versionC_stim.csv,RLVersionC.csv,"Realational Version C","Relational, read only version C",JAM,SPACE,BUFFER1,Buffer,5,4,Study,User,-,,Study/JOL,BUFFER,14595,,,-1,-1,,,,1
5ed60b61acd3f60009eab81e,u6rtnlr9gg,"Deep vs Shallow",1,10,2020-07-08T14:36:47-07:00,12.539777994156,3,versionC_stim.csv,RLVersionC.csv,"Realational Version C","Relational, read only version C",HUNGRY,PARK,Study1,U,68,44,Study,User,-,,Study/JOL,"Study Phase",12002,,,-1,-1,,,,1
5ed60b61acd3f60009eab81e,u6rtnlr9gg,"Deep vs Shallow",1,11,2020-07-08T14:36:58-07:00,11.073610067368,3,versionC_stim.csv,RLVersionC.csv,"Realational Version C","Relational, read only version C",SIGHT,DEBATE,Study1,U,73,12,Study,User,-,,Study/JOL,"Study Phase",10579,,,-1,-1,,,,1
5ed60b61acd3f60009eab81e,u6rtnlr9gg,"Deep vs Shallow",1,12,2020-07-08T14:37:07-07:00,9.1061580181122,3,versionC_stim.csv,RLVersionC.csv,"Realational Version C","Relational, read only version C",COW,HERD,Study1,B,22,23,Study,User,-,,Study/JOL,"Study Phase",8755,,,-1,-1,,,,1
5ed60b61acd3f60009eab81e,u6rtnlr9gg,"Deep vs Shallow",1,13,2020-07-08T14:37:19-07:00,12.441050052643,3,versionC_stim.csv,RLVersionC.csv,"Realational Version C","Relational, read only version C",CHORE,WORK,Study1,F,39,32,Study,User,-,,Study/JOL,"Study Phase",11930,,,-1,-1,,,,1
5ed60b61acd3f60009eab81e,u6rtnlr9gg,"Deep vs Shallow",1,14,2020-07-08T14:37:28-07:00,8.239305973053,3,versionC_stim.csv,RLVersionC.csv,"Realational Version C","Relational, read only version C",BEE,HONEY,Study1,S,63,58,Study,User,-,,Study/JOL,"Study Phase",7875,,,-1,-1,,,,1
5ed60b61acd3f60009eab81e,u6rtnlr9gg,"Deep vs Shallow",1,15,2020-07-08T14:37:36-07:00,8.4072029590607,3,versionC_stim.csv,RLVersionC.csv,"Realational Version C","Relational, read only version C",CAVE,DARK,Study1,F,28,41,Study,User,-,,Study/JOL,"Study Phase",8023,,,-1,-1,,,,1
5ed60b61acd3f60009eab81e,u6rtnlr9gg,"Deep vs Shallow",1,16,2020-07-08T14:37:44-07:00,7.750321149826,3,versionC_stim.csv,RLVersionC.csv,"Realational Version C","Relational, read only version C",WASP,BUG,Study1,F,32,73,Study,User,-,,Study/JOL,"Study Phase",7378,,,-1,-1,,,,1
5ed60b61acd3f60009eab81e,u6rtnlr9gg,"Deep vs Shallow",1,17,2020-07-08T14:37:51-07:00,7.5922808647156,3,versionC_stim.csv,RLVersionC.csv,"Realational Version C","Relational, read only version C",CHILD,BABY,Study1,S,64,27,Study,User,-,,Study/JOL,"Study Phase",7215,,,-1,-1,,,,1
5ed60b61acd3f60009eab81e,u6rtnlr9gg,"Deep vs Shallow",1,18,2020-07-08T14:38:01-07:00,9.9163870811462,3,versionC_stim.csv,RLVersionC.csv,"Realational Version C","Relational, read only version C",WATER,BRIDGE,Study1,B,18,49,Study,User,-,,Study/JOL,"Study Phase",9567,,,-1,-1,,,,1
5ed60b61acd3f60009eab81e,u6rtnlr9gg,"Deep vs Shallow",1,19,2020-07-08T14:38:08-07:00,6.9561860561371,3,versionC_stim.csv,RLVersionC.csv,"Realational Version C","Relational, read only version C",SODA,POP,Study1,S,56,67,Study,User,-,,Study/JOL,"Study Phase",6583,,,-1,-1,,,,1
5ed60b61acd3f60009eab81e,u6rtnlr9gg,"Deep vs Shallow",1,20,2020-07-08T14:38:16-07:00,7.9312717914581,3,versionC_stim.csv,RLVersionC.csv,"Realational Version C","Relational, read only version C",RIDDLE,SUGAR,Study1,U,81,70,Study,User,-,,Study/JOL,"Study Phase",7572,,,-1,-1,,,,1
5ed60b61acd3f60009eab81e,u6rtnlr9gg,"Deep vs Shallow",1,21,2020-07-08T14:38:29-07:00,12.523725032806,3,versionC_stim.csv,RLVersionC.csv,"Realational Version C","Relational, read only version C",NEWS,EDITOR,Study1,B,10,25,Study,User,-,,Study/JOL,"Study Phase",10988,,,-1,-1,,,,1
5ed60b61acd3f60009eab81e,u6rtnlr9gg,"Deep vs Shallow",1,22,2020-07-08T14:38:37-07:00,8.0973579883575,3,versionC_stim.csv,RLVersionC.csv,"Realational Version C","Relational, read only version C",WORD,SENTENCE,Study1,F,31,15,Study,User,-,,Study/JOL,"Study Phase",7708,,,-1,-1,,,,1
5ed60b61acd3f60009eab81e,u6rtnlr9gg,"Deep vs Shallow",1,23,2020-07-08T14:38:43-07:00,6.1921191215515,3,versionC_stim.csv,RLVersionC.csv,"Realational Version C","Relational, read only version C",AMOUNT,NUMBER,Study1,S,47,42,Study,User,-,,Study/JOL,"Study Phase",5850,,,-1,-1,,,,1
5ed60b61acd3f60009eab81e,u6rtnlr9gg,"Deep vs Shallow",1,24,2020-07-08T14:38:50-07:00,6.7032580375671,3,versionC_stim.csv,RLVersionC.csv,"Realational Version C","Relational, read only version C",FLOWER,ORCHID,Study1,B,24,26,Study,User,-,,Study/JOL,"Study Phase",6351,,,-1,-1,,,,1
5ed60b61acd3f60009eab81e,u6rtnlr9gg,"Deep vs Shallow",1,25,2020-07-08T14:38:56-07:00,6.2410068511963,3,versionC_stim.csv,RLVersionC.csv,"Realational Version C","Relational, read only version C",BAD,DELINQUENT,Study1,B,6,22,Study,User,-,,Study/JOL,"Study Phase",5881,,,-1,-1,,,,1
5ed60b61acd3f60009eab81e,u6rtnlr9gg,"Deep vs Shallow",1,26,2020-07-08T14:39:04-07:00,7.9693109989166,3,versionC_stim.csv,RLVersionC.csv,"Realational Version C","Relational, read only version C",CAR,HAPPY,Study1,U,77,14,Study,User,-,,Study/JOL,"Study Phase",7619,,,-1,-1,,,,1
5ed60b61acd3f60009eab81e,u6rtnlr9gg,"Deep vs Shallow",1,27,2020-07-08T14:39:12-07:00,7.9313631057739,3,versionC_stim.csv,RLVersionC.csv,"Realational Version C","Relational, read only version C",HAND,FIX,Study1,U,75,84,Study,User,-,,Study/JOL,"Study Phase",7591,,,-1,-1,,,,1
5ed60b61acd3f60009eab81e,u6rtnlr9gg,"Deep vs Shallow",1,28,2020-07-08T14:39:22-07:00,10.067719936371,3,versionC_stim.csv,RLVersionC.csv,"Realational Version C","Relational, read only version C",TALK,DISCUSSION,Study1,B,21,75,Study,User,-,,Study/JOL,"Study Phase",8705,,,-1,-1,,,,1
5ed60b61acd3f60009eab81e,u6rtnlr9gg,"Deep vs Shallow",1,29,2020-07-08T14:39:29-07:00,6.5516560077667,3,versionC_stim.csv,RLVersionC.csv,"Realational Version C","Relational, read only version C",STING,HORNET,Study1,B,11,55,Study,User,-,,Study/JOL,"Study Phase",6186,,,-1,-1,,,,1
5ed60b61acd3f60009eab81e,u6rtnlr9gg,"Deep vs Shallow",1,30,2020-07-08T14:39:37-07:00,8.0208430290222,3,versionC_stim.csv,RLVersionC.csv,"Realational Version C","Relational, read only version C",FISH,TUNA,Study1,B,25,66,Study,User,-,,Study/JOL,"Study Phase",7683,,,-1,-1,,,,1
5ed60b61acd3f60009eab81e,u6rtnlr9gg,"Deep vs Shallow",1,31,2020-07-08T14:39:44-07:00,7.4712669849396,3,versionC_stim.csv,RLVersionC.csv,"Realational Version C","Relational, read only version C",SIP,DRINK,Study1,F,27,29,Study,User,-,,Study/JOL,"Study Phase",7123,,,-1,-1,,,,1
5ed60b61acd3f60009eab81e,u6rtnlr9gg,"Deep vs Shallow",1,32,2020-07-08T14:39:51-07:00,7.3636350631714,3,versionC_stim.csv,RLVersionC.csv,"Realational Version C","Relational, read only version C",ROUND,CIRCLE,Study1,S,65,35,Study,User,-,,Study/JOL,"Study Phase",7011,,,-1,-1,,,,1
5ed60b61acd3f60009eab81e,u6rtnlr9gg,"Deep vs Shallow",1,33,2020-07-08T14:39:57-07:00,5.2643799781799,3,versionC_stim.csv,RLVersionC.csv,"Realational Version C","Relational, read only version C",MONEY,WAGE,Study1,B,8,54,Study,User,-,,Study/JOL,"Study Phase",4900,,,-1,-1,,,,1
5ed60b61acd3f60009eab81e,u6rtnlr9gg,"Deep vs Shallow",1,34,2020-07-08T14:40:03-07:00,5.8704669475555,3,versionC_stim.csv,RLVersionC.csv,"Realational Version C","Relational, read only version C",PLANT,ROOT,Study1,B,13,85,Study,User,-,,Study/JOL,"Study Phase",5524,,,-1,-1,,,,1
5ed60b61acd3f60009eab81e,u6rtnlr9gg,"Deep vs Shallow",1,35,2020-07-08T14:40:08-07:00,5.4472720623016,3,versionC_stim.csv,RLVersionC.csv,"Realational Version C","Relational, read only version C",CHILI,HOT,Study1,F,37,31,Study,User,-,,Study/JOL,"Study Phase",5113,,,-1,-1,,,,1
5ed60b61acd3f60009eab81e,u6rtnlr9gg,"Deep vs Shallow",1,36,2020-07-08T14:40:15-07:00,7.1731169223785,3,versionC_stim.csv,RLVersionC.csv,"Realational Version C","Relational, read only version C",LATCH,KEY,Study1,F,36,81,Study,User,-,,Study/JOL,"Study Phase",6824,,,-1,-1,,,,1
5ed60b61acd3f60009eab81e,u6rtnlr9gg,"Deep vs Shallow",1,37,2020-07-08T14:40:27-07:00,11.344991922379,3,versionC_stim.csv,RLVersionC.csv,"Realational Version C","Relational, read only version C",DIVISION,MATH,Study1,F,33,24,Study,User,-,,Study/JOL,"Study Phase",10876,,,-1,-1,,,,1
5ed60b61acd3f60009eab81e,u6rtnlr9gg,"Deep vs Shallow",1,38,2020-07-08T14:40:35-07:00,8.6619682312012,3,versionC_stim.csv,RLVersionC.csv,"Realational Version C","Relational, read only version C",WOULD,CASH,Study1,U,83,59,Study,User,-,,Study/JOL,"Study Phase",8320,,,-1,-1,,,,1
5ed60b61acd3f60009eab81e,u6rtnlr9gg,"Deep vs Shallow",1,39,2020-07-08T14:40:41-07:00,6.098748922348,3,versionC_stim.csv,RLVersionC.csv,"Realational Version C","Relational, read only version C",TOILET,BATHROOM,Study1,S,58,46,Study,User,-,,Study/JOL,"Study Phase",5729,,,-1,-1,,,,1
5ed60b61acd3f60009eab81e,u6rtnlr9gg,"Deep vs Shallow",1,40,2020-07-08T14:40:46-07:00,4.8159399032593,3,versionC_stim.csv,RLVersionC.csv,"Realational Version C","Relational, read only version C",HAMMER,CHISEL,Study1,B,9,79,Study,User,-,,Study/JOL,"Study Phase",4438,,,-1,-1,,,,1
5ed60b61acd3f60009eab81e,u6rtnlr9gg,"Deep vs Shallow",1,41,2020-07-08T14:40:56-07:00,10.384896039963,3,versionC_stim.csv,RLVersionC.csv,"Realational Version C","Relational, read only version C",CLEAN,HYGIENE,Study1,B,17,38,Study,User,-,,Study/JOL,"Study Phase",9906,,,-1,-1,,,,1
5ed60b61acd3f60009eab81e,u6rtnlr9gg,"Deep vs Shallow",1,42,2020-07-08T14:41:06-07:00,9.3197090625763,3,versionC_stim.csv,RLVersionC.csv,"Realational Version C","Relational, read only version C",TUCK,ALLOW,Study1,U,78,19,Study,User,-,,Study/JOL,"Study Phase",8900,,,-1,-1,,,,1
5ed60b61acd3f60009eab81e,u6rtnlr9gg,"Deep vs Shallow",1,43,2020-07-08T14:41:15-07:00,9.6289439201355,3,versionC_stim.csv,RLVersionC.csv,"Realational Version C","Relational, read only version C",STENCH,SMELL,Study1,F,42,36,Study,User,-,,Study/JOL,"Study Phase",9261,,,-1,-1,,,,1
5ed60b61acd3f60009eab81e,u6rtnlr9gg,"Deep vs Shallow",1,44,2020-07-08T14:41:20-07:00,4.7707719802856,3,versionC_stim.csv,RLVersionC.csv,"Realational Version C","Relational, read only version C",,,,,,0,Instruct,-,3,"Remember to focus on how the two items are similiar while you study!",,CHECK2,4438,,,-1,-1,,,,1
5ed60b61acd3f60009eab81e,u6rtnlr9gg,"Deep vs Shallow",1,45,2020-07-08T14:41:32-07:00,11.367365121841,3,versionC_stim.csv,RLVersionC.csv,"Realational Version C","Relational, read only version C",FANTASTIC,GREAT,Study1,F,35,72,Study,User,-,,Study/JOL,"Study Phase",10928,,,-1,-1,,,,1
5ed60b61acd3f60009eab81e,u6rtnlr9gg,"Deep vs Shallow",1,46,2020-07-08T14:41:43-07:00,11.008604049683,3,versionC_stim.csv,RLVersionC.csv,"Realational Version C","Relational, read only version C",CLUTTER,PUSHER,Study1,U,66,64,Study,User,-,,Study/JOL,"Study Phase",10541,,,-1,-1,,,,1
5ed60b61acd3f60009eab81e,u6rtnlr9gg,"Deep vs Shallow",1,47,2020-07-08T14:41:55-07:00,12.235583782196,3,versionC_stim.csv,RLVersionC.csv,"Realational Version C","Relational, read only version C",LIVER,KIDNEY,Study1,S,53,71,Study,User,-,,Study/JOL,"Study Phase",11786,,,-1,-1,,,,1
5ed60b61acd3f60009eab81e,u6rtnlr9gg,"Deep vs Shallow",1,48,2020-07-08T14:42:07-07:00,11.878162145615,3,versionC_stim.csv,RLVersionC.csv,"Realational Version C","Relational, read only version C",DESIGN,ARCHITECTURE,Study1,S,51,83,Study,User,-,,Study/JOL,"Study Phase",11440,,,-1,-1,,,,1
5ed60b61acd3f60009eab81e,u6rtnlr9gg,"Deep vs Shallow",1,49,2020-07-08T14:42:20-07:00,13.086811065674,3,versionC_stim.csv,RLVersionC.csv,"Realational Version C","Relational, read only version C",ENOUGH,FULL,Study1,F,26,8,Study,User,-,,Study/JOL,"Study Phase",12614,,,-1,-1,,,,1
5ed60b61acd3f60009eab81e,u6rtnlr9gg,"Deep vs Shallow",1,50,2020-07-08T14:42:34-07:00,13.991004943848,3,versionC_stim.csv,RLVersionC.csv,"Realational Version C","Relational, read only version C",BRONZE,ARTERY,Study1,U,74,10,Study,User,-,,Study/JOL,"Study Phase",13534,,,-1,-1,,,,1
5ed60b61acd3f60009eab81e,u6rtnlr9gg,"Deep vs Shallow",1,51,2020-07-08T14:42:46-07:00,12.340062856674,3,versionC_stim.csv,RLVersionC.csv,"Realational Version C","Relational, read only version C",BIRD,SWAN,Study1,B,14,82,Study,User,-,,Study/JOL,"Study Phase",11866,,,-1,-1,,,,1
5ed60b61acd3f60009eab81e,u6rtnlr9gg,"Deep vs Shallow",1,52,2020-07-08T14:42:56-07:00,10.285925149918,3,versionC_stim.csv,RLVersionC.csv,"Realational Version C","Relational, read only version C",BAR,GRILL,Study1,S,52,56,Study,User,-,,Study/JOL,"Study Phase",9815,,,-1,-1,,,,1
5ed60b61acd3f60009eab81e,u6rtnlr9gg,"Deep vs Shallow",1,53,2020-07-08T14:43:11-07:00,14.773855924606,3,versionC_stim.csv,RLVersionC.csv,"Realational Version C","Relational, read only version C",WOMAN,LIFT,Study1,U,69,48,Study,User,-,,Study/JOL,"Study Phase",14299,,,-1,-1,,,,1
5ed60b61acd3f60009eab81e,u6rtnlr9gg,"Deep vs Shallow",1,54,2020-07-08T14:43:20-07:00,9.2809550762177,3,versionC_stim.csv,RLVersionC.csv,"Realational Version C","Relational, read only version C",FUTURE,PAST,Study1,S,61,37,Study,User,-,,Study/JOL,"Study Phase",8934,,,-1,-1,,,,1
5ed60b61acd3f60009eab81e,u6rtnlr9gg,"Deep vs Shallow",1,55,2020-07-08T14:43:30-07:00,9.7104349136353,3,versionC_stim.csv,RLVersionC.csv,"Realational Version C","Relational, read only version C",FAMINE,HUNGER,Study1,F,40,65,Study,User,-,,Study/JOL,"Study Phase",9361,,,-1,-1,,,,1
5ed60b61acd3f60009eab81e,u6rtnlr9gg,"Deep vs Shallow",1,56,2020-07-08T14:43:42-07:00,12.291760921478,3,versionC_stim.csv,RLVersionC.csv,"Realational Version C","Relational, read only version C",SEIZE,TAKE,Study1,F,29,34,Study,User,-,,Study/JOL,"Study Phase",11851,,,-1,-1,,,,1
5ed60b61acd3f60009eab81e,u6rtnlr9gg,"Deep vs Shallow",1,57,2020-07-08T14:43:50-07:00,7.5226721763611,3,versionC_stim.csv,RLVersionC.csv,"Realational Version C","Relational, read only version C",END,BEGIN,Study1,S,54,43,Study,User,-,,Study/JOL,"Study Phase",7185,,,-1,-1,,,,1
5ed60b61acd3f60009eab81e,u6rtnlr9gg,"Deep vs Shallow",1,58,2020-07-08T14:44:16-07:00,26.059940814972,3,versionC_stim.csv,RLVersionC.csv,"Realational Version C","Relational, read only version C",BUSINESS,DEATH,Study1,U,72,77,Study,User,-,,Study/JOL,"Study Phase",25632,,,-1,-1,,,,1
5ed60b61acd3f60009eab81e,u6rtnlr9gg,"Deep vs Shallow",1,59,2020-07-08T14:44:29-07:00,12.587890148163,3,versionC_stim.csv,RLVersionC.csv,"Realational Version C","Relational, read only version C",CARD,CREDIT,Study1,B,23,11,Study,User,-,,Study/JOL,"Study Phase",12153,,,-1,-1,,,,1
5ed60b61acd3f60009eab81e,u6rtnlr9gg,"Deep vs Shallow",1,60,2020-07-08T14:44:45-07:00,16.248286008835,3,versionC_stim.csv,RLVersionC.csv,"Realational Version C","Relational, read only version C",SACKING,DIETARY,Study1,U,67,74,Study,User,-,,Study/JOL,"Study Phase",15799,,,-1,-1,,,,1
5ed60b61acd3f60009eab81e,u6rtnlr9gg,"Deep vs Shallow",1,61,2020-07-08T14:44:57-07:00,12.210057973862,3,versionC_stim.csv,RLVersionC.csv,"Realational Version C","Relational, read only version C",POSITION,MACHINE,Study1,U,76,21,Study,User,-,,Study/JOL,"Study Phase",11779,,,-1,-1,,,,1
5ed60b61acd3f60009eab81e,u6rtnlr9gg,"Deep vs Shallow",1,62,2020-07-08T14:45:05-07:00,8.000972032547,3,versionC_stim.csv,RLVersionC.csv,"Realational Version C","Relational, read only version C",BELT,SOON,Study1,U,70,16,Study,User,-,,Study/JOL,"Study Phase",7628,,,-1,-1,,,,1
5ed60b61acd3f60009eab81e,u6rtnlr9gg,"Deep vs Shallow",1,63,2020-07-08T14:45:14-07:00,9.2350268363953,3,versionC_stim.csv,RLVersionC.csv,"Realational Version C","Relational, read only version C",COLD,BITTER,Study1,B,12,28,Study,User,-,,Study/JOL,"Study Phase",8889,,,-1,-1,,,,1
5ed60b61acd3f60009eab81e,u6rtnlr9gg,"Deep vs Shallow",1,64,2020-07-08T14:45:23-07:00,9.1471772193909,3,versionC_stim.csv,RLVersionC.csv,"Realational Version C","Relational, read only version C",VASE,KING,Study1,U,85,7,Study,User,-,,Study/JOL,"Study Phase",8800,,,-1,-1,,,,1
5ed60b61acd3f60009eab81e,u6rtnlr9gg,"Deep vs Shallow",1,65,2020-07-08T14:45:33-07:00,9.5860748291016,3,versionC_stim.csv,RLVersionC.csv,"Realational Version C","Relational, read only version C",WIND,BLOW,Study1,S,55,57,Study,User,-,,Study/JOL,"Study Phase",9216,,,-1,-1,,,,1
5ed60b61acd3f60009eab81e,u6rtnlr9gg,"Deep vs Shallow",1,66,2020-07-08T14:45:43-07:00,9.8499331474304,3,versionC_stim.csv,RLVersionC.csv,"Realational Version C","Relational, read only version C",BLAZE,FIRE,Study1,F,45,60,Study,User,-,,Study/JOL,"Study Phase",9510,,,-1,-1,,,,1
5ed60b61acd3f60009eab81e,u6rtnlr9gg,"Deep vs Shallow",1,67,2020-07-08T14:45:53-07:00,10.222327947617,3,versionC_stim.csv,RLVersionC.csv,"Realational Version C","Relational, read only version C",ATTORNEY,LAW,Study1,F,34,18,Study,User,-,,Study/JOL,"Study Phase",9795,,,-1,-1,,,,1
5ed60b61acd3f60009eab81e,u6rtnlr9gg,"Deep vs Shallow",1,68,2020-07-08T14:46:00-07:00,6.6572830677032,3,versionC_stim.csv,RLVersionC.csv,"Realational Version C","Relational, read only version C",ATTIRE,CLOTHES,Study1,F,43,30,Study,User,-,,Study/JOL,"Study Phase",6311,,,-1,-1,,,,1
5ed60b61acd3f60009eab81e,u6rtnlr9gg,"Deep vs Shallow",1,69,2020-07-08T14:46:13-07:00,12.935818910599,3,versionC_stim.csv,RLVersionC.csv,"Realational Version C","Relational, read only version C",WAR,REVOLUTION,Study1,B,20,20,Study,User,-,,Study/JOL,"Study Phase",12510,,,-1,-1,,,,1
5ed60b61acd3f60009eab81e,u6rtnlr9gg,"Deep vs Shallow",1,70,2020-07-08T14:46:27-07:00,14.165467977524,3,versionC_stim.csv,RLVersionC.csv,"Realational Version C","Relational, read only version C",SICK,HIDE,Study1,U,84,51,Study,User,-,,Study/JOL,"Study Phase",13705,,,-1,-1,,,,1
5ed60b61acd3f60009eab81e,u6rtnlr9gg,"Deep vs Shallow",1,71,2020-07-08T14:46:39-07:00,12.329821109772,3,versionC_stim.csv,RLVersionC.csv,"Realational Version C","Relational, read only version C",RACKET,BALL,Study1,F,38,52,Study,User,-,,Study/JOL,"Study Phase",11841,,,-1,-1,,,,1
5ed60b61acd3f60009eab81e,u6rtnlr9gg,"Deep vs Shallow",1,72,2020-07-08T14:46:56-07:00,16.693909883499,3,versionC_stim.csv,RLVersionC.csv,"Realational Version C","Relational, read only version C",FLOOR,DISCOVER,Study1,U,71,40,Study,User,-,,Study/JOL,"Study Phase",16253,,,-1,-1,,,,1
5ed60b61acd3f60009eab81e,u6rtnlr9gg,"Deep vs Shallow",1,73,2020-07-08T14:47:09-07:00,13.110978126526,3,versionC_stim.csv,RLVersionC.csv,"Realational Version C","Relational, read only version C",ACCIDENT,STRONG,Study1,U,80,63,Study,User,-,,Study/JOL,"Study Phase",10567,,,-1,-1,,,,1
5ed60b61acd3f60009eab81e,u6rtnlr9gg,"Deep vs Shallow",1,74,2020-07-08T14:47:19-07:00,10.039580821991,3,versionC_stim.csv,RLVersionC.csv,"Realational Version C","Relational, read only version C",PILOT,PLANE,Study1,F,44,53,Study,User,-,,Study/JOL,"Study Phase",9599,,,-1,-1,,,,1
5ed60b61acd3f60009eab81e,u6rtnlr9gg,"Deep vs Shallow",1,75,2020-07-08T14:47:29-07:00,9.9940400123596,3,versionC_stim.csv,RLVersionC.csv,"Realational Version C","Relational, read only version C",DROWSY,SLEEP,Study1,F,41,62,Study,User,-,,Study/JOL,"Study Phase",9649,,,-1,-1,,,,1
5ed60b61acd3f60009eab81e,u6rtnlr9gg,"Deep vs Shallow",1,76,2020-07-08T14:47:37-07:00,8.4493761062622,3,versionC_stim.csv,RLVersionC.csv,"Realational Version C","Relational, read only version C",DEFINITION,MEANING,Study1,S,62,9,Study,User,-,,Study/JOL,"Study Phase",8108,,,-1,-1,,,,1
5ed60b61acd3f60009eab81e,u6rtnlr9gg,"Deep vs Shallow",1,77,2020-07-08T14:47:45-07:00,7.1694149971008,3,versionC_stim.csv,RLVersionC.csv,"Realational Version C","Relational, read only version C",SALAD,LETTUCE,Study1,S,59,47,Study,User,-,,Study/JOL,"Study Phase",6826,,,-1,-1,,,,1
5ed60b61acd3f60009eab81e,u6rtnlr9gg,"Deep vs Shallow",1,78,2020-07-08T14:48:12-07:00,27.371989011765,3,versionC_stim.csv,RLVersionC.csv,"Realational Version C","Relational, read only version C",LION,ART,Study1,U,79,69,Study,User,-,,Study/JOL,"Study Phase",26917,,,-1,-1,,,,0.697
5ed60b61acd3f60009eab81e,u6rtnlr9gg,"Deep vs Shallow",1,79,2020-07-08T14:48:23-07:00,10.627449989319,3,versionC_stim.csv,RLVersionC.csv,"Realational Version C","Relational, read only version C",GROWTH,HEIGHT,Study1,F,30,68,Study,User,-,,Study/JOL,"Study Phase",10167,,,-1,-1,,,,1
5ed60b61acd3f60009eab81e,u6rtnlr9gg,"Deep vs Shallow",1,80,2020-07-08T14:48:36-07:00,13.136178970337,3,versionC_stim.csv,RLVersionC.csv,"Realational Version C","Relational, read only version C",ROCK,GEOLOGY,Study1,B,19,61,Study,User,-,,Study/JOL,"Study Phase",12692,,,-1,-1,,,,1
5ed60b61acd3f60009eab81e,u6rtnlr9gg,"Deep vs Shallow",1,81,2020-07-08T14:48:48-07:00,12.543663024902,3,versionC_stim.csv,RLVersionC.csv,"Realational Version C","Relational, read only version C",CHEESE,WINE,Study1,S,57,17,Study,User,-,,Study/JOL,"Study Phase",12112,,,-1,-1,,,,1
5ed60b61acd3f60009eab81e,u6rtnlr9gg,"Deep vs Shallow",1,82,2020-07-08T14:49:03-07:00,14.520457983017,3,versionC_stim.csv,RLVersionC.csv,"Realational Version C","Relational, read only version C",SITE,LOCATION,Study1,S,48,39,Study,User,-,,Study/JOL,"Study Phase",14053,,,-1,-1,,,,1
5ed60b61acd3f60009eab81e,u6rtnlr9gg,"Deep vs Shallow",1,83,2020-07-08T14:49:12-07:00,9.1285200119019,3,versionC_stim.csv,RLVersionC.csv,"Realational Version C","Relational, read only version C",FOOT,SHOE,Study1,S,60,78,Study,User,-,,Study/JOL,"Study Phase",8778,,,-1,-1,,,,1
5ed60b61acd3f60009eab81e,u6rtnlr9gg,"Deep vs Shallow",1,84,2020-07-08T14:49:21-07:00,8.9031958580017,3,versionC_stim.csv,RLVersionC.csv,"Realational Version C","Relational, read only version C",STOMACH,DIGESTION,Study1,B,7,33,Study,User,-,,Study/JOL,"Study Phase",8540,,,-1,-1,,,,1
5ed60b61acd3f60009eab81e,u6rtnlr9gg,"Deep vs Shallow",1,85,2020-07-08T14:49:29-07:00,8.2704150676727,3,versionC_stim.csv,RLVersionC.csv,"Realational Version C","Relational, read only version C",WASTE,DUMP,Study1,S,49,76,Study,User,-,,Study/JOL,"Study Phase",7880,,,-1,-1,,,,1
5ed60b61acd3f60009eab81e,u6rtnlr9gg,"Deep vs Shallow",1,86,2020-07-08T14:49:40-07:00,11.321994066238,3,versionC_stim.csv,RLVersionC.csv,"Realational Version C","Relational, read only version C",ASSIGNMENT,DUE,Study1,S,46,13,Study,User,-,,Study/JOL,"Study Phase",10799,,,-1,-1,,,,1
5ed60b61acd3f60009eab81e,u6rtnlr9gg,"Deep vs Shallow",1,87,2020-07-08T14:49:58-07:00,17.378396034241,3,versionC_stim.csv,RLVersionC.csv,"Realational Version C","Relational, read only version C",ADD,VALLEY,Study1,U,82,45,Study,User,-,,Study/JOL,"Study Phase",16935,,,-1,-1,,,,1
5ed60b61acd3f60009eab81e,u6rtnlr9gg,"Deep vs Shallow",1,88,2020-07-08T14:50:28-07:00,29.952962875366,3,versionC_stim.csv,RLVersionC.csv,"Realational Version C","Relational, read only version C",DOG,PAW,Study1,B,15,50,Study,User,-,,Study/JOL,"Study Phase",28522,,,-1,-1,,,,1
5ed60b61acd3f60009eab81e,u6rtnlr9gg,"Deep vs Shallow",1,89,2020-07-08T14:50:34-07:00,6.3066601753235,3,versionC_stim.csv,RLVersionC.csv,"Realational Version C","Relational, read only version C",OUT,WAY,Study1,B,16,86,Study,User,-,,Study/JOL,"Study Phase",5930,,,-1,-1,,,,1
5ed60b61acd3f60009eab81e,u6rtnlr9gg,"Deep vs Shallow",1,90,2020-07-08T14:50:45-07:00,10.643893957138,3,versionC_stim.csv,RLVersionC.csv,"Realational Version C","Relational, read only version C",JURY,TRIAL,Study1,S,50,80,Study,User,-,,Study/JOL,"Study Phase",10146,,,-1,-1,,,,1
5ed60b61acd3f60009eab81e,u6rtnlr9gg,"Deep vs Shallow",1,91,2020-07-08T14:50:55-07:00,10.587193965912,3,versionC_stim.csv,RLVersionC.csv,"Realational Version C","Relational, read only version C",SPACE,MOON,BUFFER2,Buffer,89,90,Study,User,-,,Study/JOL,BUFFER2,10150,,,-1,-1,,,,1
5ed60b61acd3f60009eab81e,u6rtnlr9gg,"Deep vs Shallow",1,92,2020-07-08T14:51:11-07:00,15.598067998886,3,versionC_stim.csv,RLVersionC.csv,"Realational Version C","Relational, read only version C",GOOSE,GEESE,BUFFER2,Buffer,86,88,Study,User,-,,Study/JOL,BUFFER2,15151,,,-1,-1,,,,1
5ed60b61acd3f60009eab81e,u6rtnlr9gg,"Deep vs Shallow",1,93,2020-07-08T14:51:25-07:00,13.666013002396,3,versionC_stim.csv,RLVersionC.csv,"Realational Version C","Relational, read only version C",POLICE,SHERRIF,BUFFER2,Buffer,87,87,Study,User,-,,Study/JOL,BUFFER2,13196,,,-1,-1,,,,1
5ed60b61acd3f60009eab81e,u6rtnlr9gg,"Deep vs Shallow",1,94,2020-07-08T14:51:35-07:00,10.715749979019,3,versionC_stim.csv,RLVersionC.csv,"Realational Version C","Relational, read only version C",STUFF,THING,BUFFER2,Buffer,90,89,Study,User,-,,Study/JOL,BUFFER2,10277,,,-1,-1,,,,1
5ed60b61acd3f60009eab81e,u6rtnlr9gg,"Deep vs Shallow",1,95,2020-07-08T14:51:48-07:00,13.009850025177,3,versionC_stim.csv,RLVersionC.csv,"Realational Version C","Relational, read only version C",CHOCOLATE,MALT,BUFFER2,Buffer,88,91,Study,User,-,,Study/JOL,BUFFER2,12561,,,-1,-1,,,,1
5ed60b61acd3f60009eab81e,u6rtnlr9gg,"Deep vs Shallow",1,96,2020-07-08T14:51:51-07:00,2.5506429672241,3,versionC_stim.csv,RLVersionC.csv,"Realational Version C","Relational, read only version C",,,,,,0,Instruct,User,-,"You have completed this section. Please press Enter.",Filler_Instruction,Instruct2,2200,,,-1,-1,,,,1
5ed60b61acd3f60009eab81e,u6rtnlr9gg,"Deep vs Shallow",1,97,2020-07-08T14:51:53-07:00,2.0719149112701,3,versionC_stim.csv,RLVersionC.csv,"Realational Version C","Relational, read only version C",,,,,,0,Instruct,User,-,"You have completed this section. Please press Enter.",Filler_Instruction,Instruct5,1719,,,-1,-1,,,,1
5ed60b61acd3f60009eab81e,u6rtnlr9gg,"Deep vs Shallow",1,98,2020-07-08T14:52:31-07:00,37.899713993073,3,versionC_stim.csv,RLVersionC.csv,"Realational Version C","Relational, read only version C",,,,,,0,FreeRecall,-,10,"What were you supposed to focus on while you studied each pair? (Hint: Think back to the instructions). Type your answer in the space below.",,CHECK3,37432,"how the two concepts are related to each other. ",0,4730,36299,0,0,,1
5ed60b61acd3f60009eab81e,u6rtnlr9gg,"Deep vs Shallow",1,99,2020-07-08T14:54:31-07:00,120.43018698692,3,versionC_stim.csv,RLVersionC.csv,"Realational Version C","Relational, read only version C",,,,,,0,FreeRecall,120,120,"Please list the 50 US states in alphabetical order. The task will automatically advance to the next screen after two minutes.",,Filler1,120002,"Arizona Alaska Boston Chicago Dalas Hawaii Kentucky Louisianna New York Orlando Philladep",0,6776,119593,0,0,,1
5ed60b61acd3f60009eab81e,u6rtnlr9gg,"Deep vs Shallow",1,100,2020-07-08T14:54:44-07:00,12.251023054123,3,versionC_stim.csv,RLVersionC.csv,"Realational Version C","Relational, read only version C",,,,,,0,Instruct,-,10,"You will now be presented with the first word from each of the previously studied item pairs. Please type the missing word. If you do not know the word, you may guess or press Enter to skip forward to the next pair.",,Instruct3,11809,,,-1,-1,,,,1
5ed60b61acd3f60009eab81e,u6rtnlr9gg,"Deep vs Shallow",1,101,2020-07-08T14:54:47-07:00,3.8461909294128,3,versionC_stim.csv,RLVersionC.csv,"Realational Version C","Relational, read only version C",SALAD,LETTUCE,Study1,S,59,47,Test,User,-,,Recall,Recall1,3493,lettuce,100,1893,3007,1,1,,1
5ed60b61acd3f60009eab81e,u6rtnlr9gg,"Deep vs Shallow",1,102,2020-07-08T14:54:51-07:00,3.1529850959778,3,versionC_stim.csv,RLVersionC.csv,"Realational Version C","Relational, read only version C",SITE,LOCATION,Study1,S,48,39,Test,User,-,,Recall,Recall1,2762,location,100,1580,2507,1,1,,1
5ed60b61acd3f60009eab81e,u6rtnlr9gg,"Deep vs Shallow",1,103,2020-07-08T14:54:54-07:00,3.7034509181976,3,versionC_stim.csv,RLVersionC.csv,"Realational Version C","Relational, read only version C",BRONZE,ARTERY,Study1,U,74,10,Test,User,-,,Recall,Recall1,3353,artery,100,1949,2892,1,1,,1
5ed60b61acd3f60009eab81e,u6rtnlr9gg,"Deep vs Shallow",1,104,2020-07-08T14:54:57-07:00,2.2791860103607,3,versionC_stim.csv,RLVersionC.csv,"Realational Version C","Relational, read only version C",LATCH,KEY,Study1,F,36,81,Test,User,-,,Recall,Recall1,1913,key,100,1294,1599,1,1,,1
5ed60b61acd3f60009eab81e,u6rtnlr9gg,"Deep vs Shallow",1,105,2020-07-08T14:55:05-07:00,8.5220329761505,3,versionC_stim.csv,RLVersionC.csv,"Realational Version C","Relational, read only version C",PLANT,ROOT,Study1,B,13,85,Test,User,-,,Recall,Recall1,8059,tree,25,1399,7876,0,0,,1
5ed60b61acd3f60009eab81e,u6rtnlr9gg,"Deep vs Shallow",1,106,2020-07-08T14:55:08-07:00,3.1222410202026,3,versionC_stim.csv,RLVersionC.csv,"Realational Version C","Relational, read only version C",BIRD,SWAN,Study1,B,14,82,Test,User,-,,Recall,Recall1,2631,swan,100,1783,2289,1,1,,1
5ed60b61acd3f60009eab81e,u6rtnlr9gg,"Deep vs Shallow",1,107,2020-07-08T14:55:11-07:00,3.2155749797821,3,versionC_stim.csv,RLVersionC.csv,"Realational Version C","Relational, read only version C",ASSIGNMENT,DUE,Study1,S,46,13,Test,User,-,,Recall,Recall1,2734,due,100,1801,2526,1,1,,1
5ed60b61acd3f60009eab81e,u6rtnlr9gg,"Deep vs Shallow",1,108,2020-07-08T14:55:22-07:00,10.510248184204,3,versionC_stim.csv,RLVersionC.csv,"Realational Version C","Relational, read only version C",SACKING,DIETARY,Study1,U,67,74,Test,User,-,,Recall,Recall1,10056,fire,36.363636363636,9534,9886,0,0,,1
5ed60b61acd3f60009eab81e,u6rtnlr9gg,"Deep vs Shallow",1,109,2020-07-08T14:55:30-07:00,7.7643508911133,3,versionC_stim.csv,RLVersionC.csv,"Realational Version C","Relational, read only version C",BUSINESS,DEATH,Study1,U,72,77,Test,User,-,,Recall,Recall1,7426,death,100,6374,6925,1,1,,1
5ed60b61acd3f60009eab81e,u6rtnlr9gg,"Deep vs Shallow",1,110,2020-07-08T14:55:33-07:00,2.9968500137329,3,versionC_stim.csv,RLVersionC.csv,"Realational Version C","Relational, read only version C",SIP,DRINK,Study1,F,27,29,Test,User,-,,Recall,Recall1,2626,drink,100,1684,2295,1,1,,1
5ed60b61acd3f60009eab81e,u6rtnlr9gg,"Deep vs Shallow",1,111,2020-07-08T14:55:36-07:00,3.2915799617767,3,versionC_stim.csv,RLVersionC.csv,"Realational Version C","Relational, read only version C",NEWS,EDITOR,Study1,B,10,25,Test,User,-,,Recall,Recall1,2935,editor,100,1582,2819,1,1,,1
5ed60b61acd3f60009eab81e,u6rtnlr9gg,"Deep vs Shallow",1,112,2020-07-08T14:55:40-07:00,4.1428220272064,3,versionC_stim.csv,RLVersionC.csv,"Realational Version C","Relational, read only version C",CLEAN,HYGIENE,Study1,B,17,38,Test,User,-,,Recall,Recall1,3802,hygeine,85.714285714286,1185,3295,0,1,,1
5ed60b61acd3f60009eab81e,u6rtnlr9gg,"Deep vs Shallow",1,113,2020-07-08T14:55:46-07:00,5.4107141494751,3,versionC_stim.csv,RLVersionC.csv,"Realational Version C","Relational, read only version C",WAR,REVOLUTION,Study1,B,20,20,Test,User,-,,Recall,Recall1,5054,revolution,100,1295,3705,1,1,,1
5ed60b61acd3f60009eab81e,u6rtnlr9gg,"Deep vs Shallow",1,114,2020-07-08T14:56:05-07:00,19.457166910172,3,versionC_stim.csv,RLVersionC.csv,"Realational Version C","Relational, read only version C",ACCIDENT,STRONG,Study1,U,80,63,Test,User,-,,Recall,Recall1,18999,strong,100,15864,18685,1,1,,1
5ed60b61acd3f60009eab81e,u6rtnlr9gg,"Deep vs Shallow",1,115,2020-07-08T14:56:07-07:00,2.2998969554901,3,versionC_stim.csv,RLVersionC.csv,"Realational Version C","Relational, read only version C",HAND,FIX,Study1,U,75,84,Test,User,-,,Recall,Recall1,1894,fix,100,1350,1832,1,1,,1
5ed60b61acd3f60009eab81e,u6rtnlr9gg,"Deep vs Shallow",1,116,2020-07-08T14:56:19-07:00,12.130124092102,3,versionC_stim.csv,RLVersionC.csv,"Realational Version C","Relational, read only version C",CHILI,HOT,Study1,F,37,31,Test,User,-,,Recall,Recall1,11699,hot,100,1868,10601,1,1,,1
5ed60b61acd3f60009eab81e,u6rtnlr9gg,"Deep vs Shallow",1,117,2020-07-08T14:56:36-07:00,16.761333942413,3,versionC_stim.csv,RLVersionC.csv,"Realational Version C","Relational, read only version C",AMOUNT,NUMBER,Study1,S,47,42,Test,User,-,,Recall,Recall1,16300,"number ",100,7068,16037,1,1,,1
5ed60b61acd3f60009eab81e,u6rtnlr9gg,"Deep vs Shallow",1,118,2020-07-08T14:56:42-07:00,5.4707880020142,3,versionC_stim.csv,RLVersionC.csv,"Realational Version C","Relational, read only version C",FANTASTIC,GREAT,Study1,F,35,72,Test,User,-,,Recall,Recall1,5113,great,100,1508,3880,1,1,,1
5ed60b61acd3f60009eab81e,u6rtnlr9gg,"Deep vs Shallow",1,119,2020-07-08T14:56:44-07:00,1.941351890564,3,versionC_stim.csv,RLVersionC.csv,"Realational Version C","Relational, read only version C",CHEESE,WINE,Study1,S,57,17,Test,User,-,,Recall,Recall1,1592,wine,100,1043,1318,1,1,,1
5ed60b61acd3f60009eab81e,u6rtnlr9gg,"Deep vs Shallow",1,120,2020-07-08T14:56:51-07:00,7.6915040016174,3,versionC_stim.csv,RLVersionC.csv,"Realational Version C","Relational, read only version C",POSITION,MACHINE,Study1,U,76,21,Test,User,-,,Recall,Recall1,7362,,0,-1,-1,0,0,,1
5ed60b61acd3f60009eab81e,u6rtnlr9gg,"Deep vs Shallow",1,121,2020-07-08T14:56:55-07:00,3.3103520870209,3,versionC_stim.csv,RLVersionC.csv,"Realational Version C","Relational, read only version C",SICK,HIDE,Study1,U,84,51,Test,User,-,,Recall,Recall1,2940,,0,-1,-1,0,0,,1
5ed60b61acd3f60009eab81e,u6rtnlr9gg,"Deep vs Shallow",1,122,2020-07-08T14:56:58-07:00,3.5442399978638,3,versionC_stim.csv,RLVersionC.csv,"Realational Version C","Relational, read only version C",HAMMER,CHISEL,Study1,B,9,79,Test,User,-,,Recall,Recall1,3182,chisel,100,2045,2758,1,1,,1
5ed60b61acd3f60009eab81e,u6rtnlr9gg,"Deep vs Shallow",1,123,2020-07-08T14:57:01-07:00,3.3575930595398,3,versionC_stim.csv,RLVersionC.csv,"Realational Version C","Relational, read only version C",FLOWER,ORCHID,Study1,B,24,26,Test,User,-,,Recall,Recall1,2996,"orchid ",100,1015,2676,1,1,,1
5ed60b61acd3f60009eab81e,u6rtnlr9gg,"Deep vs Shallow",1,124,2020-07-08T14:57:04-07:00,2.5712828636169,3,versionC_stim.csv,RLVersionC.csv,"Realational Version C","Relational, read only version C",END,BEGIN,Study1,S,54,43,Test,User,-,,Recall,Recall1,2227,begin,100,1448,1934,1,1,,1
5ed60b61acd3f60009eab81e,u6rtnlr9gg,"Deep vs Shallow",1,125,2020-07-08T14:57:07-07:00,2.489128112793,3,versionC_stim.csv,RLVersionC.csv,"Realational Version C","Relational, read only version C",ATTIRE,CLOTHES,Study1,F,43,30,Test,User,-,,Recall,Recall1,2132,clothes,100,1266,2039,1,1,,1
5ed60b61acd3f60009eab81e,u6rtnlr9gg,"Deep vs Shallow",1,126,2020-07-08T15:00:26-07:00,199.33912587166,3,versionC_stim.csv,RLVersionC.csv,"Realational Version C","Relational, read only version C",FLOOR,DISCOVER,Study1,U,71,40,Test,User,-,,Recall,Recall1,3831,discover,100,2440,3545,1,1,,1
5ed60b61acd3f60009eab81e,u6rtnlr9gg,"Deep vs Shallow",1,127,2020-07-08T15:00:29-07:00,2.9408581256866,3,versionC_stim.csv,RLVersionC.csv,"Realational Version C","Relational, read only version C",STENCH,SMELL,Study1,F,42,36,Test,User,-,,Recall,Recall1,2287,smell,100,1578,2105,1,1,,1
5ed60b61acd3f60009eab81e,u6rtnlr9gg,"Deep vs Shallow",1,128,2020-07-08T15:00:32-07:00,3.0575640201569,3,versionC_stim.csv,RLVersionC.csv,"Realational Version C","Relational, read only version C",DROWSY,SLEEP,Study1,F,41,62,Test,User,-,,Recall,Recall1,2158,sleep,100,1489,1941,1,1,,1
5ed60b61acd3f60009eab81e,u6rtnlr9gg,"Deep vs Shallow",1,129,2020-07-08T15:00:34-07:00,2.1237499713898,3,versionC_stim.csv,RLVersionC.csv,"Realational Version C","Relational, read only version C",SODA,POP,Study1,S,56,67,Test,User,-,,Recall,Recall1,1566,pop,100,1031,1285,1,1,,1
5ed60b61acd3f60009eab81e,u6rtnlr9gg,"Deep vs Shallow",1,130,2020-07-08T15:00:37-07:00,3.3773429393768,3,versionC_stim.csv,RLVersionC.csv,"Realational Version C","Relational, read only version C",CHILD,BABY,Study1,S,64,27,Test,User,-,,Recall,Recall1,2437,baby,100,1843,2174,1,1,,1
5ed60b61acd3f60009eab81e,u6rtnlr9gg,"Deep vs Shallow",1,131,2020-07-08T15:00:42-07:00,4.5379829406738,3,versionC_stim.csv,RLVersionC.csv,"Realational Version C","Relational, read only version C",WORD,SENTENCE,Study1,F,31,15,Test,User,-,,Recall,Recall1,3526,sentence,100,1410,3314,1,1,,1
5ed60b61acd3f60009eab81e,u6rtnlr9gg,"Deep vs Shallow",1,132,2020-07-08T15:00:47-07:00,5.3371741771698,3,versionC_stim.csv,RLVersionC.csv,"Realational Version C","Relational, read only version C",HUNGRY,PARK,Study1,U,68,44,Test,User,-,,Recall,Recall1,4572,famine,20,3716,4387,0,0,,1
5ed60b61acd3f60009eab81e,u6rtnlr9gg,"Deep vs Shallow",1,133,2020-07-08T15:00:50-07:00,2.3091280460358,3,versionC_stim.csv,RLVersionC.csv,"Realational Version C","Relational, read only version C",WASTE,DUMP,Study1,S,49,76,Test,User,-,,Recall,Recall1,1686,dump,100,924,1439,1,1,,1
5ed60b61acd3f60009eab81e,u6rtnlr9gg,"Deep vs Shallow",1,134,2020-07-08T15:00:52-07:00,2.8949058055878,3,versionC_stim.csv,RLVersionC.csv,"Realational Version C","Relational, read only version C",ROUND,CIRCLE,Study1,S,65,35,Test,User,-,,Recall,Recall1,2158,,0,-1,-1,0,0,,1
5ed60b61acd3f60009eab81e,u6rtnlr9gg,"Deep vs Shallow",1,135,2020-07-08T15:00:57-07:00,4.2885789871216,3,versionC_stim.csv,RLVersionC.csv,"Realational Version C","Relational, read only version C",BLAZE,FIRE,Study1,F,45,60,Test,User,-,,Recall,Recall1,3033,fire,100,2598,2904,1,1,,1
5ed60b61acd3f60009eab81e,u6rtnlr9gg,"Deep vs Shallow",1,136,2020-07-08T15:01:02-07:00,4.9712991714478,3,versionC_stim.csv,RLVersionC.csv,"Realational Version C","Relational, read only version C",TUCK,ALLOW,Study1,U,78,19,Test,User,-,,Recall,Recall1,4102,,0,-1,-1,0,0,,1
5ed60b61acd3f60009eab81e,u6rtnlr9gg,"Deep vs Shallow",1,137,2020-07-08T15:01:05-07:00,3.0119779109955,3,versionC_stim.csv,RLVersionC.csv,"Realational Version C","Relational, read only version C",ATTORNEY,LAW,Study1,F,34,18,Test,User,-,,Recall,Recall1,2341,law,100,1498,2228,1,1,,1
5ed60b61acd3f60009eab81e,u6rtnlr9gg,"Deep vs Shallow",1,138,2020-07-08T15:01:14-07:00,9.2846639156342,3,versionC_stim.csv,RLVersionC.csv,"Realational Version C","Relational, read only version C",SIGHT,DEBATE,Study1,U,73,12,Test,User,-,,Recall,Recall1,7339,,0,1575,2185,0,0,,1
5ed60b61acd3f60009eab81e,u6rtnlr9gg,"Deep vs Shallow",1,139,2020-07-08T15:01:21-07:00,7.4897820949554,3,versionC_stim.csv,RLVersionC.csv,"Realational Version C","Relational, read only version C",BELT,SOON,Study1,U,70,16,Test,User,-,,Recall,Recall1,6599,soon,100,5489,6327,1,1,,1
5ed60b61acd3f60009eab81e,u6rtnlr9gg,"Deep vs Shallow",1,140,2020-07-08T15:01:28-07:00,6.4745609760284,3,versionC_stim.csv,RLVersionC.csv,"Realational Version C","Relational, read only version C",GROWTH,HEIGHT,Study1,F,30,68,Test,User,-,,Recall,Recall1,5823,height,100,4816,5409,1,1,,1
5ed60b61acd3f60009eab81e,u6rtnlr9gg,"Deep vs Shallow",1,141,2020-07-08T15:01:32-07:00,3.6085770130157,3,versionC_stim.csv,RLVersionC.csv,"Realational Version C","Relational, read only version C",PILOT,PLANE,Study1,F,44,53,Test,User,-,,Recall,Recall1,2863,plane,100,1207,2617,1,1,,1
5ed60b61acd3f60009eab81e,u6rtnlr9gg,"Deep vs Shallow",1,142,2020-07-08T15:01:35-07:00,2.9762890338898,3,versionC_stim.csv,RLVersionC.csv,"Realational Version C","Relational, read only version C",FOOT,SHOE,Study1,S,60,78,Test,User,-,,Recall,Recall1,2166,shoe,100,1579,2045,1,1,,1
5ed60b61acd3f60009eab81e,u6rtnlr9gg,"Deep vs Shallow",1,143,2020-07-08T15:01:44-07:00,9.9207680225372,3,versionC_stim.csv,RLVersionC.csv,"Realational Version C","Relational, read only version C",STOMACH,DIGESTION,Study1,B,7,33,Test,User,-,,Recall,Recall1,8986,digestion,100,7509,8763,1,1,,1
5ed60b61acd3f60009eab81e,u6rtnlr9gg,"Deep vs Shallow",1,144,2020-07-08T15:01:48-07:00,3.8347518444061,3,versionC_stim.csv,RLVersionC.csv,"Realational Version C","Relational, read only version C",WOMAN,LIFT,Study1,U,69,48,Test,User,-,,Recall,Recall1,3022,lift,100,2459,2939,1,1,,1
5ed60b61acd3f60009eab81e,u6rtnlr9gg,"Deep vs Shallow",1,145,2020-07-08T15:01:58-07:00,9.56081199646,3,versionC_stim.csv,RLVersionC.csv,"Realational Version C","Relational, read only version C",STING,HORNET,Study1,B,11,55,Test,User,-,,Recall,Recall1,7892,hornett,92.307692307692,3186,7778,0,1,,1
5ed60b61acd3f60009eab81e,u6rtnlr9gg,"Deep vs Shallow",1,146,2020-07-08T15:02:07-07:00,8.8499820232391,3,versionC_stim.csv,RLVersionC.csv,"Realational Version C","Relational, read only version C",SEIZE,TAKE,Study1,F,29,34,Test,User,-,,Recall,Recall1,8172,take,100,7518,8022,1,1,,1
5ed60b61acd3f60009eab81e,u6rtnlr9gg,"Deep vs Shallow",1,147,2020-07-08T15:02:26-07:00,19.201209068298,3,versionC_stim.csv,RLVersionC.csv,"Realational Version C","Relational, read only version C",TALK,DISCUSSION,Study1,B,21,75,Test,User,-,,Recall,Recall1,18461,discussion,100,16376,18217,1,1,,1
5ed60b61acd3f60009eab81e,u6rtnlr9gg,"Deep vs Shallow",1,148,2020-07-08T15:02:35-07:00,9.4816160202026,3,versionC_stim.csv,RLVersionC.csv,"Realational Version C","Relational, read only version C",JURY,TRIAL,Study1,S,50,80,Test,User,-,,Recall,Recall1,8637,court,20,7594,8320,0,0,,1
5ed60b61acd3f60009eab81e,u6rtnlr9gg,"Deep vs Shallow",1,149,2020-07-08T15:02:39-07:00,3.6954040527344,3,versionC_stim.csv,RLVersionC.csv,"Realational Version C","Relational, read only version C",ROCK,GEOLOGY,Study1,B,19,61,Test,User,-,,Recall,Recall1,2903,geology,100,1407,2847,1,1,,1
5ed60b61acd3f60009eab81e,u6rtnlr9gg,"Deep vs Shallow",1,150,2020-07-08T15:02:47-07:00,7.439957857132,3,versionC_stim.csv,RLVersionC.csv,"Realational Version C","Relational, read only version C",RIDDLE,SUGAR,Study1,U,81,70,Test,User,-,,Recall,Recall1,6559,,0,-1,-1,0,0,,1
5ed60b61acd3f60009eab81e,u6rtnlr9gg,"Deep vs Shallow",1,151,2020-07-08T15:02:51-07:00,4.0900781154633,3,versionC_stim.csv,RLVersionC.csv,"Realational Version C","Relational, read only version C",WATER,BRIDGE,Study1,B,18,49,Test,User,-,,Recall,Recall1,3254,bridge,100,2380,3017,1,1,,1
5ed60b61acd3f60009eab81e,u6rtnlr9gg,"Deep vs Shallow",1,152,2020-07-08T15:02:53-07:00,2.7368409633636,3,versionC_stim.csv,RLVersionC.csv,"Realational Version C","Relational, read only version C",WIND,BLOW,Study1,S,55,57,Test,User,-,,Recall,Recall1,2101,blow,100,1516,1983,1,1,,1
5ed60b61acd3f60009eab81e,u6rtnlr9gg,"Deep vs Shallow",1,153,2020-07-08T15:02:59-07:00,5.5423219203949,3,versionC_stim.csv,RLVersionC.csv,"Realational Version C","Relational, read only version C",WOULD,CASH,Study1,U,83,59,Test,User,-,,Recall,Recall1,4810,,0,-1,-1,0,0,,1
5ed60b61acd3f60009eab81e,u6rtnlr9gg,"Deep vs Shallow",1,154,2020-07-08T15:03:13-07:00,14.502458095551,3,versionC_stim.csv,RLVersionC.csv,"Realational Version C","Relational, read only version C",CLUTTER,PUSHER,Study1,U,66,64,Test,User,-,,Recall,Recall1,13719,rutter,50,1874,13271,0,0,,1
5ed60b61acd3f60009eab81e,u6rtnlr9gg,"Deep vs Shallow",1,155,2020-07-08T15:03:19-07:00,5.92751288414,3,versionC_stim.csv,RLVersionC.csv,"Realational Version C","Relational, read only version C",ADD,VALLEY,Study1,U,82,45,Test,User,-,,Recall,Recall1,5255,,0,-1,-1,0,0,,1
5ed60b61acd3f60009eab81e,u6rtnlr9gg,"Deep vs Shallow",1,156,2020-07-08T15:03:22-07:00,2.8258821964264,3,versionC_stim.csv,RLVersionC.csv,"Realational Version C","Relational, read only version C",DIVISION,MATH,Study1,F,33,24,Test,User,-,,Recall,Recall1,1895,math,100,1178,1629,1,1,,1
5ed60b61acd3f60009eab81e,u6rtnlr9gg,"Deep vs Shallow",1,157,2020-07-08T15:03:26-07:00,4.2295258045197,3,versionC_stim.csv,RLVersionC.csv,"Realational Version C","Relational, read only version C",BAR,GRILL,Study1,S,52,56,Test,User,-,,Recall,Recall1,2363,grill,100,1246,2123,1,1,,1
5ed60b61acd3f60009eab81e,u6rtnlr9gg,"Deep vs Shallow",1,158,2020-07-08T15:03:30-07:00,3.5005760192871,3,versionC_stim.csv,RLVersionC.csv,"Realational Version C","Relational, read only version C",CARD,CREDIT,Study1,B,23,11,Test,User,-,,Recall,Recall1,2618,credit,100,1396,2302,1,1,,1
5ed60b61acd3f60009eab81e,u6rtnlr9gg,"Deep vs Shallow",1,159,2020-07-08T15:03:34-07:00,3.744246006012,3,versionC_stim.csv,RLVersionC.csv,"Realational Version C","Relational, read only version C",COLD,BITTER,Study1,B,12,28,Test,User,-,,Recall,Recall1,2978,bitter,100,2078,2866,1,1,,1
5ed60b61acd3f60009eab81e,u6rtnlr9gg,"Deep vs Shallow",1,160,2020-07-08T15:03:37-07:00,3.686439037323,3,versionC_stim.csv,RLVersionC.csv,"Realational Version C","Relational, read only version C",RACKET,BALL,Study1,F,38,52,Test,User,-,,Recall,Recall1,3030,ball,100,1154,2748,1,1,,1
5ed60b61acd3f60009eab81e,u6rtnlr9gg,"Deep vs Shallow",1,161,2020-07-08T15:03:40-07:00,3.0119819641113,3,versionC_stim.csv,RLVersionC.csv,"Realational Version C","Relational, read only version C",BEE,HONEY,Study1,S,63,58,Test,User,-,,Recall,Recall1,2302,honey,100,1399,2074,1,1,,1
5ed60b61acd3f60009eab81e,u6rtnlr9gg,"Deep vs Shallow",1,162,2020-07-08T15:03:43-07:00,2.3777520656586,3,versionC_stim.csv,RLVersionC.csv,"Realational Version C","Relational, read only version C",CHORE,WORK,Study1,F,39,32,Test,User,-,,Recall,Recall1,1652,work,100,1037,1415,1,1,,1
5ed60b61acd3f60009eab81e,u6rtnlr9gg,"Deep vs Shallow",1,163,2020-07-08T15:03:47-07:00,4.3915119171143,3,versionC_stim.csv,RLVersionC.csv,"Realational Version C","Relational, read only version C",DEFINITION,MEANING,Study1,S,62,9,Test,User,-,,Recall,Recall1,3718,meaning,100,1070,3262,1,1,,1
5ed60b61acd3f60009eab81e,u6rtnlr9gg,"Deep vs Shallow",1,164,2020-07-08T15:03:52-07:00,4.9912211894989,3,versionC_stim.csv,RLVersionC.csv,"Realational Version C","Relational, read only version C",FUTURE,PAST,Study1,S,61,37,Test,User,-,,Recall,Recall1,4348,past,100,3407,3795,1,1,,1
5ed60b61acd3f60009eab81e,u6rtnlr9gg,"Deep vs Shallow",1,165,2020-07-08T15:03:55-07:00,2.7805399894714,3,versionC_stim.csv,RLVersionC.csv,"Realational Version C","Relational, read only version C",CAVE,DARK,Study1,F,28,41,Test,User,-,,Recall,Recall1,2082,dark,100,1278,1814,1,1,,1
5ed60b61acd3f60009eab81e,u6rtnlr9gg,"Deep vs Shallow",1,166,2020-07-08T15:04:00-07:00,5.5929198265076,3,versionC_stim.csv,RLVersionC.csv,"Realational Version C","Relational, read only version C",LIVER,KIDNEY,Study1,S,53,71,Test,User,-,,Recall,Recall1,3589,kidney,100,1622,3112,1,1,,1
5ed60b61acd3f60009eab81e,u6rtnlr9gg,"Deep vs Shallow",1,167,2020-07-08T15:04:05-07:00,4.2325150966644,3,versionC_stim.csv,RLVersionC.csv,"Realational Version C","Relational, read only version C",CAR,HAPPY,Study1,U,77,14,Test,User,-,,Recall,Recall1,3284,happy,100,2597,3182,1,1,,1
5ed60b61acd3f60009eab81e,u6rtnlr9gg,"Deep vs Shallow",1,168,2020-07-08T15:04:11-07:00,6.6094169616699,3,versionC_stim.csv,RLVersionC.csv,"Realational Version C","Relational, read only version C",MONEY,WAGE,Study1,B,8,54,Test,User,-,,Recall,Recall1,5635,wage,100,4738,5188,1,1,,1
5ed60b61acd3f60009eab81e,u6rtnlr9gg,"Deep vs Shallow",1,169,2020-07-08T15:04:17-07:00,5.358067035675,3,versionC_stim.csv,RLVersionC.csv,"Realational Version C","Relational, read only version C",OUT,WAY,Study1,B,16,86,Test,User,-,,Recall,Recall1,4443,,0,-1,-1,0,0,,1
5ed60b61acd3f60009eab81e,u6rtnlr9gg,"Deep vs Shallow",1,170,2020-07-08T15:04:19-07:00,2.7273271083832,3,versionC_stim.csv,RLVersionC.csv,"Realational Version C","Relational, read only version C",FISH,TUNA,Study1,B,25,66,Test,User,-,,Recall,Recall1,2032,tuna,100,1401,1966,1,1,,1
5ed60b61acd3f60009eab81e,u6rtnlr9gg,"Deep vs Shallow",1,171,2020-07-08T15:04:25-07:00,5.9892318248749,3,versionC_stim.csv,RLVersionC.csv,"Realational Version C","Relational, read only version C",VASE,KING,Study1,U,85,7,Test,User,-,,Recall,Recall1,5222,king,100,4651,5066,1,1,,1
5ed60b61acd3f60009eab81e,u6rtnlr9gg,"Deep vs Shallow",1,172,2020-07-08T15:04:30-07:00,4.946613073349,3,versionC_stim.csv,RLVersionC.csv,"Realational Version C","Relational, read only version C",COW,HERD,Study1,B,22,23,Test,User,-,,Recall,Recall1,4064,herd,100,3214,3743,1,1,,1
5ed60b61acd3f60009eab81e,u6rtnlr9gg,"Deep vs Shallow",1,173,2020-07-08T15:04:36-07:00,5.2570040225983,3,versionC_stim.csv,RLVersionC.csv,"Realational Version C","Relational, read only version C",TOILET,BATHROOM,Study1,S,58,46,Test,User,-,,Recall,Recall1,3424,bathroom,100,1138,3167,1,1,,1
5ed60b61acd3f60009eab81e,u6rtnlr9gg,"Deep vs Shallow",1,174,2020-07-08T15:04:39-07:00,3.4635369777679,3,versionC_stim.csv,RLVersionC.csv,"Realational Version C","Relational, read only version C",ENOUGH,FULL,Study1,F,26,8,Test,User,-,,Recall,Recall1,2678,full,100,2020,2459,1,1,,1
5ed60b61acd3f60009eab81e,u6rtnlr9gg,"Deep vs Shallow",1,175,2020-07-08T15:04:42-07:00,3.3095669746399,3,versionC_stim.csv,RLVersionC.csv,"Realational Version C","Relational, read only version C",FAMINE,HUNGER,Study1,F,40,65,Test,User,-,,Recall,Recall1,2644,hunger,100,1165,1948,1,1,,1
5ed60b61acd3f60009eab81e,u6rtnlr9gg,"Deep vs Shallow",1,176,2020-07-08T15:04:46-07:00,3.7815380096436,3,versionC_stim.csv,RLVersionC.csv,"Realational Version C","Relational, read only version C",DESIGN,ARCHITECTURE,Study1,S,51,83,Test,User,-,,Recall,Recall1,2992,architecture,100,1062,2842,1,1,,1
5ed60b61acd3f60009eab81e,u6rtnlr9gg,"Deep vs Shallow",1,177,2020-07-08T15:04:53-07:00,7.2234311103821,3,versionC_stim.csv,RLVersionC.csv,"Realational Version C","Relational, read only version C",LION,ART,Study1,U,79,69,Test,User,-,,Recall,Recall1,6514,,0,-1,-1,0,0,,1
5ed60b61acd3f60009eab81e,u6rtnlr9gg,"Deep vs Shallow",1,178,2020-07-08T15:04:59-07:00,6.0541038513184,3,versionC_stim.csv,RLVersionC.csv,"Realational Version C","Relational, read only version C",DOG,PAW,Study1,B,15,50,Test,User,-,,Recall,Recall1,5218,,0,-1,-1,0,0,,1
5ed60b61acd3f60009eab81e,u6rtnlr9gg,"Deep vs Shallow",1,179,2020-07-08T15:05:04-07:00,4.7415289878845,3,versionC_stim.csv,RLVersionC.csv,"Realational Version C","Relational, read only version C",BAD,DELINQUENT,Study1,B,6,22,Test,User,-,,Recall,Recall1,3795,delinquent,100,1733,3350,1,1,,1
5ed60b61acd3f60009eab81e,u6rtnlr9gg,"Deep vs Shallow",1,180,2020-07-08T15:05:09-07:00,4.8172490596771,3,versionC_stim.csv,RLVersionC.csv,"Realational Version C","Relational, read only version C",WASP,BUG,Study1,F,32,73,Test,User,-,,Recall,Recall1,4166,bug,100,3255,3473,1,1,,1
5ed60b61acd3f60009eab81e,u6rtnlr9gg,"Deep vs Shallow",1,181,2020-07-08T15:05:21-07:00,11.585681915283,3,versionC_stim.csv,RLVersionC.csv,"Realational Version C","Relational, read only version C",,,,,,0,Instruct,,10,"You will now be presented with a new set of word pairs. Please study each pair. Remember that your memory will be tested! When finished, press Enter to move to the next pair.",Initial_Instruct,Instruct4,10878,,,-1,-1,,,,1
5ed60b61acd3f60009eab81e,u6rtnlr9gg,"Deep vs Shallow",1,182,2020-07-08T15:05:37-07:00,16.694722175598,3,versionC_stim.csv,RLVersionC.csv,"Realational Version C","Relational, read only version C",,,,,,0,Instruct,-,15,"As you study, please think about how the two concepts are RELATED to each other. For example, if you see the pair TURTLE-CAT, think about how both are alive, they are both animals, and both can be kept as pets.",,Instruct20,15990,,,-1,-1,,,,1
5ed60b61acd3f60009eab81e,u6rtnlr9gg,"Deep vs Shallow",1,183,2020-07-08T15:05:53-07:00,15.83948302269,3,versionC_stim.csv,RLVersionC.csv,"Realational Version C","Relational, read only version C",,,,,,0,FreeRecall,-,10,"What you should think about as you study each item pair? Type your response in the box below.",,CHECK4,14899,"study how the concepts relate to each other ",0,1459,13843,0,0,,1
5ed60b61acd3f60009eab81e,u6rtnlr9gg,"Deep vs Shallow",1,184,2020-07-08T15:05:55-07:00,2.2623598575592,3,versionC_stim.csv,RLVersionC.csv,"Realational Version C","Relational, read only version C",,,,,,0,Instruct,User,-,"Press Enter when you are readty to begin",,Instruct11,1664,,,-1,-1,,,,1
5ed60b61acd3f60009eab81e,u6rtnlr9gg,"Deep vs Shallow",1,185,2020-07-08T15:06:09-07:00,13.327065944672,3,versionC_stim.csv,RLVersionC.csv,"Realational Version C","Relational, read only version C",FROZEN,ICE,BUFFER3,Buffer,94,96,Study,User,-,,Study/JOL,BUFFER3,12645,,,-1,-1,,,,1
5ed60b61acd3f60009eab81e,u6rtnlr9gg,"Deep vs Shallow",1,186,2020-07-08T15:06:20-07:00,10.956940174103,3,versionC_stim.csv,RLVersionC.csv,"Realational Version C","Relational, read only version C",POTATO,CARROT,BUFFER3,Buffer,91,95,Study,User,-,,Study/JOL,BUFFER3,9161,,,-1,-1,,,,1
5ed60b61acd3f60009eab81e,u6rtnlr9gg,"Deep vs Shallow",1,187,2020-07-08T15:06:45-07:00,25.582597017288,3,versionC_stim.csv,RLVersionC.csv,"Realational Version C","Relational, read only version C",STRING,NOODLE,BUFFER3,Buffer,92,92,Study,User,-,,Study/JOL,BUFFER3,24608,,,-1,-1,,,,1
5ed60b61acd3f60009eab81e,u6rtnlr9gg,"Deep vs Shallow",1,188,2020-07-08T15:06:58-07:00,13.05707192421,3,versionC_stim.csv,RLVersionC.csv,"Realational Version C","Relational, read only version C",ADVENTURE,CAMP,BUFFER3,Buffer,95,94,Study,User,-,,Study/JOL,BUFFER3,11204,,,-1,-1,,,,1
5ed60b61acd3f60009eab81e,u6rtnlr9gg,"Deep vs Shallow",1,189,2020-07-08T15:07:10-07:00,11.369651079178,3,versionC_stim.csv,RLVersionC.csv,"Realational Version C","Relational, read only version C",FISH,SHRIMP,BUFFER3,Buffer,93,93,Study,User,-,,Study/JOL,BUFFER3,10377,,,-1,-1,,,,1
5ed60b61acd3f60009eab81e,u6rtnlr9gg,"Deep vs Shallow",1,190,2020-07-08T15:07:20-07:00,10.152130842209,3,versionC_stim.csv,RLVersionC.csv,"Realational Version C","Relational, read only version C",COLD,CHILL,Study2,B,114,166,Study,User,-,,Study/JOL,"Study Phase2",9134,,,-1,-1,,,,1
5ed60b61acd3f60009eab81e,u6rtnlr9gg,"Deep vs Shallow",1,191,2020-07-08T15:07:33-07:00,12.864033937454,3,versionC_stim.csv,RLVersionC.csv,"Realational Version C","Relational, read only version C",EAT,DINE,Study2,B,111,161,Study,User,-,,Study/JOL,"Study Phase2",11946,,,-1,-1,,,,1
5ed60b61acd3f60009eab81e,u6rtnlr9gg,"Deep vs Shallow",1,192,2020-07-08T15:07:41-07:00,8.3597981929779,3,versionC_stim.csv,RLVersionC.csv,"Realational Version C","Relational, read only version C",LONG,EXTENSION,Study2,B,96,104,Study,User,-,,Study/JOL,"Study Phase2",7687,,,-1,-1,,,,1
5ed60b61acd3f60009eab81e,u6rtnlr9gg,"Deep vs Shallow",1,193,2020-07-08T15:07:53-07:00,12.275110006332,3,versionC_stim.csv,RLVersionC.csv,"Realational Version C","Relational, read only version C",DOG,FURRY,Study2,B,102,153,Study,User,-,,Study/JOL,"Study Phase2",11300,,,-1,-1,,,,1
5ed60b61acd3f60009eab81e,u6rtnlr9gg,"Deep vs Shallow",1,194,2020-07-08T15:08:00-07:00,6.4189348220825,3,versionC_stim.csv,RLVersionC.csv,"Realational Version C","Relational, read only version C",TOIL,LEASE,Study2,U,170,168,Study,User,-,,Study/JOL,"Study Phase2",5509,,,-1,-1,,,,1
5ed60b61acd3f60009eab81e,u6rtnlr9gg,"Deep vs Shallow",1,195,2020-07-08T15:08:07-07:00,7.3458030223846,3,versionC_stim.csv,RLVersionC.csv,"Realational Version C","Relational, read only version C",DONKEY,MULE,Study2,B,108,172,Study,User,-,,Study/JOL,"Study Phase2",6369,,,-1,-1,,,,1
5ed60b61acd3f60009eab81e,u6rtnlr9gg,"Deep vs Shallow",1,196,2020-07-08T15:08:16-07:00,8.6272101402283,3,versionC_stim.csv,RLVersionC.csv,"Realational Version C","Relational, read only version C",JOKE,KEYS,Study2,U,165,103,Study,User,-,,Study/JOL,"Study Phase2",7929,,,-1,-1,,,,1
5ed60b61acd3f60009eab81e,u6rtnlr9gg,"Deep vs Shallow",1,197,2020-07-08T15:08:25-07:00,8.8566689491272,3,versionC_stim.csv,RLVersionC.csv,"Realational Version C","Relational, read only version C",STRAWBERRY,FRUIT,Study2,F,124,176,Study,User,-,,Study/JOL,"Study Phase2",5848,,,-1,-1,,,,1
5ed60b61acd3f60009eab81e,u6rtnlr9gg,"Deep vs Shallow",1,198,2020-07-08T15:08:31-07:00,6.1450479030609,3,versionC_stim.csv,RLVersionC.csv,"Realational Version C","Relational, read only version C",JAR,MASON,Study2,S,138,156,Study,User,-,,Study/JOL,"Study Phase2",4437,,,-1,-1,,,,1
5ed60b61acd3f60009eab81e,u6rtnlr9gg,"Deep vs Shallow",1,199,2020-07-08T15:08:41-07:00,10.672230005264,3,versionC_stim.csv,RLVersionC.csv,"Realational Version C","Relational, read only version C",TEMPER,TANTRUM,Study2,S,154,127,Study,User,-,,Study/JOL,"Study Phase2",8826,,,-1,-1,,,,1
5ed60b61acd3f60009eab81e,u6rtnlr9gg,"Deep vs Shallow",1,200,2020-07-08T15:08:50-07:00,8.5008840560913,3,versionC_stim.csv,RLVersionC.csv,"Realational Version C","Relational, read only version C",HATE,NAME,Study2,U,167,136,Study,User,-,,Study/JOL,"Study Phase2",6723,,,-1,-1,,,,1
5ed60b61acd3f60009eab81e,u6rtnlr9gg,"Deep vs Shallow",1,201,2020-07-08T15:08:59-07:00,9.4792149066925,3,versionC_stim.csv,RLVersionC.csv,"Realational Version C","Relational, read only version C",ACTRESS,STAR,Study2,F,120,126,Study,User,-,,Study/JOL,"Study Phase2",8613,,,-1,-1,,,,1
5ed60b61acd3f60009eab81e,u6rtnlr9gg,"Deep vs Shallow",1,202,2020-07-08T15:09:08-07:00,8.6727290153503,3,versionC_stim.csv,RLVersionC.csv,"Realational Version C","Relational, read only version C",BRAWL,FIGHT,Study2,F,135,115,Study,User,-,,Study/JOL,"Study Phase2",7755,,,-1,-1,,,,1
5ed60b61acd3f60009eab81e,u6rtnlr9gg,"Deep vs Shallow",1,203,2020-07-08T15:09:26-07:00,18.016884088516,3,versionC_stim.csv,RLVersionC.csv,"Realational Version C","Relational, read only version C",THIMBLE,THREAD,Study2,F,121,147,Study,User,-,,Study/JOL,"Study Phase2",17104,,,-1,-1,,,,1
5ed60b61acd3f60009eab81e,u6rtnlr9gg,"Deep vs Shallow",1,204,2020-07-08T15:09:47-07:00,20.987653017044,3,versionC_stim.csv,RLVersionC.csv,"Realational Version C","Relational, read only version C",NAP,SLEEP,Study2,F,134,111,Study,User,-,,Study/JOL,"Study Phase2",20264,,,-1,-1,,,,1
5ed60b61acd3f60009eab81e,u6rtnlr9gg,"Deep vs Shallow",1,205,2020-07-08T15:09:54-07:00,6.7136509418488,3,versionC_stim.csv,RLVersionC.csv,"Realational Version C","Relational, read only version C",SCISSORS,SHEARS,Study2,B,112,162,Study,User,-,,Study/JOL,"Study Phase2",4820,,,-1,-1,,,,1
5ed60b61acd3f60009eab81e,u6rtnlr9gg,"Deep vs Shallow",1,206,2020-07-08T15:10:02-07:00,7.9015610218048,3,versionC_stim.csv,RLVersionC.csv,"Realational Version C","Relational, read only version C",PENGUIN,BIRD,Study2,F,119,119,Study,User,-,,Study/JOL,"Study Phase2",7002,,,-1,-1,,,,1
5ed60b61acd3f60009eab81e,u6rtnlr9gg,"Deep vs Shallow",1,207,2020-07-08T15:10:08-07:00,6.7624940872192,3,versionC_stim.csv,RLVersionC.csv,"Realational Version C","Relational, read only version C",NOISE,LOUD,Study2,S,152,171,Study,User,-,,Study/JOL,"Study Phase2",6063,,,-1,-1,,,,1
5ed60b61acd3f60009eab81e,u6rtnlr9gg,"Deep vs Shallow",1,208,2020-07-08T15:10:17-07:00,8.6616189479828,3,versionC_stim.csv,RLVersionC.csv,"Realational Version C","Relational, read only version C",HAVE,OWN,Study2,S,153,124,Study,User,-,,Study/JOL,"Study Phase2",7971,,,-1,-1,,,,1
5ed60b61acd3f60009eab81e,u6rtnlr9gg,"Deep vs Shallow",1,209,2020-07-08T15:10:24-07:00,7.3160669803619,3,versionC_stim.csv,RLVersionC.csv,"Realational Version C","Relational, read only version C",RED,CHERRY,Study2,B,104,121,Study,User,-,,Study/JOL,"Study Phase2",6365,,,-1,-1,,,,1
5ed60b61acd3f60009eab81e,u6rtnlr9gg,"Deep vs Shallow",1,210,2020-07-08T15:10:31-07:00,6.5296840667725,3,versionC_stim.csv,RLVersionC.csv,"Realational Version C","Relational, read only version C",PLANT,CACTUS,Study2,B,98,158,Study,User,-,,Study/JOL,"Study Phase2",5820,,,-1,-1,,,,1
5ed60b61acd3f60009eab81e,u6rtnlr9gg,"Deep vs Shallow",1,211,2020-07-08T15:10:40-07:00,8.7668440341949,3,versionC_stim.csv,RLVersionC.csv,"Realational Version C","Relational, read only version C",CLEAR,MOAT,Study2,U,169,102,Study,User,-,,Study/JOL,"Study Phase2",7872,,,-1,-1,,,,1
5ed60b61acd3f60009eab81e,u6rtnlr9gg,"Deep vs Shallow",1,212,2020-07-08T15:10:49-07:00,8.9776668548584,3,versionC_stim.csv,RLVersionC.csv,"Realational Version C","Relational, read only version C",TICK,FLEA,Study2,S,151,130,Study,User,-,,Study/JOL,"Study Phase2",7225,,,-1,-1,,,,1
5ed60b61acd3f60009eab81e,u6rtnlr9gg,"Deep vs Shallow",1,213,2020-07-08T15:11:22-07:00,32.998190164566,3,versionC_stim.csv,RLVersionC.csv,"Realational Version C","Relational, read only version C",LOVE,AFFECTION,Study2,B,115,175,Study,User,-,,Study/JOL,"Study Phase2",32265,,,-1,-1,,,,1
5ed60b61acd3f60009eab81e,u6rtnlr9gg,"Deep vs Shallow",1,214,2020-07-08T15:11:40-07:00,18.074761867523,3,versionC_stim.csv,RLVersionC.csv,"Realational Version C","Relational, read only version C",CHILDREN,MIRROR,Study2,U,174,100,Study,User,-,,Study/JOL,"Study Phase2",17152,,,-1,-1,,,,1
5ed60b61acd3f60009eab81e,u6rtnlr9gg,"Deep vs Shallow",1,215,2020-07-08T15:12:11-07:00,31.68531703949,3,versionC_stim.csv,RLVersionC.csv,"Realational Version C","Relational, read only version C",REEL,ROD,Study2,S,150,154,Study,User,-,,Study/JOL,"Study Phase2",30748,,,-1,-1,,,,1
5ed60b61acd3f60009eab81e,u6rtnlr9gg,"Deep vs Shallow",1,216,2020-07-08T15:12:42-07:00,31.060920953751,3,versionC_stim.csv,RLVersionC.csv,"Realational Version C","Relational, read only version C",COMMUNICATION,PHONE,Study2,S,149,98,Study,User,-,,Study/JOL,"Study Phase2",30135,,,-1,-1,,,,1
5ed60b61acd3f60009eab81e,u6rtnlr9gg,"Deep vs Shallow",1,217,2020-07-08T15:13:09-07:00,26.788425922394,3,versionC_stim.csv,RLVersionC.csv,"Realational Version C","Relational, read only version C",TRASH,LITTER,Study2,B,103,143,Study,User,-,,Study/JOL,"Study Phase2",26076,,,-1,-1,,,,1
5ed60b61acd3f60009eab81e,u6rtnlr9gg,"Deep vs Shallow",1,218,2020-07-08T15:13:16-07:00,6.8383841514587,3,versionC_stim.csv,RLVersionC.csv,"Realational Version C","Relational, read only version C",LIE,TRUTH,Study2,S,148,128,Study,User,-,,Study/JOL,"Study Phase2",6066,,,-1,-1,,,,1
5ed60b61acd3f60009eab81e,u6rtnlr9gg,"Deep vs Shallow",1,219,2020-07-08T15:13:22-07:00,6.3038640022278,3,versionC_stim.csv,RLVersionC.csv,"Realational Version C","Relational, read only version C",PANTHER,CAT,Study2,F,126,106,Study,User,-,,Study/JOL,"Study Phase2",5612,,,-1,-1,,,,1
5ed60b61acd3f60009eab81e,u6rtnlr9gg,"Deep vs Shallow",1,220,2020-07-08T15:13:34-07:00,11.150987863541,3,versionC_stim.csv,RLVersionC.csv,"Realational Version C","Relational, read only version C",FIGHT,FEUD,Study2,B,113,113,Study,User,-,,Study/JOL,"Study Phase2",9217,,,-1,-1,,,,1
5ed60b61acd3f60009eab81e,u6rtnlr9gg,"Deep vs Shallow",1,221,2020-07-08T15:13:38-07:00,4.055507183075,3,versionC_stim.csv,RLVersionC.csv,"Realational Version C","Relational, read only version C",SMELL,INCENSE,Study2,B,110,110,Study,User,-,,Study/JOL,"Study Phase2",3297,,,-1,-1,,,,1
5ed60b61acd3f60009eab81e,u6rtnlr9gg,"Deep vs Shallow",1,222,2020-07-08T15:13:42-07:00,4.8343110084534,3,versionC_stim.csv,RLVersionC.csv,"Realational Version C","Relational, read only version C",PAPER,DOCUMENT,Study2,B,109,145,Study,User,-,,Study/JOL,"Study Phase2",4161,,,-1,-1,,,,1
5ed60b61acd3f60009eab81e,u6rtnlr9gg,"Deep vs Shallow",1,223,2020-07-08T15:13:52-07:00,9.3174118995667,3,versionC_stim.csv,RLVersionC.csv,"Realational Version C","Relational, read only version C",CLOTHES,CAKE,Study2,U,166,122,Study,User,-,,Study/JOL,"Study Phase2",8554,,,-1,-1,,,,1
5ed60b61acd3f60009eab81e,u6rtnlr9gg,"Deep vs Shallow",1,224,2020-07-08T15:14:11-07:00,19.072516918182,3,versionC_stim.csv,RLVersionC.csv,"Realational Version C","Relational, read only version C",,,,,,0,Instruct,-,3,"Remember to focus on how the two items are similiar while you study!",,CHECK5,18304,,,-1,-1,,,,0.804
5ed60b61acd3f60009eab81e,u6rtnlr9gg,"Deep vs Shallow",1,225,2020-07-08T15:14:19-07:00,8.1271271705627,3,versionC_stim.csv,RLVersionC.csv,"Realational Version C","Relational, read only version C",SCAR,MAIN,Study2,U,175,137,Study,User,-,,Study/JOL,"Study Phase2",7174,,,-1,-1,,,,1
5ed60b61acd3f60009eab81e,u6rtnlr9gg,"Deep vs Shallow",1,226,2020-07-08T15:14:31-07:00,11.812325000763,3,versionC_stim.csv,RLVersionC.csv,"Realational Version C","Relational, read only version C",GROUND,EARTH,Study2,S,144,148,Study,User,-,,Study/JOL,"Study Phase2",10936,,,-1,-1,,,,1
5ed60b61acd3f60009eab81e,u6rtnlr9gg,"Deep vs Shallow",1,227,2020-07-08T15:14:38-07:00,7.7028288841248,3,versionC_stim.csv,RLVersionC.csv,"Realational Version C","Relational, read only version C",CUT,CHOP,Study2,B,107,135,Study,User,-,,Study/JOL,"Study Phase2",7050,,,-1,-1,,,,1
5ed60b61acd3f60009eab81e,u6rtnlr9gg,"Deep vs Shallow",1,228,2020-07-08T15:14:50-07:00,11.59832906723,3,versionC_stim.csv,RLVersionC.csv,"Realational Version C","Relational, read only version C",BANG,FUZZY,Study2,U,168,125,Study,User,-,,Study/JOL,"Study Phase2",9523,,,-1,-1,,,,1
5ed60b61acd3f60009eab81e,u6rtnlr9gg,"Deep vs Shallow",1,229,2020-07-08T15:15:03-07:00,12.678567886353,3,versionC_stim.csv,RLVersionC.csv,"Realational Version C","Relational, read only version C",BALLOON,POP,Study2,F,123,134,Study,User,-,,Study/JOL,"Study Phase2",11889,,,-1,-1,,,,1
5ed60b61acd3f60009eab81e,u6rtnlr9gg,"Deep vs Shallow",1,230,2020-07-08T15:15:17-07:00,14.693804979324,3,versionC_stim.csv,RLVersionC.csv,"Realational Version C","Relational, read only version C",GAME,CLUE,Study2,B,97,165,Study,User,-,,Study/JOL,"Study Phase2",12801,,,-1,-1,,,,1
5ed60b61acd3f60009eab81e,u6rtnlr9gg,"Deep vs Shallow",1,231,2020-07-08T15:15:24-07:00,6.9140841960907,3,versionC_stim.csv,RLVersionC.csv,"Realational Version C","Relational, read only version C",OUNCE,BOTH,Study2,U,172,117,Study,User,-,,Study/JOL,"Study Phase2",6193,,,-1,-1,,,,1
5ed60b61acd3f60009eab81e,u6rtnlr9gg,"Deep vs Shallow",1,232,2020-07-08T15:15:32-07:00,7.1603708267212,3,versionC_stim.csv,RLVersionC.csv,"Realational Version C","Relational, read only version C",FICTION,LISTEN,Study2,U,164,138,Study,User,-,,Study/JOL,"Study Phase2",6336,,,-1,-1,,,,1
5ed60b61acd3f60009eab81e,u6rtnlr9gg,"Deep vs Shallow",1,233,2020-07-08T15:15:41-07:00,9.487900018692,3,versionC_stim.csv,RLVersionC.csv,"Realational Version C","Relational, read only version C",STEAK,GIVE,Study2,U,158,155,Study,User,-,,Study/JOL,"Study Phase2",7674,,,-1,-1,,,,1
5ed60b61acd3f60009eab81e,u6rtnlr9gg,"Deep vs Shallow",1,234,2020-07-08T15:15:48-07:00,6.5478630065918,3,versionC_stim.csv,RLVersionC.csv,"Realational Version C","Relational, read only version C",SIGN,LOAN,Study2,U,171,167,Study,User,-,,Study/JOL,"Study Phase2",5774,,,-1,-1,,,,1
5ed60b61acd3f60009eab81e,u6rtnlr9gg,"Deep vs Shallow",1,235,2020-07-08T15:15:54-07:00,6.7241361141205,3,versionC_stim.csv,RLVersionC.csv,"Realational Version C","Relational, read only version C",SEATBELT,SAFETY,Study2,S,147,107,Study,User,-,,Study/JOL,"Study Phase2",6084,,,-1,-1,,,,1
5ed60b61acd3f60009eab81e,u6rtnlr9gg,"Deep vs Shallow",1,236,2020-07-08T15:16:01-07:00,6.7927868366241,3,versionC_stim.csv,RLVersionC.csv,"Realational Version C","Relational, read only version C",COFFIN,DEAD,Study2,F,128,132,Study,User,-,,Study/JOL,"Study Phase2",5100,,,-1,-1,,,,1
5ed60b61acd3f60009eab81e,u6rtnlr9gg,"Deep vs Shallow",1,237,2020-07-08T15:16:07-07:00,6.1465661525726,3,versionC_stim.csv,RLVersionC.csv,"Realational Version C","Relational, read only version C",WET,DRY,Study2,S,146,173,Study,User,-,,Study/JOL,"Study Phase2",4430,,,-1,-1,,,,1
5ed60b61acd3f60009eab81e,u6rtnlr9gg,"Deep vs Shallow",1,238,2020-07-08T15:16:13-07:00,5.6225008964539,3,versionC_stim.csv,RLVersionC.csv,"Realational Version C","Relational, read only version C",ABLE,CRACKLE,Study2,U,162,141,Study,User,-,,Study/JOL,"Study Phase2",4952,,,-1,-1,,,,1
5ed60b61acd3f60009eab81e,u6rtnlr9gg,"Deep vs Shallow",1,239,2020-07-08T15:16:21-07:00,8.3647339344025,3,versionC_stim.csv,RLVersionC.csv,"Realational Version C","Relational, read only version C",WINDSHIELD,CAR,Study2,F,117,129,Study,User,-,,Study/JOL,"Study Phase2",7718,,,-1,-1,,,,1
5ed60b61acd3f60009eab81e,u6rtnlr9gg,"Deep vs Shallow",1,240,2020-07-08T15:16:29-07:00,8.1952311992645,3,versionC_stim.csv,RLVersionC.csv,"Realational Version C","Relational, read only version C",WAX,CANDLE,Study2,S,139,108,Study,User,-,,Study/JOL,"Study Phase2",7385,,,-1,-1,,,,1
5ed60b61acd3f60009eab81e,u6rtnlr9gg,"Deep vs Shallow",1,241,2020-07-08T15:16:36-07:00,6.3930268287659,3,versionC_stim.csv,RLVersionC.csv,"Realational Version C","Relational, read only version C",Morning,TEMPERATURE,Study2,U,173,159,Study,User,-,,Study/JOL,"Study Phase2",5485,,,-1,-1,,,,1
5ed60b61acd3f60009eab81e,u6rtnlr9gg,"Deep vs Shallow",1,242,2020-07-08T15:16:46-07:00,10.613650083542,3,versionC_stim.csv,RLVersionC.csv,"Realational Version C","Relational, read only version C",BANKER,MONEY,Study2,F,132,123,Study,User,-,,Study/JOL,"Study Phase2",8928,,,-1,-1,,,,1
5ed60b61acd3f60009eab81e,u6rtnlr9gg,"Deep vs Shallow",1,243,2020-07-08T15:16:55-07:00,8.1784520149231,3,versionC_stim.csv,RLVersionC.csv,"Realational Version C","Relational, read only version C",EQUAL,RIGHTS,Study2,S,137,174,Study,User,-,,Study/JOL,"Study Phase2",7368,,,-1,-1,,,,1
5ed60b61acd3f60009eab81e,u6rtnlr9gg,"Deep vs Shallow",1,244,2020-07-08T15:17:02-07:00,7.8936939239502,3,versionC_stim.csv,RLVersionC.csv,"Realational Version C","Relational, read only version C",REVENGE,EVEN,Study2,F,122,97,Study,User,-,,Study/JOL,"Study Phase2",6960,,,-1,-1,,,,1
5ed60b61acd3f60009eab81e,u6rtnlr9gg,"Deep vs Shallow",1,245,2020-07-08T15:17:10-07:00,7.2888929843903,3,versionC_stim.csv,RLVersionC.csv,"Realational Version C","Relational, read only version C",HEAD,SCALP,Study2,B,105,169,Study,User,-,,Study/JOL,"Study Phase2",6577,,,-1,-1,,,,1
5ed60b61acd3f60009eab81e,u6rtnlr9gg,"Deep vs Shallow",1,246,2020-07-08T15:17:19-07:00,9.4555339813232,3,versionC_stim.csv,RLVersionC.csv,"Realational Version C","Relational, read only version C",LEAGUE,BASEBALL,Study2,F,131,144,Study,User,-,,Study/JOL,"Study Phase2",8648,,,-1,-1,,,,1
5ed60b61acd3f60009eab81e,u6rtnlr9gg,"Deep vs Shallow",1,247,2020-07-08T15:17:25-07:00,5.4704451560974,3,versionC_stim.csv,RLVersionC.csv,"Realational Version C","Relational, read only version C",AIRCRAFT,PLANE,Study2,F,129,131,Study,User,-,,Study/JOL,"Study Phase2",4601,,,-1,-1,,,,1
5ed60b61acd3f60009eab81e,u6rtnlr9gg,"Deep vs Shallow",1,248,2020-07-08T15:17:29-07:00,4.6827609539032,3,versionC_stim.csv,RLVersionC.csv,"Realational Version C","Relational, read only version C",CARBON,ELEMENT,Study2,S,141,139,Study,User,-,,Study/JOL,"Study Phase2",3768,,,-1,-1,,,,1
5ed60b61acd3f60009eab81e,u6rtnlr9gg,"Deep vs Shallow",1,249,2020-07-08T15:17:36-07:00,6.2765650749207,3,versionC_stim.csv,RLVersionC.csv,"Realational Version C","Relational, read only version C",TAN,SUN,Study2,S,155,142,Study,User,-,,Study/JOL,"Study Phase2",4417,,,-1,-1,,,,1
5ed60b61acd3f60009eab81e,u6rtnlr9gg,"Deep vs Shallow",1,250,2020-07-08T15:17:45-07:00,9.6930918693542,3,versionC_stim.csv,RLVersionC.csv,"Realational Version C","Relational, read only version C",CLOTH,STRETCH,Study2,U,157,99,Study,User,-,,Study/JOL,"Study Phase2",8900,,,-1,-1,,,,1
5ed60b61acd3f60009eab81e,u6rtnlr9gg,"Deep vs Shallow",1,251,2020-07-08T15:17:53-07:00,7.6728420257568,3,versionC_stim.csv,RLVersionC.csv,"Realational Version C","Relational, read only version C",TIE,SHOELACE,Study2,B,99,116,Study,User,-,,Study/JOL,"Study Phase2",6805,,,-1,-1,,,,1
5ed60b61acd3f60009eab81e,u6rtnlr9gg,"Deep vs Shallow",1,252,2020-07-08T15:18:01-07:00,8.2022531032562,3,versionC_stim.csv,RLVersionC.csv,"Realational Version C","Relational, read only version C",BREAKABLE,GLASS,Study2,F,127,146,Study,User,-,,Study/JOL,"Study Phase2",7346,,,-1,-1,,,,1
5ed60b61acd3f60009eab81e,u6rtnlr9gg,"Deep vs Shallow",1,253,2020-07-08T15:18:07-07:00,5.9021408557892,3,versionC_stim.csv,RLVersionC.csv,"Realational Version C","Relational, read only version C",FLIP,TURN,Study2,F,116,149,Study,User,-,,Study/JOL,"Study Phase2",4944,,,-1,-1,,,,1
5ed60b61acd3f60009eab81e,u6rtnlr9gg,"Deep vs Shallow",1,254,2020-07-08T15:18:14-07:00,7.0630960464478,3,versionC_stim.csv,RLVersionC.csv,"Realational Version C","Relational, read only version C",FAVORITE,BEST,Study2,F,125,112,Study,User,-,,Study/JOL,"Study Phase2",6392,,,-1,-1,,,,1
5ed60b61acd3f60009eab81e,u6rtnlr9gg,"Deep vs Shallow",1,255,2020-07-08T15:18:26-07:00,12.300877094269,3,versionC_stim.csv,RLVersionC.csv,"Realational Version C","Relational, read only version C",LONELY,ALONE,Study2,S,145,160,Study,User,-,,Study/JOL,"Study Phase2",11363,,,-1,-1,,,,1
5ed60b61acd3f60009eab81e,u6rtnlr9gg,"Deep vs Shallow",1,256,2020-07-08T15:18:35-07:00,8.6655118465424,3,versionC_stim.csv,RLVersionC.csv,"Realational Version C","Relational, read only version C",SARDINE,FISH,Study2,F,130,152,Study,User,-,,Study/JOL,"Study Phase2",7954,,,-1,-1,,,,1
5ed60b61acd3f60009eab81e,u6rtnlr9gg,"Deep vs Shallow",1,257,2020-07-08T15:18:41-07:00,5.7007200717926,3,versionC_stim.csv,RLVersionC.csv,"Realational Version C","Relational, read only version C",MAROON,JUSTICE,Study2,U,156,150,Study,User,-,,Study/JOL,"Study Phase2",4875,,,-1,-1,,,,1
5ed60b61acd3f60009eab81e,u6rtnlr9gg,"Deep vs Shallow",1,258,2020-07-08T15:18:58-07:00,17.002732992172,3,versionC_stim.csv,RLVersionC.csv,"Realational Version C","Relational, read only version C",OBTAIN,MEAT,Study2,U,161,118,Study,User,-,,Study/JOL,"Study Phase2",14632,,,-1,-1,,,,1
5ed60b61acd3f60009eab81e,u6rtnlr9gg,"Deep vs Shallow",1,259,2020-07-08T15:19:14-07:00,16.354428052902,3,versionC_stim.csv,RLVersionC.csv,"Realational Version C","Relational, read only version C",VILLAIN,BAD,Study2,F,118,114,Study,User,-,,Study/JOL,"Study Phase2",15452,,,-1,-1,,,,1
5ed60b61acd3f60009eab81e,u6rtnlr9gg,"Deep vs Shallow",1,260,2020-07-08T15:19:27-07:00,12.439589977264,3,versionC_stim.csv,RLVersionC.csv,"Realational Version C","Relational, read only version C",SHAVE,RAZOR,Study2,S,136,164,Study,User,-,,Study/JOL,"Study Phase2",10735,,,-1,-1,,,,1
5ed60b61acd3f60009eab81e,u6rtnlr9gg,"Deep vs Shallow",1,261,2020-07-08T15:19:39-07:00,11.878440856934,3,versionC_stim.csv,RLVersionC.csv,"Realational Version C","Relational, read only version C",BRACELET,WRIST,Study2,S,140,140,Study,User,-,,Study/JOL,"Study Phase2",11189,,,-1,-1,,,,1
5ed60b61acd3f60009eab81e,u6rtnlr9gg,"Deep vs Shallow",1,262,2020-07-08T15:19:45-07:00,6.6059491634369,3,versionC_stim.csv,RLVersionC.csv,"Realational Version C","Relational, read only version C",TRUTHFUL,HONEST,Study2,F,133,133,Study,User,-,,Study/JOL,"Study Phase2",5957,,,-1,-1,,,,1
5ed60b61acd3f60009eab81e,u6rtnlr9gg,"Deep vs Shallow",1,263,2020-07-08T15:19:57-07:00,11.995018005371,3,versionC_stim.csv,RLVersionC.csv,"Realational Version C","Relational, read only version C",ELECTION,MAZE,Study2,U,159,151,Study,User,-,,Study/JOL,"Study Phase2",11076,,,-1,-1,,,,1
5ed60b61acd3f60009eab81e,u6rtnlr9gg,"Deep vs Shallow",1,264,2020-07-08T15:20:05-07:00,7.545567035675,3,versionC_stim.csv,RLVersionC.csv,"Realational Version C","Relational, read only version C",AWAY,GONE,Study2,S,142,101,Study,User,-,,Study/JOL,"Study Phase2",6672,,,-1,-1,,,,1
5ed60b61acd3f60009eab81e,u6rtnlr9gg,"Deep vs Shallow",1,265,2020-07-08T15:20:11-07:00,5.9551439285278,3,versionC_stim.csv,RLVersionC.csv,"Realational Version C","Relational, read only version C",CAR,DRIVER,Study2,B,106,157,Study,User,-,,Study/JOL,"Study Phase2",5254,,,-1,-1,,,,1
5ed60b61acd3f60009eab81e,u6rtnlr9gg,"Deep vs Shallow",1,266,2020-07-08T15:20:20-07:00,9.5873720645905,3,versionC_stim.csv,RLVersionC.csv,"Realational Version C","Relational, read only version C",CHARM,VEHICLE,Study2,U,160,120,Study,User,-,,Study/JOL,"Study Phase2",8709,,,-1,-1,,,,1
5ed60b61acd3f60009eab81e,u6rtnlr9gg,"Deep vs Shallow",1,267,2020-07-08T15:20:26-07:00,5.4304258823395,3,versionC_stim.csv,RLVersionC.csv,"Realational Version C","Relational, read only version C",DRINK,WATER,Study2,S,143,105,Study,User,-,,Study/JOL,"Study Phase2",4603,,,-1,-1,,,,1
5ed60b61acd3f60009eab81e,u6rtnlr9gg,"Deep vs Shallow",1,268,2020-07-08T15:20:32-07:00,5.9175400733948,3,versionC_stim.csv,RLVersionC.csv,"Realational Version C","Relational, read only version C",MYSTERY,DETECTIVE,Study2,B,100,170,Study,User,-,,Study/JOL,"Study Phase2",4706,,,-1,-1,,,,1
5ed60b61acd3f60009eab81e,u6rtnlr9gg,"Deep vs Shallow",1,269,2020-07-08T15:20:41-07:00,9.3914270401001,3,versionC_stim.csv,RLVersionC.csv,"Realational Version C","Relational, read only version C",SHAKE,Shell,Study2,U,163,163,Study,User,-,,Study/JOL,"Study Phase2",8736,,,-1,-1,,,,1
5ed60b61acd3f60009eab81e,u6rtnlr9gg,"Deep vs Shallow",1,270,2020-07-08T15:20:48-07:00,6.9363238811493,3,versionC_stim.csv,RLVersionC.csv,"Realational Version C","Relational, read only version C",END,ADJOURN,Study2,B,101,109,Study,User,-,,Study/JOL,"Study Phase2",5954,,,-1,-1,,,,1
5ed60b61acd3f60009eab81e,u6rtnlr9gg,"Deep vs Shallow",1,271,2020-07-08T15:20:53-07:00,4.8728280067444,3,versionC_stim.csv,RLVersionC.csv,"Realational Version C","Relational, read only version C",SPOOKY,OCTOBER,BUFFER4,Buffer,180,180,Study,User,-,,Study/JOL,BUFFER4,3793,,,-1,-1,,,,1
5ed60b61acd3f60009eab81e,u6rtnlr9gg,"Deep vs Shallow",1,272,2020-07-08T15:21:02-07:00,9.0305409431458,3,versionC_stim.csv,RLVersionC.csv,"Realational Version C","Relational, read only version C",YEAR,MONTH,BUFFER4,Buffer,177,179,Study,User,-,,Study/JOL,BUFFER4,8388,,,-1,-1,,,,1
5ed60b61acd3f60009eab81e,u6rtnlr9gg,"Deep vs Shallow",1,273,2020-07-08T15:21:10-07:00,8.2728090286255,3,versionC_stim.csv,RLVersionC.csv,"Realational Version C","Relational, read only version C",WEAKS,DAYS,BUFFER4,Buffer,176,177,Study,User,-,,Study/JOL,BUFFER4,7564,,,-1,-1,,,,1
5ed60b61acd3f60009eab81e,u6rtnlr9gg,"Deep vs Shallow",1,274,2020-07-08T15:21:17-07:00,6.7478020191193,3,versionC_stim.csv,RLVersionC.csv,"Realational Version C","Relational, read only version C",MARCH,SPRING,BUFFER4,Buffer,179,178,Study,User,-,,Study/JOL,BUFFER4,6017,,,-1,-1,,,,1
5ed60b61acd3f60009eab81e,u6rtnlr9gg,"Deep vs Shallow",1,275,2020-07-08T15:21:23-07:00,5.9160370826721,3,versionC_stim.csv,RLVersionC.csv,"Realational Version C","Relational, read only version C",SHED,TOOL,BUFFER4,Buffer,178,181,Study,User,-,,Study/JOL,BUFFER4,5160,,,-1,-1,,,,1
5ed60b61acd3f60009eab81e,u6rtnlr9gg,"Deep vs Shallow",1,276,2020-07-08T15:21:25-07:00,2.130203962326,3,versionC_stim.csv,RLVersionC.csv,"Realational Version C","Relational, read only version C",,,,,,0,Instruct,User,-,"You have completed this section. Please press Enter.",Filler_Instruction,Instruct5,1536,,,-1,-1,,,,1
5ed60b61acd3f60009eab81e,u6rtnlr9gg,"Deep vs Shallow",1,277,2020-07-08T15:21:38-07:00,13.335764884949,3,versionC_stim.csv,RLVersionC.csv,"Realational Version C","Relational, read only version C",,,,,,0,FreeRecall,-,10,"What were you supposed to focus on while you studied each pair? (Hint: Think back to the instructions). Type your answer in the space below.",,CHECK3,12589,"how each of the items related to each other ",0,3726,10839,0,0,,1
5ed60b61acd3f60009eab81e,u6rtnlr9gg,"Deep vs Shallow",1,278,2020-07-08T15:21:41-07:00,2.564337015152,3,versionC_stim.csv,RLVersionC.csv,"Realational Version C","Relational, read only version C",,,,,,0,Instruct,User,-,"You have completed this section. Please press Enter.",Filler_Instruction,Instruct5,1764,,,-1,-1,,,,1
5ed60b61acd3f60009eab81e,u6rtnlr9gg,"Deep vs Shallow",1,279,2020-07-08T15:23:42-07:00,120.8128631115,3,versionC_stim.csv,RLVersionC.csv,"Realational Version C","Relational, read only version C",,,,,,0,FreeRecall,120,120,"Please list the 50 US states in reverse alphabetical order (z - a). The task will automatically advance to the next screen after two minutes.",,Filler2,120002,"wisconsin texas p missisippi california arizona alaska ",0,4085,119862,0,0,,1
5ed60b61acd3f60009eab81e,u6rtnlr9gg,"Deep vs Shallow",1,280,2020-07-08T15:23:53-07:00,11.593332052231,3,versionC_stim.csv,RLVersionC.csv,"Realational Version C","Relational, read only version C",,,,,,0,Instruct,-,10,"You will now be presented with the first word from each of the previously studied item pairs. Please type the missing word. If you do not know the word, you may guess or press Enter to skip forward to the next pair.",,Instruct6,10870,,,-1,-1,,,,1
5ed60b61acd3f60009eab81e,u6rtnlr9gg,"Deep vs Shallow",1,281,2020-07-08T15:23:58-07:00,5.0015308856964,3,versionC_stim.csv,RLVersionC.csv,"Realational Version C","Relational, read only version C",SHAVE,RAZOR,Study2,S,136,164,Test,User,-,,Recall,Recall2,4236,"razor ",100,2043,3973,1,1,,1
5ed60b61acd3f60009eab81e,u6rtnlr9gg,"Deep vs Shallow",1,282,2020-07-08T15:24:03-07:00,4.4628300666809,3,versionC_stim.csv,RLVersionC.csv,"Realational Version C","Relational, read only version C",BREAKABLE,GLASS,Study2,F,127,146,Test,User,-,,Recall,Recall2,2480,glass,100,1634,2342,1,1,,1
5ed60b61acd3f60009eab81e,u6rtnlr9gg,"Deep vs Shallow",1,283,2020-07-08T15:24:13-07:00,9.985563993454,3,versionC_stim.csv,RLVersionC.csv,"Realational Version C","Relational, read only version C",MAROON,JUSTICE,Study2,U,156,150,Test,User,-,,Recall,Recall2,9085,fight,16.666666666667,7832,8414,0,0,,1
5ed60b61acd3f60009eab81e,u6rtnlr9gg,"Deep vs Shallow",1,284,2020-07-08T15:24:17-07:00,4.7911460399628,3,versionC_stim.csv,RLVersionC.csv,"Realational Version C","Relational, read only version C",SHAKE,Shell,Study2,U,163,163,Test,User,-,,Recall,Recall2,2476,shell,100,1801,2259,1,1,,1
5ed60b61acd3f60009eab81e,u6rtnlr9gg,"Deep vs Shallow",1,285,2020-07-08T15:24:20-07:00,2.2419340610504,3,versionC_stim.csv,RLVersionC.csv,"Realational Version C","Relational, read only version C",FAVORITE,BEST,Study2,F,125,112,Test,User,-,,Recall,Recall2,1687,best,100,1056,1353,1,1,,1
5ed60b61acd3f60009eab81e,u6rtnlr9gg,"Deep vs Shallow",1,286,2020-07-08T15:24:22-07:00,2.3272988796234,3,versionC_stim.csv,RLVersionC.csv,"Realational Version C","Relational, read only version C",NAP,SLEEP,Study2,F,134,111,Test,User,-,,Recall,Recall2,1676,sleep,100,971,1434,1,1,,1
5ed60b61acd3f60009eab81e,u6rtnlr9gg,"Deep vs Shallow",1,287,2020-07-08T15:24:33-07:00,11.245946884155,3,versionC_stim.csv,RLVersionC.csv,"Realational Version C","Relational, read only version C",OUNCE,BOTH,Study2,U,172,117,Test,User,-,,Recall,Recall2,10342,,0,-1,-1,0,0,,1
5ed60b61acd3f60009eab81e,u6rtnlr9gg,"Deep vs Shallow",1,288,2020-07-08T15:24:36-07:00,3.2091062068939,3,versionC_stim.csv,RLVersionC.csv,"Realational Version C","Relational, read only version C",FLIP,TURN,Study2,F,116,149,Test,User,-,,Recall,Recall2,2580,"turn ",100,1687,2198,1,1,,1
5ed60b61acd3f60009eab81e,u6rtnlr9gg,"Deep vs Shallow",1,289,2020-07-08T15:24:43-07:00,6.9131579399109,3,versionC_stim.csv,RLVersionC.csv,"Realational Version C","Relational, read only version C",FICTION,LISTEN,Study2,U,164,138,Test,User,-,,Recall,Recall2,4781,"listening ",80,1909,3959,0,1,,1
5ed60b61acd3f60009eab81e,u6rtnlr9gg,"Deep vs Shallow",1,290,2020-07-08T15:24:46-07:00,3.0881440639496,3,versionC_stim.csv,RLVersionC.csv,"Realational Version C","Relational, read only version C",WET,DRY,Study2,S,146,173,Test,User,-,,Recall,Recall2,2148,dry,100,1320,1615,1,1,,1
5ed60b61acd3f60009eab81e,u6rtnlr9gg,"Deep vs Shallow",1,291,2020-07-08T15:24:50-07:00,3.5120987892151,3,versionC_stim.csv,RLVersionC.csv,"Realational Version C","Relational, read only version C",LIE,TRUTH,Study2,S,148,128,Test,User,-,,Recall,Recall2,2583,truth,100,1383,2108,1,1,,1
5ed60b61acd3f60009eab81e,u6rtnlr9gg,"Deep vs Shallow",1,292,2020-07-08T15:24:53-07:00,3.4544022083282,3,versionC_stim.csv,RLVersionC.csv,"Realational Version C","Relational, read only version C",CARBON,ELEMENT,Study2,S,141,139,Test,User,-,,Recall,Recall2,2663,element,100,1273,2496,1,1,,1
5ed60b61acd3f60009eab81e,u6rtnlr9gg,"Deep vs Shallow",1,293,2020-07-08T15:24:57-07:00,3.2686748504639,3,versionC_stim.csv,RLVersionC.csv,"Realational Version C","Relational, read only version C",BRACELET,WRIST,Study2,S,140,140,Test,User,-,,Recall,Recall2,2239,wrist,100,1095,2097,1,1,,1
5ed60b61acd3f60009eab81e,u6rtnlr9gg,"Deep vs Shallow",1,294,2020-07-08T15:25:09-07:00,11.832898139954,3,versionC_stim.csv,RLVersionC.csv,"Realational Version C","Relational, read only version C",END,ADJOURN,Study2,B,101,109,Test,User,-,,Recall,Recall2,9938,begin,16.666666666667,8880,9485,0,0,,1
5ed60b61acd3f60009eab81e,u6rtnlr9gg,"Deep vs Shallow",1,295,2020-07-08T15:25:15-07:00,6.3454439640045,3,versionC_stim.csv,RLVersionC.csv,"Realational Version C","Relational, read only version C",ABLE,CRACKLE,Study2,U,162,141,Test,User,-,,Recall,Recall2,5652,money,16.666666666667,4681,5316,0,0,,1
5ed60b61acd3f60009eab81e,u6rtnlr9gg,"Deep vs Shallow",1,296,2020-07-08T15:25:19-07:00,4.2878279685974,3,versionC_stim.csv,RLVersionC.csv,"Realational Version C","Relational, read only version C",OBTAIN,MEAT,Study2,U,161,118,Test,User,-,,Recall,Recall2,3653,meat,100,2974,3312,1,1,,1
5ed60b61acd3f60009eab81e,u6rtnlr9gg,"Deep vs Shallow",1,297,2020-07-08T15:25:30-07:00,10.809961080551,3,versionC_stim.csv,RLVersionC.csv,"Realational Version C","Relational, read only version C",CHILDREN,MIRROR,Study2,U,174,100,Test,User,-,,Recall,Recall2,9912,,0,-1,-1,0,0,,1
5ed60b61acd3f60009eab81e,u6rtnlr9gg,"Deep vs Shallow",1,298,2020-07-08T15:25:37-07:00,6.6316118240356,3,versionC_stim.csv,RLVersionC.csv,"Realational Version C","Relational, read only version C",VILLAIN,BAD,Study2,F,118,114,Test,User,-,,Recall,Recall2,5896,bad,100,5045,5474,1,1,,1
5ed60b61acd3f60009eab81e,u6rtnlr9gg,"Deep vs Shallow",1,299,2020-07-08T15:25:49-07:00,12.679058074951,3,versionC_stim.csv,RLVersionC.csv,"Realational Version C","Relational, read only version C",FIGHT,FEUD,Study2,B,113,113,Test,User,-,,Recall,Recall2,11750,brawl,0,7227,10213,0,0,,1
5ed60b61acd3f60009eab81e,u6rtnlr9gg,"Deep vs Shallow",1,300,2020-07-08T15:26:18-07:00,28.508012056351,3,versionC_stim.csv,RLVersionC.csv,"Realational Version C","Relational, read only version C",DOG,FURRY,Study2,B,102,153,Test,User,-,,Recall,Recall2,27636,furry,100,25501,26473,1,1,,1
5ed60b61acd3f60009eab81e,u6rtnlr9gg,"Deep vs Shallow",1,301,2020-07-08T15:26:23-07:00,4.8049058914185,3,versionC_stim.csv,RLVersionC.csv,"Realational Version C","Relational, read only version C",SCISSORS,SHEARS,Study2,B,112,162,Test,User,-,,Recall,Recall2,4133,cut,0,3330,4063,0,0,,1
5ed60b61acd3f60009eab81e,u6rtnlr9gg,"Deep vs Shallow",1,302,2020-07-08T15:26:25-07:00,2.7045969963074,3,versionC_stim.csv,RLVersionC.csv,"Realational Version C","Relational, read only version C",SIGN,LOAN,Study2,U,171,167,Test,User,-,,Recall,Recall2,2049,,0,-1,-1,0,0,,1
5ed60b61acd3f60009eab81e,u6rtnlr9gg,"Deep vs Shallow",1,303,2020-07-08T15:26:35-07:00,10.003043174744,3,versionC_stim.csv,RLVersionC.csv,"Realational Version C","Relational, read only version C",REVENGE,EVEN,Study2,F,122,97,Test,User,-,,Recall,Recall2,9283,back,0,6827,8157,0,0,,1
5ed60b61acd3f60009eab81e,u6rtnlr9gg,"Deep vs Shallow",1,304,2020-07-08T15:26:38-07:00,2.8776519298553,3,versionC_stim.csv,RLVersionC.csv,"Realational Version C","Relational, read only version C",CUT,CHOP,Study2,B,107,135,Test,User,-,,Recall,Recall2,1788,chop,100,999,1539,1,1,,1
5ed60b61acd3f60009eab81e,u6rtnlr9gg,"Deep vs Shallow",1,305,2020-07-08T15:26:42-07:00,3.3895969390869,3,versionC_stim.csv,RLVersionC.csv,"Realational Version C","Relational, read only version C",WAX,CANDLE,Study2,S,139,108,Test,User,-,,Recall,Recall2,2684,candl,90.909090909091,1275,2416,0,1,,1
5ed60b61acd3f60009eab81e,u6rtnlr9gg,"Deep vs Shallow",1,306,2020-07-08T15:26:46-07:00,4.1806440353394,3,versionC_stim.csv,RLVersionC.csv,"Realational Version C","Relational, read only version C",PLANT,CACTUS,Study2,B,98,158,Test,User,-,,Recall,Recall2,3461,cactus,100,2109,3032,1,1,,1
5ed60b61acd3f60009eab81e,u6rtnlr9gg,"Deep vs Shallow",1,307,2020-07-08T15:26:52-07:00,6.0764660835266,3,versionC_stim.csv,RLVersionC.csv,"Realational Version C","Relational, read only version C",TRUTHFUL,HONEST,Study2,F,133,133,Test,User,-,,Recall,Recall2,5175,honest,100,3998,4676,1,1,,1
5ed60b61acd3f60009eab81e,u6rtnlr9gg,"Deep vs Shallow",1,308,2020-07-08T15:26:55-07:00,3.2899558544159,3,versionC_stim.csv,RLVersionC.csv,"Realational Version C","Relational, read only version C",SARDINE,FISH,Study2,F,130,152,Test,User,-,,Recall,Recall2,2490,fish,100,1220,2221,1,1,,1
5ed60b61acd3f60009eab81e,u6rtnlr9gg,"Deep vs Shallow",1,309,2020-07-08T15:27:00-07:00,5.0239689350128,3,versionC_stim.csv,RLVersionC.csv,"Realational Version C","Relational, read only version C",Morning,TEMPERATURE,Study2,U,173,159,Test,User,-,,Recall,Recall2,4282,temperature,100,1352,4041,1,1,,1
5ed60b61acd3f60009eab81e,u6rtnlr9gg,"Deep vs Shallow",1,310,2020-07-08T15:27:04-07:00,4.0720500946045,3,versionC_stim.csv,RLVersionC.csv,"Realational Version C","Relational, read only version C",AIRCRAFT,PLANE,Study2,F,129,131,Test,User,-,,Recall,Recall2,2187,plane,100,1299,2047,1,1,,1
5ed60b61acd3f60009eab81e,u6rtnlr9gg,"Deep vs Shallow",1,311,2020-07-08T15:27:09-07:00,4.3430769443512,3,versionC_stim.csv,RLVersionC.csv,"Realational Version C","Relational, read only version C",TIE,SHOELACE,Study2,B,99,116,Test,User,-,,Recall,Recall2,3535,shoelace,100,1707,3196,1,1,,1
5ed60b61acd3f60009eab81e,u6rtnlr9gg,"Deep vs Shallow",1,312,2020-07-08T15:27:14-07:00,5.5959851741791,3,versionC_stim.csv,RLVersionC.csv,"Realational Version C","Relational, read only version C",CLEAR,MOAT,Study2,U,169,102,Test,User,-,,Recall,Recall2,4945,moat,100,1994,4497,1,1,,1
5ed60b61acd3f60009eab81e,u6rtnlr9gg,"Deep vs Shallow",1,313,2020-07-08T15:27:16-07:00,2.2437589168549,3,versionC_stim.csv,RLVersionC.csv,"Realational Version C","Relational, read only version C",TAN,SUN,Study2,S,155,142,Test,User,-,,Recall,Recall2,1534,sun,100,971,1229,1,1,,1
5ed60b61acd3f60009eab81e,u6rtnlr9gg,"Deep vs Shallow",1,314,2020-07-08T15:27:22-07:00,5.7036690711975,3,versionC_stim.csv,RLVersionC.csv,"Realational Version C","Relational, read only version C",BANKER,MONEY,Study2,F,132,123,Test,User,-,,Recall,Recall2,4745,money,100,3303,4043,1,1,,1
5ed60b61acd3f60009eab81e,u6rtnlr9gg,"Deep vs Shallow",1,315,2020-07-08T15:27:25-07:00,3.303601026535,3,versionC_stim.csv,RLVersionC.csv,"Realational Version C","Relational, read only version C",ELECTION,MAZE,Study2,U,159,151,Test,User,-,,Recall,Recall2,2555,maze,100,1596,2274,1,1,,1
5ed60b61acd3f60009eab81e,u6rtnlr9gg,"Deep vs Shallow",1,316,2020-07-08T15:27:30-07:00,4.7898988723755,3,versionC_stim.csv,RLVersionC.csv,"Realational Version C","Relational, read only version C",TEMPER,TANTRUM,Study2,S,154,127,Test,User,-,,Recall,Recall2,3972,tantrum,100,1869,3483,1,1,,1
5ed60b61acd3f60009eab81e,u6rtnlr9gg,"Deep vs Shallow",1,317,2020-07-08T15:27:34-07:00,4.1373319625854,3,versionC_stim.csv,RLVersionC.csv,"Realational Version C","Relational, read only version C",CLOTH,STRETCH,Study2,U,157,99,Test,User,-,,Recall,Recall2,3200,stretch,100,1397,2786,1,1,,1
5ed60b61acd3f60009eab81e,u6rtnlr9gg,"Deep vs Shallow",1,318,2020-07-08T15:27:40-07:00,5.2105751037598,3,versionC_stim.csv,RLVersionC.csv,"Realational Version C","Relational, read only version C",LOVE,AFFECTION,Study2,B,115,175,Test,User,-,,Recall,Recall2,3367,affection,100,1532,3059,1,1,,1
5ed60b61acd3f60009eab81e,u6rtnlr9gg,"Deep vs Shallow",1,319,2020-07-08T15:27:47-07:00,7.0673160552979,3,versionC_stim.csv,RLVersionC.csv,"Realational Version C","Relational, read only version C",BANG,FUZZY,Study2,U,168,125,Test,User,-,,Recall,Recall2,6401,,0,-1,-1,0,0,,1
5ed60b61acd3f60009eab81e,u6rtnlr9gg,"Deep vs Shallow",1,320,2020-07-08T15:27:51-07:00,3.9651529788971,3,versionC_stim.csv,RLVersionC.csv,"Realational Version C","Relational, read only version C",LONELY,ALONE,Study2,S,145,160,Test,User,-,,Recall,Recall2,2302,alone,100,1542,2057,1,1,,1
5ed60b61acd3f60009eab81e,u6rtnlr9gg,"Deep vs Shallow",1,321,2020-07-08T15:27:54-07:00,3.5260238647461,3,versionC_stim.csv,RLVersionC.csv,"Realational Version C","Relational, read only version C",PAPER,DOCUMENT,Study2,B,109,145,Test,User,-,,Recall,Recall2,2630,document,100,1410,2370,1,1,,1
5ed60b61acd3f60009eab81e,u6rtnlr9gg,"Deep vs Shallow",1,322,2020-07-08T15:28:03-07:00,9.3290791511536,3,versionC_stim.csv,RLVersionC.csv,"Realational Version C","Relational, read only version C",RED,CHERRY,Study2,B,104,121,Test,User,-,,Recall,Recall2,7636,cherry,100,2272,7244,1,1,,1
5ed60b61acd3f60009eab81e,u6rtnlr9gg,"Deep vs Shallow",1,323,2020-07-08T15:28:06-07:00,2.6574969291687,3,versionC_stim.csv,RLVersionC.csv,"Realational Version C","Relational, read only version C",PENGUIN,BIRD,Study2,F,119,119,Test,User,-,,Recall,Recall2,1988,bird,100,1194,1911,1,1,,1
5ed60b61acd3f60009eab81e,u6rtnlr9gg,"Deep vs Shallow",1,324,2020-07-08T15:28:10-07:00,3.6086990833282,3,versionC_stim.csv,RLVersionC.csv,"Realational Version C","Relational, read only version C",TOIL,LEASE,Study2,U,170,168,Test,User,-,,Recall,Recall2,2864,lease,100,1831,2584,1,1,,1
5ed60b61acd3f60009eab81e,u6rtnlr9gg,"Deep vs Shallow",1,325,2020-07-08T15:28:12-07:00,2.3732028007507,3,versionC_stim.csv,RLVersionC.csv,"Realational Version C","Relational, read only version C",DONKEY,MULE,Study2,B,108,172,Test,User,-,,Recall,Recall2,1693,mule,100,1030,1584,1,1,,1
5ed60b61acd3f60009eab81e,u6rtnlr9gg,"Deep vs Shallow",1,326,2020-07-08T15:28:18-07:00,5.8454070091248,3,versionC_stim.csv,RLVersionC.csv,"Realational Version C","Relational, read only version C",CLOTHES,CAKE,Study2,U,166,122,Test,User,-,,Recall,Recall2,3681,cake,100,2924,3568,1,1,,1
5ed60b61acd3f60009eab81e,u6rtnlr9gg,"Deep vs Shallow",1,327,2020-07-08T15:28:22-07:00,4.2674200534821,3,versionC_stim.csv,RLVersionC.csv,"Realational Version C","Relational, read only version C",JAR,MASON,Study2,S,138,156,Test,User,-,,Recall,Recall2,3423,mason,100,2207,3121,1,1,,1
5ed60b61acd3f60009eab81e,u6rtnlr9gg,"Deep vs Shallow",1,328,2020-07-08T15:28:27-07:00,4.621838092804,3,versionC_stim.csv,RLVersionC.csv,"Realational Version C","Relational, read only version C",SMELL,INCENSE,Study2,B,110,110,Test,User,-,,Recall,Recall2,3757,insence,57.142857142857,2446,3475,0,0,,1
5ed60b61acd3f60009eab81e,u6rtnlr9gg,"Deep vs Shallow",1,329,2020-07-08T15:28:30-07:00,3.5529429912567,3,versionC_stim.csv,RLVersionC.csv,"Realational Version C","Relational, read only version C",HATE,NAME,Study2,U,167,136,Test,User,-,,Recall,Recall2,2882,name,100,2227,2620,1,1,,1
5ed60b61acd3f60009eab81e,u6rtnlr9gg,"Deep vs Shallow",1,330,2020-07-08T15:28:33-07:00,3.0662798881531,3,versionC_stim.csv,RLVersionC.csv,"Realational Version C","Relational, read only version C",BRAWL,FIGHT,Study2,F,135,115,Test,User,-,,Recall,Recall2,2415,fight,100,1230,1853,1,1,,1
5ed60b61acd3f60009eab81e,u6rtnlr9gg,"Deep vs Shallow",1,331,2020-07-08T15:28:37-07:00,3.1363821029663,3,versionC_stim.csv,RLVersionC.csv,"Realational Version C","Relational, read only version C",EAT,DINE,Study2,B,111,161,Test,User,-,,Recall,Recall2,2457,dine,100,1808,2228,1,1,,1
5ed60b61acd3f60009eab81e,u6rtnlr9gg,"Deep vs Shallow",1,332,2020-07-08T15:28:40-07:00,3.0420289039612,3,versionC_stim.csv,RLVersionC.csv,"Realational Version C","Relational, read only version C",SEATBELT,SAFETY,Study2,S,147,107,Test,User,-,,Recall,Recall2,2403,safety,100,1245,2059,1,1,,1
5ed60b61acd3f60009eab81e,u6rtnlr9gg,"Deep vs Shallow",1,333,2020-07-08T15:28:50-07:00,10.117995977402,3,versionC_stim.csv,RLVersionC.csv,"Realational Version C","Relational, read only version C",COMMUNICATION,PHONE,Study2,S,149,98,Test,User,-,,Recall,Recall2,9108,talk,0,7772,8724,0,0,,1
5ed60b61acd3f60009eab81e,u6rtnlr9gg,"Deep vs Shallow",1,334,2020-07-08T15:28:58-07:00,8.6269421577454,3,versionC_stim.csv,RLVersionC.csv,"Realational Version C","Relational, read only version C",TICK,FLEA,Study2,S,151,130,Test,User,-,,Recall,Recall2,7944,flea,100,7326,7776,1,1,,1
5ed60b61acd3f60009eab81e,u6rtnlr9gg,"Deep vs Shallow",1,335,2020-07-08T15:29:04-07:00,5.6311409473419,3,versionC_stim.csv,RLVersionC.csv,"Realational Version C","Relational, read only version C",THIMBLE,THREAD,Study2,F,121,147,Test,User,-,,Recall,Recall2,4963,thread,100,3610,4688,1,1,,1
5ed60b61acd3f60009eab81e,u6rtnlr9gg,"Deep vs Shallow",1,336,2020-07-08T15:29:07-07:00,2.8225660324097,3,versionC_stim.csv,RLVersionC.csv,"Realational Version C","Relational, read only version C",DRINK,WATER,Study2,S,143,105,Test,User,-,,Recall,Recall2,2170,water,100,1351,2060,1,1,,1
5ed60b61acd3f60009eab81e,u6rtnlr9gg,"Deep vs Shallow",1,337,2020-07-08T15:29:10-07:00,3.6565098762512,3,versionC_stim.csv,RLVersionC.csv,"Realational Version C","Relational, read only version C",COFFIN,DEAD,Study2,F,128,132,Test,User,-,,Recall,Recall2,3017,death,66.666666666667,1141,2752,0,0,,1
5ed60b61acd3f60009eab81e,u6rtnlr9gg,"Deep vs Shallow",1,338,2020-07-08T15:29:23-07:00,12.788730144501,3,versionC_stim.csv,RLVersionC.csv,"Realational Version C","Relational, read only version C",CAR,DRIVER,Study2,B,106,157,Test,User,-,,Recall,Recall2,12002,,0,-1,-1,0,0,,1
5ed60b61acd3f60009eab81e,u6rtnlr9gg,"Deep vs Shallow",1,339,2020-07-08T15:29:28-07:00,4.5527617931366,3,versionC_stim.csv,RLVersionC.csv,"Realational Version C","Relational, read only version C",SCAR,MAIN,Study2,U,175,137,Test,User,-,,Recall,Recall2,3603,,0,-1,-1,0,0,,1
5ed60b61acd3f60009eab81e,u6rtnlr9gg,"Deep vs Shallow",1,340,2020-07-08T15:29:35-07:00,6.9539120197296,3,versionC_stim.csv,RLVersionC.csv,"Realational Version C","Relational, read only version C",NOISE,LOUD,Study2,S,152,171,Test,User,-,,Recall,Recall2,3991,loud,100,2930,3860,1,1,,1
5ed60b61acd3f60009eab81e,u6rtnlr9gg,"Deep vs Shallow",1,341,2020-07-08T15:29:41-07:00,6.2079410552979,3,versionC_stim.csv,RLVersionC.csv,"Realational Version C","Relational, read only version C",COLD,CHILL,Study2,B,114,166,Test,User,-,,Recall,Recall2,5371,chilly,90.909090909091,3309,4983,0,1,,1
5ed60b61acd3f60009eab81e,u6rtnlr9gg,"Deep vs Shallow",1,342,2020-07-08T15:29:48-07:00,7.5506720542908,3,versionC_stim.csv,RLVersionC.csv,"Realational Version C","Relational, read only version C",MYSTERY,DETECTIVE,Study2,B,100,170,Test,User,-,,Recall,Recall2,6893,detective,100,3239,6679,1,1,,1
5ed60b61acd3f60009eab81e,u6rtnlr9gg,"Deep vs Shallow",1,343,2020-07-08T15:29:55-07:00,6.9109869003296,3,versionC_stim.csv,RLVersionC.csv,"Realational Version C","Relational, read only version C",CHARM,VEHICLE,Study2,U,160,120,Test,User,-,,Recall,Recall2,6260,vehichle,93.333333333333,3698,5652,0,1,,1
5ed60b61acd3f60009eab81e,u6rtnlr9gg,"Deep vs Shallow",1,344,2020-07-08T15:30:00-07:00,4.0966031551361,3,versionC_stim.csv,RLVersionC.csv,"Realational Version C","Relational, read only version C",STEAK,GIVE,Study2,U,158,155,Test,User,-,,Recall,Recall2,3422,get,57.142857142857,2859,3066,0,0,,1
5ed60b61acd3f60009eab81e,u6rtnlr9gg,"Deep vs Shallow",1,345,2020-07-08T15:30:08-07:00,8.8006818294525,3,versionC_stim.csv,RLVersionC.csv,"Realational Version C","Relational, read only version C",TRASH,LITTER,Study2,B,103,143,Test,User,-,,Recall,Recall2,6993,rubbish,15.384615384615,5436,6696,0,0,,1
