Username,ID,ExperimentName,Session,Trial,Date,TimeDif,"Condition Number","Stimuli File","Order File","Condition Description","Condition Notes",Stimuli*Cue,Stimuli*Answer,Stimuli*Shuffle,"Stimuli*Stimuli Notes",Stimuli*Value,Procedure*Item,"Procedure*Trial Type","Procedure*Max Time","Procedure*Min Time",Procedure*Text,"Procedure*Procedure Notes",Procedure*Shuffle,Response*RT,Response*Response,Response*Accuracy,Response*RTfirst,Response*RTlast,Response*strictAcc,Response*lenientAcc,Response*focus,Response*Focus
5ea8d68a37c5173456c94f50,ma44fy1wof,"Deep vs Shallow",1,1,2020-07-08T14:11:40-07:00,11.178318023682,4,versionC_stim.csv,RLVersionD.csv,"Relational Version D","Relational, read only version D",,,,,,0,Instruct,-,10,"In this section, you will be presented with a series of word pairs. Please study both items in the pair.",,Instruct13,10832,,,-1,-1,,,,1
5ea8d68a37c5173456c94f50,ma44fy1wof,"Deep vs Shallow",1,2,2020-07-08T14:11:58-07:00,18.158761024475,4,versionC_stim.csv,RLVersionD.csv,"Relational Version D","Relational, read only version D",,,,,,0,Instruct,-,15,"As you study, please think about how the two concepts are RELATED to each other. For example, if you see the pair TURTLE-CAT, think about how both are alive, they are both animals, and both can be kept as pets.",,Instruct19,17695,,,-1,-1,,,,1
5ea8d68a37c5173456c94f50,ma44fy1wof,"Deep vs Shallow",1,3,2020-07-08T14:12:30-07:00,31.541177988052,4,versionC_stim.csv,RLVersionD.csv,"Relational Version D","Relational, read only version D",,,,,,0,FreeRecall,-,10,"What you should think about as you study each item pair? Type your response in the box below.",,CHECK1,31061,"Find things that relate to them both. If they are both animals, they are living creatures etc ",0,8324,29600,0,0,,1
5ea8d68a37c5173456c94f50,ma44fy1wof,"Deep vs Shallow",1,4,2020-07-08T14:12:32-07:00,2.5928680896759,4,versionC_stim.csv,RLVersionD.csv,"Relational Version D","Relational, read only version D",,,,,,0,Instruct,User,-,"You will now begin the experiment. Press ENTER when you are ready to begin.",,Instruct000,2118,,,-1,-1,,,,1
5ea8d68a37c5173456c94f50,ma44fy1wof,"Deep vs Shallow",1,5,2020-07-08T14:12:36-07:00,3.1489617824554,4,versionC_stim.csv,RLVersionD.csv,"Relational Version D","Relational, read only version D",ADVENTURE,CAMP,BUFFER3,Buffer,95,94,Study,User,-,,Study/JOL,BUFFER,2678,,,-1,-1,,,,1
5ea8d68a37c5173456c94f50,ma44fy1wof,"Deep vs Shallow",1,6,2020-07-08T14:12:42-07:00,6.1277031898499,4,versionC_stim.csv,RLVersionD.csv,"Relational Version D","Relational, read only version D",FISH,SHRIMP,BUFFER3,Buffer,93,93,Study,User,-,,Study/JOL,BUFFER,5626,,,-1,-1,,,,1
5ea8d68a37c5173456c94f50,ma44fy1wof,"Deep vs Shallow",1,7,2020-07-08T14:12:45-07:00,3.3182158470154,4,versionC_stim.csv,RLVersionD.csv,"Relational Version D","Relational, read only version D",POTATO,CARROT,BUFFER3,Buffer,91,92,Study,User,-,,Study/JOL,BUFFER,2869,,,-1,-1,,,,1
5ea8d68a37c5173456c94f50,ma44fy1wof,"Deep vs Shallow",1,8,2020-07-08T14:12:48-07:00,2.8446700572968,4,versionC_stim.csv,RLVersionD.csv,"Relational Version D","Relational, read only version D",STRING,NOODLE,BUFFER3,Buffer,92,96,Study,User,-,,Study/JOL,BUFFER,2383,,,-1,-1,,,,1
5ea8d68a37c5173456c94f50,ma44fy1wof,"Deep vs Shallow",1,9,2020-07-08T14:12:51-07:00,2.8394110202789,4,versionC_stim.csv,RLVersionD.csv,"Relational Version D","Relational, read only version D",FROZEN,ICE,BUFFER3,Buffer,94,95,Study,User,-,,Study/JOL,BUFFER,2370,,,-1,-1,,,,1
5ea8d68a37c5173456c94f50,ma44fy1wof,"Deep vs Shallow",1,10,2020-07-08T14:12:53-07:00,2.8162550926208,4,versionC_stim.csv,RLVersionD.csv,"Relational Version D","Relational, read only version D",CARBON,ELEMENT,Study2,S,141,116,Study,User,-,,Study/JOL,"Study Phase",2345,,,-1,-1,,,,1
5ea8d68a37c5173456c94f50,ma44fy1wof,"Deep vs Shallow",1,11,2020-07-08T14:12:58-07:00,4.2270698547363,4,versionC_stim.csv,RLVersionD.csv,"Relational Version D","Relational, read only version D",CHARM,VEHICLE,Study2,U,160,158,Study,User,-,,Study/JOL,"Study Phase",3760,,,-1,-1,,,,1
5ea8d68a37c5173456c94f50,ma44fy1wof,"Deep vs Shallow",1,12,2020-07-08T14:13:00-07:00,2.6637351512909,4,versionC_stim.csv,RLVersionD.csv,"Relational Version D","Relational, read only version D",AWAY,GONE,Study2,S,142,160,Study,User,-,,Study/JOL,"Study Phase",2205,,,-1,-1,,,,1
5ea8d68a37c5173456c94f50,ma44fy1wof,"Deep vs Shallow",1,13,2020-07-08T14:13:02-07:00,1.9574699401855,4,versionC_stim.csv,RLVersionD.csv,"Relational Version D","Relational, read only version D",BRAWL,FIGHT,Study2,F,135,123,Study,User,-,,Study/JOL,"Study Phase",1622,,,-1,-1,,,,1
5ea8d68a37c5173456c94f50,ma44fy1wof,"Deep vs Shallow",1,14,2020-07-08T14:13:04-07:00,2.1759970188141,4,versionC_stim.csv,RLVersionD.csv,"Relational Version D","Relational, read only version D",WINDSHIELD,CAR,Study2,F,117,125,Study,User,-,,Study/JOL,"Study Phase",1816,,,-1,-1,,,,1
5ea8d68a37c5173456c94f50,ma44fy1wof,"Deep vs Shallow",1,15,2020-07-08T14:13:07-07:00,2.1650609970093,4,versionC_stim.csv,RLVersionD.csv,"Relational Version D","Relational, read only version D",BRACELET,WRIST,Study2,S,140,138,Study,User,-,,Study/JOL,"Study Phase",1796,,,-1,-1,,,,1
5ea8d68a37c5173456c94f50,ma44fy1wof,"Deep vs Shallow",1,16,2020-07-08T14:13:09-07:00,2.1007759571075,4,versionC_stim.csv,RLVersionD.csv,"Relational Version D","Relational, read only version D",TRUTHFUL,HONEST,Study2,F,133,127,Study,User,-,,Study/JOL,"Study Phase",1745,,,-1,-1,,,,1
5ea8d68a37c5173456c94f50,ma44fy1wof,"Deep vs Shallow",1,17,2020-07-08T14:13:11-07:00,2.1045780181885,4,versionC_stim.csv,RLVersionD.csv,"Relational Version D","Relational, read only version D",FIGHT,FEUD,Study2,B,113,175,Study,User,-,,Study/JOL,"Study Phase",1743,,,-1,-1,,,,1
5ea8d68a37c5173456c94f50,ma44fy1wof,"Deep vs Shallow",1,18,2020-07-08T14:13:14-07:00,2.8748700618744,4,versionC_stim.csv,RLVersionD.csv,"Relational Version D","Relational, read only version D",JAR,MASON,Study2,S,138,144,Study,User,-,,Study/JOL,"Study Phase",2415,,,-1,-1,,,,1
5ea8d68a37c5173456c94f50,ma44fy1wof,"Deep vs Shallow",1,19,2020-07-08T14:13:17-07:00,2.802325963974,4,versionC_stim.csv,RLVersionD.csv,"Relational Version D","Relational, read only version D",NAP,SLEEP,Study2,F,134,126,Study,User,-,,Study/JOL,"Study Phase",2327,,,-1,-1,,,,1
5ea8d68a37c5173456c94f50,ma44fy1wof,"Deep vs Shallow",1,20,2020-07-08T14:13:19-07:00,1.9931800365448,4,versionC_stim.csv,RLVersionD.csv,"Relational Version D","Relational, read only version D",TAN,SUN,Study2,S,155,118,Study,User,-,,Study/JOL,"Study Phase",1651,,,-1,-1,,,,1
5ea8d68a37c5173456c94f50,ma44fy1wof,"Deep vs Shallow",1,21,2020-07-08T14:13:21-07:00,2.1288948059082,4,versionC_stim.csv,RLVersionD.csv,"Relational Version D","Relational, read only version D",CAR,DRIVER,Study2,B,106,102,Study,User,-,,Study/JOL,"Study Phase",1750,,,-1,-1,,,,1
5ea8d68a37c5173456c94f50,ma44fy1wof,"Deep vs Shallow",1,22,2020-07-08T14:13:23-07:00,2.1657130718231,4,versionC_stim.csv,RLVersionD.csv,"Relational Version D","Relational, read only version D",OUNCE,BOTH,Study2,U,172,150,Study,User,-,,Study/JOL,"Study Phase",1824,,,-1,-1,,,,1
5ea8d68a37c5173456c94f50,ma44fy1wof,"Deep vs Shallow",1,23,2020-07-08T14:13:25-07:00,2.0204091072083,4,versionC_stim.csv,RLVersionD.csv,"Relational Version D","Relational, read only version D",GAME,CLUE,Study2,B,97,174,Study,User,-,,Study/JOL,"Study Phase",1670,,,-1,-1,,,,1
5ea8d68a37c5173456c94f50,ma44fy1wof,"Deep vs Shallow",1,24,2020-07-08T14:13:27-07:00,1.8050148487091,4,versionC_stim.csv,RLVersionD.csv,"Relational Version D","Relational, read only version D",COMMUNICATION,PHONE,Study2,S,149,108,Study,User,-,,Study/JOL,"Study Phase",1466,,,-1,-1,,,,1
5ea8d68a37c5173456c94f50,ma44fy1wof,"Deep vs Shallow",1,25,2020-07-08T14:13:28-07:00,1.5965051651001,4,versionC_stim.csv,RLVersionD.csv,"Relational Version D","Relational, read only version D",DONKEY,MULE,Study2,B,108,173,Study,User,-,,Study/JOL,"Study Phase",1249,,,-1,-1,,,,1
5ea8d68a37c5173456c94f50,ma44fy1wof,"Deep vs Shallow",1,26,2020-07-08T14:13:32-07:00,3.3487238883972,4,versionC_stim.csv,RLVersionD.csv,"Relational Version D","Relational, read only version D",EQUAL,RIGHTS,Study2,S,137,163,Study,User,-,,Study/JOL,"Study Phase",2899,,,-1,-1,,,,1
5ea8d68a37c5173456c94f50,ma44fy1wof,"Deep vs Shallow",1,27,2020-07-08T14:13:33-07:00,1.8852849006653,4,versionC_stim.csv,RLVersionD.csv,"Relational Version D","Relational, read only version D",WAX,CANDLE,Study2,S,139,152,Study,User,-,,Study/JOL,"Study Phase",1545,,,-1,-1,,,,1
5ea8d68a37c5173456c94f50,ma44fy1wof,"Deep vs Shallow",1,28,2020-07-08T14:13:36-07:00,2.3926331996918,4,versionC_stim.csv,RLVersionD.csv,"Relational Version D","Relational, read only version D",TEMPER,TANTRUM,Study2,S,154,164,Study,User,-,,Study/JOL,"Study Phase",1936,,,-1,-1,,,,1
5ea8d68a37c5173456c94f50,ma44fy1wof,"Deep vs Shallow",1,29,2020-07-08T14:13:38-07:00,1.7966878414154,4,versionC_stim.csv,RLVersionD.csv,"Relational Version D","Relational, read only version D",PLANT,CACTUS,Study2,B,98,130,Study,User,-,,Study/JOL,"Study Phase",1452,,,-1,-1,,,,1
5ea8d68a37c5173456c94f50,ma44fy1wof,"Deep vs Shallow",1,30,2020-07-08T14:13:39-07:00,1.7737100124359,4,versionC_stim.csv,RLVersionD.csv,"Relational Version D","Relational, read only version D",HEAD,SCALP,Study2,B,105,153,Study,User,-,,Study/JOL,"Study Phase",1423,,,-1,-1,,,,1
5ea8d68a37c5173456c94f50,ma44fy1wof,"Deep vs Shallow",1,31,2020-07-08T14:13:41-07:00,1.996080160141,4,versionC_stim.csv,RLVersionD.csv,"Relational Version D","Relational, read only version D",MYSTERY,DETECTIVE,Study2,B,100,131,Study,User,-,,Study/JOL,"Study Phase",1657,,,-1,-1,,,,1
5ea8d68a37c5173456c94f50,ma44fy1wof,"Deep vs Shallow",1,32,2020-07-08T14:13:43-07:00,1.8574028015137,4,versionC_stim.csv,RLVersionD.csv,"Relational Version D","Relational, read only version D",LOVE,AFFECTION,Study2,B,115,100,Study,User,-,,Study/JOL,"Study Phase",1483,,,-1,-1,,,,1
5ea8d68a37c5173456c94f50,ma44fy1wof,"Deep vs Shallow",1,33,2020-07-08T14:13:46-07:00,2.3962261676788,4,versionC_stim.csv,RLVersionD.csv,"Relational Version D","Relational, read only version D",DRINK,WATER,Study2,S,143,101,Study,User,-,,Study/JOL,"Study Phase",1833,,,-1,-1,,,,1
5ea8d68a37c5173456c94f50,ma44fy1wof,"Deep vs Shallow",1,34,2020-07-08T14:13:48-07:00,1.8681378364563,4,versionC_stim.csv,RLVersionD.csv,"Relational Version D","Relational, read only version D",RED,CHERRY,Study2,B,104,145,Study,User,-,,Study/JOL,"Study Phase",1523,,,-1,-1,,,,1
5ea8d68a37c5173456c94f50,ma44fy1wof,"Deep vs Shallow",1,35,2020-07-08T14:13:50-07:00,1.9860391616821,4,versionC_stim.csv,RLVersionD.csv,"Relational Version D","Relational, read only version D",TIE,SHOELACE,Study2,B,99,169,Study,User,-,,Study/JOL,"Study Phase",1646,,,-1,-1,,,,1
5ea8d68a37c5173456c94f50,ma44fy1wof,"Deep vs Shallow",1,36,2020-07-08T14:13:52-07:00,1.9862680435181,4,versionC_stim.csv,RLVersionD.csv,"Relational Version D","Relational, read only version D",SCISSORS,SHEARS,Study2,B,112,137,Study,User,-,,Study/JOL,"Study Phase",1639,,,-1,-1,,,,1
5ea8d68a37c5173456c94f50,ma44fy1wof,"Deep vs Shallow",1,37,2020-07-08T14:13:53-07:00,1.9113068580627,4,versionC_stim.csv,RLVersionD.csv,"Relational Version D","Relational, read only version D",FAVORITE,BEST,Study2,F,125,176,Study,User,-,,Study/JOL,"Study Phase",1530,,,-1,-1,,,,1
5ea8d68a37c5173456c94f50,ma44fy1wof,"Deep vs Shallow",1,38,2020-07-08T14:13:55-07:00,1.9254329204559,4,versionC_stim.csv,RLVersionD.csv,"Relational Version D","Relational, read only version D",LONELY,ALONE,Study2,S,145,122,Study,User,-,,Study/JOL,"Study Phase",1576,,,-1,-1,,,,1
5ea8d68a37c5173456c94f50,ma44fy1wof,"Deep vs Shallow",1,39,2020-07-08T14:13:57-07:00,2.1086180210114,4,versionC_stim.csv,RLVersionD.csv,"Relational Version D","Relational, read only version D",REEL,ROD,Study2,S,150,136,Study,User,-,,Study/JOL,"Study Phase",1764,,,-1,-1,,,,1
5ea8d68a37c5173456c94f50,ma44fy1wof,"Deep vs Shallow",1,40,2020-07-08T14:13:59-07:00,1.7976741790771,4,versionC_stim.csv,RLVersionD.csv,"Relational Version D","Relational, read only version D",EAT,DINE,Study2,B,111,142,Study,User,-,,Study/JOL,"Study Phase",1443,,,-1,-1,,,,1
5ea8d68a37c5173456c94f50,ma44fy1wof,"Deep vs Shallow",1,41,2020-07-08T14:14:02-07:00,2.5392229557037,4,versionC_stim.csv,RLVersionD.csv,"Relational Version D","Relational, read only version D",BALLOON,POP,Study2,F,123,139,Study,User,-,,Study/JOL,"Study Phase",2078,,,-1,-1,,,,1
5ea8d68a37c5173456c94f50,ma44fy1wof,"Deep vs Shallow",1,42,2020-07-08T14:14:04-07:00,1.9775190353394,4,versionC_stim.csv,RLVersionD.csv,"Relational Version D","Relational, read only version D",SHAKE,Shell,Study2,U,163,172,Study,User,-,,Study/JOL,"Study Phase",1638,,,-1,-1,,,,1
5ea8d68a37c5173456c94f50,ma44fy1wof,"Deep vs Shallow",1,43,2020-07-08T14:14:06-07:00,2.6205749511719,4,versionC_stim.csv,RLVersionD.csv,"Relational Version D","Relational, read only version D",SMELL,INCENSE,Study2,B,110,167,Study,User,-,,Study/JOL,"Study Phase",2151,,,-1,-1,,,,1
5ea8d68a37c5173456c94f50,ma44fy1wof,"Deep vs Shallow",1,44,2020-07-08T14:14:11-07:00,4.3600769042969,4,versionC_stim.csv,RLVersionD.csv,"Relational Version D","Relational, read only version D",,,,,,0,Instruct,-,3,"Remember to focus on how the two items are similiar while you study!",,CHECK2,3900,,,-1,-1,,,,1
5ea8d68a37c5173456c94f50,ma44fy1wof,"Deep vs Shallow",1,45,2020-07-08T14:14:13-07:00,2.6857941150665,4,versionC_stim.csv,RLVersionD.csv,"Relational Version D","Relational, read only version D",SEATBELT,SAFETY,Study2,S,147,132,Study,User,-,,Study/JOL,"Study Phase",2222,,,-1,-1,,,,1
5ea8d68a37c5173456c94f50,ma44fy1wof,"Deep vs Shallow",1,46,2020-07-08T14:14:16-07:00,2.5004949569702,4,versionC_stim.csv,RLVersionD.csv,"Relational Version D","Relational, read only version D",THIMBLE,THREAD,Study2,F,121,97,Study,User,-,,Study/JOL,"Study Phase",2039,,,-1,-1,,,,1
5ea8d68a37c5173456c94f50,ma44fy1wof,"Deep vs Shallow",1,47,2020-07-08T14:14:19-07:00,2.6400001049042,4,versionC_stim.csv,RLVersionD.csv,"Relational Version D","Relational, read only version D",CLEAR,MOAT,Study2,U,169,161,Study,User,-,,Study/JOL,"Study Phase",2174,,,-1,-1,,,,1
5ea8d68a37c5173456c94f50,ma44fy1wof,"Deep vs Shallow",1,48,2020-07-08T14:14:21-07:00,2.4020109176636,4,versionC_stim.csv,RLVersionD.csv,"Relational Version D","Relational, read only version D",CLOTH,STRETCH,Study2,U,157,129,Study,User,-,,Study/JOL,"Study Phase",1855,,,-1,-1,,,,1
5ea8d68a37c5173456c94f50,ma44fy1wof,"Deep vs Shallow",1,49,2020-07-08T14:14:23-07:00,1.8065309524536,4,versionC_stim.csv,RLVersionD.csv,"Relational Version D","Relational, read only version D",END,ADJOURN,Study2,B,101,156,Study,User,-,,Study/JOL,"Study Phase",1453,,,-1,-1,,,,1
5ea8d68a37c5173456c94f50,ma44fy1wof,"Deep vs Shallow",1,50,2020-07-08T14:14:25-07:00,2.1646590232849,4,versionC_stim.csv,RLVersionD.csv,"Relational Version D","Relational, read only version D",VILLAIN,BAD,Study2,F,118,99,Study,User,-,,Study/JOL,"Study Phase",1810,,,-1,-1,,,,1
5ea8d68a37c5173456c94f50,ma44fy1wof,"Deep vs Shallow",1,51,2020-07-08T14:14:27-07:00,2.0899150371552,4,versionC_stim.csv,RLVersionD.csv,"Relational Version D","Relational, read only version D",NOISE,LOUD,Study2,S,152,171,Study,User,-,,Study/JOL,"Study Phase",1741,,,-1,-1,,,,1
5ea8d68a37c5173456c94f50,ma44fy1wof,"Deep vs Shallow",1,52,2020-07-08T14:14:29-07:00,1.766382932663,4,versionC_stim.csv,RLVersionD.csv,"Relational Version D","Relational, read only version D",TRASH,LITTER,Study2,B,103,105,Study,User,-,,Study/JOL,"Study Phase",1416,,,-1,-1,,,,1
5ea8d68a37c5173456c94f50,ma44fy1wof,"Deep vs Shallow",1,53,2020-07-08T14:14:31-07:00,2.4366209506989,4,versionC_stim.csv,RLVersionD.csv,"Relational Version D","Relational, read only version D",Morning,TEMPERATURE,Study2,U,173,155,Study,User,-,,Study/JOL,"Study Phase",1976,,,-1,-1,,,,1
5ea8d68a37c5173456c94f50,ma44fy1wof,"Deep vs Shallow",1,54,2020-07-08T14:14:33-07:00,2.1010131835938,4,versionC_stim.csv,RLVersionD.csv,"Relational Version D","Relational, read only version D",TICK,FLEA,Study2,S,151,117,Study,User,-,,Study/JOL,"Study Phase",1759,,,-1,-1,,,,1
5ea8d68a37c5173456c94f50,ma44fy1wof,"Deep vs Shallow",1,55,2020-07-08T14:14:36-07:00,2.395231962204,4,versionC_stim.csv,RLVersionD.csv,"Relational Version D","Relational, read only version D",PENGUIN,BIRD,Study2,F,119,170,Study,User,-,,Study/JOL,"Study Phase",1863,,,-1,-1,,,,1
5ea8d68a37c5173456c94f50,ma44fy1wof,"Deep vs Shallow",1,56,2020-07-08T14:14:38-07:00,2.5035269260406,4,versionC_stim.csv,RLVersionD.csv,"Relational Version D","Relational, read only version D",REVENGE,EVEN,Study2,F,122,133,Study,User,-,,Study/JOL,"Study Phase",2036,,,-1,-1,,,,1
5ea8d68a37c5173456c94f50,ma44fy1wof,"Deep vs Shallow",1,57,2020-07-08T14:14:41-07:00,3.0205330848694,4,versionC_stim.csv,RLVersionD.csv,"Relational Version D","Relational, read only version D",LONG,EXTENSION,Study2,B,96,114,Study,User,-,,Study/JOL,"Study Phase",2562,,,-1,-1,,,,1
5ea8d68a37c5173456c94f50,ma44fy1wof,"Deep vs Shallow",1,58,2020-07-08T14:14:43-07:00,2.1122698783875,4,versionC_stim.csv,RLVersionD.csv,"Relational Version D","Relational, read only version D",STRAWBERRY,FRUIT,Study2,F,124,111,Study,User,-,,Study/JOL,"Study Phase",1739,,,-1,-1,,,,1
5ea8d68a37c5173456c94f50,ma44fy1wof,"Deep vs Shallow",1,59,2020-07-08T14:14:46-07:00,2.5822899341583,4,versionC_stim.csv,RLVersionD.csv,"Relational Version D","Relational, read only version D",JOKE,KEYS,Study2,U,165,141,Study,User,-,,Study/JOL,"Study Phase",2109,,,-1,-1,,,,1
5ea8d68a37c5173456c94f50,ma44fy1wof,"Deep vs Shallow",1,60,2020-07-08T14:14:51-07:00,5.4807469844818,4,versionC_stim.csv,RLVersionD.csv,"Relational Version D","Relational, read only version D",BANG,FUZZY,Study2,U,168,107,Study,User,-,,Study/JOL,"Study Phase",5009,,,-1,-1,,,,1
5ea8d68a37c5173456c94f50,ma44fy1wof,"Deep vs Shallow",1,61,2020-07-08T14:14:54-07:00,2.1578612327576,4,versionC_stim.csv,RLVersionD.csv,"Relational Version D","Relational, read only version D",SARDINE,FISH,Study2,F,130,147,Study,User,-,,Study/JOL,"Study Phase",1798,,,-1,-1,,,,1
5ea8d68a37c5173456c94f50,ma44fy1wof,"Deep vs Shallow",1,62,2020-07-08T14:14:57-07:00,3.1505968570709,4,versionC_stim.csv,RLVersionD.csv,"Relational Version D","Relational, read only version D",BREAKABLE,GLASS,Study2,F,127,143,Study,User,-,,Study/JOL,"Study Phase",2648,,,-1,-1,,,,1
5ea8d68a37c5173456c94f50,ma44fy1wof,"Deep vs Shallow",1,63,2020-07-08T14:14:59-07:00,1.9347910881042,4,versionC_stim.csv,RLVersionD.csv,"Relational Version D","Relational, read only version D",CUT,CHOP,Study2,B,107,113,Study,User,-,,Study/JOL,"Study Phase",1590,,,-1,-1,,,,1
5ea8d68a37c5173456c94f50,ma44fy1wof,"Deep vs Shallow",1,64,2020-07-08T14:15:01-07:00,2.4110789299011,4,versionC_stim.csv,RLVersionD.csv,"Relational Version D","Relational, read only version D",COLD,CHILL,Study2,B,114,140,Study,User,-,,Study/JOL,"Study Phase",1922,,,-1,-1,,,,1
5ea8d68a37c5173456c94f50,ma44fy1wof,"Deep vs Shallow",1,65,2020-07-08T14:15:04-07:00,2.4597420692444,4,versionC_stim.csv,RLVersionD.csv,"Relational Version D","Relational, read only version D",COFFIN,DEAD,Study2,F,128,159,Study,User,-,,Study/JOL,"Study Phase",1945,,,-1,-1,,,,1
5ea8d68a37c5173456c94f50,ma44fy1wof,"Deep vs Shallow",1,66,2020-07-08T14:15:05-07:00,1.7690699100494,4,versionC_stim.csv,RLVersionD.csv,"Relational Version D","Relational, read only version D",PAPER,DOCUMENT,Study2,B,109,135,Study,User,-,,Study/JOL,"Study Phase",1426,,,-1,-1,,,,1
5ea8d68a37c5173456c94f50,ma44fy1wof,"Deep vs Shallow",1,67,2020-07-08T14:15:08-07:00,3.0870809555054,4,versionC_stim.csv,RLVersionD.csv,"Relational Version D","Relational, read only version D",SCAR,MAIN,Study2,U,175,124,Study,User,-,,Study/JOL,"Study Phase",2627,,,-1,-1,,,,1
5ea8d68a37c5173456c94f50,ma44fy1wof,"Deep vs Shallow",1,68,2020-07-08T14:15:11-07:00,2.401829957962,4,versionC_stim.csv,RLVersionD.csv,"Relational Version D","Relational, read only version D",GROUND,EARTH,Study2,S,144,162,Study,User,-,,Study/JOL,"Study Phase",1925,,,-1,-1,,,,1
5ea8d68a37c5173456c94f50,ma44fy1wof,"Deep vs Shallow",1,69,2020-07-08T14:15:13-07:00,1.8709490299225,4,versionC_stim.csv,RLVersionD.csv,"Relational Version D","Relational, read only version D",FLIP,TURN,Study2,F,116,128,Study,User,-,,Study/JOL,"Study Phase",1524,,,-1,-1,,,,1
5ea8d68a37c5173456c94f50,ma44fy1wof,"Deep vs Shallow",1,70,2020-07-08T14:15:15-07:00,1.8065421581268,4,versionC_stim.csv,RLVersionD.csv,"Relational Version D","Relational, read only version D",WET,DRY,Study2,S,146,151,Study,User,-,,Study/JOL,"Study Phase",1455,,,-1,-1,,,,1
5ea8d68a37c5173456c94f50,ma44fy1wof,"Deep vs Shallow",1,71,2020-07-08T14:15:18-07:00,3.2883968353271,4,versionC_stim.csv,RLVersionD.csv,"Relational Version D","Relational, read only version D",ABLE,CRACKLE,Study2,U,162,148,Study,User,-,,Study/JOL,"Study Phase",2744,,,-1,-1,,,,1
5ea8d68a37c5173456c94f50,ma44fy1wof,"Deep vs Shallow",1,72,2020-07-08T14:15:19-07:00,1.461138010025,4,versionC_stim.csv,RLVersionD.csv,"Relational Version D","Relational, read only version D",LIE,TRUTH,Study2,S,148,149,Study,User,-,,Study/JOL,"Study Phase",1120,,,-1,-1,,,,1
5ea8d68a37c5173456c94f50,ma44fy1wof,"Deep vs Shallow",1,73,2020-07-08T14:15:22-07:00,2.9369730949402,4,versionC_stim.csv,RLVersionD.csv,"Relational Version D","Relational, read only version D",ELECTION,MAZE,Study2,U,159,157,Study,User,-,,Study/JOL,"Study Phase",2467,,,-1,-1,,,,1
5ea8d68a37c5173456c94f50,ma44fy1wof,"Deep vs Shallow",1,74,2020-07-08T14:15:25-07:00,2.7095608711243,4,versionC_stim.csv,RLVersionD.csv,"Relational Version D","Relational, read only version D",ACTRESS,STAR,Study2,F,120,110,Study,User,-,,Study/JOL,"Study Phase",2228,,,-1,-1,,,,1
5ea8d68a37c5173456c94f50,ma44fy1wof,"Deep vs Shallow",1,75,2020-07-08T14:15:27-07:00,2.5121631622314,4,versionC_stim.csv,RLVersionD.csv,"Relational Version D","Relational, read only version D",TOIL,LEASE,Study2,U,170,112,Study,User,-,,Study/JOL,"Study Phase",2035,,,-1,-1,,,,1
5ea8d68a37c5173456c94f50,ma44fy1wof,"Deep vs Shallow",1,76,2020-07-08T14:15:29-07:00,1.5432488918304,4,versionC_stim.csv,RLVersionD.csv,"Relational Version D","Relational, read only version D",BANKER,MONEY,Study2,F,132,106,Study,User,-,,Study/JOL,"Study Phase",1198,,,-1,-1,,,,1
5ea8d68a37c5173456c94f50,ma44fy1wof,"Deep vs Shallow",1,77,2020-07-08T14:15:31-07:00,1.6173520088196,4,versionC_stim.csv,RLVersionD.csv,"Relational Version D","Relational, read only version D",HATE,NAME,Study2,U,167,134,Study,User,-,,Study/JOL,"Study Phase",1238,,,-1,-1,,,,1
5ea8d68a37c5173456c94f50,ma44fy1wof,"Deep vs Shallow",1,78,2020-07-08T14:15:33-07:00,2.0864591598511,4,versionC_stim.csv,RLVersionD.csv,"Relational Version D","Relational, read only version D",FICTION,LISTEN,Study2,U,164,120,Study,User,-,,Study/JOL,"Study Phase",1736,,,-1,-1,,,,1
5ea8d68a37c5173456c94f50,ma44fy1wof,"Deep vs Shallow",1,79,2020-07-08T14:15:36-07:00,3.0102307796478,4,versionC_stim.csv,RLVersionD.csv,"Relational Version D","Relational, read only version D",CLOTHES,CAKE,Study2,U,166,168,Study,User,-,,Study/JOL,"Study Phase",2545,,,-1,-1,,,,1
5ea8d68a37c5173456c94f50,ma44fy1wof,"Deep vs Shallow",1,80,2020-07-08T14:15:39-07:00,3.2214381694794,4,versionC_stim.csv,RLVersionD.csv,"Relational Version D","Relational, read only version D",CHILDREN,MIRROR,Study2,U,174,115,Study,User,-,,Study/JOL,"Study Phase",2737,,,-1,-1,,,,1
5ea8d68a37c5173456c94f50,ma44fy1wof,"Deep vs Shallow",1,81,2020-07-08T14:15:42-07:00,2.6357550621033,4,versionC_stim.csv,RLVersionD.csv,"Relational Version D","Relational, read only version D",AIRCRAFT,PLANE,Study2,F,129,119,Study,User,-,,Study/JOL,"Study Phase",1287,,,-1,-1,,,,1
5ea8d68a37c5173456c94f50,ma44fy1wof,"Deep vs Shallow",1,82,2020-07-08T14:15:45-07:00,2.9838049411774,4,versionC_stim.csv,RLVersionD.csv,"Relational Version D","Relational, read only version D",STEAK,GIVE,Study2,U,158,146,Study,User,-,,Study/JOL,"Study Phase",2523,,,-1,-1,,,,1
5ea8d68a37c5173456c94f50,ma44fy1wof,"Deep vs Shallow",1,83,2020-07-08T14:15:46-07:00,1.8903429508209,4,versionC_stim.csv,RLVersionD.csv,"Relational Version D","Relational, read only version D",SHAVE,RAZOR,Study2,S,136,154,Study,User,-,,Study/JOL,"Study Phase",1536,,,-1,-1,,,,1
5ea8d68a37c5173456c94f50,ma44fy1wof,"Deep vs Shallow",1,84,2020-07-08T14:15:50-07:00,3.9351229667664,4,versionC_stim.csv,RLVersionD.csv,"Relational Version D","Relational, read only version D",LEAGUE,BASEBALL,Study2,F,131,166,Study,User,-,,Study/JOL,"Study Phase",3463,,,-1,-1,,,,1
5ea8d68a37c5173456c94f50,ma44fy1wof,"Deep vs Shallow",1,85,2020-07-08T14:15:53-07:00,2.4240200519562,4,versionC_stim.csv,RLVersionD.csv,"Relational Version D","Relational, read only version D",OBTAIN,MEAT,Study2,U,161,103,Study,User,-,,Study/JOL,"Study Phase",1960,,,-1,-1,,,,1
5ea8d68a37c5173456c94f50,ma44fy1wof,"Deep vs Shallow",1,86,2020-07-08T14:15:55-07:00,1.8640420436859,4,versionC_stim.csv,RLVersionD.csv,"Relational Version D","Relational, read only version D",PANTHER,CAT,Study2,F,126,104,Study,User,-,,Study/JOL,"Study Phase",1494,,,-1,-1,,,,1
5ea8d68a37c5173456c94f50,ma44fy1wof,"Deep vs Shallow",1,87,2020-07-08T14:15:56-07:00,1.8526608943939,4,versionC_stim.csv,RLVersionD.csv,"Relational Version D","Relational, read only version D",SIGN,LOAN,Study2,U,171,165,Study,User,-,,Study/JOL,"Study Phase",1500,,,-1,-1,,,,1
5ea8d68a37c5173456c94f50,ma44fy1wof,"Deep vs Shallow",1,88,2020-07-08T14:15:59-07:00,2.0955519676208,4,versionC_stim.csv,RLVersionD.csv,"Relational Version D","Relational, read only version D",MAROON,JUSTICE,Study2,U,156,109,Study,User,-,,Study/JOL,"Study Phase",1733,,,-1,-1,,,,1
5ea8d68a37c5173456c94f50,ma44fy1wof,"Deep vs Shallow",1,89,2020-07-08T14:16:01-07:00,2.6763689517975,4,versionC_stim.csv,RLVersionD.csv,"Relational Version D","Relational, read only version D",DOG,FURRY,Study2,B,102,121,Study,User,-,,Study/JOL,"Study Phase",2214,,,-1,-1,,,,1
5ea8d68a37c5173456c94f50,ma44fy1wof,"Deep vs Shallow",1,90,2020-07-08T14:16:03-07:00,1.8272080421448,4,versionC_stim.csv,RLVersionD.csv,"Relational Version D","Relational, read only version D",HAVE,OWN,Study2,S,153,98,Study,User,-,,Study/JOL,"Study Phase",1479,,,-1,-1,,,,1
5ea8d68a37c5173456c94f50,ma44fy1wof,"Deep vs Shallow",1,91,2020-07-08T14:16:04-07:00,1.3800411224365,4,versionC_stim.csv,RLVersionD.csv,"Relational Version D","Relational, read only version D",WEAKS,DAYS,BUFFER4,Buffer,176,180,Study,User,-,,Study/JOL,BUFFER2,1036,,,-1,-1,,,,1
5ea8d68a37c5173456c94f50,ma44fy1wof,"Deep vs Shallow",1,92,2020-07-08T14:16:06-07:00,2.0161690711975,4,versionC_stim.csv,RLVersionD.csv,"Relational Version D","Relational, read only version D",MARCH,SPRING,BUFFER4,Buffer,179,178,Study,User,-,,Study/JOL,BUFFER2,1631,,,-1,-1,,,,1
5ea8d68a37c5173456c94f50,ma44fy1wof,"Deep vs Shallow",1,93,2020-07-08T14:16:09-07:00,2.6915957927704,4,versionC_stim.csv,RLVersionD.csv,"Relational Version D","Relational, read only version D",SPOOKY,OCTOBER,BUFFER4,Buffer,180,179,Study,User,-,,Study/JOL,BUFFER2,2227,,,-1,-1,,,,1
5ea8d68a37c5173456c94f50,ma44fy1wof,"Deep vs Shallow",1,94,2020-07-08T14:16:11-07:00,2.1078851222992,4,versionC_stim.csv,RLVersionD.csv,"Relational Version D","Relational, read only version D",SHED,TOOL,BUFFER4,Buffer,178,181,Study,User,-,,Study/JOL,BUFFER2,1754,,,-1,-1,,,,1
5ea8d68a37c5173456c94f50,ma44fy1wof,"Deep vs Shallow",1,95,2020-07-08T14:16:13-07:00,1.6241240501404,4,versionC_stim.csv,RLVersionD.csv,"Relational Version D","Relational, read only version D",YEAR,MONTH,BUFFER4,Buffer,177,177,Study,User,-,,Study/JOL,BUFFER2,1266,,,-1,-1,,,,1
5ea8d68a37c5173456c94f50,ma44fy1wof,"Deep vs Shallow",1,96,2020-07-08T14:16:23-07:00,9.8473958969116,4,versionC_stim.csv,RLVersionD.csv,"Relational Version D","Relational, read only version D",,,,,,0,Instruct,User,-,"You have completed this section. Please press Enter.",Filler_Instruction,Instruct2,9388,,,-1,-1,,,,1
5ea8d68a37c5173456c94f50,ma44fy1wof,"Deep vs Shallow",1,97,2020-07-08T14:16:24-07:00,1.1884660720825,4,versionC_stim.csv,RLVersionD.csv,"Relational Version D","Relational, read only version D",,,,,,0,Instruct,User,-,"You have completed this section. Please press Enter.",Filler_Instruction,Instruct5,846,,,-1,-1,,,,1
5ea8d68a37c5173456c94f50,ma44fy1wof,"Deep vs Shallow",1,98,2020-07-08T14:17:16-07:00,51.855413913727,4,versionC_stim.csv,RLVersionD.csv,"Relational Version D","Relational, read only version D",,,,,,0,FreeRecall,-,10,"What were you supposed to focus on while you studied each pair? (Hint: Think back to the instructions). Type your answer in the space below.",,CHECK3,51400,"We were suppose to focus on the pairs of words and how they are related. For example, Cold : Chill, they are both feelings of being cold but a different way of saying it.",0,6783,48908,0,0,,1
5ea8d68a37c5173456c94f50,ma44fy1wof,"Deep vs Shallow",1,99,2020-07-08T14:19:16-07:00,120.61288499832,4,versionC_stim.csv,RLVersionD.csv,"Relational Version D","Relational, read only version D",,,,,,0,FreeRecall,120,120,"Please list the 50 US states in alphabetical order. The task will automatically advance to the next screen after two minutes.",,Filler1,120001,"Alabama California Deleware Florida Georgia Hawaii Illinous Kansas Louisiana Maryland New York Ohio Pennsyl",0,8216,119594,0,0,,1
5ea8d68a37c5173456c94f50,ma44fy1wof,"Deep vs Shallow",1,100,2020-07-08T14:19:29-07:00,12.718415975571,4,versionC_stim.csv,RLVersionD.csv,"Relational Version D","Relational, read only version D",,,,,,0,Instruct,-,10,"You will now be presented with the first word from each of the previously studied item pairs. Please type the missing word. If you do not know the word, you may guess or press Enter to skip forward to the next pair.",,Instruct3,12217,,,-1,-1,,,,1
5ea8d68a37c5173456c94f50,ma44fy1wof,"Deep vs Shallow",1,101,2020-07-08T14:19:37-07:00,8.2760419845581,4,versionC_stim.csv,RLVersionD.csv,"Relational Version D","Relational, read only version D",STEAK,GIVE,Study2,U,158,146,Test,User,-,,Recall,Recall1,7795,roll,0,6250,6576,0,0,,1
5ea8d68a37c5173456c94f50,ma44fy1wof,"Deep vs Shallow",1,102,2020-07-08T14:19:42-07:00,4.7330479621887,4,versionC_stim.csv,RLVersionD.csv,"Relational Version D","Relational, read only version D",SMELL,INCENSE,Study2,B,110,167,Test,User,-,,Recall,Recall1,4255,Nose,54.545454545455,2638,3026,0,0,,1
5ea8d68a37c5173456c94f50,ma44fy1wof,"Deep vs Shallow",1,103,2020-07-08T14:19:48-07:00,5.6036911010742,4,versionC_stim.csv,RLVersionD.csv,"Relational Version D","Relational, read only version D",TEMPER,TANTRUM,Study2,S,154,164,Test,User,-,,Recall,Recall1,5156,Tantrum,100,3202,4117,1,1,,1
5ea8d68a37c5173456c94f50,ma44fy1wof,"Deep vs Shallow",1,104,2020-07-08T14:19:52-07:00,3.754823923111,4,versionC_stim.csv,RLVersionD.csv,"Relational Version D","Relational, read only version D",CARBON,ELEMENT,Study2,S,141,116,Test,User,-,,Recall,Recall1,3289,Element,100,1478,2431,1,1,,1
5ea8d68a37c5173456c94f50,ma44fy1wof,"Deep vs Shallow",1,105,2020-07-08T14:20:00-07:00,8.2725820541382,4,versionC_stim.csv,RLVersionD.csv,"Relational Version D","Relational, read only version D",AWAY,GONE,Study2,S,142,160,Test,User,-,,Recall,Recall1,7818,Gone,100,4853,6960,1,1,,1
5ea8d68a37c5173456c94f50,ma44fy1wof,"Deep vs Shallow",1,106,2020-07-08T14:20:09-07:00,8.9107429981232,4,versionC_stim.csv,RLVersionD.csv,"Relational Version D","Relational, read only version D",MYSTERY,DETECTIVE,Study2,B,100,131,Test,User,-,,Recall,Recall1,8432,Unsolved,23.529411764706,6632,7417,0,0,,1
5ea8d68a37c5173456c94f50,ma44fy1wof,"Deep vs Shallow",1,107,2020-07-08T14:20:13-07:00,4.2684459686279,4,versionC_stim.csv,RLVersionD.csv,"Relational Version D","Relational, read only version D",DOG,FURRY,Study2,B,102,121,Test,User,-,,Recall,Recall1,3791,Cat,0,2666,3017,0,0,,1
5ea8d68a37c5173456c94f50,ma44fy1wof,"Deep vs Shallow",1,108,2020-07-08T14:20:26-07:00,12.684520959854,4,versionC_stim.csv,RLVersionD.csv,"Relational Version D","Relational, read only version D",SIGN,LOAN,Study2,U,171,165,Test,User,-,,Recall,Recall1,12211,Logo,50,10981,11235,0,0,,1
5ea8d68a37c5173456c94f50,ma44fy1wof,"Deep vs Shallow",1,109,2020-07-08T14:20:36-07:00,10.513871192932,4,versionC_stim.csv,RLVersionD.csv,"Relational Version D","Relational, read only version D",CAR,DRIVER,Study2,B,106,102,Test,User,-,,Recall,Recall1,10041,,0,2151,7789,0,0,,1
5ea8d68a37c5173456c94f50,ma44fy1wof,"Deep vs Shallow",1,110,2020-07-08T14:20:39-07:00,3.2716410160065,4,versionC_stim.csv,RLVersionD.csv,"Relational Version D","Relational, read only version D",LIE,TRUTH,Study2,S,148,149,Test,User,-,,Recall,Recall1,2804,Truth,100,1519,1939,1,1,,1
5ea8d68a37c5173456c94f50,ma44fy1wof,"Deep vs Shallow",1,111,2020-07-08T14:20:49-07:00,9.3968977928162,4,versionC_stim.csv,RLVersionD.csv,"Relational Version D","Relational, read only version D",RED,CHERRY,Study2,B,104,145,Test,User,-,,Recall,Recall1,8924,Blood,0,6632,8189,0,0,,1
5ea8d68a37c5173456c94f50,ma44fy1wof,"Deep vs Shallow",1,112,2020-07-08T14:20:55-07:00,5.6837420463562,4,versionC_stim.csv,RLVersionD.csv,"Relational Version D","Relational, read only version D",WAX,CANDLE,Study2,S,139,152,Test,User,-,,Recall,Recall1,5204,Candle,100,3265,4279,1,1,,1
5ea8d68a37c5173456c94f50,ma44fy1wof,"Deep vs Shallow",1,113,2020-07-08T14:21:02-07:00,7.2352030277252,4,versionC_stim.csv,RLVersionD.csv,"Relational Version D","Relational, read only version D",TOIL,LEASE,Study2,U,170,112,Test,User,-,,Recall,Recall1,6752,Death,40,5374,5863,0,0,,1
5ea8d68a37c5173456c94f50,ma44fy1wof,"Deep vs Shallow",1,114,2020-07-08T14:21:08-07:00,6.3853471279144,4,versionC_stim.csv,RLVersionD.csv,"Relational Version D","Relational, read only version D",Morning,TEMPERATURE,Study2,U,173,155,Test,User,-,,Recall,Recall1,5904,Night,12.5,4719,5262,0,0,,1
5ea8d68a37c5173456c94f50,ma44fy1wof,"Deep vs Shallow",1,115,2020-07-08T14:21:12-07:00,3.7128109931946,4,versionC_stim.csv,RLVersionD.csv,"Relational Version D","Relational, read only version D",COMMUNICATION,PHONE,Study2,S,149,108,Test,User,-,,Recall,Recall1,3245,Phone,100,1925,2325,1,1,,1
5ea8d68a37c5173456c94f50,ma44fy1wof,"Deep vs Shallow",1,116,2020-07-08T14:21:17-07:00,4.9591248035431,4,versionC_stim.csv,RLVersionD.csv,"Relational Version D","Relational, read only version D",CHARM,VEHICLE,Study2,U,160,158,Test,User,-,,Recall,Recall1,4493,Car,20,3481,3805,0,0,,1
5ea8d68a37c5173456c94f50,ma44fy1wof,"Deep vs Shallow",1,117,2020-07-08T14:21:21-07:00,4.406455039978,4,versionC_stim.csv,RLVersionD.csv,"Relational Version D","Relational, read only version D",BALLOON,POP,Study2,F,123,139,Test,User,-,,Recall,Recall1,3938,Helium,0,2174,3052,0,0,,1
5ea8d68a37c5173456c94f50,ma44fy1wof,"Deep vs Shallow",1,118,2020-07-08T14:21:27-07:00,5.6765921115875,4,versionC_stim.csv,RLVersionD.csv,"Relational Version D","Relational, read only version D",EQUAL,RIGHTS,Study2,S,137,163,Test,User,-,,Recall,Recall1,5201,Rights,100,1960,2583,1,1,,1
5ea8d68a37c5173456c94f50,ma44fy1wof,"Deep vs Shallow",1,119,2020-07-08T14:21:30-07:00,3.1472299098969,4,versionC_stim.csv,RLVersionD.csv,"Relational Version D","Relational, read only version D",SEATBELT,SAFETY,Study2,S,147,132,Test,User,-,,Recall,Recall1,2678,Car,22.222222222222,1552,1911,0,0,,1
5ea8d68a37c5173456c94f50,ma44fy1wof,"Deep vs Shallow",1,120,2020-07-08T14:21:35-07:00,4.9910309314728,4,versionC_stim.csv,RLVersionD.csv,"Relational Version D","Relational, read only version D",CLOTH,STRETCH,Study2,U,157,129,Test,User,-,,Recall,Recall1,4496,"streach ",85.714285714286,1728,4095,0,1,,1
5ea8d68a37c5173456c94f50,ma44fy1wof,"Deep vs Shallow",1,121,2020-07-08T14:21:39-07:00,4.0457441806793,4,versionC_stim.csv,RLVersionD.csv,"Relational Version D","Relational, read only version D",FICTION,LISTEN,Study2,U,164,120,Test,User,-,,Recall,Recall1,3568,Pull,20,2195,2638,0,0,,1
5ea8d68a37c5173456c94f50,ma44fy1wof,"Deep vs Shallow",1,122,2020-07-08T14:21:42-07:00,2.9256339073181,4,versionC_stim.csv,RLVersionD.csv,"Relational Version D","Relational, read only version D",SARDINE,FISH,Study2,F,130,147,Test,User,-,,Recall,Recall1,2473,Fish,100,1413,1663,1,1,,1
5ea8d68a37c5173456c94f50,ma44fy1wof,"Deep vs Shallow",1,123,2020-07-08T14:21:47-07:00,5.4341199398041,4,versionC_stim.csv,RLVersionD.csv,"Relational Version D","Relational, read only version D",SCAR,MAIN,Study2,U,175,124,Test,User,-,,Recall,Recall1,4958,Face,25,4101,4444,0,0,,1
5ea8d68a37c5173456c94f50,ma44fy1wof,"Deep vs Shallow",1,124,2020-07-08T14:21:53-07:00,5.167013168335,4,versionC_stim.csv,RLVersionD.csv,"Relational Version D","Relational, read only version D",SHAKE,Shell,Study2,U,163,172,Test,User,-,,Recall,Recall1,4686,Wobble,18.181818181818,3459,3976,0,0,,1
5ea8d68a37c5173456c94f50,ma44fy1wof,"Deep vs Shallow",1,125,2020-07-08T14:21:56-07:00,3.1695599555969,4,versionC_stim.csv,RLVersionD.csv,"Relational Version D","Relational, read only version D",JAR,MASON,Study2,S,138,144,Test,User,-,,Recall,Recall1,2693,Mason,100,1399,1797,1,1,,1
5ea8d68a37c5173456c94f50,ma44fy1wof,"Deep vs Shallow",1,126,2020-07-08T14:22:00-07:00,4.2895040512085,4,versionC_stim.csv,RLVersionD.csv,"Relational Version D","Relational, read only version D",VILLAIN,BAD,Study2,F,118,99,Test,User,-,,Recall,Recall1,3817,Bad,100,2624,2900,1,1,,1
5ea8d68a37c5173456c94f50,ma44fy1wof,"Deep vs Shallow",1,127,2020-07-08T14:22:04-07:00,3.7383189201355,4,versionC_stim.csv,RLVersionD.csv,"Relational Version D","Relational, read only version D",PANTHER,CAT,Study2,F,126,104,Test,User,-,,Recall,Recall1,3267,Cat,100,2283,2662,1,1,,1
5ea8d68a37c5173456c94f50,ma44fy1wof,"Deep vs Shallow",1,128,2020-07-08T14:22:08-07:00,4.2311699390411,4,versionC_stim.csv,RLVersionD.csv,"Relational Version D","Relational, read only version D",DONKEY,MULE,Study2,B,108,173,Test,User,-,,Recall,Recall1,3764,Mule,100,1405,2827,1,1,,1
5ea8d68a37c5173456c94f50,ma44fy1wof,"Deep vs Shallow",1,129,2020-07-08T14:22:13-07:00,4.9484570026398,4,versionC_stim.csv,RLVersionD.csv,"Relational Version D","Relational, read only version D",ELECTION,MAZE,Study2,U,159,157,Test,User,-,,Recall,Recall1,4466,Queue,22.222222222222,3026,3448,0,0,,1
5ea8d68a37c5173456c94f50,ma44fy1wof,"Deep vs Shallow",1,130,2020-07-08T14:22:17-07:00,4.0931041240692,4,versionC_stim.csv,RLVersionD.csv,"Relational Version D","Relational, read only version D",LONG,EXTENSION,Study2,B,96,114,Test,User,-,,Recall,Recall1,2611,Short,28.571428571429,1510,1975,0,0,,1
5ea8d68a37c5173456c94f50,ma44fy1wof,"Deep vs Shallow",1,131,2020-07-08T14:22:21-07:00,4.1497678756714,4,versionC_stim.csv,RLVersionD.csv,"Relational Version D","Relational, read only version D",HEAD,SCALP,Study2,B,105,153,Test,User,-,,Recall,Recall1,2674,Toes,22.222222222222,1698,2044,0,0,,1
5ea8d68a37c5173456c94f50,ma44fy1wof,"Deep vs Shallow",1,132,2020-07-08T14:22:25-07:00,3.3027939796448,4,versionC_stim.csv,RLVersionD.csv,"Relational Version D","Relational, read only version D",FLIP,TURN,Study2,F,116,128,Test,User,-,,Recall,Recall1,2825,Twist,22.222222222222,1470,2062,0,0,,1
5ea8d68a37c5173456c94f50,ma44fy1wof,"Deep vs Shallow",1,133,2020-07-08T14:22:32-07:00,7.9071550369263,4,versionC_stim.csv,RLVersionD.csv,"Relational Version D","Relational, read only version D",CUT,CHOP,Study2,B,107,113,Test,User,-,,Recall,Recall1,7418,Slice,22.222222222222,6091,6635,0,0,,1
5ea8d68a37c5173456c94f50,ma44fy1wof,"Deep vs Shallow",1,134,2020-07-08T14:22:36-07:00,3.4496970176697,4,versionC_stim.csv,RLVersionD.csv,"Relational Version D","Relational, read only version D",PAPER,DOCUMENT,Study2,B,109,135,Test,User,-,,Recall,Recall1,2975,Cut,54.545454545455,1930,2170,0,0,,1
5ea8d68a37c5173456c94f50,ma44fy1wof,"Deep vs Shallow",1,135,2020-07-08T14:22:41-07:00,5.0423719882965,4,versionC_stim.csv,RLVersionD.csv,"Relational Version D","Relational, read only version D",MAROON,JUSTICE,Study2,U,156,109,Test,User,-,,Recall,Recall1,4566,Red,20,1386,1677,0,0,,1
5ea8d68a37c5173456c94f50,ma44fy1wof,"Deep vs Shallow",1,136,2020-07-08T14:22:44-07:00,3.1734840869904,4,versionC_stim.csv,RLVersionD.csv,"Relational Version D","Relational, read only version D",PENGUIN,BIRD,Study2,F,119,170,Test,User,-,,Recall,Recall1,2698,Bird,100,1335,1693,1,1,,1
5ea8d68a37c5173456c94f50,ma44fy1wof,"Deep vs Shallow",1,137,2020-07-08T14:22:49-07:00,4.5928859710693,4,versionC_stim.csv,RLVersionD.csv,"Relational Version D","Relational, read only version D",NAP,SLEEP,Study2,F,134,126,Test,User,-,,Recall,Recall1,4120,Sleep,100,2866,3242,1,1,,1
5ea8d68a37c5173456c94f50,ma44fy1wof,"Deep vs Shallow",1,138,2020-07-08T14:22:53-07:00,4.7069730758667,4,versionC_stim.csv,RLVersionD.csv,"Relational Version D","Relational, read only version D",SHAVE,RAZOR,Study2,S,136,154,Test,User,-,,Recall,Recall1,4237,Hair,44.444444444444,3088,3391,0,0,,1
5ea8d68a37c5173456c94f50,ma44fy1wof,"Deep vs Shallow",1,139,2020-07-08T14:22:57-07:00,3.7153887748718,4,versionC_stim.csv,RLVersionD.csv,"Relational Version D","Relational, read only version D",COFFIN,DEAD,Study2,F,128,159,Test,User,-,,Recall,Recall1,3241,Death,66.666666666667,1274,2884,0,0,,1
5ea8d68a37c5173456c94f50,ma44fy1wof,"Deep vs Shallow",1,140,2020-07-08T14:23:01-07:00,3.5830800533295,4,versionC_stim.csv,RLVersionD.csv,"Relational Version D","Relational, read only version D",BRACELET,WRIST,Study2,S,140,138,Test,User,-,,Recall,Recall1,3121,Arm,25,2167,2386,0,0,,1
5ea8d68a37c5173456c94f50,ma44fy1wof,"Deep vs Shallow",1,141,2020-07-08T14:23:05-07:00,4.4317469596863,4,versionC_stim.csv,RLVersionD.csv,"Relational Version D","Relational, read only version D",BANKER,MONEY,Study2,F,132,106,Test,User,-,,Recall,Recall1,3958,Money,100,2206,2671,1,1,,1
5ea8d68a37c5173456c94f50,ma44fy1wof,"Deep vs Shallow",1,142,2020-07-08T14:23:11-07:00,5.9342501163483,4,versionC_stim.csv,RLVersionD.csv,"Relational Version D","Relational, read only version D",PLANT,CACTUS,Study2,B,98,130,Test,User,-,,Recall,Recall1,5473,Green,0,3967,4688,0,0,,1
5ea8d68a37c5173456c94f50,ma44fy1wof,"Deep vs Shallow",1,143,2020-07-08T14:23:15-07:00,4.3850960731506,4,versionC_stim.csv,RLVersionD.csv,"Relational Version D","Relational, read only version D",THIMBLE,THREAD,Study2,F,121,97,Test,User,-,,Recall,Recall1,3910,Thread,100,2542,3174,1,1,,1
5ea8d68a37c5173456c94f50,ma44fy1wof,"Deep vs Shallow",1,144,2020-07-08T14:23:18-07:00,2.5760598182678,4,versionC_stim.csv,RLVersionD.csv,"Relational Version D","Relational, read only version D",LEAGUE,BASEBALL,Study2,F,131,166,Test,User,-,,Recall,Recall1,2107,,0,-1,-1,0,0,,1
5ea8d68a37c5173456c94f50,ma44fy1wof,"Deep vs Shallow",1,145,2020-07-08T14:23:23-07:00,4.9895641803741,4,versionC_stim.csv,RLVersionD.csv,"Relational Version D","Relational, read only version D",AIRCRAFT,PLANE,Study2,F,129,119,Test,User,-,,Recall,Recall1,4502,Airplane,76.923076923077,1338,3579,0,1,,1
5ea8d68a37c5173456c94f50,ma44fy1wof,"Deep vs Shallow",1,146,2020-07-08T14:23:27-07:00,3.679899930954,4,versionC_stim.csv,RLVersionD.csv,"Relational Version D","Relational, read only version D",HATE,NAME,Study2,U,167,134,Test,User,-,,Recall,Recall1,3217,Love,25,2140,2514,0,0,,1
5ea8d68a37c5173456c94f50,ma44fy1wof,"Deep vs Shallow",1,147,2020-07-08T14:23:30-07:00,3.4272100925446,4,versionC_stim.csv,RLVersionD.csv,"Relational Version D","Relational, read only version D",CHILDREN,MIRROR,Study2,U,174,115,Test,User,-,,Recall,Recall1,2951,Adult,0,1736,2235,0,0,,1
5ea8d68a37c5173456c94f50,ma44fy1wof,"Deep vs Shallow",1,148,2020-07-08T14:23:33-07:00,3.1912968158722,4,versionC_stim.csv,RLVersionD.csv,"Relational Version D","Relational, read only version D",TRASH,LITTER,Study2,B,103,105,Test,User,-,,Recall,Recall1,2720,Bin,22.222222222222,1769,1984,0,0,,1
5ea8d68a37c5173456c94f50,ma44fy1wof,"Deep vs Shallow",1,149,2020-07-08T14:23:36-07:00,2.6644620895386,4,versionC_stim.csv,RLVersionD.csv,"Relational Version D","Relational, read only version D",COLD,CHILL,Study2,B,114,140,Test,User,-,,Recall,Recall1,2191,Hot,25,1186,1406,0,0,,1
5ea8d68a37c5173456c94f50,ma44fy1wof,"Deep vs Shallow",1,150,2020-07-08T14:23:40-07:00,4.3528850078583,4,versionC_stim.csv,RLVersionD.csv,"Relational Version D","Relational, read only version D",OUNCE,BOTH,Study2,U,172,150,Test,User,-,,Recall,Recall1,3859,,0,-1,-1,0,0,,1
5ea8d68a37c5173456c94f50,ma44fy1wof,"Deep vs Shallow",1,151,2020-07-08T14:23:44-07:00,3.2214729785919,4,versionC_stim.csv,RLVersionD.csv,"Relational Version D","Relational, read only version D",BREAKABLE,GLASS,Study2,F,127,143,Test,User,-,,Recall,Recall1,2738,Glass,100,1785,2284,1,1,,1
5ea8d68a37c5173456c94f50,ma44fy1wof,"Deep vs Shallow",1,152,2020-07-08T14:23:47-07:00,3.1179931163788,4,versionC_stim.csv,RLVersionD.csv,"Relational Version D","Relational, read only version D",NOISE,LOUD,Study2,S,152,171,Test,User,-,,Recall,Recall1,2643,Loud,100,1558,1905,1,1,,1
5ea8d68a37c5173456c94f50,ma44fy1wof,"Deep vs Shallow",1,153,2020-07-08T14:23:51-07:00,3.9513189792633,4,versionC_stim.csv,RLVersionD.csv,"Relational Version D","Relational, read only version D",WINDSHIELD,CAR,Study2,F,117,125,Test,User,-,,Recall,Recall1,3480,Wipe,0,2155,2728,0,0,,1
5ea8d68a37c5173456c94f50,ma44fy1wof,"Deep vs Shallow",1,154,2020-07-08T14:23:54-07:00,3.3736548423767,4,versionC_stim.csv,RLVersionD.csv,"Relational Version D","Relational, read only version D",JOKE,KEYS,Study2,U,165,141,Test,User,-,,Recall,Recall1,2912,Funny,22.222222222222,1841,2289,0,0,,1
5ea8d68a37c5173456c94f50,ma44fy1wof,"Deep vs Shallow",1,155,2020-07-08T14:23:57-07:00,3.1820960044861,4,versionC_stim.csv,RLVersionD.csv,"Relational Version D","Relational, read only version D",EAT,DINE,Study2,B,111,142,Test,User,-,,Recall,Recall1,2695,Drink,66.666666666667,1465,1944,0,0,,1
5ea8d68a37c5173456c94f50,ma44fy1wof,"Deep vs Shallow",1,156,2020-07-08T14:24:01-07:00,3.9510090351105,4,versionC_stim.csv,RLVersionD.csv,"Relational Version D","Relational, read only version D",TRUTHFUL,HONEST,Study2,F,133,127,Test,User,-,,Recall,Recall1,3482,Lie,22.222222222222,2572,2805,0,0,,1
5ea8d68a37c5173456c94f50,ma44fy1wof,"Deep vs Shallow",1,157,2020-07-08T14:24:05-07:00,3.7562351226807,4,versionC_stim.csv,RLVersionD.csv,"Relational Version D","Relational, read only version D",WET,DRY,Study2,S,146,151,Test,User,-,,Recall,Recall1,3285,Dry,100,1634,1870,1,1,,1
5ea8d68a37c5173456c94f50,ma44fy1wof,"Deep vs Shallow",1,158,2020-07-08T14:24:11-07:00,5.8453249931335,4,versionC_stim.csv,RLVersionD.csv,"Relational Version D","Relational, read only version D",GAME,CLUE,Study2,B,97,174,Test,User,-,,Recall,Recall1,5376,Fun,28.571428571429,4348,4591,0,0,,1
5ea8d68a37c5173456c94f50,ma44fy1wof,"Deep vs Shallow",1,159,2020-07-08T14:24:15-07:00,4.4258909225464,4,versionC_stim.csv,RLVersionD.csv,"Relational Version D","Relational, read only version D",BRAWL,FIGHT,Study2,F,135,123,Test,User,-,,Recall,Recall1,3956,Fight,100,2896,3416,1,1,,1
5ea8d68a37c5173456c94f50,ma44fy1wof,"Deep vs Shallow",1,160,2020-07-08T14:24:20-07:00,4.90678191185,4,versionC_stim.csv,RLVersionD.csv,"Relational Version D","Relational, read only version D",FAVORITE,BEST,Study2,F,125,176,Test,User,-,,Recall,Recall1,4435,,0,-1,-1,0,0,,1
5ea8d68a37c5173456c94f50,ma44fy1wof,"Deep vs Shallow",1,161,2020-07-08T14:24:25-07:00,4.6209750175476,4,versionC_stim.csv,RLVersionD.csv,"Relational Version D","Relational, read only version D",DRINK,WATER,Study2,S,143,101,Test,User,-,,Recall,Recall1,4157,Water,100,3262,3865,1,1,,1
5ea8d68a37c5173456c94f50,ma44fy1wof,"Deep vs Shallow",1,162,2020-07-08T14:24:29-07:00,4.1171660423279,4,versionC_stim.csv,RLVersionD.csv,"Relational Version D","Relational, read only version D",TICK,FLEA,Study2,S,151,117,Test,User,-,,Recall,Recall1,3634,Flea,100,2740,3129,1,1,,1
5ea8d68a37c5173456c94f50,ma44fy1wof,"Deep vs Shallow",1,163,2020-07-08T14:24:30-07:00,1.6128420829773,4,versionC_stim.csv,RLVersionD.csv,"Relational Version D","Relational, read only version D",REEL,ROD,Study2,S,150,136,Test,User,-,,Recall,Recall1,1249,,0,-1,-1,0,0,,1
5ea8d68a37c5173456c94f50,ma44fy1wof,"Deep vs Shallow",1,164,2020-07-08T14:24:34-07:00,3.2843890190125,4,versionC_stim.csv,RLVersionD.csv,"Relational Version D","Relational, read only version D",GROUND,EARTH,Study2,S,144,162,Test,User,-,,Recall,Recall1,2810,Earth,100,1325,1839,1,1,,1
5ea8d68a37c5173456c94f50,ma44fy1wof,"Deep vs Shallow",1,165,2020-07-08T14:24:38-07:00,4.2978839874268,4,versionC_stim.csv,RLVersionD.csv,"Relational Version D","Relational, read only version D",ACTRESS,STAR,Study2,F,120,110,Test,User,-,,Recall,Recall1,3818,Actor,44.444444444444,1907,2914,0,0,,1
5ea8d68a37c5173456c94f50,ma44fy1wof,"Deep vs Shallow",1,166,2020-07-08T14:24:42-07:00,3.7826368808746,4,versionC_stim.csv,RLVersionD.csv,"Relational Version D","Relational, read only version D",OBTAIN,MEAT,Study2,U,161,103,Test,User,-,,Recall,Recall1,3318,Have,25,2138,2408,0,0,,1
5ea8d68a37c5173456c94f50,ma44fy1wof,"Deep vs Shallow",1,167,2020-07-08T14:24:45-07:00,2.7993540763855,4,versionC_stim.csv,RLVersionD.csv,"Relational Version D","Relational, read only version D",REVENGE,EVEN,Study2,F,122,133,Test,User,-,,Recall,Recall1,2298,,0,-1,-1,0,0,,1
5ea8d68a37c5173456c94f50,ma44fy1wof,"Deep vs Shallow",1,168,2020-07-08T14:24:51-07:00,6.2243709564209,4,versionC_stim.csv,RLVersionD.csv,"Relational Version D","Relational, read only version D",CLEAR,MOAT,Study2,U,169,161,Test,User,-,,Recall,Recall1,5748,,0,-1,-1,0,0,,1
5ea8d68a37c5173456c94f50,ma44fy1wof,"Deep vs Shallow",1,169,2020-07-08T14:24:54-07:00,3.5671439170837,4,versionC_stim.csv,RLVersionD.csv,"Relational Version D","Relational, read only version D",HAVE,OWN,Study2,S,153,98,Test,User,-,,Recall,Recall1,3097,Obtain,44.444444444444,1588,2290,0,0,,1
5ea8d68a37c5173456c94f50,ma44fy1wof,"Deep vs Shallow",1,170,2020-07-08T14:24:57-07:00,2.6510150432587,4,versionC_stim.csv,RLVersionD.csv,"Relational Version D","Relational, read only version D",LOVE,AFFECTION,Study2,B,115,100,Test,User,-,,Recall,Recall1,2174,Hate,30.769230769231,1322,1698,0,0,,1
5ea8d68a37c5173456c94f50,ma44fy1wof,"Deep vs Shallow",1,171,2020-07-08T14:25:02-07:00,5.0479221343994,4,versionC_stim.csv,RLVersionD.csv,"Relational Version D","Relational, read only version D",END,ADJOURN,Study2,B,101,156,Test,User,-,,Recall,Recall1,4583,Start,33.333333333333,3117,3777,0,0,,1
5ea8d68a37c5173456c94f50,ma44fy1wof,"Deep vs Shallow",1,172,2020-07-08T14:25:05-07:00,3.050125837326,4,versionC_stim.csv,RLVersionD.csv,"Relational Version D","Relational, read only version D",BANG,FUZZY,Study2,U,168,107,Test,User,-,,Recall,Recall1,2571,Loud,22.222222222222,1425,1764,0,0,,1
5ea8d68a37c5173456c94f50,ma44fy1wof,"Deep vs Shallow",1,173,2020-07-08T14:25:09-07:00,4.1101059913635,4,versionC_stim.csv,RLVersionD.csv,"Relational Version D","Relational, read only version D",FIGHT,FEUD,Study2,B,113,175,Test,User,-,,Recall,Recall1,3629,fight,22.222222222222,2429,3556,0,0,,1
5ea8d68a37c5173456c94f50,ma44fy1wof,"Deep vs Shallow",1,174,2020-07-08T14:25:12-07:00,2.3979439735413,4,versionC_stim.csv,RLVersionD.csv,"Relational Version D","Relational, read only version D",STRAWBERRY,FRUIT,Study2,F,124,111,Test,User,-,,Recall,Recall1,1829,,0,-1,-1,0,0,,1
5ea8d68a37c5173456c94f50,ma44fy1wof,"Deep vs Shallow",1,175,2020-07-08T14:25:15-07:00,3.5159821510315,4,versionC_stim.csv,RLVersionD.csv,"Relational Version D","Relational, read only version D",ABLE,CRACKLE,Study2,U,162,148,Test,User,-,,Recall,Recall1,3048,"Cant ",36.363636363636,1525,2491,0,0,,1
5ea8d68a37c5173456c94f50,ma44fy1wof,"Deep vs Shallow",1,176,2020-07-08T14:25:18-07:00,3.1186029911041,4,versionC_stim.csv,RLVersionD.csv,"Relational Version D","Relational, read only version D",LONELY,ALONE,Study2,S,145,122,Test,User,-,,Recall,Recall1,2651,Alone,100,1331,1733,1,1,,1
5ea8d68a37c5173456c94f50,ma44fy1wof,"Deep vs Shallow",1,177,2020-07-08T14:25:27-07:00,8.2524690628052,4,versionC_stim.csv,RLVersionD.csv,"Relational Version D","Relational, read only version D",TIE,SHOELACE,Study2,B,99,169,Test,User,-,,Recall,Recall1,7779,Lie,36.363636363636,3903,7054,0,0,,1
5ea8d68a37c5173456c94f50,ma44fy1wof,"Deep vs Shallow",1,178,2020-07-08T14:25:28-07:00,1.4576199054718,4,versionC_stim.csv,RLVersionD.csv,"Relational Version D","Relational, read only version D",SCISSORS,SHEARS,Study2,B,112,137,Test,User,-,,Recall,Recall1,1111,,0,-1,-1,0,0,,1
5ea8d68a37c5173456c94f50,ma44fy1wof,"Deep vs Shallow",1,179,2020-07-08T14:25:31-07:00,2.9264481067657,4,versionC_stim.csv,RLVersionD.csv,"Relational Version D","Relational, read only version D",TAN,SUN,Study2,S,155,118,Test,User,-,,Recall,Recall1,2444,Sun,100,1496,1700,1,1,,1
5ea8d68a37c5173456c94f50,ma44fy1wof,"Deep vs Shallow",1,180,2020-07-08T14:25:33-07:00,1.837926864624,4,versionC_stim.csv,RLVersionD.csv,"Relational Version D","Relational, read only version D",CLOTHES,CAKE,Study2,U,166,168,Test,User,-,,Recall,Recall1,1489,,0,-1,-1,0,0,,1
5ea8d68a37c5173456c94f50,ma44fy1wof,"Deep vs Shallow",1,181,2020-07-08T14:25:45-07:00,12.648249149323,4,versionC_stim.csv,RLVersionD.csv,"Relational Version D","Relational, read only version D",,,,,,0,Instruct,,10,"You will now be presented with a new set of word pairs. Please study each pair. Remember that your memory will be tested! When finished, press Enter to move to the next pair.",Initial_Instruct,Instruct4,12177,,,-1,-1,,,,1
5ea8d68a37c5173456c94f50,ma44fy1wof,"Deep vs Shallow",1,182,2020-07-08T14:26:01-07:00,15.904210805893,4,versionC_stim.csv,RLVersionD.csv,"Relational Version D","Relational, read only version D",,,,,,0,Instruct,-,15,"As you study, please think about how the two concepts are RELATED to each other. For example, if you see the pair TURTLE-CAT, think about how both are alive, they are both animals, and both can be kept as pets.",,Instruct20,15432,,,-1,-1,,,,1
5ea8d68a37c5173456c94f50,ma44fy1wof,"Deep vs Shallow",1,183,2020-07-08T14:26:38-07:00,36.286374092102,4,versionC_stim.csv,RLVersionD.csv,"Relational Version D","Relational, read only version D",,,,,,0,FreeRecall,-,10,"What you should think about as you study each item pair? Type your response in the box below.",,CHECK4,35787,"see how they are both related. for example, a Cat:dog they are both living creatures but they are both different. ",0,3337,34670,0,0,,1
5ea8d68a37c5173456c94f50,ma44fy1wof,"Deep vs Shallow",1,184,2020-07-08T14:26:52-07:00,14.016746044159,4,versionC_stim.csv,RLVersionD.csv,"Relational Version D","Relational, read only version D",,,,,,0,Instruct,User,-,"Press Enter when you are readty to begin",,Instruct11,13529,,,-1,-1,,,,1
5ea8d68a37c5173456c94f50,ma44fy1wof,"Deep vs Shallow",1,185,2020-07-08T14:26:58-07:00,6.4367399215698,4,versionC_stim.csv,RLVersionD.csv,"Relational Version D","Relational, read only version D",GREEN,TREES,BUFFER1,Buffer,1,3,Study,User,-,,Study/JOL,BUFFER3,5937,,,-1,-1,,,,1
5ea8d68a37c5173456c94f50,ma44fy1wof,"Deep vs Shallow",1,186,2020-07-08T14:27:05-07:00,6.9994480609894,4,versionC_stim.csv,RLVersionD.csv,"Relational Version D","Relational, read only version D",JAM,SPACE,BUFFER1,Buffer,5,6,Study,User,-,,Study/JOL,BUFFER3,6502,,,-1,-1,,,,1
5ea8d68a37c5173456c94f50,ma44fy1wof,"Deep vs Shallow",1,187,2020-07-08T14:27:12-07:00,7.200474023819,4,versionC_stim.csv,RLVersionD.csv,"Relational Version D","Relational, read only version D",BUTTER,PEANUT,BUFFER1,Buffer,3,5,Study,User,-,,Study/JOL,BUFFER3,6695,,,-1,-1,,,,1
5ea8d68a37c5173456c94f50,ma44fy1wof,"Deep vs Shallow",1,188,2020-07-08T14:27:18-07:00,5.3036768436432,4,versionC_stim.csv,RLVersionD.csv,"Relational Version D","Relational, read only version D",CATCHER,BASEBALL,BUFFER1,Buffer,2,4,Study,User,-,,Study/JOL,BUFFER3,4813,,,-1,-1,,,,1
5ea8d68a37c5173456c94f50,ma44fy1wof,"Deep vs Shallow",1,189,2020-07-08T14:27:21-07:00,3.7137670516968,4,versionC_stim.csv,RLVersionD.csv,"Relational Version D","Relational, read only version D",HIDE,SCARE,BUFFER1,Buffer,4,2,Study,User,-,,Study/JOL,BUFFER3,3228,,,-1,-1,,,,1
5ea8d68a37c5173456c94f50,ma44fy1wof,"Deep vs Shallow",1,190,2020-07-08T14:27:25-07:00,3.3625121116638,4,versionC_stim.csv,RLVersionD.csv,"Relational Version D","Relational, read only version D",LIVER,KIDNEY,Study1,S,53,59,Study,User,-,,Study/JOL,"Study Phase2",2890,,,-1,-1,,,,1
5ea8d68a37c5173456c94f50,ma44fy1wof,"Deep vs Shallow",1,191,2020-07-08T14:27:33-07:00,8.3462498188019,4,versionC_stim.csv,RLVersionD.csv,"Relational Version D","Relational, read only version D",NEWS,EDITOR,Study1,B,10,86,Study,User,-,,Study/JOL,"Study Phase2",7874,,,-1,-1,,,,1
5ea8d68a37c5173456c94f50,ma44fy1wof,"Deep vs Shallow",1,192,2020-07-08T14:27:36-07:00,3.1456570625305,4,versionC_stim.csv,RLVersionD.csv,"Relational Version D","Relational, read only version D",FISH,TUNA,Study1,B,25,81,Study,User,-,,Study/JOL,"Study Phase2",2679,,,-1,-1,,,,1
5ea8d68a37c5173456c94f50,ma44fy1wof,"Deep vs Shallow",1,193,2020-07-08T14:27:45-07:00,8.5441179275513,4,versionC_stim.csv,RLVersionD.csv,"Relational Version D","Relational, read only version D",CAR,HAPPY,Study1,U,77,15,Study,User,-,,Study/JOL,"Study Phase2",8081,,,-1,-1,,,,1
5ea8d68a37c5173456c94f50,ma44fy1wof,"Deep vs Shallow",1,194,2020-07-08T14:27:48-07:00,3.511999130249,4,versionC_stim.csv,RLVersionD.csv,"Relational Version D","Relational, read only version D",STENCH,SMELL,Study1,F,42,33,Study,User,-,,Study/JOL,"Study Phase2",3036,,,-1,-1,,,,1
5ea8d68a37c5173456c94f50,ma44fy1wof,"Deep vs Shallow",1,195,2020-07-08T14:27:52-07:00,3.9053070545197,4,versionC_stim.csv,RLVersionD.csv,"Relational Version D","Relational, read only version D",AMOUNT,NUMBER,Study1,S,47,14,Study,User,-,,Study/JOL,"Study Phase2",3433,,,-1,-1,,,,1
5ea8d68a37c5173456c94f50,ma44fy1wof,"Deep vs Shallow",1,196,2020-07-08T14:27:57-07:00,4.7691659927368,4,versionC_stim.csv,RLVersionD.csv,"Relational Version D","Relational, read only version D",FANTASTIC,GREAT,Study1,F,35,39,Study,User,-,,Study/JOL,"Study Phase2",4294,,,-1,-1,,,,1
5ea8d68a37c5173456c94f50,ma44fy1wof,"Deep vs Shallow",1,197,2020-07-08T14:28:05-07:00,7.7548840045929,4,versionC_stim.csv,RLVersionD.csv,"Relational Version D","Relational, read only version D",VASE,KING,Study1,U,85,80,Study,User,-,,Study/JOL,"Study Phase2",7292,,,-1,-1,,,,1
5ea8d68a37c5173456c94f50,ma44fy1wof,"Deep vs Shallow",1,198,2020-07-08T14:28:09-07:00,4.4025130271912,4,versionC_stim.csv,RLVersionD.csv,"Relational Version D","Relational, read only version D",DIVISION,MATH,Study1,F,33,68,Study,User,-,,Study/JOL,"Study Phase2",3927,,,-1,-1,,,,1
5ea8d68a37c5173456c94f50,ma44fy1wof,"Deep vs Shallow",1,199,2020-07-08T14:28:13-07:00,4.2986238002777,4,versionC_stim.csv,RLVersionD.csv,"Relational Version D","Relational, read only version D",ATTORNEY,LAW,Study1,F,34,41,Study,User,-,,Study/JOL,"Study Phase2",3826,,,-1,-1,,,,1
5ea8d68a37c5173456c94f50,ma44fy1wof,"Deep vs Shallow",1,200,2020-07-08T14:28:18-07:00,4.766773223877,4,versionC_stim.csv,RLVersionD.csv,"Relational Version D","Relational, read only version D",WOMAN,LIFT,Study1,U,69,73,Study,User,-,,Study/JOL,"Study Phase2",4296,,,-1,-1,,,,1
5ea8d68a37c5173456c94f50,ma44fy1wof,"Deep vs Shallow",1,201,2020-07-08T14:28:20-07:00,1.8891398906708,4,versionC_stim.csv,RLVersionD.csv,"Relational Version D","Relational, read only version D",DEFINITION,MEANING,Study1,S,62,18,Study,User,-,,Study/JOL,"Study Phase2",1524,,,-1,-1,,,,1
5ea8d68a37c5173456c94f50,ma44fy1wof,"Deep vs Shallow",1,202,2020-07-08T14:28:22-07:00,2.4695630073547,4,versionC_stim.csv,RLVersionD.csv,"Relational Version D","Relational, read only version D",WATER,BRIDGE,Study1,B,18,34,Study,User,-,,Study/JOL,"Study Phase2",1988,,,-1,-1,,,,1
5ea8d68a37c5173456c94f50,ma44fy1wof,"Deep vs Shallow",1,203,2020-07-08T14:28:25-07:00,2.6563670635223,4,versionC_stim.csv,RLVersionD.csv,"Relational Version D","Relational, read only version D",CHORE,WORK,Study1,F,39,50,Study,User,-,,Study/JOL,"Study Phase2",2185,,,-1,-1,,,,1
5ea8d68a37c5173456c94f50,ma44fy1wof,"Deep vs Shallow",1,204,2020-07-08T14:28:27-07:00,2.0393199920654,4,versionC_stim.csv,RLVersionD.csv,"Relational Version D","Relational, read only version D",COLD,BITTER,Study1,B,12,20,Study,User,-,,Study/JOL,"Study Phase2",1672,,,-1,-1,,,,1
5ea8d68a37c5173456c94f50,ma44fy1wof,"Deep vs Shallow",1,205,2020-07-08T14:28:29-07:00,2.1625699996948,4,versionC_stim.csv,RLVersionD.csv,"Relational Version D","Relational, read only version D",RACKET,BALL,Study1,F,38,52,Study,User,-,,Study/JOL,"Study Phase2",1806,,,-1,-1,,,,1
5ea8d68a37c5173456c94f50,ma44fy1wof,"Deep vs Shallow",1,206,2020-07-08T14:28:32-07:00,2.4377248287201,4,versionC_stim.csv,RLVersionD.csv,"Relational Version D","Relational, read only version D",BAD,DELINQUENT,Study1,B,6,44,Study,User,-,,Study/JOL,"Study Phase2",1956,,,-1,-1,,,,1
5ea8d68a37c5173456c94f50,ma44fy1wof,"Deep vs Shallow",1,207,2020-07-08T14:28:33-07:00,1.7708041667938,4,versionC_stim.csv,RLVersionD.csv,"Relational Version D","Relational, read only version D",SODA,POP,Study1,S,56,16,Study,User,-,,Study/JOL,"Study Phase2",1412,,,-1,-1,,,,1
5ea8d68a37c5173456c94f50,ma44fy1wof,"Deep vs Shallow",1,208,2020-07-08T14:28:36-07:00,2.4780819416046,4,versionC_stim.csv,RLVersionD.csv,"Relational Version D","Relational, read only version D",SEIZE,TAKE,Study1,F,29,76,Study,User,-,,Study/JOL,"Study Phase2",1998,,,-1,-1,,,,1
5ea8d68a37c5173456c94f50,ma44fy1wof,"Deep vs Shallow",1,209,2020-07-08T14:28:38-07:00,1.6310369968414,4,versionC_stim.csv,RLVersionD.csv,"Relational Version D","Relational, read only version D",WASTE,DUMP,Study1,S,49,61,Study,User,-,,Study/JOL,"Study Phase2",1266,,,-1,-1,,,,1
5ea8d68a37c5173456c94f50,ma44fy1wof,"Deep vs Shallow",1,210,2020-07-08T14:28:40-07:00,2.7316420078278,4,versionC_stim.csv,RLVersionD.csv,"Relational Version D","Relational, read only version D",ROCK,GEOLOGY,Study1,B,19,51,Study,User,-,,Study/JOL,"Study Phase2",2250,,,-1,-1,,,,1
5ea8d68a37c5173456c94f50,ma44fy1wof,"Deep vs Shallow",1,211,2020-07-08T14:28:42-07:00,1.359256029129,4,versionC_stim.csv,RLVersionD.csv,"Relational Version D","Relational, read only version D",WAR,REVOLUTION,Study1,B,20,11,Study,User,-,,Study/JOL,"Study Phase2",1006,,,-1,-1,,,,1
5ea8d68a37c5173456c94f50,ma44fy1wof,"Deep vs Shallow",1,212,2020-07-08T14:28:43-07:00,1.4719090461731,4,versionC_stim.csv,RLVersionD.csv,"Relational Version D","Relational, read only version D",SITE,LOCATION,Study1,S,48,69,Study,User,-,,Study/JOL,"Study Phase2",1113,,,-1,-1,,,,1
5ea8d68a37c5173456c94f50,ma44fy1wof,"Deep vs Shallow",1,213,2020-07-08T14:28:45-07:00,1.4524459838867,4,versionC_stim.csv,RLVersionD.csv,"Relational Version D","Relational, read only version D",DESIGN,ARCHITECTURE,Study1,S,51,85,Study,User,-,,Study/JOL,"Study Phase2",1087,,,-1,-1,,,,1
5ea8d68a37c5173456c94f50,ma44fy1wof,"Deep vs Shallow",1,214,2020-07-08T14:28:46-07:00,1.4004838466644,4,versionC_stim.csv,RLVersionD.csv,"Relational Version D","Relational, read only version D",TOILET,BATHROOM,Study1,S,58,53,Study,User,-,,Study/JOL,"Study Phase2",1039,,,-1,-1,,,,1
5ea8d68a37c5173456c94f50,ma44fy1wof,"Deep vs Shallow",1,215,2020-07-08T14:28:48-07:00,1.6288080215454,4,versionC_stim.csv,RLVersionD.csv,"Relational Version D","Relational, read only version D",WORD,SENTENCE,Study1,F,31,79,Study,User,-,,Study/JOL,"Study Phase2",1267,,,-1,-1,,,,1
5ea8d68a37c5173456c94f50,ma44fy1wof,"Deep vs Shallow",1,216,2020-07-08T14:28:49-07:00,1.4322271347046,4,versionC_stim.csv,RLVersionD.csv,"Relational Version D","Relational, read only version D",TALK,DISCUSSION,Study1,B,21,38,Study,User,-,,Study/JOL,"Study Phase2",1075,,,-1,-1,,,,1
5ea8d68a37c5173456c94f50,ma44fy1wof,"Deep vs Shallow",1,217,2020-07-08T14:28:50-07:00,1.338093996048,4,versionC_stim.csv,RLVersionD.csv,"Relational Version D","Relational, read only version D",END,BEGIN,Study1,S,54,43,Study,User,-,,Study/JOL,"Study Phase2",972,,,-1,-1,,,,1
5ea8d68a37c5173456c94f50,ma44fy1wof,"Deep vs Shallow",1,218,2020-07-08T14:28:53-07:00,2.4463469982147,4,versionC_stim.csv,RLVersionD.csv,"Relational Version D","Relational, read only version D",CARD,CREDIT,Study1,B,23,29,Study,User,-,,Study/JOL,"Study Phase2",1959,,,-1,-1,,,,1
5ea8d68a37c5173456c94f50,ma44fy1wof,"Deep vs Shallow",1,219,2020-07-08T14:28:54-07:00,1.548458814621,4,versionC_stim.csv,RLVersionD.csv,"Relational Version D","Relational, read only version D",SICK,HIDE,Study1,U,84,74,Study,User,-,,Study/JOL,"Study Phase2",1174,,,-1,-1,,,,1
5ea8d68a37c5173456c94f50,ma44fy1wof,"Deep vs Shallow",1,220,2020-07-08T14:28:56-07:00,1.8541021347046,4,versionC_stim.csv,RLVersionD.csv,"Relational Version D","Relational, read only version D",FUTURE,PAST,Study1,S,61,62,Study,User,-,,Study/JOL,"Study Phase2",1492,,,-1,-1,,,,1
5ea8d68a37c5173456c94f50,ma44fy1wof,"Deep vs Shallow",1,221,2020-07-08T14:28:58-07:00,1.6922700405121,4,versionC_stim.csv,RLVersionD.csv,"Relational Version D","Relational, read only version D",FLOOR,DISCOVER,Study1,U,71,27,Study,User,-,,Study/JOL,"Study Phase2",1338,,,-1,-1,,,,1
5ea8d68a37c5173456c94f50,ma44fy1wof,"Deep vs Shallow",1,222,2020-07-08T14:29:00-07:00,2.4023718833923,4,versionC_stim.csv,RLVersionD.csv,"Relational Version D","Relational, read only version D",MONEY,WAGE,Study1,B,8,24,Study,User,-,,Study/JOL,"Study Phase2",1837,,,-1,-1,,,,1
5ea8d68a37c5173456c94f50,ma44fy1wof,"Deep vs Shallow",1,223,2020-07-08T14:29:02-07:00,1.2804009914398,4,versionC_stim.csv,RLVersionD.csv,"Relational Version D","Relational, read only version D",BLAZE,FIRE,Study1,F,45,42,Study,User,-,,Study/JOL,"Study Phase2",928,,,-1,-1,,,,1
5ea8d68a37c5173456c94f50,ma44fy1wof,"Deep vs Shallow",1,224,2020-07-08T14:29:08-07:00,5.9564480781555,4,versionC_stim.csv,RLVersionD.csv,"Relational Version D","Relational, read only version D",,,,,,0,Instruct,-,3,"Remember to focus on how the two items are similiar while you study!",,CHECK5,5362,,,-1,-1,,,,1
5ea8d68a37c5173456c94f50,ma44fy1wof,"Deep vs Shallow",1,225,2020-07-08T14:29:10-07:00,2.4437789916992,4,versionC_stim.csv,RLVersionD.csv,"Relational Version D","Relational, read only version D",SIP,DRINK,Study1,F,27,65,Study,User,-,,Study/JOL,"Study Phase2",1975,,,-1,-1,,,,1
5ea8d68a37c5173456c94f50,ma44fy1wof,"Deep vs Shallow",1,226,2020-07-08T14:29:13-07:00,2.5530500411987,4,versionC_stim.csv,RLVersionD.csv,"Relational Version D","Relational, read only version D",ATTIRE,CLOTHES,Study1,F,43,35,Study,User,-,,Study/JOL,"Study Phase2",2091,,,-1,-1,,,,1
5ea8d68a37c5173456c94f50,ma44fy1wof,"Deep vs Shallow",1,227,2020-07-08T14:29:15-07:00,2.4369609355927,4,versionC_stim.csv,RLVersionD.csv,"Relational Version D","Relational, read only version D",ENOUGH,FULL,Study1,F,26,60,Study,User,-,,Study/JOL,"Study Phase2",1955,,,-1,-1,,,,1
5ea8d68a37c5173456c94f50,ma44fy1wof,"Deep vs Shallow",1,228,2020-07-08T14:29:17-07:00,2.4002900123596,4,versionC_stim.csv,RLVersionD.csv,"Relational Version D","Relational, read only version D",SALAD,LETTUCE,Study1,S,59,10,Study,User,-,,Study/JOL,"Study Phase2",1858,,,-1,-1,,,,1
5ea8d68a37c5173456c94f50,ma44fy1wof,"Deep vs Shallow",1,229,2020-07-08T14:29:19-07:00,2.0171940326691,4,versionC_stim.csv,RLVersionD.csv,"Relational Version D","Relational, read only version D",CAVE,DARK,Study1,F,28,40,Study,User,-,,Study/JOL,"Study Phase2",1647,,,-1,-1,,,,1
5ea8d68a37c5173456c94f50,ma44fy1wof,"Deep vs Shallow",1,230,2020-07-08T14:29:22-07:00,2.5882019996643,4,versionC_stim.csv,RLVersionD.csv,"Relational Version D","Relational, read only version D",ACCIDENT,STRONG,Study1,U,80,25,Study,User,-,,Study/JOL,"Study Phase2",2089,,,-1,-1,,,,1
5ea8d68a37c5173456c94f50,ma44fy1wof,"Deep vs Shallow",1,231,2020-07-08T14:29:25-07:00,3.2381398677826,4,versionC_stim.csv,RLVersionD.csv,"Relational Version D","Relational, read only version D",CHEESE,WINE,Study1,S,57,72,Study,User,-,,Study/JOL,"Study Phase2",2750,,,-1,-1,,,,1
5ea8d68a37c5173456c94f50,ma44fy1wof,"Deep vs Shallow",1,232,2020-07-08T14:29:27-07:00,1.5344090461731,4,versionC_stim.csv,RLVersionD.csv,"Relational Version D","Relational, read only version D",BIRD,SWAN,Study1,B,14,36,Study,User,-,,Study/JOL,"Study Phase2",1179,,,-1,-1,,,,1
5ea8d68a37c5173456c94f50,ma44fy1wof,"Deep vs Shallow",1,233,2020-07-08T14:29:30-07:00,2.9094181060791,4,versionC_stim.csv,RLVersionD.csv,"Relational Version D","Relational, read only version D",ROUND,CIRCLE,Study1,S,65,8,Study,User,-,,Study/JOL,"Study Phase2",2418,,,-1,-1,,,,1
5ea8d68a37c5173456c94f50,ma44fy1wof,"Deep vs Shallow",1,234,2020-07-08T14:29:32-07:00,2.784882068634,4,versionC_stim.csv,RLVersionD.csv,"Relational Version D","Relational, read only version D",CHILD,BABY,Study1,S,64,63,Study,User,-,,Study/JOL,"Study Phase2",2314,,,-1,-1,,,,1
5ea8d68a37c5173456c94f50,ma44fy1wof,"Deep vs Shallow",1,235,2020-07-08T14:29:35-07:00,2.4381458759308,4,versionC_stim.csv,RLVersionD.csv,"Relational Version D","Relational, read only version D",HAND,FIX,Study1,U,75,67,Study,User,-,,Study/JOL,"Study Phase2",1951,,,-1,-1,,,,1
5ea8d68a37c5173456c94f50,ma44fy1wof,"Deep vs Shallow",1,236,2020-07-08T14:29:38-07:00,2.6733419895172,4,versionC_stim.csv,RLVersionD.csv,"Relational Version D","Relational, read only version D",BRONZE,ARTERY,Study1,U,74,56,Study,User,-,,Study/JOL,"Study Phase2",2192,,,-1,-1,,,,1
5ea8d68a37c5173456c94f50,ma44fy1wof,"Deep vs Shallow",1,237,2020-07-08T14:29:39-07:00,1.4005811214447,4,versionC_stim.csv,RLVersionD.csv,"Relational Version D","Relational, read only version D",LION,ART,Study1,U,79,77,Study,User,-,,Study/JOL,"Study Phase2",1028,,,-1,-1,,,,1
5ea8d68a37c5173456c94f50,ma44fy1wof,"Deep vs Shallow",1,238,2020-07-08T14:29:41-07:00,2.0412368774414,4,versionC_stim.csv,RLVersionD.csv,"Relational Version D","Relational, read only version D",PLANT,ROOT,Study1,B,13,28,Study,User,-,,Study/JOL,"Study Phase2",1629,,,-1,-1,,,,1
5ea8d68a37c5173456c94f50,ma44fy1wof,"Deep vs Shallow",1,239,2020-07-08T14:29:43-07:00,1.6948759555817,4,versionC_stim.csv,RLVersionD.csv,"Relational Version D","Relational, read only version D",DOG,PAW,Study1,B,15,84,Study,User,-,,Study/JOL,"Study Phase2",1329,,,-1,-1,,,,1
5ea8d68a37c5173456c94f50,ma44fy1wof,"Deep vs Shallow",1,240,2020-07-08T14:29:44-07:00,1.6181881427765,4,versionC_stim.csv,RLVersionD.csv,"Relational Version D","Relational, read only version D",DROWSY,SLEEP,Study1,F,41,23,Study,User,-,,Study/JOL,"Study Phase2",1252,,,-1,-1,,,,1
5ea8d68a37c5173456c94f50,ma44fy1wof,"Deep vs Shallow",1,241,2020-07-08T14:29:47-07:00,2.5312478542328,4,versionC_stim.csv,RLVersionD.csv,"Relational Version D","Relational, read only version D",CLEAN,HYGIENE,Study1,B,17,31,Study,User,-,,Study/JOL,"Study Phase2",2047,,,-1,-1,,,,1
5ea8d68a37c5173456c94f50,ma44fy1wof,"Deep vs Shallow",1,242,2020-07-08T14:29:49-07:00,1.6797690391541,4,versionC_stim.csv,RLVersionD.csv,"Relational Version D","Relational, read only version D",SIGHT,DEBATE,Study1,U,73,7,Study,User,-,,Study/JOL,"Study Phase2",1318,,,-1,-1,,,,1
5ea8d68a37c5173456c94f50,ma44fy1wof,"Deep vs Shallow",1,243,2020-07-08T14:29:51-07:00,2.6686091423035,4,versionC_stim.csv,RLVersionD.csv,"Relational Version D","Relational, read only version D",TUCK,ALLOW,Study1,U,78,12,Study,User,-,,Study/JOL,"Study Phase2",2188,,,-1,-1,,,,1
5ea8d68a37c5173456c94f50,ma44fy1wof,"Deep vs Shallow",1,244,2020-07-08T14:29:53-07:00,1.4670858383179,4,versionC_stim.csv,RLVersionD.csv,"Relational Version D","Relational, read only version D",FOOT,SHOE,Study1,S,60,49,Study,User,-,,Study/JOL,"Study Phase2",1111,,,-1,-1,,,,1
5ea8d68a37c5173456c94f50,ma44fy1wof,"Deep vs Shallow",1,245,2020-07-08T14:29:55-07:00,2.2032189369202,4,versionC_stim.csv,RLVersionD.csv,"Relational Version D","Relational, read only version D",ADD,VALLEY,Study1,U,82,21,Study,User,-,,Study/JOL,"Study Phase2",1810,,,-1,-1,,,,1
5ea8d68a37c5173456c94f50,ma44fy1wof,"Deep vs Shallow",1,246,2020-07-08T14:29:59-07:00,3.6758069992065,4,versionC_stim.csv,RLVersionD.csv,"Relational Version D","Relational, read only version D",OUT,WAY,Study1,B,16,9,Study,User,-,,Study/JOL,"Study Phase2",2181,,,-1,-1,,,,1
5ea8d68a37c5173456c94f50,ma44fy1wof,"Deep vs Shallow",1,247,2020-07-08T14:30:01-07:00,2.0883450508118,4,versionC_stim.csv,RLVersionD.csv,"Relational Version D","Relational, read only version D",RIDDLE,SUGAR,Study1,U,81,46,Study,User,-,,Study/JOL,"Study Phase2",1721,,,-1,-1,,,,1
5ea8d68a37c5173456c94f50,ma44fy1wof,"Deep vs Shallow",1,248,2020-07-08T14:30:03-07:00,2.0738091468811,4,versionC_stim.csv,RLVersionD.csv,"Relational Version D","Relational, read only version D",WIND,BLOW,Study1,S,55,55,Study,User,-,,Study/JOL,"Study Phase2",1673,,,-1,-1,,,,1
5ea8d68a37c5173456c94f50,ma44fy1wof,"Deep vs Shallow",1,249,2020-07-08T14:30:05-07:00,2.0994989871979,4,versionC_stim.csv,RLVersionD.csv,"Relational Version D","Relational, read only version D",CLUTTER,PUSHER,Study1,U,66,64,Study,User,-,,Study/JOL,"Study Phase2",1721,,,-1,-1,,,,1
5ea8d68a37c5173456c94f50,ma44fy1wof,"Deep vs Shallow",1,250,2020-07-08T14:30:06-07:00,1.6367478370667,4,versionC_stim.csv,RLVersionD.csv,"Relational Version D","Relational, read only version D",FLOWER,ORCHID,Study1,B,24,75,Study,User,-,,Study/JOL,"Study Phase2",1268,,,-1,-1,,,,1
5ea8d68a37c5173456c94f50,ma44fy1wof,"Deep vs Shallow",1,251,2020-07-08T14:30:09-07:00,2.4309911727905,4,versionC_stim.csv,RLVersionD.csv,"Relational Version D","Relational, read only version D",GROWTH,HEIGHT,Study1,F,30,30,Study,User,-,,Study/JOL,"Study Phase2",1889,,,-1,-1,,,,1
5ea8d68a37c5173456c94f50,ma44fy1wof,"Deep vs Shallow",1,252,2020-07-08T14:30:10-07:00,1.4649839401245,4,versionC_stim.csv,RLVersionD.csv,"Relational Version D","Relational, read only version D",ASSIGNMENT,DUE,Study1,S,46,22,Study,User,-,,Study/JOL,"Study Phase2",1069,,,-1,-1,,,,1
5ea8d68a37c5173456c94f50,ma44fy1wof,"Deep vs Shallow",1,253,2020-07-08T14:30:12-07:00,1.4679279327393,4,versionC_stim.csv,RLVersionD.csv,"Relational Version D","Relational, read only version D",CHILI,HOT,Study1,F,37,66,Study,User,-,,Study/JOL,"Study Phase2",1092,,,-1,-1,,,,1
5ea8d68a37c5173456c94f50,ma44fy1wof,"Deep vs Shallow",1,254,2020-07-08T14:30:13-07:00,1.1854741573334,4,versionC_stim.csv,RLVersionD.csv,"Relational Version D","Relational, read only version D",BEE,HONEY,Study1,S,63,54,Study,User,-,,Study/JOL,"Study Phase2",824,,,-1,-1,,,,1
5ea8d68a37c5173456c94f50,ma44fy1wof,"Deep vs Shallow",1,255,2020-07-08T14:30:14-07:00,1.2766499519348,4,versionC_stim.csv,RLVersionD.csv,"Relational Version D","Relational, read only version D",COW,HERD,Study1,B,22,58,Study,User,-,,Study/JOL,"Study Phase2",917,,,-1,-1,,,,1
5ea8d68a37c5173456c94f50,ma44fy1wof,"Deep vs Shallow",1,256,2020-07-08T14:30:16-07:00,1.3012218475342,4,versionC_stim.csv,RLVersionD.csv,"Relational Version D","Relational, read only version D",LATCH,KEY,Study1,F,36,47,Study,User,-,,Study/JOL,"Study Phase2",915,,,-1,-1,,,,1
5ea8d68a37c5173456c94f50,ma44fy1wof,"Deep vs Shallow",1,257,2020-07-08T14:30:19-07:00,3.7731020450592,4,versionC_stim.csv,RLVersionD.csv,"Relational Version D","Relational, read only version D",SACKING,DIETARY,Study1,U,67,70,Study,User,-,,Study/JOL,"Study Phase2",2295,,,-1,-1,,,,1
5ea8d68a37c5173456c94f50,ma44fy1wof,"Deep vs Shallow",1,258,2020-07-08T14:30:22-07:00,2.1602511405945,4,versionC_stim.csv,RLVersionD.csv,"Relational Version D","Relational, read only version D",PILOT,PLANE,Study1,F,44,45,Study,User,-,,Study/JOL,"Study Phase2",1791,,,-1,-1,,,,1
5ea8d68a37c5173456c94f50,ma44fy1wof,"Deep vs Shallow",1,259,2020-07-08T14:30:23-07:00,1.1546249389648,4,versionC_stim.csv,RLVersionD.csv,"Relational Version D","Relational, read only version D",POSITION,MACHINE,Study1,U,76,78,Study,User,-,,Study/JOL,"Study Phase2",786,,,-1,-1,,,,1
5ea8d68a37c5173456c94f50,ma44fy1wof,"Deep vs Shallow",1,260,2020-07-08T14:30:25-07:00,2.1409039497375,4,versionC_stim.csv,RLVersionD.csv,"Relational Version D","Relational, read only version D",STOMACH,DIGESTION,Study1,B,7,17,Study,User,-,,Study/JOL,"Study Phase2",768,,,-1,-1,,,,1
5ea8d68a37c5173456c94f50,ma44fy1wof,"Deep vs Shallow",1,261,2020-07-08T14:30:26-07:00,1.4912209510803,4,versionC_stim.csv,RLVersionD.csv,"Relational Version D","Relational, read only version D",HAMMER,CHISEL,Study1,B,9,37,Study,User,-,,Study/JOL,"Study Phase2",1129,,,-1,-1,,,,1
5ea8d68a37c5173456c94f50,ma44fy1wof,"Deep vs Shallow",1,262,2020-07-08T14:30:28-07:00,1.9802069664001,4,versionC_stim.csv,RLVersionD.csv,"Relational Version D","Relational, read only version D",HUNGRY,PARK,Study1,U,68,82,Study,User,-,,Study/JOL,"Study Phase2",1616,,,-1,-1,,,,1
5ea8d68a37c5173456c94f50,ma44fy1wof,"Deep vs Shallow",1,263,2020-07-08T14:30:30-07:00,1.9647550582886,4,versionC_stim.csv,RLVersionD.csv,"Relational Version D","Relational, read only version D",FAMINE,HUNGER,Study1,F,40,19,Study,User,-,,Study/JOL,"Study Phase2",1588,,,-1,-1,,,,1
5ea8d68a37c5173456c94f50,ma44fy1wof,"Deep vs Shallow",1,264,2020-07-08T14:30:32-07:00,1.3973290920258,4,versionC_stim.csv,RLVersionD.csv,"Relational Version D","Relational, read only version D",BAR,GRILL,Study1,S,52,57,Study,User,-,,Study/JOL,"Study Phase2",1033,,,-1,-1,,,,1
5ea8d68a37c5173456c94f50,ma44fy1wof,"Deep vs Shallow",1,265,2020-07-08T14:30:34-07:00,2.5243928432465,4,versionC_stim.csv,RLVersionD.csv,"Relational Version D","Relational, read only version D",JURY,TRIAL,Study1,S,50,26,Study,User,-,,Study/JOL,"Study Phase2",2020,,,-1,-1,,,,1
5ea8d68a37c5173456c94f50,ma44fy1wof,"Deep vs Shallow",1,266,2020-07-08T14:30:36-07:00,1.7731981277466,4,versionC_stim.csv,RLVersionD.csv,"Relational Version D","Relational, read only version D",STING,HORNET,Study1,B,11,13,Study,User,-,,Study/JOL,"Study Phase2",1404,,,-1,-1,,,,1
5ea8d68a37c5173456c94f50,ma44fy1wof,"Deep vs Shallow",1,267,2020-07-08T14:30:39-07:00,2.782840013504,4,versionC_stim.csv,RLVersionD.csv,"Relational Version D","Relational, read only version D",WOULD,CASH,Study1,U,83,71,Study,User,-,,Study/JOL,"Study Phase2",2288,,,-1,-1,,,,1
5ea8d68a37c5173456c94f50,ma44fy1wof,"Deep vs Shallow",1,268,2020-07-08T14:30:40-07:00,1.7216069698334,4,versionC_stim.csv,RLVersionD.csv,"Relational Version D","Relational, read only version D",BELT,SOON,Study1,U,70,32,Study,User,-,,Study/JOL,"Study Phase2",1363,,,-1,-1,,,,1
5ea8d68a37c5173456c94f50,ma44fy1wof,"Deep vs Shallow",1,269,2020-07-08T14:30:42-07:00,1.4941759109497,4,versionC_stim.csv,RLVersionD.csv,"Relational Version D","Relational, read only version D",WASP,BUG,Study1,F,32,83,Study,User,-,,Study/JOL,"Study Phase2",1084,,,-1,-1,,,,1
5ea8d68a37c5173456c94f50,ma44fy1wof,"Deep vs Shallow",1,270,2020-07-08T14:30:45-07:00,2.6359031200409,4,versionC_stim.csv,RLVersionD.csv,"Relational Version D","Relational, read only version D",BUSINESS,DEATH,Study1,U,72,48,Study,User,-,,Study/JOL,"Study Phase2",2141,,,-1,-1,,,,1
5ea8d68a37c5173456c94f50,ma44fy1wof,"Deep vs Shallow",1,271,2020-07-08T14:30:46-07:00,1.8884298801422,4,versionC_stim.csv,RLVersionD.csv,"Relational Version D","Relational, read only version D",GOOSE,GEESE,BUFFER2,Buffer,86,91,Study,User,-,,Study/JOL,BUFFER4,1518,,,-1,-1,,,,1
5ea8d68a37c5173456c94f50,ma44fy1wof,"Deep vs Shallow",1,272,2020-07-08T14:30:48-07:00,1.4259321689606,4,versionC_stim.csv,RLVersionD.csv,"Relational Version D","Relational, read only version D",POLICE,SHERRIF,BUFFER2,Buffer,87,87,Study,User,-,,Study/JOL,BUFFER4,1058,,,-1,-1,,,,1
5ea8d68a37c5173456c94f50,ma44fy1wof,"Deep vs Shallow",1,273,2020-07-08T14:30:50-07:00,2.0752258300781,4,versionC_stim.csv,RLVersionD.csv,"Relational Version D","Relational, read only version D",SPACE,MOON,BUFFER2,Buffer,89,90,Study,User,-,,Study/JOL,BUFFER4,1688,,,-1,-1,,,,1
5ea8d68a37c5173456c94f50,ma44fy1wof,"Deep vs Shallow",1,274,2020-07-08T14:30:52-07:00,2.1438040733337,4,versionC_stim.csv,RLVersionD.csv,"Relational Version D","Relational, read only version D",CHOCOLATE,MALT,BUFFER2,Buffer,88,88,Study,User,-,,Study/JOL,BUFFER4,1782,,,-1,-1,,,,1
5ea8d68a37c5173456c94f50,ma44fy1wof,"Deep vs Shallow",1,275,2020-07-08T14:30:56-07:00,3.6333689689636,4,versionC_stim.csv,RLVersionD.csv,"Relational Version D","Relational, read only version D",STUFF,THING,BUFFER2,Buffer,90,89,Study,User,-,,Study/JOL,BUFFER4,3165,,,-1,-1,,,,1
5ea8d68a37c5173456c94f50,ma44fy1wof,"Deep vs Shallow",1,276,2020-07-08T14:31:16-07:00,20.507668018341,4,versionC_stim.csv,RLVersionD.csv,"Relational Version D","Relational, read only version D",,,,,,0,Instruct,User,-,"You have completed this section. Please press Enter.",Filler_Instruction,Instruct5,20009,,,-1,-1,,,,1
5ea8d68a37c5173456c94f50,ma44fy1wof,"Deep vs Shallow",1,277,2020-07-08T14:31:34-07:00,17.598185062408,4,versionC_stim.csv,RLVersionD.csv,"Relational Version D","Relational, read only version D",,,,,,0,FreeRecall,-,10,"What were you supposed to focus on while you studied each pair? (Hint: Think back to the instructions). Type your answer in the space below.",,CHECK3,17097,"We were suppose to see how the pairs are related to each other. ",0,3945,15483,0,0,,1
5ea8d68a37c5173456c94f50,ma44fy1wof,"Deep vs Shallow",1,278,2020-07-08T14:31:35-07:00,1.5139579772949,4,versionC_stim.csv,RLVersionD.csv,"Relational Version D","Relational, read only version D",,,,,,0,Instruct,User,-,"You have completed this section. Please press Enter.",Filler_Instruction,Instruct5,1125,,,-1,-1,,,,1
5ea8d68a37c5173456c94f50,ma44fy1wof,"Deep vs Shallow",1,279,2020-07-08T14:33:36-07:00,120.48155498505,4,versionC_stim.csv,RLVersionD.csv,"Relational Version D","Relational, read only version D",,,,,,0,FreeRecall,120,120,"Please list the 50 US states in reverse alphabetical order (z - a). The task will automatically advance to the next screen after two minutes.",,Filler2,120000,"West virginia Virginia Utah Tennesse South Dakota Rhode island Pennsylvania Oregon New York Montana Louisiana Kansas Illinois Hawaii Georgia Florida Delaware California Alaska",0,13513,115862,0,0,,1
5ea8d68a37c5173456c94f50,ma44fy1wof,"Deep vs Shallow",1,280,2020-07-08T14:33:49-07:00,12.821923971176,4,versionC_stim.csv,RLVersionD.csv,"Relational Version D","Relational, read only version D",,,,,,0,Instruct,-,10,"You will now be presented with the first word from each of the previously studied item pairs. Please type the missing word. If you do not know the word, you may guess or press Enter to skip forward to the next pair.",,Instruct6,12280,,,-1,-1,,,,1
5ea8d68a37c5173456c94f50,ma44fy1wof,"Deep vs Shallow",1,281,2020-07-08T14:33:58-07:00,9.3842430114746,4,versionC_stim.csv,RLVersionD.csv,"Relational Version D","Relational, read only version D",HUNGRY,PARK,Study1,U,68,82,Test,User,-,,Recall,Recall2,8899,Food,0,7281,7830,0,0,,1
5ea8d68a37c5173456c94f50,ma44fy1wof,"Deep vs Shallow",1,282,2020-07-08T14:34:01-07:00,3.216511964798,4,versionC_stim.csv,RLVersionD.csv,"Relational Version D","Relational, read only version D",LIVER,KIDNEY,Study1,S,53,59,Test,User,-,,Recall,Recall2,2723,Kidney,100,1873,2538,1,1,,1
5ea8d68a37c5173456c94f50,ma44fy1wof,"Deep vs Shallow",1,283,2020-07-08T14:34:05-07:00,3.5328850746155,4,versionC_stim.csv,RLVersionD.csv,"Relational Version D","Relational, read only version D",ASSIGNMENT,DUE,Study1,S,46,22,Test,User,-,,Recall,Recall2,3036,Work,0,1923,2931,0,0,,1
5ea8d68a37c5173456c94f50,ma44fy1wof,"Deep vs Shallow",1,284,2020-07-08T14:34:08-07:00,3.3302829265594,4,versionC_stim.csv,RLVersionD.csv,"Relational Version D","Relational, read only version D",ROCK,GEOLOGY,Study1,B,19,51,Test,User,-,,Recall,Recall2,2860,,0,-1,-1,0,0,,1
5ea8d68a37c5173456c94f50,ma44fy1wof,"Deep vs Shallow",1,285,2020-07-08T14:34:13-07:00,4.7316391468048,4,versionC_stim.csv,RLVersionD.csv,"Relational Version D","Relational, read only version D",TALK,DISCUSSION,Study1,B,21,38,Test,User,-,,Recall,Recall2,4262,,0,-1,-1,0,0,,1
5ea8d68a37c5173456c94f50,ma44fy1wof,"Deep vs Shallow",1,286,2020-07-08T14:34:18-07:00,5.409276008606,4,versionC_stim.csv,RLVersionD.csv,"Relational Version D","Relational, read only version D",WOULD,CASH,Study1,U,83,71,Test,User,-,,Recall,Recall2,4934,Should,40,4165,4812,0,0,,1
5ea8d68a37c5173456c94f50,ma44fy1wof,"Deep vs Shallow",1,287,2020-07-08T14:34:21-07:00,2.9554929733276,4,versionC_stim.csv,RLVersionD.csv,"Relational Version D","Relational, read only version D",CLEAN,HYGIENE,Study1,B,17,31,Test,User,-,,Recall,Recall2,2478,Dirty,16.666666666667,1888,2405,0,0,,1
5ea8d68a37c5173456c94f50,ma44fy1wof,"Deep vs Shallow",1,288,2020-07-08T14:34:26-07:00,4.4797668457031,4,versionC_stim.csv,RLVersionD.csv,"Relational Version D","Relational, read only version D",LION,ART,Study1,U,79,77,Test,User,-,,Recall,Recall2,4004,Cat,66.666666666667,3531,3918,0,0,,1
5ea8d68a37c5173456c94f50,ma44fy1wof,"Deep vs Shallow",1,289,2020-07-08T14:34:37-07:00,11.747594118118,4,versionC_stim.csv,RLVersionD.csv,"Relational Version D","Relational, read only version D",SALAD,LETTUCE,Study1,S,59,10,Test,User,-,,Recall,Recall2,11268,Green,33.333333333333,1390,10224,0,0,,1
5ea8d68a37c5173456c94f50,ma44fy1wof,"Deep vs Shallow",1,290,2020-07-08T14:34:40-07:00,2.8929049968719,4,versionC_stim.csv,RLVersionD.csv,"Relational Version D","Relational, read only version D",STING,HORNET,Study1,B,11,13,Test,User,-,,Recall,Recall2,2398,Bee,22.222222222222,1554,1868,0,0,,1
5ea8d68a37c5173456c94f50,ma44fy1wof,"Deep vs Shallow",1,291,2020-07-08T14:34:47-07:00,6.5692489147186,4,versionC_stim.csv,RLVersionD.csv,"Relational Version D","Relational, read only version D",BAR,GRILL,Study1,S,52,57,Test,User,-,,Recall,Recall2,6086,Drink,40,4321,5992,0,0,,1
5ea8d68a37c5173456c94f50,ma44fy1wof,"Deep vs Shallow",1,292,2020-07-08T14:34:51-07:00,3.7393209934235,4,versionC_stim.csv,RLVersionD.csv,"Relational Version D","Relational, read only version D",DIVISION,MATH,Study1,F,33,68,Test,User,-,,Recall,Recall2,3262,MAth,100,2890,3155,1,1,,1
5ea8d68a37c5173456c94f50,ma44fy1wof,"Deep vs Shallow",1,293,2020-07-08T14:34:54-07:00,3.6773819923401,4,versionC_stim.csv,RLVersionD.csv,"Relational Version D","Relational, read only version D",FLOWER,ORCHID,Study1,B,24,75,Test,User,-,,Recall,Recall2,3192,Garden,33.333333333333,2405,3070,0,0,,1
5ea8d68a37c5173456c94f50,ma44fy1wof,"Deep vs Shallow",1,294,2020-07-08T14:35:00-07:00,5.7542641162872,4,versionC_stim.csv,RLVersionD.csv,"Relational Version D","Relational, read only version D",ADD,VALLEY,Study1,U,82,21,Test,User,-,,Recall,Recall2,5280,Substrct,0,1604,5179,0,0,,1
5ea8d68a37c5173456c94f50,ma44fy1wof,"Deep vs Shallow",1,295,2020-07-08T14:35:03-07:00,2.5744700431824,4,versionC_stim.csv,RLVersionD.csv,"Relational Version D","Relational, read only version D",CLUTTER,PUSHER,Study1,U,66,64,Test,User,-,,Recall,Recall2,2084,Clean,18.181818181818,1590,1978,0,0,,1
5ea8d68a37c5173456c94f50,ma44fy1wof,"Deep vs Shallow",1,296,2020-07-08T14:35:07-07:00,4.187656879425,4,versionC_stim.csv,RLVersionD.csv,"Relational Version D","Relational, read only version D",ATTORNEY,LAW,Study1,F,34,41,Test,User,-,,Recall,Recall2,3698,Law,100,3380,3607,1,1,,1
5ea8d68a37c5173456c94f50,ma44fy1wof,"Deep vs Shallow",1,297,2020-07-08T14:35:10-07:00,3.3143990039825,4,versionC_stim.csv,RLVersionD.csv,"Relational Version D","Relational, read only version D",SITE,LOCATION,Study1,S,48,69,Test,User,-,,Recall,Recall2,2838,Loction,93.333333333333,1649,2636,0,1,,1
5ea8d68a37c5173456c94f50,ma44fy1wof,"Deep vs Shallow",1,298,2020-07-08T14:35:15-07:00,5.076936006546,4,versionC_stim.csv,RLVersionD.csv,"Relational Version D","Relational, read only version D",HAMMER,CHISEL,Study1,B,9,37,Test,User,-,,Recall,Recall2,4569,House,54.545454545455,3022,4483,0,0,,1
5ea8d68a37c5173456c94f50,ma44fy1wof,"Deep vs Shallow",1,299,2020-07-08T14:35:21-07:00,5.8882670402527,4,versionC_stim.csv,RLVersionD.csv,"Relational Version D","Relational, read only version D",BIRD,SWAN,Study1,B,14,36,Test,User,-,,Recall,Recall2,5400,,0,-1,-1,0,0,,1
5ea8d68a37c5173456c94f50,ma44fy1wof,"Deep vs Shallow",1,300,2020-07-08T14:35:26-07:00,5.2737939357758,4,versionC_stim.csv,RLVersionD.csv,"Relational Version D","Relational, read only version D",CHILD,BABY,Study1,S,64,63,Test,User,-,,Recall,Recall2,4792,Adult,22.222222222222,4316,4731,0,0,,1
5ea8d68a37c5173456c94f50,ma44fy1wof,"Deep vs Shallow",1,301,2020-07-08T14:35:28-07:00,2.0337569713593,4,versionC_stim.csv,RLVersionD.csv,"Relational Version D","Relational, read only version D",BEE,HONEY,Study1,S,63,54,Test,User,-,,Recall,Recall2,1667,Sting,20,1177,1593,0,0,,1
5ea8d68a37c5173456c94f50,ma44fy1wof,"Deep vs Shallow",1,302,2020-07-08T14:35:34-07:00,5.7863750457764,4,versionC_stim.csv,RLVersionD.csv,"Relational Version D","Relational, read only version D",WAR,REVOLUTION,Study1,B,20,11,Test,User,-,,Recall,Recall2,5292,Evolution,94.736842105263,3562,5166,0,1,,1
5ea8d68a37c5173456c94f50,ma44fy1wof,"Deep vs Shallow",1,303,2020-07-08T14:35:37-07:00,2.8140559196472,4,versionC_stim.csv,RLVersionD.csv,"Relational Version D","Relational, read only version D",DROWSY,SLEEP,Study1,F,41,23,Test,User,-,,Recall,Recall2,2335,Sleepy,90.909090909091,1618,2238,0,1,,1
5ea8d68a37c5173456c94f50,ma44fy1wof,"Deep vs Shallow",1,304,2020-07-08T14:35:39-07:00,1.9242451190948,4,versionC_stim.csv,RLVersionD.csv,"Relational Version D","Relational, read only version D",OUT,WAY,Study1,B,16,9,Test,User,-,,Recall,Recall2,1560,In,0,1277,1420,0,0,,1
5ea8d68a37c5173456c94f50,ma44fy1wof,"Deep vs Shallow",1,305,2020-07-08T14:35:43-07:00,4.2835440635681,4,versionC_stim.csv,RLVersionD.csv,"Relational Version D","Relational, read only version D",FOOT,SHOE,Study1,S,60,49,Test,User,-,,Recall,Recall2,3807,,0,-1,-1,0,0,,1
5ea8d68a37c5173456c94f50,ma44fy1wof,"Deep vs Shallow",1,306,2020-07-08T14:35:46-07:00,3.1382298469543,4,versionC_stim.csv,RLVersionD.csv,"Relational Version D","Relational, read only version D",COW,HERD,Study1,B,22,58,Test,User,-,,Recall,Recall2,2652,Herd,100,2103,2543,1,1,,1
5ea8d68a37c5173456c94f50,ma44fy1wof,"Deep vs Shallow",1,307,2020-07-08T14:35:51-07:00,4.1399190425873,4,versionC_stim.csv,RLVersionD.csv,"Relational Version D","Relational, read only version D",FISH,TUNA,Study1,B,25,81,Test,User,-,,Recall,Recall2,3663,Tuna,100,2270,2737,1,1,,1
5ea8d68a37c5173456c94f50,ma44fy1wof,"Deep vs Shallow",1,308,2020-07-08T14:35:56-07:00,5.3541350364685,4,versionC_stim.csv,RLVersionD.csv,"Relational Version D","Relational, read only version D",END,BEGIN,Study1,S,54,43,Test,User,-,,Recall,Recall2,4866,Over,22.222222222222,2683,4202,0,0,,1
5ea8d68a37c5173456c94f50,ma44fy1wof,"Deep vs Shallow",1,309,2020-07-08T14:36:01-07:00,5.5990309715271,4,versionC_stim.csv,RLVersionD.csv,"Relational Version D","Relational, read only version D",BELT,SOON,Study1,U,70,32,Test,User,-,,Recall,Recall2,5128,,0,-1,-1,0,0,,1
5ea8d68a37c5173456c94f50,ma44fy1wof,"Deep vs Shallow",1,310,2020-07-08T14:36:04-07:00,2.8788170814514,4,versionC_stim.csv,RLVersionD.csv,"Relational Version D","Relational, read only version D",MONEY,WAGE,Study1,B,8,24,Test,User,-,,Recall,Recall2,2395,Bank,25,1781,2317,0,0,,1
5ea8d68a37c5173456c94f50,ma44fy1wof,"Deep vs Shallow",1,311,2020-07-08T14:36:10-07:00,5.1767899990082,4,versionC_stim.csv,RLVersionD.csv,"Relational Version D","Relational, read only version D",SIGHT,DEBATE,Study1,U,73,7,Test,User,-,,Recall,Recall2,4681,Glasses,30.769230769231,3835,4605,0,0,,1
5ea8d68a37c5173456c94f50,ma44fy1wof,"Deep vs Shallow",1,312,2020-07-08T14:36:16-07:00,6.7866609096527,4,versionC_stim.csv,RLVersionD.csv,"Relational Version D","Relational, read only version D",PILOT,PLANE,Study1,F,44,45,Test,User,-,,Recall,Recall2,6299,Plane,100,1281,6171,1,1,,1
5ea8d68a37c5173456c94f50,ma44fy1wof,"Deep vs Shallow",1,313,2020-07-08T14:36:19-07:00,2.6790330410004,4,versionC_stim.csv,RLVersionD.csv,"Relational Version D","Relational, read only version D",COLD,BITTER,Study1,B,12,20,Test,User,-,,Recall,Recall2,2134,Chill,18.181818181818,1554,2057,0,0,,1
5ea8d68a37c5173456c94f50,ma44fy1wof,"Deep vs Shallow",1,314,2020-07-08T14:36:24-07:00,4.8154549598694,4,versionC_stim.csv,RLVersionD.csv,"Relational Version D","Relational, read only version D",HAND,FIX,Study1,U,75,67,Test,User,-,,Recall,Recall2,4326,,0,-1,-1,0,0,,1
5ea8d68a37c5173456c94f50,ma44fy1wof,"Deep vs Shallow",1,315,2020-07-08T14:36:28-07:00,3.772362947464,4,versionC_stim.csv,RLVersionD.csv,"Relational Version D","Relational, read only version D",RACKET,BALL,Study1,F,38,52,Test,User,-,,Recall,Recall2,3281,Ball,100,2082,2411,1,1,,1
5ea8d68a37c5173456c94f50,ma44fy1wof,"Deep vs Shallow",1,316,2020-07-08T14:36:32-07:00,4.6258490085602,4,versionC_stim.csv,RLVersionD.csv,"Relational Version D","Relational, read only version D",GROWTH,HEIGHT,Study1,F,30,30,Test,User,-,,Recall,Recall2,4136,Height,100,2863,3429,1,1,,1
5ea8d68a37c5173456c94f50,ma44fy1wof,"Deep vs Shallow",1,317,2020-07-08T14:36:37-07:00,4.6290590763092,4,versionC_stim.csv,RLVersionD.csv,"Relational Version D","Relational, read only version D",WOMAN,LIFT,Study1,U,69,73,Test,User,-,,Recall,Recall2,4141,Kitchen,36.363636363636,3445,3981,0,0,,1
5ea8d68a37c5173456c94f50,ma44fy1wof,"Deep vs Shallow",1,318,2020-07-08T14:36:40-07:00,3.050332069397,4,versionC_stim.csv,RLVersionD.csv,"Relational Version D","Relational, read only version D",ACCIDENT,STRONG,Study1,U,80,25,Test,User,-,,Recall,Recall2,2573,,0,-1,-1,0,0,,1
5ea8d68a37c5173456c94f50,ma44fy1wof,"Deep vs Shallow",1,319,2020-07-08T14:36:42-07:00,1.8740038871765,4,versionC_stim.csv,RLVersionD.csv,"Relational Version D","Relational, read only version D",WASTE,DUMP,Study1,S,49,61,Test,User,-,,Recall,Recall2,1515,,0,-1,-1,0,0,,1
5ea8d68a37c5173456c94f50,ma44fy1wof,"Deep vs Shallow",1,320,2020-07-08T14:36:44-07:00,2.0499110221863,4,versionC_stim.csv,RLVersionD.csv,"Relational Version D","Relational, read only version D",SODA,POP,Study1,S,56,16,Test,User,-,,Recall,Recall2,1671,Pop[,85.714285714286,1312,1614,0,1,,1
5ea8d68a37c5173456c94f50,ma44fy1wof,"Deep vs Shallow",1,321,2020-07-08T14:36:47-07:00,2.756679058075,4,versionC_stim.csv,RLVersionD.csv,"Relational Version D","Relational, read only version D",JURY,TRIAL,Study1,S,50,26,Test,User,-,,Recall,Recall2,2254,LAw,25,1969,2169,0,0,,1
5ea8d68a37c5173456c94f50,ma44fy1wof,"Deep vs Shallow",1,322,2020-07-08T14:36:49-07:00,2.4652628898621,4,versionC_stim.csv,RLVersionD.csv,"Relational Version D","Relational, read only version D",DOG,PAW,Study1,B,15,84,Test,User,-,,Recall,Recall2,1964,Cat,33.333333333333,1390,1758,0,0,,1
5ea8d68a37c5173456c94f50,ma44fy1wof,"Deep vs Shallow",1,323,2020-07-08T14:36:55-07:00,5.4764721393585,4,versionC_stim.csv,RLVersionD.csv,"Relational Version D","Relational, read only version D",WASP,BUG,Study1,F,32,83,Test,User,-,,Recall,Recall2,4995,Garden,22.222222222222,4189,4883,0,0,,1
5ea8d68a37c5173456c94f50,ma44fy1wof,"Deep vs Shallow",1,324,2020-07-08T14:36:56-07:00,1.7372529506683,4,versionC_stim.csv,RLVersionD.csv,"Relational Version D","Relational, read only version D",POSITION,MACHINE,Study1,U,76,78,Test,User,-,,Recall,Recall2,1356,,0,-1,-1,0,0,,1
5ea8d68a37c5173456c94f50,ma44fy1wof,"Deep vs Shallow",1,325,2020-07-08T14:37:01-07:00,5.2209239006042,4,versionC_stim.csv,RLVersionD.csv,"Relational Version D","Relational, read only version D",CARD,CREDIT,Study1,B,23,29,Test,User,-,,Recall,Recall2,4733,,0,-1,-1,0,0,,1
5ea8d68a37c5173456c94f50,ma44fy1wof,"Deep vs Shallow",1,326,2020-07-08T14:37:07-07:00,5.3965501785278,4,versionC_stim.csv,RLVersionD.csv,"Relational Version D","Relational, read only version D",CAR,HAPPY,Study1,U,77,15,Test,User,-,,Recall,Recall2,3919,Happy,100,2429,2856,1,1,,1
5ea8d68a37c5173456c94f50,ma44fy1wof,"Deep vs Shallow",1,327,2020-07-08T14:37:13-07:00,6.3881988525391,4,versionC_stim.csv,RLVersionD.csv,"Relational Version D","Relational, read only version D",DESIGN,ARCHITECTURE,Study1,S,51,85,Test,User,-,,Recall,Recall2,5920,Arcitechture,91.666666666667,1688,5842,0,1,,1
5ea8d68a37c5173456c94f50,ma44fy1wof,"Deep vs Shallow",1,328,2020-07-08T14:37:16-07:00,2.4142110347748,4,versionC_stim.csv,RLVersionD.csv,"Relational Version D","Relational, read only version D",AMOUNT,NUMBER,Study1,S,47,14,Test,User,-,,Recall,Recall2,1871,,0,-1,-1,0,0,,1
5ea8d68a37c5173456c94f50,ma44fy1wof,"Deep vs Shallow",1,329,2020-07-08T14:37:19-07:00,3.1899831295013,4,versionC_stim.csv,RLVersionD.csv,"Relational Version D","Relational, read only version D",FANTASTIC,GREAT,Study1,F,35,39,Test,User,-,,Recall,Recall2,2722,,0,-1,-1,0,0,,1
5ea8d68a37c5173456c94f50,ma44fy1wof,"Deep vs Shallow",1,330,2020-07-08T14:37:22-07:00,2.8278629779816,4,versionC_stim.csv,RLVersionD.csv,"Relational Version D","Relational, read only version D",BAD,DELINQUENT,Study1,B,6,44,Test,User,-,,Recall,Recall2,2334,Good,14.285714285714,1908,2242,0,0,,1
5ea8d68a37c5173456c94f50,ma44fy1wof,"Deep vs Shallow",1,331,2020-07-08T14:37:25-07:00,3.5143539905548,4,versionC_stim.csv,RLVersionD.csv,"Relational Version D","Relational, read only version D",BUSINESS,DEATH,Study1,U,72,48,Test,User,-,,Recall,Recall2,3035,Work,0,2590,2911,0,0,,1
5ea8d68a37c5173456c94f50,ma44fy1wof,"Deep vs Shallow",1,332,2020-07-08T14:37:28-07:00,2.5623579025269,4,versionC_stim.csv,RLVersionD.csv,"Relational Version D","Relational, read only version D",SIP,DRINK,Study1,F,27,65,Test,User,-,,Recall,Recall2,2085,Drink,100,1524,2002,1,1,,1
5ea8d68a37c5173456c94f50,ma44fy1wof,"Deep vs Shallow",1,333,2020-07-08T14:37:34-07:00,5.880716085434,4,versionC_stim.csv,RLVersionD.csv,"Relational Version D","Relational, read only version D",PLANT,ROOT,Study1,B,13,28,Test,User,-,,Recall,Recall2,5379,Parek,22.222222222222,4965,5245,0,0,,1
5ea8d68a37c5173456c94f50,ma44fy1wof,"Deep vs Shallow",1,334,2020-07-08T14:37:40-07:00,6.5517048835754,4,versionC_stim.csv,RLVersionD.csv,"Relational Version D","Relational, read only version D",FAMINE,HUNGER,Study1,F,40,19,Test,User,-,,Recall,Recall2,5067,Fight,18.181818181818,3305,4990,0,0,,1
5ea8d68a37c5173456c94f50,ma44fy1wof,"Deep vs Shallow",1,335,2020-07-08T14:37:44-07:00,4.2067260742188,4,versionC_stim.csv,RLVersionD.csv,"Relational Version D","Relational, read only version D",WIND,BLOW,Study1,S,55,55,Test,User,-,,Recall,Recall2,3716,Air,0,3400,3633,0,0,,1
5ea8d68a37c5173456c94f50,ma44fy1wof,"Deep vs Shallow",1,336,2020-07-08T14:37:48-07:00,3.1788039207458,4,versionC_stim.csv,RLVersionD.csv,"Relational Version D","Relational, read only version D",TOILET,BATHROOM,Study1,S,58,53,Test,User,-,,Recall,Recall2,2655,,0,-1,-1,0,0,,1
5ea8d68a37c5173456c94f50,ma44fy1wof,"Deep vs Shallow",1,337,2020-07-08T14:37:52-07:00,4.4988880157471,4,versionC_stim.csv,RLVersionD.csv,"Relational Version D","Relational, read only version D",SICK,HIDE,Study1,U,84,74,Test,User,-,,Recall,Recall2,4006,,0,-1,-1,0,0,,1
5ea8d68a37c5173456c94f50,ma44fy1wof,"Deep vs Shallow",1,338,2020-07-08T14:37:54-07:00,2.1206369400024,4,versionC_stim.csv,RLVersionD.csv,"Relational Version D","Relational, read only version D",BLAZE,FIRE,Study1,F,45,42,Test,User,-,,Recall,Recall2,1735,Fire,100,1307,1645,1,1,,1
5ea8d68a37c5173456c94f50,ma44fy1wof,"Deep vs Shallow",1,339,2020-07-08T14:37:59-07:00,5.0095701217651,4,versionC_stim.csv,RLVersionD.csv,"Relational Version D","Relational, read only version D",ENOUGH,FULL,Study1,F,26,60,Test,User,-,,Recall,Recall2,4505,full,100,4063,4420,1,1,,1
5ea8d68a37c5173456c94f50,ma44fy1wof,"Deep vs Shallow",1,340,2020-07-08T14:38:01-07:00,1.5122618675232,4,versionC_stim.csv,RLVersionD.csv,"Relational Version D","Relational, read only version D",WORD,SENTENCE,Study1,F,31,79,Test,User,-,,Recall,Recall2,1140,,0,-1,-1,0,0,,1
5ea8d68a37c5173456c94f50,ma44fy1wof,"Deep vs Shallow",1,341,2020-07-08T14:38:02-07:00,1.3358941078186,4,versionC_stim.csv,RLVersionD.csv,"Relational Version D","Relational, read only version D",STOMACH,DIGESTION,Study1,B,7,17,Test,User,-,,Recall,Recall2,950,,0,-1,-1,0,0,,1
5ea8d68a37c5173456c94f50,ma44fy1wof,"Deep vs Shallow",1,342,2020-07-08T14:38:05-07:00,3.1587569713593,4,versionC_stim.csv,RLVersionD.csv,"Relational Version D","Relational, read only version D",CHORE,WORK,Study1,F,39,50,Test,User,-,,Recall,Recall2,2683,,0,-1,-1,0,0,,1
5ea8d68a37c5173456c94f50,ma44fy1wof,"Deep vs Shallow",1,343,2020-07-08T14:38:08-07:00,2.8157799243927,4,versionC_stim.csv,RLVersionD.csv,"Relational Version D","Relational, read only version D",DEFINITION,MEANING,Study1,S,62,18,Test,User,-,,Recall,Recall2,2273,,0,-1,-1,0,0,,1
5ea8d68a37c5173456c94f50,ma44fy1wof,"Deep vs Shallow",1,344,2020-07-08T14:38:13-07:00,4.7734382152557,4,versionC_stim.csv,RLVersionD.csv,"Relational Version D","Relational, read only version D",SEIZE,TAKE,Study1,F,29,76,Test,User,-,,Recall,Recall2,4256,Obtain,40,3502,4148,0,0,,1
5ea8d68a37c5173456c94f50,ma44fy1wof,"Deep vs Shallow",1,345,2020-07-08T14:38:14-07:00,1.500914812088,4,versionC_stim.csv,RLVersionD.csv,"Relational Version D","Relational, read only version D",RIDDLE,SUGAR,Study1,U,81,46,Test,User,-,,Recall,Recall2,1125,,0,-1,-1,0,0,,1
