Username,ID,ExperimentName,Session,Trial,Date,TimeDif,"Condition Number","Stimuli File","Order File","Condition Description","Condition Notes",Stimuli*Cue,Stimuli*Answer,Stimuli*Shuffle,"Stimuli*Stimuli Notes",Stimuli*Value,Procedure*Item,"Procedure*Trial Type","Procedure*Max Time","Procedure*Min Time",Procedure*Text,"Procedure*Procedure Notes",Procedure*Shuffle,Response*RT,Response*Response,Response*Accuracy,Response*RTfirst,Response*RTlast,Response*strictAcc,Response*lenientAcc,Response*focus,Response*Focus
5ec5faacab872c67dfb0f505,bgrujsotqq,"Deep vs Shallow",1,1,2020-07-08T14:38:39-07:00,11.962592124939,2,versionA_stim.csv,RLVersionB.csv,"Relational Version B","Relational, read only version B",,,,,,0,Instruct,-,10,"In this section, you will be presented with a series of word pairs. Please study both items in the pair.",,Instruct13,11586,,,-1,-1,,,,1
5ec5faacab872c67dfb0f505,bgrujsotqq,"Deep vs Shallow",1,2,2020-07-08T14:39:03-07:00,23.686485052109,2,versionA_stim.csv,RLVersionB.csv,"Relational Version B","Relational, read only version B",,,,,,0,Instruct,-,15,"As you study, please think about how the two concepts are RELATED to each other. For example, if you see the pair TURTLE-CAT, think about how both are alive, they are both animals, and both can be kept as pets.",,Instruct19,23162,,,-1,-1,,,,1
5ec5faacab872c67dfb0f505,bgrujsotqq,"Deep vs Shallow",1,3,2020-07-08T14:39:17-07:00,14.308188915253,2,versionA_stim.csv,RLVersionB.csv,"Relational Version B","Relational, read only version B",,,,,,0,FreeRecall,-,10,"What you should think about as you study each item pair? Type your response in the box below.",,CHECK1,13747,"How they are related to each other",0,2194,5939,0,0,,1
5ec5faacab872c67dfb0f505,bgrujsotqq,"Deep vs Shallow",1,4,2020-07-08T14:39:21-07:00,4.2504470348358,2,versionA_stim.csv,RLVersionB.csv,"Relational Version B","Relational, read only version B",,,,,,0,Instruct,User,-,"You will now begin the experiment. Press ENTER when you are ready to begin.",,Instruct000,2820,,,-1,-1,,,,1
5ec5faacab872c67dfb0f505,bgrujsotqq,"Deep vs Shallow",1,5,2020-07-08T14:39:27-07:00,6.0951979160309,2,versionA_stim.csv,RLVersionB.csv,"Relational Version B","Relational, read only version B",ICE,FROZEN,BUFFER3,Buffer,94,94,Study,User,-,,Study/JOL,BUFFER,5608,,,-1,-1,,,,1
5ec5faacab872c67dfb0f505,bgrujsotqq,"Deep vs Shallow",1,6,2020-07-08T14:39:33-07:00,5.5714199542999,2,versionA_stim.csv,RLVersionB.csv,"Relational Version B","Relational, read only version B",CAMP,ADVENTURE,BUFFER3,Buffer,95,92,Study,User,-,,Study/JOL,BUFFER,5124,,,-1,-1,,,,1
5ec5faacab872c67dfb0f505,bgrujsotqq,"Deep vs Shallow",1,7,2020-07-08T14:39:38-07:00,4.941516160965,2,versionA_stim.csv,RLVersionB.csv,"Relational Version B","Relational, read only version B",CARROT,POTATO,BUFFER3,Buffer,91,93,Study,User,-,,Study/JOL,BUFFER,4525,,,-1,-1,,,,1
5ec5faacab872c67dfb0f505,bgrujsotqq,"Deep vs Shallow",1,8,2020-07-08T14:39:41-07:00,3.5005989074707,2,versionA_stim.csv,RLVersionB.csv,"Relational Version B","Relational, read only version B",NOODLE,STRING,BUFFER3,Buffer,92,95,Study,User,-,,Study/JOL,BUFFER,3060,,,-1,-1,,,,1
5ec5faacab872c67dfb0f505,bgrujsotqq,"Deep vs Shallow",1,9,2020-07-08T14:39:46-07:00,4.5450539588928,2,versionA_stim.csv,RLVersionB.csv,"Relational Version B","Relational, read only version B",SHRIMP,FISH,BUFFER3,Buffer,93,96,Study,User,-,,Study/JOL,BUFFER,4104,,,-1,-1,,,,1
5ec5faacab872c67dfb0f505,bgrujsotqq,"Deep vs Shallow",1,10,2020-07-08T14:39:54-07:00,7.9759459495544,2,versionA_stim.csv,RLVersionB.csv,"Relational Version B","Relational, read only version B",DEAD,COFFIN,Study2,B,128,136,Study,User,-,,Study/JOL,"Study Phase",7554,,,-1,-1,,,,1
5ec5faacab872c67dfb0f505,bgrujsotqq,"Deep vs Shallow",1,11,2020-07-08T14:40:01-07:00,6.9461741447449,2,versionA_stim.csv,RLVersionB.csv,"Relational Version B","Relational, read only version B",MONEY,BANKER,Study2,B,132,106,Study,User,-,,Study/JOL,"Study Phase",6494,,,-1,-1,,,,1
5ec5faacab872c67dfb0f505,bgrujsotqq,"Deep vs Shallow",1,12,2020-07-08T14:40:07-07:00,5.6974189281464,2,versionA_stim.csv,RLVersionB.csv,"Relational Version B","Relational, read only version B",SHOELACE,TIE,Study2,F,99,171,Study,User,-,,Study/JOL,"Study Phase",5289,,,-1,-1,,,,1
5ec5faacab872c67dfb0f505,bgrujsotqq,"Deep vs Shallow",1,13,2020-07-08T14:40:13-07:00,6.5286829471588,2,versionA_stim.csv,RLVersionB.csv,"Relational Version B","Relational, read only version B",CLUE,GAME,Study2,F,97,145,Study,User,-,,Study/JOL,"Study Phase",6089,,,-1,-1,,,,1
5ec5faacab872c67dfb0f505,bgrujsotqq,"Deep vs Shallow",1,14,2020-07-08T14:40:17-07:00,4.1892731189728,2,versionA_stim.csv,RLVersionB.csv,"Relational Version B","Relational, read only version B",WATER,DRINK,Study2,S,143,104,Study,User,-,,Study/JOL,"Study Phase",3526,,,-1,-1,,,,1
5ec5faacab872c67dfb0f505,bgrujsotqq,"Deep vs Shallow",1,15,2020-07-08T14:40:26-07:00,8.8451910018921,2,versionA_stim.csv,RLVersionB.csv,"Relational Version B","Relational, read only version B",BOTH,OUNCE,Study2,U,172,97,Study,User,-,,Study/JOL,"Study Phase",8405,,,-1,-1,,,,1
5ec5faacab872c67dfb0f505,bgrujsotqq,"Deep vs Shallow",1,16,2020-07-08T14:40:32-07:00,6.1437799930573,2,versionA_stim.csv,RLVersionB.csv,"Relational Version B","Relational, read only version B",VEHICLE,CHARM,Study2,U,160,142,Study,User,-,,Study/JOL,"Study Phase",5621,,,-1,-1,,,,1
5ec5faacab872c67dfb0f505,bgrujsotqq,"Deep vs Shallow",1,17,2020-07-08T14:40:38-07:00,5.5611350536346,2,versionA_stim.csv,RLVersionB.csv,"Relational Version B","Relational, read only version B",SCALP,HEAD,Study2,F,105,160,Study,User,-,,Study/JOL,"Study Phase",4873,,,-1,-1,,,,1
5ec5faacab872c67dfb0f505,bgrujsotqq,"Deep vs Shallow",1,18,2020-07-08T14:40:45-07:00,7.2446639537811,2,versionA_stim.csv,RLVersionB.csv,"Relational Version B","Relational, read only version B",TRUTH,LIE,Study2,S,148,103,Study,User,-,,Study/JOL,"Study Phase",6819,,,-1,-1,,,,1
5ec5faacab872c67dfb0f505,bgrujsotqq,"Deep vs Shallow",1,19,2020-07-08T14:40:49-07:00,4.1449809074402,2,versionA_stim.csv,RLVersionB.csv,"Relational Version B","Relational, read only version B",CHERRY,RED,Study2,F,104,115,Study,User,-,,Study/JOL,"Study Phase",3697,,,-1,-1,,,,1
5ec5faacab872c67dfb0f505,bgrujsotqq,"Deep vs Shallow",1,20,2020-07-08T14:40:55-07:00,6.1385791301727,2,versionA_stim.csv,RLVersionB.csv,"Relational Version B","Relational, read only version B",FUZZY,BANG,Study2,U,168,173,Study,User,-,,Study/JOL,"Study Phase",5726,,,-1,-1,,,,1
5ec5faacab872c67dfb0f505,bgrujsotqq,"Deep vs Shallow",1,21,2020-07-08T14:41:03-07:00,7.938019990921,2,versionA_stim.csv,RLVersionB.csv,"Relational Version B","Relational, read only version B",GONE,AWAY,Study2,S,142,172,Study,User,-,,Study/JOL,"Study Phase",7516,,,-1,-1,,,,1
5ec5faacab872c67dfb0f505,bgrujsotqq,"Deep vs Shallow",1,22,2020-07-08T14:42:23-07:00,79.398686885834,2,versionA_stim.csv,RLVersionB.csv,"Relational Version B","Relational, read only version B",ROD,REEL,Study2,S,150,110,Study,User,-,,Study/JOL,"Study Phase",78663,,,-1,-1,,,,1
5ec5faacab872c67dfb0f505,bgrujsotqq,"Deep vs Shallow",1,23,2020-07-08T14:42:26-07:00,3.4291100502014,2,versionA_stim.csv,RLVersionB.csv,"Relational Version B","Relational, read only version B",FRUIT,STRAWBERRY,Study2,B,124,128,Study,User,-,,Study/JOL,"Study Phase",2756,,,-1,-1,,,,1
5ec5faacab872c67dfb0f505,bgrujsotqq,"Deep vs Shallow",1,24,2020-07-08T14:42:31-07:00,4.3808350563049,2,versionA_stim.csv,RLVersionB.csv,"Relational Version B","Relational, read only version B",DINE,EAT,Study2,F,111,153,Study,User,-,,Study/JOL,"Study Phase",3937,,,-1,-1,,,,1
5ec5faacab872c67dfb0f505,bgrujsotqq,"Deep vs Shallow",1,25,2020-07-08T14:43:02-07:00,31.549329996109,2,versionA_stim.csv,RLVersionB.csv,"Relational Version B","Relational, read only version B",FIGHT,BRAWL,Study2,B,135,130,Study,User,-,,Study/JOL,"Study Phase",31108,,,-1,-1,,,,1
5ec5faacab872c67dfb0f505,bgrujsotqq,"Deep vs Shallow",1,26,2020-07-08T14:43:20-07:00,17.744268894196,2,versionA_stim.csv,RLVersionB.csv,"Relational Version B","Relational, read only version B",MIRROR,CHILDREN,Study2,U,174,132,Study,User,-,,Study/JOL,"Study Phase",17027,,,-1,-1,,,,0.975
5ec5faacab872c67dfb0f505,bgrujsotqq,"Deep vs Shallow",1,27,2020-07-08T14:43:27-07:00,7.3645219802856,2,versionA_stim.csv,RLVersionB.csv,"Relational Version B","Relational, read only version B",OWN,HAVE,Study2,S,153,134,Study,User,-,,Study/JOL,"Study Phase",6896,,,-1,-1,,,,1
5ec5faacab872c67dfb0f505,bgrujsotqq,"Deep vs Shallow",1,28,2020-07-08T14:43:40-07:00,13.096502065659,2,versionA_stim.csv,RLVersionB.csv,"Relational Version B","Relational, read only version B",MAIN,SCAR,Study2,U,175,108,Study,User,-,,Study/JOL,"Study Phase",12323,,,-1,-1,,,,1
5ec5faacab872c67dfb0f505,bgrujsotqq,"Deep vs Shallow",1,29,2020-07-08T14:44:11-07:00,30.866583108902,2,versionA_stim.csv,RLVersionB.csv,"Relational Version B","Relational, read only version B",BIRD,PENGUIN,Study2,B,119,176,Study,User,-,,Study/JOL,"Study Phase",30409,,,-1,-1,,,,1
5ec5faacab872c67dfb0f505,bgrujsotqq,"Deep vs Shallow",1,30,2020-07-08T14:44:15-07:00,3.5804839134216,2,versionA_stim.csv,RLVersionB.csv,"Relational Version B","Relational, read only version B",DRY,WET,Study2,S,146,144,Study,User,-,,Study/JOL,"Study Phase",3127,,,-1,-1,,,,1
5ec5faacab872c67dfb0f505,bgrujsotqq,"Deep vs Shallow",1,31,2020-07-08T14:44:23-07:00,7.9699878692627,2,versionA_stim.csv,RLVersionB.csv,"Relational Version B","Relational, read only version B",FISH,SARDINE,Study2,B,130,116,Study,User,-,,Study/JOL,"Study Phase",7525,,,-1,-1,,,,1
5ec5faacab872c67dfb0f505,bgrujsotqq,"Deep vs Shallow",1,32,2020-07-08T14:44:32-07:00,9.1292581558228,2,versionA_stim.csv,RLVersionB.csv,"Relational Version B","Relational, read only version B",RIGHTS,EQUAL,Study2,S,137,99,Study,User,-,,Study/JOL,"Study Phase",8427,,,-1,-1,,,,1
5ec5faacab872c67dfb0f505,bgrujsotqq,"Deep vs Shallow",1,33,2020-07-08T14:44:39-07:00,7.5154509544373,2,versionA_stim.csv,RLVersionB.csv,"Relational Version B","Relational, read only version B",GIVE,STEAK,Study2,U,158,117,Study,User,-,,Study/JOL,"Study Phase",7077,,,-1,-1,,,,1
5ec5faacab872c67dfb0f505,bgrujsotqq,"Deep vs Shallow",1,34,2020-07-08T14:44:47-07:00,7.1477749347687,2,versionA_stim.csv,RLVersionB.csv,"Relational Version B","Relational, read only version B",CAT,PANTHER,Study2,B,126,170,Study,User,-,,Study/JOL,"Study Phase",6681,,,-1,-1,,,,1
5ec5faacab872c67dfb0f505,bgrujsotqq,"Deep vs Shallow",1,35,2020-07-08T14:44:58-07:00,11.370321035385,2,versionA_stim.csv,RLVersionB.csv,"Relational Version B","Relational, read only version B",EXTENSION,LONG,Study2,F,96,105,Study,User,-,,Study/JOL,"Study Phase",10893,,,-1,-1,,,,1
5ec5faacab872c67dfb0f505,bgrujsotqq,"Deep vs Shallow",1,36,2020-07-08T14:45:05-07:00,7.136883020401,2,versionA_stim.csv,RLVersionB.csv,"Relational Version B","Relational, read only version B",LEASE,TOIL,Study2,U,170,120,Study,User,-,,Study/JOL,"Study Phase",6704,,,-1,-1,,,,1
5ec5faacab872c67dfb0f505,bgrujsotqq,"Deep vs Shallow",1,37,2020-07-08T14:45:18-07:00,13.207479953766,2,versionA_stim.csv,RLVersionB.csv,"Relational Version B","Relational, read only version B",MEAT,OBTAIN,Study2,U,161,157,Study,User,-,,Study/JOL,"Study Phase",12752,,,-1,-1,,,,1
5ec5faacab872c67dfb0f505,bgrujsotqq,"Deep vs Shallow",1,38,2020-07-08T14:45:26-07:00,7.6613070964813,2,versionA_stim.csv,RLVersionB.csv,"Relational Version B","Relational, read only version B",ADJOURN,END,Study2,F,101,107,Study,User,-,,Study/JOL,"Study Phase",7224,,,-1,-1,,,,1
5ec5faacab872c67dfb0f505,bgrujsotqq,"Deep vs Shallow",1,39,2020-07-08T14:45:31-07:00,4.94398188591,2,versionA_stim.csv,RLVersionB.csv,"Relational Version B","Relational, read only version B",MULE,DONKEY,Study2,F,108,140,Study,User,-,,Study/JOL,"Study Phase",4479,,,-1,-1,,,,1
5ec5faacab872c67dfb0f505,bgrujsotqq,"Deep vs Shallow",1,40,2020-07-08T14:45:35-07:00,4.4119770526886,2,versionA_stim.csv,RLVersionB.csv,"Relational Version B","Relational, read only version B",FURRY,DOG,Study2,F,102,141,Study,User,-,,Study/JOL,"Study Phase",4002,,,-1,-1,,,,1
5ec5faacab872c67dfb0f505,bgrujsotqq,"Deep vs Shallow",1,41,2020-07-08T14:45:41-07:00,5.5826070308685,2,versionA_stim.csv,RLVersionB.csv,"Relational Version B","Relational, read only version B",PLANE,AIRCRAFT,Study2,B,129,125,Study,User,-,,Study/JOL,"Study Phase",5102,,,-1,-1,,,,1
5ec5faacab872c67dfb0f505,bgrujsotqq,"Deep vs Shallow",1,42,2020-07-08T14:45:49-07:00,8.1321148872375,2,versionA_stim.csv,RLVersionB.csv,"Relational Version B","Relational, read only version B",CAKE,CLOTHES,Study2,U,166,162,Study,User,-,,Study/JOL,"Study Phase",7701,,,-1,-1,,,,1
5ec5faacab872c67dfb0f505,bgrujsotqq,"Deep vs Shallow",1,43,2020-07-08T14:45:56-07:00,7.4065361022949,2,versionA_stim.csv,RLVersionB.csv,"Relational Version B","Relational, read only version B",NAME,HATE,Study2,U,167,113,Study,User,-,,Study/JOL,"Study Phase",6996,,,-1,-1,,,,1
5ec5faacab872c67dfb0f505,bgrujsotqq,"Deep vs Shallow",1,44,2020-07-08T14:46:00-07:00,4.0719230175018,2,versionA_stim.csv,RLVersionB.csv,"Relational Version B","Relational, read only version B",,,,,,0,Instruct,-,3,"Remember to focus on how the two items are similiar while you study!",,CHECK2,3662,,,-1,-1,,,,1
5ec5faacab872c67dfb0f505,bgrujsotqq,"Deep vs Shallow",1,45,2020-07-08T14:46:13-07:00,12.385947942734,2,versionA_stim.csv,RLVersionB.csv,"Relational Version B","Relational, read only version B",WRIST,BRACELET,Study2,S,140,161,Study,User,-,,Study/JOL,"Study Phase",11847,,,-1,-1,,,,1
5ec5faacab872c67dfb0f505,bgrujsotqq,"Deep vs Shallow",1,46,2020-07-08T14:46:16-07:00,3.2816400527954,2,versionA_stim.csv,RLVersionB.csv,"Relational Version B","Relational, read only version B",CHOP,CUT,Study2,F,107,98,Study,User,-,,Study/JOL,"Study Phase",2711,,,-1,-1,,,,1
5ec5faacab872c67dfb0f505,bgrujsotqq,"Deep vs Shallow",1,47,2020-07-08T14:46:24-07:00,8.233314037323,2,versionA_stim.csv,RLVersionB.csv,"Relational Version B","Relational, read only version B",PHONE,COMMUNICATION,Study2,S,149,169,Study,User,-,,Study/JOL,"Study Phase",7776,,,-1,-1,,,,1
5ec5faacab872c67dfb0f505,bgrujsotqq,"Deep vs Shallow",1,48,2020-07-08T14:46:34-07:00,9.8749089241028,2,versionA_stim.csv,RLVersionB.csv,"Relational Version B","Relational, read only version B",KEYS,JOKE,Study2,U,165,109,Study,User,-,,Study/JOL,"Study Phase",9432,,,-1,-1,,,,1
5ec5faacab872c67dfb0f505,bgrujsotqq,"Deep vs Shallow",1,49,2020-07-08T14:46:47-07:00,12.296245098114,2,versionA_stim.csv,RLVersionB.csv,"Relational Version B","Relational, read only version B",BEST,FAVORITE,Study2,B,125,164,Study,User,-,,Study/JOL,"Study Phase",10819,,,-1,-1,,,,1
5ec5faacab872c67dfb0f505,bgrujsotqq,"Deep vs Shallow",1,50,2020-07-08T14:47:10-07:00,23.171772956848,2,versionA_stim.csv,RLVersionB.csv,"Relational Version B","Relational, read only version B",MASON,JAR,Study2,S,138,114,Study,User,-,,Study/JOL,"Study Phase",22675,,,-1,-1,,,,1
5ec5faacab872c67dfb0f505,bgrujsotqq,"Deep vs Shallow",1,51,2020-07-08T14:47:17-07:00,7.5516140460968,2,versionA_stim.csv,RLVersionB.csv,"Relational Version B","Relational, read only version B",LOUD,NOISE,Study2,S,152,118,Study,User,-,,Study/JOL,"Study Phase",7092,,,-1,-1,,,,1
5ec5faacab872c67dfb0f505,bgrujsotqq,"Deep vs Shallow",1,52,2020-07-08T14:48:01-07:00,44.196501970291,2,versionA_stim.csv,RLVersionB.csv,"Relational Version B","Relational, read only version B",JUSTICE,MAROON,Study2,U,156,149,Study,User,-,,Study/JOL,"Study Phase",43734,,,-1,-1,,,,1
5ec5faacab872c67dfb0f505,bgrujsotqq,"Deep vs Shallow",1,53,2020-07-08T14:48:31-07:00,29.265136003494,2,versionA_stim.csv,RLVersionB.csv,"Relational Version B","Relational, read only version B",SUN,TAN,Study2,S,155,127,Study,User,-,,Study/JOL,"Study Phase",28739,,,-1,-1,,,,1
5ec5faacab872c67dfb0f505,bgrujsotqq,"Deep vs Shallow",1,54,2020-07-08T14:49:14-07:00,43.472146034241,2,versionA_stim.csv,RLVersionB.csv,"Relational Version B","Relational, read only version B",MOAT,CLEAR,Study2,U,169,126,Study,User,-,,Study/JOL,"Study Phase",40714,,,-1,-1,,,,1
5ec5faacab872c67dfb0f505,bgrujsotqq,"Deep vs Shallow",1,55,2020-07-08T14:49:18-07:00,4.0418088436127,2,versionA_stim.csv,RLVersionB.csv,"Relational Version B","Relational, read only version B",CANDLE,WAX,Study2,S,139,166,Study,User,-,,Study/JOL,"Study Phase",3576,,,-1,-1,,,,1
5ec5faacab872c67dfb0f505,bgrujsotqq,"Deep vs Shallow",1,56,2020-07-08T14:49:24-07:00,5.8032031059265,2,versionA_stim.csv,RLVersionB.csv,"Relational Version B","Relational, read only version B",HONEST,TRUTHFUL,Study2,B,133,174,Study,User,-,,Study/JOL,"Study Phase",4233,,,-1,-1,,,,1
5ec5faacab872c67dfb0f505,bgrujsotqq,"Deep vs Shallow",1,57,2020-07-08T14:49:55-07:00,31.270410060883,2,versionA_stim.csv,RLVersionB.csv,"Relational Version B","Relational, read only version B",LOAN,SIGN,Study2,U,171,119,Study,User,-,,Study/JOL,"Study Phase",30527,,,-1,-1,,,,1
5ec5faacab872c67dfb0f505,bgrujsotqq,"Deep vs Shallow",1,58,2020-07-08T14:50:03-07:00,8.1564497947693,2,versionA_stim.csv,RLVersionB.csv,"Relational Version B","Relational, read only version B",SHEARS,SCISSORS,Study2,F,112,139,Study,User,-,,Study/JOL,"Study Phase",7594,,,-1,-1,,,,1
5ec5faacab872c67dfb0f505,bgrujsotqq,"Deep vs Shallow",1,59,2020-07-08T14:50:54-07:00,50.313633203506,2,versionA_stim.csv,RLVersionB.csv,"Relational Version B","Relational, read only version B",DETECTIVE,MYSTERY,Study2,F,100,154,Study,User,-,,Study/JOL,"Study Phase",49771,,,-1,-1,,,,1
5ec5faacab872c67dfb0f505,bgrujsotqq,"Deep vs Shallow",1,60,2020-07-08T14:50:58-07:00,4.2399559020996,2,versionA_stim.csv,RLVersionB.csv,"Relational Version B","Relational, read only version B",MAZE,ELECTION,Study2,U,159,133,Study,User,-,,Study/JOL,"Study Phase",3778,,,-1,-1,,,,1
5ec5faacab872c67dfb0f505,bgrujsotqq,"Deep vs Shallow",1,61,2020-07-08T14:51:06-07:00,8.0509378910065,2,versionA_stim.csv,RLVersionB.csv,"Relational Version B","Relational, read only version B",STAR,ACTRESS,Study2,B,120,102,Study,User,-,,Study/JOL,"Study Phase",7592,,,-1,-1,,,,1
5ec5faacab872c67dfb0f505,bgrujsotqq,"Deep vs Shallow",1,62,2020-07-08T14:51:16-07:00,9.5390779972076,2,versionA_stim.csv,RLVersionB.csv,"Relational Version B","Relational, read only version B",DRIVER,CAR,Study2,F,106,143,Study,User,-,,Study/JOL,"Study Phase",9128,,,-1,-1,,,,1
5ec5faacab872c67dfb0f505,bgrujsotqq,"Deep vs Shallow",1,63,2020-07-08T14:51:19-07:00,3.8311030864716,2,versionA_stim.csv,RLVersionB.csv,"Relational Version B","Relational, read only version B",TURN,FLIP,Study2,B,116,131,Study,User,-,,Study/JOL,"Study Phase",3377,,,-1,-1,,,,1
5ec5faacab872c67dfb0f505,bgrujsotqq,"Deep vs Shallow",1,64,2020-07-08T14:51:37-07:00,17.916526079178,2,versionA_stim.csv,RLVersionB.csv,"Relational Version B","Relational, read only version B",ALONE,LONELY,Study2,S,145,138,Study,User,-,,Study/JOL,"Study Phase",17473,,,-1,-1,,,,1
5ec5faacab872c67dfb0f505,bgrujsotqq,"Deep vs Shallow",1,65,2020-07-08T14:51:43-07:00,5.7441399097443,2,versionA_stim.csv,RLVersionB.csv,"Relational Version B","Relational, read only version B",STRETCH,CLOTH,Study2,U,157,150,Study,User,-,,Study/JOL,"Study Phase",5210,,,-1,-1,,,,1
5ec5faacab872c67dfb0f505,bgrujsotqq,"Deep vs Shallow",1,66,2020-07-08T14:51:48-07:00,4.8458890914917,2,versionA_stim.csv,RLVersionB.csv,"Relational Version B","Relational, read only version B",AFFECTION,LOVE,Study2,F,115,135,Study,User,-,,Study/JOL,"Study Phase",4415,,,-1,-1,,,,1
5ec5faacab872c67dfb0f505,bgrujsotqq,"Deep vs Shallow",1,67,2020-07-08T14:51:54-07:00,6.0657370090485,2,versionA_stim.csv,RLVersionB.csv,"Relational Version B","Relational, read only version B",LITTER,TRASH,Study2,F,103,165,Study,User,-,,Study/JOL,"Study Phase",5523,,,-1,-1,,,,1
5ec5faacab872c67dfb0f505,bgrujsotqq,"Deep vs Shallow",1,68,2020-07-08T14:52:05-07:00,10.843103885651,2,versionA_stim.csv,RLVersionB.csv,"Relational Version B","Relational, read only version B",GLASS,BREAKABLE,Study2,B,127,167,Study,User,-,,Study/JOL,"Study Phase",10233,,,-1,-1,,,,1
5ec5faacab872c67dfb0f505,bgrujsotqq,"Deep vs Shallow",1,69,2020-07-08T14:52:26-07:00,20.750211954117,2,versionA_stim.csv,RLVersionB.csv,"Relational Version B","Relational, read only version B",RAZOR,SHAVE,Study2,S,136,137,Study,User,-,,Study/JOL,"Study Phase",20288,,,-1,-1,,,,1
5ec5faacab872c67dfb0f505,bgrujsotqq,"Deep vs Shallow",1,70,2020-07-08T14:52:51-07:00,25.332362174988,2,versionA_stim.csv,RLVersionB.csv,"Relational Version B","Relational, read only version B",POP,BALLOON,Study2,B,123,124,Study,User,-,,Study/JOL,"Study Phase",24888,,,-1,-1,,,,1
5ec5faacab872c67dfb0f505,bgrujsotqq,"Deep vs Shallow",1,71,2020-07-08T14:52:55-07:00,3.9344530105591,2,versionA_stim.csv,RLVersionB.csv,"Relational Version B","Relational, read only version B",FLEA,TICK,Study2,S,151,129,Study,User,-,,Study/JOL,"Study Phase",3443,,,-1,-1,,,,1
5ec5faacab872c67dfb0f505,bgrujsotqq,"Deep vs Shallow",1,72,2020-07-08T14:53:36-07:00,40.707988023758,2,versionA_stim.csv,RLVersionB.csv,"Relational Version B","Relational, read only version B",BASEBALL,LEAGUE,Study2,B,131,121,Study,User,-,,Study/JOL,"Study Phase",40207,,,-1,-1,,,,1
5ec5faacab872c67dfb0f505,bgrujsotqq,"Deep vs Shallow",1,73,2020-07-08T14:53:39-07:00,3.2229797840118,2,versionA_stim.csv,RLVersionB.csv,"Relational Version B","Relational, read only version B",THREAD,THIMBLE,Study2,B,121,147,Study,User,-,,Study/JOL,"Study Phase",2442,,,-1,-1,,,,1
5ec5faacab872c67dfb0f505,bgrujsotqq,"Deep vs Shallow",1,74,2020-07-08T14:54:07-07:00,27.806400060654,2,versionA_stim.csv,RLVersionB.csv,"Relational Version B","Relational, read only version B",Shell,SHAKE,Study2,U,163,123,Study,User,-,,Study/JOL,"Study Phase",27366,,,-1,-1,,,,1
5ec5faacab872c67dfb0f505,bgrujsotqq,"Deep vs Shallow",1,75,2020-07-08T14:54:11-07:00,3.9644470214844,2,versionA_stim.csv,RLVersionB.csv,"Relational Version B","Relational, read only version B",CAR,WINDSHIELD,Study2,B,117,100,Study,User,-,,Study/JOL,"Study Phase",3487,,,-1,-1,,,,1
5ec5faacab872c67dfb0f505,bgrujsotqq,"Deep vs Shallow",1,76,2020-07-08T14:54:21-07:00,10.491644144058,2,versionA_stim.csv,RLVersionB.csv,"Relational Version B","Relational, read only version B",CRACKLE,ABLE,Study2,U,162,146,Study,User,-,,Study/JOL,"Study Phase",10039,,,-1,-1,,,,1
5ec5faacab872c67dfb0f505,bgrujsotqq,"Deep vs Shallow",1,77,2020-07-08T14:54:27-07:00,5.7507288455963,2,versionA_stim.csv,RLVersionB.csv,"Relational Version B","Relational, read only version B",TANTRUM,TEMPER,Study2,S,154,122,Study,User,-,,Study/JOL,"Study Phase",5282,,,-1,-1,,,,1
5ec5faacab872c67dfb0f505,bgrujsotqq,"Deep vs Shallow",1,78,2020-07-08T14:54:36-07:00,9.6647379398346,2,versionA_stim.csv,RLVersionB.csv,"Relational Version B","Relational, read only version B",TEMPERATURE,Morning,Study2,U,173,163,Study,User,-,,Study/JOL,"Study Phase",9173,,,-1,-1,,,,1
5ec5faacab872c67dfb0f505,bgrujsotqq,"Deep vs Shallow",1,79,2020-07-08T14:54:47-07:00,10.858211040497,2,versionA_stim.csv,RLVersionB.csv,"Relational Version B","Relational, read only version B",LISTEN,FICTION,Study2,U,164,152,Study,User,-,,Study/JOL,"Study Phase",10372,,,-1,-1,,,,1
5ec5faacab872c67dfb0f505,bgrujsotqq,"Deep vs Shallow",1,80,2020-07-08T14:55:38-07:00,50.446283102036,2,versionA_stim.csv,RLVersionB.csv,"Relational Version B","Relational, read only version B",BAD,VILLAIN,Study2,B,118,156,Study,User,-,,Study/JOL,"Study Phase",50004,,,-1,-1,,,,1
5ec5faacab872c67dfb0f505,bgrujsotqq,"Deep vs Shallow",1,81,2020-07-08T14:55:42-07:00,4.2633240222931,2,versionA_stim.csv,RLVersionB.csv,"Relational Version B","Relational, read only version B",SLEEP,NAP,Study2,B,134,148,Study,User,-,,Study/JOL,"Study Phase",3807,,,-1,-1,,,,1
5ec5faacab872c67dfb0f505,bgrujsotqq,"Deep vs Shallow",1,82,2020-07-08T14:55:45-07:00,2.6574149131775,2,versionA_stim.csv,RLVersionB.csv,"Relational Version B","Relational, read only version B",CACTUS,PLANT,Study2,F,98,175,Study,User,-,,Study/JOL,"Study Phase",2177,,,-1,-1,,,,1
5ec5faacab872c67dfb0f505,bgrujsotqq,"Deep vs Shallow",1,83,2020-07-08T14:56:05-07:00,20.797034978867,2,versionA_stim.csv,RLVersionB.csv,"Relational Version B","Relational, read only version B",EVEN,REVENGE,Study2,B,122,112,Study,User,-,,Study/JOL,"Study Phase",20300,,,-1,-1,,,,1
5ec5faacab872c67dfb0f505,bgrujsotqq,"Deep vs Shallow",1,84,2020-07-08T14:56:13-07:00,7.2020270824432,2,versionA_stim.csv,RLVersionB.csv,"Relational Version B","Relational, read only version B",CHILL,COLD,Study2,F,114,159,Study,User,-,,Study/JOL,"Study Phase",6633,,,-1,-1,,,,1
5ec5faacab872c67dfb0f505,bgrujsotqq,"Deep vs Shallow",1,85,2020-07-08T14:56:19-07:00,6.2428870201111,2,versionA_stim.csv,RLVersionB.csv,"Relational Version B","Relational, read only version B",DOCUMENT,PAPER,Study2,F,109,111,Study,User,-,,Study/JOL,"Study Phase",5586,,,-1,-1,,,,1
5ec5faacab872c67dfb0f505,bgrujsotqq,"Deep vs Shallow",1,86,2020-07-08T14:56:48-07:00,29.401752948761,2,versionA_stim.csv,RLVersionB.csv,"Relational Version B","Relational, read only version B",FEUD,FIGHT,Study2,F,113,151,Study,User,-,,Study/JOL,"Study Phase",28965,,,-1,-1,,,,1
5ec5faacab872c67dfb0f505,bgrujsotqq,"Deep vs Shallow",1,87,2020-07-08T14:57:01-07:00,12.892291069031,2,versionA_stim.csv,RLVersionB.csv,"Relational Version B","Relational, read only version B",SAFETY,SEATBELT,Study2,S,147,168,Study,User,-,,Study/JOL,"Study Phase",12386,,,-1,-1,,,,1
5ec5faacab872c67dfb0f505,bgrujsotqq,"Deep vs Shallow",1,88,2020-07-08T14:57:09-07:00,8.2215259075165,2,versionA_stim.csv,RLVersionB.csv,"Relational Version B","Relational, read only version B",INCENSE,SMELL,Study2,F,110,155,Study,User,-,,Study/JOL,"Study Phase",7776,,,-1,-1,,,,1
5ec5faacab872c67dfb0f505,bgrujsotqq,"Deep vs Shallow",1,89,2020-07-08T14:57:21-07:00,11.343903064728,2,versionA_stim.csv,RLVersionB.csv,"Relational Version B","Relational, read only version B",EARTH,GROUND,Study2,S,144,158,Study,User,-,,Study/JOL,"Study Phase",9831,,,-1,-1,,,,1
5ec5faacab872c67dfb0f505,bgrujsotqq,"Deep vs Shallow",1,90,2020-07-08T14:57:26-07:00,5.1513428688049,2,versionA_stim.csv,RLVersionB.csv,"Relational Version B","Relational, read only version B",ELEMENT,CARBON,Study2,S,141,101,Study,User,-,,Study/JOL,"Study Phase",4688,,,-1,-1,,,,1
5ec5faacab872c67dfb0f505,bgrujsotqq,"Deep vs Shallow",1,91,2020-07-08T14:57:31-07:00,4.8894250392914,2,versionA_stim.csv,RLVersionB.csv,"Relational Version B","Relational, read only version B",OCTOBER,SPOOKY,BUFFER4,Buffer,180,177,Study,User,-,,Study/JOL,BUFFER2,4461,,,-1,-1,,,,1
5ec5faacab872c67dfb0f505,bgrujsotqq,"Deep vs Shallow",1,92,2020-07-08T14:57:46-07:00,14.991230964661,2,versionA_stim.csv,RLVersionB.csv,"Relational Version B","Relational, read only version B",TOOL,SHED,BUFFER4,Buffer,178,181,Study,User,-,,Study/JOL,BUFFER2,14457,,,-1,-1,,,,1
5ec5faacab872c67dfb0f505,bgrujsotqq,"Deep vs Shallow",1,93,2020-07-08T14:57:54-07:00,8.1903281211853,2,versionA_stim.csv,RLVersionB.csv,"Relational Version B","Relational, read only version B",SPRING,MARCH,BUFFER4,Buffer,179,179,Study,User,-,,Study/JOL,BUFFER2,7641,,,-1,-1,,,,1
5ec5faacab872c67dfb0f505,bgrujsotqq,"Deep vs Shallow",1,94,2020-07-08T14:58:02-07:00,7.5186898708344,2,versionA_stim.csv,RLVersionB.csv,"Relational Version B","Relational, read only version B",MONTH,YEAR,BUFFER4,Buffer,177,178,Study,User,-,,Study/JOL,BUFFER2,6008,,,-1,-1,,,,1
5ec5faacab872c67dfb0f505,bgrujsotqq,"Deep vs Shallow",1,95,2020-07-08T14:59:16-07:00,74.794867992401,2,versionA_stim.csv,RLVersionB.csv,"Relational Version B","Relational, read only version B",DAYS,WEAKS,BUFFER4,Buffer,176,180,Study,User,-,,Study/JOL,BUFFER2,74262,,,-1,-1,,,,1
5ec5faacab872c67dfb0f505,bgrujsotqq,"Deep vs Shallow",1,96,2020-07-08T14:59:45-07:00,29.121982097626,2,versionA_stim.csv,RLVersionB.csv,"Relational Version B","Relational, read only version B",,,,,,0,Instruct,User,-,"You have completed this section. Please press Enter.",Filler_Instruction,Instruct2,28411,,,-1,-1,,,,1
5ec5faacab872c67dfb0f505,bgrujsotqq,"Deep vs Shallow",1,97,2020-07-08T14:59:49-07:00,3.1979088783264,2,versionA_stim.csv,RLVersionB.csv,"Relational Version B","Relational, read only version B",,,,,,0,Instruct,User,-,"You have completed this section. Please press Enter.",Filler_Instruction,Instruct5,1748,,,-1,-1,,,,1
5ec5faacab872c67dfb0f505,bgrujsotqq,"Deep vs Shallow",1,98,2020-07-08T15:00:09-07:00,19.935881137848,2,versionA_stim.csv,RLVersionB.csv,"Relational Version B","Relational, read only version B",,,,,,0,FreeRecall,-,10,"What were you supposed to focus on while you studied each pair? (Hint: Think back to the instructions). Type your answer in the space below.",,CHECK3,19487,"I was supposed to focus on the similarities of the two words.",0,2763,17518,0,0,,1
5ec5faacab872c67dfb0f505,bgrujsotqq,"Deep vs Shallow",1,99,2020-07-08T15:02:10-07:00,121.48974990845,2,versionA_stim.csv,RLVersionB.csv,"Relational Version B","Relational, read only version B",,,,,,0,FreeRecall,120,120,"Please list the 50 US states in alphabetical order. The task will automatically advance to the next screen after two minutes.",,Filler1,120003,"Arkansas Alabama ",0,36623,67797,0,0,,1
5ec5faacab872c67dfb0f505,bgrujsotqq,"Deep vs Shallow",1,100,2020-07-08T15:21:25-07:00,1154.8528470993,2,versionA_stim.csv,RLVersionB.csv,"Relational Version B","Relational, read only version B",,,,,,0,Instruct,-,10,"You will now be presented with the first word from each of the previously studied item pairs. Please type the missing word. If you do not know the word, you may guess or press Enter to skip forward to the next pair.",,Instruct3,1154331,,,-1,-1,,,,1
5ec5faacab872c67dfb0f505,bgrujsotqq,"Deep vs Shallow",1,101,2020-07-08T15:21:29-07:00,4.3912630081177,2,versionA_stim.csv,RLVersionB.csv,"Relational Version B","Relational, read only version B",VEHICLE,CHARM,Study2,U,160,142,Test,User,-,,Recall,Recall1,3633,car,75,1983,2319,0,1,,1
5ec5faacab872c67dfb0f505,bgrujsotqq,"Deep vs Shallow",1,102,2020-07-08T15:21:46-07:00,16.315202951431,2,versionA_stim.csv,RLVersionB.csv,"Relational Version B","Relational, read only version B",ELEMENT,CARBON,Study2,S,141,101,Test,User,-,,Recall,Recall1,15876,,0,-1,-1,0,0,,1
5ec5faacab872c67dfb0f505,bgrujsotqq,"Deep vs Shallow",1,103,2020-07-08T15:21:55-07:00,9.8172469139099,2,versionA_stim.csv,RLVersionB.csv,"Relational Version B","Relational, read only version B",DINE,EAT,Study2,F,111,153,Test,User,-,,Recall,Recall1,9245,Eat,100,7837,8215,1,1,,1
5ec5faacab872c67dfb0f505,bgrujsotqq,"Deep vs Shallow",1,104,2020-07-08T15:22:03-07:00,7.7013831138611,2,versionA_stim.csv,RLVersionB.csv,"Relational Version B","Relational, read only version B",FURRY,DOG,Study2,F,102,141,Test,User,-,,Recall,Recall1,7080,Dog,100,5489,5676,1,1,,1
5ec5faacab872c67dfb0f505,bgrujsotqq,"Deep vs Shallow",1,105,2020-07-08T15:23:02-07:00,58.561881065369,2,versionA_stim.csv,RLVersionB.csv,"Relational Version B","Relational, read only version B",FRUIT,STRAWBERRY,Study2,B,124,128,Test,User,-,,Recall,Recall1,57958,,0,-1,-1,0,0,,1
5ec5faacab872c67dfb0f505,bgrujsotqq,"Deep vs Shallow",1,106,2020-07-08T15:23:09-07:00,7.1914730072021,2,versionA_stim.csv,RLVersionB.csv,"Relational Version B","Relational, read only version B",RAZOR,SHAVE,Study2,S,136,137,Test,User,-,,Recall,Recall1,6723,shave,100,2410,5667,1,1,,1
5ec5faacab872c67dfb0f505,bgrujsotqq,"Deep vs Shallow",1,107,2020-07-08T15:23:19-07:00,10.257248878479,2,versionA_stim.csv,RLVersionB.csv,"Relational Version B","Relational, read only version B",STRETCH,CLOTH,Study2,U,157,150,Test,User,-,,Recall,Recall1,9802,elongate,46.153846153846,1924,8569,0,0,,1
5ec5faacab872c67dfb0f505,bgrujsotqq,"Deep vs Shallow",1,108,2020-07-08T15:23:23-07:00,3.3659620285034,2,versionA_stim.csv,RLVersionB.csv,"Relational Version B","Relational, read only version B",NAME,HATE,Study2,U,167,113,Test,User,-,,Recall,Recall1,2900,hate,100,1547,1784,1,1,,1
5ec5faacab872c67dfb0f505,bgrujsotqq,"Deep vs Shallow",1,109,2020-07-08T15:24:07-07:00,44.055947065353,2,versionA_stim.csv,RLVersionB.csv,"Relational Version B","Relational, read only version B",Shell,SHAKE,Study2,U,163,123,Test,User,-,,Recall,Recall1,10223,shake,100,8922,9208,1,1,,1
5ec5faacab872c67dfb0f505,bgrujsotqq,"Deep vs Shallow",1,110,2020-07-08T15:24:41-07:00,34.242565870285,2,versionA_stim.csv,RLVersionB.csv,"Relational Version B","Relational, read only version B",CAR,WINDSHIELD,Study2,B,117,100,Test,User,-,,Recall,Recall1,33757,safety,25,26832,29710,0,0,,1
5ec5faacab872c67dfb0f505,bgrujsotqq,"Deep vs Shallow",1,111,2020-07-08T15:24:45-07:00,4.4837679862976,2,versionA_stim.csv,RLVersionB.csv,"Relational Version B","Relational, read only version B",SLEEP,NAP,Study2,B,134,148,Test,User,-,,Recall,Recall1,4019,nap,100,1972,2896,1,1,,1
5ec5faacab872c67dfb0f505,bgrujsotqq,"Deep vs Shallow",1,112,2020-07-08T15:24:50-07:00,4.3596231937408,2,versionA_stim.csv,RLVersionB.csv,"Relational Version B","Relational, read only version B",MONEY,BANKER,Study2,B,132,106,Test,User,-,,Recall,Recall1,3894,finance,46.153846153846,2113,2781,0,0,,1
5ec5faacab872c67dfb0f505,bgrujsotqq,"Deep vs Shallow",1,113,2020-07-08T15:24:53-07:00,3.4915668964386,2,versionA_stim.csv,RLVersionB.csv,"Relational Version B","Relational, read only version B",CANDLE,WAX,Study2,S,139,166,Test,User,-,,Recall,Recall1,2959,wax,100,1336,1616,1,1,,1
5ec5faacab872c67dfb0f505,bgrujsotqq,"Deep vs Shallow",1,114,2020-07-08T15:24:56-07:00,3.2121210098267,2,versionA_stim.csv,RLVersionB.csv,"Relational Version B","Relational, read only version B",LOUD,NOISE,Study2,S,152,118,Test,User,-,,Recall,Recall1,2582,noise,100,1070,1392,1,1,,1
5ec5faacab872c67dfb0f505,bgrujsotqq,"Deep vs Shallow",1,115,2020-07-08T15:25:01-07:00,4.580885887146,2,versionA_stim.csv,RLVersionB.csv,"Relational Version B","Relational, read only version B",CRACKLE,ABLE,Study2,U,162,146,Test,User,-,,Recall,Recall1,4126,,0,-1,-1,0,0,,1
5ec5faacab872c67dfb0f505,bgrujsotqq,"Deep vs Shallow",1,116,2020-07-08T15:25:06-07:00,4.6556551456451,2,versionA_stim.csv,RLVersionB.csv,"Relational Version B","Relational, read only version B",THREAD,THIMBLE,Study2,B,121,147,Test,User,-,,Recall,Recall1,4113,thimble,100,2482,2930,1,1,,1
5ec5faacab872c67dfb0f505,bgrujsotqq,"Deep vs Shallow",1,117,2020-07-08T15:25:10-07:00,4.4696879386902,2,versionA_stim.csv,RLVersionB.csv,"Relational Version B","Relational, read only version B",BEST,FAVORITE,Study2,B,125,164,Test,User,-,,Recall,Recall1,3855,favourite,94.117647058824,2052,2757,0,1,,1
5ec5faacab872c67dfb0f505,bgrujsotqq,"Deep vs Shallow",1,118,2020-07-08T15:25:28-07:00,18.201329946518,2,versionA_stim.csv,RLVersionB.csv,"Relational Version B","Relational, read only version B",BAD,VILLAIN,Study2,B,118,156,Test,User,-,,Recall,Recall1,17751,,0,-1,-1,0,0,,1
5ec5faacab872c67dfb0f505,bgrujsotqq,"Deep vs Shallow",1,119,2020-07-08T15:25:32-07:00,3.7139661312103,2,versionA_stim.csv,RLVersionB.csv,"Relational Version B","Relational, read only version B",LITTER,TRASH,Study2,F,103,165,Test,User,-,,Recall,Recall1,3256,trash,100,1434,2131,1,1,,1
5ec5faacab872c67dfb0f505,bgrujsotqq,"Deep vs Shallow",1,120,2020-07-08T15:25:39-07:00,7.2779488563538,2,versionA_stim.csv,RLVersionB.csv,"Relational Version B","Relational, read only version B",FISH,SARDINE,Study2,B,130,116,Test,User,-,,Recall,Recall1,6818,shrimp,46.153846153846,5345,6449,0,0,,1
5ec5faacab872c67dfb0f505,bgrujsotqq,"Deep vs Shallow",1,121,2020-07-08T15:25:44-07:00,5.2083051204681,2,versionA_stim.csv,RLVersionB.csv,"Relational Version B","Relational, read only version B",EARTH,GROUND,Study2,S,144,158,Test,User,-,,Recall,Recall1,4711,ground,100,2471,3550,1,1,,1
5ec5faacab872c67dfb0f505,bgrujsotqq,"Deep vs Shallow",1,122,2020-07-08T15:25:59-07:00,14.947633981705,2,versionA_stim.csv,RLVersionB.csv,"Relational Version B","Relational, read only version B",SHEARS,SCISSORS,Study2,F,112,139,Test,User,-,,Recall,Recall1,14518,scissors,100,10103,12225,1,1,,1
5ec5faacab872c67dfb0f505,bgrujsotqq,"Deep vs Shallow",1,123,2020-07-08T15:26:04-07:00,4.7013659477234,2,versionA_stim.csv,RLVersionB.csv,"Relational Version B","Relational, read only version B",DETECTIVE,MYSTERY,Study2,F,100,154,Test,User,-,,Recall,Recall1,4198,mystery,100,1730,2818,1,1,,1
5ec5faacab872c67dfb0f505,bgrujsotqq,"Deep vs Shallow",1,124,2020-07-08T15:26:12-07:00,7.917976140976,2,versionA_stim.csv,RLVersionB.csv,"Relational Version B","Relational, read only version B",CAT,PANTHER,Study2,B,126,170,Test,User,-,,Recall,Recall1,7485,,0,-1,-1,0,0,,1
5ec5faacab872c67dfb0f505,bgrujsotqq,"Deep vs Shallow",1,125,2020-07-08T15:26:19-07:00,7.4299409389496,2,versionA_stim.csv,RLVersionB.csv,"Relational Version B","Relational, read only version B",PHONE,COMMUNICATION,Study2,S,149,169,Test,User,-,,Recall,Recall1,6945,communication,100,2704,5935,1,1,,1
5ec5faacab872c67dfb0f505,bgrujsotqq,"Deep vs Shallow",1,126,2020-07-08T15:26:30-07:00,10.906430959702,2,versionA_stim.csv,RLVersionB.csv,"Relational Version B","Relational, read only version B",GLASS,BREAKABLE,Study2,B,127,167,Test,User,-,,Recall,Recall1,10460,shatter,25,1886,7900,0,0,,1
5ec5faacab872c67dfb0f505,bgrujsotqq,"Deep vs Shallow",1,127,2020-07-08T15:26:36-07:00,5.4969410896301,2,versionA_stim.csv,RLVersionB.csv,"Relational Version B","Relational, read only version B",TRUTH,LIE,Study2,S,148,103,Test,User,-,,Recall,Recall1,4748,honesty,20,1851,3198,0,0,,1
5ec5faacab872c67dfb0f505,bgrujsotqq,"Deep vs Shallow",1,128,2020-07-08T15:26:54-07:00,17.816504955292,2,versionA_stim.csv,RLVersionB.csv,"Relational Version B","Relational, read only version B",FLEA,TICK,Study2,S,151,129,Test,User,-,,Recall,Recall1,17250,,0,-1,-1,0,0,,1
5ec5faacab872c67dfb0f505,bgrujsotqq,"Deep vs Shallow",1,129,2020-07-08T15:27:16-07:00,22.366567850113,2,versionA_stim.csv,RLVersionB.csv,"Relational Version B","Relational, read only version B",GONE,AWAY,Study2,S,142,172,Test,User,-,,Recall,Recall1,21885,away,100,20329,20644,1,1,,1
5ec5faacab872c67dfb0f505,bgrujsotqq,"Deep vs Shallow",1,130,2020-07-08T15:27:23-07:00,7.2743849754333,2,versionA_stim.csv,RLVersionB.csv,"Relational Version B","Relational, read only version B",MEAT,OBTAIN,Study2,U,161,157,Test,User,-,,Recall,Recall1,6809,,0,-1,-1,0,0,,1
5ec5faacab872c67dfb0f505,bgrujsotqq,"Deep vs Shallow",1,131,2020-07-08T15:27:36-07:00,12.647948026657,2,versionA_stim.csv,RLVersionB.csv,"Relational Version B","Relational, read only version B",STAR,ACTRESS,Study2,B,120,102,Test,User,-,,Recall,Recall1,11790,actress,100,9385,10677,1,1,,1
5ec5faacab872c67dfb0f505,bgrujsotqq,"Deep vs Shallow",1,132,2020-07-08T15:28:05-07:00,28.786287069321,2,versionA_stim.csv,RLVersionB.csv,"Relational Version B","Relational, read only version B",SUN,TAN,Study2,S,155,127,Test,User,-,,Recall,Recall1,28323,tan,100,24410,26665,1,1,,1
5ec5faacab872c67dfb0f505,bgrujsotqq,"Deep vs Shallow",1,133,2020-07-08T15:28:10-07:00,5.6260149478912,2,versionA_stim.csv,RLVersionB.csv,"Relational Version B","Relational, read only version B",EVEN,REVENGE,Study2,B,122,112,Test,User,-,,Recall,Recall1,5142,revenge,100,3423,4473,1,1,,1
5ec5faacab872c67dfb0f505,bgrujsotqq,"Deep vs Shallow",1,134,2020-07-08T15:28:17-07:00,6.2956299781799,2,versionA_stim.csv,RLVersionB.csv,"Relational Version B","Relational, read only version B",TEMPERATURE,Morning,Study2,U,173,163,Test,User,-,,Recall,Recall1,5788,weather,14.285714285714,3610,5660,0,0,,1
5ec5faacab872c67dfb0f505,bgrujsotqq,"Deep vs Shallow",1,135,2020-07-08T15:28:24-07:00,7.0597670078278,2,versionA_stim.csv,RLVersionB.csv,"Relational Version B","Relational, read only version B",BASEBALL,LEAGUE,Study2,B,131,121,Test,User,-,,Recall,Recall1,6555,league,100,5007,6402,1,1,,1
5ec5faacab872c67dfb0f505,bgrujsotqq,"Deep vs Shallow",1,136,2020-07-08T15:28:28-07:00,4.666365146637,2,versionA_stim.csv,RLVersionB.csv,"Relational Version B","Relational, read only version B",JUSTICE,MAROON,Study2,U,156,149,Test,User,-,,Recall,Recall1,3966,,0,-1,-1,0,0,,1
5ec5faacab872c67dfb0f505,bgrujsotqq,"Deep vs Shallow",1,137,2020-07-08T15:28:57-07:00,29.066303014755,2,versionA_stim.csv,RLVersionB.csv,"Relational Version B","Relational, read only version B",GIVE,STEAK,Study2,U,158,117,Test,User,-,,Recall,Recall1,28571,,0,-1,-1,0,0,,1
5ec5faacab872c67dfb0f505,bgrujsotqq,"Deep vs Shallow",1,138,2020-07-08T15:29:02-07:00,4.2954919338226,2,versionA_stim.csv,RLVersionB.csv,"Relational Version B","Relational, read only version B",TANTRUM,TEMPER,Study2,S,154,122,Test,User,-,,Recall,Recall1,3673,,0,-1,-1,0,0,,1
5ec5faacab872c67dfb0f505,bgrujsotqq,"Deep vs Shallow",1,139,2020-07-08T15:29:17-07:00,14.816719055176,2,versionA_stim.csv,RLVersionB.csv,"Relational Version B","Relational, read only version B",FUZZY,BANG,Study2,U,168,173,Test,User,-,,Recall,Recall1,14346,dog,28.571428571429,11546,13406,0,0,,1
5ec5faacab872c67dfb0f505,bgrujsotqq,"Deep vs Shallow",1,140,2020-07-08T15:29:22-07:00,5.6947088241577,2,versionA_stim.csv,RLVersionB.csv,"Relational Version B","Relational, read only version B",TURN,FLIP,Study2,B,116,131,Test,User,-,,Recall,Recall1,4249,move,0,3841,4110,0,0,,1
5ec5faacab872c67dfb0f505,bgrujsotqq,"Deep vs Shallow",1,141,2020-07-08T15:29:49-07:00,27.070233106613,2,versionA_stim.csv,RLVersionB.csv,"Relational Version B","Relational, read only version B",WATER,DRINK,Study2,S,143,104,Test,User,-,,Recall,Recall1,26587,,0,-1,-1,0,0,,1
5ec5faacab872c67dfb0f505,bgrujsotqq,"Deep vs Shallow",1,142,2020-07-08T15:29:54-07:00,5.1507608890533,2,versionA_stim.csv,RLVersionB.csv,"Relational Version B","Relational, read only version B",AFFECTION,LOVE,Study2,F,115,135,Test,User,-,,Recall,Recall1,4640,love,100,2710,3503,1,1,,1
5ec5faacab872c67dfb0f505,bgrujsotqq,"Deep vs Shallow",1,143,2020-07-08T15:30:08-07:00,13.883647203445,2,versionA_stim.csv,RLVersionB.csv,"Relational Version B","Relational, read only version B",ALONE,LONELY,Study2,S,145,138,Test,User,-,,Recall,Recall1,13411,lonely,100,12732,13252,1,1,,1
5ec5faacab872c67dfb0f505,bgrujsotqq,"Deep vs Shallow",1,144,2020-07-08T15:30:11-07:00,2.3522279262543,2,versionA_stim.csv,RLVersionB.csv,"Relational Version B","Relational, read only version B",CHERRY,RED,Study2,F,104,115,Test,User,-,,Recall,Recall1,1868,red,100,1478,1719,1,1,,1
5ec5faacab872c67dfb0f505,bgrujsotqq,"Deep vs Shallow",1,145,2020-07-08T15:30:14-07:00,3.0839519500732,2,versionA_stim.csv,RLVersionB.csv,"Relational Version B","Relational, read only version B",RIGHTS,EQUAL,Study2,S,137,99,Test,User,-,,Recall,Recall1,2638,,0,-1,-1,0,0,,1
5ec5faacab872c67dfb0f505,bgrujsotqq,"Deep vs Shallow",1,146,2020-07-08T15:30:24-07:00,9.6839339733124,2,versionA_stim.csv,RLVersionB.csv,"Relational Version B","Relational, read only version B",EXTENSION,LONG,Study2,F,96,105,Test,User,-,,Recall,Recall1,9252,elongate,66.666666666667,4775,9088,0,0,,1
5ec5faacab872c67dfb0f505,bgrujsotqq,"Deep vs Shallow",1,147,2020-07-08T15:30:29-07:00,5.4497971534729,2,versionA_stim.csv,RLVersionB.csv,"Relational Version B","Relational, read only version B",MAZE,ELECTION,Study2,U,159,133,Test,User,-,,Recall,Recall1,4821,politics,37.5,3368,4249,0,0,,1
5ec5faacab872c67dfb0f505,bgrujsotqq,"Deep vs Shallow",1,148,2020-07-08T15:30:31-07:00,2.167261838913,2,versionA_stim.csv,RLVersionB.csv,"Relational Version B","Relational, read only version B",MULE,DONKEY,Study2,F,108,140,Test,User,-,,Recall,Recall1,1732,donkey,100,1121,1525,1,1,,1
5ec5faacab872c67dfb0f505,bgrujsotqq,"Deep vs Shallow",1,149,2020-07-08T15:30:35-07:00,3.8031959533691,2,versionA_stim.csv,RLVersionB.csv,"Relational Version B","Relational, read only version B",BOTH,OUNCE,Study2,U,172,97,Test,User,-,,Recall,Recall1,3334,each,22.222222222222,2729,3142,0,0,,1
5ec5faacab872c67dfb0f505,bgrujsotqq,"Deep vs Shallow",1,150,2020-07-08T15:30:41-07:00,5.6020522117615,2,versionA_stim.csv,RLVersionB.csv,"Relational Version B","Relational, read only version B",MASON,JAR,Study2,S,138,114,Test,User,-,,Recall,Recall1,5151,jar,100,4325,4603,1,1,,1
5ec5faacab872c67dfb0f505,bgrujsotqq,"Deep vs Shallow",1,151,2020-07-08T15:30:57-07:00,16.213027000427,2,versionA_stim.csv,RLVersionB.csv,"Relational Version B","Relational, read only version B",LEASE,TOIL,Study2,U,170,120,Test,User,-,,Recall,Recall1,15737,,0,-1,-1,0,0,,1
5ec5faacab872c67dfb0f505,bgrujsotqq,"Deep vs Shallow",1,152,2020-07-08T15:31:02-07:00,5.2017879486084,2,versionA_stim.csv,RLVersionB.csv,"Relational Version B","Relational, read only version B",FEUD,FIGHT,Study2,F,113,151,Test,User,-,,Recall,Recall1,4740,fight,100,4275,4573,1,1,,1
5ec5faacab872c67dfb0f505,bgrujsotqq,"Deep vs Shallow",1,153,2020-07-08T15:31:07-07:00,5.2209498882294,2,versionA_stim.csv,RLVersionB.csv,"Relational Version B","Relational, read only version B",SAFETY,SEATBELT,Study2,S,147,168,Test,User,-,,Recall,Recall1,4773,seatbelt,100,3133,4656,1,1,,1
5ec5faacab872c67dfb0f505,bgrujsotqq,"Deep vs Shallow",1,154,2020-07-08T15:31:10-07:00,2.7977449893951,2,versionA_stim.csv,RLVersionB.csv,"Relational Version B","Relational, read only version B",SHOELACE,TIE,Study2,F,99,171,Test,User,-,,Recall,Recall1,2329,tie,100,2062,2242,1,1,,1
5ec5faacab872c67dfb0f505,bgrujsotqq,"Deep vs Shallow",1,155,2020-07-08T15:31:13-07:00,2.6588261127472,2,versionA_stim.csv,RLVersionB.csv,"Relational Version B","Relational, read only version B",OWN,HAVE,Study2,S,153,134,Test,User,-,,Recall,Recall1,2164,have,100,1816,2034,1,1,,1
5ec5faacab872c67dfb0f505,bgrujsotqq,"Deep vs Shallow",1,156,2020-07-08T15:31:17-07:00,4.3758959770203,2,versionA_stim.csv,RLVersionB.csv,"Relational Version B","Relational, read only version B",CAKE,CLOTHES,Study2,U,166,162,Test,User,-,,Recall,Recall1,3911,,0,-1,-1,0,0,,1
5ec5faacab872c67dfb0f505,bgrujsotqq,"Deep vs Shallow",1,157,2020-07-08T15:31:20-07:00,3.4543709754944,2,versionA_stim.csv,RLVersionB.csv,"Relational Version B","Relational, read only version B",ADJOURN,END,Study2,F,101,107,Test,User,-,,Recall,Recall1,3019,end,100,2760,2889,1,1,,1
5ec5faacab872c67dfb0f505,bgrujsotqq,"Deep vs Shallow",1,158,2020-07-08T15:31:24-07:00,3.4908680915833,2,versionA_stim.csv,RLVersionB.csv,"Relational Version B","Relational, read only version B",MAIN,SCAR,Study2,U,175,108,Test,User,-,,Recall,Recall1,3027,scar,100,2354,2807,1,1,,1
5ec5faacab872c67dfb0f505,bgrujsotqq,"Deep vs Shallow",1,159,2020-07-08T15:31:29-07:00,5.2852048873901,2,versionA_stim.csv,RLVersionB.csv,"Relational Version B","Relational, read only version B",BIRD,PENGUIN,Study2,B,119,176,Test,User,-,,Recall,Recall1,4864,,0,-1,-1,0,0,,1
5ec5faacab872c67dfb0f505,bgrujsotqq,"Deep vs Shallow",1,160,2020-07-08T15:31:34-07:00,4.5980350971222,2,versionA_stim.csv,RLVersionB.csv,"Relational Version B","Relational, read only version B",PLANE,AIRCRAFT,Study2,B,129,125,Test,User,-,,Recall,Recall1,4174,aircraft,100,3064,4038,1,1,,1
5ec5faacab872c67dfb0f505,bgrujsotqq,"Deep vs Shallow",1,161,2020-07-08T15:31:38-07:00,4.2047328948975,2,versionA_stim.csv,RLVersionB.csv,"Relational Version B","Relational, read only version B",MIRROR,CHILDREN,Study2,U,174,132,Test,User,-,,Recall,Recall1,3477,children,100,2682,3272,1,1,,1
5ec5faacab872c67dfb0f505,bgrujsotqq,"Deep vs Shallow",1,162,2020-07-08T15:31:41-07:00,2.564346075058,2,versionA_stim.csv,RLVersionB.csv,"Relational Version B","Relational, read only version B",DEAD,COFFIN,Study2,B,128,136,Test,User,-,,Recall,Recall1,2132,gone,40,1825,2008,0,0,,1
5ec5faacab872c67dfb0f505,bgrujsotqq,"Deep vs Shallow",1,163,2020-07-08T15:31:47-07:00,6.035856962204,2,versionA_stim.csv,RLVersionB.csv,"Relational Version B","Relational, read only version B",DOCUMENT,PAPER,Study2,F,109,111,Test,User,-,,Recall,Recall1,5580,paper,100,4830,5175,1,1,,1
5ec5faacab872c67dfb0f505,bgrujsotqq,"Deep vs Shallow",1,164,2020-07-08T15:31:50-07:00,3.1884620189667,2,versionA_stim.csv,RLVersionB.csv,"Relational Version B","Relational, read only version B",POP,BALLOON,Study2,B,123,124,Test,User,-,,Recall,Recall1,2724,,0,-1,-1,0,0,,1
5ec5faacab872c67dfb0f505,bgrujsotqq,"Deep vs Shallow",1,165,2020-07-08T15:31:53-07:00,3.4581038951874,2,versionA_stim.csv,RLVersionB.csv,"Relational Version B","Relational, read only version B",WRIST,BRACELET,Study2,S,140,161,Test,User,-,,Recall,Recall1,2993,bracelet,100,2076,2860,1,1,,1
5ec5faacab872c67dfb0f505,bgrujsotqq,"Deep vs Shallow",1,166,2020-07-08T15:31:58-07:00,4.2934811115265,2,versionA_stim.csv,RLVersionB.csv,"Relational Version B","Relational, read only version B",CHOP,CUT,Study2,F,107,98,Test,User,-,,Recall,Recall1,3655,cut,100,3320,3491,1,1,,1
5ec5faacab872c67dfb0f505,bgrujsotqq,"Deep vs Shallow",1,167,2020-07-08T15:32:01-07:00,3.8531830310822,2,versionA_stim.csv,RLVersionB.csv,"Relational Version B","Relational, read only version B",DRY,WET,Study2,S,146,144,Test,User,-,,Recall,Recall1,3409,,0,-1,-1,0,0,,1
5ec5faacab872c67dfb0f505,bgrujsotqq,"Deep vs Shallow",1,168,2020-07-08T15:32:04-07:00,2.633712053299,2,versionA_stim.csv,RLVersionB.csv,"Relational Version B","Relational, read only version B",DRIVER,CAR,Study2,F,106,143,Test,User,-,,Recall,Recall1,2180,car,100,1751,2050,1,1,,1
5ec5faacab872c67dfb0f505,bgrujsotqq,"Deep vs Shallow",1,169,2020-07-08T15:32:09-07:00,4.7662358283997,2,versionA_stim.csv,RLVersionB.csv,"Relational Version B","Relational, read only version B",HONEST,TRUTHFUL,Study2,B,133,174,Test,User,-,,Recall,Recall1,4316,truth,76.923076923077,1451,4118,0,1,,1
5ec5faacab872c67dfb0f505,bgrujsotqq,"Deep vs Shallow",1,170,2020-07-08T15:32:11-07:00,2.645092010498,2,versionA_stim.csv,RLVersionB.csv,"Relational Version B","Relational, read only version B",MOAT,CLEAR,Study2,U,169,126,Test,User,-,,Recall,Recall1,2182,,0,-1,-1,0,0,,1
5ec5faacab872c67dfb0f505,bgrujsotqq,"Deep vs Shallow",1,171,2020-07-08T15:32:14-07:00,2.3740630149841,2,versionA_stim.csv,RLVersionB.csv,"Relational Version B","Relational, read only version B",SCALP,HEAD,Study2,F,105,160,Test,User,-,,Recall,Recall1,1808,head,100,1332,1672,1,1,,1
5ec5faacab872c67dfb0f505,bgrujsotqq,"Deep vs Shallow",1,172,2020-07-08T15:32:21-07:00,7.2169120311737,2,versionA_stim.csv,RLVersionB.csv,"Relational Version B","Relational, read only version B",LISTEN,FICTION,Study2,U,164,152,Test,User,-,,Recall,Recall1,6687,,0,-1,-1,0,0,,1
5ec5faacab872c67dfb0f505,bgrujsotqq,"Deep vs Shallow",1,173,2020-07-08T15:32:26-07:00,5.1861469745636,2,versionA_stim.csv,RLVersionB.csv,"Relational Version B","Relational, read only version B",CHILL,COLD,Study2,F,114,159,Test,User,-,,Recall,Recall1,4728,cool,75,1468,4274,0,1,,1
5ec5faacab872c67dfb0f505,bgrujsotqq,"Deep vs Shallow",1,174,2020-07-08T15:32:29-07:00,3.0940361022949,2,versionA_stim.csv,RLVersionB.csv,"Relational Version B","Relational, read only version B",INCENSE,SMELL,Study2,F,110,155,Test,User,-,,Recall,Recall1,2650,smell,100,1937,2320,1,1,,1
5ec5faacab872c67dfb0f505,bgrujsotqq,"Deep vs Shallow",1,175,2020-07-08T15:32:33-07:00,3.166393995285,2,versionA_stim.csv,RLVersionB.csv,"Relational Version B","Relational, read only version B",CLUE,GAME,Study2,F,97,145,Test,User,-,,Recall,Recall1,2715,,0,-1,-1,0,0,,1
5ec5faacab872c67dfb0f505,bgrujsotqq,"Deep vs Shallow",1,176,2020-07-08T15:32:36-07:00,3.4515869617462,2,versionA_stim.csv,RLVersionB.csv,"Relational Version B","Relational, read only version B",KEYS,JOKE,Study2,U,165,109,Test,User,-,,Recall,Recall1,2998,joke,100,2033,2273,1,1,,1
5ec5faacab872c67dfb0f505,bgrujsotqq,"Deep vs Shallow",1,177,2020-07-08T15:32:42-07:00,6.3404359817505,2,versionA_stim.csv,RLVersionB.csv,"Relational Version B","Relational, read only version B",ROD,REEL,Study2,S,150,110,Test,User,-,,Recall,Recall1,5767,wheel,66.666666666667,4489,4909,0,0,,1
5ec5faacab872c67dfb0f505,bgrujsotqq,"Deep vs Shallow",1,178,2020-07-08T15:32:50-07:00,7.3973000049591,2,versionA_stim.csv,RLVersionB.csv,"Relational Version B","Relational, read only version B",CACTUS,PLANT,Study2,F,98,175,Test,User,-,,Recall,Recall1,6944,plant,100,6301,6722,1,1,,1
5ec5faacab872c67dfb0f505,bgrujsotqq,"Deep vs Shallow",1,179,2020-07-08T15:32:53-07:00,2.8305509090424,2,versionA_stim.csv,RLVersionB.csv,"Relational Version B","Relational, read only version B",FIGHT,BRAWL,Study2,B,135,130,Test,User,-,,Recall,Recall1,2357,feud,0,1905,2203,0,0,,1
5ec5faacab872c67dfb0f505,bgrujsotqq,"Deep vs Shallow",1,180,2020-07-08T15:32:59-07:00,6.5044720172882,2,versionA_stim.csv,RLVersionB.csv,"Relational Version B","Relational, read only version B",LOAN,SIGN,Study2,U,171,119,Test,User,-,,Recall,Recall1,6041,,0,-1,-1,0,0,,1
5ec5faacab872c67dfb0f505,bgrujsotqq,"Deep vs Shallow",1,181,2020-07-08T15:33:11-07:00,12.372135162354,2,versionA_stim.csv,RLVersionB.csv,"Relational Version B","Relational, read only version B",,,,,,0,Instruct,,10,"You will now be presented with a new set of word pairs. Please study each pair. Remember that your memory will be tested! When finished, press Enter to move to the next pair.",,Instruct10,11915,,,-1,-1,,,,1
5ec5faacab872c67dfb0f505,bgrujsotqq,"Deep vs Shallow",1,182,2020-07-08T15:33:46-07:00,34.953830003738,2,versionA_stim.csv,RLVersionB.csv,"Relational Version B","Relational, read only version B",,,,,,0,Instruct,-,15,"As you study, please think about how the two concepts are RELATED to each other. For example, if you see the pair TURTLE-CAT, think about how both are alive, they are both animals, and both can be kept as pets.",,Instruct20,34478,,,-1,-1,,,,1
5ec5faacab872c67dfb0f505,bgrujsotqq,"Deep vs Shallow",1,183,2020-07-08T15:33:58-07:00,11.390811920166,2,versionA_stim.csv,RLVersionB.csv,"Relational Version B","Relational, read only version B",,,,,,0,FreeRecall,-,10,"What you should think about as you study each item pair? Type your response in the box below.",,CHECK4,10759,"what the words have in common",0,3368,7142,0,0,,1
5ec5faacab872c67dfb0f505,bgrujsotqq,"Deep vs Shallow",1,184,2020-07-08T15:34:01-07:00,3.3531880378723,2,versionA_stim.csv,RLVersionB.csv,"Relational Version B","Relational, read only version B",,,,,,0,Instruct,User,-,"Press Enter when you are readty to begin",,Instruct11,2915,,,-1,-1,,,,1
5ec5faacab872c67dfb0f505,bgrujsotqq,"Deep vs Shallow",1,185,2020-07-08T15:34:10-07:00,8.5349359512329,2,versionA_stim.csv,RLVersionB.csv,"Relational Version B","Relational, read only version B",BASEBALL,CATCHER,BUFFER1,Buffer,2,3,Study,User,-,,Study/JOL,BUFFER3,8080,,,-1,-1,,,,1
5ec5faacab872c67dfb0f505,bgrujsotqq,"Deep vs Shallow",1,186,2020-07-08T15:35:21-07:00,71.658273935318,2,versionA_stim.csv,RLVersionB.csv,"Relational Version B","Relational, read only version B",SCARE,HIDE,BUFFER1,Buffer,4,2,Study,User,-,,Study/JOL,BUFFER3,71201,,,-1,-1,,,,1
5ec5faacab872c67dfb0f505,bgrujsotqq,"Deep vs Shallow",1,187,2020-07-08T15:35:35-07:00,13.71055316925,2,versionA_stim.csv,RLVersionB.csv,"Relational Version B","Relational, read only version B",SPACE,JAM,BUFFER1,Buffer,5,4,Study,User,-,,Study/JOL,BUFFER3,13078,,,-1,-1,,,,1
5ec5faacab872c67dfb0f505,bgrujsotqq,"Deep vs Shallow",1,188,2020-07-08T15:35:38-07:00,2.8839628696442,2,versionA_stim.csv,RLVersionB.csv,"Relational Version B","Relational, read only version B",PEANUT,BUTTER,BUFFER1,Buffer,3,6,Study,User,-,,Study/JOL,BUFFER3,2435,,,-1,-1,,,,1
5ec5faacab872c67dfb0f505,bgrujsotqq,"Deep vs Shallow",1,189,2020-07-08T15:35:43-07:00,5.3085629940033,2,versionA_stim.csv,RLVersionB.csv,"Relational Version B","Relational, read only version B",TREES,GREEN,BUFFER1,Buffer,1,5,Study,User,-,,Study/JOL,BUFFER3,4798,,,-1,-1,,,,1
5ec5faacab872c67dfb0f505,bgrujsotqq,"Deep vs Shallow",1,190,2020-07-08T15:35:51-07:00,8.0668370723724,2,versionA_stim.csv,RLVersionB.csv,"Relational Version B","Relational, read only version B",TRIAL,JURY,Study1,S,50,30,Study,User,-,,Study/JOL,"Study Phase2",7397,,,-1,-1,,,,1
5ec5faacab872c67dfb0f505,bgrujsotqq,"Deep vs Shallow",1,191,2020-07-08T15:35:58-07:00,6.5311529636383,2,versionA_stim.csv,RLVersionB.csv,"Relational Version B","Relational, read only version B",BLOW,WIND,Study1,S,55,40,Study,User,-,,Study/JOL,"Study Phase2",6053,,,-1,-1,,,,1
5ec5faacab872c67dfb0f505,bgrujsotqq,"Deep vs Shallow",1,192,2020-07-08T15:36:04-07:00,6.0217700004578,2,versionA_stim.csv,RLVersionB.csv,"Relational Version B","Relational, read only version B",TAKE,SEIZE,Study1,B,29,13,Study,User,-,,Study/JOL,"Study Phase2",5584,,,-1,-1,,,,1
5ec5faacab872c67dfb0f505,bgrujsotqq,"Deep vs Shallow",1,193,2020-07-08T15:36:14-07:00,10.183492898941,2,versionA_stim.csv,RLVersionB.csv,"Relational Version B","Relational, read only version B",DEBATE,SIGHT,Study1,U,73,55,Study,User,-,,Study/JOL,"Study Phase2",9663,,,-1,-1,,,,1
5ec5faacab872c67dfb0f505,bgrujsotqq,"Deep vs Shallow",1,194,2020-07-08T15:36:20-07:00,6.437019109726,2,versionA_stim.csv,RLVersionB.csv,"Relational Version B","Relational, read only version B",DUE,ASSIGNMENT,Study1,S,46,74,Study,User,-,,Study/JOL,"Study Phase2",5999,,,-1,-1,,,,1
5ec5faacab872c67dfb0f505,bgrujsotqq,"Deep vs Shallow",1,195,2020-07-08T15:36:28-07:00,7.632866859436,2,versionA_stim.csv,RLVersionB.csv,"Relational Version B","Relational, read only version B",CLOTHES,ATTIRE,Study1,B,43,31,Study,User,-,,Study/JOL,"Study Phase2",7133,,,-1,-1,,,,1
5ec5faacab872c67dfb0f505,bgrujsotqq,"Deep vs Shallow",1,196,2020-07-08T15:36:36-07:00,8.3350121974945,2,versionA_stim.csv,RLVersionB.csv,"Relational Version B","Relational, read only version B",DIGESTION,STOMACH,Study1,F,7,48,Study,User,-,,Study/JOL,"Study Phase2",7890,,,-1,-1,,,,1
5ec5faacab872c67dfb0f505,bgrujsotqq,"Deep vs Shallow",1,197,2020-07-08T15:36:40-07:00,3.7360928058624,2,versionA_stim.csv,RLVersionB.csv,"Relational Version B","Relational, read only version B",POP,SODA,Study1,S,56,41,Study,User,-,,Study/JOL,"Study Phase2",3006,,,-1,-1,,,,1
5ec5faacab872c67dfb0f505,bgrujsotqq,"Deep vs Shallow",1,198,2020-07-08T15:36:50-07:00,9.9890201091766,2,versionA_stim.csv,RLVersionB.csv,"Relational Version B","Relational, read only version B",EDITOR,NEWS,Study1,F,10,53,Study,User,-,,Study/JOL,"Study Phase2",9500,,,-1,-1,,,,1
5ec5faacab872c67dfb0f505,bgrujsotqq,"Deep vs Shallow",1,199,2020-07-08T15:36:55-07:00,4.8949999809265,2,versionA_stim.csv,RLVersionB.csv,"Relational Version B","Relational, read only version B",BALL,RACKET,Study1,B,38,50,Study,User,-,,Study/JOL,"Study Phase2",4427,,,-1,-1,,,,1
5ec5faacab872c67dfb0f505,bgrujsotqq,"Deep vs Shallow",1,200,2020-07-08T15:37:04-07:00,8.9032299518585,2,versionA_stim.csv,RLVersionB.csv,"Relational Version B","Relational, read only version B",KIDNEY,LIVER,Study1,S,53,32,Study,User,-,,Study/JOL,"Study Phase2",8484,,,-1,-1,,,,1
5ec5faacab872c67dfb0f505,bgrujsotqq,"Deep vs Shallow",1,201,2020-07-08T15:37:15-07:00,11.412685155869,2,versionA_stim.csv,RLVersionB.csv,"Relational Version B","Relational, read only version B",WORK,CHORE,Study1,B,39,71,Study,User,-,,Study/JOL,"Study Phase2",10947,,,-1,-1,,,,1
5ec5faacab872c67dfb0f505,bgrujsotqq,"Deep vs Shallow",1,202,2020-07-08T15:37:21-07:00,6.1033418178558,2,versionA_stim.csv,RLVersionB.csv,"Relational Version B","Relational, read only version B",WAGE,MONEY,Study1,F,8,68,Study,User,-,,Study/JOL,"Study Phase2",5615,,,-1,-1,,,,1
5ec5faacab872c67dfb0f505,bgrujsotqq,"Deep vs Shallow",1,203,2020-07-08T15:37:25-07:00,3.1586980819702,2,versionA_stim.csv,RLVersionB.csv,"Relational Version B","Relational, read only version B",DUMP,WASTE,Study1,S,49,28,Study,User,-,,Study/JOL,"Study Phase2",2707,,,-1,-1,,,,1
5ec5faacab872c67dfb0f505,bgrujsotqq,"Deep vs Shallow",1,204,2020-07-08T15:37:38-07:00,13.123996019363,2,versionA_stim.csv,RLVersionB.csv,"Relational Version B","Relational, read only version B",SOON,BELT,Study1,U,70,37,Study,User,-,,Study/JOL,"Study Phase2",12664,,,-1,-1,,,,1
5ec5faacab872c67dfb0f505,bgrujsotqq,"Deep vs Shallow",1,205,2020-07-08T15:37:45-07:00,7.6291980743408,2,versionA_stim.csv,RLVersionB.csv,"Relational Version B","Relational, read only version B",PLANE,PILOT,Study1,B,44,8,Study,User,-,,Study/JOL,"Study Phase2",7175,,,-1,-1,,,,1
5ec5faacab872c67dfb0f505,bgrujsotqq,"Deep vs Shallow",1,206,2020-07-08T15:37:50-07:00,4.2479560375214,2,versionA_stim.csv,RLVersionB.csv,"Relational Version B","Relational, read only version B",HEIGHT,GROWTH,Study1,B,30,45,Study,User,-,,Study/JOL,"Study Phase2",3804,,,-1,-1,,,,1
5ec5faacab872c67dfb0f505,bgrujsotqq,"Deep vs Shallow",1,207,2020-07-08T15:38:19-07:00,29.239972829819,2,versionA_stim.csv,RLVersionB.csv,"Relational Version B","Relational, read only version B",GREAT,FANTASTIC,Study1,B,35,85,Study,User,-,,Study/JOL,"Study Phase2",28760,,,-1,-1,,,,1
5ec5faacab872c67dfb0f505,bgrujsotqq,"Deep vs Shallow",1,208,2020-07-08T15:38:26-07:00,6.8550209999084,2,versionA_stim.csv,RLVersionB.csv,"Relational Version B","Relational, read only version B",GEOLOGY,ROCK,Study1,F,19,27,Study,User,-,,Study/JOL,"Study Phase2",6314,,,-1,-1,,,,1
5ec5faacab872c67dfb0f505,bgrujsotqq,"Deep vs Shallow",1,209,2020-07-08T15:38:34-07:00,7.8511271476746,2,versionA_stim.csv,RLVersionB.csv,"Relational Version B","Relational, read only version B",SENTENCE,WORD,Study1,B,31,70,Study,User,-,,Study/JOL,"Study Phase2",7040,,,-1,-1,,,,1
5ec5faacab872c67dfb0f505,bgrujsotqq,"Deep vs Shallow",1,210,2020-07-08T15:38:40-07:00,6.7940788269043,2,versionA_stim.csv,RLVersionB.csv,"Relational Version B","Relational, read only version B",WINE,CHEESE,Study1,S,57,72,Study,User,-,,Study/JOL,"Study Phase2",6202,,,-1,-1,,,,1
5ec5faacab872c67dfb0f505,bgrujsotqq,"Deep vs Shallow",1,211,2020-07-08T15:38:50-07:00,9.726310968399,2,versionA_stim.csv,RLVersionB.csv,"Relational Version B","Relational, read only version B",DELINQUENT,BAD,Study1,F,6,21,Study,User,-,,Study/JOL,"Study Phase2",9263,,,-1,-1,,,,1
5ec5faacab872c67dfb0f505,bgrujsotqq,"Deep vs Shallow",1,212,2020-07-08T15:39:32-07:00,42.042824029922,2,versionA_stim.csv,RLVersionB.csv,"Relational Version B","Relational, read only version B",STRONG,ACCIDENT,Study1,U,80,14,Study,User,-,,Study/JOL,"Study Phase2",41573,,,-1,-1,,,,1
5ec5faacab872c67dfb0f505,bgrujsotqq,"Deep vs Shallow",1,213,2020-07-08T15:39:37-07:00,4.5790700912476,2,versionA_stim.csv,RLVersionB.csv,"Relational Version B","Relational, read only version B",FIRE,BLAZE,Study1,B,45,58,Study,User,-,,Study/JOL,"Study Phase2",4061,,,-1,-1,,,,1
5ec5faacab872c67dfb0f505,bgrujsotqq,"Deep vs Shallow",1,214,2020-07-08T15:39:39-07:00,2.5697419643402,2,versionA_stim.csv,RLVersionB.csv,"Relational Version B","Relational, read only version B",TUNA,FISH,Study1,F,25,79,Study,User,-,,Study/JOL,"Study Phase2",2108,,,-1,-1,,,,1
5ec5faacab872c67dfb0f505,bgrujsotqq,"Deep vs Shallow",1,215,2020-07-08T15:40:10-07:00,31.155267953873,2,versionA_stim.csv,RLVersionB.csv,"Relational Version B","Relational, read only version B",CHISEL,HAMMER,Study1,F,9,16,Study,User,-,,Study/JOL,"Study Phase2",30697,,,-1,-1,,,,1
5ec5faacab872c67dfb0f505,bgrujsotqq,"Deep vs Shallow",1,216,2020-07-08T15:40:36-07:00,25.580127000809,2,versionA_stim.csv,RLVersionB.csv,"Relational Version B","Relational, read only version B",GRILL,BAR,Study1,S,52,81,Study,User,-,,Study/JOL,"Study Phase2",25122,,,-1,-1,,,,1
5ec5faacab872c67dfb0f505,bgrujsotqq,"Deep vs Shallow",1,217,2020-07-08T15:40:43-07:00,7.1750960350037,2,versionA_stim.csv,RLVersionB.csv,"Relational Version B","Relational, read only version B",LOCATION,SITE,Study1,S,48,25,Study,User,-,,Study/JOL,"Study Phase2",6697,,,-1,-1,,,,1
5ec5faacab872c67dfb0f505,bgrujsotqq,"Deep vs Shallow",1,218,2020-07-08T15:40:56-07:00,13.068350076675,2,versionA_stim.csv,RLVersionB.csv,"Relational Version B","Relational, read only version B",MATH,DIVISION,Study1,B,33,67,Study,User,-,,Study/JOL,"Study Phase2",12072,,,-1,-1,,,,1
5ec5faacab872c67dfb0f505,bgrujsotqq,"Deep vs Shallow",1,219,2020-07-08T15:41:00-07:00,3.4647629261017,2,versionA_stim.csv,RLVersionB.csv,"Relational Version B","Relational, read only version B",HUNGER,FAMINE,Study1,B,40,24,Study,User,-,,Study/JOL,"Study Phase2",2904,,,-1,-1,,,,1
5ec5faacab872c67dfb0f505,bgrujsotqq,"Deep vs Shallow",1,220,2020-07-08T15:41:05-07:00,4.8590800762177,2,versionA_stim.csv,RLVersionB.csv,"Relational Version B","Relational, read only version B",NUMBER,AMOUNT,Study1,S,47,76,Study,User,-,,Study/JOL,"Study Phase2",4431,,,-1,-1,,,,1
5ec5faacab872c67dfb0f505,bgrujsotqq,"Deep vs Shallow",1,221,2020-07-08T15:41:08-07:00,3.7506258487701,2,versionA_stim.csv,RLVersionB.csv,"Relational Version B","Relational, read only version B",REVOLUTION,WAR,Study1,F,20,12,Study,User,-,,Study/JOL,"Study Phase2",3232,,,-1,-1,,,,1
5ec5faacab872c67dfb0f505,bgrujsotqq,"Deep vs Shallow",1,222,2020-07-08T15:41:30-07:00,21.96359705925,2,versionA_stim.csv,RLVersionB.csv,"Relational Version B","Relational, read only version B",FULL,ENOUGH,Study1,B,26,35,Study,User,-,,Study/JOL,"Study Phase2",21379,,,-1,-1,,,,1
5ec5faacab872c67dfb0f505,bgrujsotqq,"Deep vs Shallow",1,223,2020-07-08T15:41:41-07:00,10.290194988251,2,versionA_stim.csv,RLVersionB.csv,"Relational Version B","Relational, read only version B",HAPPY,CAR,Study1,U,77,34,Study,User,-,,Study/JOL,"Study Phase2",9816,,,-1,-1,,,,1
5ec5faacab872c67dfb0f505,bgrujsotqq,"Deep vs Shallow",1,224,2020-07-08T15:41:45-07:00,4.6663970947266,2,versionA_stim.csv,RLVersionB.csv,"Relational Version B","Relational, read only version B",,,,,,0,Instruct,-,3,"Remember to focus on how the two items are similiar while you study!",,CHECK5,3809,,,-1,-1,,,,1
5ec5faacab872c67dfb0f505,bgrujsotqq,"Deep vs Shallow",1,225,2020-07-08T15:41:54-07:00,8.7061529159546,2,versionA_stim.csv,RLVersionB.csv,"Relational Version B","Relational, read only version B",DISCUSSION,TALK,Study1,F,21,63,Study,User,-,,Study/JOL,"Study Phase2",7957,,,-1,-1,,,,1
5ec5faacab872c67dfb0f505,bgrujsotqq,"Deep vs Shallow",1,226,2020-07-08T15:42:05-07:00,11.411720991135,2,versionA_stim.csv,RLVersionB.csv,"Relational Version B","Relational, read only version B",ARCHITECTURE,DESIGN,Study1,S,51,38,Study,User,-,,Study/JOL,"Study Phase2",10939,,,-1,-1,,,,1
5ec5faacab872c67dfb0f505,bgrujsotqq,"Deep vs Shallow",1,227,2020-07-08T15:42:19-07:00,13.296553134918,2,versionA_stim.csv,RLVersionB.csv,"Relational Version B","Relational, read only version B",DIETARY,SACKING,Study1,U,67,15,Study,User,-,,Study/JOL,"Study Phase2",12806,,,-1,-1,,,,1
5ec5faacab872c67dfb0f505,bgrujsotqq,"Deep vs Shallow",1,228,2020-07-08T15:42:31-07:00,12.812029838562,2,versionA_stim.csv,RLVersionB.csv,"Relational Version B","Relational, read only version B",CASH,WOULD,Study1,U,83,47,Study,User,-,,Study/JOL,"Study Phase2",12337,,,-1,-1,,,,1
5ec5faacab872c67dfb0f505,bgrujsotqq,"Deep vs Shallow",1,229,2020-07-08T15:42:41-07:00,9.3740789890289,2,versionA_stim.csv,RLVersionB.csv,"Relational Version B","Relational, read only version B",KING,VASE,Study1,U,85,33,Study,User,-,,Study/JOL,"Study Phase2",8859,,,-1,-1,,,,1
5ec5faacab872c67dfb0f505,bgrujsotqq,"Deep vs Shallow",1,230,2020-07-08T15:43:18-07:00,37.264567136765,2,versionA_stim.csv,RLVersionB.csv,"Relational Version B","Relational, read only version B",PARK,HUNGRY,Study1,U,68,51,Study,User,-,,Study/JOL,"Study Phase2",36779,,,-1,-1,,,,0.832
5ec5faacab872c67dfb0f505,bgrujsotqq,"Deep vs Shallow",1,231,2020-07-08T15:43:31-07:00,13.373996973038,2,versionA_stim.csv,RLVersionB.csv,"Relational Version B","Relational, read only version B",BUG,WASP,Study1,B,32,52,Study,User,-,,Study/JOL,"Study Phase2",12906,,,-1,-1,,,,1
5ec5faacab872c67dfb0f505,bgrujsotqq,"Deep vs Shallow",1,232,2020-07-08T15:43:44-07:00,12.862401008606,2,versionA_stim.csv,RLVersionB.csv,"Relational Version B","Relational, read only version B",SUGAR,RIDDLE,Study1,U,81,22,Study,User,-,,Study/JOL,"Study Phase2",12307,,,-1,-1,,,,1
5ec5faacab872c67dfb0f505,bgrujsotqq,"Deep vs Shallow",1,233,2020-07-08T15:44:51-07:00,66.442179918289,2,versionA_stim.csv,RLVersionB.csv,"Relational Version B","Relational, read only version B",PUSHER,CLUTTER,Study1,U,66,11,Study,User,-,,Study/JOL,"Study Phase2",65886,,,-1,-1,,,,1
5ec5faacab872c67dfb0f505,bgrujsotqq,"Deep vs Shallow",1,234,2020-07-08T15:44:58-07:00,7.3269431591034,2,versionA_stim.csv,RLVersionB.csv,"Relational Version B","Relational, read only version B",WAY,OUT,Study1,F,16,73,Study,User,-,,Study/JOL,"Study Phase2",6859,,,-1,-1,,,,1
5ec5faacab872c67dfb0f505,bgrujsotqq,"Deep vs Shallow",1,235,2020-07-08T15:45:03-07:00,4.535984992981,2,versionA_stim.csv,RLVersionB.csv,"Relational Version B","Relational, read only version B",BITTER,COLD,Study1,F,12,39,Study,User,-,,Study/JOL,"Study Phase2",4037,,,-1,-1,,,,1
5ec5faacab872c67dfb0f505,bgrujsotqq,"Deep vs Shallow",1,236,2020-07-08T15:45:13-07:00,10.743279933929,2,versionA_stim.csv,RLVersionB.csv,"Relational Version B","Relational, read only version B",HONEY,BEE,Study1,S,63,59,Study,User,-,,Study/JOL,"Study Phase2",10064,,,-1,-1,,,,1
5ec5faacab872c67dfb0f505,bgrujsotqq,"Deep vs Shallow",1,237,2020-07-08T15:45:18-07:00,4.1919920444489,2,versionA_stim.csv,RLVersionB.csv,"Relational Version B","Relational, read only version B",DRINK,SIP,Study1,B,27,10,Study,User,-,,Study/JOL,"Study Phase2",3472,,,-1,-1,,,,1
5ec5faacab872c67dfb0f505,bgrujsotqq,"Deep vs Shallow",1,238,2020-07-08T15:45:22-07:00,3.9843838214874,2,versionA_stim.csv,RLVersionB.csv,"Relational Version B","Relational, read only version B",DISCOVER,FLOOR,Study1,U,71,84,Study,User,-,,Study/JOL,"Study Phase2",3567,,,-1,-1,,,,1
5ec5faacab872c67dfb0f505,bgrujsotqq,"Deep vs Shallow",1,239,2020-07-08T15:45:29-07:00,7.4927921295166,2,versionA_stim.csv,RLVersionB.csv,"Relational Version B","Relational, read only version B",HERD,COW,Study1,F,22,78,Study,User,-,,Study/JOL,"Study Phase2",7048,,,-1,-1,,,,1
5ec5faacab872c67dfb0f505,bgrujsotqq,"Deep vs Shallow",1,240,2020-07-08T15:45:34-07:00,5.0008029937744,2,versionA_stim.csv,RLVersionB.csv,"Relational Version B","Relational, read only version B",HYGIENE,CLEAN,Study1,F,17,26,Study,User,-,,Study/JOL,"Study Phase2",4553,,,-1,-1,,,,1
5ec5faacab872c67dfb0f505,bgrujsotqq,"Deep vs Shallow",1,241,2020-07-08T15:45:40-07:00,6.0554280281067,2,versionA_stim.csv,RLVersionB.csv,"Relational Version B","Relational, read only version B",PAW,DOG,Study1,F,15,65,Study,User,-,,Study/JOL,"Study Phase2",5484,,,-1,-1,,,,1
5ec5faacab872c67dfb0f505,bgrujsotqq,"Deep vs Shallow",1,242,2020-07-08T15:45:50-07:00,9.8740358352661,2,versionA_stim.csv,RLVersionB.csv,"Relational Version B","Relational, read only version B",ART,LION,Study1,U,79,42,Study,User,-,,Study/JOL,"Study Phase2",9424,,,-1,-1,,,,1
5ec5faacab872c67dfb0f505,bgrujsotqq,"Deep vs Shallow",1,243,2020-07-08T15:45:55-07:00,5.4696102142334,2,versionA_stim.csv,RLVersionB.csv,"Relational Version B","Relational, read only version B",FIX,HAND,Study1,U,75,23,Study,User,-,,Study/JOL,"Study Phase2",5024,,,-1,-1,,,,1
5ec5faacab872c67dfb0f505,bgrujsotqq,"Deep vs Shallow",1,244,2020-07-08T15:46:02-07:00,6.4318017959595,2,versionA_stim.csv,RLVersionB.csv,"Relational Version B","Relational, read only version B",DARK,CAVE,Study1,B,28,77,Study,User,-,,Study/JOL,"Study Phase2",5722,,,-1,-1,,,,1
5ec5faacab872c67dfb0f505,bgrujsotqq,"Deep vs Shallow",1,245,2020-07-08T15:46:19-07:00,17.545075178146,2,versionA_stim.csv,RLVersionB.csv,"Relational Version B","Relational, read only version B",DEATH,BUSINESS,Study1,U,72,46,Study,User,-,,Study/JOL,"Study Phase2",17058,,,-1,-1,,,,1
5ec5faacab872c67dfb0f505,bgrujsotqq,"Deep vs Shallow",1,246,2020-07-08T15:46:24-07:00,4.1344659328461,2,versionA_stim.csv,RLVersionB.csv,"Relational Version B","Relational, read only version B",BATHROOM,TOILET,Study1,S,58,43,Study,User,-,,Study/JOL,"Study Phase2",3600,,,-1,-1,,,,1
5ec5faacab872c67dfb0f505,bgrujsotqq,"Deep vs Shallow",1,247,2020-07-08T15:47:10-07:00,46.32315993309,2,versionA_stim.csv,RLVersionB.csv,"Relational Version B","Relational, read only version B",CIRCLE,ROUND,Study1,S,65,19,Study,User,-,,Study/JOL,"Study Phase2",45734,,,-1,-1,,,,1
5ec5faacab872c67dfb0f505,bgrujsotqq,"Deep vs Shallow",1,248,2020-07-08T15:47:48-07:00,38.158923149109,2,versionA_stim.csv,RLVersionB.csv,"Relational Version B","Relational, read only version B",SMELL,STENCH,Study1,B,42,61,Study,User,-,,Study/JOL,"Study Phase2",37405,,,-1,-1,,,,1
5ec5faacab872c67dfb0f505,bgrujsotqq,"Deep vs Shallow",1,249,2020-07-08T15:47:53-07:00,4.6364889144897,2,versionA_stim.csv,RLVersionB.csv,"Relational Version B","Relational, read only version B",ORCHID,FLOWER,Study1,F,24,82,Study,User,-,,Study/JOL,"Study Phase2",4044,,,-1,-1,,,,1
5ec5faacab872c67dfb0f505,bgrujsotqq,"Deep vs Shallow",1,250,2020-07-08T15:47:58-07:00,4.8603041172028,2,versionA_stim.csv,RLVersionB.csv,"Relational Version B","Relational, read only version B",SHOE,FOOT,Study1,S,60,66,Study,User,-,,Study/JOL,"Study Phase2",4373,,,-1,-1,,,,1
5ec5faacab872c67dfb0f505,bgrujsotqq,"Deep vs Shallow",1,251,2020-07-08T15:48:05-07:00,7.3428747653961,2,versionA_stim.csv,RLVersionB.csv,"Relational Version B","Relational, read only version B",HORNET,STING,Study1,F,11,86,Study,User,-,,Study/JOL,"Study Phase2",6880,,,-1,-1,,,,1
5ec5faacab872c67dfb0f505,bgrujsotqq,"Deep vs Shallow",1,252,2020-07-08T15:48:09-07:00,4.4544651508331,2,versionA_stim.csv,RLVersionB.csv,"Relational Version B","Relational, read only version B",HOT,CHILI,Study1,B,37,64,Study,User,-,,Study/JOL,"Study Phase2",4021,,,-1,-1,,,,1
5ec5faacab872c67dfb0f505,bgrujsotqq,"Deep vs Shallow",1,253,2020-07-08T15:48:14-07:00,4.900358915329,2,versionA_stim.csv,RLVersionB.csv,"Relational Version B","Relational, read only version B",BRIDGE,WATER,Study1,F,18,56,Study,User,-,,Study/JOL,"Study Phase2",4441,,,-1,-1,,,,1
5ec5faacab872c67dfb0f505,bgrujsotqq,"Deep vs Shallow",1,254,2020-07-08T15:48:21-07:00,7.0267169475555,2,versionA_stim.csv,RLVersionB.csv,"Relational Version B","Relational, read only version B",SLEEP,DROWSY,Study1,B,41,75,Study,User,-,,Study/JOL,"Study Phase2",6538,,,-1,-1,,,,1
5ec5faacab872c67dfb0f505,bgrujsotqq,"Deep vs Shallow",1,255,2020-07-08T15:48:26-07:00,4.2540490627289,2,versionA_stim.csv,RLVersionB.csv,"Relational Version B","Relational, read only version B",CREDIT,CARD,Study1,F,23,44,Study,User,-,,Study/JOL,"Study Phase2",3699,,,-1,-1,,,,1
5ec5faacab872c67dfb0f505,bgrujsotqq,"Deep vs Shallow",1,256,2020-07-08T15:48:40-07:00,14.304733037949,2,versionA_stim.csv,RLVersionB.csv,"Relational Version B","Relational, read only version B",ARTERY,BRONZE,Study1,U,74,69,Study,User,-,,Study/JOL,"Study Phase2",13711,,,-1,-1,,,,1
5ec5faacab872c67dfb0f505,bgrujsotqq,"Deep vs Shallow",1,257,2020-07-08T15:49:01-07:00,21.096098899841,2,versionA_stim.csv,RLVersionB.csv,"Relational Version B","Relational, read only version B",HIDE,SICK,Study1,U,84,18,Study,User,-,,Study/JOL,"Study Phase2",20583,,,-1,-1,,,,1
5ec5faacab872c67dfb0f505,bgrujsotqq,"Deep vs Shallow",1,258,2020-07-08T15:49:12-07:00,11.496581077576,2,versionA_stim.csv,RLVersionB.csv,"Relational Version B","Relational, read only version B",ALLOW,TUCK,Study1,U,78,36,Study,User,-,,Study/JOL,"Study Phase2",11008,,,-1,-1,,,,1
5ec5faacab872c67dfb0f505,bgrujsotqq,"Deep vs Shallow",1,259,2020-07-08T15:49:16-07:00,3.7908809185028,2,versionA_stim.csv,RLVersionB.csv,"Relational Version B","Relational, read only version B",LETTUCE,SALAD,Study1,S,59,7,Study,User,-,,Study/JOL,"Study Phase2",3287,,,-1,-1,,,,1
5ec5faacab872c67dfb0f505,bgrujsotqq,"Deep vs Shallow",1,260,2020-07-08T15:49:19-07:00,3.0974771976471,2,versionA_stim.csv,RLVersionB.csv,"Relational Version B","Relational, read only version B",BABY,CHILD,Study1,S,64,29,Study,User,-,,Study/JOL,"Study Phase2",2450,,,-1,-1,,,,1
5ec5faacab872c67dfb0f505,bgrujsotqq,"Deep vs Shallow",1,261,2020-07-08T15:49:23-07:00,3.4548819065094,2,versionA_stim.csv,RLVersionB.csv,"Relational Version B","Relational, read only version B",SWAN,BIRD,Study1,F,14,57,Study,User,-,,Study/JOL,"Study Phase2",2915,,,-1,-1,,,,1
5ec5faacab872c67dfb0f505,bgrujsotqq,"Deep vs Shallow",1,262,2020-07-08T15:49:27-07:00,3.7772879600525,2,versionA_stim.csv,RLVersionB.csv,"Relational Version B","Relational, read only version B",MEANING,DEFINITION,Study1,S,62,83,Study,User,-,,Study/JOL,"Study Phase2",3338,,,-1,-1,,,,1
5ec5faacab872c67dfb0f505,bgrujsotqq,"Deep vs Shallow",1,263,2020-07-08T15:49:37-07:00,10.626374006271,2,versionA_stim.csv,RLVersionB.csv,"Relational Version B","Relational, read only version B",LIFT,WOMAN,Study1,U,69,54,Study,User,-,,Study/JOL,"Study Phase2",10161,,,-1,-1,,,,0.745
5ec5faacab872c67dfb0f505,bgrujsotqq,"Deep vs Shallow",1,264,2020-07-08T15:49:41-07:00,3.7245380878448,2,versionA_stim.csv,RLVersionB.csv,"Relational Version B","Relational, read only version B",ROOT,PLANT,Study1,F,13,62,Study,User,-,,Study/JOL,"Study Phase2",3268,,,-1,-1,,,,1
5ec5faacab872c67dfb0f505,bgrujsotqq,"Deep vs Shallow",1,265,2020-07-08T15:49:44-07:00,2.6590628623962,2,versionA_stim.csv,RLVersionB.csv,"Relational Version B","Relational, read only version B",KEY,LATCH,Study1,B,36,20,Study,User,-,,Study/JOL,"Study Phase2",2176,,,-1,-1,,,,1
5ec5faacab872c67dfb0f505,bgrujsotqq,"Deep vs Shallow",1,266,2020-07-08T15:49:55-07:00,11.796808004379,2,versionA_stim.csv,RLVersionB.csv,"Relational Version B","Relational, read only version B",LAW,ATTORNEY,Study1,B,34,80,Study,User,-,,Study/JOL,"Study Phase2",11223,,,-1,-1,,,,1
5ec5faacab872c67dfb0f505,bgrujsotqq,"Deep vs Shallow",1,267,2020-07-08T15:50:01-07:00,5.3641459941864,2,versionA_stim.csv,RLVersionB.csv,"Relational Version B","Relational, read only version B",VALLEY,ADD,Study1,U,82,17,Study,User,-,,Study/JOL,"Study Phase2",4860,,,-1,-1,,,,1
5ec5faacab872c67dfb0f505,bgrujsotqq,"Deep vs Shallow",1,268,2020-07-08T15:50:10-07:00,9.0832681655884,2,versionA_stim.csv,RLVersionB.csv,"Relational Version B","Relational, read only version B",MACHINE,POSITION,Study1,U,76,60,Study,User,-,,Study/JOL,"Study Phase2",8605,,,-1,-1,,,,1
5ec5faacab872c67dfb0f505,bgrujsotqq,"Deep vs Shallow",1,269,2020-07-08T15:50:12-07:00,2.609766960144,2,versionA_stim.csv,RLVersionB.csv,"Relational Version B","Relational, read only version B",PAST,FUTURE,Study1,S,61,9,Study,User,-,,Study/JOL,"Study Phase2",2153,,,-1,-1,,,,1
5ec5faacab872c67dfb0f505,bgrujsotqq,"Deep vs Shallow",1,270,2020-07-08T15:50:17-07:00,4.6413750648499,2,versionA_stim.csv,RLVersionB.csv,"Relational Version B","Relational, read only version B",BEGIN,END,Study1,S,54,49,Study,User,-,,Study/JOL,"Study Phase2",4176,,,-1,-1,,,,1
5ec5faacab872c67dfb0f505,bgrujsotqq,"Deep vs Shallow",1,271,2020-07-08T15:50:22-07:00,5.0208280086517,2,versionA_stim.csv,RLVersionB.csv,"Relational Version B","Relational, read only version B",THING,STUFF,BUFFER2,Buffer,90,91,Study,User,-,,Study/JOL,BUFFER4,4568,,,-1,-1,,,,1
5ec5faacab872c67dfb0f505,bgrujsotqq,"Deep vs Shallow",1,272,2020-07-08T15:50:29-07:00,6.6893019676208,2,versionA_stim.csv,RLVersionB.csv,"Relational Version B","Relational, read only version B",SHERRIF,POLICE,BUFFER2,Buffer,87,88,Study,User,-,,Study/JOL,BUFFER4,6232,,,-1,-1,,,,1
5ec5faacab872c67dfb0f505,bgrujsotqq,"Deep vs Shallow",1,273,2020-07-08T15:50:32-07:00,3.1631808280945,2,versionA_stim.csv,RLVersionB.csv,"Relational Version B","Relational, read only version B",GEESE,GOOSE,BUFFER2,Buffer,86,89,Study,User,-,,Study/JOL,BUFFER4,2712,,,-1,-1,,,,1
5ec5faacab872c67dfb0f505,bgrujsotqq,"Deep vs Shallow",1,274,2020-07-08T15:50:35-07:00,3.4051170349121,2,versionA_stim.csv,RLVersionB.csv,"Relational Version B","Relational, read only version B",MALT,CHOCOLATE,BUFFER2,Buffer,88,87,Study,User,-,,Study/JOL,BUFFER4,2957,,,-1,-1,,,,1
5ec5faacab872c67dfb0f505,bgrujsotqq,"Deep vs Shallow",1,275,2020-07-08T15:50:40-07:00,4.509309053421,2,versionA_stim.csv,RLVersionB.csv,"Relational Version B","Relational, read only version B",MOON,SPACE,BUFFER2,Buffer,89,90,Study,User,-,,Study/JOL,BUFFER4,4034,,,-1,-1,,,,1
5ec5faacab872c67dfb0f505,bgrujsotqq,"Deep vs Shallow",1,276,2020-07-08T15:50:42-07:00,2.18922996521,2,versionA_stim.csv,RLVersionB.csv,"Relational Version B","Relational, read only version B",,,,,,0,Instruct,User,-,"You have completed this section. Please press Enter.",Filler_Instruction,Instruct5,1724,,,-1,-1,,,,1
5ec5faacab872c67dfb0f505,bgrujsotqq,"Deep vs Shallow",1,277,2020-07-08T15:50:56-07:00,14.336048126221,2,versionA_stim.csv,RLVersionB.csv,"Relational Version B","Relational, read only version B",,,,,,0,FreeRecall,-,10,"What were you supposed to focus on while you studied each pair? (Hint: Think back to the instructions). Type your answer in the space below.",,CHECK3,13758,"what the words have in common",0,3975,12305,0,0,,1
5ec5faacab872c67dfb0f505,bgrujsotqq,"Deep vs Shallow",1,278,2020-07-08T15:50:59-07:00,2.2731850147247,2,versionA_stim.csv,RLVersionB.csv,"Relational Version B","Relational, read only version B",,,,,,0,Instruct,User,-,"You have completed this section. Please press Enter.",Filler_Instruction,Instruct5,1686,,,-1,-1,,,,1
5ec5faacab872c67dfb0f505,bgrujsotqq,"Deep vs Shallow",1,279,2020-07-08T15:52:59-07:00,120.49168682098,2,versionA_stim.csv,RLVersionB.csv,"Relational Version B","Relational, read only version B",,,,,,0,FreeRecall,120,120,"Please list the 50 US states in reverse alphabetical order (z - a). The task will automatically advance to the next screen after two minutes.",,Filler2,120002,"Wyoming Vermont Virginia Texas ",0,5621,99620,0,0,,0.993
5ec5faacab872c67dfb0f505,bgrujsotqq,"Deep vs Shallow",1,280,2020-07-08T15:53:11-07:00,12.193185091019,2,versionA_stim.csv,RLVersionB.csv,"Relational Version B","Relational, read only version B",,,,,,0,Instruct,-,10,"You will now be presented with the first word from each of the previously studied item pairs. Please type the missing word. If you do not know the word, you may guess or press Enter to skip forward to the next pair.",,Instruct6,11456,,,-1,-1,,,,1
5ec5faacab872c67dfb0f505,bgrujsotqq,"Deep vs Shallow",1,281,2020-07-08T15:53:16-07:00,4.3865630626678,2,versionA_stim.csv,RLVersionB.csv,"Relational Version B","Relational, read only version B",MACHINE,POSITION,Study1,U,76,60,Test,User,-,,Recall,Recall2,2894,position,100,2139,2659,1,1,,1
5ec5faacab872c67dfb0f505,bgrujsotqq,"Deep vs Shallow",1,282,2020-07-08T15:53:20-07:00,3.8309509754181,2,versionA_stim.csv,RLVersionB.csv,"Relational Version B","Relational, read only version B",MEANING,DEFINITION,Study1,S,62,83,Test,User,-,,Recall,Recall2,3290,,0,-1,-1,0,0,,1
5ec5faacab872c67dfb0f505,bgrujsotqq,"Deep vs Shallow",1,283,2020-07-08T15:53:23-07:00,3.2251780033112,2,versionA_stim.csv,RLVersionB.csv,"Relational Version B","Relational, read only version B",CREDIT,CARD,Study1,F,23,44,Test,User,-,,Recall,Recall2,1764,card,100,1117,1595,1,1,,1
5ec5faacab872c67dfb0f505,bgrujsotqq,"Deep vs Shallow",1,284,2020-07-08T15:53:26-07:00,3.2093138694763,2,versionA_stim.csv,RLVersionB.csv,"Relational Version B","Relational, read only version B",DARK,CAVE,Study1,B,28,77,Test,User,-,,Recall,Recall2,2713,cave,100,1611,2360,1,1,,1
5ec5faacab872c67dfb0f505,bgrujsotqq,"Deep vs Shallow",1,285,2020-07-08T15:53:31-07:00,4.8328740596771,2,versionA_stim.csv,RLVersionB.csv,"Relational Version B","Relational, read only version B",WORK,CHORE,Study1,B,39,71,Test,User,-,,Recall,Recall2,3237,chore,100,1587,3076,1,1,,1
5ec5faacab872c67dfb0f505,bgrujsotqq,"Deep vs Shallow",1,286,2020-07-08T15:53:33-07:00,2.4723420143127,2,versionA_stim.csv,RLVersionB.csv,"Relational Version B","Relational, read only version B",ART,LION,Study1,U,79,42,Test,User,-,,Recall,Recall2,2008,lion,100,1214,1584,1,1,,1
5ec5faacab872c67dfb0f505,bgrujsotqq,"Deep vs Shallow",1,287,2020-07-08T15:53:39-07:00,5.6164000034332,2,versionA_stim.csv,RLVersionB.csv,"Relational Version B","Relational, read only version B",HEIGHT,GROWTH,Study1,B,30,45,Test,User,-,,Recall,Recall2,4947,growth,100,1926,3507,1,1,,1
5ec5faacab872c67dfb0f505,bgrujsotqq,"Deep vs Shallow",1,288,2020-07-08T15:53:42-07:00,3.1162419319153,2,versionA_stim.csv,RLVersionB.csv,"Relational Version B","Relational, read only version B",VALLEY,ADD,Study1,U,82,17,Test,User,-,,Recall,Recall2,2658,,0,-1,-1,0,0,,1
5ec5faacab872c67dfb0f505,bgrujsotqq,"Deep vs Shallow",1,289,2020-07-08T15:53:49-07:00,7.0757260322571,2,versionA_stim.csv,RLVersionB.csv,"Relational Version B","Relational, read only version B",PARK,HUNGRY,Study1,U,68,51,Test,User,-,,Recall,Recall2,6585,,0,-1,-1,0,0,,1
5ec5faacab872c67dfb0f505,bgrujsotqq,"Deep vs Shallow",1,290,2020-07-08T15:53:56-07:00,6.9860911369324,2,versionA_stim.csv,RLVersionB.csv,"Relational Version B","Relational, read only version B",DRINK,SIP,Study1,B,27,10,Test,User,-,,Recall,Recall2,6571,,0,-1,-1,0,0,,1
5ec5faacab872c67dfb0f505,bgrujsotqq,"Deep vs Shallow",1,291,2020-07-08T15:54:01-07:00,4.6548638343811,2,versionA_stim.csv,RLVersionB.csv,"Relational Version B","Relational, read only version B",LAW,ATTORNEY,Study1,B,34,80,Test,User,-,,Recall,Recall2,4153,attourney,94.117647058824,3099,3862,0,1,,1
5ec5faacab872c67dfb0f505,bgrujsotqq,"Deep vs Shallow",1,292,2020-07-08T15:54:28-07:00,27.629481077194,2,versionA_stim.csv,RLVersionB.csv,"Relational Version B","Relational, read only version B",PAST,FUTURE,Study1,S,61,9,Test,User,-,,Recall,Recall2,4497,present,30.769230769231,2435,3392,0,0,,1
5ec5faacab872c67dfb0f505,bgrujsotqq,"Deep vs Shallow",1,293,2020-07-08T15:54:30-07:00,1.9276170730591,2,versionA_stim.csv,RLVersionB.csv,"Relational Version B","Relational, read only version B",BITTER,COLD,Study1,F,12,39,Test,User,-,,Recall,Recall2,1464,cold,100,1087,1310,1,1,,1
5ec5faacab872c67dfb0f505,bgrujsotqq,"Deep vs Shallow",1,294,2020-07-08T15:54:33-07:00,2.5244359970093,2,versionA_stim.csv,RLVersionB.csv,"Relational Version B","Relational, read only version B",HAPPY,CAR,Study1,U,77,34,Test,User,-,,Recall,Recall2,2073,car,100,1425,1905,1,1,,1
5ec5faacab872c67dfb0f505,bgrujsotqq,"Deep vs Shallow",1,295,2020-07-08T15:54:39-07:00,5.9009659290314,2,versionA_stim.csv,RLVersionB.csv,"Relational Version B","Relational, read only version B",TRIAL,JURY,Study1,S,50,30,Test,User,-,,Recall,Recall2,5446,,0,-1,-1,0,0,,1
5ec5faacab872c67dfb0f505,bgrujsotqq,"Deep vs Shallow",1,296,2020-07-08T15:54:41-07:00,2.2927958965302,2,versionA_stim.csv,RLVersionB.csv,"Relational Version B","Relational, read only version B",GRILL,BAR,Study1,S,52,81,Test,User,-,,Recall,Recall2,1838,bar,100,1433,1681,1,1,,1
5ec5faacab872c67dfb0f505,bgrujsotqq,"Deep vs Shallow",1,297,2020-07-08T15:54:43-07:00,2.2000081539154,2,versionA_stim.csv,RLVersionB.csv,"Relational Version B","Relational, read only version B",BLOW,WIND,Study1,S,55,40,Test,User,-,,Recall,Recall2,1741,wind,100,1159,1328,1,1,,1
5ec5faacab872c67dfb0f505,bgrujsotqq,"Deep vs Shallow",1,298,2020-07-08T15:54:56-07:00,13.242677927017,2,versionA_stim.csv,RLVersionB.csv,"Relational Version B","Relational, read only version B",DUE,ASSIGNMENT,Study1,S,46,74,Test,User,-,,Recall,Recall2,12776,assignment,100,10426,12636,1,1,,1
5ec5faacab872c67dfb0f505,bgrujsotqq,"Deep vs Shallow",1,299,2020-07-08T15:55:01-07:00,4.8416519165039,2,versionA_stim.csv,RLVersionB.csv,"Relational Version B","Relational, read only version B",HYGIENE,CLEAN,Study1,F,17,26,Test,User,-,,Recall,Recall2,4333,clean,100,2886,3347,1,1,,1
5ec5faacab872c67dfb0f505,bgrujsotqq,"Deep vs Shallow",1,300,2020-07-08T15:55:05-07:00,3.4413130283356,2,versionA_stim.csv,RLVersionB.csv,"Relational Version B","Relational, read only version B",WAY,OUT,Study1,F,16,73,Test,User,-,,Recall,Recall2,2848,out,100,1387,1533,1,1,,1
5ec5faacab872c67dfb0f505,bgrujsotqq,"Deep vs Shallow",1,301,2020-07-08T15:55:10-07:00,5.6961131095886,2,versionA_stim.csv,RLVersionB.csv,"Relational Version B","Relational, read only version B",FULL,ENOUGH,Study1,B,26,35,Test,User,-,,Recall,Recall2,4927,,0,-1,-1,0,0,,1
5ec5faacab872c67dfb0f505,bgrujsotqq,"Deep vs Shallow",1,302,2020-07-08T15:55:15-07:00,4.5957038402557,2,versionA_stim.csv,RLVersionB.csv,"Relational Version B","Relational, read only version B",KING,VASE,Study1,U,85,33,Test,User,-,,Recall,Recall2,4143,vase,100,3480,3965,1,1,,1
5ec5faacab872c67dfb0f505,bgrujsotqq,"Deep vs Shallow",1,303,2020-07-08T15:55:20-07:00,4.7648282051086,2,versionA_stim.csv,RLVersionB.csv,"Relational Version B","Relational, read only version B",HONEY,BEE,Study1,S,63,59,Test,User,-,,Recall,Recall2,4299,bee,100,2798,4130,1,1,,1
5ec5faacab872c67dfb0f505,bgrujsotqq,"Deep vs Shallow",1,304,2020-07-08T15:55:24-07:00,4.4186069965363,2,versionA_stim.csv,RLVersionB.csv,"Relational Version B","Relational, read only version B",ALLOW,TUCK,Study1,U,78,36,Test,User,-,,Recall,Recall2,3977,,0,-1,-1,0,0,,1
5ec5faacab872c67dfb0f505,bgrujsotqq,"Deep vs Shallow",1,305,2020-07-08T15:55:27-07:00,2.5270600318909,2,versionA_stim.csv,RLVersionB.csv,"Relational Version B","Relational, read only version B",KIDNEY,LIVER,Study1,S,53,32,Test,User,-,,Recall,Recall2,2002,liver,100,1395,1866,1,1,,1
5ec5faacab872c67dfb0f505,bgrujsotqq,"Deep vs Shallow",1,306,2020-07-08T15:55:29-07:00,2.3789229393005,2,versionA_stim.csv,RLVersionB.csv,"Relational Version B","Relational, read only version B",DISCOVER,FLOOR,Study1,U,71,84,Test,User,-,,Recall,Recall2,1903,,0,-1,-1,0,0,,1
5ec5faacab872c67dfb0f505,bgrujsotqq,"Deep vs Shallow",1,307,2020-07-08T15:55:31-07:00,2.3878569602966,2,versionA_stim.csv,RLVersionB.csv,"Relational Version B","Relational, read only version B",BATHROOM,TOILET,Study1,S,58,43,Test,User,-,,Recall,Recall2,1866,toilet,100,1295,1742,1,1,,1
5ec5faacab872c67dfb0f505,bgrujsotqq,"Deep vs Shallow",1,308,2020-07-08T15:55:35-07:00,3.8997030258179,2,versionA_stim.csv,RLVersionB.csv,"Relational Version B","Relational, read only version B",ARTERY,BRONZE,Study1,U,74,69,Test,User,-,,Recall,Recall2,2460,bronze,100,1742,2299,1,1,,1
5ec5faacab872c67dfb0f505,bgrujsotqq,"Deep vs Shallow",1,309,2020-07-08T15:55:38-07:00,2.5093128681183,2,versionA_stim.csv,RLVersionB.csv,"Relational Version B","Relational, read only version B",LETTUCE,SALAD,Study1,S,59,7,Test,User,-,,Recall,Recall2,2046,salad,100,1445,1900,1,1,,1
5ec5faacab872c67dfb0f505,bgrujsotqq,"Deep vs Shallow",1,310,2020-07-08T15:55:41-07:00,2.7355711460114,2,versionA_stim.csv,RLVersionB.csv,"Relational Version B","Relational, read only version B",CIRCLE,ROUND,Study1,S,65,19,Test,User,-,,Recall,Recall2,2292,round,100,1181,1620,1,1,,1
5ec5faacab872c67dfb0f505,bgrujsotqq,"Deep vs Shallow",1,311,2020-07-08T15:55:44-07:00,3.6737339496613,2,versionA_stim.csv,RLVersionB.csv,"Relational Version B","Relational, read only version B",PAW,DOG,Study1,F,15,65,Test,User,-,,Recall,Recall2,3113,dog,100,1936,2170,1,1,,1
5ec5faacab872c67dfb0f505,bgrujsotqq,"Deep vs Shallow",1,312,2020-07-08T15:55:47-07:00,2.6199860572815,2,versionA_stim.csv,RLVersionB.csv,"Relational Version B","Relational, read only version B",BABY,CHILD,Study1,S,64,29,Test,User,-,,Recall,Recall2,2161,child,100,1577,1916,1,1,,1
5ec5faacab872c67dfb0f505,bgrujsotqq,"Deep vs Shallow",1,313,2020-07-08T15:55:53-07:00,6.1366729736328,2,versionA_stim.csv,RLVersionB.csv,"Relational Version B","Relational, read only version B",STRONG,ACCIDENT,Study1,U,80,14,Test,User,-,,Recall,Recall2,5653,,0,-1,-1,0,0,,1
5ec5faacab872c67dfb0f505,bgrujsotqq,"Deep vs Shallow",1,314,2020-07-08T15:55:58-07:00,4.7267589569092,2,versionA_stim.csv,RLVersionB.csv,"Relational Version B","Relational, read only version B",HOT,CHILI,Study1,B,37,64,Test,User,-,,Recall,Recall2,4282,,0,-1,-1,0,0,,1
5ec5faacab872c67dfb0f505,bgrujsotqq,"Deep vs Shallow",1,315,2020-07-08T15:56:01-07:00,3.2834160327911,2,versionA_stim.csv,RLVersionB.csv,"Relational Version B","Relational, read only version B",POP,SODA,Study1,S,56,41,Test,User,-,,Recall,Recall2,2771,soda,100,1414,1747,1,1,,1
5ec5faacab872c67dfb0f505,bgrujsotqq,"Deep vs Shallow",1,316,2020-07-08T15:56:06-07:00,4.4765219688416,2,versionA_stim.csv,RLVersionB.csv,"Relational Version B","Relational, read only version B",BEGIN,END,Study1,S,54,49,Test,User,-,,Recall,Recall2,4024,end,100,3514,3667,1,1,,1
5ec5faacab872c67dfb0f505,bgrujsotqq,"Deep vs Shallow",1,317,2020-07-08T15:56:11-07:00,5.7358069419861,2,versionA_stim.csv,RLVersionB.csv,"Relational Version B","Relational, read only version B",TAKE,SEIZE,Study1,B,29,13,Test,User,-,,Recall,Recall2,5279,seize,100,4581,5107,1,1,,1
5ec5faacab872c67dfb0f505,bgrujsotqq,"Deep vs Shallow",1,318,2020-07-08T15:56:19-07:00,7.4047100543976,2,versionA_stim.csv,RLVersionB.csv,"Relational Version B","Relational, read only version B",PUSHER,CLUTTER,Study1,U,66,11,Test,User,-,,Recall,Recall2,6942,,0,-1,-1,0,0,,1
5ec5faacab872c67dfb0f505,bgrujsotqq,"Deep vs Shallow",1,319,2020-07-08T15:56:27-07:00,8.2962760925293,2,versionA_stim.csv,RLVersionB.csv,"Relational Version B","Relational, read only version B",DEATH,BUSINESS,Study1,U,72,46,Test,User,-,,Recall,Recall2,7839,business,100,4713,7293,1,1,,1
5ec5faacab872c67dfb0f505,bgrujsotqq,"Deep vs Shallow",1,320,2020-07-08T15:56:37-07:00,9.6931400299072,2,versionA_stim.csv,RLVersionB.csv,"Relational Version B","Relational, read only version B",DIETARY,SACKING,Study1,U,67,15,Test,User,-,,Recall,Recall2,9183,sacking,100,2092,8725,1,1,,1
5ec5faacab872c67dfb0f505,bgrujsotqq,"Deep vs Shallow",1,321,2020-07-08T15:56:42-07:00,5.6146287918091,2,versionA_stim.csv,RLVersionB.csv,"Relational Version B","Relational, read only version B",SWAN,BIRD,Study1,F,14,57,Test,User,-,,Recall,Recall2,5104,bird,100,4725,4976,1,1,,1
5ec5faacab872c67dfb0f505,bgrujsotqq,"Deep vs Shallow",1,322,2020-07-08T15:56:49-07:00,7.0008430480957,2,versionA_stim.csv,RLVersionB.csv,"Relational Version B","Relational, read only version B",HORNET,STING,Study1,F,11,86,Test,User,-,,Recall,Recall2,6430,wasp,22.222222222222,1906,6310,0,0,,1
5ec5faacab872c67dfb0f505,bgrujsotqq,"Deep vs Shallow",1,323,2020-07-08T15:56:53-07:00,3.9595320224762,2,versionA_stim.csv,RLVersionB.csv,"Relational Version B","Relational, read only version B",ROOT,PLANT,Study1,F,13,62,Test,User,-,,Recall,Recall2,3486,plant,100,1432,2270,1,1,,1
5ec5faacab872c67dfb0f505,bgrujsotqq,"Deep vs Shallow",1,324,2020-07-08T15:56:55-07:00,2.0801470279694,2,versionA_stim.csv,RLVersionB.csv,"Relational Version B","Relational, read only version B",CHISEL,HAMMER,Study1,F,9,16,Test,User,-,,Recall,Recall2,1626,hammer,100,1049,1484,1,1,,1
5ec5faacab872c67dfb0f505,bgrujsotqq,"Deep vs Shallow",1,325,2020-07-08T15:56:58-07:00,2.5671920776367,2,versionA_stim.csv,RLVersionB.csv,"Relational Version B","Relational, read only version B",BALL,RACKET,Study1,B,38,50,Test,User,-,,Recall,Recall2,2079,,0,-1,-1,0,0,,1
5ec5faacab872c67dfb0f505,bgrujsotqq,"Deep vs Shallow",1,326,2020-07-08T15:57:02-07:00,3.8483729362488,2,versionA_stim.csv,RLVersionB.csv,"Relational Version B","Relational, read only version B",SENTENCE,WORD,Study1,B,31,70,Test,User,-,,Recall,Recall2,2397,word,100,1786,2079,1,1,,1
5ec5faacab872c67dfb0f505,bgrujsotqq,"Deep vs Shallow",1,327,2020-07-08T15:57:04-07:00,2.6416530609131,2,versionA_stim.csv,RLVersionB.csv,"Relational Version B","Relational, read only version B",GREAT,FANTASTIC,Study1,B,35,85,Test,User,-,,Recall,Recall2,2069,,0,-1,-1,0,0,,1
5ec5faacab872c67dfb0f505,bgrujsotqq,"Deep vs Shallow",1,328,2020-07-08T15:57:09-07:00,4.8657329082489,2,versionA_stim.csv,RLVersionB.csv,"Relational Version B","Relational, read only version B",SMELL,STENCH,Study1,B,42,61,Test,User,-,,Recall,Recall2,4407,,0,-1,-1,0,0,,1
5ec5faacab872c67dfb0f505,bgrujsotqq,"Deep vs Shallow",1,329,2020-07-08T15:57:12-07:00,2.5797679424286,2,versionA_stim.csv,RLVersionB.csv,"Relational Version B","Relational, read only version B",FIX,HAND,Study1,U,75,23,Test,User,-,,Recall,Recall2,2146,,0,-1,-1,0,0,,1
5ec5faacab872c67dfb0f505,bgrujsotqq,"Deep vs Shallow",1,330,2020-07-08T15:57:17-07:00,4.9129650592804,2,versionA_stim.csv,RLVersionB.csv,"Relational Version B","Relational, read only version B",DUMP,WASTE,Study1,S,49,28,Test,User,-,,Recall,Recall2,4429,trash,40,2322,4068,0,0,,1
5ec5faacab872c67dfb0f505,bgrujsotqq,"Deep vs Shallow",1,331,2020-07-08T15:57:23-07:00,6.4978289604187,2,versionA_stim.csv,RLVersionB.csv,"Relational Version B","Relational, read only version B",EDITOR,NEWS,Study1,F,10,53,Test,User,-,,Recall,Recall2,6025,newspaper,61.538461538462,4394,5884,0,0,,1
5ec5faacab872c67dfb0f505,bgrujsotqq,"Deep vs Shallow",1,332,2020-07-08T15:57:30-07:00,6.5628459453583,2,versionA_stim.csv,RLVersionB.csv,"Relational Version B","Relational, read only version B",SLEEP,DROWSY,Study1,B,41,75,Test,User,-,,Recall,Recall2,6119,,0,-1,-1,0,0,,1
5ec5faacab872c67dfb0f505,bgrujsotqq,"Deep vs Shallow",1,333,2020-07-08T15:57:31-07:00,1.4905860424042,2,versionA_stim.csv,RLVersionB.csv,"Relational Version B","Relational, read only version B",SOON,BELT,Study1,U,70,37,Test,User,-,,Recall,Recall2,1003,,0,-1,-1,0,0,,1
5ec5faacab872c67dfb0f505,bgrujsotqq,"Deep vs Shallow",1,334,2020-07-08T15:57:36-07:00,4.2555270195007,2,versionA_stim.csv,RLVersionB.csv,"Relational Version B","Relational, read only version B",PLANE,PILOT,Study1,B,44,8,Test,User,-,,Recall,Recall2,3693,pilot,100,1536,3510,1,1,,1
5ec5faacab872c67dfb0f505,bgrujsotqq,"Deep vs Shallow",1,335,2020-07-08T15:57:42-07:00,6.1520669460297,2,versionA_stim.csv,RLVersionB.csv,"Relational Version B","Relational, read only version B",SUGAR,RIDDLE,Study1,U,81,22,Test,User,-,,Recall,Recall2,5421,,0,-1,-1,0,0,,1
5ec5faacab872c67dfb0f505,bgrujsotqq,"Deep vs Shallow",1,336,2020-07-08T15:57:43-07:00,1.5928289890289,2,versionA_stim.csv,RLVersionB.csv,"Relational Version B","Relational, read only version B",LIFT,WOMAN,Study1,U,69,54,Test,User,-,,Recall,Recall2,1143,,0,-1,-1,0,0,,1
5ec5faacab872c67dfb0f505,bgrujsotqq,"Deep vs Shallow",1,337,2020-07-08T15:57:47-07:00,3.5268921852112,2,versionA_stim.csv,RLVersionB.csv,"Relational Version B","Relational, read only version B",HERD,COW,Study1,F,22,78,Test,User,-,,Recall,Recall2,2982,cows,85.714285714286,2407,2823,0,1,,1
5ec5faacab872c67dfb0f505,bgrujsotqq,"Deep vs Shallow",1,338,2020-07-08T15:57:50-07:00,2.6728839874268,2,versionA_stim.csv,RLVersionB.csv,"Relational Version B","Relational, read only version B",ORCHID,FLOWER,Study1,F,24,82,Test,User,-,,Recall,Recall2,2210,flower,100,1144,2053,1,1,,1
5ec5faacab872c67dfb0f505,bgrujsotqq,"Deep vs Shallow",1,339,2020-07-08T15:57:52-07:00,2.5056159496307,2,versionA_stim.csv,RLVersionB.csv,"Relational Version B","Relational, read only version B",SHOE,FOOT,Study1,S,60,66,Test,User,-,,Recall,Recall2,2044,foot,100,1660,1904,1,1,,1
5ec5faacab872c67dfb0f505,bgrujsotqq,"Deep vs Shallow",1,340,2020-07-08T15:57:55-07:00,2.6967449188232,2,versionA_stim.csv,RLVersionB.csv,"Relational Version B","Relational, read only version B",HUNGER,FAMINE,Study1,B,40,24,Test,User,-,,Recall,Recall2,2190,,0,-1,-1,0,0,,1
5ec5faacab872c67dfb0f505,bgrujsotqq,"Deep vs Shallow",1,341,2020-07-08T15:58:00-07:00,5.394590139389,2,versionA_stim.csv,RLVersionB.csv,"Relational Version B","Relational, read only version B",HIDE,SICK,Study1,U,84,18,Test,User,-,,Recall,Recall2,4918,,0,-1,-1,0,0,,1
5ec5faacab872c67dfb0f505,bgrujsotqq,"Deep vs Shallow",1,342,2020-07-08T15:58:03-07:00,2.6364848613739,2,versionA_stim.csv,RLVersionB.csv,"Relational Version B","Relational, read only version B",REVOLUTION,WAR,Study1,F,20,12,Test,User,-,,Recall,Recall2,1937,war,100,1104,1415,1,1,,1
5ec5faacab872c67dfb0f505,bgrujsotqq,"Deep vs Shallow",1,343,2020-07-08T15:58:06-07:00,3.6839420795441,2,versionA_stim.csv,RLVersionB.csv,"Relational Version B","Relational, read only version B",BUG,WASP,Study1,B,32,52,Test,User,-,,Recall,Recall2,3206,wasp,100,1327,1705,1,1,,1
5ec5faacab872c67dfb0f505,bgrujsotqq,"Deep vs Shallow",1,344,2020-07-08T15:58:09-07:00,2.6443240642548,2,versionA_stim.csv,RLVersionB.csv,"Relational Version B","Relational, read only version B",FIRE,BLAZE,Study1,B,45,58,Test,User,-,,Recall,Recall2,2218,,0,-1,-1,0,0,,1
5ec5faacab872c67dfb0f505,bgrujsotqq,"Deep vs Shallow",1,345,2020-07-08T15:58:13-07:00,3.4588618278503,2,versionA_stim.csv,RLVersionB.csv,"Relational Version B","Relational, read only version B",GEOLOGY,ROCK,Study1,F,19,27,Test,User,-,,Recall,Recall2,3017,rocks,88.888888888889,1036,2705,0,1,,1
5ec5faacab872c67dfb0f505,bgrujsotqq,"Deep vs Shallow",1,346,2020-07-08T15:58:23-07:00,10.455171108246,2,versionA_stim.csv,RLVersionB.csv,"Relational Version B","Relational, read only version B",DISCUSSION,TALK,Study1,F,21,63,Test,User,-,,Recall,Recall2,9949,talk,100,8149,8713,1,1,,1
5ec5faacab872c67dfb0f505,bgrujsotqq,"Deep vs Shallow",1,347,2020-07-08T15:58:25-07:00,2.3453469276428,2,versionA_stim.csv,RLVersionB.csv,"Relational Version B","Relational, read only version B",KEY,LATCH,Study1,B,36,20,Test,User,-,,Recall,Recall2,1831,latch,100,1108,1585,1,1,,1
5ec5faacab872c67dfb0f505,bgrujsotqq,"Deep vs Shallow",1,348,2020-07-08T15:58:28-07:00,3.0627961158752,2,versionA_stim.csv,RLVersionB.csv,"Relational Version B","Relational, read only version B",WINE,CHEESE,Study1,S,57,72,Test,User,-,,Recall,Recall2,2317,cheese,100,1036,2194,1,1,,1
