Username,ID,ExperimentName,Session,Trial,Date,TimeDif,"Condition Number","Stimuli File","Order File","Condition Description","Condition Notes",Stimuli*Cue,Stimuli*Answer,Stimuli*Shuffle,"Stimuli*Stimuli Notes",Stimuli*Value,Procedure*Item,"Procedure*Trial Type","Procedure*Max Time","Procedure*Min Time",Procedure*Text,"Procedure*Procedure Notes",Procedure*Shuffle,Response*RT,Response*Response,Response*Accuracy,Response*RTfirst,Response*RTlast,Response*strictAcc,Response*lenientAcc,Response*focus,Response*Focus
w104048690_kt,q2eaha2igq,Relational_NO_JOL,1,1,2020-05-01T11:17:38-07:00,16.282917022705,4,versionC_stim.csv,READVersionD.csv,"Read Version D","Relational, read only version D",,,,,,0,Instruct,-,10,"In this section, you will be presented with a series of word pairs. Please study both items in the pair.",,Instruct13,15045,,,-1,-1,,,,0.973
w104048690_kt,q2eaha2igq,Relational_NO_JOL,1,2,2020-05-01T11:17:55-07:00,16.974890947342,4,versionC_stim.csv,READVersionD.csv,"Read Version D","Relational, read only version D",,,,,,0,Instruct,-,15,"As you study, please think about how the two concepts are RELATED to each other. For example, if you see the pair TURTLE-CAT, think about how both are alive, they are both animals, and both can be kept as pets.",,Instruct19,16309,,,-1,-1,,,,0.988
w104048690_kt,q2eaha2igq,Relational_NO_JOL,1,3,2020-05-01T11:18:11-07:00,15.780587911606,4,versionC_stim.csv,READVersionD.csv,"Read Version D","Relational, read only version D",,,,,,0,FreeRecall,-,10,"What you should think about as you study each item pair? Type your response in the box below.",,CHECK1,15062,"Think about how they relate and compare to each other ",0,4609,13440,0,0,,1
w104048690_kt,q2eaha2igq,Relational_NO_JOL,1,4,2020-05-01T11:18:15-07:00,3.8500661849976,4,versionC_stim.csv,READVersionD.csv,"Read Version D","Relational, read only version D",,,,,,0,Instruct,User,-,"You will now begin the experiment. Press ENTER when you are ready to begin.",,Instruct000,3139,,,-1,-1,,,,1
w104048690_kt,q2eaha2igq,Relational_NO_JOL,1,5,2020-05-01T11:18:24-07:00,9.4243178367615,4,versionC_stim.csv,READVersionD.csv,"Read Version D","Relational, read only version D",ADVENTURE,CAMP,BUFFER3,Buffer,95,93,Study,User,-,,Study/JOL,BUFFER,8794,,,-1,-1,,,,1
w104048690_kt,q2eaha2igq,Relational_NO_JOL,1,6,2020-05-01T11:18:27-07:00,3.1131231784821,4,versionC_stim.csv,READVersionD.csv,"Read Version D","Relational, read only version D",FISH,SHRIMP,BUFFER3,Buffer,93,94,Study,User,-,,Study/JOL,BUFFER,2505,,,-1,-1,,,,1
w104048690_kt,q2eaha2igq,Relational_NO_JOL,1,7,2020-05-01T11:18:31-07:00,3.1391808986664,4,versionC_stim.csv,READVersionD.csv,"Read Version D","Relational, read only version D",POTATO,CARROT,BUFFER3,Buffer,91,92,Study,User,-,,Study/JOL,BUFFER,2451,,,-1,-1,,,,1
w104048690_kt,q2eaha2igq,Relational_NO_JOL,1,8,2020-05-01T11:19:29-07:00,58.749555110931,4,versionC_stim.csv,READVersionD.csv,"Read Version D","Relational, read only version D",STRING,NOODLE,BUFFER3,Buffer,92,96,Study,User,-,,Study/JOL,BUFFER,5732,,,-1,-1,,,,1
w104048690_kt,q2eaha2igq,Relational_NO_JOL,1,9,2020-05-01T11:19:34-07:00,4.6530668735504,4,versionC_stim.csv,READVersionD.csv,"Read Version D","Relational, read only version D",FROZEN,ICE,BUFFER3,Buffer,94,95,Study,User,-,,Study/JOL,BUFFER,4013,,,-1,-1,,,,1
w104048690_kt,q2eaha2igq,Relational_NO_JOL,1,10,2020-05-01T11:19:38-07:00,3.8080821037292,4,versionC_stim.csv,READVersionD.csv,"Read Version D","Relational, read only version D",GAME,CLUE,Study2,B,97,100,Study,User,-,,Study/JOL,"Study Phase",3029,,,-1,-1,,,,1
w104048690_kt,q2eaha2igq,Relational_NO_JOL,1,11,2020-05-01T11:19:41-07:00,2.9910268783569,4,versionC_stim.csv,READVersionD.csv,"Read Version D","Relational, read only version D",AIRCRAFT,PLANE,Study2,F,129,129,Study,User,-,,Study/JOL,"Study Phase",2433,,,-1,-1,,,,1
w104048690_kt,q2eaha2igq,Relational_NO_JOL,1,12,2020-05-01T11:19:45-07:00,3.9619719982147,4,versionC_stim.csv,READVersionD.csv,"Read Version D","Relational, read only version D",CLOTH,STRETCH,Study2,U,157,158,Study,User,-,,Study/JOL,"Study Phase",3090,,,-1,-1,,,,1
w104048690_kt,q2eaha2igq,Relational_NO_JOL,1,13,2020-05-01T11:19:48-07:00,3.6014499664307,4,versionC_stim.csv,READVersionD.csv,"Read Version D","Relational, read only version D",THIMBLE,THREAD,Study2,F,121,97,Study,User,-,,Study/JOL,"Study Phase",2904,,,-1,-1,,,,1
w104048690_kt,q2eaha2igq,Relational_NO_JOL,1,14,2020-05-01T11:19:52-07:00,3.5552380084991,4,versionC_stim.csv,READVersionD.csv,"Read Version D","Relational, read only version D",TOIL,LEASE,Study2,U,170,125,Study,User,-,,Study/JOL,"Study Phase",2762,,,-1,-1,,,,1
w104048690_kt,q2eaha2igq,Relational_NO_JOL,1,15,2020-05-01T11:19:54-07:00,2.2722370624542,4,versionC_stim.csv,READVersionD.csv,"Read Version D","Relational, read only version D",DOG,FURRY,Study2,B,102,153,Study,User,-,,Study/JOL,"Study Phase",1565,,,-1,-1,,,,1
w104048690_kt,q2eaha2igq,Relational_NO_JOL,1,16,2020-05-01T11:20:00-07:00,5.9146289825439,4,versionC_stim.csv,READVersionD.csv,"Read Version D","Relational, read only version D",ABLE,CRACKLE,Study2,U,162,109,Study,User,-,,Study/JOL,"Study Phase",4023,,,-1,-1,,,,1
w104048690_kt,q2eaha2igq,Relational_NO_JOL,1,17,2020-05-01T11:20:04-07:00,3.8775010108948,4,versionC_stim.csv,READVersionD.csv,"Read Version D","Relational, read only version D",LONG,EXTENSION,Study2,B,96,128,Study,User,-,,Study/JOL,"Study Phase",3159,,,-1,-1,,,,1
w104048690_kt,q2eaha2igq,Relational_NO_JOL,1,18,2020-05-01T11:20:07-07:00,2.746325969696,4,versionC_stim.csv,READVersionD.csv,"Read Version D","Relational, read only version D",CLEAR,MOAT,Study2,U,169,117,Study,User,-,,Study/JOL,"Study Phase",2129,,,-1,-1,,,,1
w104048690_kt,q2eaha2igq,Relational_NO_JOL,1,19,2020-05-01T11:20:10-07:00,2.9650781154633,4,versionC_stim.csv,READVersionD.csv,"Read Version D","Relational, read only version D",SCISSORS,SHEARS,Study2,B,112,142,Study,User,-,,Study/JOL,"Study Phase",2392,,,-1,-1,,,,1
w104048690_kt,q2eaha2igq,Relational_NO_JOL,1,20,2020-05-01T11:20:13-07:00,2.8391599655151,4,versionC_stim.csv,READVersionD.csv,"Read Version D","Relational, read only version D",BALLOON,POP,Study2,F,123,161,Study,User,-,,Study/JOL,"Study Phase",2199,,,-1,-1,,,,1
w104048690_kt,q2eaha2igq,Relational_NO_JOL,1,21,2020-05-01T11:20:15-07:00,2.6231820583344,4,versionC_stim.csv,READVersionD.csv,"Read Version D","Relational, read only version D",JAR,MASON,Study2,S,138,127,Study,User,-,,Study/JOL,"Study Phase",2081,,,-1,-1,,,,1
w104048690_kt,q2eaha2igq,Relational_NO_JOL,1,22,2020-05-01T11:20:19-07:00,3.8489878177643,4,versionC_stim.csv,READVersionD.csv,"Read Version D","Relational, read only version D",CLOTHES,CAKE,Study2,U,166,103,Study,User,-,,Study/JOL,"Study Phase",2232,,,-1,-1,,,,1
w104048690_kt,q2eaha2igq,Relational_NO_JOL,1,23,2020-05-01T11:20:22-07:00,2.6314749717712,4,versionC_stim.csv,READVersionD.csv,"Read Version D","Relational, read only version D",END,ADJOURN,Study2,B,101,166,Study,User,-,,Study/JOL,"Study Phase",1676,,,-1,-1,,,,1
w104048690_kt,q2eaha2igq,Relational_NO_JOL,1,24,2020-05-01T11:20:24-07:00,2.7578530311584,4,versionC_stim.csv,READVersionD.csv,"Read Version D","Relational, read only version D",REVENGE,EVEN,Study2,F,122,104,Study,User,-,,Study/JOL,"Study Phase",2092,,,-1,-1,,,,1
w104048690_kt,q2eaha2igq,Relational_NO_JOL,1,25,2020-05-01T11:20:27-07:00,2.3425090312958,4,versionC_stim.csv,READVersionD.csv,"Read Version D","Relational, read only version D",DONKEY,MULE,Study2,B,108,141,Study,User,-,,Study/JOL,"Study Phase",1778,,,-1,-1,,,,1
w104048690_kt,q2eaha2igq,Relational_NO_JOL,1,26,2020-05-01T11:20:29-07:00,2.4548940658569,4,versionC_stim.csv,READVersionD.csv,"Read Version D","Relational, read only version D",PAPER,DOCUMENT,Study2,B,109,131,Study,User,-,,Study/JOL,"Study Phase",1769,,,-1,-1,,,,1
w104048690_kt,q2eaha2igq,Relational_NO_JOL,1,27,2020-05-01T11:20:35-07:00,5.7740778923035,4,versionC_stim.csv,READVersionD.csv,"Read Version D","Relational, read only version D",HEAD,SCALP,Study2,B,105,151,Study,User,-,,Study/JOL,"Study Phase",5098,,,-1,-1,,,,1
w104048690_kt,q2eaha2igq,Relational_NO_JOL,1,28,2020-05-01T11:20:38-07:00,2.5835201740265,4,versionC_stim.csv,READVersionD.csv,"Read Version D","Relational, read only version D",TRUTHFUL,HONEST,Study2,F,133,138,Study,User,-,,Study/JOL,"Study Phase",1910,,,-1,-1,,,,1
w104048690_kt,q2eaha2igq,Relational_NO_JOL,1,29,2020-05-01T11:20:40-07:00,2.1749279499054,4,versionC_stim.csv,READVersionD.csv,"Read Version D","Relational, read only version D",LONELY,ALONE,Study2,S,145,164,Study,User,-,,Study/JOL,"Study Phase",1562,,,-1,-1,,,,1
w104048690_kt,q2eaha2igq,Relational_NO_JOL,1,30,2020-05-01T11:20:42-07:00,2.3408539295197,4,versionC_stim.csv,READVersionD.csv,"Read Version D","Relational, read only version D",Morning,TEMPERATURE,Study2,U,173,160,Study,User,-,,Study/JOL,"Study Phase",1724,,,-1,-1,,,,1
w104048690_kt,q2eaha2igq,Relational_NO_JOL,1,31,2020-05-01T11:20:46-07:00,3.4581060409546,4,versionC_stim.csv,READVersionD.csv,"Read Version D","Relational, read only version D",BANKER,MONEY,Study2,F,132,99,Study,User,-,,Study/JOL,"Study Phase",1623,,,-1,-1,,,,1
w104048690_kt,q2eaha2igq,Relational_NO_JOL,1,32,2020-05-01T11:20:48-07:00,2.2926020622253,4,versionC_stim.csv,READVersionD.csv,"Read Version D","Relational, read only version D",VILLAIN,BAD,Study2,F,118,168,Study,User,-,,Study/JOL,"Study Phase",1665,,,-1,-1,,,,1
w104048690_kt,q2eaha2igq,Relational_NO_JOL,1,33,2020-05-01T11:20:50-07:00,2.5749640464783,4,versionC_stim.csv,READVersionD.csv,"Read Version D","Relational, read only version D",JOKE,KEYS,Study2,U,165,165,Study,User,-,,Study/JOL,"Study Phase",1836,,,-1,-1,,,,1
w104048690_kt,q2eaha2igq,Relational_NO_JOL,1,34,2020-05-01T11:20:53-07:00,2.872752904892,4,versionC_stim.csv,READVersionD.csv,"Read Version D","Relational, read only version D",TEMPER,TANTRUM,Study2,S,154,152,Study,User,-,,Study/JOL,"Study Phase",2277,,,-1,-1,,,,1
w104048690_kt,q2eaha2igq,Relational_NO_JOL,1,35,2020-05-01T11:20:55-07:00,2.0971500873566,4,versionC_stim.csv,READVersionD.csv,"Read Version D","Relational, read only version D",REEL,ROD,Study2,S,150,133,Study,User,-,,Study/JOL,"Study Phase",1407,,,-1,-1,,,,1
w104048690_kt,q2eaha2igq,Relational_NO_JOL,1,36,2020-05-01T11:20:57-07:00,2.0743339061737,4,versionC_stim.csv,READVersionD.csv,"Read Version D","Relational, read only version D",OUNCE,BOTH,Study2,U,172,147,Study,User,-,,Study/JOL,"Study Phase",1430,,,-1,-1,,,,1
w104048690_kt,q2eaha2igq,Relational_NO_JOL,1,37,2020-05-01T11:20:59-07:00,2.0625419616699,4,versionC_stim.csv,READVersionD.csv,"Read Version D","Relational, read only version D",TRASH,LITTER,Study2,B,103,132,Study,User,-,,Study/JOL,"Study Phase",1355,,,-1,-1,,,,1
w104048690_kt,q2eaha2igq,Relational_NO_JOL,1,38,2020-05-01T11:21:02-07:00,2.4589319229126,4,versionC_stim.csv,READVersionD.csv,"Read Version D","Relational, read only version D",NOISE,LOUD,Study2,S,152,155,Study,User,-,,Study/JOL,"Study Phase",1513,,,-1,-1,,,,1
w104048690_kt,q2eaha2igq,Relational_NO_JOL,1,39,2020-05-01T11:21:05-07:00,3.3352952003479,4,versionC_stim.csv,READVersionD.csv,"Read Version D","Relational, read only version D",BRAWL,FIGHT,Study2,F,135,159,Study,User,-,,Study/JOL,"Study Phase",1733,,,-1,-1,,,,1
w104048690_kt,q2eaha2igq,Relational_NO_JOL,1,40,2020-05-01T11:21:08-07:00,2.4721248149872,4,versionC_stim.csv,READVersionD.csv,"Read Version D","Relational, read only version D",OBTAIN,MEAT,Study2,U,161,140,Study,User,-,,Study/JOL,"Study Phase",1839,,,-1,-1,,,,1
w104048690_kt,q2eaha2igq,Relational_NO_JOL,1,41,2020-05-01T11:21:10-07:00,2.1316170692444,4,versionC_stim.csv,READVersionD.csv,"Read Version D","Relational, read only version D",GROUND,EARTH,Study2,S,144,171,Study,User,-,,Study/JOL,"Study Phase",1393,,,-1,-1,,,,1
w104048690_kt,q2eaha2igq,Relational_NO_JOL,1,42,2020-05-01T11:21:12-07:00,2.3256299495697,4,versionC_stim.csv,READVersionD.csv,"Read Version D","Relational, read only version D",LOVE,AFFECTION,Study2,B,115,137,Study,User,-,,Study/JOL,"Study Phase",1594,,,-1,-1,,,,1
w104048690_kt,q2eaha2igq,Relational_NO_JOL,1,43,2020-05-01T11:21:14-07:00,1.9906980991364,4,versionC_stim.csv,READVersionD.csv,"Read Version D","Relational, read only version D",LEAGUE,BASEBALL,Study2,F,131,107,Study,User,-,,Study/JOL,"Study Phase",1319,,,-1,-1,,,,1
w104048690_kt,q2eaha2igq,Relational_NO_JOL,1,44,2020-05-01T11:21:20-07:00,5.8951609134674,4,versionC_stim.csv,READVersionD.csv,"Read Version D","Relational, read only version D",,,,,,0,Instruct,-,3,"Remember to focus on how the two items are similiar while you study!",,CHECK2,5246,,,-1,-1,,,,1
w104048690_kt,q2eaha2igq,Relational_NO_JOL,1,45,2020-05-01T11:21:24-07:00,3.783625125885,4,versionC_stim.csv,READVersionD.csv,"Read Version D","Relational, read only version D",MYSTERY,DETECTIVE,Study2,B,100,146,Study,User,-,,Study/JOL,"Study Phase",2976,,,-1,-1,,,,1
w104048690_kt,q2eaha2igq,Relational_NO_JOL,1,46,2020-05-01T11:21:26-07:00,2.5004489421844,4,versionC_stim.csv,READVersionD.csv,"Read Version D","Relational, read only version D",DRINK,WATER,Study2,S,143,112,Study,User,-,,Study/JOL,"Study Phase",1927,,,-1,-1,,,,1
w104048690_kt,q2eaha2igq,Relational_NO_JOL,1,47,2020-05-01T11:21:29-07:00,2.6677339076996,4,versionC_stim.csv,READVersionD.csv,"Read Version D","Relational, read only version D",PLANT,CACTUS,Study2,B,98,118,Study,User,-,,Study/JOL,"Study Phase",2052,,,-1,-1,,,,1
w104048690_kt,q2eaha2igq,Relational_NO_JOL,1,48,2020-05-01T11:21:40-07:00,11.039640188217,4,versionC_stim.csv,READVersionD.csv,"Read Version D","Relational, read only version D",CARBON,ELEMENT,Study2,S,141,175,Study,User,-,,Study/JOL,"Study Phase",4914,,,-1,-1,,,,1
w104048690_kt,q2eaha2igq,Relational_NO_JOL,1,49,2020-05-01T11:21:49-07:00,8.876256942749,4,versionC_stim.csv,READVersionD.csv,"Read Version D","Relational, read only version D",CUT,CHOP,Study2,B,107,114,Study,User,-,,Study/JOL,"Study Phase",8237,,,-1,-1,,,,1
w104048690_kt,q2eaha2igq,Relational_NO_JOL,1,50,2020-05-01T11:21:52-07:00,3.3437068462372,4,versionC_stim.csv,READVersionD.csv,"Read Version D","Relational, read only version D",CAR,DRIVER,Study2,B,106,110,Study,User,-,,Study/JOL,"Study Phase",2754,,,-1,-1,,,,1
w104048690_kt,q2eaha2igq,Relational_NO_JOL,1,51,2020-05-01T11:21:55-07:00,2.9396681785583,4,versionC_stim.csv,READVersionD.csv,"Read Version D","Relational, read only version D",PANTHER,CAT,Study2,F,126,98,Study,User,-,,Study/JOL,"Study Phase",2291,,,-1,-1,,,,1
w104048690_kt,q2eaha2igq,Relational_NO_JOL,1,52,2020-05-01T11:21:59-07:00,4.1251218318939,4,versionC_stim.csv,READVersionD.csv,"Read Version D","Relational, read only version D",FICTION,LISTEN,Study2,U,164,101,Study,User,-,,Study/JOL,"Study Phase",2469,,,-1,-1,,,,1
w104048690_kt,q2eaha2igq,Relational_NO_JOL,1,53,2020-05-01T11:22:02-07:00,3.0773780345917,4,versionC_stim.csv,READVersionD.csv,"Read Version D","Relational, read only version D",SCAR,MAIN,Study2,U,175,169,Study,User,-,,Study/JOL,"Study Phase",2447,,,-1,-1,,,,1
w104048690_kt,q2eaha2igq,Relational_NO_JOL,1,54,2020-05-01T11:22:06-07:00,3.1520500183105,4,versionC_stim.csv,READVersionD.csv,"Read Version D","Relational, read only version D",NAP,SLEEP,Study2,F,134,119,Study,User,-,,Study/JOL,"Study Phase",2544,,,-1,-1,,,,1
w104048690_kt,q2eaha2igq,Relational_NO_JOL,1,55,2020-05-01T11:22:08-07:00,2.644210100174,4,versionC_stim.csv,READVersionD.csv,"Read Version D","Relational, read only version D",FAVORITE,BEST,Study2,F,125,120,Study,User,-,,Study/JOL,"Study Phase",1999,,,-1,-1,,,,1
w104048690_kt,q2eaha2igq,Relational_NO_JOL,1,56,2020-05-01T11:22:12-07:00,3.4703798294067,4,versionC_stim.csv,READVersionD.csv,"Read Version D","Relational, read only version D",ACTRESS,STAR,Study2,F,120,126,Study,User,-,,Study/JOL,"Study Phase",2802,,,-1,-1,,,,1
w104048690_kt,q2eaha2igq,Relational_NO_JOL,1,57,2020-05-01T11:22:15-07:00,2.797455072403,4,versionC_stim.csv,READVersionD.csv,"Read Version D","Relational, read only version D",WET,DRY,Study2,S,146,173,Study,User,-,,Study/JOL,"Study Phase",2137,,,-1,-1,,,,1
w104048690_kt,q2eaha2igq,Relational_NO_JOL,1,58,2020-05-01T11:22:17-07:00,2.6415021419525,4,versionC_stim.csv,READVersionD.csv,"Read Version D","Relational, read only version D",COFFIN,DEAD,Study2,F,128,116,Study,User,-,,Study/JOL,"Study Phase",1923,,,-1,-1,,,,1
w104048690_kt,q2eaha2igq,Relational_NO_JOL,1,59,2020-05-01T11:22:19-07:00,2.1865940093994,4,versionC_stim.csv,READVersionD.csv,"Read Version D","Relational, read only version D",CHILDREN,MIRROR,Study2,U,174,154,Study,User,-,,Study/JOL,"Study Phase",1452,,,-1,-1,,,,1
w104048690_kt,q2eaha2igq,Relational_NO_JOL,1,60,2020-05-01T11:22:22-07:00,2.6181910037994,4,versionC_stim.csv,READVersionD.csv,"Read Version D","Relational, read only version D",STRAWBERRY,FRUIT,Study2,F,124,102,Study,User,-,,Study/JOL,"Study Phase",1818,,,-1,-1,,,,1
w104048690_kt,q2eaha2igq,Relational_NO_JOL,1,61,2020-05-01T11:22:24-07:00,2.4508278369904,4,versionC_stim.csv,READVersionD.csv,"Read Version D","Relational, read only version D",TIE,SHOELACE,Study2,B,99,106,Study,User,-,,Study/JOL,"Study Phase",1900,,,-1,-1,,,,1
w104048690_kt,q2eaha2igq,Relational_NO_JOL,1,62,2020-05-01T11:22:28-07:00,3.9074201583862,4,versionC_stim.csv,READVersionD.csv,"Read Version D","Relational, read only version D",BRACELET,WRIST,Study2,S,140,108,Study,User,-,,Study/JOL,"Study Phase",3335,,,-1,-1,,,,1
w104048690_kt,q2eaha2igq,Relational_NO_JOL,1,63,2020-05-01T11:22:35-07:00,6.2682039737701,4,versionC_stim.csv,READVersionD.csv,"Read Version D","Relational, read only version D",AWAY,GONE,Study2,S,142,130,Study,User,-,,Study/JOL,"Study Phase",5495,,,-1,-1,,,,1
w104048690_kt,q2eaha2igq,Relational_NO_JOL,1,64,2020-05-01T11:22:37-07:00,2.6731469631195,4,versionC_stim.csv,READVersionD.csv,"Read Version D","Relational, read only version D",TAN,SUN,Study2,S,155,144,Study,User,-,,Study/JOL,"Study Phase",1924,,,-1,-1,,,,1
w104048690_kt,q2eaha2igq,Relational_NO_JOL,1,65,2020-05-01T11:22:40-07:00,2.698413848877,4,versionC_stim.csv,READVersionD.csv,"Read Version D","Relational, read only version D",ELECTION,MAZE,Study2,U,159,111,Study,User,-,,Study/JOL,"Study Phase",2069,,,-1,-1,,,,1
w104048690_kt,q2eaha2igq,Relational_NO_JOL,1,66,2020-05-01T11:22:43-07:00,2.6584861278534,4,versionC_stim.csv,READVersionD.csv,"Read Version D","Relational, read only version D",MAROON,JUSTICE,Study2,U,156,148,Study,User,-,,Study/JOL,"Study Phase",1880,,,-1,-1,,,,1
w104048690_kt,q2eaha2igq,Relational_NO_JOL,1,67,2020-05-01T11:22:46-07:00,3.4934020042419,4,versionC_stim.csv,READVersionD.csv,"Read Version D","Relational, read only version D",COMMUNICATION,PHONE,Study2,S,149,172,Study,User,-,,Study/JOL,"Study Phase",2897,,,-1,-1,,,,1
w104048690_kt,q2eaha2igq,Relational_NO_JOL,1,68,2020-05-01T11:22:49-07:00,2.7293519973755,4,versionC_stim.csv,READVersionD.csv,"Read Version D","Relational, read only version D",WAX,CANDLE,Study2,S,139,176,Study,User,-,,Study/JOL,"Study Phase",1964,,,-1,-1,,,,1
w104048690_kt,q2eaha2igq,Relational_NO_JOL,1,69,2020-05-01T11:22:53-07:00,4.5989699363708,4,versionC_stim.csv,READVersionD.csv,"Read Version D","Relational, read only version D",TICK,FLEA,Study2,S,151,162,Study,User,-,,Study/JOL,"Study Phase",2981,,,-1,-1,,,,1
w104048690_kt,q2eaha2igq,Relational_NO_JOL,1,70,2020-05-01T11:22:57-07:00,3.2734160423279,4,versionC_stim.csv,READVersionD.csv,"Read Version D","Relational, read only version D",FIGHT,FEUD,Study2,B,113,150,Study,User,-,,Study/JOL,"Study Phase",1668,,,-1,-1,,,,1
w104048690_kt,q2eaha2igq,Relational_NO_JOL,1,71,2020-05-01T11:22:59-07:00,2.3492510318756,4,versionC_stim.csv,READVersionD.csv,"Read Version D","Relational, read only version D",SMELL,INCENSE,Study2,B,110,122,Study,User,-,,Study/JOL,"Study Phase",1671,,,-1,-1,,,,1
w104048690_kt,q2eaha2igq,Relational_NO_JOL,1,72,2020-05-01T11:23:04-07:00,4.7416689395905,4,versionC_stim.csv,READVersionD.csv,"Read Version D","Relational, read only version D",HAVE,OWN,Study2,S,153,123,Study,User,-,,Study/JOL,"Study Phase",3911,,,-1,-1,,,,1
w104048690_kt,q2eaha2igq,Relational_NO_JOL,1,73,2020-05-01T11:23:07-07:00,2.8905839920044,4,versionC_stim.csv,READVersionD.csv,"Read Version D","Relational, read only version D",WINDSHIELD,CAR,Study2,F,117,136,Study,User,-,,Study/JOL,"Study Phase",2115,,,-1,-1,,,,1
w104048690_kt,q2eaha2igq,Relational_NO_JOL,1,74,2020-05-01T11:23:09-07:00,2.5756130218506,4,versionC_stim.csv,READVersionD.csv,"Read Version D","Relational, read only version D",EQUAL,RIGHTS,Study2,S,137,135,Study,User,-,,Study/JOL,"Study Phase",1892,,,-1,-1,,,,1
w104048690_kt,q2eaha2igq,Relational_NO_JOL,1,75,2020-05-01T11:23:12-07:00,2.3942999839783,4,versionC_stim.csv,READVersionD.csv,"Read Version D","Relational, read only version D",BREAKABLE,GLASS,Study2,F,127,174,Study,User,-,,Study/JOL,"Study Phase",1735,,,-1,-1,,,,1
w104048690_kt,q2eaha2igq,Relational_NO_JOL,1,76,2020-05-01T11:23:14-07:00,2.5215680599213,4,versionC_stim.csv,READVersionD.csv,"Read Version D","Relational, read only version D",SARDINE,FISH,Study2,F,130,145,Study,User,-,,Study/JOL,"Study Phase",1942,,,-1,-1,,,,1
w104048690_kt,q2eaha2igq,Relational_NO_JOL,1,77,2020-05-01T11:23:17-07:00,2.7601399421692,4,versionC_stim.csv,READVersionD.csv,"Read Version D","Relational, read only version D",EAT,DINE,Study2,B,111,163,Study,User,-,,Study/JOL,"Study Phase",2114,,,-1,-1,,,,1
w104048690_kt,q2eaha2igq,Relational_NO_JOL,1,78,2020-05-01T11:23:20-07:00,3.109365940094,4,versionC_stim.csv,READVersionD.csv,"Read Version D","Relational, read only version D",SHAKE,Shell,Study2,U,163,115,Study,User,-,,Study/JOL,"Study Phase",2451,,,-1,-1,,,,1
w104048690_kt,q2eaha2igq,Relational_NO_JOL,1,79,2020-05-01T11:23:22-07:00,2.3925151824951,4,versionC_stim.csv,READVersionD.csv,"Read Version D","Relational, read only version D",SIGN,LOAN,Study2,U,171,124,Study,User,-,,Study/JOL,"Study Phase",1663,,,-1,-1,,,,1
w104048690_kt,q2eaha2igq,Relational_NO_JOL,1,80,2020-05-01T11:23:27-07:00,4.1748418807983,4,versionC_stim.csv,READVersionD.csv,"Read Version D","Relational, read only version D",BANG,FUZZY,Study2,U,168,167,Study,User,-,,Study/JOL,"Study Phase",3525,,,-1,-1,,,,1
w104048690_kt,q2eaha2igq,Relational_NO_JOL,1,81,2020-05-01T11:23:35-07:00,8.0929989814758,4,versionC_stim.csv,READVersionD.csv,"Read Version D","Relational, read only version D",SHAVE,RAZOR,Study2,S,136,170,Study,User,-,,Study/JOL,"Study Phase",7274,,,-1,-1,,,,1
w104048690_kt,q2eaha2igq,Relational_NO_JOL,1,82,2020-05-01T11:23:39-07:00,4.2338769435883,4,versionC_stim.csv,READVersionD.csv,"Read Version D","Relational, read only version D",FLIP,TURN,Study2,F,116,134,Study,User,-,,Study/JOL,"Study Phase",3601,,,-1,-1,,,,1
w104048690_kt,q2eaha2igq,Relational_NO_JOL,1,83,2020-05-01T11:23:43-07:00,3.6840372085571,4,versionC_stim.csv,READVersionD.csv,"Read Version D","Relational, read only version D",STEAK,GIVE,Study2,U,158,139,Study,User,-,,Study/JOL,"Study Phase",3086,,,-1,-1,,,,1
w104048690_kt,q2eaha2igq,Relational_NO_JOL,1,84,2020-05-01T11:23:47-07:00,4.3793048858643,4,versionC_stim.csv,READVersionD.csv,"Read Version D","Relational, read only version D",LIE,TRUTH,Study2,S,148,121,Study,User,-,,Study/JOL,"Study Phase",2768,,,-1,-1,,,,1
w104048690_kt,q2eaha2igq,Relational_NO_JOL,1,85,2020-05-01T11:23:50-07:00,2.6857440471649,4,versionC_stim.csv,READVersionD.csv,"Read Version D","Relational, read only version D",RED,CHERRY,Study2,B,104,157,Study,User,-,,Study/JOL,"Study Phase",2124,,,-1,-1,,,,1
w104048690_kt,q2eaha2igq,Relational_NO_JOL,1,86,2020-05-01T11:23:53-07:00,3.3706889152527,4,versionC_stim.csv,READVersionD.csv,"Read Version D","Relational, read only version D",HATE,NAME,Study2,U,167,105,Study,User,-,,Study/JOL,"Study Phase",2693,,,-1,-1,,,,1
w104048690_kt,q2eaha2igq,Relational_NO_JOL,1,87,2020-05-01T11:23:56-07:00,2.5843970775604,4,versionC_stim.csv,READVersionD.csv,"Read Version D","Relational, read only version D",COLD,CHILL,Study2,B,114,149,Study,User,-,,Study/JOL,"Study Phase",1972,,,-1,-1,,,,1
w104048690_kt,q2eaha2igq,Relational_NO_JOL,1,88,2020-05-01T11:23:58-07:00,2.6024658679962,4,versionC_stim.csv,READVersionD.csv,"Read Version D","Relational, read only version D",PENGUIN,BIRD,Study2,F,119,143,Study,User,-,,Study/JOL,"Study Phase",1833,,,-1,-1,,,,1
w104048690_kt,q2eaha2igq,Relational_NO_JOL,1,89,2020-05-01T11:24:01-07:00,2.2478940486908,4,versionC_stim.csv,READVersionD.csv,"Read Version D","Relational, read only version D",SEATBELT,SAFETY,Study2,S,147,113,Study,User,-,,Study/JOL,"Study Phase",1607,,,-1,-1,,,,1
w104048690_kt,q2eaha2igq,Relational_NO_JOL,1,90,2020-05-01T11:24:04-07:00,3.3920600414276,4,versionC_stim.csv,READVersionD.csv,"Read Version D","Relational, read only version D",CHARM,VEHICLE,Study2,U,160,156,Study,User,-,,Study/JOL,"Study Phase",2713,,,-1,-1,,,,1
w104048690_kt,q2eaha2igq,Relational_NO_JOL,1,91,2020-05-01T11:24:07-07:00,2.9498410224915,4,versionC_stim.csv,READVersionD.csv,"Read Version D","Relational, read only version D",SPOOKY,OCTOBER,BUFFER4,Buffer,180,179,Study,User,-,,Study/JOL,BUFFER2,1245,,,-1,-1,,,,1
w104048690_kt,q2eaha2igq,Relational_NO_JOL,1,92,2020-05-01T11:24:09-07:00,2.4346570968628,4,versionC_stim.csv,READVersionD.csv,"Read Version D","Relational, read only version D",WEAKS,DAYS,BUFFER4,Buffer,176,180,Study,User,-,,Study/JOL,BUFFER2,1818,,,-1,-1,,,,1
w104048690_kt,q2eaha2igq,Relational_NO_JOL,1,93,2020-05-01T11:24:12-07:00,2.4304578304291,4,versionC_stim.csv,READVersionD.csv,"Read Version D","Relational, read only version D",MARCH,SPRING,BUFFER4,Buffer,179,177,Study,User,-,,Study/JOL,BUFFER2,1717,,,-1,-1,,,,1
w104048690_kt,q2eaha2igq,Relational_NO_JOL,1,94,2020-05-01T11:24:14-07:00,2.2172169685364,4,versionC_stim.csv,READVersionD.csv,"Read Version D","Relational, read only version D",SHED,TOOL,BUFFER4,Buffer,178,178,Study,User,-,,Study/JOL,BUFFER2,1613,,,-1,-1,,,,1
w104048690_kt,q2eaha2igq,Relational_NO_JOL,1,95,2020-05-01T11:24:16-07:00,2.2910830974579,4,versionC_stim.csv,READVersionD.csv,"Read Version D","Relational, read only version D",YEAR,MONTH,BUFFER4,Buffer,177,181,Study,User,-,,Study/JOL,BUFFER2,1585,,,-1,-1,,,,1
w104048690_kt,q2eaha2igq,Relational_NO_JOL,1,96,2020-05-01T11:24:20-07:00,3.4838171005249,4,versionC_stim.csv,READVersionD.csv,"Read Version D","Relational, read only version D",,,,,,0,Instruct,User,-,"You have completed this section. Please press Enter.",Filler_Instruction,Instruct2,2766,,,-1,-1,,,,1
w104048690_kt,q2eaha2igq,Relational_NO_JOL,1,97,2020-05-01T11:24:22-07:00,2.5499370098114,4,versionC_stim.csv,READVersionD.csv,"Read Version D","Relational, read only version D",,,,,,0,Instruct,User,-,"You have completed this section. Please press Enter.",Filler_Instruction,Instruct5,1978,,,-1,-1,,,,1
w104048690_kt,q2eaha2igq,Relational_NO_JOL,1,98,2020-05-01T11:24:46-07:00,23.819404840469,4,versionC_stim.csv,READVersionD.csv,"Read Version D","Relational, read only version D",,,,,,0,FreeRecall,-,10,"What were you supposed to focus on while you studied each pair? (Hint: Think back to the instructions). Type your answer in the space below.",,CHECK3,23002,"How the words related to each other and how they may be similar or different ",0,4297,19759,0,0,,1
w104048690_kt,q2eaha2igq,Relational_NO_JOL,1,99,2020-05-01T11:26:47-07:00,120.71752905846,4,versionC_stim.csv,READVersionD.csv,"Read Version D","Relational, read only version D",,,,,,0,FreeRecall,120,120,"Please list the 50 US states in alphabetical order. The task will automatically advance to the next screen after two minutes.",,Filler1,120005,"Alabama Alaska Arizona Arkansas California Connecticut Delaware Florida Georgia Hawaii Idaho Illinois Indiana Iowa Kansas Kentucky Louisiana Maine Massachusets Michigan Minnesota Mississippi Missouri Montana Nebraska",0,21808,117476,0,0,,1
w104048690_kt,q2eaha2igq,Relational_NO_JOL,1,100,2020-05-01T11:27:05-07:00,18.393445968628,4,versionC_stim.csv,READVersionD.csv,"Read Version D","Relational, read only version D",,,,,,0,Instruct,-,10,"You will now be presented with the first word from each of the previously studied item pairs. Please type the missing word. If you do not know the word, you may guess or press Enter to skip forward to the next pair.",,Instruct3,17375,,,-1,-1,,,,1
w104048690_kt,q2eaha2igq,Relational_NO_JOL,1,101,2020-05-01T11:27:17-07:00,12.249861955643,4,versionC_stim.csv,READVersionD.csv,"Read Version D","Relational, read only version D",JOKE,KEYS,Study2,U,165,165,Test,User,-,,Recall,Recall1,11419,KEYS,100,10189,10580,1,1,,1
w104048690_kt,q2eaha2igq,Relational_NO_JOL,1,102,2020-05-01T11:27:52-07:00,35.013887166977,4,versionC_stim.csv,READVersionD.csv,"Read Version D","Relational, read only version D",CLEAR,MOAT,Study2,U,169,117,Test,User,-,,Recall,Recall1,34335,MOAT,100,33265,34213,1,1,,1
w104048690_kt,q2eaha2igq,Relational_NO_JOL,1,103,2020-05-01T11:27:56-07:00,3.2066450119019,4,versionC_stim.csv,READVersionD.csv,"Read Version D","Relational, read only version D",SMELL,INCENSE,Study2,B,110,122,Test,User,-,,Recall,Recall1,2467,INCENSE,100,1114,2279,1,1,,1
w104048690_kt,q2eaha2igq,Relational_NO_JOL,1,104,2020-05-01T11:27:59-07:00,3.2285227775574,4,versionC_stim.csv,READVersionD.csv,"Read Version D","Relational, read only version D",TEMPER,TANTRUM,Study2,S,154,152,Test,User,-,,Recall,Recall1,2539,TANTRUM,100,1071,2253,1,1,,1
w104048690_kt,q2eaha2igq,Relational_NO_JOL,1,105,2020-05-01T11:28:02-07:00,2.8161420822144,4,versionC_stim.csv,READVersionD.csv,"Read Version D","Relational, read only version D",VILLAIN,BAD,Study2,F,118,168,Test,User,-,,Recall,Recall1,2156,BAD,100,1033,1327,1,1,,1
w104048690_kt,q2eaha2igq,Relational_NO_JOL,1,106,2020-05-01T11:28:05-07:00,2.8261480331421,4,versionC_stim.csv,READVersionD.csv,"Read Version D","Relational, read only version D",NOISE,LOUD,Study2,S,152,155,Test,User,-,,Recall,Recall1,2156,LOUD,100,1417,1982,1,1,,1
w104048690_kt,q2eaha2igq,Relational_NO_JOL,1,107,2020-05-01T11:28:08-07:00,2.9812049865723,4,versionC_stim.csv,READVersionD.csv,"Read Version D","Relational, read only version D",CARBON,ELEMENT,Study2,S,141,175,Test,User,-,,Recall,Recall1,2166,ELEMENT,100,961,2015,1,1,,1
w104048690_kt,q2eaha2igq,Relational_NO_JOL,1,108,2020-05-01T11:28:11-07:00,3.3383450508118,4,versionC_stim.csv,READVersionD.csv,"Read Version D","Relational, read only version D",SHAKE,Shell,Study2,U,163,115,Test,User,-,,Recall,Recall1,2639,SHELL,100,1733,2448,1,1,,1
w104048690_kt,q2eaha2igq,Relational_NO_JOL,1,109,2020-05-01T11:28:13-07:00,2.045804977417,4,versionC_stim.csv,READVersionD.csv,"Read Version D","Relational, read only version D",HAVE,OWN,Study2,S,153,123,Test,User,-,,Recall,Recall1,1410,OWN,100,915,1162,1,1,,1
w104048690_kt,q2eaha2igq,Relational_NO_JOL,1,110,2020-05-01T11:28:18-07:00,4.7624859809875,4,versionC_stim.csv,READVersionD.csv,"Read Version D","Relational, read only version D",TICK,FLEA,Study2,S,151,162,Test,User,-,,Recall,Recall1,4030,FLEA,100,1163,3919,1,1,,1
w104048690_kt,q2eaha2igq,Relational_NO_JOL,1,111,2020-05-01T11:28:35-07:00,17.36131811142,4,versionC_stim.csv,READVersionD.csv,"Read Version D","Relational, read only version D",Morning,TEMPERATURE,Study2,U,173,160,Test,User,-,,Recall,Recall1,11249,TEMPERATURE,100,1480,5128,1,1,,1
w104048690_kt,q2eaha2igq,Relational_NO_JOL,1,112,2020-05-01T11:28:40-07:00,4.5175809860229,4,versionC_stim.csv,READVersionD.csv,"Read Version D","Relational, read only version D",WINDSHIELD,CAR,Study2,F,117,136,Test,User,-,,Recall,Recall1,2737,CAR,100,2158,2578,1,1,,1
w104048690_kt,q2eaha2igq,Relational_NO_JOL,1,113,2020-05-01T11:28:46-07:00,6.4125628471375,4,versionC_stim.csv,READVersionD.csv,"Read Version D","Relational, read only version D",LONG,EXTENSION,Study2,B,96,128,Test,User,-,,Recall,Recall1,5650,EXTENSION,100,3764,5292,1,1,,1
w104048690_kt,q2eaha2igq,Relational_NO_JOL,1,114,2020-05-01T11:28:49-07:00,2.5810110569,4,versionC_stim.csv,READVersionD.csv,"Read Version D","Relational, read only version D",DONKEY,MULE,Study2,B,108,141,Test,User,-,,Recall,Recall1,1877,MULE,100,1104,1712,1,1,,1
w104048690_kt,q2eaha2igq,Relational_NO_JOL,1,115,2020-05-01T11:28:54-07:00,5.3599140644073,4,versionC_stim.csv,READVersionD.csv,"Read Version D","Relational, read only version D",OUNCE,BOTH,Study2,U,172,147,Test,User,-,,Recall,Recall1,4775,both,100,3196,4425,1,1,,1
w104048690_kt,q2eaha2igq,Relational_NO_JOL,1,116,2020-05-01T11:29:18-07:00,23.841039896011,4,versionC_stim.csv,READVersionD.csv,"Read Version D","Relational, read only version D",HATE,NAME,Study2,U,167,105,Test,User,-,,Recall,Recall1,22948,,0,-1,-1,0,0,,1
w104048690_kt,q2eaha2igq,Relational_NO_JOL,1,117,2020-05-01T11:29:25-07:00,7.6715369224548,4,versionC_stim.csv,READVersionD.csv,"Read Version D","Relational, read only version D",BALLOON,POP,Study2,F,123,161,Test,User,-,,Recall,Recall1,7025,pop,100,2127,4123,1,1,,1
w104048690_kt,q2eaha2igq,Relational_NO_JOL,1,118,2020-05-01T11:29:28-07:00,2.9224970340729,4,versionC_stim.csv,READVersionD.csv,"Read Version D","Relational, read only version D",PANTHER,CAT,Study2,F,126,98,Test,User,-,,Recall,Recall1,2274,CAT,100,1544,2056,1,1,,1
w104048690_kt,q2eaha2igq,Relational_NO_JOL,1,119,2020-05-01T11:29:36-07:00,7.5532221794128,4,versionC_stim.csv,READVersionD.csv,"Read Version D","Relational, read only version D",CAR,DRIVER,Study2,B,106,110,Test,User,-,,Recall,Recall1,6766,DRIVER,100,5650,6456,1,1,,1
w104048690_kt,q2eaha2igq,Relational_NO_JOL,1,120,2020-05-01T11:29:59-07:00,22.740114927292,4,versionC_stim.csv,READVersionD.csv,"Read Version D","Relational, read only version D",PAPER,DOCUMENT,Study2,B,109,131,Test,User,-,,Recall,Recall1,22036,,0,-1,-1,0,0,,1
w104048690_kt,q2eaha2igq,Relational_NO_JOL,1,121,2020-05-01T11:30:02-07:00,3.058935880661,4,versionC_stim.csv,READVersionD.csv,"Read Version D","Relational, read only version D",LEAGUE,BASEBALL,Study2,F,131,107,Test,User,-,,Recall,Recall1,2451,BASEBALL,100,1164,2205,1,1,,1
w104048690_kt,q2eaha2igq,Relational_NO_JOL,1,122,2020-05-01T11:30:04-07:00,2.7044010162354,4,versionC_stim.csv,READVersionD.csv,"Read Version D","Relational, read only version D",THIMBLE,THREAD,Study2,F,121,97,Test,User,-,,Recall,Recall1,2073,THREAD,100,982,1862,1,1,,1
w104048690_kt,q2eaha2igq,Relational_NO_JOL,1,123,2020-05-01T11:30:07-07:00,2.627149105072,4,versionC_stim.csv,READVersionD.csv,"Read Version D","Relational, read only version D",DRINK,WATER,Study2,S,143,112,Test,User,-,,Recall,Recall1,1920,WATER,100,1083,1679,1,1,,1
w104048690_kt,q2eaha2igq,Relational_NO_JOL,1,124,2020-05-01T11:30:24-07:00,17.274913072586,4,versionC_stim.csv,READVersionD.csv,"Read Version D","Relational, read only version D",END,ADJOURN,Study2,B,101,166,Test,User,-,,Recall,Recall1,16475,ADJOURN,100,14758,16112,1,1,,1
w104048690_kt,q2eaha2igq,Relational_NO_JOL,1,125,2020-05-01T11:30:31-07:00,6.923506975174,4,versionC_stim.csv,READVersionD.csv,"Read Version D","Relational, read only version D",CLOTH,STRETCH,Study2,U,157,158,Test,User,-,,Recall,Recall1,6272,STRETCH,100,2062,5111,1,1,,1
w104048690_kt,q2eaha2igq,Relational_NO_JOL,1,126,2020-05-01T11:30:35-07:00,3.6825540065765,4,versionC_stim.csv,READVersionD.csv,"Read Version D","Relational, read only version D",CHILDREN,MIRROR,Study2,U,174,154,Test,User,-,,Recall,Recall1,2887,,0,-1,-1,0,0,,1
w104048690_kt,q2eaha2igq,Relational_NO_JOL,1,127,2020-05-01T11:30:38-07:00,2.8758969306946,4,versionC_stim.csv,READVersionD.csv,"Read Version D","Relational, read only version D",HEAD,SCALP,Study2,B,105,151,Test,User,-,,Recall,Recall1,2209,SCALP,100,1337,1964,1,1,,1
w104048690_kt,q2eaha2igq,Relational_NO_JOL,1,128,2020-05-01T11:30:41-07:00,2.9620950222015,4,versionC_stim.csv,READVersionD.csv,"Read Version D","Relational, read only version D",RED,CHERRY,Study2,B,104,157,Test,User,-,,Recall,Recall1,2302,CHERRY,100,873,1740,1,1,,1
w104048690_kt,q2eaha2igq,Relational_NO_JOL,1,129,2020-05-01T11:30:44-07:00,2.8299498558044,4,versionC_stim.csv,READVersionD.csv,"Read Version D","Relational, read only version D",FICTION,LISTEN,Study2,U,164,101,Test,User,-,,Recall,Recall1,2140,LISTEN,100,1032,1813,1,1,,1
w104048690_kt,q2eaha2igq,Relational_NO_JOL,1,130,2020-05-01T11:30:47-07:00,3.639190196991,4,versionC_stim.csv,READVersionD.csv,"Read Version D","Relational, read only version D",AIRCRAFT,PLANE,Study2,F,129,129,Test,User,-,,Recall,Recall1,1994,PLANE,100,1103,1830,1,1,,1
w104048690_kt,q2eaha2igq,Relational_NO_JOL,1,131,2020-05-01T11:30:51-07:00,3.8287818431854,4,versionC_stim.csv,READVersionD.csv,"Read Version D","Relational, read only version D",BREAKABLE,GLASS,Study2,F,127,174,Test,User,-,,Recall,Recall1,3081,GLASS,100,2087,2939,1,1,,1
w104048690_kt,q2eaha2igq,Relational_NO_JOL,1,132,2020-05-01T11:30:53-07:00,2.4332060813904,4,versionC_stim.csv,READVersionD.csv,"Read Version D","Relational, read only version D",SARDINE,FISH,Study2,F,130,145,Test,User,-,,Recall,Recall1,1683,FISH,100,1024,1348,1,1,,1
w104048690_kt,q2eaha2igq,Relational_NO_JOL,1,133,2020-05-01T11:30:56-07:00,2.1585578918457,4,versionC_stim.csv,READVersionD.csv,"Read Version D","Relational, read only version D",EAT,DINE,Study2,B,111,163,Test,User,-,,Recall,Recall1,1519,DINE,100,1048,1357,1,1,,1
w104048690_kt,q2eaha2igq,Relational_NO_JOL,1,134,2020-05-01T11:31:22-07:00,26.546289205551,4,versionC_stim.csv,READVersionD.csv,"Read Version D","Relational, read only version D",SCAR,MAIN,Study2,U,175,169,Test,User,-,,Recall,Recall1,24709,,0,-1,-1,0,0,,1
w104048690_kt,q2eaha2igq,Relational_NO_JOL,1,135,2020-05-01T11:31:26-07:00,3.8589358329773,4,versionC_stim.csv,READVersionD.csv,"Read Version D","Relational, read only version D",COLD,CHILL,Study2,B,114,149,Test,User,-,,Recall,Recall1,3184,CHILL,100,1016,2739,1,1,,1
w104048690_kt,q2eaha2igq,Relational_NO_JOL,1,136,2020-05-01T11:31:29-07:00,2.6570839881897,4,versionC_stim.csv,READVersionD.csv,"Read Version D","Relational, read only version D",ACTRESS,STAR,Study2,F,120,126,Test,User,-,,Recall,Recall1,2001,,0,-1,-1,0,0,,1
w104048690_kt,q2eaha2igq,Relational_NO_JOL,1,137,2020-05-01T11:31:32-07:00,3.7079010009766,4,versionC_stim.csv,READVersionD.csv,"Read Version D","Relational, read only version D",MYSTERY,DETECTIVE,Study2,B,100,146,Test,User,-,,Recall,Recall1,3057,DETECTIVE,100,1087,2664,1,1,,1
w104048690_kt,q2eaha2igq,Relational_NO_JOL,1,138,2020-05-01T11:31:49-07:00,16.747146129608,4,versionC_stim.csv,READVersionD.csv,"Read Version D","Relational, read only version D",ABLE,CRACKLE,Study2,U,162,109,Test,User,-,,Recall,Recall1,15878,,0,-1,-1,0,0,,1
w104048690_kt,q2eaha2igq,Relational_NO_JOL,1,139,2020-05-01T11:31:52-07:00,2.625207901001,4,versionC_stim.csv,READVersionD.csv,"Read Version D","Relational, read only version D",TRASH,LITTER,Study2,B,103,132,Test,User,-,,Recall,Recall1,1920,LITTER,100,933,1734,1,1,,1
w104048690_kt,q2eaha2igq,Relational_NO_JOL,1,140,2020-05-01T11:31:56-07:00,4.4475960731506,4,versionC_stim.csv,READVersionD.csv,"Read Version D","Relational, read only version D",SIGN,LOAN,Study2,U,171,124,Test,User,-,,Recall,Recall1,3726,LOAN,100,1261,3344,1,1,,1
w104048690_kt,q2eaha2igq,Relational_NO_JOL,1,141,2020-05-01T11:32:00-07:00,3.312618970871,4,versionC_stim.csv,READVersionD.csv,"Read Version D","Relational, read only version D",SCISSORS,SHEARS,Study2,B,112,142,Test,User,-,,Recall,Recall1,2515,CUT,0,1995,2318,0,0,,1
w104048690_kt,q2eaha2igq,Relational_NO_JOL,1,142,2020-05-01T11:32:03-07:00,2.9944469928741,4,versionC_stim.csv,READVersionD.csv,"Read Version D","Relational, read only version D",COFFIN,DEAD,Study2,F,128,116,Test,User,-,,Recall,Recall1,2347,DEAD,100,1127,1754,1,1,,1
w104048690_kt,q2eaha2igq,Relational_NO_JOL,1,143,2020-05-01T11:32:11-07:00,8.5616939067841,4,versionC_stim.csv,READVersionD.csv,"Read Version D","Relational, read only version D",LOVE,AFFECTION,Study2,B,115,137,Test,User,-,,Recall,Recall1,2875,AFFECTION,100,1138,2435,1,1,,1
w104048690_kt,q2eaha2igq,Relational_NO_JOL,1,144,2020-05-01T11:32:14-07:00,2.7714500427246,4,versionC_stim.csv,READVersionD.csv,"Read Version D","Relational, read only version D",WAX,CANDLE,Study2,S,139,176,Test,User,-,,Recall,Recall1,2118,CANDLE,100,1189,1934,1,1,,1
w104048690_kt,q2eaha2igq,Relational_NO_JOL,1,145,2020-05-01T11:32:20-07:00,6.5938711166382,4,versionC_stim.csv,READVersionD.csv,"Read Version D","Relational, read only version D",NAP,SLEEP,Study2,F,134,119,Test,User,-,,Recall,Recall1,5971,SLEEP,100,5133,5650,1,1,,1
w104048690_kt,q2eaha2igq,Relational_NO_JOL,1,146,2020-05-01T11:32:25-07:00,4.1583218574524,4,versionC_stim.csv,READVersionD.csv,"Read Version D","Relational, read only version D",MAROON,JUSTICE,Study2,U,156,148,Test,User,-,,Recall,Recall1,3538,JUSTICE,100,2375,3371,1,1,,1
w104048690_kt,q2eaha2igq,Relational_NO_JOL,1,147,2020-05-01T11:32:27-07:00,2.4861960411072,4,versionC_stim.csv,READVersionD.csv,"Read Version D","Relational, read only version D",FLIP,TURN,Study2,F,116,134,Test,User,-,,Recall,Recall1,1708,TURN,100,1134,1417,1,1,,1
w104048690_kt,q2eaha2igq,Relational_NO_JOL,1,148,2020-05-01T11:32:54-07:00,26.973528146744,4,versionC_stim.csv,READVersionD.csv,"Read Version D","Relational, read only version D",CUT,CHOP,Study2,B,107,114,Test,User,-,,Recall,Recall1,26169,CHOP,100,25071,25793,1,1,,1
w104048690_kt,q2eaha2igq,Relational_NO_JOL,1,149,2020-05-01T11:32:56-07:00,2.4112048149109,4,versionC_stim.csv,READVersionD.csv,"Read Version D","Relational, read only version D",BRAWL,FIGHT,Study2,F,135,159,Test,User,-,,Recall,Recall1,1808,FIGHT,100,942,1507,1,1,,1
w104048690_kt,q2eaha2igq,Relational_NO_JOL,1,150,2020-05-01T11:32:59-07:00,2.0618469715118,4,versionC_stim.csv,READVersionD.csv,"Read Version D","Relational, read only version D",AWAY,GONE,Study2,S,142,130,Test,User,-,,Recall,Recall1,1322,GONE,100,879,1121,1,1,,1
w104048690_kt,q2eaha2igq,Relational_NO_JOL,1,151,2020-05-01T11:33:02-07:00,3.3460001945496,4,versionC_stim.csv,READVersionD.csv,"Read Version D","Relational, read only version D",GAME,CLUE,Study2,B,97,100,Test,User,-,,Recall,Recall1,2736,CLUE,100,2119,2521,1,1,,1
w104048690_kt,q2eaha2igq,Relational_NO_JOL,1,152,2020-05-01T11:33:22-07:00,20.085874795914,4,versionC_stim.csv,READVersionD.csv,"Read Version D","Relational, read only version D",DOG,FURRY,Study2,B,102,153,Test,User,-,,Recall,Recall1,19324,FURRY,100,18507,19030,1,1,,1
w104048690_kt,q2eaha2igq,Relational_NO_JOL,1,153,2020-05-01T11:33:26-07:00,3.743152141571,4,versionC_stim.csv,READVersionD.csv,"Read Version D","Relational, read only version D",LONELY,ALONE,Study2,S,145,164,Test,User,-,,Recall,Recall1,3100,,0,-1,-1,0,0,,1
w104048690_kt,q2eaha2igq,Relational_NO_JOL,1,154,2020-05-01T11:33:30-07:00,4.65882396698,4,versionC_stim.csv,READVersionD.csv,"Read Version D","Relational, read only version D",PLANT,CACTUS,Study2,B,98,118,Test,User,-,,Recall,Recall1,4055,FLOWER,0,2613,3744,0,0,,1
w104048690_kt,q2eaha2igq,Relational_NO_JOL,1,155,2020-05-01T11:33:33-07:00,2.3547239303589,4,versionC_stim.csv,READVersionD.csv,"Read Version D","Relational, read only version D",REVENGE,EVEN,Study2,F,122,104,Test,User,-,,Recall,Recall1,1524,EVEN,100,851,1272,1,1,,1
w104048690_kt,q2eaha2igq,Relational_NO_JOL,1,156,2020-05-01T11:33:36-07:00,3.131973028183,4,versionC_stim.csv,READVersionD.csv,"Read Version D","Relational, read only version D",EQUAL,RIGHTS,Study2,S,137,135,Test,User,-,,Recall,Recall1,2251,,0,1266,1266,0,0,,1
w104048690_kt,q2eaha2igq,Relational_NO_JOL,1,157,2020-05-01T11:33:39-07:00,3.1460180282593,4,versionC_stim.csv,READVersionD.csv,"Read Version D","Relational, read only version D",CLOTHES,CAKE,Study2,U,166,103,Test,User,-,,Recall,Recall1,2536,CAKE,100,1952,2346,1,1,,1
w104048690_kt,q2eaha2igq,Relational_NO_JOL,1,158,2020-05-01T11:33:52-07:00,13.429266929626,4,versionC_stim.csv,READVersionD.csv,"Read Version D","Relational, read only version D",STEAK,GIVE,Study2,U,158,139,Test,User,-,,Recall,Recall1,12714,,0,2285,3248,0,0,,1
w104048690_kt,q2eaha2igq,Relational_NO_JOL,1,159,2020-05-01T11:33:55-07:00,2.7471361160278,4,versionC_stim.csv,READVersionD.csv,"Read Version D","Relational, read only version D",PENGUIN,BIRD,Study2,F,119,143,Test,User,-,,Recall,Recall1,1923,BIRD,100,1074,1786,1,1,,1
w104048690_kt,q2eaha2igq,Relational_NO_JOL,1,160,2020-05-01T11:34:00-07:00,4.6505069732666,4,versionC_stim.csv,READVersionD.csv,"Read Version D","Relational, read only version D",SEATBELT,SAFETY,Study2,S,147,113,Test,User,-,,Recall,Recall1,4084,SAFETY,100,1637,3219,1,1,,1
w104048690_kt,q2eaha2igq,Relational_NO_JOL,1,161,2020-05-01T11:34:03-07:00,2.8797929286957,4,versionC_stim.csv,READVersionD.csv,"Read Version D","Relational, read only version D",GROUND,EARTH,Study2,S,144,171,Test,User,-,,Recall,Recall1,2211,EARTH,100,1152,1932,1,1,,1
w104048690_kt,q2eaha2igq,Relational_NO_JOL,1,162,2020-05-01T11:34:06-07:00,2.9081971645355,4,versionC_stim.csv,READVersionD.csv,"Read Version D","Relational, read only version D",TRUTHFUL,HONEST,Study2,F,133,138,Test,User,-,,Recall,Recall1,2144,HONEST,100,1124,1840,1,1,,1
w104048690_kt,q2eaha2igq,Relational_NO_JOL,1,163,2020-05-01T11:34:08-07:00,2.4894289970398,4,versionC_stim.csv,READVersionD.csv,"Read Version D","Relational, read only version D",TOIL,LEASE,Study2,U,170,125,Test,User,-,,Recall,Recall1,1902,LEASE,100,849,1630,1,1,,1
w104048690_kt,q2eaha2igq,Relational_NO_JOL,1,164,2020-05-01T11:34:10-07:00,2.3494207859039,4,versionC_stim.csv,READVersionD.csv,"Read Version D","Relational, read only version D",WET,DRY,Study2,S,146,173,Test,User,-,,Recall,Recall1,1562,DRY,100,909,1264,1,1,,1
w104048690_kt,q2eaha2igq,Relational_NO_JOL,1,165,2020-05-01T11:34:13-07:00,2.7968590259552,4,versionC_stim.csv,READVersionD.csv,"Read Version D","Relational, read only version D",TAN,SUN,Study2,S,155,144,Test,User,-,,Recall,Recall1,2015,,0,-1,-1,0,0,,1
w104048690_kt,q2eaha2igq,Relational_NO_JOL,1,166,2020-05-01T11:34:33-07:00,19.592133998871,4,versionC_stim.csv,READVersionD.csv,"Read Version D","Relational, read only version D",STRAWBERRY,FRUIT,Study2,F,124,102,Test,User,-,,Recall,Recall1,18705,FRUIT,100,17798,18466,1,1,,1
w104048690_kt,q2eaha2igq,Relational_NO_JOL,1,167,2020-05-01T11:34:36-07:00,3.3999001979828,4,versionC_stim.csv,READVersionD.csv,"Read Version D","Relational, read only version D",SHAVE,RAZOR,Study2,S,136,170,Test,User,-,,Recall,Recall1,2704,RAZOR,100,1513,2527,1,1,,1
w104048690_kt,q2eaha2igq,Relational_NO_JOL,1,168,2020-05-01T11:34:39-07:00,3.1069219112396,4,versionC_stim.csv,READVersionD.csv,"Read Version D","Relational, read only version D",ELECTION,MAZE,Study2,U,159,111,Test,User,-,,Recall,Recall1,2480,VOTE,25,1718,2335,0,0,,1
w104048690_kt,q2eaha2igq,Relational_NO_JOL,1,169,2020-05-01T11:34:43-07:00,3.6082410812378,4,versionC_stim.csv,READVersionD.csv,"Read Version D","Relational, read only version D",COMMUNICATION,PHONE,Study2,S,149,172,Test,User,-,,Recall,Recall1,3037,LISTEN,18.181818181818,1699,2760,0,0,,1
w104048690_kt,q2eaha2igq,Relational_NO_JOL,1,170,2020-05-01T11:34:45-07:00,2.1575708389282,4,versionC_stim.csv,READVersionD.csv,"Read Version D","Relational, read only version D",JAR,MASON,Study2,S,138,127,Test,User,-,,Recall,Recall1,1547,MASON,100,827,1303,1,1,,1
w104048690_kt,q2eaha2igq,Relational_NO_JOL,1,171,2020-05-01T11:34:49-07:00,4.1977980136871,4,versionC_stim.csv,READVersionD.csv,"Read Version D","Relational, read only version D",FIGHT,FEUD,Study2,B,113,150,Test,User,-,,Recall,Recall1,3343,FEUD,100,906,3144,1,1,,1
w104048690_kt,q2eaha2igq,Relational_NO_JOL,1,172,2020-05-01T11:35:12-07:00,22.315348148346,4,versionC_stim.csv,READVersionD.csv,"Read Version D","Relational, read only version D",LIE,TRUTH,Study2,S,148,121,Test,User,-,,Recall,Recall1,21162,,0,-1,-1,0,0,,1
w104048690_kt,q2eaha2igq,Relational_NO_JOL,1,173,2020-05-01T11:35:15-07:00,2.9208438396454,4,versionC_stim.csv,READVersionD.csv,"Read Version D","Relational, read only version D",BANG,FUZZY,Study2,U,168,167,Test,User,-,,Recall,Recall1,1876,,0,-1,-1,0,0,,1
w104048690_kt,q2eaha2igq,Relational_NO_JOL,1,174,2020-05-01T11:35:20-07:00,5.2938380241394,4,versionC_stim.csv,READVersionD.csv,"Read Version D","Relational, read only version D",CHARM,VEHICLE,Study2,U,160,156,Test,User,-,,Recall,Recall1,4699,VEHICLE,100,2810,4556,1,1,,1
w104048690_kt,q2eaha2igq,Relational_NO_JOL,1,175,2020-05-01T11:35:24-07:00,4.0000431537628,4,versionC_stim.csv,READVersionD.csv,"Read Version D","Relational, read only version D",BANKER,MONEY,Study2,F,132,99,Test,User,-,,Recall,Recall1,3293,MONEY,100,1212,3026,1,1,,1
w104048690_kt,q2eaha2igq,Relational_NO_JOL,1,176,2020-05-01T11:35:27-07:00,3.3983099460602,4,versionC_stim.csv,READVersionD.csv,"Read Version D","Relational, read only version D",BRACELET,WRIST,Study2,S,140,108,Test,User,-,,Recall,Recall1,2773,WRIST,100,2023,2630,1,1,,1
w104048690_kt,q2eaha2igq,Relational_NO_JOL,1,177,2020-05-01T11:35:30-07:00,2.9975030422211,4,versionC_stim.csv,READVersionD.csv,"Read Version D","Relational, read only version D",OBTAIN,MEAT,Study2,U,161,140,Test,User,-,,Recall,Recall1,2316,HOLD,0,1580,2169,0,0,,1
w104048690_kt,q2eaha2igq,Relational_NO_JOL,1,178,2020-05-01T11:35:33-07:00,3.2424118518829,4,versionC_stim.csv,READVersionD.csv,"Read Version D","Relational, read only version D",TIE,SHOELACE,Study2,B,99,106,Test,User,-,,Recall,Recall1,2564,SHOELACE,100,1147,2404,1,1,,1
w104048690_kt,q2eaha2igq,Relational_NO_JOL,1,179,2020-05-01T11:35:38-07:00,4.0396039485931,4,versionC_stim.csv,READVersionD.csv,"Read Version D","Relational, read only version D",FAVORITE,BEST,Study2,F,125,120,Test,User,-,,Recall,Recall1,2146,BEST,100,1480,1997,1,1,,1
w104048690_kt,q2eaha2igq,Relational_NO_JOL,1,180,2020-05-01T11:35:41-07:00,3.6750822067261,4,versionC_stim.csv,READVersionD.csv,"Read Version D","Relational, read only version D",REEL,ROD,Study2,S,150,133,Test,User,-,,Recall,Recall1,3003,FISH,0,1510,2454,0,0,,1
w104048690_kt,q2eaha2igq,Relational_NO_JOL,1,181,2020-05-01T11:36:22-07:00,40.860074996948,4,versionC_stim.csv,READVersionD.csv,"Read Version D","Relational, read only version D",,,,,,0,Instruct,,10,"You will now be presented with a new set of word pairs. Please study each pair. Remember that your memory will be tested! When finished, press Enter to move to the next pair.",Initial_Instruct,Instruct4,40000,,,-1,-1,,,,1
w104048690_kt,q2eaha2igq,Relational_NO_JOL,1,182,2020-05-01T11:36:39-07:00,16.916718006134,4,versionC_stim.csv,READVersionD.csv,"Read Version D","Relational, read only version D",,,,,,0,Instruct,-,15,"As you study, please think about how the two concepts are RELATED to each other. For example, if you see the pair TURTLE-CAT, think about how both are alive, they are both animals, and both can be kept as pets.",,Instruct20,15958,,,-1,-1,,,,0.974
w104048690_kt,q2eaha2igq,Relational_NO_JOL,1,183,2020-05-01T11:36:52-07:00,12.973347902298,4,versionC_stim.csv,READVersionD.csv,"Read Version D","Relational, read only version D",,,,,,0,FreeRecall,-,10,"What you should think about as you study each item pair? Type your response in the box below.",,CHECK4,12055,"HOW THEY ARE RELATED TO EACH OTHER ",0,2528,9528,0,0,,1
w104048690_kt,q2eaha2igq,Relational_NO_JOL,1,184,2020-05-01T11:36:54-07:00,2.2565100193024,4,versionC_stim.csv,READVersionD.csv,"Read Version D","Relational, read only version D",,,,,,0,Instruct,User,-,"Press Enter when you are readty to begin",,Instruct11,1492,,,-1,-1,,,,1
w104048690_kt,q2eaha2igq,Relational_NO_JOL,1,185,2020-05-01T11:36:58-07:00,4.1788818836212,4,versionC_stim.csv,READVersionD.csv,"Read Version D","Relational, read only version D",GREEN,TREES,BUFFER1,Buffer,1,3,Study,User,-,,Study/JOL,BUFFER3,3609,,,-1,-1,,,,1
w104048690_kt,q2eaha2igq,Relational_NO_JOL,1,186,2020-05-01T11:37:01-07:00,2.7006921768188,4,versionC_stim.csv,READVersionD.csv,"Read Version D","Relational, read only version D",HIDE,SCARE,BUFFER1,Buffer,4,6,Study,User,-,,Study/JOL,BUFFER3,2100,,,-1,-1,,,,1
w104048690_kt,q2eaha2igq,Relational_NO_JOL,1,187,2020-05-01T11:37:03-07:00,1.7076308727264,4,versionC_stim.csv,READVersionD.csv,"Read Version D","Relational, read only version D",BUTTER,PEANUT,BUFFER1,Buffer,3,5,Study,User,-,,Study/JOL,BUFFER3,1073,,,-1,-1,,,,1
w104048690_kt,q2eaha2igq,Relational_NO_JOL,1,188,2020-05-01T11:37:04-07:00,1.5603611469269,4,versionC_stim.csv,READVersionD.csv,"Read Version D","Relational, read only version D",JAM,SPACE,BUFFER1,Buffer,5,4,Study,User,-,,Study/JOL,BUFFER3,901,,,-1,-1,,,,1
w104048690_kt,q2eaha2igq,Relational_NO_JOL,1,189,2020-05-01T11:37:06-07:00,1.7035369873047,4,versionC_stim.csv,READVersionD.csv,"Read Version D","Relational, read only version D",CATCHER,BASEBALL,BUFFER1,Buffer,2,2,Study,User,-,,Study/JOL,BUFFER3,1082,,,-1,-1,,,,1
w104048690_kt,q2eaha2igq,Relational_NO_JOL,1,190,2020-05-01T11:37:08-07:00,1.8606848716736,4,versionC_stim.csv,READVersionD.csv,"Read Version D","Relational, read only version D",ASSIGNMENT,DUE,Study1,S,46,47,Study,User,-,,Study/JOL,"Study Phase2",1197,,,-1,-1,,,,1
w104048690_kt,q2eaha2igq,Relational_NO_JOL,1,191,2020-05-01T11:37:10-07:00,1.7093551158905,4,versionC_stim.csv,READVersionD.csv,"Read Version D","Relational, read only version D",FISH,TUNA,Study1,B,25,53,Study,User,-,,Study/JOL,"Study Phase2",1051,,,-1,-1,,,,1
w104048690_kt,q2eaha2igq,Relational_NO_JOL,1,192,2020-05-01T11:37:11-07:00,1.6507968902588,4,versionC_stim.csv,READVersionD.csv,"Read Version D","Relational, read only version D",FLOOR,DISCOVER,Study1,U,71,84,Study,User,-,,Study/JOL,"Study Phase2",1054,,,-1,-1,,,,1
w104048690_kt,q2eaha2igq,Relational_NO_JOL,1,193,2020-05-01T11:37:13-07:00,2.100212097168,4,versionC_stim.csv,READVersionD.csv,"Read Version D","Relational, read only version D",HUNGRY,PARK,Study1,U,68,82,Study,User,-,,Study/JOL,"Study Phase2",1508,,,-1,-1,,,,1
w104048690_kt,q2eaha2igq,Relational_NO_JOL,1,194,2020-05-01T11:37:16-07:00,2.1579768657684,4,versionC_stim.csv,READVersionD.csv,"Read Version D","Relational, read only version D",CARD,CREDIT,Study1,B,23,73,Study,User,-,,Study/JOL,"Study Phase2",1425,,,-1,-1,,,,1
w104048690_kt,q2eaha2igq,Relational_NO_JOL,1,195,2020-05-01T11:37:18-07:00,2.1598379611969,4,versionC_stim.csv,READVersionD.csv,"Read Version D","Relational, read only version D",ADD,VALLEY,Study1,U,82,76,Study,User,-,,Study/JOL,"Study Phase2",1404,,,-1,-1,,,,1
w104048690_kt,q2eaha2igq,Relational_NO_JOL,1,196,2020-05-01T11:37:20-07:00,2.1051239967346,4,versionC_stim.csv,READVersionD.csv,"Read Version D","Relational, read only version D",LATCH,KEY,Study1,F,36,20,Study,User,-,,Study/JOL,"Study Phase2",1414,,,-1,-1,,,,1
w104048690_kt,q2eaha2igq,Relational_NO_JOL,1,197,2020-05-01T11:37:22-07:00,1.978609085083,4,versionC_stim.csv,READVersionD.csv,"Read Version D","Relational, read only version D",PLANT,ROOT,Study1,B,13,59,Study,User,-,,Study/JOL,"Study Phase2",1303,,,-1,-1,,,,1
w104048690_kt,q2eaha2igq,Relational_NO_JOL,1,198,2020-05-01T11:37:24-07:00,1.9779570102692,4,versionC_stim.csv,READVersionD.csv,"Read Version D","Relational, read only version D",FANTASTIC,GREAT,Study1,F,35,58,Study,User,-,,Study/JOL,"Study Phase2",1252,,,-1,-1,,,,1
w104048690_kt,q2eaha2igq,Relational_NO_JOL,1,199,2020-05-01T11:37:26-07:00,2.151869058609,4,versionC_stim.csv,READVersionD.csv,"Read Version D","Relational, read only version D",DOG,PAW,Study1,B,15,19,Study,User,-,,Study/JOL,"Study Phase2",1457,,,-1,-1,,,,1
w104048690_kt,q2eaha2igq,Relational_NO_JOL,1,200,2020-05-01T11:37:28-07:00,2.0765459537506,4,versionC_stim.csv,READVersionD.csv,"Read Version D","Relational, read only version D",ENOUGH,FULL,Study1,F,26,74,Study,User,-,,Study/JOL,"Study Phase2",1364,,,-1,-1,,,,1
w104048690_kt,q2eaha2igq,Relational_NO_JOL,1,201,2020-05-01T11:37:34-07:00,5.8412029743195,4,versionC_stim.csv,READVersionD.csv,"Read Version D","Relational, read only version D",SODA,POP,Study1,S,56,64,Study,User,-,,Study/JOL,"Study Phase2",5042,,,-1,-1,,,,1
w104048690_kt,q2eaha2igq,Relational_NO_JOL,1,202,2020-05-01T11:37:36-07:00,1.8632259368896,4,versionC_stim.csv,READVersionD.csv,"Read Version D","Relational, read only version D",TALK,DISCUSSION,Study1,B,21,24,Study,User,-,,Study/JOL,"Study Phase2",1342,,,-1,-1,,,,1
w104048690_kt,q2eaha2igq,Relational_NO_JOL,1,203,2020-05-01T11:37:38-07:00,1.8369860649109,4,versionC_stim.csv,READVersionD.csv,"Read Version D","Relational, read only version D",RIDDLE,SUGAR,Study1,U,81,68,Study,User,-,,Study/JOL,"Study Phase2",1206,,,-1,-1,,,,1
w104048690_kt,q2eaha2igq,Relational_NO_JOL,1,204,2020-05-01T11:37:39-07:00,1.7876420021057,4,versionC_stim.csv,READVersionD.csv,"Read Version D","Relational, read only version D",ROUND,CIRCLE,Study1,S,65,45,Study,User,-,,Study/JOL,"Study Phase2",1121,,,-1,-1,,,,1
w104048690_kt,q2eaha2igq,Relational_NO_JOL,1,205,2020-05-01T11:37:41-07:00,1.7774169445038,4,versionC_stim.csv,READVersionD.csv,"Read Version D","Relational, read only version D",CHILD,BABY,Study1,S,64,63,Study,User,-,,Study/JOL,"Study Phase2",1166,,,-1,-1,,,,1
w104048690_kt,q2eaha2igq,Relational_NO_JOL,1,206,2020-05-01T11:37:43-07:00,2.0136301517487,4,versionC_stim.csv,READVersionD.csv,"Read Version D","Relational, read only version D",WORD,SENTENCE,Study1,F,31,17,Study,User,-,,Study/JOL,"Study Phase2",1234,,,-1,-1,,,,1
w104048690_kt,q2eaha2igq,Relational_NO_JOL,1,207,2020-05-01T11:37:45-07:00,1.7566838264465,4,versionC_stim.csv,READVersionD.csv,"Read Version D","Relational, read only version D",CLEAN,HYGIENE,Study1,B,17,57,Study,User,-,,Study/JOL,"Study Phase2",1175,,,-1,-1,,,,1
w104048690_kt,q2eaha2igq,Relational_NO_JOL,1,208,2020-05-01T11:37:47-07:00,1.7875771522522,4,versionC_stim.csv,READVersionD.csv,"Read Version D","Relational, read only version D",WIND,BLOW,Study1,S,55,69,Study,User,-,,Study/JOL,"Study Phase2",1201,,,-1,-1,,,,1
w104048690_kt,q2eaha2igq,Relational_NO_JOL,1,209,2020-05-01T11:37:48-07:00,1.7592418193817,4,versionC_stim.csv,READVersionD.csv,"Read Version D","Relational, read only version D",AMOUNT,NUMBER,Study1,S,47,70,Study,User,-,,Study/JOL,"Study Phase2",1197,,,-1,-1,,,,1
w104048690_kt,q2eaha2igq,Relational_NO_JOL,1,210,2020-05-01T11:37:50-07:00,2.0262231826782,4,versionC_stim.csv,READVersionD.csv,"Read Version D","Relational, read only version D",STENCH,SMELL,Study1,F,42,54,Study,User,-,,Study/JOL,"Study Phase2",1321,,,-1,-1,,,,1
w104048690_kt,q2eaha2igq,Relational_NO_JOL,1,211,2020-05-01T11:37:52-07:00,1.7198369503021,4,versionC_stim.csv,READVersionD.csv,"Read Version D","Relational, read only version D",STING,HORNET,Study1,B,11,79,Study,User,-,,Study/JOL,"Study Phase2",1090,,,-1,-1,,,,1
w104048690_kt,q2eaha2igq,Relational_NO_JOL,1,212,2020-05-01T11:37:54-07:00,1.830237865448,4,versionC_stim.csv,READVersionD.csv,"Read Version D","Relational, read only version D",CAR,HAPPY,Study1,U,77,30,Study,User,-,,Study/JOL,"Study Phase2",1232,,,-1,-1,,,,1
w104048690_kt,q2eaha2igq,Relational_NO_JOL,1,213,2020-05-01T11:37:56-07:00,2.0586090087891,4,versionC_stim.csv,READVersionD.csv,"Read Version D","Relational, read only version D",GROWTH,HEIGHT,Study1,F,30,62,Study,User,-,,Study/JOL,"Study Phase2",1279,,,-1,-1,,,,1
w104048690_kt,q2eaha2igq,Relational_NO_JOL,1,214,2020-05-01T11:37:58-07:00,1.8407092094421,4,versionC_stim.csv,READVersionD.csv,"Read Version D","Relational, read only version D",SICK,HIDE,Study1,U,84,67,Study,User,-,,Study/JOL,"Study Phase2",1270,,,-1,-1,,,,1
w104048690_kt,q2eaha2igq,Relational_NO_JOL,1,215,2020-05-01T11:38:00-07:00,2.3631298542023,4,versionC_stim.csv,READVersionD.csv,"Read Version D","Relational, read only version D",COLD,BITTER,Study1,B,12,37,Study,User,-,,Study/JOL,"Study Phase2",1680,,,-1,-1,,,,1
w104048690_kt,q2eaha2igq,Relational_NO_JOL,1,216,2020-05-01T11:38:02-07:00,2.1192309856415,4,versionC_stim.csv,READVersionD.csv,"Read Version D","Relational, read only version D",SACKING,DIETARY,Study1,U,67,26,Study,User,-,,Study/JOL,"Study Phase2",1540,,,-1,-1,,,,1
w104048690_kt,q2eaha2igq,Relational_NO_JOL,1,217,2020-05-01T11:38:04-07:00,1.7721421718597,4,versionC_stim.csv,READVersionD.csv,"Read Version D","Relational, read only version D",SEIZE,TAKE,Study1,F,29,46,Study,User,-,,Study/JOL,"Study Phase2",1184,,,-1,-1,,,,1
w104048690_kt,q2eaha2igq,Relational_NO_JOL,1,218,2020-05-01T11:38:06-07:00,2.0363569259644,4,versionC_stim.csv,READVersionD.csv,"Read Version D","Relational, read only version D",BAD,DELINQUENT,Study1,B,6,39,Study,User,-,,Study/JOL,"Study Phase2",1283,,,-1,-1,,,,1
w104048690_kt,q2eaha2igq,Relational_NO_JOL,1,219,2020-05-01T11:38:08-07:00,1.8079259395599,4,versionC_stim.csv,READVersionD.csv,"Read Version D","Relational, read only version D",COW,HERD,Study1,B,22,86,Study,User,-,,Study/JOL,"Study Phase2",1243,,,-1,-1,,,,1
w104048690_kt,q2eaha2igq,Relational_NO_JOL,1,220,2020-05-01T11:38:10-07:00,2.2984960079193,4,versionC_stim.csv,READVersionD.csv,"Read Version D","Relational, read only version D",CHEESE,WINE,Study1,S,57,81,Study,User,-,,Study/JOL,"Study Phase2",1618,,,-1,-1,,,,1
w104048690_kt,q2eaha2igq,Relational_NO_JOL,1,221,2020-05-01T11:38:12-07:00,1.8975579738617,4,versionC_stim.csv,READVersionD.csv,"Read Version D","Relational, read only version D",CHORE,WORK,Study1,F,39,71,Study,User,-,,Study/JOL,"Study Phase2",1331,,,-1,-1,,,,1
w104048690_kt,q2eaha2igq,Relational_NO_JOL,1,222,2020-05-01T11:38:14-07:00,2.259181022644,4,versionC_stim.csv,READVersionD.csv,"Read Version D","Relational, read only version D",STOMACH,DIGESTION,Study1,B,7,44,Study,User,-,,Study/JOL,"Study Phase2",1654,,,-1,-1,,,,1
w104048690_kt,q2eaha2igq,Relational_NO_JOL,1,223,2020-05-01T11:38:17-07:00,2.5013349056244,4,versionC_stim.csv,READVersionD.csv,"Read Version D","Relational, read only version D",ATTORNEY,LAW,Study1,F,34,33,Study,User,-,,Study/JOL,"Study Phase2",1797,,,-1,-1,,,,1
w104048690_kt,q2eaha2igq,Relational_NO_JOL,1,224,2020-05-01T11:38:22-07:00,4.992439031601,4,versionC_stim.csv,READVersionD.csv,"Read Version D","Relational, read only version D",,,,,,0,Instruct,-,3,"Remember to focus on how the two items are similiar while you study!",,CHECK5,4419,,,-1,-1,,,,1
w104048690_kt,q2eaha2igq,Relational_NO_JOL,1,225,2020-05-01T11:38:24-07:00,2.1186881065369,4,versionC_stim.csv,READVersionD.csv,"Read Version D","Relational, read only version D",BEE,HONEY,Study1,S,63,32,Study,User,-,,Study/JOL,"Study Phase2",1520,,,-1,-1,,,,1
w104048690_kt,q2eaha2igq,Relational_NO_JOL,1,226,2020-05-01T11:38:26-07:00,2.1468229293823,4,versionC_stim.csv,READVersionD.csv,"Read Version D","Relational, read only version D",WOMAN,LIFT,Study1,U,69,27,Study,User,-,,Study/JOL,"Study Phase2",1541,,,-1,-1,,,,1
w104048690_kt,q2eaha2igq,Relational_NO_JOL,1,227,2020-05-01T11:38:28-07:00,2.1373579502106,4,versionC_stim.csv,READVersionD.csv,"Read Version D","Relational, read only version D",WAR,REVOLUTION,Study1,B,20,28,Study,User,-,,Study/JOL,"Study Phase2",1505,,,-1,-1,,,,1
w104048690_kt,q2eaha2igq,Relational_NO_JOL,1,228,2020-05-01T11:38:31-07:00,3.0786921977997,4,versionC_stim.csv,READVersionD.csv,"Read Version D","Relational, read only version D",LION,ART,Study1,U,79,78,Study,User,-,,Study/JOL,"Study Phase2",2211,,,-1,-1,,,,1
w104048690_kt,q2eaha2igq,Relational_NO_JOL,1,229,2020-05-01T11:38:34-07:00,2.6977128982544,4,versionC_stim.csv,READVersionD.csv,"Read Version D","Relational, read only version D",FOOT,SHOE,Study1,S,60,16,Study,User,-,,Study/JOL,"Study Phase2",2078,,,-1,-1,,,,1
w104048690_kt,q2eaha2igq,Relational_NO_JOL,1,230,2020-05-01T11:38:36-07:00,2.2844049930573,4,versionC_stim.csv,READVersionD.csv,"Read Version D","Relational, read only version D",VASE,KING,Study1,U,85,35,Study,User,-,,Study/JOL,"Study Phase2",1625,,,-1,-1,,,,1
w104048690_kt,q2eaha2igq,Relational_NO_JOL,1,231,2020-05-01T11:38:39-07:00,2.2514169216156,4,versionC_stim.csv,READVersionD.csv,"Read Version D","Relational, read only version D",SALAD,LETTUCE,Study1,S,59,9,Study,User,-,,Study/JOL,"Study Phase2",1606,,,-1,-1,,,,1
w104048690_kt,q2eaha2igq,Relational_NO_JOL,1,232,2020-05-01T11:38:41-07:00,2.3046231269836,4,versionC_stim.csv,READVersionD.csv,"Read Version D","Relational, read only version D",HAMMER,CHISEL,Study1,B,9,12,Study,User,-,,Study/JOL,"Study Phase2",1663,,,-1,-1,,,,1
w104048690_kt,q2eaha2igq,Relational_NO_JOL,1,233,2020-05-01T11:38:43-07:00,2.5156760215759,4,versionC_stim.csv,READVersionD.csv,"Read Version D","Relational, read only version D",DEFINITION,MEANING,Study1,S,62,56,Study,User,-,,Study/JOL,"Study Phase2",1715,,,-1,-1,,,,1
w104048690_kt,q2eaha2igq,Relational_NO_JOL,1,234,2020-05-01T11:38:45-07:00,1.9798858165741,4,versionC_stim.csv,READVersionD.csv,"Read Version D","Relational, read only version D",DESIGN,ARCHITECTURE,Study1,S,51,11,Study,User,-,,Study/JOL,"Study Phase2",1428,,,-1,-1,,,,1
w104048690_kt,q2eaha2igq,Relational_NO_JOL,1,235,2020-05-01T11:38:47-07:00,1.7989320755005,4,versionC_stim.csv,READVersionD.csv,"Read Version D","Relational, read only version D",WASTE,DUMP,Study1,S,49,85,Study,User,-,,Study/JOL,"Study Phase2",1180,,,-1,-1,,,,1
w104048690_kt,q2eaha2igq,Relational_NO_JOL,1,236,2020-05-01T11:38:49-07:00,1.8969609737396,4,versionC_stim.csv,READVersionD.csv,"Read Version D","Relational, read only version D",TOILET,BATHROOM,Study1,S,58,61,Study,User,-,,Study/JOL,"Study Phase2",1137,,,-1,-1,,,,1
w104048690_kt,q2eaha2igq,Relational_NO_JOL,1,237,2020-05-01T11:38:51-07:00,2.1328060626984,4,versionC_stim.csv,READVersionD.csv,"Read Version D","Relational, read only version D",FUTURE,PAST,Study1,S,61,60,Study,User,-,,Study/JOL,"Study Phase2",1407,,,-1,-1,,,,1
w104048690_kt,q2eaha2igq,Relational_NO_JOL,1,238,2020-05-01T11:38:53-07:00,2.0193090438843,4,versionC_stim.csv,READVersionD.csv,"Read Version D","Relational, read only version D",JURY,TRIAL,Study1,S,50,38,Study,User,-,,Study/JOL,"Study Phase2",1387,,,-1,-1,,,,1
w104048690_kt,q2eaha2igq,Relational_NO_JOL,1,239,2020-05-01T11:38:55-07:00,2.0604419708252,4,versionC_stim.csv,READVersionD.csv,"Read Version D","Relational, read only version D",BLAZE,FIRE,Study1,F,45,15,Study,User,-,,Study/JOL,"Study Phase2",1409,,,-1,-1,,,,1
w104048690_kt,q2eaha2igq,Relational_NO_JOL,1,240,2020-05-01T11:38:58-07:00,2.4586279392242,4,versionC_stim.csv,READVersionD.csv,"Read Version D","Relational, read only version D",OUT,WAY,Study1,B,16,22,Study,User,-,,Study/JOL,"Study Phase2",1804,,,-1,-1,,,,1
w104048690_kt,q2eaha2igq,Relational_NO_JOL,1,241,2020-05-01T11:39:01-07:00,2.7813150882721,4,versionC_stim.csv,READVersionD.csv,"Read Version D","Relational, read only version D",CAVE,DARK,Study1,F,28,36,Study,User,-,,Study/JOL,"Study Phase2",2143,,,-1,-1,,,,1
w104048690_kt,q2eaha2igq,Relational_NO_JOL,1,242,2020-05-01T11:39:03-07:00,2.5589280128479,4,versionC_stim.csv,READVersionD.csv,"Read Version D","Relational, read only version D",PILOT,PLANE,Study1,F,44,25,Study,User,-,,Study/JOL,"Study Phase2",1645,,,-1,-1,,,,1
w104048690_kt,q2eaha2igq,Relational_NO_JOL,1,243,2020-05-01T11:39:06-07:00,2.5289218425751,4,versionC_stim.csv,READVersionD.csv,"Read Version D","Relational, read only version D",HAND,FIX,Study1,U,75,8,Study,User,-,,Study/JOL,"Study Phase2",1763,,,-1,-1,,,,1
w104048690_kt,q2eaha2igq,Relational_NO_JOL,1,244,2020-05-01T11:39:08-07:00,2.3937191963196,4,versionC_stim.csv,READVersionD.csv,"Read Version D","Relational, read only version D",CLUTTER,PUSHER,Study1,U,66,66,Study,User,-,,Study/JOL,"Study Phase2",1807,,,-1,-1,,,,1
w104048690_kt,q2eaha2igq,Relational_NO_JOL,1,245,2020-05-01T11:39:10-07:00,2.3129680156708,4,versionC_stim.csv,READVersionD.csv,"Read Version D","Relational, read only version D",END,BEGIN,Study1,S,54,41,Study,User,-,,Study/JOL,"Study Phase2",1568,,,-1,-1,,,,1
w104048690_kt,q2eaha2igq,Relational_NO_JOL,1,246,2020-05-01T11:39:13-07:00,2.8681588172913,4,versionC_stim.csv,READVersionD.csv,"Read Version D","Relational, read only version D",POSITION,MACHINE,Study1,U,76,55,Study,User,-,,Study/JOL,"Study Phase2",2215,,,-1,-1,,,,1
w104048690_kt,q2eaha2igq,Relational_NO_JOL,1,247,2020-05-01T11:39:15-07:00,2.0973401069641,4,versionC_stim.csv,READVersionD.csv,"Read Version D","Relational, read only version D",SITE,LOCATION,Study1,S,48,34,Study,User,-,,Study/JOL,"Study Phase2",1528,,,-1,-1,,,,1
w104048690_kt,q2eaha2igq,Relational_NO_JOL,1,248,2020-05-01T11:39:59-07:00,43.561232089996,4,versionC_stim.csv,READVersionD.csv,"Read Version D","Relational, read only version D",SIP,DRINK,Study1,F,27,18,Study,User,-,,Study/JOL,"Study Phase2",42843,,,-1,-1,,,,1
w104048690_kt,q2eaha2igq,Relational_NO_JOL,1,249,2020-05-01T11:40:02-07:00,3.0559659004211,4,versionC_stim.csv,READVersionD.csv,"Read Version D","Relational, read only version D",ROCK,GEOLOGY,Study1,B,19,42,Study,User,-,,Study/JOL,"Study Phase2",2134,,,-1,-1,,,,1
w104048690_kt,q2eaha2igq,Relational_NO_JOL,1,250,2020-05-01T11:40:04-07:00,2.2770750522614,4,versionC_stim.csv,READVersionD.csv,"Read Version D","Relational, read only version D",DIVISION,MATH,Study1,F,33,48,Study,User,-,,Study/JOL,"Study Phase2",1581,,,-1,-1,,,,1
w104048690_kt,q2eaha2igq,Relational_NO_JOL,1,251,2020-05-01T11:40:07-07:00,2.7725849151611,4,versionC_stim.csv,READVersionD.csv,"Read Version D","Relational, read only version D",ATTIRE,CLOTHES,Study1,F,43,77,Study,User,-,,Study/JOL,"Study Phase2",2072,,,-1,-1,,,,1
w104048690_kt,q2eaha2igq,Relational_NO_JOL,1,252,2020-05-01T11:40:09-07:00,2.4627389907837,4,versionC_stim.csv,READVersionD.csv,"Read Version D","Relational, read only version D",BELT,SOON,Study1,U,70,80,Study,User,-,,Study/JOL,"Study Phase2",1873,,,-1,-1,,,,1
w104048690_kt,q2eaha2igq,Relational_NO_JOL,1,253,2020-05-01T11:40:12-07:00,2.2414169311523,4,versionC_stim.csv,READVersionD.csv,"Read Version D","Relational, read only version D",CHILI,HOT,Study1,F,37,83,Study,User,-,,Study/JOL,"Study Phase2",1533,,,-1,-1,,,,1
w104048690_kt,q2eaha2igq,Relational_NO_JOL,1,254,2020-05-01T11:40:14-07:00,2.0700080394745,4,versionC_stim.csv,READVersionD.csv,"Read Version D","Relational, read only version D",DROWSY,SLEEP,Study1,F,41,40,Study,User,-,,Study/JOL,"Study Phase2",1477,,,-1,-1,,,,1
w104048690_kt,q2eaha2igq,Relational_NO_JOL,1,255,2020-05-01T11:40:16-07:00,1.9003150463104,4,versionC_stim.csv,READVersionD.csv,"Read Version D","Relational, read only version D",FAMINE,HUNGER,Study1,F,40,21,Study,User,-,,Study/JOL,"Study Phase2",1255,,,-1,-1,,,,1
w104048690_kt,q2eaha2igq,Relational_NO_JOL,1,256,2020-05-01T11:40:18-07:00,1.8736228942871,4,versionC_stim.csv,READVersionD.csv,"Read Version D","Relational, read only version D",BRONZE,ARTERY,Study1,U,74,49,Study,User,-,,Study/JOL,"Study Phase2",1283,,,-1,-1,,,,1
w104048690_kt,q2eaha2igq,Relational_NO_JOL,1,257,2020-05-01T11:40:19-07:00,1.4904820919037,4,versionC_stim.csv,READVersionD.csv,"Read Version D","Relational, read only version D",SIGHT,DEBATE,Study1,U,73,29,Study,User,-,,Study/JOL,"Study Phase2",861,,,-1,-1,,,,1
w104048690_kt,q2eaha2igq,Relational_NO_JOL,1,258,2020-05-01T11:40:21-07:00,1.8202180862427,4,versionC_stim.csv,READVersionD.csv,"Read Version D","Relational, read only version D",ACCIDENT,STRONG,Study1,U,80,65,Study,User,-,,Study/JOL,"Study Phase2",1221,,,-1,-1,,,,1
w104048690_kt,q2eaha2igq,Relational_NO_JOL,1,259,2020-05-01T11:40:22-07:00,1.5430989265442,4,versionC_stim.csv,READVersionD.csv,"Read Version D","Relational, read only version D",FLOWER,ORCHID,Study1,B,24,10,Study,User,-,,Study/JOL,"Study Phase2",933,,,-1,-1,,,,1
w104048690_kt,q2eaha2igq,Relational_NO_JOL,1,260,2020-05-01T11:40:24-07:00,1.6211180686951,4,versionC_stim.csv,READVersionD.csv,"Read Version D","Relational, read only version D",BAR,GRILL,Study1,S,52,14,Study,User,-,,Study/JOL,"Study Phase2",904,,,-1,-1,,,,1
w104048690_kt,q2eaha2igq,Relational_NO_JOL,1,261,2020-05-01T11:40:38-07:00,14.276404857635,4,versionC_stim.csv,READVersionD.csv,"Read Version D","Relational, read only version D",WATER,BRIDGE,Study1,B,18,31,Study,User,-,,Study/JOL,"Study Phase2",13584,,,-1,-1,,,,1
w104048690_kt,q2eaha2igq,Relational_NO_JOL,1,262,2020-05-01T11:40:40-07:00,2.084792137146,4,versionC_stim.csv,READVersionD.csv,"Read Version D","Relational, read only version D",MONEY,WAGE,Study1,B,8,75,Study,User,-,,Study/JOL,"Study Phase2",1267,,,-1,-1,,,,1
w104048690_kt,q2eaha2igq,Relational_NO_JOL,1,263,2020-05-01T11:40:43-07:00,2.3395359516144,4,versionC_stim.csv,READVersionD.csv,"Read Version D","Relational, read only version D",LIVER,KIDNEY,Study1,S,53,7,Study,User,-,,Study/JOL,"Study Phase2",1682,,,-1,-1,,,,1
w104048690_kt,q2eaha2igq,Relational_NO_JOL,1,264,2020-05-01T11:40:44-07:00,1.6705710887909,4,versionC_stim.csv,READVersionD.csv,"Read Version D","Relational, read only version D",BIRD,SWAN,Study1,B,14,52,Study,User,-,,Study/JOL,"Study Phase2",1118,,,-1,-1,,,,1
w104048690_kt,q2eaha2igq,Relational_NO_JOL,1,265,2020-05-01T11:40:46-07:00,1.8866539001465,4,versionC_stim.csv,READVersionD.csv,"Read Version D","Relational, read only version D",BUSINESS,DEATH,Study1,U,72,23,Study,User,-,,Study/JOL,"Study Phase2",1273,,,-1,-1,,,,1
w104048690_kt,q2eaha2igq,Relational_NO_JOL,1,266,2020-05-01T11:40:48-07:00,1.8421549797058,4,versionC_stim.csv,READVersionD.csv,"Read Version D","Relational, read only version D",RACKET,BALL,Study1,F,38,43,Study,User,-,,Study/JOL,"Study Phase2",941,,,-1,-1,,,,1
w104048690_kt,q2eaha2igq,Relational_NO_JOL,1,267,2020-05-01T11:40:50-07:00,1.4412620067596,4,versionC_stim.csv,READVersionD.csv,"Read Version D","Relational, read only version D",WASP,BUG,Study1,F,32,51,Study,User,-,,Study/JOL,"Study Phase2",743,,,-1,-1,,,,1
w104048690_kt,q2eaha2igq,Relational_NO_JOL,1,268,2020-05-01T11:40:51-07:00,1.455235004425,4,versionC_stim.csv,READVersionD.csv,"Read Version D","Relational, read only version D",NEWS,EDITOR,Study1,B,10,50,Study,User,-,,Study/JOL,"Study Phase2",859,,,-1,-1,,,,1
w104048690_kt,q2eaha2igq,Relational_NO_JOL,1,269,2020-05-01T11:40:53-07:00,1.7248170375824,4,versionC_stim.csv,READVersionD.csv,"Read Version D","Relational, read only version D",TUCK,ALLOW,Study1,U,78,13,Study,User,-,,Study/JOL,"Study Phase2",953,,,-1,-1,,,,1
w104048690_kt,q2eaha2igq,Relational_NO_JOL,1,270,2020-05-01T11:40:55-07:00,1.9244790077209,4,versionC_stim.csv,READVersionD.csv,"Read Version D","Relational, read only version D",WOULD,CASH,Study1,U,83,72,Study,User,-,,Study/JOL,"Study Phase2",1154,,,-1,-1,,,,1
w104048690_kt,q2eaha2igq,Relational_NO_JOL,1,271,2020-05-01T11:40:57-07:00,2.0125319957733,4,versionC_stim.csv,READVersionD.csv,"Read Version D","Relational, read only version D",CHOCOLATE,MALT,BUFFER2,Buffer,88,87,Study,User,-,,Study/JOL,BUFFER4,1333,,,-1,-1,,,,1
w104048690_kt,q2eaha2igq,Relational_NO_JOL,1,272,2020-05-01T11:40:58-07:00,1.7107470035553,4,versionC_stim.csv,READVersionD.csv,"Read Version D","Relational, read only version D",SPACE,MOON,BUFFER2,Buffer,89,91,Study,User,-,,Study/JOL,BUFFER4,957,,,-1,-1,,,,1
w104048690_kt,q2eaha2igq,Relational_NO_JOL,1,273,2020-05-01T11:41:00-07:00,2.0237629413605,4,versionC_stim.csv,READVersionD.csv,"Read Version D","Relational, read only version D",STUFF,THING,BUFFER2,Buffer,90,88,Study,User,-,,Study/JOL,BUFFER4,1236,,,-1,-1,,,,1
w104048690_kt,q2eaha2igq,Relational_NO_JOL,1,274,2020-05-01T11:41:02-07:00,1.8129560947418,4,versionC_stim.csv,READVersionD.csv,"Read Version D","Relational, read only version D",POLICE,SHERRIF,BUFFER2,Buffer,87,89,Study,User,-,,Study/JOL,BUFFER4,1136,,,-1,-1,,,,1
w104048690_kt,q2eaha2igq,Relational_NO_JOL,1,275,2020-05-01T11:41:05-07:00,2.9524369239807,4,versionC_stim.csv,READVersionD.csv,"Read Version D","Relational, read only version D",GOOSE,GEESE,BUFFER2,Buffer,86,90,Study,User,-,,Study/JOL,BUFFER4,2126,,,-1,-1,,,,1
w104048690_kt,q2eaha2igq,Relational_NO_JOL,1,276,2020-05-01T11:41:08-07:00,2.9415700435638,4,versionC_stim.csv,READVersionD.csv,"Read Version D","Relational, read only version D",,,,,,0,Instruct,User,-,"You have completed this section. Please press Enter.",Filler_Instruction,Instruct5,1606,,,-1,-1,,,,1
w104048690_kt,q2eaha2igq,Relational_NO_JOL,1,277,2020-05-01T11:41:39-07:00,31.041393041611,4,versionC_stim.csv,READVersionD.csv,"Read Version D","Relational, read only version D",,,,,,0,FreeRecall,-,10,"What were you supposed to focus on while you studied each pair? (Hint: Think back to the instructions). Type your answer in the space below.",,CHECK3,30252,"HOW THE WORD RELATED TO AND ARE SIMILAR TO EACH OTHER ",0,3232,27778,0,0,,1
w104048690_kt,q2eaha2igq,Relational_NO_JOL,1,278,2020-05-01T11:41:42-07:00,2.4586598873138,4,versionC_stim.csv,READVersionD.csv,"Read Version D","Relational, read only version D",,,,,,0,Instruct,User,-,"You have completed this section. Please press Enter.",Filler_Instruction,Instruct5,1607,,,-1,-1,,,,1
w104048690_kt,q2eaha2igq,Relational_NO_JOL,1,279,2020-05-01T11:43:42-07:00,120.64133691788,4,versionC_stim.csv,READVersionD.csv,"Read Version D","Relational, read only version D",,,,,,0,FreeRecall,120,120,"Please list the 50 US states in reverse alphabetical order (z - a). The task will automatically advance to the next screen after two minutes.",,Filler2,120009,"Wyoming Wisconsin West Virginia Washington Virginia Vermont Utah Texas Tennessee South Dakota South Caroline Rhode Island Pennsylvania Oregon Oklahoma Ohio North Dakota North Carolina New York New Mexico New Hampshire Nevada Nebraska Mon ",0,8930,119622,0,0,,1
w104048690_kt,q2eaha2igq,Relational_NO_JOL,1,280,2020-05-01T11:44:00-07:00,17.941239118576,4,versionC_stim.csv,READVersionD.csv,"Read Version D","Relational, read only version D",,,,,,0,Instruct,-,10,"You will now be presented with the first word from each of the previously studied item pairs. Please type the missing word. If you do not know the word, you may guess or press Enter to skip forward to the next pair.",,Instruct6,16912,,,-1,-1,,,,1
w104048690_kt,q2eaha2igq,Relational_NO_JOL,1,281,2020-05-01T11:44:05-07:00,4.4187231063843,4,versionC_stim.csv,READVersionD.csv,"Read Version D","Relational, read only version D",FAMINE,HUNGER,Study1,F,40,21,Test,User,-,,Recall,Recall2,3712,hungry,83.333333333333,1374,3240,0,1,,1
w104048690_kt,q2eaha2igq,Relational_NO_JOL,1,282,2020-05-01T11:44:08-07:00,3.3839848041534,4,versionC_stim.csv,READVersionD.csv,"Read Version D","Relational, read only version D",AMOUNT,NUMBER,Study1,S,47,70,Test,User,-,,Recall,Recall2,2786,cash,0,1912,2368,0,0,,1
w104048690_kt,q2eaha2igq,Relational_NO_JOL,1,283,2020-05-01T11:44:12-07:00,3.9834620952606,4,versionC_stim.csv,READVersionD.csv,"Read Version D","Relational, read only version D",BLAZE,FIRE,Study1,F,45,15,Test,User,-,,Recall,Recall2,2960,hot,0,1149,2723,0,0,,1
w104048690_kt,q2eaha2igq,Relational_NO_JOL,1,284,2020-05-01T11:44:17-07:00,4.6235389709473,4,versionC_stim.csv,READVersionD.csv,"Read Version D","Relational, read only version D",FLOOR,DISCOVER,Study1,U,71,84,Test,User,-,,Recall,Recall2,4008,discover,100,1927,3827,1,1,,1
w104048690_kt,q2eaha2igq,Relational_NO_JOL,1,285,2020-05-01T11:44:22-07:00,5.146075963974,4,versionC_stim.csv,READVersionD.csv,"Read Version D","Relational, read only version D",HAMMER,CHISEL,Study1,B,9,12,Test,User,-,,Recall,Recall2,4563,chisel,100,3001,4307,1,1,,1
w104048690_kt,q2eaha2igq,Relational_NO_JOL,1,286,2020-05-01T11:44:28-07:00,5.8422050476074,4,versionC_stim.csv,READVersionD.csv,"Read Version D","Relational, read only version D",RIDDLE,SUGAR,Study1,U,81,68,Test,User,-,,Recall,Recall2,5276,RHYME,20,4177,5008,0,0,,1
w104048690_kt,q2eaha2igq,Relational_NO_JOL,1,287,2020-05-01T11:44:57-07:00,29.821396112442,4,versionC_stim.csv,READVersionD.csv,"Read Version D","Relational, read only version D",SITE,LOCATION,Study1,S,48,34,Test,User,-,,Recall,Recall2,29154,,0,-1,-1,0,0,,1
w104048690_kt,q2eaha2igq,Relational_NO_JOL,1,288,2020-05-01T11:45:08-07:00,10.342455863953,4,versionC_stim.csv,READVersionD.csv,"Read Version D","Relational, read only version D",ATTIRE,CLOTHES,Study1,F,43,77,Test,User,-,,Recall,Recall2,9404,CLOTHES,100,8324,9235,1,1,,1
w104048690_kt,q2eaha2igq,Relational_NO_JOL,1,289,2020-05-01T11:45:26-07:00,17.933861017227,4,versionC_stim.csv,READVersionD.csv,"Read Version D","Relational, read only version D",POSITION,MACHINE,Study1,U,76,55,Test,User,-,,Recall,Recall2,17187,JOB,0,16723,17011,0,0,,1
w104048690_kt,q2eaha2igq,Relational_NO_JOL,1,290,2020-05-01T11:45:28-07:00,2.341933965683,4,versionC_stim.csv,READVersionD.csv,"Read Version D","Relational, read only version D",BEE,HONEY,Study1,S,63,32,Test,User,-,,Recall,Recall2,1678,HONEY,100,807,1335,1,1,,1
w104048690_kt,q2eaha2igq,Relational_NO_JOL,1,291,2020-05-01T11:45:32-07:00,4.3974831104279,4,versionC_stim.csv,READVersionD.csv,"Read Version D","Relational, read only version D",BUSINESS,DEATH,Study1,U,72,23,Test,User,-,,Recall,Recall2,3749,DEATH,100,2731,3488,1,1,,1
w104048690_kt,q2eaha2igq,Relational_NO_JOL,1,292,2020-05-01T11:45:36-07:00,3.1107518672943,4,versionC_stim.csv,READVersionD.csv,"Read Version D","Relational, read only version D",ENOUGH,FULL,Study1,F,26,74,Test,User,-,,Recall,Recall2,2362,FULL,100,1395,2090,1,1,,1
w104048690_kt,q2eaha2igq,Relational_NO_JOL,1,293,2020-05-01T11:45:40-07:00,4.710410118103,4,versionC_stim.csv,READVersionD.csv,"Read Version D","Relational, read only version D",OUT,WAY,Study1,B,16,22,Test,User,-,,Recall,Recall2,4028,,0,-1,-1,0,0,,1
w104048690_kt,q2eaha2igq,Relational_NO_JOL,1,294,2020-05-01T11:45:56-07:00,15.505614042282,4,versionC_stim.csv,READVersionD.csv,"Read Version D","Relational, read only version D",FANTASTIC,GREAT,Study1,F,35,58,Test,User,-,,Recall,Recall2,11094,GREAT,100,9115,10693,1,1,,1
w104048690_kt,q2eaha2igq,Relational_NO_JOL,1,295,2020-05-01T11:46:09-07:00,13.146667003632,4,versionC_stim.csv,READVersionD.csv,"Read Version D","Relational, read only version D",GROWTH,HEIGHT,Study1,F,30,62,Test,User,-,,Recall,Recall2,12166,,0,-1,-1,0,0,,1
w104048690_kt,q2eaha2igq,Relational_NO_JOL,1,296,2020-05-01T11:46:11-07:00,2.4526808261871,4,versionC_stim.csv,READVersionD.csv,"Read Version D","Relational, read only version D",BRONZE,ARTERY,Study1,U,74,49,Test,User,-,,Recall,Recall2,1683,GOLD,0,1038,1489,0,0,,1
w104048690_kt,q2eaha2igq,Relational_NO_JOL,1,297,2020-05-01T11:46:15-07:00,3.5467391014099,4,versionC_stim.csv,READVersionD.csv,"Read Version D","Relational, read only version D",BIRD,SWAN,Study1,B,14,52,Test,User,-,,Recall,Recall2,2932,SWAN,100,2037,2634,1,1,,1
w104048690_kt,q2eaha2igq,Relational_NO_JOL,1,298,2020-05-01T11:46:17-07:00,2.5485019683838,4,versionC_stim.csv,READVersionD.csv,"Read Version D","Relational, read only version D",SODA,POP,Study1,S,56,64,Test,User,-,,Recall,Recall2,1661,POP,100,876,1228,1,1,,1
w104048690_kt,q2eaha2igq,Relational_NO_JOL,1,299,2020-05-01T11:46:21-07:00,3.2885780334473,4,versionC_stim.csv,READVersionD.csv,"Read Version D","Relational, read only version D",WAR,REVOLUTION,Study1,B,20,28,Test,User,-,,Recall,Recall2,2588,DEATH,26.666666666667,1604,2311,0,0,,1
w104048690_kt,q2eaha2igq,Relational_NO_JOL,1,300,2020-05-01T11:46:25-07:00,4.6656670570374,4,versionC_stim.csv,READVersionD.csv,"Read Version D","Relational, read only version D",CHORE,WORK,Study1,F,39,71,Test,User,-,,Recall,Recall2,4090,JOB,28.571428571429,1706,3917,0,0,,1
w104048690_kt,q2eaha2igq,Relational_NO_JOL,1,301,2020-05-01T11:46:28-07:00,2.9086680412292,4,versionC_stim.csv,READVersionD.csv,"Read Version D","Relational, read only version D",CHILI,HOT,Study1,F,37,83,Test,User,-,,Recall,Recall2,2195,HOT,100,800,1944,1,1,,1
w104048690_kt,q2eaha2igq,Relational_NO_JOL,1,302,2020-05-01T11:46:31-07:00,2.9409999847412,4,versionC_stim.csv,READVersionD.csv,"Read Version D","Relational, read only version D",DROWSY,SLEEP,Study1,F,41,40,Test,User,-,,Recall,Recall2,2258,SLEEPY,90.909090909091,862,2041,0,1,,1
w104048690_kt,q2eaha2igq,Relational_NO_JOL,1,303,2020-05-01T11:46:55-07:00,23.86465382576,4,versionC_stim.csv,READVersionD.csv,"Read Version D","Relational, read only version D",DIVISION,MATH,Study1,F,33,48,Test,User,-,,Recall,Recall2,23185,MATH,100,22125,22841,1,1,,1
w104048690_kt,q2eaha2igq,Relational_NO_JOL,1,304,2020-05-01T11:46:57-07:00,2.3281619548798,4,versionC_stim.csv,READVersionD.csv,"Read Version D","Relational, read only version D",SACKING,DIETARY,Study1,U,67,26,Test,User,-,,Recall,Recall2,1719,,0,-1,-1,0,0,,1
w104048690_kt,q2eaha2igq,Relational_NO_JOL,1,305,2020-05-01T11:47:01-07:00,3.1357522010803,4,versionC_stim.csv,READVersionD.csv,"Read Version D","Relational, read only version D",DEFINITION,MEANING,Study1,S,62,56,Test,User,-,,Recall,Recall2,2512,MEANING,100,1141,2372,1,1,,1
w104048690_kt,q2eaha2igq,Relational_NO_JOL,1,306,2020-05-01T11:47:03-07:00,2.4120488166809,4,versionC_stim.csv,READVersionD.csv,"Read Version D","Relational, read only version D",ATTORNEY,LAW,Study1,F,34,33,Test,User,-,,Recall,Recall2,1751,LAW,100,1069,1523,1,1,,1
w104048690_kt,q2eaha2igq,Relational_NO_JOL,1,307,2020-05-01T11:47:20-07:00,17.135895013809,4,versionC_stim.csv,READVersionD.csv,"Read Version D","Relational, read only version D",NEWS,EDITOR,Study1,B,10,50,Test,User,-,,Recall,Recall2,16349,,0,-1,-1,0,0,,1
w104048690_kt,q2eaha2igq,Relational_NO_JOL,1,308,2020-05-01T11:47:24-07:00,3.5360760688782,4,versionC_stim.csv,READVersionD.csv,"Read Version D","Relational, read only version D",JURY,TRIAL,Study1,S,50,38,Test,User,-,,Recall,Recall2,2650,COURT,20,1715,2405,0,0,,1
w104048690_kt,q2eaha2igq,Relational_NO_JOL,1,309,2020-05-01T11:47:28-07:00,3.9417181015015,4,versionC_stim.csv,READVersionD.csv,"Read Version D","Relational, read only version D",SICK,HIDE,Study1,U,84,67,Test,User,-,,Recall,Recall2,3104,,0,-1,-1,0,0,,1
w104048690_kt,q2eaha2igq,Relational_NO_JOL,1,310,2020-05-01T11:47:34-07:00,6.4095668792725,4,versionC_stim.csv,READVersionD.csv,"Read Version D","Relational, read only version D",MONEY,WAGE,Study1,B,8,75,Test,User,-,,Recall,Recall2,5818,WAGE,100,5035,5575,1,1,,1
w104048690_kt,q2eaha2igq,Relational_NO_JOL,1,311,2020-05-01T11:48:08-07:00,34.27650809288,4,versionC_stim.csv,READVersionD.csv,"Read Version D","Relational, read only version D",BELT,SOON,Study1,U,70,80,Test,User,-,,Recall,Recall2,33534,,0,-1,-1,0,0,,1
w104048690_kt,q2eaha2igq,Relational_NO_JOL,1,312,2020-05-01T11:48:14-07:00,5.792228937149,4,versionC_stim.csv,READVersionD.csv,"Read Version D","Relational, read only version D",LION,ART,Study1,U,79,78,Test,User,-,,Recall,Recall2,5012,TIGER,25,2365,4744,0,0,,1
w104048690_kt,q2eaha2igq,Relational_NO_JOL,1,313,2020-05-01T11:48:17-07:00,3.3733630180359,4,versionC_stim.csv,READVersionD.csv,"Read Version D","Relational, read only version D",ROUND,CIRCLE,Study1,S,65,45,Test,User,-,,Recall,Recall2,2691,CIRCLE,100,1126,1910,1,1,,1
w104048690_kt,q2eaha2igq,Relational_NO_JOL,1,314,2020-05-01T11:48:21-07:00,3.234678030014,4,versionC_stim.csv,READVersionD.csv,"Read Version D","Relational, read only version D",WASTE,DUMP,Study1,S,49,85,Test,User,-,,Recall,Recall2,2555,LITTER,0,1447,2277,0,0,,1
w104048690_kt,q2eaha2igq,Relational_NO_JOL,1,315,2020-05-01T11:48:38-07:00,17.155300855637,4,versionC_stim.csv,READVersionD.csv,"Read Version D","Relational, read only version D",SEIZE,TAKE,Study1,F,29,46,Test,User,-,,Recall,Recall2,16361,TAKE,100,15653,16204,1,1,,1
w104048690_kt,q2eaha2igq,Relational_NO_JOL,1,316,2020-05-01T11:48:55-07:00,17.247364044189,4,versionC_stim.csv,READVersionD.csv,"Read Version D","Relational, read only version D",HAND,FIX,Study1,U,75,8,Test,User,-,,Recall,Recall2,16468,FIX,100,3170,16295,1,1,,1
w104048690_kt,q2eaha2igq,Relational_NO_JOL,1,317,2020-05-01T11:48:58-07:00,2.541365146637,4,versionC_stim.csv,READVersionD.csv,"Read Version D","Relational, read only version D",WASP,BUG,Study1,F,32,51,Test,User,-,,Recall,Recall2,1706,BUG,100,1173,1510,1,1,,1
w104048690_kt,q2eaha2igq,Relational_NO_JOL,1,318,2020-05-01T11:49:01-07:00,3.2271218299866,4,versionC_stim.csv,READVersionD.csv,"Read Version D","Relational, read only version D",FOOT,SHOE,Study1,S,60,16,Test,User,-,,Recall,Recall2,2573,SHOE,100,1959,2335,1,1,,1
w104048690_kt,q2eaha2igq,Relational_NO_JOL,1,319,2020-05-01T11:49:04-07:00,3.2442471981049,4,versionC_stim.csv,READVersionD.csv,"Read Version D","Relational, read only version D",FISH,TUNA,Study1,B,25,53,Test,User,-,,Recall,Recall2,2642,SHRIMP,0,1111,2198,0,0,,1
w104048690_kt,q2eaha2igq,Relational_NO_JOL,1,320,2020-05-01T11:49:08-07:00,3.4472417831421,4,versionC_stim.csv,READVersionD.csv,"Read Version D","Relational, read only version D",DOG,PAW,Study1,B,15,19,Test,User,-,,Recall,Recall2,2609,FURRY,0,1626,2221,0,0,,1
w104048690_kt,q2eaha2igq,Relational_NO_JOL,1,321,2020-05-01T11:49:10-07:00,2.9037470817566,4,versionC_stim.csv,READVersionD.csv,"Read Version D","Relational, read only version D",ADD,VALLEY,Study1,U,82,76,Test,User,-,,Recall,Recall2,2251,MATH,20,1515,1937,0,0,,1
w104048690_kt,q2eaha2igq,Relational_NO_JOL,1,322,2020-05-01T11:49:13-07:00,2.4911439418793,4,versionC_stim.csv,READVersionD.csv,"Read Version D","Relational, read only version D",CHEESE,WINE,Study1,S,57,81,Test,User,-,,Recall,Recall2,1826,WINE,100,1246,1605,1,1,,1
w104048690_kt,q2eaha2igq,Relational_NO_JOL,1,323,2020-05-01T11:49:16-07:00,2.9479520320892,4,versionC_stim.csv,READVersionD.csv,"Read Version D","Relational, read only version D",WORD,SENTENCE,Study1,F,31,17,Test,User,-,,Recall,Recall2,2140,,0,-1,-1,0,0,,1
w104048690_kt,q2eaha2igq,Relational_NO_JOL,1,324,2020-05-01T11:49:19-07:00,3.1470639705658,4,versionC_stim.csv,READVersionD.csv,"Read Version D","Relational, read only version D",CLUTTER,PUSHER,Study1,U,66,66,Test,User,-,,Recall,Recall2,2423,DUMP,20,1614,2142,0,0,,1
w104048690_kt,q2eaha2igq,Relational_NO_JOL,1,325,2020-05-01T11:49:23-07:00,3.7531921863556,4,versionC_stim.csv,READVersionD.csv,"Read Version D","Relational, read only version D",WOMAN,LIFT,Study1,U,69,27,Test,User,-,,Recall,Recall2,3093,FEMALE,20,2070,2888,0,0,,1
w104048690_kt,q2eaha2igq,Relational_NO_JOL,1,326,2020-05-01T11:49:26-07:00,3.3502869606018,4,versionC_stim.csv,READVersionD.csv,"Read Version D","Relational, read only version D",WATER,BRIDGE,Study1,B,18,31,Test,User,-,,Recall,Recall2,2639,DRINK,36.363636363636,1721,2337,0,0,,1
w104048690_kt,q2eaha2igq,Relational_NO_JOL,1,327,2020-05-01T11:49:31-07:00,4.4665989875793,4,versionC_stim.csv,READVersionD.csv,"Read Version D","Relational, read only version D",PILOT,PLANE,Study1,F,44,25,Test,User,-,,Recall,Recall2,3853,PLANE,100,999,2663,1,1,,1
w104048690_kt,q2eaha2igq,Relational_NO_JOL,1,328,2020-05-01T11:49:34-07:00,3.4020240306854,4,versionC_stim.csv,READVersionD.csv,"Read Version D","Relational, read only version D",SALAD,LETTUCE,Study1,S,59,9,Test,User,-,,Recall,Recall2,2759,DRESSING,13.333333333333,1181,2580,0,0,,1
w104048690_kt,q2eaha2igq,Relational_NO_JOL,1,329,2020-05-01T11:49:36-07:00,2.1670029163361,4,versionC_stim.csv,READVersionD.csv,"Read Version D","Relational, read only version D",ASSIGNMENT,DUE,Study1,S,46,47,Test,User,-,,Recall,Recall2,1473,DUE,100,997,1211,1,1,,1
w104048690_kt,q2eaha2igq,Relational_NO_JOL,1,330,2020-05-01T11:49:40-07:00,4.1048030853271,4,versionC_stim.csv,READVersionD.csv,"Read Version D","Relational, read only version D",CLEAN,HYGIENE,Study1,B,17,57,Test,User,-,,Recall,Recall2,3500,MESSY,16.666666666667,2018,3240,0,0,,1
w104048690_kt,q2eaha2igq,Relational_NO_JOL,1,331,2020-05-01T11:49:47-07:00,6.7237219810486,4,versionC_stim.csv,READVersionD.csv,"Read Version D","Relational, read only version D",LIVER,KIDNEY,Study1,S,53,7,Test,User,-,,Recall,Recall2,2293,KIDNEY,100,1021,1915,1,1,,1
w104048690_kt,q2eaha2igq,Relational_NO_JOL,1,332,2020-05-01T11:49:53-07:00,5.9692268371582,4,versionC_stim.csv,READVersionD.csv,"Read Version D","Relational, read only version D",WOULD,CASH,Study1,U,83,72,Test,User,-,,Recall,Recall2,4896,MONEY,0,1752,4554,0,0,,1
w104048690_kt,q2eaha2igq,Relational_NO_JOL,1,333,2020-05-01T11:49:56-07:00,2.6035480499268,4,versionC_stim.csv,READVersionD.csv,"Read Version D","Relational, read only version D",SIP,DRINK,Study1,F,27,18,Test,User,-,,Recall,Recall2,1998,DRINK,100,1032,1709,1,1,,1
w104048690_kt,q2eaha2igq,Relational_NO_JOL,1,334,2020-05-01T11:50:05-07:00,9.658390045166,4,versionC_stim.csv,READVersionD.csv,"Read Version D","Relational, read only version D",ROCK,GEOLOGY,Study1,B,19,42,Test,User,-,,Recall,Recall2,8995,GEOLOGY,100,7269,8453,1,1,,1
w104048690_kt,q2eaha2igq,Relational_NO_JOL,1,335,2020-05-01T11:50:09-07:00,3.5325078964233,4,versionC_stim.csv,READVersionD.csv,"Read Version D","Relational, read only version D",HUNGRY,PARK,Study1,U,68,82,Test,User,-,,Recall,Recall2,2693,FAMINE,20,1358,2538,0,0,,1
w104048690_kt,q2eaha2igq,Relational_NO_JOL,1,336,2020-05-01T11:50:12-07:00,2.7483019828796,4,versionC_stim.csv,READVersionD.csv,"Read Version D","Relational, read only version D",BAD,DELINQUENT,Study1,B,6,39,Test,User,-,,Recall,Recall2,2071,EVIL,28.571428571429,1174,1765,0,0,,1
w104048690_kt,q2eaha2igq,Relational_NO_JOL,1,337,2020-05-01T11:50:15-07:00,3.778480052948,4,versionC_stim.csv,READVersionD.csv,"Read Version D","Relational, read only version D",STENCH,SMELL,Study1,F,42,54,Test,User,-,,Recall,Recall2,3168,SMELL,100,2336,2964,1,1,,1
w104048690_kt,q2eaha2igq,Relational_NO_JOL,1,338,2020-05-01T11:50:47-07:00,31.823923110962,4,versionC_stim.csv,READVersionD.csv,"Read Version D","Relational, read only version D",VASE,KING,Study1,U,85,35,Test,User,-,,Recall,Recall2,30999,PLANT,22.222222222222,29361,30800,0,0,,1
w104048690_kt,q2eaha2igq,Relational_NO_JOL,1,339,2020-05-01T11:50:51-07:00,3.9345219135284,4,versionC_stim.csv,READVersionD.csv,"Read Version D","Relational, read only version D",SIGHT,DEBATE,Study1,U,73,29,Test,User,-,,Recall,Recall2,3312,SIZE,20,2145,3105,0,0,,1
w104048690_kt,q2eaha2igq,Relational_NO_JOL,1,340,2020-05-01T11:50:54-07:00,2.7926499843597,4,versionC_stim.csv,READVersionD.csv,"Read Version D","Relational, read only version D",BAR,GRILL,Study1,S,52,14,Test,User,-,,Recall,Recall2,2215,DRINK,40,1308,1972,0,0,,1
w104048690_kt,q2eaha2igq,Relational_NO_JOL,1,341,2020-05-01T11:50:57-07:00,3.1009030342102,4,versionC_stim.csv,READVersionD.csv,"Read Version D","Relational, read only version D",LATCH,KEY,Study1,F,36,20,Test,User,-,,Recall,Recall2,2458,HANDLE,22.222222222222,1534,2291,0,0,,1
w104048690_kt,q2eaha2igq,Relational_NO_JOL,1,342,2020-05-01T11:51:00-07:00,2.8859739303589,4,versionC_stim.csv,READVersionD.csv,"Read Version D","Relational, read only version D",COW,HERD,Study1,B,22,86,Test,User,-,,Recall,Recall2,2050,MILK,0,1317,1806,0,0,,1
w104048690_kt,q2eaha2igq,Relational_NO_JOL,1,343,2020-05-01T11:51:04-07:00,3.6979579925537,4,versionC_stim.csv,READVersionD.csv,"Read Version D","Relational, read only version D",WIND,BLOW,Study1,S,55,69,Test,User,-,,Recall,Recall2,3000,BLOW,100,2386,2810,1,1,,1
w104048690_kt,q2eaha2igq,Relational_NO_JOL,1,344,2020-05-01T11:51:11-07:00,7.3489370346069,4,versionC_stim.csv,READVersionD.csv,"Read Version D","Relational, read only version D",END,BEGIN,Study1,S,54,41,Test,User,-,,Recall,Recall2,6685,ADJORN,18.181818181818,1549,6373,0,0,,1
w104048690_kt,q2eaha2igq,Relational_NO_JOL,1,345,2020-05-01T11:51:13-07:00,2.3410611152649,4,versionC_stim.csv,READVersionD.csv,"Read Version D","Relational, read only version D",RACKET,BALL,Study1,F,38,43,Test,User,-,,Recall,Recall2,1668,BALL,100,1041,1450,1,1,,1
w104048690_kt,q2eaha2igq,Relational_NO_JOL,1,346,2020-05-01T11:51:17-07:00,3.6674499511719,4,versionC_stim.csv,READVersionD.csv,"Read Version D","Relational, read only version D",STING,HORNET,Study1,B,11,79,Test,User,-,,Recall,Recall2,2712,BITE,20,2104,2589,0,0,,1
w104048690_kt,q2eaha2igq,Relational_NO_JOL,1,347,2020-05-01T11:51:22-07:00,4.8087360858917,4,versionC_stim.csv,READVersionD.csv,"Read Version D","Relational, read only version D",STOMACH,DIGESTION,Study1,B,7,44,Test,User,-,,Recall,Recall2,4174,DIGESTION,100,1210,3739,1,1,,1
w104048690_kt,q2eaha2igq,Relational_NO_JOL,1,348,2020-05-01T11:51:26-07:00,4.1909120082855,4,versionC_stim.csv,READVersionD.csv,"Read Version D","Relational, read only version D",TALK,DISCUSSION,Study1,B,21,24,Test,User,-,,Recall,Recall2,3527,DISCUSSION,100,1112,3187,1,1,,1
w104048690_kt,q2eaha2igq,Relational_NO_JOL,1,349,2020-05-01T11:51:29-07:00,3.2586879730225,4,versionC_stim.csv,READVersionD.csv,"Read Version D","Relational, read only version D",CAR,HAPPY,Study1,U,77,30,Test,User,-,,Recall,Recall2,2569,WINDSHIELD,13.333333333333,1174,2364,0,0,,1
w104048690_kt,q2eaha2igq,Relational_NO_JOL,1,350,2020-05-01T11:51:32-07:00,2.9166669845581,4,versionC_stim.csv,READVersionD.csv,"Read Version D","Relational, read only version D",CARD,CREDIT,Study1,B,23,73,Test,User,-,,Recall,Recall2,2335,GAME,20,1287,2153,0,0,,1
w104048690_kt,q2eaha2igq,Relational_NO_JOL,1,351,2020-05-01T11:51:37-07:00,4.5628938674927,4,versionC_stim.csv,READVersionD.csv,"Read Version D","Relational, read only version D",FLOWER,ORCHID,Study1,B,24,10,Test,User,-,,Recall,Recall2,3925,ORCHID,100,2092,3687,1,1,,1
w104048690_kt,q2eaha2igq,Relational_NO_JOL,1,352,2020-05-01T11:51:43-07:00,6.5860199928284,4,versionC_stim.csv,READVersionD.csv,"Read Version D","Relational, read only version D",PLANT,ROOT,Study1,B,13,59,Test,User,-,,Recall,Recall2,5978,ROOT,100,5222,5734,1,1,,1
w104048690_kt,q2eaha2igq,Relational_NO_JOL,1,353,2020-05-01T11:51:48-07:00,4.4380271434784,4,versionC_stim.csv,READVersionD.csv,"Read Version D","Relational, read only version D",TUCK,ALLOW,Study1,U,78,13,Test,User,-,,Recall,Recall2,3776,ROLL,44.444444444444,2095,3477,0,0,,1
w104048690_kt,q2eaha2igq,Relational_NO_JOL,1,354,2020-05-01T11:53:21-07:00,93.332989931107,4,versionC_stim.csv,READVersionD.csv,"Read Version D","Relational, read only version D",FUTURE,PAST,Study1,S,61,60,Test,User,-,,Recall,Recall2,92584,,0,-1,-1,0,0,,1
w104048690_kt,q2eaha2igq,Relational_NO_JOL,1,355,2020-05-01T11:53:34-07:00,13.413433074951,4,versionC_stim.csv,READVersionD.csv,"Read Version D","Relational, read only version D",ACCIDENT,STRONG,Study1,U,80,65,Test,User,-,,Recall,Recall2,12514,,0,-1,-1,0,0,,1
w104048690_kt,q2eaha2igq,Relational_NO_JOL,1,356,2020-05-01T11:53:37-07:00,2.7946548461914,4,versionC_stim.csv,READVersionD.csv,"Read Version D","Relational, read only version D",CAVE,DARK,Study1,F,28,36,Test,User,-,,Recall,Recall2,2106,DARK,100,1282,1872,1,1,,1
w104048690_kt,q2eaha2igq,Relational_NO_JOL,1,357,2020-05-01T11:53:44-07:00,6.7462830543518,4,versionC_stim.csv,READVersionD.csv,"Read Version D","Relational, read only version D",TOILET,BATHROOM,Study1,S,58,61,Test,User,-,,Recall,Recall2,2795,BATHROOM,100,1479,2488,1,1,,1
w104048690_kt,q2eaha2igq,Relational_NO_JOL,1,358,2020-05-01T11:53:47-07:00,2.596107006073,4,versionC_stim.csv,READVersionD.csv,"Read Version D","Relational, read only version D",COLD,BITTER,Study1,B,12,37,Test,User,-,,Recall,Recall2,1954,BITTER,100,1073,1814,1,1,,1
w104048690_kt,q2eaha2igq,Relational_NO_JOL,1,359,2020-05-01T11:53:56-07:00,9.4983999729156,4,versionC_stim.csv,READVersionD.csv,"Read Version D","Relational, read only version D",DESIGN,ARCHITECTURE,Study1,S,51,11,Test,User,-,,Recall,Recall2,8882,"ARCHITECT ",85.714285714286,840,4987,0,1,,1
w104048690_kt,q2eaha2igq,Relational_NO_JOL,1,360,2020-05-01T11:54:20-07:00,23.728083133698,4,versionC_stim.csv,READVersionD.csv,"Read Version D","Relational, read only version D",CHILD,BABY,Study1,S,64,63,Test,User,-,,Recall,Recall2,14569,BABY,100,13862,14239,1,1,,1
w104048690_kt,q2eaha2igq,Relational_NO_JOL,1,361,2020-05-01T11:54:22-07:00,2.6681349277496,4,versionC_stim.csv,READVersionD.csv,"Read Version D","Relational, read only version D",,,,,,0,Instruct,User,-,"You have completed this section. Please press Enter.",,Instruct7,1983,,,-1,-1,,,,1
w104048690_kt,q2eaha2igq,Relational_NO_JOL,1,362,2020-05-01T11:54:25-07:00,2.1084280014038,4,versionC_stim.csv,READVersionD.csv,"Read Version D","Relational, read only version D",,,,,,0,Instruct,User,-,"The following screen will ask you a few questions abour your experience today. You must complete these questions to receive credit.",,Instruct8,1549,,,-1,-1,,,,1
