Username,ID,ExperimentName,Session,Trial,Date,TimeDif,"Condition Number","Stimuli File","Order File","Condition Description","Condition Notes",Stimuli*Cue,Stimuli*Answer,Stimuli*Shuffle,"Stimuli*Stimuli Notes",Stimuli*Value,Procedure*Item,"Procedure*Trial Type","Procedure*Max Time","Procedure*Min Time",Procedure*Text,"Procedure*Procedure Notes",Procedure*Shuffle,Response*RT,Response*Response,Response*Accuracy,Response*RTfirst,Response*RTlast,Response*strictAcc,Response*lenientAcc,Response*focus,Response*Focus
w939670YN,xx317fmu8w,Relational_NO_JOL,1,1,2020-05-07T10:49:37-07:00,23.328737974167,3,versionC_stim.csv,READVersionC.csv,"Read Version C","Relational, read only version C",,,,,,0,Instruct,-,10,"In this section, you will be presented with a series of word pairs. Please study both items in the pair.",,Instruct15,22914,,,-1,-1,,,,1
w939670YN,xx317fmu8w,Relational_NO_JOL,1,2,2020-05-07T10:49:54-07:00,17.710454940796,3,versionC_stim.csv,READVersionC.csv,"Read Version C","Relational, read only version C",,,,,,0,Instruct,-,15,"As you study, please think about how the two concepts are RELATED to each other. For example, if you see the pair TURTLE-CAT, think about how both are alive, they are both animals, and both can be kept as pets.",,Instruct19,17216,,,-1,-1,,,,1
w939670YN,xx317fmu8w,Relational_NO_JOL,1,3,2020-05-07T10:50:12-07:00,17.097882032394,3,versionC_stim.csv,READVersionC.csv,"Read Version C","Relational, read only version C",,,,,,0,FreeRecall,-,10,"What you should think about as you study each item pair? Type your response in the box below.",,CHECK1,16450,"I should think how they are similar and different.",0,5600,13949,0,0,,1
w939670YN,xx317fmu8w,Relational_NO_JOL,1,4,2020-05-07T10:50:14-07:00,2.549567937851,3,versionC_stim.csv,READVersionC.csv,"Read Version C","Relational, read only version C",,,,,,0,Instruct,User,-,"You will now begin the experiment. Press ENTER when you are ready to begin.",,Instruct000,2067,,,-1,-1,,,,1
w939670YN,xx317fmu8w,Relational_NO_JOL,1,5,2020-05-07T10:50:18-07:00,3.6113090515137,3,versionC_stim.csv,READVersionC.csv,"Read Version C","Relational, read only version C",CATCHER,BASEBALL,BUFFER1,Buffer,2,2,Study,User,-,,Study/JOL,BUFFER,3111,,,-1,-1,,,,1
w939670YN,xx317fmu8w,Relational_NO_JOL,1,6,2020-05-07T10:50:23-07:00,5.615592956543,3,versionC_stim.csv,READVersionC.csv,"Read Version C","Relational, read only version C",BUTTER,PEANUT,BUFFER1,Buffer,3,5,Study,User,-,,Study/JOL,BUFFER,5119,,,-1,-1,,,,1
w939670YN,xx317fmu8w,Relational_NO_JOL,1,7,2020-05-07T10:50:26-07:00,2.6328220367432,3,versionC_stim.csv,READVersionC.csv,"Read Version C","Relational, read only version C",GREEN,TREES,BUFFER1,Buffer,1,3,Study,User,-,,Study/JOL,BUFFER,2161,,,-1,-1,,,,1
w939670YN,xx317fmu8w,Relational_NO_JOL,1,8,2020-05-07T10:50:28-07:00,2.1136810779572,3,versionC_stim.csv,READVersionC.csv,"Read Version C","Relational, read only version C",HIDE,SCARE,BUFFER1,Buffer,4,4,Study,User,-,,Study/JOL,BUFFER,1662,,,-1,-1,,,,1
w939670YN,xx317fmu8w,Relational_NO_JOL,1,9,2020-05-07T10:50:32-07:00,4.0546100139618,3,versionC_stim.csv,READVersionC.csv,"Read Version C","Relational, read only version C",JAM,SPACE,BUFFER1,Buffer,5,6,Study,User,-,,Study/JOL,BUFFER,1349,,,-1,-1,,,,1
w939670YN,xx317fmu8w,Relational_NO_JOL,1,10,2020-05-07T10:50:34-07:00,2.2681670188904,3,versionC_stim.csv,READVersionC.csv,"Read Version C","Relational, read only version C",WOULD,CASH,Study1,U,83,28,Study,User,-,,Study/JOL,"Study Phase",1779,,,-1,-1,,,,1
w939670YN,xx317fmu8w,Relational_NO_JOL,1,11,2020-05-07T10:50:37-07:00,2.0970017910004,3,versionC_stim.csv,READVersionC.csv,"Read Version C","Relational, read only version C",JURY,TRIAL,Study1,S,50,17,Study,User,-,,Study/JOL,"Study Phase",1620,,,-1,-1,,,,1
w939670YN,xx317fmu8w,Relational_NO_JOL,1,12,2020-05-07T10:50:49-07:00,12.37039899826,3,versionC_stim.csv,READVersionC.csv,"Read Version C","Relational, read only version C",ASSIGNMENT,DUE,Study1,S,46,48,Study,User,-,,Study/JOL,"Study Phase",11851,,,-1,-1,,,,1
w939670YN,xx317fmu8w,Relational_NO_JOL,1,13,2020-05-07T10:50:51-07:00,1.7303261756897,3,versionC_stim.csv,READVersionC.csv,"Read Version C","Relational, read only version C",BUSINESS,DEATH,Study1,U,72,32,Study,User,-,,Study/JOL,"Study Phase",1232,,,-1,-1,,,,1
w939670YN,xx317fmu8w,Relational_NO_JOL,1,14,2020-05-07T10:50:59-07:00,8.6238398551941,3,versionC_stim.csv,READVersionC.csv,"Read Version C","Relational, read only version C",ACCIDENT,STRONG,Study1,U,80,25,Study,User,-,,Study/JOL,"Study Phase",8147,,,-1,-1,,,,1
w939670YN,xx317fmu8w,Relational_NO_JOL,1,15,2020-05-07T10:51:15-07:00,15.77681517601,3,versionC_stim.csv,READVersionC.csv,"Read Version C","Relational, read only version C",CHEESE,WINE,Study1,S,57,34,Study,User,-,,Study/JOL,"Study Phase",14277,,,-1,-1,,,,0.925
w939670YN,xx317fmu8w,Relational_NO_JOL,1,16,2020-05-07T10:51:17-07:00,1.9464600086212,3,versionC_stim.csv,READVersionC.csv,"Read Version C","Relational, read only version C",SEIZE,TAKE,Study1,F,29,56,Study,User,-,,Study/JOL,"Study Phase",1347,,,-1,-1,,,,1
w939670YN,xx317fmu8w,Relational_NO_JOL,1,17,2020-05-07T10:51:19-07:00,1.7916259765625,3,versionC_stim.csv,READVersionC.csv,"Read Version C","Relational, read only version C",NEWS,EDITOR,Study1,B,10,67,Study,User,-,,Study/JOL,"Study Phase",1304,,,-1,-1,,,,1
w939670YN,xx317fmu8w,Relational_NO_JOL,1,18,2020-05-07T10:51:20-07:00,1.5987658500671,3,versionC_stim.csv,READVersionC.csv,"Read Version C","Relational, read only version C",DROWSY,SLEEP,Study1,F,41,69,Study,User,-,,Study/JOL,"Study Phase",1140,,,-1,-1,,,,1
w939670YN,xx317fmu8w,Relational_NO_JOL,1,19,2020-05-07T10:51:22-07:00,1.6985499858856,3,versionC_stim.csv,READVersionC.csv,"Read Version C","Relational, read only version C",SALAD,LETTUCE,Study1,S,59,20,Study,User,-,,Study/JOL,"Study Phase",1213,,,-1,-1,,,,1
w939670YN,xx317fmu8w,Relational_NO_JOL,1,20,2020-05-07T10:51:37-07:00,14.465305089951,3,versionC_stim.csv,READVersionC.csv,"Read Version C","Relational, read only version C",FAMINE,HUNGER,Study1,F,40,51,Study,User,-,,Study/JOL,"Study Phase",13992,,,-1,-1,,,,1
w939670YN,xx317fmu8w,Relational_NO_JOL,1,21,2020-05-07T10:51:43-07:00,6.0968101024628,3,versionC_stim.csv,READVersionC.csv,"Read Version C","Relational, read only version C",SICK,HIDE,Study1,U,84,82,Study,User,-,,Study/JOL,"Study Phase",5649,,,-1,-1,,,,1
w939670YN,xx317fmu8w,Relational_NO_JOL,1,22,2020-05-07T10:51:45-07:00,2.202645778656,3,versionC_stim.csv,READVersionC.csv,"Read Version C","Relational, read only version C",CLEAN,HYGIENE,Study1,B,17,19,Study,User,-,,Study/JOL,"Study Phase",1706,,,-1,-1,,,,1
w939670YN,xx317fmu8w,Relational_NO_JOL,1,23,2020-05-07T10:51:49-07:00,4.195130109787,3,versionC_stim.csv,READVersionC.csv,"Read Version C","Relational, read only version C",CHILI,HOT,Study1,F,37,7,Study,User,-,,Study/JOL,"Study Phase",3733,,,-1,-1,,,,1
w939670YN,xx317fmu8w,Relational_NO_JOL,1,24,2020-05-07T10:51:53-07:00,3.9184830188751,3,versionC_stim.csv,READVersionC.csv,"Read Version C","Relational, read only version C",SODA,POP,Study1,S,56,41,Study,User,-,,Study/JOL,"Study Phase",3445,,,-1,-1,,,,1
w939670YN,xx317fmu8w,Relational_NO_JOL,1,25,2020-05-07T10:52:28-07:00,35.00713300705,3,versionC_stim.csv,READVersionC.csv,"Read Version C","Relational, read only version C",OUT,WAY,Study1,B,16,60,Study,User,-,,Study/JOL,"Study Phase",34535,,,-1,-1,,,,1
w939670YN,xx317fmu8w,Relational_NO_JOL,1,26,2020-05-07T10:52:39-07:00,10.878411054611,3,versionC_stim.csv,READVersionC.csv,"Read Version C","Relational, read only version C",COW,HERD,Study1,B,22,78,Study,User,-,,Study/JOL,"Study Phase",10419,,,-1,-1,,,,0.808
w939670YN,xx317fmu8w,Relational_NO_JOL,1,27,2020-05-07T10:52:40-07:00,1.5392889976501,3,versionC_stim.csv,READVersionC.csv,"Read Version C","Relational, read only version C",SIGHT,DEBATE,Study1,U,73,68,Study,User,-,,Study/JOL,"Study Phase",1133,,,-1,-1,,,,1
w939670YN,xx317fmu8w,Relational_NO_JOL,1,28,2020-05-07T10:52:42-07:00,1.4764409065247,3,versionC_stim.csv,READVersionC.csv,"Read Version C","Relational, read only version C",CAR,HAPPY,Study1,U,77,43,Study,User,-,,Study/JOL,"Study Phase",1052,,,-1,-1,,,,1
w939670YN,xx317fmu8w,Relational_NO_JOL,1,29,2020-05-07T10:52:43-07:00,1.3792378902435,3,versionC_stim.csv,READVersionC.csv,"Read Version C","Relational, read only version C",CHILD,BABY,Study1,S,64,47,Study,User,-,,Study/JOL,"Study Phase",993,,,-1,-1,,,,1
w939670YN,xx317fmu8w,Relational_NO_JOL,1,30,2020-05-07T10:52:51-07:00,7.9588930606842,3,versionC_stim.csv,READVersionC.csv,"Read Version C","Relational, read only version C",FLOWER,ORCHID,Study1,B,24,62,Study,User,-,,Study/JOL,"Study Phase",7554,,,-1,-1,,,,1
w939670YN,xx317fmu8w,Relational_NO_JOL,1,31,2020-05-07T10:53:02-07:00,10.822723150253,3,versionC_stim.csv,READVersionC.csv,"Read Version C","Relational, read only version C",FISH,TUNA,Study1,B,25,86,Study,User,-,,Study/JOL,"Study Phase",8128,,,-1,-1,,,,1
w939670YN,xx317fmu8w,Relational_NO_JOL,1,32,2020-05-07T10:53:04-07:00,2.0491178035736,3,versionC_stim.csv,READVersionC.csv,"Read Version C","Relational, read only version C",RACKET,BALL,Study1,F,38,80,Study,User,-,,Study/JOL,"Study Phase",1573,,,-1,-1,,,,1
w939670YN,xx317fmu8w,Relational_NO_JOL,1,33,2020-05-07T10:53:17-07:00,12.937997102737,3,versionC_stim.csv,READVersionC.csv,"Read Version C","Relational, read only version C",WORD,SENTENCE,Study1,F,31,23,Study,User,-,,Study/JOL,"Study Phase",12483,,,-1,-1,,,,0.808
w939670YN,xx317fmu8w,Relational_NO_JOL,1,34,2020-05-07T10:53:21-07:00,3.9730980396271,3,versionC_stim.csv,READVersionC.csv,"Read Version C","Relational, read only version C",DEFINITION,MEANING,Study1,S,62,39,Study,User,-,,Study/JOL,"Study Phase",3472,,,-1,-1,,,,1
w939670YN,xx317fmu8w,Relational_NO_JOL,1,35,2020-05-07T10:53:24-07:00,2.8357138633728,3,versionC_stim.csv,READVersionC.csv,"Read Version C","Relational, read only version C",RIDDLE,SUGAR,Study1,U,81,27,Study,User,-,,Study/JOL,"Study Phase",2318,,,-1,-1,,,,1
w939670YN,xx317fmu8w,Relational_NO_JOL,1,36,2020-05-07T10:53:28-07:00,4.1508731842041,3,versionC_stim.csv,READVersionC.csv,"Read Version C","Relational, read only version C",BRONZE,ARTERY,Study1,U,74,24,Study,User,-,,Study/JOL,"Study Phase",3670,,,-1,-1,,,,1
w939670YN,xx317fmu8w,Relational_NO_JOL,1,37,2020-05-07T10:53:32-07:00,4.0205638408661,3,versionC_stim.csv,READVersionC.csv,"Read Version C","Relational, read only version C",HAMMER,CHISEL,Study1,B,9,31,Study,User,-,,Study/JOL,"Study Phase",3552,,,-1,-1,,,,1
w939670YN,xx317fmu8w,Relational_NO_JOL,1,38,2020-05-07T10:53:37-07:00,5.2808771133423,3,versionC_stim.csv,READVersionC.csv,"Read Version C","Relational, read only version C",BAR,GRILL,Study1,S,52,70,Study,User,-,,Study/JOL,"Study Phase",4819,,,-1,-1,,,,1
w939670YN,xx317fmu8w,Relational_NO_JOL,1,39,2020-05-07T10:53:41-07:00,3.2832889556885,3,versionC_stim.csv,READVersionC.csv,"Read Version C","Relational, read only version C",STING,HORNET,Study1,B,11,10,Study,User,-,,Study/JOL,"Study Phase",2773,,,-1,-1,,,,1
w939670YN,xx317fmu8w,Relational_NO_JOL,1,40,2020-05-07T10:53:42-07:00,1.636598110199,3,versionC_stim.csv,READVersionC.csv,"Read Version C","Relational, read only version C",BAD,DELINQUENT,Study1,B,6,64,Study,User,-,,Study/JOL,"Study Phase",1176,,,-1,-1,,,,1
w939670YN,xx317fmu8w,Relational_NO_JOL,1,41,2020-05-07T10:53:44-07:00,2.1495039463043,3,versionC_stim.csv,READVersionC.csv,"Read Version C","Relational, read only version C",TUCK,ALLOW,Study1,U,78,75,Study,User,-,,Study/JOL,"Study Phase",1665,,,-1,-1,,,,1
w939670YN,xx317fmu8w,Relational_NO_JOL,1,42,2020-05-07T10:53:46-07:00,2.1775100231171,3,versionC_stim.csv,READVersionC.csv,"Read Version C","Relational, read only version C",FOOT,SHOE,Study1,S,60,54,Study,User,-,,Study/JOL,"Study Phase",1705,,,-1,-1,,,,1
w939670YN,xx317fmu8w,Relational_NO_JOL,1,43,2020-05-07T10:53:50-07:00,3.4333708286285,3,versionC_stim.csv,READVersionC.csv,"Read Version C","Relational, read only version C",ROUND,CIRCLE,Study1,S,65,15,Study,User,-,,Study/JOL,"Study Phase",2962,,,-1,-1,,,,1
w939670YN,xx317fmu8w,Relational_NO_JOL,1,44,2020-05-07T10:53:57-07:00,6.7546269893646,3,versionC_stim.csv,READVersionC.csv,"Read Version C","Relational, read only version C",,,,,,0,Instruct,-,3,"Remember to focus on how the two items are similiar while you study!",,CHECK2,6284,,,-1,-1,,,,1
w939670YN,xx317fmu8w,Relational_NO_JOL,1,45,2020-05-07T10:54:16-07:00,19.803764104843,3,versionC_stim.csv,READVersionC.csv,"Read Version C","Relational, read only version C",AMOUNT,NUMBER,Study1,S,47,14,Study,User,-,,Study/JOL,"Study Phase",19239,,,-1,-1,,,,1
w939670YN,xx317fmu8w,Relational_NO_JOL,1,46,2020-05-07T10:54:36-07:00,19.467336893082,3,versionC_stim.csv,READVersionC.csv,"Read Version C","Relational, read only version C",ENOUGH,FULL,Study1,F,26,29,Study,User,-,,Study/JOL,"Study Phase",18756,,,-1,-1,,,,1
w939670YN,xx317fmu8w,Relational_NO_JOL,1,47,2020-05-07T10:54:42-07:00,5.7762541770935,3,versionC_stim.csv,READVersionC.csv,"Read Version C","Relational, read only version C",ROCK,GEOLOGY,Study1,B,19,46,Study,User,-,,Study/JOL,"Study Phase",5255,,,-1,-1,,,,1
w939670YN,xx317fmu8w,Relational_NO_JOL,1,48,2020-05-07T10:54:45-07:00,3.409795999527,3,versionC_stim.csv,READVersionC.csv,"Read Version C","Relational, read only version C",HUNGRY,PARK,Study1,U,68,85,Study,User,-,,Study/JOL,"Study Phase",2862,,,-1,-1,,,,1
w939670YN,xx317fmu8w,Relational_NO_JOL,1,49,2020-05-07T10:54:49-07:00,3.8992218971252,3,versionC_stim.csv,READVersionC.csv,"Read Version C","Relational, read only version C",STOMACH,DIGESTION,Study1,B,7,22,Study,User,-,,Study/JOL,"Study Phase",3410,,,-1,-1,,,,1
w939670YN,xx317fmu8w,Relational_NO_JOL,1,50,2020-05-07T10:54:55-07:00,5.5064430236816,3,versionC_stim.csv,READVersionC.csv,"Read Version C","Relational, read only version C",FUTURE,PAST,Study1,S,61,73,Study,User,-,,Study/JOL,"Study Phase",5010,,,-1,-1,,,,1
w939670YN,xx317fmu8w,Relational_NO_JOL,1,51,2020-05-07T10:54:57-07:00,2.5163779258728,3,versionC_stim.csv,READVersionC.csv,"Read Version C","Relational, read only version C",HAND,FIX,Study1,U,75,13,Study,User,-,,Study/JOL,"Study Phase",2033,,,-1,-1,,,,1
w939670YN,xx317fmu8w,Relational_NO_JOL,1,52,2020-05-07T10:55:01-07:00,4.0337669849396,3,versionC_stim.csv,READVersionC.csv,"Read Version C","Relational, read only version C",STENCH,SMELL,Study1,F,42,81,Study,User,-,,Study/JOL,"Study Phase",2529,,,-1,-1,,,,1
w939670YN,xx317fmu8w,Relational_NO_JOL,1,53,2020-05-07T10:55:44-07:00,42.931360006332,3,versionC_stim.csv,READVersionC.csv,"Read Version C","Relational, read only version C",COLD,BITTER,Study1,B,12,44,Study,User,-,,Study/JOL,"Study Phase",42015,,,-1,-1,,,,1
w939670YN,xx317fmu8w,Relational_NO_JOL,1,54,2020-05-07T10:55:46-07:00,2.1028060913086,3,versionC_stim.csv,READVersionC.csv,"Read Version C","Relational, read only version C",SACKING,DIETARY,Study1,U,67,84,Study,User,-,,Study/JOL,"Study Phase",1633,,,-1,-1,,,,1
w939670YN,xx317fmu8w,Relational_NO_JOL,1,55,2020-05-07T10:55:48-07:00,1.6742970943451,3,versionC_stim.csv,READVersionC.csv,"Read Version C","Relational, read only version C",GROWTH,HEIGHT,Study1,F,30,38,Study,User,-,,Study/JOL,"Study Phase",1171,,,-1,-1,,,,1
w939670YN,xx317fmu8w,Relational_NO_JOL,1,56,2020-05-07T10:55:49-07:00,1.6175439357758,3,versionC_stim.csv,READVersionC.csv,"Read Version C","Relational, read only version C",ATTIRE,CLOTHES,Study1,F,43,35,Study,User,-,,Study/JOL,"Study Phase",1148,,,-1,-1,,,,1
w939670YN,xx317fmu8w,Relational_NO_JOL,1,57,2020-05-07T10:55:51-07:00,1.6828510761261,3,versionC_stim.csv,READVersionC.csv,"Read Version C","Relational, read only version C",BELT,SOON,Study1,U,70,63,Study,User,-,,Study/JOL,"Study Phase",1206,,,-1,-1,,,,1
w939670YN,xx317fmu8w,Relational_NO_JOL,1,58,2020-05-07T10:55:53-07:00,1.7051358222961,3,versionC_stim.csv,READVersionC.csv,"Read Version C","Relational, read only version C",WASP,BUG,Study1,F,32,71,Study,User,-,,Study/JOL,"Study Phase",1230,,,-1,-1,,,,1
w939670YN,xx317fmu8w,Relational_NO_JOL,1,59,2020-05-07T10:55:56-07:00,3.0737311840057,3,versionC_stim.csv,READVersionC.csv,"Read Version C","Relational, read only version C",PLANT,ROOT,Study1,B,13,57,Study,User,-,,Study/JOL,"Study Phase",2597,,,-1,-1,,,,1
w939670YN,xx317fmu8w,Relational_NO_JOL,1,60,2020-05-07T10:56:01-07:00,4.8298728466034,3,versionC_stim.csv,READVersionC.csv,"Read Version C","Relational, read only version C",MONEY,WAGE,Study1,B,8,77,Study,User,-,,Study/JOL,"Study Phase",4372,,,-1,-1,,,,1
w939670YN,xx317fmu8w,Relational_NO_JOL,1,61,2020-05-07T10:56:03-07:00,2.7471821308136,3,versionC_stim.csv,READVersionC.csv,"Read Version C","Relational, read only version C",CARD,CREDIT,Study1,B,23,30,Study,User,-,,Study/JOL,"Study Phase",2254,,,-1,-1,,,,1
w939670YN,xx317fmu8w,Relational_NO_JOL,1,62,2020-05-07T10:56:29-07:00,25.3967628479,3,versionC_stim.csv,READVersionC.csv,"Read Version C","Relational, read only version C",DOG,PAW,Study1,B,15,45,Study,User,-,,Study/JOL,"Study Phase",23820,,,-1,-1,,,,1
w939670YN,xx317fmu8w,Relational_NO_JOL,1,63,2020-05-07T10:56:37-07:00,7.9711329936981,3,versionC_stim.csv,READVersionC.csv,"Read Version C","Relational, read only version C",BIRD,SWAN,Study1,B,14,74,Study,User,-,,Study/JOL,"Study Phase",6702,,,-1,-1,,,,1
w939670YN,xx317fmu8w,Relational_NO_JOL,1,64,2020-05-07T10:56:39-07:00,2.3473670482635,3,versionC_stim.csv,READVersionC.csv,"Read Version C","Relational, read only version C",ATTORNEY,LAW,Study1,F,34,11,Study,User,-,,Study/JOL,"Study Phase",1880,,,-1,-1,,,,1
w939670YN,xx317fmu8w,Relational_NO_JOL,1,65,2020-05-07T10:56:54-07:00,15.107110023499,3,versionC_stim.csv,READVersionC.csv,"Read Version C","Relational, read only version C",CHORE,WORK,Study1,F,39,8,Study,User,-,,Study/JOL,"Study Phase",14646,,,-1,-1,,,,1
w939670YN,xx317fmu8w,Relational_NO_JOL,1,66,2020-05-07T10:56:56-07:00,2.0565929412842,3,versionC_stim.csv,READVersionC.csv,"Read Version C","Relational, read only version C",VASE,KING,Study1,U,85,76,Study,User,-,,Study/JOL,"Study Phase",1570,,,-1,-1,,,,1
w939670YN,xx317fmu8w,Relational_NO_JOL,1,67,2020-05-07T10:56:58-07:00,1.9296901226044,3,versionC_stim.csv,READVersionC.csv,"Read Version C","Relational, read only version C",LION,ART,Study1,U,79,55,Study,User,-,,Study/JOL,"Study Phase",1450,,,-1,-1,,,,1
w939670YN,xx317fmu8w,Relational_NO_JOL,1,68,2020-05-07T10:57:01-07:00,2.7436139583588,3,versionC_stim.csv,READVersionC.csv,"Read Version C","Relational, read only version C",BEE,HONEY,Study1,S,63,37,Study,User,-,,Study/JOL,"Study Phase",2288,,,-1,-1,,,,1
w939670YN,xx317fmu8w,Relational_NO_JOL,1,69,2020-05-07T10:57:03-07:00,1.8123168945312,3,versionC_stim.csv,READVersionC.csv,"Read Version C","Relational, read only version C",WATER,BRIDGE,Study1,B,18,59,Study,User,-,,Study/JOL,"Study Phase",1278,,,-1,-1,,,,1
w939670YN,xx317fmu8w,Relational_NO_JOL,1,70,2020-05-07T10:57:05-07:00,1.7016360759735,3,versionC_stim.csv,READVersionC.csv,"Read Version C","Relational, read only version C",DIVISION,MATH,Study1,F,33,66,Study,User,-,,Study/JOL,"Study Phase",1217,,,-1,-1,,,,1
w939670YN,xx317fmu8w,Relational_NO_JOL,1,71,2020-05-07T10:57:10-07:00,5.0838930606842,3,versionC_stim.csv,READVersionC.csv,"Read Version C","Relational, read only version C",CLUTTER,PUSHER,Study1,U,66,12,Study,User,-,,Study/JOL,"Study Phase",2370,,,-1,-1,,,,1
w939670YN,xx317fmu8w,Relational_NO_JOL,1,72,2020-05-07T10:57:15-07:00,5.459547996521,3,versionC_stim.csv,READVersionC.csv,"Read Version C","Relational, read only version C",TOILET,BATHROOM,Study1,S,58,53,Study,User,-,,Study/JOL,"Study Phase",4978,,,-1,-1,,,,1
w939670YN,xx317fmu8w,Relational_NO_JOL,1,73,2020-05-07T10:57:21-07:00,5.774759054184,3,versionC_stim.csv,READVersionC.csv,"Read Version C","Relational, read only version C",BLAZE,FIRE,Study1,F,45,52,Study,User,-,,Study/JOL,"Study Phase",5290,,,-1,-1,,,,1
w939670YN,xx317fmu8w,Relational_NO_JOL,1,74,2020-05-07T10:57:26-07:00,4.9542918205261,3,versionC_stim.csv,READVersionC.csv,"Read Version C","Relational, read only version C",WIND,BLOW,Study1,S,55,33,Study,User,-,,Study/JOL,"Study Phase",4435,,,-1,-1,,,,1
w939670YN,xx317fmu8w,Relational_NO_JOL,1,75,2020-05-07T10:57:28-07:00,2.1550240516663,3,versionC_stim.csv,READVersionC.csv,"Read Version C","Relational, read only version C",DESIGN,ARCHITECTURE,Study1,S,51,61,Study,User,-,,Study/JOL,"Study Phase",1683,,,-1,-1,,,,1
w939670YN,xx317fmu8w,Relational_NO_JOL,1,76,2020-05-07T10:57:30-07:00,2.1099650859833,3,versionC_stim.csv,READVersionC.csv,"Read Version C","Relational, read only version C",WASTE,DUMP,Study1,S,49,36,Study,User,-,,Study/JOL,"Study Phase",1625,,,-1,-1,,,,1
w939670YN,xx317fmu8w,Relational_NO_JOL,1,77,2020-05-07T10:57:37-07:00,7.110965013504,3,versionC_stim.csv,READVersionC.csv,"Read Version C","Relational, read only version C",PILOT,PLANE,Study1,F,44,21,Study,User,-,,Study/JOL,"Study Phase",6605,,,-1,-1,,,,1
w939670YN,xx317fmu8w,Relational_NO_JOL,1,78,2020-05-07T10:57:47-07:00,9.9370918273926,3,versionC_stim.csv,READVersionC.csv,"Read Version C","Relational, read only version C",TALK,DISCUSSION,Study1,B,21,9,Study,User,-,,Study/JOL,"Study Phase",9339,,,-1,-1,,,,1
w939670YN,xx317fmu8w,Relational_NO_JOL,1,79,2020-05-07T10:57:50-07:00,2.7481071949005,3,versionC_stim.csv,READVersionC.csv,"Read Version C","Relational, read only version C",ADD,VALLEY,Study1,U,82,79,Study,User,-,,Study/JOL,"Study Phase",2256,,,-1,-1,,,,1
w939670YN,xx317fmu8w,Relational_NO_JOL,1,80,2020-05-07T10:57:54-07:00,3.908374786377,3,versionC_stim.csv,READVersionC.csv,"Read Version C","Relational, read only version C",SIP,DRINK,Study1,F,27,16,Study,User,-,,Study/JOL,"Study Phase",3177,,,-1,-1,,,,1
w939670YN,xx317fmu8w,Relational_NO_JOL,1,81,2020-05-07T10:57:57-07:00,3.1410350799561,3,versionC_stim.csv,READVersionC.csv,"Read Version C","Relational, read only version C",FANTASTIC,GREAT,Study1,F,35,40,Study,User,-,,Study/JOL,"Study Phase",2639,,,-1,-1,,,,1
w939670YN,xx317fmu8w,Relational_NO_JOL,1,82,2020-05-07T10:57:59-07:00,1.8269600868225,3,versionC_stim.csv,READVersionC.csv,"Read Version C","Relational, read only version C",FLOOR,DISCOVER,Study1,U,71,42,Study,User,-,,Study/JOL,"Study Phase",1342,,,-1,-1,,,,1
w939670YN,xx317fmu8w,Relational_NO_JOL,1,83,2020-05-07T10:58:13-07:00,14.016422986984,3,versionC_stim.csv,READVersionC.csv,"Read Version C","Relational, read only version C",WOMAN,LIFT,Study1,U,69,49,Study,User,-,,Study/JOL,"Study Phase",13525,,,-1,-1,,,,1
w939670YN,xx317fmu8w,Relational_NO_JOL,1,84,2020-05-07T10:58:29-07:00,16.229891061783,3,versionC_stim.csv,READVersionC.csv,"Read Version C","Relational, read only version C",LATCH,KEY,Study1,F,36,26,Study,User,-,,Study/JOL,"Study Phase",13447,,,-1,-1,,,,1
w939670YN,xx317fmu8w,Relational_NO_JOL,1,85,2020-05-07T10:58:47-07:00,18.346079826355,3,versionC_stim.csv,READVersionC.csv,"Read Version C","Relational, read only version C",WAR,REVOLUTION,Study1,B,20,83,Study,User,-,,Study/JOL,"Study Phase",17753,,,-1,-1,,,,1
w939670YN,xx317fmu8w,Relational_NO_JOL,1,86,2020-05-07T10:58:55-07:00,7.8740570545197,3,versionC_stim.csv,READVersionC.csv,"Read Version C","Relational, read only version C",CAVE,DARK,Study1,F,28,58,Study,User,-,,Study/JOL,"Study Phase",7348,,,-1,-1,,,,1
w939670YN,xx317fmu8w,Relational_NO_JOL,1,87,2020-05-07T10:59:02-07:00,7.1312460899353,3,versionC_stim.csv,READVersionC.csv,"Read Version C","Relational, read only version C",SITE,LOCATION,Study1,S,48,18,Study,User,-,,Study/JOL,"Study Phase",6623,,,-1,-1,,,,1
w939670YN,xx317fmu8w,Relational_NO_JOL,1,88,2020-05-07T10:59:23-07:00,20.687012910843,3,versionC_stim.csv,READVersionC.csv,"Read Version C","Relational, read only version C",POSITION,MACHINE,Study1,U,76,72,Study,User,-,,Study/JOL,"Study Phase",20101,,,-1,-1,,,,1
w939670YN,xx317fmu8w,Relational_NO_JOL,1,89,2020-05-07T10:59:25-07:00,1.5206999778748,3,versionC_stim.csv,READVersionC.csv,"Read Version C","Relational, read only version C",END,BEGIN,Study1,S,54,50,Study,User,-,,Study/JOL,"Study Phase",972,,,-1,-1,,,,1
w939670YN,xx317fmu8w,Relational_NO_JOL,1,90,2020-05-07T10:59:31-07:00,6.2620451450348,3,versionC_stim.csv,READVersionC.csv,"Read Version C","Relational, read only version C",LIVER,KIDNEY,Study1,S,53,65,Study,User,-,,Study/JOL,"Study Phase",5738,,,-1,-1,,,,1
w939670YN,xx317fmu8w,Relational_NO_JOL,1,91,2020-05-07T11:00:08-07:00,37.101720809937,3,versionC_stim.csv,READVersionC.csv,"Read Version C","Relational, read only version C",STUFF,THING,BUFFER2,Buffer,90,91,Study,User,-,,Study/JOL,BUFFER2,36602,,,-1,-1,,,,0.982
w939670YN,xx317fmu8w,Relational_NO_JOL,1,92,2020-05-07T11:00:10-07:00,2.5651330947876,3,versionC_stim.csv,READVersionC.csv,"Read Version C","Relational, read only version C",SPACE,MOON,BUFFER2,Buffer,89,89,Study,User,-,,Study/JOL,BUFFER2,2014,,,-1,-1,,,,1
w939670YN,xx317fmu8w,Relational_NO_JOL,1,93,2020-05-07T11:00:12-07:00,1.355094909668,3,versionC_stim.csv,READVersionC.csv,"Read Version C","Relational, read only version C",CHOCOLATE,MALT,BUFFER2,Buffer,88,90,Study,User,-,,Study/JOL,BUFFER2,926,,,-1,-1,,,,1
w939670YN,xx317fmu8w,Relational_NO_JOL,1,94,2020-05-07T11:00:15-07:00,3.0538241863251,3,versionC_stim.csv,READVersionC.csv,"Read Version C","Relational, read only version C",GOOSE,GEESE,BUFFER2,Buffer,86,88,Study,User,-,,Study/JOL,BUFFER2,2557,,,-1,-1,,,,1
w939670YN,xx317fmu8w,Relational_NO_JOL,1,95,2020-05-07T11:00:17-07:00,1.8181958198547,3,versionC_stim.csv,READVersionC.csv,"Read Version C","Relational, read only version C",POLICE,SHERRIF,BUFFER2,Buffer,87,87,Study,User,-,,Study/JOL,BUFFER2,1268,,,-1,-1,,,,1
w939670YN,xx317fmu8w,Relational_NO_JOL,1,96,2020-05-07T11:00:21-07:00,4.2245559692383,3,versionC_stim.csv,READVersionC.csv,"Read Version C","Relational, read only version C",,,,,,0,Instruct,User,-,"You have completed this section. Please press Enter.",Filler_Instruction,Instruct2,3702,,,-1,-1,,,,1
w939670YN,xx317fmu8w,Relational_NO_JOL,1,97,2020-05-07T11:00:25-07:00,4.3690121173859,3,versionC_stim.csv,READVersionC.csv,"Read Version C","Relational, read only version C",,,,,,0,Instruct,User,-,"You have completed this section. Please press Enter.",Filler_Instruction,Instruct5,3904,,,-1,-1,,,,1
w939670YN,xx317fmu8w,Relational_NO_JOL,1,98,2020-05-07T11:00:50-07:00,25.037553071976,3,versionC_stim.csv,READVersionC.csv,"Read Version C","Relational, read only version C",,,,,,0,FreeRecall,-,10,"What were you supposed to focus on while you studied each pair? (Hint: Think back to the instructions). Type your answer in the space below.",,CHECK3,23545,"How they were similar or go hand in hand",0,6693,19955,0,0,,1
w939670YN,xx317fmu8w,Relational_NO_JOL,1,99,2020-05-07T11:02:51-07:00,120.60249400139,3,versionC_stim.csv,READVersionC.csv,"Read Version C","Relational, read only version C",,,,,,0,FreeRecall,120,120,"Please list the 50 US states in alphabetical order. The task will automatically advance to the next screen after two minutes.",,Filler1,120012,"Alabama Alaska Connecticut Delaware Florida Georgia ",0,12090,76835,0,0,,0.989
w939670YN,xx317fmu8w,Relational_NO_JOL,1,100,2020-05-07T11:03:23-07:00,31.841573953629,3,versionC_stim.csv,READVersionC.csv,"Read Version C","Relational, read only version C",,,,,,0,Instruct,-,10,"You will now be presented with the first word from each of the previously studied item pairs. Please type the missing word. If you do not know the word, you may guess or press Enter to skip forward to the next pair.",,Instruct3,31235,,,-1,-1,,,,0.954
w939670YN,xx317fmu8w,Relational_NO_JOL,1,101,2020-05-07T11:03:30-07:00,7.6624689102173,3,versionC_stim.csv,READVersionC.csv,"Read Version C","Relational, read only version C",LION,ART,Study1,U,79,55,Test,User,-,,Recall,Recall1,7097,"Tiger ",25,4659,5642,0,0,,1
w939670YN,xx317fmu8w,Relational_NO_JOL,1,102,2020-05-07T11:03:38-07:00,7.8582019805908,3,versionC_stim.csv,READVersionC.csv,"Read Version C","Relational, read only version C",LATCH,KEY,Study1,F,36,26,Test,User,-,,Recall,Recall1,7005,Hook,28.571428571429,4029,6026,0,0,,1
w939670YN,xx317fmu8w,Relational_NO_JOL,1,103,2020-05-07T11:03:42-07:00,3.7983181476593,3,versionC_stim.csv,READVersionC.csv,"Read Version C","Relational, read only version C",SODA,POP,Study1,S,56,41,Test,User,-,,Recall,Recall1,3296,Pop,100,2033,2320,1,1,,1
w939670YN,xx317fmu8w,Relational_NO_JOL,1,104,2020-05-07T11:03:46-07:00,3.464742898941,3,versionC_stim.csv,READVersionC.csv,"Read Version C","Relational, read only version C",SIGHT,DEBATE,Study1,U,73,68,Test,User,-,,Recall,Recall1,2963,See,44.444444444444,1806,2101,0,0,,1
w939670YN,xx317fmu8w,Relational_NO_JOL,1,105,2020-05-07T11:03:50-07:00,3.9787259101868,3,versionC_stim.csv,READVersionC.csv,"Read Version C","Relational, read only version C",BAD,DELINQUENT,Study1,B,6,64,Test,User,-,,Recall,Recall1,3480,Evil,28.571428571429,1943,2651,0,0,,1
w939670YN,xx317fmu8w,Relational_NO_JOL,1,106,2020-05-07T11:03:58-07:00,8.2273001670837,3,versionC_stim.csv,READVersionC.csv,"Read Version C","Relational, read only version C",RIDDLE,SUGAR,Study1,U,81,27,Test,User,-,,Recall,Recall1,7717,Solve,20,4814,5663,0,0,,1
w939670YN,xx317fmu8w,Relational_NO_JOL,1,107,2020-05-07T11:04:02-07:00,4.105936050415,3,versionC_stim.csv,READVersionC.csv,"Read Version C","Relational, read only version C",FISH,TUNA,Study1,B,25,86,Test,User,-,,Recall,Recall1,3658,Water,22.222222222222,2100,2800,0,0,,1
w939670YN,xx317fmu8w,Relational_NO_JOL,1,108,2020-05-07T11:04:06-07:00,3.7495539188385,3,versionC_stim.csv,READVersionC.csv,"Read Version C","Relational, read only version C",FANTASTIC,GREAT,Study1,F,35,40,Test,User,-,,Recall,Recall1,3268,Good,22.222222222222,1752,2320,0,0,,1
w939670YN,xx317fmu8w,Relational_NO_JOL,1,109,2020-05-07T11:04:12-07:00,6.191015958786,3,versionC_stim.csv,READVersionC.csv,"Read Version C","Relational, read only version C",BIRD,SWAN,Study1,B,14,74,Test,User,-,,Recall,Recall1,5696,Fly,0,3353,4702,0,0,,1
w939670YN,xx317fmu8w,Relational_NO_JOL,1,110,2020-05-07T11:04:19-07:00,7.1206250190735,3,versionC_stim.csv,READVersionC.csv,"Read Version C","Relational, read only version C",FAMINE,HUNGER,Study1,F,40,51,Test,User,-,,Recall,Recall1,6612,Hunger,100,1911,5560,1,1,,1
w939670YN,xx317fmu8w,Relational_NO_JOL,1,111,2020-05-07T11:04:24-07:00,4.7388360500336,3,versionC_stim.csv,READVersionC.csv,"Read Version C","Relational, read only version C",OUT,WAY,Study1,B,16,60,Test,User,-,,Recall,Recall1,4264,In,0,1680,3252,0,0,,1
w939670YN,xx317fmu8w,Relational_NO_JOL,1,112,2020-05-07T11:04:28-07:00,4.0013258457184,3,versionC_stim.csv,READVersionC.csv,"Read Version C","Relational, read only version C",RACKET,BALL,Study1,F,38,80,Test,User,-,,Recall,Recall1,3491,Ball,100,1805,2506,1,1,,1
w939670YN,xx317fmu8w,Relational_NO_JOL,1,113,2020-05-07T11:04:33-07:00,5.5754070281982,3,versionC_stim.csv,READVersionC.csv,"Read Version C","Relational, read only version C",TUCK,ALLOW,Study1,U,78,75,Test,User,-,,Recall,Recall1,5097,In,0,3847,4029,0,0,,1
w939670YN,xx317fmu8w,Relational_NO_JOL,1,114,2020-05-07T11:04:42-07:00,8.3798971176147,3,versionC_stim.csv,READVersionC.csv,"Read Version C","Relational, read only version C",SALAD,LETTUCE,Study1,S,59,20,Test,User,-,,Recall,Recall1,7861,Ranch,16.666666666667,6204,6984,0,0,,1
w939670YN,xx317fmu8w,Relational_NO_JOL,1,115,2020-05-07T11:04:46-07:00,4.3501789569855,3,versionC_stim.csv,READVersionC.csv,"Read Version C","Relational, read only version C",SEIZE,TAKE,Study1,F,29,56,Test,User,-,,Recall,Recall1,3855,"Take ",100,1696,3007,1,1,,1
w939670YN,xx317fmu8w,Relational_NO_JOL,1,116,2020-05-07T11:04:52-07:00,6.4945120811462,3,versionC_stim.csv,READVersionC.csv,"Read Version C","Relational, read only version C",VASE,KING,Study1,U,85,76,Test,User,-,,Recall,Recall1,5983,Lamp,0,4222,5073,0,0,,1
w939670YN,xx317fmu8w,Relational_NO_JOL,1,117,2020-05-07T11:04:57-07:00,4.6330199241638,3,versionC_stim.csv,READVersionC.csv,"Read Version C","Relational, read only version C",PLANT,ROOT,Study1,B,13,57,Test,User,-,,Recall,Recall1,4147,Tree,25,2556,3073,0,0,,1
w939670YN,xx317fmu8w,Relational_NO_JOL,1,118,2020-05-07T11:05:03-07:00,5.8477840423584,3,versionC_stim.csv,READVersionC.csv,"Read Version C","Relational, read only version C",FUTURE,PAST,Study1,S,61,73,Test,User,-,,Recall,Recall1,5342,"Past ",100,2881,4520,1,1,,1
w939670YN,xx317fmu8w,Relational_NO_JOL,1,119,2020-05-07T11:05:08-07:00,4.9537968635559,3,versionC_stim.csv,READVersionC.csv,"Read Version C","Relational, read only version C",CARD,CREDIT,Study1,B,23,30,Test,User,-,,Recall,Recall1,4445,Play,0,2977,3585,0,0,,1
w939670YN,xx317fmu8w,Relational_NO_JOL,1,120,2020-05-07T11:05:12-07:00,3.6286191940308,3,versionC_stim.csv,READVersionC.csv,"Read Version C","Relational, read only version C",CHILD,BABY,Study1,S,64,47,Test,User,-,,Recall,Recall1,3128,Kid,0,1819,2184,0,0,,1
w939670YN,xx317fmu8w,Relational_NO_JOL,1,121,2020-05-07T11:05:17-07:00,5.5687828063965,3,versionC_stim.csv,READVersionC.csv,"Read Version C","Relational, read only version C",CHILI,HOT,Study1,F,37,7,Test,User,-,,Recall,Recall1,5054,Bowl,28.571428571429,1632,4178,0,0,,1
w939670YN,xx317fmu8w,Relational_NO_JOL,1,122,2020-05-07T11:05:22-07:00,4.5402410030365,3,versionC_stim.csv,READVersionC.csv,"Read Version C","Relational, read only version C",ADD,VALLEY,Study1,U,82,79,Test,User,-,,Recall,Recall1,4042,"Subtract ",14.285714285714,1848,3206,0,0,,1
w939670YN,xx317fmu8w,Relational_NO_JOL,1,123,2020-05-07T11:05:25-07:00,3.3773820400238,3,versionC_stim.csv,READVersionC.csv,"Read Version C","Relational, read only version C",ATTORNEY,LAW,Study1,F,34,11,Test,User,-,,Recall,Recall1,2898,Law,100,1409,1952,1,1,,1
w939670YN,xx317fmu8w,Relational_NO_JOL,1,124,2020-05-07T11:05:29-07:00,4.3919870853424,3,versionC_stim.csv,READVersionC.csv,"Read Version C","Relational, read only version C",ACCIDENT,STRONG,Study1,U,80,25,Test,User,-,,Recall,Recall1,3889,Car,22.222222222222,2685,3052,0,0,,1
w939670YN,xx317fmu8w,Relational_NO_JOL,1,125,2020-05-07T11:05:35-07:00,5.3293879032135,3,versionC_stim.csv,READVersionC.csv,"Read Version C","Relational, read only version C",ROCK,GEOLOGY,Study1,B,19,46,Test,User,-,,Recall,Recall1,4829,"Roll ",36.363636363636,2570,3893,0,0,,1
w939670YN,xx317fmu8w,Relational_NO_JOL,1,126,2020-05-07T11:05:38-07:00,3.7654809951782,3,versionC_stim.csv,READVersionC.csv,"Read Version C","Relational, read only version C",WOMAN,LIFT,Study1,U,69,49,Test,User,-,,Recall,Recall1,3265,"Girl ",25,1672,2404,0,0,,1
w939670YN,xx317fmu8w,Relational_NO_JOL,1,127,2020-05-07T11:05:43-07:00,4.9203751087189,3,versionC_stim.csv,READVersionC.csv,"Read Version C","Relational, read only version C",ENOUGH,FULL,Study1,F,26,29,Test,User,-,,Recall,Recall1,4399,"Little ",40,2502,3571,0,0,,1
w939670YN,xx317fmu8w,Relational_NO_JOL,1,128,2020-05-07T11:05:54-07:00,10.261368989944,3,versionC_stim.csv,READVersionC.csv,"Read Version C","Relational, read only version C",COW,HERD,Study1,B,22,78,Test,User,-,,Recall,Recall1,9707,Milk,0,2066,7524,0,0,,1
w939670YN,xx317fmu8w,Relational_NO_JOL,1,129,2020-05-07T11:05:58-07:00,4.1990840435028,3,versionC_stim.csv,READVersionC.csv,"Read Version C","Relational, read only version C",ROUND,CIRCLE,Study1,S,65,15,Test,User,-,,Recall,Recall1,3695,"Circle ",100,1712,2808,1,1,,1
w939670YN,xx317fmu8w,Relational_NO_JOL,1,130,2020-05-07T11:06:06-07:00,7.7871119976044,3,versionC_stim.csv,READVersionC.csv,"Read Version C","Relational, read only version C",WAR,REVOLUTION,Study1,B,20,83,Test,User,-,,Recall,Recall1,7159,Peace,13.333333333333,5392,6231,0,0,,1
w939670YN,xx317fmu8w,Relational_NO_JOL,1,131,2020-05-07T11:06:10-07:00,3.907732963562,3,versionC_stim.csv,READVersionC.csv,"Read Version C","Relational, read only version C",AMOUNT,NUMBER,Study1,S,47,14,Test,User,-,,Recall,Recall1,3418,Total,0,1712,2530,0,0,,1
w939670YN,xx317fmu8w,Relational_NO_JOL,1,132,2020-05-07T11:06:18-07:00,8.1725158691406,3,versionC_stim.csv,READVersionC.csv,"Read Version C","Relational, read only version C",STOMACH,DIGESTION,Study1,B,7,22,Test,User,-,,Recall,Recall1,7647,Gut,33.333333333333,6506,6835,0,0,,1
w939670YN,xx317fmu8w,Relational_NO_JOL,1,133,2020-05-07T11:06:25-07:00,7.1524941921234,3,versionC_stim.csv,READVersionC.csv,"Read Version C","Relational, read only version C",BAR,GRILL,Study1,S,52,70,Test,User,-,,Recall,Recall1,6646,Open,0,5267,5837,0,0,,1
w939670YN,xx317fmu8w,Relational_NO_JOL,1,134,2020-05-07T11:06:30-07:00,4.6601219177246,3,versionC_stim.csv,READVersionC.csv,"Read Version C","Relational, read only version C",CHEESE,WINE,Study1,S,57,34,Test,User,-,,Recall,Recall1,4156,Say,0,2981,3333,0,0,,1
w939670YN,xx317fmu8w,Relational_NO_JOL,1,135,2020-05-07T11:06:38-07:00,8.3438279628754,3,versionC_stim.csv,READVersionC.csv,"Read Version C","Relational, read only version C",POSITION,MACHINE,Study1,U,76,72,Test,User,-,,Recall,Recall1,6583,Place,50,4709,5507,0,0,,1
w939670YN,xx317fmu8w,Relational_NO_JOL,1,136,2020-05-07T11:06:42-07:00,3.7908389568329,3,versionC_stim.csv,READVersionC.csv,"Read Version C","Relational, read only version C",WASP,BUG,Study1,F,32,71,Test,User,-,,Recall,Recall1,3279,Bee,33.333333333333,1619,2396,0,0,,1
w939670YN,xx317fmu8w,Relational_NO_JOL,1,137,2020-05-07T11:06:49-07:00,7.2193360328674,3,versionC_stim.csv,READVersionC.csv,"Read Version C","Relational, read only version C",SIP,DRINK,Study1,F,27,16,Test,User,-,,Recall,Recall1,6703,Drink,100,2302,5933,1,1,,1
w939670YN,xx317fmu8w,Relational_NO_JOL,1,138,2020-05-07T11:06:59-07:00,10.590358972549,3,versionC_stim.csv,READVersionC.csv,"Read Version C","Relational, read only version C",ASSIGNMENT,DUE,Study1,S,46,48,Test,User,-,,Recall,Recall1,10077,Grade,50,8225,8909,0,0,,1
w939670YN,xx317fmu8w,Relational_NO_JOL,1,139,2020-05-07T11:07:29-07:00,29.645967006683,3,versionC_stim.csv,READVersionC.csv,"Read Version C","Relational, read only version C",STING,HORNET,Study1,B,11,10,Test,User,-,,Recall,Recall1,29121,Play,0,27612,28069,0,0,,0.941
w939670YN,xx317fmu8w,Relational_NO_JOL,1,140,2020-05-07T11:07:43-07:00,13.915719985962,3,versionC_stim.csv,READVersionC.csv,"Read Version C","Relational, read only version C",END,BEGIN,Study1,S,54,50,Test,User,-,,Recall,Recall1,12303,"Begin ",100,10511,11358,1,1,,1
w939670YN,xx317fmu8w,Relational_NO_JOL,1,141,2020-05-07T11:07:48-07:00,4.6554000377655,3,versionC_stim.csv,READVersionC.csv,"Read Version C","Relational, read only version C",CHORE,WORK,Study1,F,39,8,Test,User,-,,Recall,Recall1,3053,Job,28.571428571429,1754,2133,0,0,,1
w939670YN,xx317fmu8w,Relational_NO_JOL,1,142,2020-05-07T11:07:54-07:00,6.0668721199036,3,versionC_stim.csv,READVersionC.csv,"Read Version C","Relational, read only version C",PILOT,PLANE,Study1,F,44,21,Test,User,-,,Recall,Recall1,4207,Plane,100,2609,3380,1,1,,1
w939670YN,xx317fmu8w,Relational_NO_JOL,1,143,2020-05-07T11:07:59-07:00,4.7634098529816,3,versionC_stim.csv,READVersionC.csv,"Read Version C","Relational, read only version C",DESIGN,ARCHITECTURE,Study1,S,51,61,Test,User,-,,Recall,Recall1,4189,Look,0,2843,3367,0,0,,1
w939670YN,xx317fmu8w,Relational_NO_JOL,1,144,2020-05-07T11:08:07-07:00,8.8007740974426,3,versionC_stim.csv,READVersionC.csv,"Read Version C","Relational, read only version C",DEFINITION,MEANING,Study1,S,62,39,Test,User,-,,Recall,Recall1,8180,"Define ",46.153846153846,6366,7369,0,0,,1
w939670YN,xx317fmu8w,Relational_NO_JOL,1,145,2020-05-07T11:08:11-07:00,3.889317035675,3,versionC_stim.csv,READVersionC.csv,"Read Version C","Relational, read only version C",CLUTTER,PUSHER,Study1,U,66,12,Test,User,-,,Recall,Recall1,3357,Junk,20,2064,2537,0,0,,1
w939670YN,xx317fmu8w,Relational_NO_JOL,1,146,2020-05-07T11:08:16-07:00,5.2113318443298,3,versionC_stim.csv,READVersionC.csv,"Read Version C","Relational, read only version C",TALK,DISCUSSION,Study1,B,21,9,Test,User,-,,Recall,Recall1,4636,"Speak ",13.333333333333,2794,3783,0,0,,1
w939670YN,xx317fmu8w,Relational_NO_JOL,1,147,2020-05-07T11:08:35-07:00,18.776731967926,3,versionC_stim.csv,READVersionC.csv,"Read Version C","Relational, read only version C",DIVISION,MATH,Study1,F,33,66,Test,User,-,,Recall,Recall1,18181,Unity,22.222222222222,15330,17981,0,0,,1
w939670YN,xx317fmu8w,Relational_NO_JOL,1,148,2020-05-07T11:08:40-07:00,4.6595261096954,3,versionC_stim.csv,READVersionC.csv,"Read Version C","Relational, read only version C",COLD,BITTER,Study1,B,12,44,Test,User,-,,Recall,Recall1,4189,Hot,22.222222222222,1828,2092,0,0,,1
w939670YN,xx317fmu8w,Relational_NO_JOL,1,149,2020-05-07T11:08:45-07:00,4.6875829696655,3,versionC_stim.csv,READVersionC.csv,"Read Version C","Relational, read only version C",FLOWER,ORCHID,Study1,B,24,62,Test,User,-,,Recall,Recall1,4168,Pot,22.222222222222,3007,3287,0,0,,1
w939670YN,xx317fmu8w,Relational_NO_JOL,1,150,2020-05-07T11:08:48-07:00,3.8882539272308,3,versionC_stim.csv,READVersionC.csv,"Read Version C","Relational, read only version C",BELT,SOON,Study1,U,70,63,Test,User,-,,Recall,Recall1,3366,Pants,22.222222222222,1907,2341,0,0,,1
w939670YN,xx317fmu8w,Relational_NO_JOL,1,151,2020-05-07T11:08:56-07:00,7.8785231113434,3,versionC_stim.csv,READVersionC.csv,"Read Version C","Relational, read only version C",SACKING,DIETARY,Study1,U,67,84,Test,User,-,,Recall,Recall1,7300,Food,18.181818181818,6131,6457,0,0,,1
w939670YN,xx317fmu8w,Relational_NO_JOL,1,152,2020-05-07T11:09:00-07:00,3.2478249073029,3,versionC_stim.csv,READVersionC.csv,"Read Version C","Relational, read only version C",CLEAN,HYGIENE,Study1,B,17,19,Test,User,-,,Recall,Recall1,2778,Dirty,16.666666666667,1509,2016,0,0,,1
w939670YN,xx317fmu8w,Relational_NO_JOL,1,153,2020-05-07T11:09:03-07:00,3.6485121250153,3,versionC_stim.csv,READVersionC.csv,"Read Version C","Relational, read only version C",BUSINESS,DEATH,Study1,U,72,32,Test,User,-,,Recall,Recall1,3135,Partner,33.333333333333,1594,2362,0,0,,1
w939670YN,xx317fmu8w,Relational_NO_JOL,1,154,2020-05-07T11:09:06-07:00,3.0537700653076,3,versionC_stim.csv,READVersionC.csv,"Read Version C","Relational, read only version C",DOG,PAW,Study1,B,15,45,Test,User,-,,Recall,Recall1,2564,Cat,33.333333333333,1541,1757,0,0,,1
w939670YN,xx317fmu8w,Relational_NO_JOL,1,155,2020-05-07T11:09:09-07:00,2.9395117759705,3,versionC_stim.csv,READVersionC.csv,"Read Version C","Relational, read only version C",CAVE,DARK,Study1,F,28,58,Test,User,-,,Recall,Recall1,2416,Man,28.571428571429,1483,1630,0,0,,1
w939670YN,xx317fmu8w,Relational_NO_JOL,1,156,2020-05-07T11:09:14-07:00,4.5216860771179,3,versionC_stim.csv,READVersionC.csv,"Read Version C","Relational, read only version C",WASTE,DUMP,Study1,S,49,36,Test,User,-,,Recall,Recall1,4052,Spill,22.222222222222,2835,3406,0,0,,1
w939670YN,xx317fmu8w,Relational_NO_JOL,1,157,2020-05-07T11:09:17-07:00,3.2567100524902,3,versionC_stim.csv,READVersionC.csv,"Read Version C","Relational, read only version C",JURY,TRIAL,Study1,S,50,17,Test,User,-,,Recall,Recall1,2779,Trial,100,1502,2015,1,1,,1
w939670YN,xx317fmu8w,Relational_NO_JOL,1,158,2020-05-07T11:09:21-07:00,3.7919449806213,3,versionC_stim.csv,READVersionC.csv,"Read Version C","Relational, read only version C",LIVER,KIDNEY,Study1,S,53,65,Test,User,-,,Recall,Recall1,3323,Blood,18.181818181818,1973,2536,0,0,,1
w939670YN,xx317fmu8w,Relational_NO_JOL,1,159,2020-05-07T11:09:26-07:00,4.8542358875275,3,versionC_stim.csv,READVersionC.csv,"Read Version C","Relational, read only version C",BEE,HONEY,Study1,S,63,37,Test,User,-,,Recall,Recall1,4357,Honey,100,1575,3561,1,1,,1
w939670YN,xx317fmu8w,Relational_NO_JOL,1,160,2020-05-07T11:09:29-07:00,3.3282771110535,3,versionC_stim.csv,READVersionC.csv,"Read Version C","Relational, read only version C",FOOT,SHOE,Study1,S,60,54,Test,User,-,,Recall,Recall1,2802,Hand,25,1831,2097,0,0,,1
w939670YN,xx317fmu8w,Relational_NO_JOL,1,161,2020-05-07T11:09:34-07:00,4.5590980052948,3,versionC_stim.csv,READVersionC.csv,"Read Version C","Relational, read only version C",HAND,FIX,Study1,U,75,13,Test,User,-,,Recall,Recall1,3053,Feet,28.571428571429,1736,2251,0,0,,1
w939670YN,xx317fmu8w,Relational_NO_JOL,1,162,2020-05-07T11:09:38-07:00,4.4713110923767,3,versionC_stim.csv,READVersionC.csv,"Read Version C","Relational, read only version C",DROWSY,SLEEP,Study1,F,41,69,Test,User,-,,Recall,Recall1,3966,Awake,20,2773,3235,0,0,,1
w939670YN,xx317fmu8w,Relational_NO_JOL,1,163,2020-05-07T11:09:41-07:00,3.1023988723755,3,versionC_stim.csv,READVersionC.csv,"Read Version C","Relational, read only version C",WIND,BLOW,Study1,S,55,33,Test,User,-,,Recall,Recall1,2624,Water,22.222222222222,1493,1984,0,0,,1
w939670YN,xx317fmu8w,Relational_NO_JOL,1,164,2020-05-07T11:09:44-07:00,3.1181180477142,3,versionC_stim.csv,READVersionC.csv,"Read Version C","Relational, read only version C",NEWS,EDITOR,Study1,B,10,67,Test,User,-,,Recall,Recall1,2630,TV,25,1744,1886,0,0,,1
w939670YN,xx317fmu8w,Relational_NO_JOL,1,165,2020-05-07T11:09:48-07:00,4.2259700298309,3,versionC_stim.csv,READVersionC.csv,"Read Version C","Relational, read only version C",STENCH,SMELL,Study1,F,42,81,Test,User,-,,Recall,Recall1,3728,Smell,100,2122,3037,1,1,,1
w939670YN,xx317fmu8w,Relational_NO_JOL,1,166,2020-05-07T11:09:54-07:00,5.4138379096985,3,versionC_stim.csv,READVersionC.csv,"Read Version C","Relational, read only version C",BLAZE,FIRE,Study1,F,45,52,Test,User,-,,Recall,Recall1,4897,Chill,22.222222222222,1644,4075,0,0,,1
w939670YN,xx317fmu8w,Relational_NO_JOL,1,167,2020-05-07T11:10:00-07:00,5.868870973587,3,versionC_stim.csv,READVersionC.csv,"Read Version C","Relational, read only version C",SITE,LOCATION,Study1,S,48,18,Test,User,-,,Recall,Recall1,4335,Place,30.769230769231,3095,3568,0,0,,1
w939670YN,xx317fmu8w,Relational_NO_JOL,1,168,2020-05-07T11:10:21-07:00,21.22763800621,3,versionC_stim.csv,READVersionC.csv,"Read Version C","Relational, read only version C",GROWTH,HEIGHT,Study1,F,30,38,Test,User,-,,Recall,Recall1,20534,Hate,40,19334,19615,0,0,,1
w939670YN,xx317fmu8w,Relational_NO_JOL,1,169,2020-05-07T11:10:26-07:00,5.2239260673523,3,versionC_stim.csv,READVersionC.csv,"Read Version C","Relational, read only version C",SICK,HIDE,Study1,U,84,82,Test,User,-,,Recall,Recall1,2504,Well,25,1426,1824,0,0,,1
w939670YN,xx317fmu8w,Relational_NO_JOL,1,170,2020-05-07T11:10:30-07:00,3.5354449748993,3,versionC_stim.csv,READVersionC.csv,"Read Version C","Relational, read only version C",WATER,BRIDGE,Study1,B,18,59,Test,User,-,,Recall,Recall1,3044,Air,22.222222222222,1990,2190,0,0,,1
w939670YN,xx317fmu8w,Relational_NO_JOL,1,171,2020-05-07T11:10:33-07:00,3.6487081050873,3,versionC_stim.csv,READVersionC.csv,"Read Version C","Relational, read only version C",CAR,HAPPY,Study1,U,77,43,Test,User,-,,Recall,Recall1,3156,Bike,0,1812,2349,0,0,,1
w939670YN,xx317fmu8w,Relational_NO_JOL,1,172,2020-05-07T11:10:37-07:00,3.5798318386078,3,versionC_stim.csv,READVersionC.csv,"Read Version C","Relational, read only version C",WOULD,CASH,Study1,U,83,28,Test,User,-,,Recall,Recall1,3054,Cant,50,1939,2282,0,0,,1
w939670YN,xx317fmu8w,Relational_NO_JOL,1,173,2020-05-07T11:10:41-07:00,3.7425091266632,3,versionC_stim.csv,READVersionC.csv,"Read Version C","Relational, read only version C",WORD,SENTENCE,Study1,F,31,23,Test,User,-,,Recall,Recall1,3211,Color,15.384615384615,2084,2501,0,0,,1
w939670YN,xx317fmu8w,Relational_NO_JOL,1,174,2020-05-07T11:10:45-07:00,3.8350188732147,3,versionC_stim.csv,READVersionC.csv,"Read Version C","Relational, read only version C",BRONZE,ARTERY,Study1,U,74,24,Test,User,-,,Recall,Recall1,3231,Silver,33.333333333333,1687,2548,0,0,,1
w939670YN,xx317fmu8w,Relational_NO_JOL,1,175,2020-05-07T11:10:48-07:00,2.9691030979156,3,versionC_stim.csv,READVersionC.csv,"Read Version C","Relational, read only version C",HUNGRY,PARK,Study1,U,68,85,Test,User,-,,Recall,Recall1,2423,Full,0,1362,1777,0,0,,1
w939670YN,xx317fmu8w,Relational_NO_JOL,1,176,2020-05-07T11:10:51-07:00,3.8140120506287,3,versionC_stim.csv,READVersionC.csv,"Read Version C","Relational, read only version C",HAMMER,CHISEL,Study1,B,9,31,Test,User,-,,Recall,Recall1,3337,Wrench,33.333333333333,1363,2527,0,0,,1
w939670YN,xx317fmu8w,Relational_NO_JOL,1,177,2020-05-07T11:10:54-07:00,2.9617438316345,3,versionC_stim.csv,READVersionC.csv,"Read Version C","Relational, read only version C",FLOOR,DISCOVER,Study1,U,71,42,Test,User,-,,Recall,Recall1,2473,Door,50,1423,1773,0,0,,1
w939670YN,xx317fmu8w,Relational_NO_JOL,1,178,2020-05-07T11:10:57-07:00,3.0561060905457,3,versionC_stim.csv,READVersionC.csv,"Read Version C","Relational, read only version C",TOILET,BATHROOM,Study1,S,58,53,Test,User,-,,Recall,Recall1,2531,Paper,30.769230769231,1441,1860,0,0,,1
w939670YN,xx317fmu8w,Relational_NO_JOL,1,179,2020-05-07T11:11:03-07:00,5.5247919559479,3,versionC_stim.csv,READVersionC.csv,"Read Version C","Relational, read only version C",MONEY,WAGE,Study1,B,8,77,Test,User,-,,Recall,Recall1,5030,Heist,22.222222222222,1572,1950,0,0,,1
w939670YN,xx317fmu8w,Relational_NO_JOL,1,180,2020-05-07T11:11:08-07:00,5.0100431442261,3,versionC_stim.csv,READVersionC.csv,"Read Version C","Relational, read only version C",ATTIRE,CLOTHES,Study1,F,43,35,Test,User,-,,Recall,Recall1,3245,Dress,33.333333333333,1964,2583,0,0,,1
w939670YN,xx317fmu8w,Relational_NO_JOL,1,181,2020-05-07T11:11:22-07:00,14.390949964523,3,versionC_stim.csv,READVersionC.csv,"Read Version C","Relational, read only version C",,,,,,0,Instruct,,10,"You will now be presented with a new set of word pairs. Please study each pair. Remember that your memory will be tested! When finished, press Enter to move to the next pair.",Initial_Instruct,Instruct4,12825,,,-1,-1,,,,1
w939670YN,xx317fmu8w,Relational_NO_JOL,1,182,2020-05-07T11:11:55-07:00,32.959678888321,3,versionC_stim.csv,READVersionC.csv,"Read Version C","Relational, read only version C",,,,,,0,Instruct,-,15,"As you study, please think about how the two concepts are RELATED to each other. For example, if you see the pair TURTLE-CAT, think about how both are alive, they are both animals, and both can be kept as pets.",,Instruct20,32464,,,-1,-1,,,,0.925
w939670YN,xx317fmu8w,Relational_NO_JOL,1,183,2020-05-07T11:12:13-07:00,17.921360969543,3,versionC_stim.csv,READVersionC.csv,"Read Version C","Relational, read only version C",,,,,,0,FreeRecall,-,10,"What you should think about as you study each item pair? Type your response in the box below.",,CHECK4,17409,"How they are alike or what they have in common.",0,3985,15119,0,0,,1
w939670YN,xx317fmu8w,Relational_NO_JOL,1,184,2020-05-07T11:12:17-07:00,4.069836139679,3,versionC_stim.csv,READVersionC.csv,"Read Version C","Relational, read only version C",,,,,,0,Instruct,User,-,"Press Enter when you are readty to begin",,Instruct11,3560,,,-1,-1,,,,1
w939670YN,xx317fmu8w,Relational_NO_JOL,1,185,2020-05-07T11:12:20-07:00,2.7310228347778,3,versionC_stim.csv,READVersionC.csv,"Read Version C","Relational, read only version C",FISH,SHRIMP,BUFFER3,Buffer,93,96,Study,User,-,,Study/JOL,BUFFER3,2205,,,-1,-1,,,,1
w939670YN,xx317fmu8w,Relational_NO_JOL,1,186,2020-05-07T11:12:22-07:00,1.9283390045166,3,versionC_stim.csv,READVersionC.csv,"Read Version C","Relational, read only version C",STRING,NOODLE,BUFFER3,Buffer,92,93,Study,User,-,,Study/JOL,BUFFER3,1434,,,-1,-1,,,,1
w939670YN,xx317fmu8w,Relational_NO_JOL,1,187,2020-05-07T11:12:25-07:00,2.863667011261,3,versionC_stim.csv,READVersionC.csv,"Read Version C","Relational, read only version C",ADVENTURE,CAMP,BUFFER3,Buffer,95,95,Study,User,-,,Study/JOL,BUFFER3,2391,,,-1,-1,,,,1
w939670YN,xx317fmu8w,Relational_NO_JOL,1,188,2020-05-07T11:12:26-07:00,1.2346770763397,3,versionC_stim.csv,READVersionC.csv,"Read Version C","Relational, read only version C",POTATO,CARROT,BUFFER3,Buffer,91,92,Study,User,-,,Study/JOL,BUFFER3,840,,,-1,-1,,,,1
w939670YN,xx317fmu8w,Relational_NO_JOL,1,189,2020-05-07T11:12:27-07:00,1.1478409767151,3,versionC_stim.csv,READVersionC.csv,"Read Version C","Relational, read only version C",FROZEN,ICE,BUFFER3,Buffer,94,94,Study,User,-,,Study/JOL,BUFFER3,747,,,-1,-1,,,,1
w939670YN,xx317fmu8w,Relational_NO_JOL,1,190,2020-05-07T11:12:28-07:00,1.1357779502869,3,versionC_stim.csv,READVersionC.csv,"Read Version C","Relational, read only version C",CHILDREN,MIRROR,Study2,U,174,144,Study,User,-,,Study/JOL,"Study Phase2",748,,,-1,-1,,,,1
w939670YN,xx317fmu8w,Relational_NO_JOL,1,191,2020-05-07T11:12:29-07:00,1.1306960582733,3,versionC_stim.csv,READVersionC.csv,"Read Version C","Relational, read only version C",HATE,NAME,Study2,U,167,136,Study,User,-,,Study/JOL,"Study Phase2",702,,,-1,-1,,,,1
w939670YN,xx317fmu8w,Relational_NO_JOL,1,192,2020-05-07T11:12:30-07:00,1.0988099575043,3,versionC_stim.csv,READVersionC.csv,"Read Version C","Relational, read only version C",Morning,TEMPERATURE,Study2,U,173,124,Study,User,-,,Study/JOL,"Study Phase2",671,,,-1,-1,,,,1
w939670YN,xx317fmu8w,Relational_NO_JOL,1,193,2020-05-07T11:12:31-07:00,0.99848818778992,3,versionC_stim.csv,READVersionC.csv,"Read Version C","Relational, read only version C",NAP,SLEEP,Study2,F,134,123,Study,User,-,,Study/JOL,"Study Phase2",583,,,-1,-1,,,,1
w939670YN,xx317fmu8w,Relational_NO_JOL,1,194,2020-05-07T11:12:34-07:00,2.8104319572449,3,versionC_stim.csv,READVersionC.csv,"Read Version C","Relational, read only version C",BANG,FUZZY,Study2,U,168,140,Study,User,-,,Study/JOL,"Study Phase2",2316,,,-1,-1,,,,1
w939670YN,xx317fmu8w,Relational_NO_JOL,1,195,2020-05-07T11:12:35-07:00,1.2031698226929,3,versionC_stim.csv,READVersionC.csv,"Read Version C","Relational, read only version C",SIGN,LOAN,Study2,U,171,111,Study,User,-,,Study/JOL,"Study Phase2",794,,,-1,-1,,,,1
w939670YN,xx317fmu8w,Relational_NO_JOL,1,196,2020-05-07T11:12:37-07:00,1.1908900737762,3,versionC_stim.csv,READVersionC.csv,"Read Version C","Relational, read only version C",OUNCE,BOTH,Study2,U,172,109,Study,User,-,,Study/JOL,"Study Phase2",727,,,-1,-1,,,,1
w939670YN,xx317fmu8w,Relational_NO_JOL,1,197,2020-05-07T11:12:38-07:00,1.2630090713501,3,versionC_stim.csv,READVersionC.csv,"Read Version C","Relational, read only version C",AIRCRAFT,PLANE,Study2,F,129,145,Study,User,-,,Study/JOL,"Study Phase2",843,,,-1,-1,,,,1
w939670YN,xx317fmu8w,Relational_NO_JOL,1,198,2020-05-07T11:12:39-07:00,1.1324439048767,3,versionC_stim.csv,READVersionC.csv,"Read Version C","Relational, read only version C",OBTAIN,MEAT,Study2,U,161,175,Study,User,-,,Study/JOL,"Study Phase2",716,,,-1,-1,,,,1
w939670YN,xx317fmu8w,Relational_NO_JOL,1,199,2020-05-07T11:12:40-07:00,1.1687459945679,3,versionC_stim.csv,READVersionC.csv,"Read Version C","Relational, read only version C",DONKEY,MULE,Study2,B,108,104,Study,User,-,,Study/JOL,"Study Phase2",754,,,-1,-1,,,,1
w939670YN,xx317fmu8w,Relational_NO_JOL,1,200,2020-05-07T11:12:42-07:00,1.5342421531677,3,versionC_stim.csv,READVersionC.csv,"Read Version C","Relational, read only version C",GAME,CLUE,Study2,B,97,114,Study,User,-,,Study/JOL,"Study Phase2",1040,,,-1,-1,,,,1
w939670YN,xx317fmu8w,Relational_NO_JOL,1,201,2020-05-07T11:12:43-07:00,1.224625825882,3,versionC_stim.csv,READVersionC.csv,"Read Version C","Relational, read only version C",PENGUIN,BIRD,Study2,F,119,107,Study,User,-,,Study/JOL,"Study Phase2",822,,,-1,-1,,,,1
w939670YN,xx317fmu8w,Relational_NO_JOL,1,202,2020-05-07T11:12:44-07:00,1.2189610004425,3,versionC_stim.csv,READVersionC.csv,"Read Version C","Relational, read only version C",BANKER,MONEY,Study2,F,132,127,Study,User,-,,Study/JOL,"Study Phase2",805,,,-1,-1,,,,1
w939670YN,xx317fmu8w,Relational_NO_JOL,1,203,2020-05-07T11:12:45-07:00,1.1849870681763,3,versionC_stim.csv,READVersionC.csv,"Read Version C","Relational, read only version C",MYSTERY,DETECTIVE,Study2,B,100,97,Study,User,-,,Study/JOL,"Study Phase2",767,,,-1,-1,,,,1
w939670YN,xx317fmu8w,Relational_NO_JOL,1,204,2020-05-07T11:12:47-07:00,1.2029650211334,3,versionC_stim.csv,READVersionC.csv,"Read Version C","Relational, read only version C",SHAVE,RAZOR,Study2,S,136,99,Study,User,-,,Study/JOL,"Study Phase2",793,,,-1,-1,,,,1
w939670YN,xx317fmu8w,Relational_NO_JOL,1,205,2020-05-07T11:12:48-07:00,1.1658730506897,3,versionC_stim.csv,READVersionC.csv,"Read Version C","Relational, read only version C",CARBON,ELEMENT,Study2,S,141,151,Study,User,-,,Study/JOL,"Study Phase2",753,,,-1,-1,,,,1
w939670YN,xx317fmu8w,Relational_NO_JOL,1,206,2020-05-07T11:12:49-07:00,1.2895469665527,3,versionC_stim.csv,READVersionC.csv,"Read Version C","Relational, read only version C",END,ADJOURN,Study2,B,101,152,Study,User,-,,Study/JOL,"Study Phase2",779,,,-1,-1,,,,1
w939670YN,xx317fmu8w,Relational_NO_JOL,1,207,2020-05-07T11:12:53-07:00,4.2640249729156,3,versionC_stim.csv,READVersionC.csv,"Read Version C","Relational, read only version C",STEAK,GIVE,Study2,U,158,169,Study,User,-,,Study/JOL,"Study Phase2",3682,,,-1,-1,,,,1
w939670YN,xx317fmu8w,Relational_NO_JOL,1,208,2020-05-07T11:12:55-07:00,1.3428320884705,3,versionC_stim.csv,READVersionC.csv,"Read Version C","Relational, read only version C",DOG,FURRY,Study2,B,102,108,Study,User,-,,Study/JOL,"Study Phase2",931,,,-1,-1,,,,1
w939670YN,xx317fmu8w,Relational_NO_JOL,1,209,2020-05-07T11:12:56-07:00,1.5334219932556,3,versionC_stim.csv,READVersionC.csv,"Read Version C","Relational, read only version C",FLIP,TURN,Study2,F,116,148,Study,User,-,,Study/JOL,"Study Phase2",1017,,,-1,-1,,,,1
w939670YN,xx317fmu8w,Relational_NO_JOL,1,210,2020-05-07T11:12:58-07:00,1.5697989463806,3,versionC_stim.csv,READVersionC.csv,"Read Version C","Relational, read only version C",THIMBLE,THREAD,Study2,F,121,119,Study,User,-,,Study/JOL,"Study Phase2",1038,,,-1,-1,,,,1
w939670YN,xx317fmu8w,Relational_NO_JOL,1,211,2020-05-07T11:12:59-07:00,1.5838780403137,3,versionC_stim.csv,READVersionC.csv,"Read Version C","Relational, read only version C",EQUAL,RIGHTS,Study2,S,137,115,Study,User,-,,Study/JOL,"Study Phase2",1068,,,-1,-1,,,,1
w939670YN,xx317fmu8w,Relational_NO_JOL,1,212,2020-05-07T11:13:01-07:00,1.5082569122314,3,versionC_stim.csv,READVersionC.csv,"Read Version C","Relational, read only version C",HAVE,OWN,Study2,S,153,110,Study,User,-,,Study/JOL,"Study Phase2",1002,,,-1,-1,,,,1
w939670YN,xx317fmu8w,Relational_NO_JOL,1,213,2020-05-07T11:13:02-07:00,1.5327229499817,3,versionC_stim.csv,READVersionC.csv,"Read Version C","Relational, read only version C",NOISE,LOUD,Study2,S,152,116,Study,User,-,,Study/JOL,"Study Phase2",1016,,,-1,-1,,,,1
w939670YN,xx317fmu8w,Relational_NO_JOL,1,214,2020-05-07T11:13:06-07:00,3.7947251796722,3,versionC_stim.csv,READVersionC.csv,"Read Version C","Relational, read only version C",TRUTHFUL,HONEST,Study2,F,133,162,Study,User,-,,Study/JOL,"Study Phase2",3269,,,-1,-1,,,,1
w939670YN,xx317fmu8w,Relational_NO_JOL,1,215,2020-05-07T11:13:11-07:00,4.7891438007355,3,versionC_stim.csv,READVersionC.csv,"Read Version C","Relational, read only version C",LIE,TRUTH,Study2,S,148,121,Study,User,-,,Study/JOL,"Study Phase2",4272,,,-1,-1,,,,1
w939670YN,xx317fmu8w,Relational_NO_JOL,1,216,2020-05-07T11:13:12-07:00,1.3227801322937,3,versionC_stim.csv,READVersionC.csv,"Read Version C","Relational, read only version C",REEL,ROD,Study2,S,150,158,Study,User,-,,Study/JOL,"Study Phase2",916,,,-1,-1,,,,1
w939670YN,xx317fmu8w,Relational_NO_JOL,1,217,2020-05-07T11:13:14-07:00,1.278678894043,3,versionC_stim.csv,READVersionC.csv,"Read Version C","Relational, read only version C",SCAR,MAIN,Study2,U,175,163,Study,User,-,,Study/JOL,"Study Phase2",876,,,-1,-1,,,,1
w939670YN,xx317fmu8w,Relational_NO_JOL,1,218,2020-05-07T11:13:15-07:00,1.2318861484528,3,versionC_stim.csv,READVersionC.csv,"Read Version C","Relational, read only version C",TOIL,LEASE,Study2,U,170,132,Study,User,-,,Study/JOL,"Study Phase2",821,,,-1,-1,,,,1
w939670YN,xx317fmu8w,Relational_NO_JOL,1,219,2020-05-07T11:13:16-07:00,1.2272310256958,3,versionC_stim.csv,READVersionC.csv,"Read Version C","Relational, read only version C",FAVORITE,BEST,Study2,F,125,155,Study,User,-,,Study/JOL,"Study Phase2",814,,,-1,-1,,,,1
w939670YN,xx317fmu8w,Relational_NO_JOL,1,220,2020-05-07T11:13:17-07:00,1.2189798355103,3,versionC_stim.csv,READVersionC.csv,"Read Version C","Relational, read only version C",PANTHER,CAT,Study2,F,126,122,Study,User,-,,Study/JOL,"Study Phase2",766,,,-1,-1,,,,1
w939670YN,xx317fmu8w,Relational_NO_JOL,1,221,2020-05-07T11:13:19-07:00,1.2889039516449,3,versionC_stim.csv,READVersionC.csv,"Read Version C","Relational, read only version C",LONELY,ALONE,Study2,S,145,133,Study,User,-,,Study/JOL,"Study Phase2",868,,,-1,-1,,,,1
w939670YN,xx317fmu8w,Relational_NO_JOL,1,222,2020-05-07T11:13:21-07:00,2.4218020439148,3,versionC_stim.csv,READVersionC.csv,"Read Version C","Relational, read only version C",PAPER,DOCUMENT,Study2,B,109,105,Study,User,-,,Study/JOL,"Study Phase2",1910,,,-1,-1,,,,1
w939670YN,xx317fmu8w,Relational_NO_JOL,1,223,2020-05-07T11:13:22-07:00,1.2784790992737,3,versionC_stim.csv,READVersionC.csv,"Read Version C","Relational, read only version C",COMMUNICATION,PHONE,Study2,S,149,143,Study,User,-,,Study/JOL,"Study Phase2",889,,,-1,-1,,,,1
w939670YN,xx317fmu8w,Relational_NO_JOL,1,224,2020-05-07T11:13:28-07:00,5.4684760570526,3,versionC_stim.csv,READVersionC.csv,"Read Version C","Relational, read only version C",,,,,,0,Instruct,-,3,"Remember to focus on how the two items are similiar while you study!",,CHECK5,4987,,,-1,-1,,,,1
w939670YN,xx317fmu8w,Relational_NO_JOL,1,225,2020-05-07T11:13:30-07:00,1.9714119434357,3,versionC_stim.csv,READVersionC.csv,"Read Version C","Relational, read only version C",CLEAR,MOAT,Study2,U,169,174,Study,User,-,,Study/JOL,"Study Phase2",1482,,,-1,-1,,,,1
w939670YN,xx317fmu8w,Relational_NO_JOL,1,226,2020-05-07T11:13:31-07:00,1.6306760311127,3,versionC_stim.csv,READVersionC.csv,"Read Version C","Relational, read only version C",FIGHT,FEUD,Study2,B,113,170,Study,User,-,,Study/JOL,"Study Phase2",1122,,,-1,-1,,,,1
w939670YN,xx317fmu8w,Relational_NO_JOL,1,227,2020-05-07T11:13:33-07:00,1.3160009384155,3,versionC_stim.csv,READVersionC.csv,"Read Version C","Relational, read only version C",ELECTION,MAZE,Study2,U,159,167,Study,User,-,,Study/JOL,"Study Phase2",911,,,-1,-1,,,,1
w939670YN,xx317fmu8w,Relational_NO_JOL,1,228,2020-05-07T11:13:34-07:00,1.3268880844116,3,versionC_stim.csv,READVersionC.csv,"Read Version C","Relational, read only version C",COLD,CHILL,Study2,B,114,160,Study,User,-,,Study/JOL,"Study Phase2",923,,,-1,-1,,,,1
w939670YN,xx317fmu8w,Relational_NO_JOL,1,229,2020-05-07T11:13:36-07:00,1.5713839530945,3,versionC_stim.csv,READVersionC.csv,"Read Version C","Relational, read only version C",MAROON,JUSTICE,Study2,U,156,98,Study,User,-,,Study/JOL,"Study Phase2",1061,,,-1,-1,,,,1
w939670YN,xx317fmu8w,Relational_NO_JOL,1,230,2020-05-07T11:13:37-07:00,1.4829189777374,3,versionC_stim.csv,READVersionC.csv,"Read Version C","Relational, read only version C",WET,DRY,Study2,S,146,117,Study,User,-,,Study/JOL,"Study Phase2",979,,,-1,-1,,,,1
w939670YN,xx317fmu8w,Relational_NO_JOL,1,231,2020-05-07T11:13:41-07:00,3.7427189350128,3,versionC_stim.csv,READVersionC.csv,"Read Version C","Relational, read only version C",CHARM,VEHICLE,Study2,U,160,168,Study,User,-,,Study/JOL,"Study Phase2",3081,,,-1,-1,,,,1
w939670YN,xx317fmu8w,Relational_NO_JOL,1,232,2020-05-07T11:13:44-07:00,3.3679571151733,3,versionC_stim.csv,READVersionC.csv,"Read Version C","Relational, read only version C",SEATBELT,SAFETY,Study2,S,147,165,Study,User,-,,Study/JOL,"Study Phase2",2899,,,-1,-1,,,,1
w939670YN,xx317fmu8w,Relational_NO_JOL,1,233,2020-05-07T11:13:46-07:00,1.6601028442383,3,versionC_stim.csv,READVersionC.csv,"Read Version C","Relational, read only version C",TAN,SUN,Study2,S,155,171,Study,User,-,,Study/JOL,"Study Phase2",1159,,,-1,-1,,,,1
w939670YN,xx317fmu8w,Relational_NO_JOL,1,234,2020-05-07T11:13:48-07:00,2.4707081317902,3,versionC_stim.csv,READVersionC.csv,"Read Version C","Relational, read only version C",BREAKABLE,GLASS,Study2,F,127,112,Study,User,-,,Study/JOL,"Study Phase2",1976,,,-1,-1,,,,1
w939670YN,xx317fmu8w,Relational_NO_JOL,1,235,2020-05-07T11:13:50-07:00,1.2992298603058,3,versionC_stim.csv,READVersionC.csv,"Read Version C","Relational, read only version C",WAX,CANDLE,Study2,S,139,166,Study,User,-,,Study/JOL,"Study Phase2",907,,,-1,-1,,,,1
w939670YN,xx317fmu8w,Relational_NO_JOL,1,236,2020-05-07T11:13:51-07:00,1.5480880737305,3,versionC_stim.csv,READVersionC.csv,"Read Version C","Relational, read only version C",TIE,SHOELACE,Study2,B,99,146,Study,User,-,,Study/JOL,"Study Phase2",1077,,,-1,-1,,,,1
w939670YN,xx317fmu8w,Relational_NO_JOL,1,237,2020-05-07T11:13:54-07:00,2.679888010025,3,versionC_stim.csv,READVersionC.csv,"Read Version C","Relational, read only version C",TICK,FLEA,Study2,S,151,142,Study,User,-,,Study/JOL,"Study Phase2",2193,,,-1,-1,,,,1
w939670YN,xx317fmu8w,Relational_NO_JOL,1,238,2020-05-07T11:13:55-07:00,1.3562700748444,3,versionC_stim.csv,READVersionC.csv,"Read Version C","Relational, read only version C",GROUND,EARTH,Study2,S,144,147,Study,User,-,,Study/JOL,"Study Phase2",907,,,-1,-1,,,,1
w939670YN,xx317fmu8w,Relational_NO_JOL,1,239,2020-05-07T11:13:56-07:00,1.2601039409637,3,versionC_stim.csv,READVersionC.csv,"Read Version C","Relational, read only version C",LOVE,AFFECTION,Study2,B,115,157,Study,User,-,,Study/JOL,"Study Phase2",825,,,-1,-1,,,,1
w939670YN,xx317fmu8w,Relational_NO_JOL,1,240,2020-05-07T11:13:58-07:00,1.404529094696,3,versionC_stim.csv,READVersionC.csv,"Read Version C","Relational, read only version C",SCISSORS,SHEARS,Study2,B,112,134,Study,User,-,,Study/JOL,"Study Phase2",819,,,-1,-1,,,,1
w939670YN,xx317fmu8w,Relational_NO_JOL,1,241,2020-05-07T11:14:01-07:00,3.6817438602448,3,versionC_stim.csv,READVersionC.csv,"Read Version C","Relational, read only version C",BRACELET,WRIST,Study2,S,140,153,Study,User,-,,Study/JOL,"Study Phase2",3164,,,-1,-1,,,,1
w939670YN,xx317fmu8w,Relational_NO_JOL,1,242,2020-05-07T11:14:03-07:00,1.6057019233704,3,versionC_stim.csv,READVersionC.csv,"Read Version C","Relational, read only version C",SHAKE,Shell,Study2,U,163,141,Study,User,-,,Study/JOL,"Study Phase2",1104,,,-1,-1,,,,1
w939670YN,xx317fmu8w,Relational_NO_JOL,1,243,2020-05-07T11:14:04-07:00,1.306654214859,3,versionC_stim.csv,READVersionC.csv,"Read Version C","Relational, read only version C",TRASH,LITTER,Study2,B,103,154,Study,User,-,,Study/JOL,"Study Phase2",905,,,-1,-1,,,,1
w939670YN,xx317fmu8w,Relational_NO_JOL,1,244,2020-05-07T11:14:06-07:00,1.666543006897,3,versionC_stim.csv,READVersionC.csv,"Read Version C","Relational, read only version C",AWAY,GONE,Study2,S,142,131,Study,User,-,,Study/JOL,"Study Phase2",1131,,,-1,-1,,,,1
w939670YN,xx317fmu8w,Relational_NO_JOL,1,245,2020-05-07T11:14:07-07:00,1.2859199047089,3,versionC_stim.csv,READVersionC.csv,"Read Version C","Relational, read only version C",WINDSHIELD,CAR,Study2,F,117,138,Study,User,-,,Study/JOL,"Study Phase2",881,,,-1,-1,,,,1
w939670YN,xx317fmu8w,Relational_NO_JOL,1,246,2020-05-07T11:14:11-07:00,3.2701869010925,3,versionC_stim.csv,READVersionC.csv,"Read Version C","Relational, read only version C",CAR,DRIVER,Study2,B,106,125,Study,User,-,,Study/JOL,"Study Phase2",2641,,,-1,-1,,,,1
w939670YN,xx317fmu8w,Relational_NO_JOL,1,247,2020-05-07T11:14:15-07:00,4.0602700710297,3,versionC_stim.csv,READVersionC.csv,"Read Version C","Relational, read only version C",SMELL,INCENSE,Study2,B,110,139,Study,User,-,,Study/JOL,"Study Phase2",3533,,,-1,-1,,,,1
w939670YN,xx317fmu8w,Relational_NO_JOL,1,248,2020-05-07T11:14:45-07:00,30.003293037415,3,versionC_stim.csv,READVersionC.csv,"Read Version C","Relational, read only version C",BALLOON,POP,Study2,F,123,149,Study,User,-,,Study/JOL,"Study Phase2",29410,,,-1,-1,,,,1
w939670YN,xx317fmu8w,Relational_NO_JOL,1,249,2020-05-07T11:14:46-07:00,1.2753760814667,3,versionC_stim.csv,READVersionC.csv,"Read Version C","Relational, read only version C",CLOTHES,CAKE,Study2,U,166,128,Study,User,-,,Study/JOL,"Study Phase2",870,,,-1,-1,,,,1
w939670YN,xx317fmu8w,Relational_NO_JOL,1,250,2020-05-07T11:14:56-07:00,10.085308790207,3,versionC_stim.csv,READVersionC.csv,"Read Version C","Relational, read only version C",JAR,MASON,Study2,S,138,101,Study,User,-,,Study/JOL,"Study Phase2",9496,,,-1,-1,,,,1
w939670YN,xx317fmu8w,Relational_NO_JOL,1,251,2020-05-07T11:14:59-07:00,2.5323071479797,3,versionC_stim.csv,READVersionC.csv,"Read Version C","Relational, read only version C",LONG,EXTENSION,Study2,B,96,150,Study,User,-,,Study/JOL,"Study Phase2",2014,,,-1,-1,,,,1
w939670YN,xx317fmu8w,Relational_NO_JOL,1,252,2020-05-07T11:15:02-07:00,3.3391120433807,3,versionC_stim.csv,READVersionC.csv,"Read Version C","Relational, read only version C",CLOTH,STRETCH,Study2,U,157,135,Study,User,-,,Study/JOL,"Study Phase2",2819,,,-1,-1,,,,1
w939670YN,xx317fmu8w,Relational_NO_JOL,1,253,2020-05-07T11:15:03-07:00,1.32231092453,3,versionC_stim.csv,READVersionC.csv,"Read Version C","Relational, read only version C",VILLAIN,BAD,Study2,F,118,176,Study,User,-,,Study/JOL,"Study Phase2",930,,,-1,-1,,,,1
w939670YN,xx317fmu8w,Relational_NO_JOL,1,254,2020-05-07T11:15:05-07:00,1.7491450309753,3,versionC_stim.csv,READVersionC.csv,"Read Version C","Relational, read only version C",BRAWL,FIGHT,Study2,F,135,103,Study,User,-,,Study/JOL,"Study Phase2",1255,,,-1,-1,,,,1
w939670YN,xx317fmu8w,Relational_NO_JOL,1,255,2020-05-07T11:15:06-07:00,1.4559459686279,3,versionC_stim.csv,READVersionC.csv,"Read Version C","Relational, read only version C",JOKE,KEYS,Study2,U,165,102,Study,User,-,,Study/JOL,"Study Phase2",951,,,-1,-1,,,,1
w939670YN,xx317fmu8w,Relational_NO_JOL,1,256,2020-05-07T11:15:08-07:00,1.572741985321,3,versionC_stim.csv,READVersionC.csv,"Read Version C","Relational, read only version C",REVENGE,EVEN,Study2,F,122,118,Study,User,-,,Study/JOL,"Study Phase2",1070,,,-1,-1,,,,1
w939670YN,xx317fmu8w,Relational_NO_JOL,1,257,2020-05-07T11:15:09-07:00,1.2601969242096,3,versionC_stim.csv,READVersionC.csv,"Read Version C","Relational, read only version C",COFFIN,DEAD,Study2,F,128,173,Study,User,-,,Study/JOL,"Study Phase2",867,,,-1,-1,,,,1
w939670YN,xx317fmu8w,Relational_NO_JOL,1,258,2020-05-07T11:15:11-07:00,1.3215250968933,3,versionC_stim.csv,READVersionC.csv,"Read Version C","Relational, read only version C",STRAWBERRY,FRUIT,Study2,F,124,137,Study,User,-,,Study/JOL,"Study Phase2",896,,,-1,-1,,,,1
w939670YN,xx317fmu8w,Relational_NO_JOL,1,259,2020-05-07T11:15:12-07:00,1.4284870624542,3,versionC_stim.csv,READVersionC.csv,"Read Version C","Relational, read only version C",SARDINE,FISH,Study2,F,130,120,Study,User,-,,Study/JOL,"Study Phase2",933,,,-1,-1,,,,1
w939670YN,xx317fmu8w,Relational_NO_JOL,1,260,2020-05-07T11:15:13-07:00,1.259920835495,3,versionC_stim.csv,READVersionC.csv,"Read Version C","Relational, read only version C",ACTRESS,STAR,Study2,F,120,129,Study,User,-,,Study/JOL,"Study Phase2",850,,,-1,-1,,,,1
w939670YN,xx317fmu8w,Relational_NO_JOL,1,261,2020-05-07T11:15:15-07:00,1.2420790195465,3,versionC_stim.csv,READVersionC.csv,"Read Version C","Relational, read only version C",DRINK,WATER,Study2,S,143,156,Study,User,-,,Study/JOL,"Study Phase2",829,,,-1,-1,,,,1
w939670YN,xx317fmu8w,Relational_NO_JOL,1,262,2020-05-07T11:15:16-07:00,1.1872751712799,3,versionC_stim.csv,READVersionC.csv,"Read Version C","Relational, read only version C",RED,CHERRY,Study2,B,104,130,Study,User,-,,Study/JOL,"Study Phase2",786,,,-1,-1,,,,1
w939670YN,xx317fmu8w,Relational_NO_JOL,1,263,2020-05-07T11:15:17-07:00,1.1584010124207,3,versionC_stim.csv,READVersionC.csv,"Read Version C","Relational, read only version C",ABLE,CRACKLE,Study2,U,162,172,Study,User,-,,Study/JOL,"Study Phase2",744,,,-1,-1,,,,1
w939670YN,xx317fmu8w,Relational_NO_JOL,1,264,2020-05-07T11:15:18-07:00,1.1742739677429,3,versionC_stim.csv,READVersionC.csv,"Read Version C","Relational, read only version C",HEAD,SCALP,Study2,B,105,161,Study,User,-,,Study/JOL,"Study Phase2",777,,,-1,-1,,,,1
w939670YN,xx317fmu8w,Relational_NO_JOL,1,265,2020-05-07T11:15:19-07:00,1.1482698917389,3,versionC_stim.csv,READVersionC.csv,"Read Version C","Relational, read only version C",PLANT,CACTUS,Study2,B,98,126,Study,User,-,,Study/JOL,"Study Phase2",649,,,-1,-1,,,,1
w939670YN,xx317fmu8w,Relational_NO_JOL,1,266,2020-05-07T11:15:20-07:00,1.1799459457397,3,versionC_stim.csv,READVersionC.csv,"Read Version C","Relational, read only version C",LEAGUE,BASEBALL,Study2,F,131,159,Study,User,-,,Study/JOL,"Study Phase2",764,,,-1,-1,,,,1
w939670YN,xx317fmu8w,Relational_NO_JOL,1,267,2020-05-07T11:15:21-07:00,1.1136481761932,3,versionC_stim.csv,READVersionC.csv,"Read Version C","Relational, read only version C",FICTION,LISTEN,Study2,U,164,106,Study,User,-,,Study/JOL,"Study Phase2",677,,,-1,-1,,,,1
w939670YN,xx317fmu8w,Relational_NO_JOL,1,268,2020-05-07T11:15:23-07:00,1.1733989715576,3,versionC_stim.csv,READVersionC.csv,"Read Version C","Relational, read only version C",EAT,DINE,Study2,B,111,113,Study,User,-,,Study/JOL,"Study Phase2",757,,,-1,-1,,,,1
w939670YN,xx317fmu8w,Relational_NO_JOL,1,269,2020-05-07T11:15:24-07:00,1.1704559326172,3,versionC_stim.csv,READVersionC.csv,"Read Version C","Relational, read only version C",CUT,CHOP,Study2,B,107,100,Study,User,-,,Study/JOL,"Study Phase2",761,,,-1,-1,,,,1
w939670YN,xx317fmu8w,Relational_NO_JOL,1,270,2020-05-07T11:15:26-07:00,2.5433740615845,3,versionC_stim.csv,READVersionC.csv,"Read Version C","Relational, read only version C",TEMPER,TANTRUM,Study2,S,154,164,Study,User,-,,Study/JOL,"Study Phase2",2041,,,-1,-1,,,,1
w939670YN,xx317fmu8w,Relational_NO_JOL,1,271,2020-05-07T11:15:29-07:00,3.0492458343506,3,versionC_stim.csv,READVersionC.csv,"Read Version C","Relational, read only version C",YEAR,MONTH,BUFFER4,Buffer,177,180,Study,User,-,,Study/JOL,BUFFER4,2559,,,-1,-1,,,,1
w939670YN,xx317fmu8w,Relational_NO_JOL,1,272,2020-05-07T11:15:31-07:00,1.4590241909027,3,versionC_stim.csv,READVersionC.csv,"Read Version C","Relational, read only version C",WEAKS,DAYS,BUFFER4,Buffer,176,178,Study,User,-,,Study/JOL,BUFFER4,985,,,-1,-1,,,,1
w939670YN,xx317fmu8w,Relational_NO_JOL,1,273,2020-05-07T11:15:32-07:00,1.2842237949371,3,versionC_stim.csv,READVersionC.csv,"Read Version C","Relational, read only version C",SHED,TOOL,BUFFER4,Buffer,178,177,Study,User,-,,Study/JOL,BUFFER4,888,,,-1,-1,,,,1
w939670YN,xx317fmu8w,Relational_NO_JOL,1,274,2020-05-07T11:15:33-07:00,1.2788500785828,3,versionC_stim.csv,READVersionC.csv,"Read Version C","Relational, read only version C",SPOOKY,OCTOBER,BUFFER4,Buffer,180,181,Study,User,-,,Study/JOL,BUFFER4,867,,,-1,-1,,,,1
w939670YN,xx317fmu8w,Relational_NO_JOL,1,275,2020-05-07T11:15:35-07:00,1.2158291339874,3,versionC_stim.csv,READVersionC.csv,"Read Version C","Relational, read only version C",MARCH,SPRING,BUFFER4,Buffer,179,179,Study,User,-,,Study/JOL,BUFFER4,797,,,-1,-1,,,,1
w939670YN,xx317fmu8w,Relational_NO_JOL,1,276,2020-05-07T11:15:39-07:00,3.8975918292999,3,versionC_stim.csv,READVersionC.csv,"Read Version C","Relational, read only version C",,,,,,0,Instruct,User,-,"You have completed this section. Please press Enter.",Filler_Instruction,Instruct5,3408,,,-1,-1,,,,1
w939670YN,xx317fmu8w,Relational_NO_JOL,1,277,2020-05-07T11:15:57-07:00,18.809604167938,3,versionC_stim.csv,READVersionC.csv,"Read Version C","Relational, read only version C",,,,,,0,FreeRecall,-,10,"What were you supposed to focus on while you studied each pair? (Hint: Think back to the instructions). Type your answer in the space below.",,CHECK3,16080,"How they share something similar or how they are alike.",0,5275,13998,0,0,,1
w939670YN,xx317fmu8w,Relational_NO_JOL,1,278,2020-05-07T11:16:00-07:00,2.3439798355103,3,versionC_stim.csv,READVersionC.csv,"Read Version C","Relational, read only version C",,,,,,0,Instruct,User,-,"You have completed this section. Please press Enter.",Filler_Instruction,Instruct5,1821,,,-1,-1,,,,1
w939670YN,xx317fmu8w,Relational_NO_JOL,1,279,2020-05-07T11:18:00-07:00,120.61809396744,3,versionC_stim.csv,READVersionC.csv,"Read Version C","Relational, read only version C",,,,,,0,FreeRecall,120,120,"Please list the 50 US states in reverse alphabetical order (z - a). The task will automatically advance to the next screen after two minutes.",,Filler2,120007,"Wyoming Utah Texas Tennessee South Dakota Vermont Virginia Pennsylvania Mississippi Georgia ",0,7710,118613,0,0,,1
w939670YN,xx317fmu8w,Relational_NO_JOL,1,280,2020-05-07T11:18:49-07:00,49.005422115326,3,versionC_stim.csv,READVersionC.csv,"Read Version C","Relational, read only version C",,,,,,0,Instruct,-,10,"You will now be presented with the first word from each of the previously studied item pairs. Please type the missing word. If you do not know the word, you may guess or press Enter to skip forward to the next pair.",,Instruct6,48465,,,-1,-1,,,,0.895
w939670YN,xx317fmu8w,Relational_NO_JOL,1,281,2020-05-07T11:18:54-07:00,4.7641289234161,3,versionC_stim.csv,READVersionC.csv,"Read Version C","Relational, read only version C",THIMBLE,THREAD,Study2,F,121,119,Test,User,-,,Recall,Recall2,4257,"Jack ",20,2441,3489,0,0,,1
w939670YN,xx317fmu8w,Relational_NO_JOL,1,282,2020-05-07T11:18:57-07:00,2.9644429683685,3,versionC_stim.csv,READVersionC.csv,"Read Version C","Relational, read only version C",LOVE,AFFECTION,Study2,B,115,157,Test,User,-,,Recall,Recall2,2461,Hate,30.769230769231,1426,1701,0,0,,1
w939670YN,xx317fmu8w,Relational_NO_JOL,1,283,2020-05-07T11:19:02-07:00,4.8607211112976,3,versionC_stim.csv,READVersionC.csv,"Read Version C","Relational, read only version C",TRASH,LITTER,Study2,B,103,154,Test,User,-,,Recall,Recall2,4337,"Treasure ",28.571428571429,1970,3575,0,0,,1
w939670YN,xx317fmu8w,Relational_NO_JOL,1,284,2020-05-07T11:19:05-07:00,3.1441900730133,3,versionC_stim.csv,READVersionC.csv,"Read Version C","Relational, read only version C",TICK,FLEA,Study2,S,151,142,Test,User,-,,Recall,Recall2,2614,Tock,0,1545,1802,0,0,,1
w939670YN,xx317fmu8w,Relational_NO_JOL,1,285,2020-05-07T11:19:09-07:00,3.6064100265503,3,versionC_stim.csv,READVersionC.csv,"Read Version C","Relational, read only version C",CLOTH,STRETCH,Study2,U,157,135,Test,User,-,,Recall,Recall2,2510,Towel,33.333333333333,1423,1817,0,0,,1
w939670YN,xx317fmu8w,Relational_NO_JOL,1,286,2020-05-07T11:19:13-07:00,4.1842348575592,3,versionC_stim.csv,READVersionC.csv,"Read Version C","Relational, read only version C",PAPER,DOCUMENT,Study2,B,109,105,Test,User,-,,Recall,Recall2,3417,Pencil,28.571428571429,1617,2734,0,0,,1
w939670YN,xx317fmu8w,Relational_NO_JOL,1,287,2020-05-07T11:19:23-07:00,10.249772071838,3,versionC_stim.csv,READVersionC.csv,"Read Version C","Relational, read only version C",GROUND,EARTH,Study2,S,144,147,Test,User,-,,Recall,Recall2,7509,Sky,0,4784,6656,0,0,,1
w939670YN,xx317fmu8w,Relational_NO_JOL,1,288,2020-05-07T11:19:27-07:00,3.4447739124298,3,versionC_stim.csv,READVersionC.csv,"Read Version C","Relational, read only version C",AWAY,GONE,Study2,S,142,131,Test,User,-,,Recall,Recall2,2916,Here,25,1792,2145,0,0,,1
w939670YN,xx317fmu8w,Relational_NO_JOL,1,289,2020-05-07T11:19:30-07:00,3.1465859413147,3,versionC_stim.csv,READVersionC.csv,"Read Version C","Relational, read only version C",LONG,EXTENSION,Study2,B,96,150,Test,User,-,,Recall,Recall2,2639,Short,28.571428571429,1465,1908,0,0,,1
w939670YN,xx317fmu8w,Relational_NO_JOL,1,290,2020-05-07T11:19:33-07:00,2.8191521167755,3,versionC_stim.csv,READVersionC.csv,"Read Version C","Relational, read only version C",BALLOON,POP,Study2,F,123,149,Test,User,-,,Recall,Recall2,2317,Air,0,1363,1568,0,0,,1
w939670YN,xx317fmu8w,Relational_NO_JOL,1,291,2020-05-07T11:19:36-07:00,2.9805998802185,3,versionC_stim.csv,READVersionC.csv,"Read Version C","Relational, read only version C",PLANT,CACTUS,Study2,B,98,126,Test,User,-,,Recall,Recall2,2489,Sun,22.222222222222,1509,1765,0,0,,1
w939670YN,xx317fmu8w,Relational_NO_JOL,1,292,2020-05-07T11:19:40-07:00,4.778088092804,3,versionC_stim.csv,READVersionC.csv,"Read Version C","Relational, read only version C",MAROON,JUSTICE,Study2,U,156,98,Test,User,-,,Recall,Recall2,4289,Red,20,1916,3740,0,0,,1
w939670YN,xx317fmu8w,Relational_NO_JOL,1,293,2020-05-07T11:19:45-07:00,5.2054491043091,3,versionC_stim.csv,READVersionC.csv,"Read Version C","Relational, read only version C",WINDSHIELD,CAR,Study2,F,117,138,Test,User,-,,Recall,Recall2,4749,Window,0,2022,3995,0,0,,1
w939670YN,xx317fmu8w,Relational_NO_JOL,1,294,2020-05-07T11:19:49-07:00,3.1654479503632,3,versionC_stim.csv,READVersionC.csv,"Read Version C","Relational, read only version C",LIE,TRUTH,Study2,S,148,121,Test,User,-,,Recall,Recall2,2700,Truth,100,1453,1967,1,1,,1
w939670YN,xx317fmu8w,Relational_NO_JOL,1,295,2020-05-07T11:19:52-07:00,3.2610039710999,3,versionC_stim.csv,READVersionC.csv,"Read Version C","Relational, read only version C",PANTHER,CAT,Study2,F,126,122,Test,User,-,,Recall,Recall2,2765,Black,25,1571,1982,0,0,,1
w939670YN,xx317fmu8w,Relational_NO_JOL,1,296,2020-05-07T11:19:56-07:00,4.502592086792,3,versionC_stim.csv,READVersionC.csv,"Read Version C","Relational, read only version C",JOKE,KEYS,Study2,U,165,102,Test,User,-,,Recall,Recall2,3982,"Serious ",18.181818181818,2487,3380,0,0,,1
w939670YN,xx317fmu8w,Relational_NO_JOL,1,297,2020-05-07T11:19:59-07:00,3.0565040111542,3,versionC_stim.csv,READVersionC.csv,"Read Version C","Relational, read only version C",RED,CHERRY,Study2,B,104,130,Test,User,-,,Recall,Recall2,2555,Blue,20,1433,1817,0,0,,1
w939670YN,xx317fmu8w,Relational_NO_JOL,1,298,2020-05-07T11:20:04-07:00,4.2314889431,3,versionC_stim.csv,READVersionC.csv,"Read Version C","Relational, read only version C",EQUAL,RIGHTS,Study2,S,137,115,Test,User,-,,Recall,Recall2,3594,"Uneven ",0,2183,2936,0,0,,1
w939670YN,xx317fmu8w,Relational_NO_JOL,1,299,2020-05-07T11:20:07-07:00,3.5446548461914,3,versionC_stim.csv,READVersionC.csv,"Read Version C","Relational, read only version C",TOIL,LEASE,Study2,U,170,132,Test,User,-,,Recall,Recall2,2954,Soil,22.222222222222,1895,2319,0,0,,1
w939670YN,xx317fmu8w,Relational_NO_JOL,1,300,2020-05-07T11:20:10-07:00,2.6935470104218,3,versionC_stim.csv,READVersionC.csv,"Read Version C","Relational, read only version C",SARDINE,FISH,Study2,F,130,120,Test,User,-,,Recall,Recall2,2201,Fish,100,1255,1519,1,1,,1
w939670YN,xx317fmu8w,Relational_NO_JOL,1,301,2020-05-07T11:20:14-07:00,4.5322120189667,3,versionC_stim.csv,READVersionC.csv,"Read Version C","Relational, read only version C",TAN,SUN,Study2,S,155,171,Test,User,-,,Recall,Recall2,4013,Pale,0,3005,3256,0,0,,1
w939670YN,xx317fmu8w,Relational_NO_JOL,1,302,2020-05-07T11:20:19-07:00,4.1480419635773,3,versionC_stim.csv,READVersionC.csv,"Read Version C","Relational, read only version C",CHILDREN,MIRROR,Study2,U,174,144,Test,User,-,,Recall,Recall2,3645,"Parents ",15.384615384615,2079,2873,0,0,,1
w939670YN,xx317fmu8w,Relational_NO_JOL,1,303,2020-05-07T11:20:24-07:00,5.5384030342102,3,versionC_stim.csv,READVersionC.csv,"Read Version C","Relational, read only version C",SHAKE,Shell,Study2,U,163,141,Test,User,-,,Recall,Recall2,5035,Stir,22.222222222222,3853,4280,0,0,,1
w939670YN,xx317fmu8w,Relational_NO_JOL,1,304,2020-05-07T11:20:30-07:00,5.7308859825134,3,versionC_stim.csv,READVersionC.csv,"Read Version C","Relational, read only version C",GAME,CLUE,Study2,B,97,114,Test,User,-,,Recall,Recall2,5207,"Cards ",22.222222222222,3209,4454,0,0,,1
w939670YN,xx317fmu8w,Relational_NO_JOL,1,305,2020-05-07T11:20:34-07:00,4.4500131607056,3,versionC_stim.csv,READVersionC.csv,"Read Version C","Relational, read only version C",SEATBELT,SAFETY,Study2,S,147,165,Test,User,-,,Recall,Recall2,2668,Car,22.222222222222,1737,1963,0,0,,1
w939670YN,xx317fmu8w,Relational_NO_JOL,1,306,2020-05-07T11:20:37-07:00,2.874755859375,3,versionC_stim.csv,READVersionC.csv,"Read Version C","Relational, read only version C",DOG,FURRY,Study2,B,102,108,Test,User,-,,Recall,Recall2,2339,Cat,0,1425,1602,0,0,,1
w939670YN,xx317fmu8w,Relational_NO_JOL,1,307,2020-05-07T11:20:42-07:00,4.40797996521,3,versionC_stim.csv,READVersionC.csv,"Read Version C","Relational, read only version C",AIRCRAFT,PLANE,Study2,F,129,145,Test,User,-,,Recall,Recall2,3908,"Pilot ",40,1947,3121,0,0,,1
w939670YN,xx317fmu8w,Relational_NO_JOL,1,308,2020-05-07T11:20:45-07:00,3.2296230792999,3,versionC_stim.csv,READVersionC.csv,"Read Version C","Relational, read only version C",ELECTION,MAZE,Study2,U,159,167,Test,User,-,,Recall,Recall2,2734,Elect,22.222222222222,1541,2055,0,0,,1
w939670YN,xx317fmu8w,Relational_NO_JOL,1,309,2020-05-07T11:20:48-07:00,2.9647200107574,3,versionC_stim.csv,READVersionC.csv,"Read Version C","Relational, read only version C",PENGUIN,BIRD,Study2,F,119,107,Test,User,-,,Recall,Recall2,2443,Bird,100,1271,1705,1,1,,1
w939670YN,xx317fmu8w,Relational_NO_JOL,1,310,2020-05-07T11:20:52-07:00,3.8459510803223,3,versionC_stim.csv,READVersionC.csv,"Read Version C","Relational, read only version C",CLOTHES,CAKE,Study2,U,166,128,Test,User,-,,Recall,Recall2,3351,Cloth,22.222222222222,2245,2710,0,0,,1
w939670YN,xx317fmu8w,Relational_NO_JOL,1,311,2020-05-07T11:20:56-07:00,4.3827369213104,3,versionC_stim.csv,READVersionC.csv,"Read Version C","Relational, read only version C",DONKEY,MULE,Study2,B,108,104,Test,User,-,,Recall,Recall2,3888,Animal,40,2632,3238,0,0,,1
w939670YN,xx317fmu8w,Relational_NO_JOL,1,312,2020-05-07T11:21:03-07:00,7.3421540260315,3,versionC_stim.csv,READVersionC.csv,"Read Version C","Relational, read only version C",COFFIN,DEAD,Study2,F,128,173,Test,User,-,,Recall,Recall2,6856,Ground,20,3981,5071,0,0,,1
w939670YN,xx317fmu8w,Relational_NO_JOL,1,313,2020-05-07T11:21:08-07:00,4.893394947052,3,versionC_stim.csv,READVersionC.csv,"Read Version C","Relational, read only version C",TEMPER,TANTRUM,Study2,S,154,164,Test,User,-,,Recall,Recall2,4384,Sad,20,1696,3667,0,0,,1
w939670YN,xx317fmu8w,Relational_NO_JOL,1,314,2020-05-07T11:21:13-07:00,4.3631780147552,3,versionC_stim.csv,READVersionC.csv,"Read Version C","Relational, read only version C",FIGHT,FEUD,Study2,B,113,170,Test,User,-,,Recall,Recall2,3892,Run,28.571428571429,1873,2154,0,0,,1
w939670YN,xx317fmu8w,Relational_NO_JOL,1,315,2020-05-07T11:21:17-07:00,3.858433008194,3,versionC_stim.csv,READVersionC.csv,"Read Version C","Relational, read only version C",SCISSORS,SHEARS,Study2,B,112,134,Test,User,-,,Recall,Recall2,3341,"Paper ",36.363636363636,1434,2580,0,0,,1
w939670YN,xx317fmu8w,Relational_NO_JOL,1,316,2020-05-07T11:21:21-07:00,4.4779779911041,3,versionC_stim.csv,READVersionC.csv,"Read Version C","Relational, read only version C",COMMUNICATION,PHONE,Study2,S,149,143,Test,User,-,,Recall,Recall2,3972,"Silent ",18.181818181818,2101,2550,0,0,,1
w939670YN,xx317fmu8w,Relational_NO_JOL,1,317,2020-05-07T11:21:25-07:00,3.5437989234924,3,versionC_stim.csv,READVersionC.csv,"Read Version C","Relational, read only version C",STEAK,GIVE,Study2,U,158,169,Test,User,-,,Recall,Recall2,3020,Shirmp,20,1755,2369,0,0,,1
w939670YN,xx317fmu8w,Relational_NO_JOL,1,318,2020-05-07T11:21:28-07:00,3.4907240867615,3,versionC_stim.csv,READVersionC.csv,"Read Version C","Relational, read only version C",LEAGUE,BASEBALL,Study2,F,131,159,Test,User,-,,Recall,Recall2,2984,Ball,66.666666666667,1420,2263,0,0,,1
w939670YN,xx317fmu8w,Relational_NO_JOL,1,319,2020-05-07T11:21:32-07:00,4.0006630420685,3,versionC_stim.csv,READVersionC.csv,"Read Version C","Relational, read only version C",SCAR,MAIN,Study2,U,175,163,Test,User,-,,Recall,Recall2,3502,"Cut ",0,1860,2753,0,0,,1
w939670YN,xx317fmu8w,Relational_NO_JOL,1,320,2020-05-07T11:21:36-07:00,4.2516050338745,3,versionC_stim.csv,READVersionC.csv,"Read Version C","Relational, read only version C",REEL,ROD,Study2,S,150,158,Test,User,-,,Recall,Recall2,3762,Pull,0,1556,2045,0,0,,1
w939670YN,xx317fmu8w,Relational_NO_JOL,1,321,2020-05-07T11:21:40-07:00,4.0170578956604,3,versionC_stim.csv,READVersionC.csv,"Read Version C","Relational, read only version C",SMELL,INCENSE,Study2,B,110,139,Test,User,-,,Recall,Recall2,3508,Stink,33.333333333333,1445,2004,0,0,,1
w939670YN,xx317fmu8w,Relational_NO_JOL,1,322,2020-05-07T11:21:45-07:00,4.284873008728,3,versionC_stim.csv,READVersionC.csv,"Read Version C","Relational, read only version C",FAVORITE,BEST,Study2,F,125,155,Test,User,-,,Recall,Recall2,3761,"Least ",66.666666666667,1623,3001,0,0,,1
w939670YN,xx317fmu8w,Relational_NO_JOL,1,323,2020-05-07T11:21:52-07:00,7.8498339653015,3,versionC_stim.csv,READVersionC.csv,"Read Version C","Relational, read only version C",BREAKABLE,GLASS,Study2,F,127,112,Test,User,-,,Recall,Recall2,7340,"Invincible ",13.333333333333,2356,5369,0,0,,1
w939670YN,xx317fmu8w,Relational_NO_JOL,1,324,2020-05-07T11:21:56-07:00,3.5434641838074,3,versionC_stim.csv,READVersionC.csv,"Read Version C","Relational, read only version C",BANKER,MONEY,Study2,F,132,127,Test,User,-,,Recall,Recall2,3030,Teller,18.181818181818,1591,2305,0,0,,1
w939670YN,xx317fmu8w,Relational_NO_JOL,1,325,2020-05-07T11:21:59-07:00,3.2456479072571,3,versionC_stim.csv,READVersionC.csv,"Read Version C","Relational, read only version C",Morning,TEMPERATURE,Study2,U,173,124,Test,User,-,,Recall,Recall2,2748,"Night ",12.5,1312,1982,0,0,,1
w939670YN,xx317fmu8w,Relational_NO_JOL,1,326,2020-05-07T11:22:05-07:00,5.3452389240265,3,versionC_stim.csv,READVersionC.csv,"Read Version C","Relational, read only version C",CARBON,ELEMENT,Study2,S,141,151,Test,User,-,,Recall,Recall2,4852,"Oxygen ",30.769230769231,2204,3263,0,0,,1
w939670YN,xx317fmu8w,Relational_NO_JOL,1,327,2020-05-07T11:22:10-07:00,5.1096789836884,3,versionC_stim.csv,READVersionC.csv,"Read Version C","Relational, read only version C",WET,DRY,Study2,S,146,117,Test,User,-,,Recall,Recall2,2398,Dry,100,1378,1647,1,1,,1
w939670YN,xx317fmu8w,Relational_NO_JOL,1,328,2020-05-07T11:22:13-07:00,2.9747710227966,3,versionC_stim.csv,READVersionC.csv,"Read Version C","Relational, read only version C",NAP,SLEEP,Study2,F,134,123,Test,User,-,,Recall,Recall2,2484,Up,28.571428571429,1623,1799,0,0,,1
w939670YN,xx317fmu8w,Relational_NO_JOL,1,329,2020-05-07T11:22:16-07:00,3.0443320274353,3,versionC_stim.csv,READVersionC.csv,"Read Version C","Relational, read only version C",SHAVE,RAZOR,Study2,S,136,99,Test,User,-,,Recall,Recall2,2537,Hair,44.444444444444,1577,1841,0,0,,1
w939670YN,xx317fmu8w,Relational_NO_JOL,1,330,2020-05-07T11:22:19-07:00,2.9875741004944,3,versionC_stim.csv,READVersionC.csv,"Read Version C","Relational, read only version C",HATE,NAME,Study2,U,167,136,Test,User,-,,Recall,Recall2,2497,Love,25,1368,1757,0,0,,1
w939670YN,xx317fmu8w,Relational_NO_JOL,1,331,2020-05-07T11:22:23-07:00,3.8832478523254,3,versionC_stim.csv,READVersionC.csv,"Read Version C","Relational, read only version C",DRINK,WATER,Study2,S,143,156,Test,User,-,,Recall,Recall2,3383,Spit,22.222222222222,2188,2647,0,0,,1
w939670YN,xx317fmu8w,Relational_NO_JOL,1,332,2020-05-07T11:22:27-07:00,4.0537569522858,3,versionC_stim.csv,READVersionC.csv,"Read Version C","Relational, read only version C",FICTION,LISTEN,Study2,U,164,106,Test,User,-,,Recall,Recall2,3544,"Fact ",20,1508,2648,0,0,,1
w939670YN,xx317fmu8w,Relational_NO_JOL,1,333,2020-05-07T11:22:29-07:00,2.7654800415039,3,versionC_stim.csv,READVersionC.csv,"Read Version C","Relational, read only version C",COLD,CHILL,Study2,B,114,160,Test,User,-,,Recall,Recall2,2271,Hot,25,1324,1552,0,0,,1
w939670YN,xx317fmu8w,Relational_NO_JOL,1,334,2020-05-07T11:22:33-07:00,3.4598829746246,3,versionC_stim.csv,READVersionC.csv,"Read Version C","Relational, read only version C",BRAWL,FIGHT,Study2,F,135,103,Test,User,-,,Recall,Recall2,2945,"Peace ",0,1732,2255,0,0,,1
w939670YN,xx317fmu8w,Relational_NO_JOL,1,335,2020-05-07T11:22:37-07:00,3.7522580623627,3,versionC_stim.csv,READVersionC.csv,"Read Version C","Relational, read only version C",LONELY,ALONE,Study2,S,145,133,Test,User,-,,Recall,Recall2,3247,"Company ",33.333333333333,1834,2618,0,0,,1
w939670YN,xx317fmu8w,Relational_NO_JOL,1,336,2020-05-07T11:22:45-07:00,8.5564210414886,3,versionC_stim.csv,READVersionC.csv,"Read Version C","Relational, read only version C",ACTRESS,STAR,Study2,F,120,129,Test,User,-,,Recall,Recall2,7964,Actor,44.444444444444,1263,7210,0,0,,1
w939670YN,xx317fmu8w,Relational_NO_JOL,1,337,2020-05-07T11:22:48-07:00,2.8627109527588,3,versionC_stim.csv,READVersionC.csv,"Read Version C","Relational, read only version C",TRUTHFUL,HONEST,Study2,F,133,162,Test,User,-,,Recall,Recall2,2357,Lie,22.222222222222,1387,1599,0,0,,1
w939670YN,xx317fmu8w,Relational_NO_JOL,1,338,2020-05-07T11:22:51-07:00,3.0819709300995,3,versionC_stim.csv,READVersionC.csv,"Read Version C","Relational, read only version C",END,ADJOURN,Study2,B,101,152,Test,User,-,,Recall,Recall2,2581,"Begin ",16.666666666667,1313,1996,0,0,,1
w939670YN,xx317fmu8w,Relational_NO_JOL,1,339,2020-05-07T11:22:54-07:00,3.2360990047455,3,versionC_stim.csv,READVersionC.csv,"Read Version C","Relational, read only version C",HAVE,OWN,Study2,S,153,110,Test,User,-,,Recall,Recall2,2727,Not,33.333333333333,1732,2003,0,0,,1
w939670YN,xx317fmu8w,Relational_NO_JOL,1,340,2020-05-07T11:22:58-07:00,4.0507860183716,3,versionC_stim.csv,READVersionC.csv,"Read Version C","Relational, read only version C",EAT,DINE,Study2,B,111,113,Test,User,-,,Recall,Recall2,3566,"Starve ",20,2220,2907,0,0,,1
w939670YN,xx317fmu8w,Relational_NO_JOL,1,341,2020-05-07T11:23:02-07:00,3.6057829856873,3,versionC_stim.csv,READVersionC.csv,"Read Version C","Relational, read only version C",CAR,DRIVER,Study2,B,106,125,Test,User,-,,Recall,Recall2,3100,Bike,40,1980,2359,0,0,,1
w939670YN,xx317fmu8w,Relational_NO_JOL,1,342,2020-05-07T11:23:05-07:00,3.2236731052399,3,versionC_stim.csv,READVersionC.csv,"Read Version C","Relational, read only version C",REVENGE,EVEN,Study2,F,122,118,Test,User,-,,Recall,Recall2,2712,"Peace ",44.444444444444,1570,2066,0,0,,1
w939670YN,xx317fmu8w,Relational_NO_JOL,1,343,2020-05-07T11:23:09-07:00,3.6054539680481,3,versionC_stim.csv,READVersionC.csv,"Read Version C","Relational, read only version C",HEAD,SCALP,Study2,B,105,161,Test,User,-,,Recall,Recall2,3107,"Shoulders ",28.571428571429,1260,2423,0,0,,1
w939670YN,xx317fmu8w,Relational_NO_JOL,1,344,2020-05-07T11:23:16-07:00,7.6062891483307,3,versionC_stim.csv,READVersionC.csv,"Read Version C","Relational, read only version C",JAR,MASON,Study2,S,138,101,Test,User,-,,Recall,Recall2,6863,Pickle,0,1290,6140,0,0,,1
w939670YN,xx317fmu8w,Relational_NO_JOL,1,345,2020-05-07T11:23:19-07:00,2.8123908042908,3,versionC_stim.csv,READVersionC.csv,"Read Version C","Relational, read only version C",STRAWBERRY,FRUIT,Study2,F,124,137,Test,User,-,,Recall,Recall2,2327,Jam,0,1499,1611,0,0,,1
w939670YN,xx317fmu8w,Relational_NO_JOL,1,346,2020-05-07T11:23:23-07:00,3.9817650318146,3,versionC_stim.csv,READVersionC.csv,"Read Version C","Relational, read only version C",VILLAIN,BAD,Study2,F,118,176,Test,User,-,,Recall,Recall2,3488,Evil,0,1399,1825,0,0,,1
w939670YN,xx317fmu8w,Relational_NO_JOL,1,347,2020-05-07T11:23:26-07:00,2.9586191177368,3,versionC_stim.csv,READVersionC.csv,"Read Version C","Relational, read only version C",SIGN,LOAN,Study2,U,171,111,Test,User,-,,Recall,Recall2,2436,God,28.571428571429,1537,1715,0,0,,1
w939670YN,xx317fmu8w,Relational_NO_JOL,1,348,2020-05-07T11:23:29-07:00,3.3102309703827,3,versionC_stim.csv,READVersionC.csv,"Read Version C","Relational, read only version C",CHARM,VEHICLE,Study2,U,160,168,Test,User,-,,Recall,Recall2,2818,Witch,33.333333333333,1667,2118,0,0,,1
w939670YN,xx317fmu8w,Relational_NO_JOL,1,349,2020-05-07T11:23:33-07:00,3.1023888587952,3,versionC_stim.csv,READVersionC.csv,"Read Version C","Relational, read only version C",MYSTERY,DETECTIVE,Study2,B,100,97,Test,User,-,,Recall,Recall2,2591,Solve,28.571428571429,1341,1871,0,0,,1
w939670YN,xx317fmu8w,Relational_NO_JOL,1,350,2020-05-07T11:23:36-07:00,3.2174780368805,3,versionC_stim.csv,READVersionC.csv,"Read Version C","Relational, read only version C",ABLE,CRACKLE,Study2,U,162,172,Test,User,-,,Recall,Recall2,2719,Unable,46.153846153846,1420,2035,0,0,,1
w939670YN,xx317fmu8w,Relational_NO_JOL,1,351,2020-05-07T11:23:39-07:00,3.1785969734192,3,versionC_stim.csv,READVersionC.csv,"Read Version C","Relational, read only version C",OUNCE,BOTH,Study2,U,172,109,Test,User,-,,Recall,Recall2,2649,Quart,22.222222222222,1476,1971,0,0,,1
w939670YN,xx317fmu8w,Relational_NO_JOL,1,352,2020-05-07T11:23:44-07:00,4.5192470550537,3,versionC_stim.csv,READVersionC.csv,"Read Version C","Relational, read only version C",TIE,SHOELACE,Study2,B,99,146,Test,User,-,,Recall,Recall2,4041,Untie,15.384615384615,1485,2144,0,0,,1
w939670YN,xx317fmu8w,Relational_NO_JOL,1,353,2020-05-07T11:23:47-07:00,3.9560720920563,3,versionC_stim.csv,READVersionC.csv,"Read Version C","Relational, read only version C",CLEAR,MOAT,Study2,U,169,174,Test,User,-,,Recall,Recall2,3442,Mist,50,2265,2637,0,0,,1
w939670YN,xx317fmu8w,Relational_NO_JOL,1,354,2020-05-07T11:23:51-07:00,3.8735289573669,3,versionC_stim.csv,READVersionC.csv,"Read Version C","Relational, read only version C",BANG,FUZZY,Study2,U,168,140,Test,User,-,,Recall,Recall2,3367,Shot,0,1366,1680,0,0,,1
w939670YN,xx317fmu8w,Relational_NO_JOL,1,355,2020-05-07T11:23:54-07:00,2.8897249698639,3,versionC_stim.csv,READVersionC.csv,"Read Version C","Relational, read only version C",OBTAIN,MEAT,Study2,U,161,175,Test,User,-,,Recall,Recall2,2401,Give,25,1379,1713,0,0,,1
w939670YN,xx317fmu8w,Relational_NO_JOL,1,356,2020-05-07T11:23:59-07:00,5.1250200271606,3,versionC_stim.csv,READVersionC.csv,"Read Version C","Relational, read only version C",CUT,CHOP,Study2,B,107,100,Test,User,-,,Recall,Recall2,4591,"Break ",0,3011,3812,0,0,,1
w939670YN,xx317fmu8w,Relational_NO_JOL,1,357,2020-05-07T11:24:03-07:00,4.0386760234833,3,versionC_stim.csv,READVersionC.csv,"Read Version C","Relational, read only version C",BRACELET,WRIST,Study2,S,140,153,Test,User,-,,Recall,Recall2,3502,"Necklace ",0,1426,2112,0,0,,1
w939670YN,xx317fmu8w,Relational_NO_JOL,1,358,2020-05-07T11:24:07-07:00,3.2352528572083,3,versionC_stim.csv,READVersionC.csv,"Read Version C","Relational, read only version C",FLIP,TURN,Study2,F,116,148,Test,User,-,,Recall,Recall2,2714,Unflip,40,1465,2112,0,0,,1
w939670YN,xx317fmu8w,Relational_NO_JOL,1,359,2020-05-07T11:24:10-07:00,3.0466101169586,3,versionC_stim.csv,READVersionC.csv,"Read Version C","Relational, read only version C",NOISE,LOUD,Study2,S,152,116,Test,User,-,,Recall,Recall2,2524,"Silent ",20,1293,1944,0,0,,1
w939670YN,xx317fmu8w,Relational_NO_JOL,1,360,2020-05-07T11:24:15-07:00,5.1750240325928,3,versionC_stim.csv,READVersionC.csv,"Read Version C","Relational, read only version C",WAX,CANDLE,Study2,S,139,166,Test,User,-,,Recall,Recall2,4658,"Shave ",36.363636363636,3499,3954,0,0,,1
w939670YN,xx317fmu8w,Relational_NO_JOL,1,361,2020-05-07T11:24:17-07:00,2.1607699394226,3,versionC_stim.csv,READVersionC.csv,"Read Version C","Relational, read only version C",,,,,,0,Instruct,User,-,"You have completed this section. Please press Enter.",,Instruct7,1666,,,-1,-1,,,,1
w939670YN,xx317fmu8w,Relational_NO_JOL,1,362,2020-05-07T11:24:20-07:00,3.0110580921173,3,versionC_stim.csv,READVersionC.csv,"Read Version C","Relational, read only version C",,,,,,0,Instruct,User,-,"The following screen will ask you a few questions abour your experience today. You must complete these questions to receive credit.",,Instruct8,2522,,,-1,-1,,,,1
