Username,ID,ExperimentName,Session,Trial,Date,TimeDif,"Condition Number","Stimuli File","Order File","Condition Description","Condition Notes",Stimuli*Cue,Stimuli*Answer,Stimuli*Shuffle,"Stimuli*Stimuli Notes",Stimuli*Value,Procedure*Item,"Procedure*Trial Type","Procedure*Max Time","Procedure*Min Time",Procedure*Text,"Procedure*Procedure Notes",Procedure*Shuffle,Response*RT,Response*Response,Response*Accuracy,Response*RTfirst,Response*RTlast,Response*strictAcc,Response*lenientAcc,Response*focus,Response*JOL,Response*Focus
w10033288,iyem373plc,Nick_Dissertation_EX1,1,1,2020-04-20T21:29:32-07:00,21.689368009567,5,versionA_stim.csv,JOLVersionA.csv,"JOL Version A","Dissertation, JOL version A",,,,,,0,Instruct,-,5,"In this section, you will be presented with a series of word pairs.",Initial_Instruct,Instruct1,19658,,,-1,-1,,,,,1
w10033288,iyem373plc,Nick_Dissertation_EX1,1,2,2020-04-20T21:30:06-07:00,33.760486841202,5,versionA_stim.csv,JOLVersionA.csv,"JOL Version A","Dissertation, JOL version A",,,,,,0,Instruct,-,10,"As you study, you will be asked to rate your ability to remember the second item in the pair if you were only shown the first at test. You will make these ratings using a 0 to 100 Scale.",,Instruct13,11275,,,-1,-1,,,,,0.982
w10033288,iyem373plc,Nick_Dissertation_EX1,1,3,2020-04-20T21:30:22-07:00,16.493905067444,5,versionA_stim.csv,JOLVersionA.csv,"JOL Version A","Dissertation, JOL version A",,,,,,0,Instruct,-,10,"For example, if you are given the pair CAT - DOG, a rating of 0 indicates that you would not remember DOG at test, while a rating of 100 indicates full certainty that you would remember the word DOG at test.",,Instruct14,15894,,,-1,-1,,,,,1
w10033288,iyem373plc,Nick_Dissertation_EX1,1,4,2020-04-20T21:31:10-07:00,47.514678001404,5,versionA_stim.csv,JOLVersionA.csv,"JOL Version A","Dissertation, JOL version A",,,,,,0,Instruct,-,10,"When making your ratings, it is criticial that you use the full range of the scale. You will be disqualified for only giving ratings of 0 or 100! After making your rating, press Enter to advance to the next pair.",,Instruct15,11087,,,-1,-1,,,,,0.982
w10033288,iyem373plc,Nick_Dissertation_EX1,1,5,2020-04-20T21:31:11-07:00,1.7023909091949,5,versionA_stim.csv,JOLVersionA.csv,"JOL Version A","Dissertation, JOL version A",,,,,,0,Instruct,User,-,"You will now begin the study. Press Enter when you are ready to begin.",,Instruct16,1207,,,-1,-1,,,,,1
w10033288,iyem373plc,Nick_Dissertation_EX1,1,6,2020-04-20T21:31:29-07:00,17.794046163559,5,versionA_stim.csv,JOLVersionA.csv,"JOL Version A","Dissertation, JOL version A",SCARE,HIDE,BUFFER1,Buffer,4,6,JOL,User,-,"How likely are you to correctly recall the second item in the pair?|Type your response on a scale from 0-100 and then press Enter.",Study/JOL,BUFFER,9707,,,8430,8585,,,,50,1
w10033288,iyem373plc,Nick_Dissertation_EX1,1,7,2020-04-20T21:31:51-07:00,21.515954971313,5,versionA_stim.csv,JOLVersionA.csv,"JOL Version A","Dissertation, JOL version A",BASEBALL,CATCHER,BUFFER1,Buffer,2,2,JOL,User,-,"How likely are you to correctly recall the second item in the pair?|Type your response on a scale from 0-100 and then press Enter.",Study/JOL,BUFFER,6833,,,5955,6036,,,,50,0.971
w10033288,iyem373plc,Nick_Dissertation_EX1,1,8,2020-04-20T21:31:57-07:00,5.7462139129639,5,versionA_stim.csv,JOLVersionA.csv,"JOL Version A","Dissertation, JOL version A",SPACE,JAM,BUFFER1,Buffer,5,3,JOL,User,-,"How likely are you to correctly recall the second item in the pair?|Type your response on a scale from 0-100 and then press Enter.",Study/JOL,BUFFER,3248,,,2082,2170,,,,50,1
w10033288,iyem373plc,Nick_Dissertation_EX1,1,9,2020-04-20T21:32:16-07:00,18.964421987534,5,versionA_stim.csv,JOLVersionA.csv,"JOL Version A","Dissertation, JOL version A",PEANUT,BUTTER,BUFFER1,Buffer,3,4,JOL,User,-,"How likely are you to correctly recall the second item in the pair?|Type your response on a scale from 0-100 and then press Enter.",Study/JOL,BUFFER,3962,,,2915,2942,,,,50,0.95
w10033288,iyem373plc,Nick_Dissertation_EX1,1,10,2020-04-20T21:32:23-07:00,7.7204620838165,5,versionA_stim.csv,JOLVersionA.csv,"JOL Version A","Dissertation, JOL version A",TREES,GREEN,BUFFER1,Buffer,1,5,JOL,User,-,"How likely are you to correctly recall the second item in the pair?|Type your response on a scale from 0-100 and then press Enter.",Study/JOL,BUFFER,3283,,,2348,2432,,,,10,1
w10033288,iyem373plc,Nick_Dissertation_EX1,1,11,2020-04-20T21:32:40-07:00,16.977514028549,5,versionA_stim.csv,JOLVersionA.csv,"JOL Version A","Dissertation, JOL version A",NUMBER,AMOUNT,Study1,S,47,37,JOL,User,-,"How likely are you to correctly recall the second item in the pair?|Type your response on a scale from 0-100 and then press Enter.",Study/JOL,"Study Phase",13682,,,12695,12777,,,,30,1
w10033288,iyem373plc,Nick_Dissertation_EX1,1,12,2020-04-20T21:32:50-07:00,9.9071218967438,5,versionA_stim.csv,JOLVersionA.csv,"JOL Version A","Dissertation, JOL version A",BUG,WASP,Study1,B,32,23,JOL,User,-,"How likely are you to correctly recall the second item in the pair?|Type your response on a scale from 0-100 and then press Enter.",Study/JOL,"Study Phase",4921,,,3642,4148,,,,20,1
w10033288,iyem373plc,Nick_Dissertation_EX1,1,13,2020-04-20T21:33:28-07:00,37.489639997482,5,versionA_stim.csv,JOLVersionA.csv,"JOL Version A","Dissertation, JOL version A",DUMP,WASTE,Study1,S,49,56,JOL,User,-,"How likely are you to correctly recall the second item in the pair?|Type your response on a scale from 0-100 and then press Enter.",Study/JOL,"Study Phase",5477,,,3960,4521,,,,50,0.964
w10033288,iyem373plc,Nick_Dissertation_EX1,1,14,2020-04-20T21:33:40-07:00,12.766268968582,5,versionA_stim.csv,JOLVersionA.csv,"JOL Version A","Dissertation, JOL version A",SENTENCE,WORD,Study1,B,31,36,JOL,User,-,"How likely are you to correctly recall the second item in the pair?|Type your response on a scale from 0-100 and then press Enter.",Study/JOL,"Study Phase",6733,,,5252,5775,,,,30,1
w10033288,iyem373plc,Nick_Dissertation_EX1,1,15,2020-04-20T21:34:00-07:00,19.349302053452,5,versionA_stim.csv,JOLVersionA.csv,"JOL Version A","Dissertation, JOL version A",BABY,CHILD,Study1,S,64,40,JOL,User,-,"How likely are you to correctly recall the second item in the pair?|Type your response on a scale from 0-100 and then press Enter.",Study/JOL,"Study Phase",5693,,,4835,5301,,,,60,0.966
w10033288,iyem373plc,Nick_Dissertation_EX1,1,16,2020-04-20T21:34:22-07:00,22.318931102753,5,versionA_stim.csv,JOLVersionA.csv,"JOL Version A","Dissertation, JOL version A",GREAT,FANTASTIC,Study1,B,35,39,JOL,User,-,"How likely are you to correctly recall the second item in the pair?|Type your response on a scale from 0-100 and then press Enter.",Study/JOL,"Study Phase",3408,,,2299,2454,,,,12,0.941
w10033288,iyem373plc,Nick_Dissertation_EX1,1,17,2020-04-20T21:34:33-07:00,10.924937963486,5,versionA_stim.csv,JOLVersionA.csv,"JOL Version A","Dissertation, JOL version A",DUE,ASSIGNMENT,Study1,S,46,9,JOL,User,-,"How likely are you to correctly recall the second item in the pair?|Type your response on a scale from 0-100 and then press Enter.",Study/JOL,"Study Phase",7734,,,6353,6662,,,,80,1
w10033288,iyem373plc,Nick_Dissertation_EX1,1,18,2020-04-20T21:35:06-07:00,32.885818004608,5,versionA_stim.csv,JOLVersionA.csv,"JOL Version A","Dissertation, JOL version A",WAGE,MONEY,Study1,F,8,53,JOL,User,-,"How likely are you to correctly recall the second item in the pair?|Type your response on a scale from 0-100 and then press Enter.",Study/JOL,"Study Phase",21224,,,19179,19814,,,,25,0.991
w10033288,iyem373plc,Nick_Dissertation_EX1,1,19,2020-04-20T21:35:15-07:00,9.2919828891754,5,versionA_stim.csv,JOLVersionA.csv,"JOL Version A","Dissertation, JOL version A",HERD,COW,Study1,F,22,8,JOL,User,-,"How likely are you to correctly recall the second item in the pair?|Type your response on a scale from 0-100 and then press Enter.",Study/JOL,"Study Phase",6301,,,4503,5206,,,,20,1
w10033288,iyem373plc,Nick_Dissertation_EX1,1,20,2020-04-20T21:35:35-07:00,19.361525058746,5,versionA_stim.csv,JOLVersionA.csv,"JOL Version A","Dissertation, JOL version A",PLANE,PILOT,Study1,B,44,18,JOL,User,-,"How likely are you to correctly recall the second item in the pair?|Type your response on a scale from 0-100 and then press Enter.",Study/JOL,"Study Phase",6101,,,3666,4037,,,,80,0.923
w10033288,iyem373plc,Nick_Dissertation_EX1,1,21,2020-04-20T21:35:46-07:00,11.813302993774,5,versionA_stim.csv,JOLVersionA.csv,"JOL Version A","Dissertation, JOL version A",DIGESTION,STOMACH,Study1,F,7,49,JOL,User,-,"How likely are you to correctly recall the second item in the pair?|Type your response on a scale from 0-100 and then press Enter.",Study/JOL,"Study Phase",8522,,,5669,6243,,,,10,1
w10033288,iyem373plc,Nick_Dissertation_EX1,1,22,2020-04-20T21:36:05-07:00,18.25434589386,5,versionA_stim.csv,JOLVersionA.csv,"JOL Version A","Dissertation, JOL version A",SLEEP,DROWSY,Study1,B,41,13,JOL,User,-,"How likely are you to correctly recall the second item in the pair?|Type your response on a scale from 0-100 and then press Enter.",Study/JOL,"Study Phase",8367,,,2901,3452,,,,30,1
w10033288,iyem373plc,Nick_Dissertation_EX1,1,23,2020-04-20T21:36:14-07:00,9.8253581523895,5,versionA_stim.csv,JOLVersionA.csv,"JOL Version A","Dissertation, JOL version A",LAW,ATTORNEY,Study1,B,34,79,JOL,User,-,"How likely are you to correctly recall the second item in the pair?|Type your response on a scale from 0-100 and then press Enter.",Study/JOL,"Study Phase",6845,,,3527,4209,,,,30,1
w10033288,iyem373plc,Nick_Dissertation_EX1,1,24,2020-04-20T21:36:27-07:00,12.488002061844,5,versionA_stim.csv,JOLVersionA.csv,"JOL Version A","Dissertation, JOL version A",CREDIT,CARD,Study1,F,23,50,JOL,User,-,"How likely are you to correctly recall the second item in the pair?|Type your response on a scale from 0-100 and then press Enter.",Study/JOL,"Study Phase",7269,,,3926,5000,,,,95,1
w10033288,iyem373plc,Nick_Dissertation_EX1,1,25,2020-04-20T21:36:37-07:00,10.391760826111,5,versionA_stim.csv,JOLVersionA.csv,"JOL Version A","Dissertation, JOL version A",PAW,DOG,Study1,F,15,21,JOL,User,-,"How likely are you to correctly recall the second item in the pair?|Type your response on a scale from 0-100 and then press Enter.",Study/JOL,"Study Phase",6842,,,4093,4627,,,,50,1
w10033288,iyem373plc,Nick_Dissertation_EX1,1,26,2020-04-20T21:36:49-07:00,11.526674032211,5,versionA_stim.csv,JOLVersionA.csv,"JOL Version A","Dissertation, JOL version A",HIDE,SICK,Study1,U,84,33,JOL,User,-,"How likely are you to correctly recall the second item in the pair?|Type your response on a scale from 0-100 and then press Enter.",Study/JOL,"Study Phase",6249,,,3696,4295,,,,20,1
w10033288,iyem373plc,Nick_Dissertation_EX1,1,27,2020-04-20T21:36:57-07:00,8.0376329421997,5,versionA_stim.csv,JOLVersionA.csv,"JOL Version A","Dissertation, JOL version A",TUNA,FISH,Study1,F,25,66,JOL,User,-,"How likely are you to correctly recall the second item in the pair?|Type your response on a scale from 0-100 and then press Enter.",Study/JOL,"Study Phase",6601,,,3375,4051,,,,60,1
w10033288,iyem373plc,Nick_Dissertation_EX1,1,28,2020-04-20T21:37:08-07:00,11.30147600174,5,versionA_stim.csv,JOLVersionA.csv,"JOL Version A","Dissertation, JOL version A",ALLOW,TUCK,Study1,U,78,54,JOL,User,-,"How likely are you to correctly recall the second item in the pair?|Type your response on a scale from 0-100 and then press Enter.",Study/JOL,"Study Phase",8043,,,3058,3696,,,,10,1
w10033288,iyem373plc,Nick_Dissertation_EX1,1,29,2020-04-20T21:37:19-07:00,10.522256135941,5,versionA_stim.csv,JOLVersionA.csv,"JOL Version A","Dissertation, JOL version A",FULL,ENOUGH,Study1,B,26,25,JOL,User,-,"How likely are you to correctly recall the second item in the pair?|Type your response on a scale from 0-100 and then press Enter.",Study/JOL,"Study Phase",7015,,,4018,4716,,,,30,1
w10033288,iyem373plc,Nick_Dissertation_EX1,1,30,2020-04-20T21:37:27-07:00,8.0488600730896,5,versionA_stim.csv,JOLVersionA.csv,"JOL Version A","Dissertation, JOL version A",SWAN,BIRD,Study1,F,14,46,JOL,User,-,"How likely are you to correctly recall the second item in the pair?|Type your response on a scale from 0-100 and then press Enter.",Study/JOL,"Study Phase",5611,,,3161,3778,,,,20,1
w10033288,iyem373plc,Nick_Dissertation_EX1,1,31,2020-04-20T21:37:38-07:00,10.938165903091,5,versionA_stim.csv,JOLVersionA.csv,"JOL Version A","Dissertation, JOL version A",SUGAR,RIDDLE,Study1,U,81,78,JOL,User,-,"How likely are you to correctly recall the second item in the pair?|Type your response on a scale from 0-100 and then press Enter.",Study/JOL,"Study Phase",7389,,,2501,3466,,,,10,1
w10033288,iyem373plc,Nick_Dissertation_EX1,1,32,2020-04-20T21:37:56-07:00,18.691036939621,5,versionA_stim.csv,JOLVersionA.csv,"JOL Version A","Dissertation, JOL version A",WINE,CHEESE,Study1,S,57,72,JOL,User,-,"How likely are you to correctly recall the second item in the pair?|Type your response on a scale from 0-100 and then press Enter.",Study/JOL,"Study Phase",4132,,,2622,2841,,,,90,0.952
w10033288,iyem373plc,Nick_Dissertation_EX1,1,33,2020-04-20T21:38:03-07:00,6.5550000667572,5,versionA_stim.csv,JOLVersionA.csv,"JOL Version A","Dissertation, JOL version A",KEY,LATCH,Study1,B,36,45,JOL,User,-,"How likely are you to correctly recall the second item in the pair?|Type your response on a scale from 0-100 and then press Enter.",Study/JOL,"Study Phase",5767,,,2403,3006,,,,30,1
w10033288,iyem373plc,Nick_Dissertation_EX1,1,34,2020-04-20T21:38:09-07:00,6.0708870887756,5,versionA_stim.csv,JOLVersionA.csv,"JOL Version A","Dissertation, JOL version A",TAKE,SEIZE,Study1,B,29,64,JOL,User,-,"How likely are you to correctly recall the second item in the pair?|Type your response on a scale from 0-100 and then press Enter.",Study/JOL,"Study Phase",5052,,,2222,2989,,,,10,1
w10033288,iyem373plc,Nick_Dissertation_EX1,1,35,2020-04-20T21:38:15-07:00,6.1792099475861,5,versionA_stim.csv,JOLVersionA.csv,"JOL Version A","Dissertation, JOL version A",BEGIN,END,Study1,S,54,14,JOL,User,-,"How likely are you to correctly recall the second item in the pair?|Type your response on a scale from 0-100 and then press Enter.",Study/JOL,"Study Phase",5209,,,2937,3602,,,,50,1
w10033288,iyem373plc,Nick_Dissertation_EX1,1,36,2020-04-20T21:38:22-07:00,6.9561729431152,5,versionA_stim.csv,JOLVersionA.csv,"JOL Version A","Dissertation, JOL version A",DEATH,BUSINESS,Study1,U,72,52,JOL,User,-,"How likely are you to correctly recall the second item in the pair?|Type your response on a scale from 0-100 and then press Enter.",Study/JOL,"Study Phase",5012,,,1904,3124,,,,10,1
w10033288,iyem373plc,Nick_Dissertation_EX1,1,37,2020-04-20T21:38:39-07:00,16.620840072632,5,versionA_stim.csv,JOLVersionA.csv,"JOL Version A","Dissertation, JOL version A",FIX,HAND,Study1,U,75,85,JOL,User,-,"How likely are you to correctly recall the second item in the pair?|Type your response on a scale from 0-100 and then press Enter.",Study/JOL,"Study Phase",4609,,,1828,2441,,,,40,1
w10033288,iyem373plc,Nick_Dissertation_EX1,1,38,2020-04-20T21:38:48-07:00,9.247172832489,5,versionA_stim.csv,JOLVersionA.csv,"JOL Version A","Dissertation, JOL version A",EDITOR,NEWS,Study1,F,10,47,JOL,User,-,"How likely are you to correctly recall the second item in the pair?|Type your response on a scale from 0-100 and then press Enter.",Study/JOL,"Study Phase",5689,,,3128,3792,,,,20,1
w10033288,iyem373plc,Nick_Dissertation_EX1,1,39,2020-04-20T21:39:08-07:00,19.904376983643,5,versionA_stim.csv,JOLVersionA.csv,"JOL Version A","Dissertation, JOL version A",ARTERY,BRONZE,Study1,U,74,19,JOL,User,-,"How likely are you to correctly recall the second item in the pair?|Type your response on a scale from 0-100 and then press Enter.",Study/JOL,"Study Phase",5099,,,3279,3994,,,,10,0.962
w10033288,iyem373plc,Nick_Dissertation_EX1,1,40,2020-04-20T21:39:15-07:00,7.6063930988312,5,versionA_stim.csv,JOLVersionA.csv,"JOL Version A","Dissertation, JOL version A",GRILL,BAR,Study1,S,52,60,JOL,User,-,"How likely are you to correctly recall the second item in the pair?|Type your response on a scale from 0-100 and then press Enter.",Study/JOL,"Study Phase",5049,,,2866,3426,,,,40,1
w10033288,iyem373plc,Nick_Dissertation_EX1,1,41,2020-04-20T21:39:25-07:00,9.8352410793304,5,versionA_stim.csv,JOLVersionA.csv,"JOL Version A","Dissertation, JOL version A",PAST,FUTURE,Study1,S,61,17,JOL,User,-,"How likely are you to correctly recall the second item in the pair?|Type your response on a scale from 0-100 and then press Enter.",Study/JOL,"Study Phase",6314,,,3439,3984,,,,50,1
w10033288,iyem373plc,Nick_Dissertation_EX1,1,42,2020-04-20T21:39:31-07:00,6.1795089244843,5,versionA_stim.csv,JOLVersionA.csv,"JOL Version A","Dissertation, JOL version A",CIRCLE,ROUND,Study1,S,65,83,JOL,User,-,"How likely are you to correctly recall the second item in the pair?|Type your response on a scale from 0-100 and then press Enter.",Study/JOL,"Study Phase",5112,,,2464,3066,,,,20,1
w10033288,iyem373plc,Nick_Dissertation_EX1,1,43,2020-04-20T21:39:55-07:00,23.427514076233,5,versionA_stim.csv,JOLVersionA.csv,"JOL Version A","Dissertation, JOL version A",MACHINE,POSITION,Study1,U,76,62,JOL,User,-,"How likely are you to correctly recall the second item in the pair?|Type your response on a scale from 0-100 and then press Enter.",Study/JOL,"Study Phase",3740,,,2124,2772,,,,10,0.875
w10033288,iyem373plc,Nick_Dissertation_EX1,1,44,2020-04-20T21:40:02-07:00,6.7802999019623,5,versionA_stim.csv,JOLVersionA.csv,"JOL Version A","Dissertation, JOL version A",MEANING,DEFINITION,Study1,S,62,42,JOL,User,-,"How likely are you to correctly recall the second item in the pair?|Type your response on a scale from 0-100 and then press Enter.",Study/JOL,"Study Phase",5773,,,2598,3274,,,,20,1
w10033288,iyem373plc,Nick_Dissertation_EX1,1,45,2020-04-20T21:40:17-07:00,14.896438121796,5,versionA_stim.csv,JOLVersionA.csv,"JOL Version A","Dissertation, JOL version A",PARK,HUNGRY,Study1,U,68,43,JOL,User,-,"How likely are you to correctly recall the second item in the pair?|Type your response on a scale from 0-100 and then press Enter.",Study/JOL,"Study Phase",3963,,,2189,2902,,,,10,0.95
w10033288,iyem373plc,Nick_Dissertation_EX1,1,46,2020-04-20T21:40:31-07:00,14.754447937012,5,versionA_stim.csv,JOLVersionA.csv,"JOL Version A","Dissertation, JOL version A",KIDNEY,LIVER,Study1,S,53,48,JOL,User,-,"How likely are you to correctly recall the second item in the pair?|Type your response on a scale from 0-100 and then press Enter.",Study/JOL,"Study Phase",4643,,,2782,3375,,,,50,0.958
w10033288,iyem373plc,Nick_Dissertation_EX1,1,47,2020-04-20T21:40:40-07:00,8.9010138511658,5,versionA_stim.csv,JOLVersionA.csv,"JOL Version A","Dissertation, JOL version A",CLOTHES,ATTIRE,Study1,B,43,32,JOL,User,-,"How likely are you to correctly recall the second item in the pair?|Type your response on a scale from 0-100 and then press Enter.",Study/JOL,"Study Phase",4919,,,2162,2961,,,,30,1
w10033288,iyem373plc,Nick_Dissertation_EX1,1,48,2020-04-20T21:40:47-07:00,6.3327209949493,5,versionA_stim.csv,JOLVersionA.csv,"JOL Version A","Dissertation, JOL version A",BLOW,WIND,Study1,S,55,35,JOL,User,-,"How likely are you to correctly recall the second item in the pair?|Type your response on a scale from 0-100 and then press Enter.",Study/JOL,"Study Phase",4322,,,2174,2757,,,,40,1
w10033288,iyem373plc,Nick_Dissertation_EX1,1,49,2020-04-20T21:41:02-07:00,14.991535186768,5,versionA_stim.csv,JOLVersionA.csv,"JOL Version A","Dissertation, JOL version A",WORK,CHORE,Study1,B,39,63,JOL,User,-,"How likely are you to correctly recall the second item in the pair?|Type your response on a scale from 0-100 and then press Enter.",Study/JOL,"Study Phase",4746,,,3275,3767,,,,40,0.958
w10033288,iyem373plc,Nick_Dissertation_EX1,1,50,2020-04-20T21:41:14-07:00,12.697449922562,5,versionA_stim.csv,JOLVersionA.csv,"JOL Version A","Dissertation, JOL version A",DRINK,SIP,Study1,B,27,69,JOL,User,-,"How likely are you to correctly recall the second item in the pair?|Type your response on a scale from 0-100 and then press Enter.",Study/JOL,"Study Phase",9179,,,7087,7713,,,,20,1
w10033288,iyem373plc,Nick_Dissertation_EX1,1,51,2020-04-20T21:41:28-07:00,13.660321950912,5,versionA_stim.csv,JOLVersionA.csv,"JOL Version A","Dissertation, JOL version A",VALLEY,ADD,Study1,U,82,80,JOL,User,-,"How likely are you to correctly recall the second item in the pair?|Type your response on a scale from 0-100 and then press Enter.",Study/JOL,"Study Phase",2788,,,1782,2345,,,,10,0.929
w10033288,iyem373plc,Nick_Dissertation_EX1,1,52,2020-04-20T21:41:36-07:00,8.4972569942474,5,versionA_stim.csv,JOLVersionA.csv,"JOL Version A","Dissertation, JOL version A",LIFT,WOMAN,Study1,U,69,65,JOL,User,-,"How likely are you to correctly recall the second item in the pair?|Type your response on a scale from 0-100 and then press Enter.",Study/JOL,"Study Phase",7080,,,4720,5304,,,,10,1
w10033288,iyem373plc,Nick_Dissertation_EX1,1,53,2020-04-20T21:41:52-07:00,15.774232149124,5,versionA_stim.csv,JOLVersionA.csv,"JOL Version A","Dissertation, JOL version A",REVOLUTION,WAR,Study1,F,20,84,JOL,User,-,"How likely are you to correctly recall the second item in the pair?|Type your response on a scale from 0-100 and then press Enter.",Study/JOL,"Study Phase",5765,,,4183,5012,,,,20,0.966
w10033288,iyem373plc,Nick_Dissertation_EX1,1,54,2020-04-20T21:41:58-07:00,5.9174308776855,5,versionA_stim.csv,JOLVersionA.csv,"JOL Version A","Dissertation, JOL version A",BRIDGE,WATER,Study1,F,18,77,JOL,User,-,"How likely are you to correctly recall the second item in the pair?|Type your response on a scale from 0-100 and then press Enter.",Study/JOL,"Study Phase",4317,,,2293,2809,,,,40,1
w10033288,iyem373plc,Nick_Dissertation_EX1,1,55,2020-04-20T21:42:08-07:00,9.3794751167297,5,versionA_stim.csv,JOLVersionA.csv,"JOL Version A","Dissertation, JOL version A",SMELL,STENCH,Study1,B,42,57,JOL,User,-,"How likely are you to correctly recall the second item in the pair?|Type your response on a scale from 0-100 and then press Enter.",Study/JOL,"Study Phase",5145,,,2435,3114,,,,40,1
w10033288,iyem373plc,Nick_Dissertation_EX1,1,56,2020-04-20T21:42:16-07:00,8.1833729743958,5,versionA_stim.csv,JOLVersionA.csv,"JOL Version A","Dissertation, JOL version A",DISCOVER,FLOOR,Study1,U,71,27,JOL,User,-,"How likely are you to correctly recall the second item in the pair?|Type your response on a scale from 0-100 and then press Enter.",Study/JOL,"Study Phase",5882,,,4176,4637,,,,20,1
w10033288,iyem373plc,Nick_Dissertation_EX1,1,57,2020-04-20T21:42:21-07:00,5.3955888748169,5,versionA_stim.csv,JOLVersionA.csv,"JOL Version A","Dissertation, JOL version A",SHOE,FOOT,Study1,S,60,20,JOL,User,-,"How likely are you to correctly recall the second item in the pair?|Type your response on a scale from 0-100 and then press Enter.",Study/JOL,"Study Phase",3706,,,2241,2721,,,,20,1
w10033288,iyem373plc,Nick_Dissertation_EX1,1,58,2020-04-20T21:42:42-07:00,20.682255983353,5,versionA_stim.csv,JOLVersionA.csv,"JOL Version A","Dissertation, JOL version A",LOCATION,SITE,Study1,S,48,29,JOL,User,-,"How likely are you to correctly recall the second item in the pair?|Type your response on a scale from 0-100 and then press Enter.",Study/JOL,"Study Phase",7681,,,5012,5869,,,,40,0.974
w10033288,iyem373plc,Nick_Dissertation_EX1,1,59,2020-04-20T21:42:49-07:00,7.6405801773071,5,versionA_stim.csv,JOLVersionA.csv,"JOL Version A","Dissertation, JOL version A",PUSHER,CLUTTER,Study1,U,66,70,JOL,User,-,"How likely are you to correctly recall the second item in the pair?|Type your response on a scale from 0-100 and then press Enter.",Study/JOL,"Study Phase",5017,,,2989,3551,,,,10,1
w10033288,iyem373plc,Nick_Dissertation_EX1,1,60,2020-04-20T21:43:04-07:00,14.936733007431,5,versionA_stim.csv,JOLVersionA.csv,"JOL Version A","Dissertation, JOL version A",ART,LION,Study1,U,79,58,JOL,User,-,"How likely are you to correctly recall the second item in the pair?|Type your response on a scale from 0-100 and then press Enter.",Study/JOL,"Study Phase",3669,,,2133,2654,,,,10,0.947
w10033288,iyem373plc,Nick_Dissertation_EX1,1,61,2020-04-20T21:43:13-07:00,8.9353020191193,5,versionA_stim.csv,JOLVersionA.csv,"JOL Version A","Dissertation, JOL version A",FIRE,BLAZE,Study1,B,45,38,JOL,User,-,"How likely are you to correctly recall the second item in the pair?|Type your response on a scale from 0-100 and then press Enter.",Study/JOL,"Study Phase",4962,,,2157,2719,,,,10,1
w10033288,iyem373plc,Nick_Dissertation_EX1,1,62,2020-04-20T21:43:19-07:00,5.7498857975006,5,versionA_stim.csv,JOLVersionA.csv,"JOL Version A","Dissertation, JOL version A",DARK,CAVE,Study1,B,28,55,JOL,User,-,"How likely are you to correctly recall the second item in the pair?|Type your response on a scale from 0-100 and then press Enter.",Study/JOL,"Study Phase",3756,,,2089,2576,,,,10,1
w10033288,iyem373plc,Nick_Dissertation_EX1,1,63,2020-04-20T21:43:24-07:00,5.0766241550446,5,versionA_stim.csv,JOLVersionA.csv,"JOL Version A","Dissertation, JOL version A",KING,VASE,Study1,U,85,44,JOL,User,-,"How likely are you to correctly recall the second item in the pair?|Type your response on a scale from 0-100 and then press Enter.",Study/JOL,"Study Phase",3376,,,1493,2060,,,,10,1
w10033288,iyem373plc,Nick_Dissertation_EX1,1,64,2020-04-20T21:43:31-07:00,6.4776508808136,5,versionA_stim.csv,JOLVersionA.csv,"JOL Version A","Dissertation, JOL version A",DELINQUENT,BAD,Study1,F,6,11,JOL,User,-,"How likely are you to correctly recall the second item in the pair?|Type your response on a scale from 0-100 and then press Enter.",Study/JOL,"Study Phase",3402,,,1547,2085,,,,10,1
w10033288,iyem373plc,Nick_Dissertation_EX1,1,65,2020-04-20T21:43:37-07:00,6.3014481067657,5,versionA_stim.csv,JOLVersionA.csv,"JOL Version A","Dissertation, JOL version A",HONEY,BEE,Study1,S,63,67,JOL,User,-,"How likely are you to correctly recall the second item in the pair?|Type your response on a scale from 0-100 and then press Enter.",Study/JOL,"Study Phase",4307,,,2707,3327,,,,50,1
w10033288,iyem373plc,Nick_Dissertation_EX1,1,66,2020-04-20T21:43:53-07:00,16.426054954529,5,versionA_stim.csv,JOLVersionA.csv,"JOL Version A","Dissertation, JOL version A",LETTUCE,SALAD,Study1,S,59,59,JOL,User,-,"How likely are you to correctly recall the second item in the pair?|Type your response on a scale from 0-100 and then press Enter.",Study/JOL,"Study Phase",2908,,,1638,2112,,,,20,0.933
w10033288,iyem373plc,Nick_Dissertation_EX1,1,67,2020-04-20T21:44:07-07:00,13.258100986481,5,versionA_stim.csv,JOLVersionA.csv,"JOL Version A","Dissertation, JOL version A",GEOLOGY,ROCK,Study1,F,19,68,JOL,User,-,"How likely are you to correctly recall the second item in the pair?|Type your response on a scale from 0-100 and then press Enter.",Study/JOL,"Study Phase",7701,,,1959,5865,,,,30,1
w10033288,iyem373plc,Nick_Dissertation_EX1,1,68,2020-04-20T21:44:12-07:00,5.839910030365,5,versionA_stim.csv,JOLVersionA.csv,"JOL Version A","Dissertation, JOL version A",DIETARY,SACKING,Study1,U,67,51,JOL,User,-,"How likely are you to correctly recall the second item in the pair?|Type your response on a scale from 0-100 and then press Enter.",Study/JOL,"Study Phase",3524,,,1564,2109,,,,10,1
w10033288,iyem373plc,Nick_Dissertation_EX1,1,69,2020-04-20T21:44:19-07:00,6.6751499176025,5,versionA_stim.csv,JOLVersionA.csv,"JOL Version A","Dissertation, JOL version A",STRONG,ACCIDENT,Study1,U,80,74,JOL,User,-,"How likely are you to correctly recall the second item in the pair?|Type your response on a scale from 0-100 and then press Enter.",Study/JOL,"Study Phase",3862,,,1996,2540,,,,10,1
w10033288,iyem373plc,Nick_Dissertation_EX1,1,70,2020-04-20T21:44:26-07:00,7.2008941173553,5,versionA_stim.csv,JOLVersionA.csv,"JOL Version A","Dissertation, JOL version A",CASH,WOULD,Study1,U,83,22,JOL,User,-,"How likely are you to correctly recall the second item in the pair?|Type your response on a scale from 0-100 and then press Enter.",Study/JOL,"Study Phase",3686,,,1496,2012,,,,10,1
w10033288,iyem373plc,Nick_Dissertation_EX1,1,71,2020-04-20T21:44:43-07:00,16.57893204689,5,versionA_stim.csv,JOLVersionA.csv,"JOL Version A","Dissertation, JOL version A",BATHROOM,TOILET,Study1,S,58,82,JOL,User,-,"How likely are you to correctly recall the second item in the pair?|Type your response on a scale from 0-100 and then press Enter.",Study/JOL,"Study Phase",6982,,,5295,5927,,,,20,0.971
w10033288,iyem373plc,Nick_Dissertation_EX1,1,72,2020-04-20T21:44:51-07:00,7.9712109565735,5,versionA_stim.csv,JOLVersionA.csv,"JOL Version A","Dissertation, JOL version A",DISCUSSION,TALK,Study1,F,21,26,JOL,User,-,"How likely are you to correctly recall the second item in the pair?|Type your response on a scale from 0-100 and then press Enter.",Study/JOL,"Study Phase",4204,,,1756,2463,,,,10,1
w10033288,iyem373plc,Nick_Dissertation_EX1,1,73,2020-04-20T21:44:58-07:00,7.1058728694916,5,versionA_stim.csv,JOLVersionA.csv,"JOL Version A","Dissertation, JOL version A",DEBATE,SIGHT,Study1,U,73,34,JOL,User,-,"How likely are you to correctly recall the second item in the pair?|Type your response on a scale from 0-100 and then press Enter.",Study/JOL,"Study Phase",3573,,,1533,2243,,,,20,1
w10033288,iyem373plc,Nick_Dissertation_EX1,1,74,2020-04-20T21:45:04-07:00,5.709370136261,5,versionA_stim.csv,JOLVersionA.csv,"JOL Version A","Dissertation, JOL version A",ORCHID,FLOWER,Study1,F,24,61,JOL,User,-,"How likely are you to correctly recall the second item in the pair?|Type your response on a scale from 0-100 and then press Enter.",Study/JOL,"Study Phase",3134,,,1402,1924,,,,10,1
w10033288,iyem373plc,Nick_Dissertation_EX1,1,75,2020-04-20T21:45:09-07:00,5.5099809169769,5,versionA_stim.csv,JOLVersionA.csv,"JOL Version A","Dissertation, JOL version A",POP,SODA,Study1,S,56,28,JOL,User,-,"How likely are you to correctly recall the second item in the pair?|Type your response on a scale from 0-100 and then press Enter.",Study/JOL,"Study Phase",4133,,,2283,2566,,,,12,1
w10033288,iyem373plc,Nick_Dissertation_EX1,1,76,2020-04-20T21:45:18-07:00,8.8674070835114,5,versionA_stim.csv,JOLVersionA.csv,"JOL Version A","Dissertation, JOL version A",ROOT,PLANT,Study1,F,13,71,JOL,User,-,"How likely are you to correctly recall the second item in the pair?|Type your response on a scale from 0-100 and then press Enter.",Study/JOL,"Study Phase",5354,,,2377,3358,,,,10,1
w10033288,iyem373plc,Nick_Dissertation_EX1,1,77,2020-04-20T21:45:35-07:00,16.47726392746,5,versionA_stim.csv,JOLVersionA.csv,"JOL Version A","Dissertation, JOL version A",HEIGHT,GROWTH,Study1,B,30,81,JOL,User,-,"How likely are you to correctly recall the second item in the pair?|Type your response on a scale from 0-100 and then press Enter.",Study/JOL,"Study Phase",5221,,,3601,4318,,,,20,0.962
w10033288,iyem373plc,Nick_Dissertation_EX1,1,78,2020-04-20T21:45:53-07:00,18.447546958923,5,versionA_stim.csv,JOLVersionA.csv,"JOL Version A","Dissertation, JOL version A",HUNGER,FAMINE,Study1,B,40,7,JOL,User,-,"How likely are you to correctly recall the second item in the pair?|Type your response on a scale from 0-100 and then press Enter.",Study/JOL,"Study Phase",2788,,,1864,2407,,,,10,0.929
w10033288,iyem373plc,Nick_Dissertation_EX1,1,79,2020-04-20T21:46:10-07:00,17.426701068878,5,versionA_stim.csv,JOLVersionA.csv,"JOL Version A","Dissertation, JOL version A",BITTER,COLD,Study1,F,12,76,JOL,User,-,"How likely are you to correctly recall the second item in the pair?|Type your response on a scale from 0-100 and then press Enter.",Study/JOL,"Study Phase",4060,,,2041,2645,,,,50,0.952
w10033288,iyem373plc,Nick_Dissertation_EX1,1,80,2020-04-20T21:46:18-07:00,7.6558120250702,5,versionA_stim.csv,JOLVersionA.csv,"JOL Version A","Dissertation, JOL version A",HORNET,STING,Study1,F,11,86,JOL,User,-,"How likely are you to correctly recall the second item in the pair?|Type your response on a scale from 0-100 and then press Enter.",Study/JOL,"Study Phase",4277,,,2250,2966,,,,10,1
w10033288,iyem373plc,Nick_Dissertation_EX1,1,81,2020-04-20T21:46:28-07:00,9.5787239074707,5,versionA_stim.csv,JOLVersionA.csv,"JOL Version A","Dissertation, JOL version A",HYGIENE,CLEAN,Study1,F,17,15,JOL,User,-,"How likely are you to correctly recall the second item in the pair?|Type your response on a scale from 0-100 and then press Enter.",Study/JOL,"Study Phase",4419,,,2124,2859,,,,40,1
w10033288,iyem373plc,Nick_Dissertation_EX1,1,82,2020-04-20T21:46:35-07:00,7.4518260955811,5,versionA_stim.csv,JOLVersionA.csv,"JOL Version A","Dissertation, JOL version A",HOT,CHILI,Study1,B,37,10,JOL,User,-,"How likely are you to correctly recall the second item in the pair?|Type your response on a scale from 0-100 and then press Enter.",Study/JOL,"Study Phase",3881,,,1806,2422,,,,30,1
w10033288,iyem373plc,Nick_Dissertation_EX1,1,83,2020-04-20T21:46:49-07:00,13.830885887146,5,versionA_stim.csv,JOLVersionA.csv,"JOL Version A","Dissertation, JOL version A",TRIAL,JURY,Study1,S,50,30,JOL,User,-,"How likely are you to correctly recall the second item in the pair?|Type your response on a scale from 0-100 and then press Enter.",Study/JOL,"Study Phase",5022,,,2769,3590,,,,20,0.96
w10033288,iyem373plc,Nick_Dissertation_EX1,1,84,2020-04-20T21:46:55-07:00,5.7498500347137,5,versionA_stim.csv,JOLVersionA.csv,"JOL Version A","Dissertation, JOL version A",ARCHITECTURE,DESIGN,Study1,S,51,16,JOL,User,-,"How likely are you to correctly recall the second item in the pair?|Type your response on a scale from 0-100 and then press Enter.",Study/JOL,"Study Phase",5381,,,2310,3447,,,,10,1
w10033288,iyem373plc,Nick_Dissertation_EX1,1,85,2020-04-20T21:46:59-07:00,3.9610190391541,5,versionA_stim.csv,JOLVersionA.csv,"JOL Version A","Dissertation, JOL version A",CHISEL,HAMMER,Study1,F,9,75,JOL,User,-,"How likely are you to correctly recall the second item in the pair?|Type your response on a scale from 0-100 and then press Enter.",Study/JOL,"Study Phase",3587,,,1417,2033,,,,20,1
w10033288,iyem373plc,Nick_Dissertation_EX1,1,86,2020-04-20T21:47:08-07:00,9.828516960144,5,versionA_stim.csv,JOLVersionA.csv,"JOL Version A","Dissertation, JOL version A",SOON,BELT,Study1,U,70,24,JOL,User,-,"How likely are you to correctly recall the second item in the pair?|Type your response on a scale from 0-100 and then press Enter.",Study/JOL,"Study Phase",3180,,,2179,2831,,,,30,0.938
w10033288,iyem373plc,Nick_Dissertation_EX1,1,87,2020-04-20T21:47:21-07:00,12.750056028366,5,versionA_stim.csv,JOLVersionA.csv,"JOL Version A","Dissertation, JOL version A",MATH,DIVISION,Study1,B,33,12,JOL,User,-,"How likely are you to correctly recall the second item in the pair?|Type your response on a scale from 0-100 and then press Enter.",Study/JOL,"Study Phase",5641,,,4463,4652,,,,56,0.966
w10033288,iyem373plc,Nick_Dissertation_EX1,1,88,2020-04-20T21:47:26-07:00,5.3130810260773,5,versionA_stim.csv,JOLVersionA.csv,"JOL Version A","Dissertation, JOL version A",HAPPY,CAR,Study1,U,77,31,JOL,User,-,"How likely are you to correctly recall the second item in the pair?|Type your response on a scale from 0-100 and then press Enter.",Study/JOL,"Study Phase",4957,,,1647,2061,,,,45,1
w10033288,iyem373plc,Nick_Dissertation_EX1,1,89,2020-04-20T21:47:31-07:00,4.3702268600464,5,versionA_stim.csv,JOLVersionA.csv,"JOL Version A","Dissertation, JOL version A",WAY,OUT,Study1,F,16,73,JOL,User,-,"How likely are you to correctly recall the second item in the pair?|Type your response on a scale from 0-100 and then press Enter.",Study/JOL,"Study Phase",4017,,,2122,2353,,,,90,1
w10033288,iyem373plc,Nick_Dissertation_EX1,1,90,2020-04-20T21:47:52-07:00,20.9615650177,5,versionA_stim.csv,JOLVersionA.csv,"JOL Version A","Dissertation, JOL version A",BALL,RACKET,Study1,B,38,41,JOL,User,-,"How likely are you to correctly recall the second item in the pair?|Type your response on a scale from 0-100 and then press Enter.",Study/JOL,"Study Phase",2820,,,1413,1567,,,,34,0.929
w10033288,iyem373plc,Nick_Dissertation_EX1,1,91,2020-04-20T21:48:03-07:00,10.939602136612,5,versionA_stim.csv,JOLVersionA.csv,"JOL Version A","Dissertation, JOL version A",MALT,CHOCOLATE,BUFFER2,Buffer,88,89,JOL,User,-,"How likely are you to correctly recall the second item in the pair?|Type your response on a scale from 0-100 and then press Enter.",Study/JOL,BUFFER2,3685,,,1366,2823,,,,67,0.947
w10033288,iyem373plc,Nick_Dissertation_EX1,1,92,2020-04-20T21:48:30-07:00,27.497700929642,5,versionA_stim.csv,JOLVersionA.csv,"JOL Version A","Dissertation, JOL version A",GEESE,GOOSE,BUFFER2,Buffer,86,90,JOL,User,-,"How likely are you to correctly recall the second item in the pair?|Type your response on a scale from 0-100 and then press Enter.",Study/JOL,BUFFER2,4079,,,3393,3560,,,,45,0.952
w10033288,iyem373plc,Nick_Dissertation_EX1,1,93,2020-04-20T21:48:35-07:00,4.5289149284363,5,versionA_stim.csv,JOLVersionA.csv,"JOL Version A","Dissertation, JOL version A",SHERRIF,POLICE,BUFFER2,Buffer,87,87,JOL,User,-,"How likely are you to correctly recall the second item in the pair?|Type your response on a scale from 0-100 and then press Enter.",Study/JOL,BUFFER2,4175,,,2111,2326,,,,65,1
w10033288,iyem373plc,Nick_Dissertation_EX1,1,94,2020-04-20T21:48:47-07:00,12.588205099106,5,versionA_stim.csv,JOLVersionA.csv,"JOL Version A","Dissertation, JOL version A",MOON,SPACE,BUFFER2,Buffer,89,91,JOL,User,-,"How likely are you to correctly recall the second item in the pair?|Type your response on a scale from 0-100 and then press Enter.",Study/JOL,BUFFER2,7383,,,5867,6047,,,,65,0.973
w10033288,iyem373plc,Nick_Dissertation_EX1,1,95,2020-04-20T21:48:56-07:00,8.891587972641,5,versionA_stim.csv,JOLVersionA.csv,"JOL Version A","Dissertation, JOL version A",THING,STUFF,BUFFER2,Buffer,90,88,JOL,User,-,"How likely are you to correctly recall the second item in the pair?|Type your response on a scale from 0-100 and then press Enter.",Study/JOL,BUFFER2,3386,,,2914,3076,,,,67,0.941
w10033288,iyem373plc,Nick_Dissertation_EX1,1,96,2020-04-20T21:49:08-07:00,12.114032030106,5,versionA_stim.csv,JOLVersionA.csv,"JOL Version A","Dissertation, JOL version A",,,,,,0,Instruct,User,-,"You have completed this section. Please press Enter.",Filler_Instruction,Instruct2,5412,,,-1,-1,,,,,0.964
w10033288,iyem373plc,Nick_Dissertation_EX1,1,97,2020-04-20T21:51:06-07:00,117.76262593269,5,versionA_stim.csv,JOLVersionA.csv,"JOL Version A","Dissertation, JOL version A",,,,,,0,FreeRecall,120,120,"Please list the 50 US states in alphabetical order. The task will automatically advance to the next screen after two minutes.",,Filler1,120002,"AL AK AZ AR CA CO CT DE FL GA HI ID IL IN IA KS KY LA ME MD MA MI MN MS MO MT NE NV NH NJ NM MY MC ND OH OK OR PA ",0,36079,119110,0,0,,,1
w10033288,iyem373plc,Nick_Dissertation_EX1,1,98,2020-04-20T21:51:37-07:00,30.549208164215,5,versionA_stim.csv,JOLVersionA.csv,"JOL Version A","Dissertation, JOL version A",,,,,,0,Instruct,-,10,"You will now be presented with the first word from each of the previously studied item pairs. Please type the missing word. If you do not know the word, you may guess or press Enter to skip forward to the next pair.",,Instruct3,25235,,,-1,-1,,,,,1
w10033288,iyem373plc,Nick_Dissertation_EX1,1,99,2020-04-20T21:52:22-07:00,45.340767860413,5,versionA_stim.csv,JOLVersionA.csv,"JOL Version A","Dissertation, JOL version A",DRINK,SIP,Study1,B,27,69,Test,User,-,,Recall,Recall1,40447,sip,100,37961,38754,1,1,,,1
w10033288,iyem373plc,Nick_Dissertation_EX1,1,100,2020-04-20T21:52:30-07:00,8.320641040802,5,versionA_stim.csv,JOLVersionA.csv,"JOL Version A","Dissertation, JOL version A",DUE,ASSIGNMENT,Study1,S,46,9,Test,User,-,,Recall,Recall1,7659,ASSIGNMENT,100,4457,6531,1,1,,,1
w10033288,iyem373plc,Nick_Dissertation_EX1,1,101,2020-04-20T21:52:43-07:00,12.636965036392,5,versionA_stim.csv,JOLVersionA.csv,"JOL Version A","Dissertation, JOL version A",ORCHID,FLOWER,Study1,F,24,61,Test,User,-,,Recall,Recall1,3723,FLOWER,100,2135,3234,1,1,,,0.947
w10033288,iyem373plc,Nick_Dissertation_EX1,1,102,2020-04-20T21:52:48-07:00,5.2437109947205,5,versionA_stim.csv,JOLVersionA.csv,"JOL Version A","Dissertation, JOL version A",LETTUCE,SALAD,Study1,S,59,59,Test,User,-,,Recall,Recall1,4879,GREEN,0,2837,4440,0,0,,,1
w10033288,iyem373plc,Nick_Dissertation_EX1,1,103,2020-04-20T21:53:12-07:00,23.660748004913,5,versionA_stim.csv,JOLVersionA.csv,"JOL Version A","Dissertation, JOL version A",SOON,BELT,Study1,U,70,24,Test,User,-,,Recall,Recall1,23284,ENOUGH,20,21532,22502,0,0,,,1
w10033288,iyem373plc,Nick_Dissertation_EX1,1,104,2020-04-20T21:53:23-07:00,11.023032903671,5,versionA_stim.csv,JOLVersionA.csv,"JOL Version A","Dissertation, JOL version A",TUNA,FISH,Study1,F,25,66,Test,User,-,,Recall,Recall1,3730,FISH,100,2468,2855,1,1,,,0.947
w10033288,iyem373plc,Nick_Dissertation_EX1,1,105,2020-04-20T21:53:46-07:00,22.662569999695,5,versionA_stim.csv,JOLVersionA.csv,"JOL Version A","Dissertation, JOL version A",DEATH,BUSINESS,Study1,U,72,52,Test,User,-,,Recall,Recall1,15559,VALLEY,14.285714285714,12587,14633,0,0,,,0.987
w10033288,iyem373plc,Nick_Dissertation_EX1,1,106,2020-04-20T21:54:14-07:00,28.857646942139,5,versionA_stim.csv,JOLVersionA.csv,"JOL Version A","Dissertation, JOL version A",HIDE,SICK,Study1,U,84,33,Test,User,-,,Recall,Recall1,22120,SICK,100,19969,21245,1,1,,,0.991
w10033288,iyem373plc,Nick_Dissertation_EX1,1,107,2020-04-20T21:54:21-07:00,6.790069103241,5,versionA_stim.csv,JOLVersionA.csv,"JOL Version A","Dissertation, JOL version A",PARK,HUNGRY,Study1,U,68,43,Test,User,-,,Recall,Recall1,6227,DOG,22.222222222222,4853,5528,0,0,,,1
w10033288,iyem373plc,Nick_Dissertation_EX1,1,108,2020-04-20T21:54:35-07:00,13.822756052017,5,versionA_stim.csv,JOLVersionA.csv,"JOL Version A","Dissertation, JOL version A",PAW,DOG,Study1,F,15,21,Test,User,-,,Recall,Recall1,2567,DOG,100,1308,1823,1,1,,,0.923
w10033288,iyem373plc,Nick_Dissertation_EX1,1,109,2020-04-20T21:55:39-07:00,63.704190969467,5,versionA_stim.csv,JOLVersionA.csv,"JOL Version A","Dissertation, JOL version A",HEIGHT,GROWTH,Study1,B,30,81,Test,User,-,,Recall,Recall1,63313,GROWTH,100,61193,62376,1,1,,,1
w10033288,iyem373plc,Nick_Dissertation_EX1,1,110,2020-04-20T21:55:44-07:00,5.5257229804993,5,versionA_stim.csv,JOLVersionA.csv,"JOL Version A","Dissertation, JOL version A",SHOE,FOOT,Study1,S,60,20,Test,User,-,,Recall,Recall1,5160,SIZE,0,3225,4102,0,0,,,1
w10033288,iyem373plc,Nick_Dissertation_EX1,1,111,2020-04-20T21:56:22-07:00,37.29648399353,5,versionA_stim.csv,JOLVersionA.csv,"JOL Version A","Dissertation, JOL version A",DIETARY,SACKING,Study1,U,67,51,Test,User,-,,Recall,Recall1,28764,SACKING,100,26109,27366,1,1,,,0.993
w10033288,iyem373plc,Nick_Dissertation_EX1,1,112,2020-04-20T21:56:25-07:00,3.0604240894318,5,versionA_stim.csv,JOLVersionA.csv,"JOL Version A","Dissertation, JOL version A",BEGIN,END,Study1,S,54,14,Test,User,-,,Recall,Recall1,2505,END,100,1593,1837,1,1,,,1
w10033288,iyem373plc,Nick_Dissertation_EX1,1,113,2020-04-20T21:56:45-07:00,20.534721851349,5,versionA_stim.csv,JOLVersionA.csv,"JOL Version A","Dissertation, JOL version A",NUMBER,AMOUNT,Study1,S,47,37,Test,User,-,,Recall,Recall1,11669,LETTER,16.666666666667,10068,10871,0,0,,,0.983
w10033288,iyem373plc,Nick_Dissertation_EX1,1,114,2020-04-20T21:56:50-07:00,4.6609160900116,5,versionA_stim.csv,JOLVersionA.csv,"JOL Version A","Dissertation, JOL version A",WORK,CHORE,Study1,B,39,63,Test,User,-,,Recall,Recall1,4096,BUSINESS,15.384615384615,1781,3007,0,0,,,1
w10033288,iyem373plc,Nick_Dissertation_EX1,1,115,2020-04-20T21:56:53-07:00,2.9808719158173,5,versionA_stim.csv,JOLVersionA.csv,"JOL Version A","Dissertation, JOL version A",CREDIT,CARD,Study1,F,23,50,Test,User,-,,Recall,Recall1,2622,CARD,100,1250,1797,1,1,,,1
w10033288,iyem373plc,Nick_Dissertation_EX1,1,116,2020-04-20T21:56:58-07:00,5.050938129425,5,versionA_stim.csv,JOLVersionA.csv,"JOL Version A","Dissertation, JOL version A",BUG,WASP,Study1,B,32,23,Test,User,-,,Recall,Recall1,4676,INSECT,20,2192,3503,0,0,,,1
w10033288,iyem373plc,Nick_Dissertation_EX1,1,117,2020-04-20T21:57:03-07:00,4.6727328300476,5,versionA_stim.csv,JOLVersionA.csv,"JOL Version A","Dissertation, JOL version A",BALL,RACKET,Study1,B,38,41,Test,User,-,,Recall,Recall1,4314,RED,44.444444444444,3032,3552,0,0,,,1
w10033288,iyem373plc,Nick_Dissertation_EX1,1,118,2020-04-20T21:57:18-07:00,15.375884056091,5,versionA_stim.csv,JOLVersionA.csv,"JOL Version A","Dissertation, JOL version A",BATHROOM,TOILET,Study1,S,58,82,Test,User,-,,Recall,Recall1,2982,TOILET,100,1455,2304,1,1,,,0.933
w10033288,iyem373plc,Nick_Dissertation_EX1,1,119,2020-04-20T21:58:51-07:00,93.013852119446,5,versionA_stim.csv,JOLVersionA.csv,"JOL Version A","Dissertation, JOL version A",HYGIENE,CLEAN,Study1,F,17,15,Test,User,-,,Recall,Recall1,92620,CLEAN,100,3352,91840,1,1,,,1
w10033288,iyem373plc,Nick_Dissertation_EX1,1,120,2020-04-20T21:58:54-07:00,3.1563308238983,5,versionA_stim.csv,JOLVersionA.csv,"JOL Version A","Dissertation, JOL version A",POP,SODA,Study1,S,56,28,Test,User,-,,Recall,Recall1,2794,SODA,100,1593,2087,1,1,,,1
w10033288,iyem373plc,Nick_Dissertation_EX1,1,121,2020-04-20T21:59:23-07:00,28.861328125,5,versionA_stim.csv,JOLVersionA.csv,"JOL Version A","Dissertation, JOL version A",SWAN,BIRD,Study1,F,14,46,Test,User,-,,Recall,Recall1,4180,BIRD,100,3040,3995,1,1,,,0.952
w10033288,iyem373plc,Nick_Dissertation_EX1,1,122,2020-04-20T21:59:50-07:00,26.869890928268,5,versionA_stim.csv,JOLVersionA.csv,"JOL Version A","Dissertation, JOL version A",ROOT,PLANT,Study1,F,13,71,Test,User,-,,Recall,Recall1,12050,PLANT,100,10451,11354,1,1,,,0.984
w10033288,iyem373plc,Nick_Dissertation_EX1,1,123,2020-04-20T21:59:59-07:00,9.001307964325,5,versionA_stim.csv,JOLVersionA.csv,"JOL Version A","Dissertation, JOL version A",HERD,COW,Study1,F,22,8,Test,User,-,,Recall,Recall1,2326,COW,100,1442,2007,1,1,,,0.917
w10033288,iyem373plc,Nick_Dissertation_EX1,1,124,2020-04-20T22:00:03-07:00,3.9638199806213,5,versionA_stim.csv,JOLVersionA.csv,"JOL Version A","Dissertation, JOL version A",ART,LION,Study1,U,79,58,Test,User,-,,Recall,Recall1,3583,LION,100,2171,2711,1,1,,,1
w10033288,iyem373plc,Nick_Dissertation_EX1,1,125,2020-04-20T22:00:11-07:00,8.4888741970062,5,versionA_stim.csv,JOLVersionA.csv,"JOL Version A","Dissertation, JOL version A",VALLEY,ADD,Study1,U,82,80,Test,User,-,,Recall,Recall1,8103,DEATH,25,6436,7222,0,0,,,1
w10033288,iyem373plc,Nick_Dissertation_EX1,1,126,2020-04-20T22:00:15-07:00,3.2632179260254,5,versionA_stim.csv,JOLVersionA.csv,"JOL Version A","Dissertation, JOL version A",LAW,ATTORNEY,Study1,B,34,79,Test,User,-,,Recall,Recall1,2885,ORDER,46.153846153846,1554,2303,0,0,,,1
w10033288,iyem373plc,Nick_Dissertation_EX1,1,127,2020-04-20T22:00:45-07:00,30.543067932129,5,versionA_stim.csv,JOLVersionA.csv,"JOL Version A","Dissertation, JOL version A",CASH,WOULD,Study1,U,83,22,Test,User,-,,Recall,Recall1,2566,MONEY,20,1413,2120,0,0,,,0.923
w10033288,iyem373plc,Nick_Dissertation_EX1,1,128,2020-04-20T22:01:51-07:00,65.896886110306,5,versionA_stim.csv,JOLVersionA.csv,"JOL Version A","Dissertation, JOL version A",DELINQUENT,BAD,Study1,F,6,11,Test,User,-,,Recall,Recall1,35520,BAD,100,34067,34382,1,1,,,0.994
w10033288,iyem373plc,Nick_Dissertation_EX1,1,129,2020-04-20T22:03:42-07:00,110.97596597672,5,versionA_stim.csv,JOLVersionA.csv,"JOL Version A","Dissertation, JOL version A",SUGAR,RIDDLE,Study1,U,81,78,Test,User,-,,Recall,Recall1,86620,SWEET,18.181818181818,85119,85765,0,0,,,0.996
w10033288,iyem373plc,Nick_Dissertation_EX1,1,130,2020-04-20T22:03:46-07:00,3.80885887146,5,versionA_stim.csv,JOLVersionA.csv,"JOL Version A","Dissertation, JOL version A",HORNET,STING,Study1,F,11,86,Test,User,-,,Recall,Recall1,3423,WASP,22.222222222222,1805,2476,0,0,,,1
w10033288,iyem373plc,Nick_Dissertation_EX1,1,131,2020-04-20T22:05:00-07:00,74.508516073227,5,versionA_stim.csv,JOLVersionA.csv,"JOL Version A","Dissertation, JOL version A",PLANE,PILOT,Study1,B,44,18,Test,User,-,,Recall,Recall1,74113,PILOT,100,72440,73302,1,1,,,1
w10033288,iyem373plc,Nick_Dissertation_EX1,1,132,2020-04-20T22:05:12-07:00,11.337332010269,5,versionA_stim.csv,JOLVersionA.csv,"JOL Version A","Dissertation, JOL version A",LOCATION,SITE,Study1,S,48,29,Test,User,-,,Recall,Recall1,2952,PLACE,22.222222222222,1436,2183,0,0,,,0.933
w10033288,iyem373plc,Nick_Dissertation_EX1,1,133,2020-04-20T22:05:39-07:00,27.840579032898,5,versionA_stim.csv,JOLVersionA.csv,"JOL Version A","Dissertation, JOL version A",DIGESTION,STOMACH,Study1,F,7,49,Test,User,-,,Recall,Recall1,8500,STOMACH,100,6857,8137,1,1,,,0.977
w10033288,iyem373plc,Nick_Dissertation_EX1,1,134,2020-04-20T22:05:52-07:00,12.549519062042,5,versionA_stim.csv,JOLVersionA.csv,"JOL Version A","Dissertation, JOL version A",KEY,LATCH,Study1,B,36,45,Test,User,-,,Recall,Recall1,4947,LOCK,44.444444444444,1306,1645,0,0,,,0.96
w10033288,iyem373plc,Nick_Dissertation_EX1,1,135,2020-04-20T22:05:59-07:00,7.4735779762268,5,versionA_stim.csv,JOLVersionA.csv,"JOL Version A","Dissertation, JOL version A",WAGE,MONEY,Study1,F,8,53,Test,User,-,,Recall,Recall1,7118,MONEY,100,2628,3239,1,1,,,1
w10033288,iyem373plc,Nick_Dissertation_EX1,1,136,2020-04-20T22:06:09-07:00,9.5034718513489,5,versionA_stim.csv,JOLVersionA.csv,"JOL Version A","Dissertation, JOL version A",MACHINE,POSITION,Study1,U,76,62,Test,User,-,,Recall,Recall1,8722,DRINK,30.769230769231,4435,5348,0,0,,,1
w10033288,iyem373plc,Nick_Dissertation_EX1,1,137,2020-04-20T22:06:17-07:00,7.6777181625366,5,versionA_stim.csv,JOLVersionA.csv,"JOL Version A","Dissertation, JOL version A",DEBATE,SIGHT,Study1,U,73,34,Test,User,-,,Recall,Recall1,6788,ARGUMENT,30.769230769231,1916,3703,0,0,,,1
w10033288,iyem373plc,Nick_Dissertation_EX1,1,138,2020-04-20T22:06:27-07:00,10.718199968338,5,versionA_stim.csv,JOLVersionA.csv,"JOL Version A","Dissertation, JOL version A",MATH,DIVISION,Study1,B,33,12,Test,User,-,,Recall,Recall1,10042,SOLVE,30.769230769231,1874,5555,0,0,,,1
w10033288,iyem373plc,Nick_Dissertation_EX1,1,139,2020-04-20T22:06:34-07:00,6.1598510742188,5,versionA_stim.csv,JOLVersionA.csv,"JOL Version A","Dissertation, JOL version A",PAST,FUTURE,Study1,S,61,17,Test,User,-,,Recall,Recall1,5142,FUTURE,100,1706,4588,1,1,,,1
w10033288,iyem373plc,Nick_Dissertation_EX1,1,140,2020-04-20T22:07:03-07:00,28.978587865829,5,versionA_stim.csv,JOLVersionA.csv,"JOL Version A","Dissertation, JOL version A",HONEY,BEE,Study1,S,63,67,Test,User,-,,Recall,Recall1,10145,BEE,100,2301,2575,1,1,,,0.98
w10033288,iyem373plc,Nick_Dissertation_EX1,1,141,2020-04-20T22:07:23-07:00,20.210854053497,5,versionA_stim.csv,JOLVersionA.csv,"JOL Version A","Dissertation, JOL version A",ARTERY,BRONZE,Study1,U,74,19,Test,User,-,,Recall,Recall1,19677,FOOD,20,13201,14290,0,0,,,1
w10033288,iyem373plc,Nick_Dissertation_EX1,1,142,2020-04-20T22:07:37-07:00,14.151094913483,5,versionA_stim.csv,JOLVersionA.csv,"JOL Version A","Dissertation, JOL version A",GRILL,BAR,Study1,S,52,60,Test,User,-,,Recall,Recall1,12784,BAR,100,2312,7156,1,1,,,1
w10033288,iyem373plc,Nick_Dissertation_EX1,1,143,2020-04-20T22:07:57-07:00,20.419553995132,5,versionA_stim.csv,JOLVersionA.csv,"JOL Version A","Dissertation, JOL version A",WAY,OUT,Study1,F,16,73,Test,User,-,,Recall,Recall1,13579,OUT,100,1886,2513,1,1,,,0.985
w10033288,iyem373plc,Nick_Dissertation_EX1,1,144,2020-04-20T22:08:17-07:00,19.534070014954,5,versionA_stim.csv,JOLVersionA.csv,"JOL Version A","Dissertation, JOL version A",DISCUSSION,TALK,Study1,F,21,26,Test,User,-,,Recall,Recall1,17956,TALK,100,6146,7712,1,1,,,1
w10033288,iyem373plc,Nick_Dissertation_EX1,1,145,2020-04-20T22:09:17-07:00,60.548943996429,5,versionA_stim.csv,JOLVersionA.csv,"JOL Version A","Dissertation, JOL version A",BITTER,COLD,Study1,F,12,76,Test,User,-,,Recall,Recall1,57766,COLD,100,54282,56500,1,1,,,1
w10033288,iyem373plc,Nick_Dissertation_EX1,1,146,2020-04-20T22:09:26-07:00,8.2981951236725,5,versionA_stim.csv,JOLVersionA.csv,"JOL Version A","Dissertation, JOL version A",BABY,CHILD,Study1,S,64,40,Test,User,-,,Recall,Recall1,6686,CHILD,100,2231,5491,1,1,,,1
w10033288,iyem373plc,Nick_Dissertation_EX1,1,147,2020-04-20T22:09:33-07:00,7.2688410282135,5,versionA_stim.csv,JOLVersionA.csv,"JOL Version A","Dissertation, JOL version A",CLOTHES,ATTIRE,Study1,B,43,32,Test,User,-,,Recall,Recall1,4590,ATTIRE,100,2225,3140,1,1,,,1
w10033288,iyem373plc,Nick_Dissertation_EX1,1,148,2020-04-20T22:09:41-07:00,8.1844699382782,5,versionA_stim.csv,JOLVersionA.csv,"JOL Version A","Dissertation, JOL version A",BRIDGE,WATER,Study1,F,18,77,Test,User,-,,Recall,Recall1,6494,BURN,22.222222222222,2111,2794,0,0,,,1
w10033288,iyem373plc,Nick_Dissertation_EX1,1,149,2020-04-20T22:09:55-07:00,13.976300954819,5,versionA_stim.csv,JOLVersionA.csv,"JOL Version A","Dissertation, JOL version A",SENTENCE,WORD,Study1,B,31,36,Test,User,-,,Recall,Recall1,13358,PERIOD,40,4711,6068,0,0,,,1
w10033288,iyem373plc,Nick_Dissertation_EX1,1,150,2020-04-20T22:10:06-07:00,10.664767026901,5,versionA_stim.csv,JOLVersionA.csv,"JOL Version A","Dissertation, JOL version A",ALLOW,TUCK,Study1,U,78,54,Test,User,-,,Recall,Recall1,9244,PERMIT,20,7949,8855,0,0,,,1
w10033288,iyem373plc,Nick_Dissertation_EX1,1,151,2020-04-20T22:10:18-07:00,12.519144058228,5,versionA_stim.csv,JOLVersionA.csv,"JOL Version A","Dissertation, JOL version A",CIRCLE,ROUND,Study1,S,65,83,Test,User,-,,Recall,Recall1,4650,ROUND,100,1558,2097,1,1,,,0.958
w10033288,iyem373plc,Nick_Dissertation_EX1,1,152,2020-04-20T22:10:27-07:00,9.0613029003143,5,versionA_stim.csv,JOLVersionA.csv,"JOL Version A","Dissertation, JOL version A",DISCOVER,FLOOR,Study1,U,71,27,Test,User,-,,Recall,Recall1,7569,INTERNET,15.384615384615,2233,3797,0,0,,,1
w10033288,iyem373plc,Nick_Dissertation_EX1,1,153,2020-04-20T22:10:35-07:00,8.096745967865,5,versionA_stim.csv,JOLVersionA.csv,"JOL Version A","Dissertation, JOL version A",MEANING,DEFINITION,Study1,S,62,42,Test,User,-,,Recall,Recall1,6533,WORD,14.285714285714,3444,3919,0,0,,,1
w10033288,iyem373plc,Nick_Dissertation_EX1,1,154,2020-04-20T22:10:42-07:00,6.4241011142731,5,versionA_stim.csv,JOLVersionA.csv,"JOL Version A","Dissertation, JOL version A",PUSHER,CLUTTER,Study1,U,66,70,Test,User,-,,Recall,Recall1,5367,ALLOW,16.666666666667,2480,2969,0,0,,,1
w10033288,iyem373plc,Nick_Dissertation_EX1,1,155,2020-04-20T22:10:49-07:00,7.5823218822479,5,versionA_stim.csv,JOLVersionA.csv,"JOL Version A","Dissertation, JOL version A",FULL,ENOUGH,Study1,B,26,25,Test,User,-,,Recall,Recall1,7016,ENOUGH,100,1700,3294,1,1,,,1
w10033288,iyem373plc,Nick_Dissertation_EX1,1,156,2020-04-20T22:10:57-07:00,7.1403329372406,5,versionA_stim.csv,JOLVersionA.csv,"JOL Version A","Dissertation, JOL version A",KIDNEY,LIVER,Study1,S,53,48,Test,User,-,,Recall,Recall1,5431,LIVER,100,1433,3258,1,1,,,1
w10033288,iyem373plc,Nick_Dissertation_EX1,1,157,2020-04-20T22:11:05-07:00,8.7524220943451,5,versionA_stim.csv,JOLVersionA.csv,"JOL Version A","Dissertation, JOL version A",GREAT,FANTASTIC,Study1,B,35,39,Test,User,-,,Recall,Recall1,7950,FANTASTIC,100,1735,5560,1,1,,,1
w10033288,iyem373plc,Nick_Dissertation_EX1,1,158,2020-04-20T22:11:13-07:00,8.0654449462891,5,versionA_stim.csv,JOLVersionA.csv,"JOL Version A","Dissertation, JOL version A",GEOLOGY,ROCK,Study1,F,19,68,Test,User,-,,Recall,Recall1,6462,ROCK,100,1932,2361,1,1,,,1
w10033288,iyem373plc,Nick_Dissertation_EX1,1,159,2020-04-20T22:11:30-07:00,16.743436098099,5,versionA_stim.csv,JOLVersionA.csv,"JOL Version A","Dissertation, JOL version A",DARK,CAVE,Study1,B,28,55,Test,User,-,,Recall,Recall1,4927,LIGHT,0,1449,2148,0,0,,,0.96
w10033288,iyem373plc,Nick_Dissertation_EX1,1,160,2020-04-20T22:12:06-07:00,35.51953291893,5,versionA_stim.csv,JOLVersionA.csv,"JOL Version A","Dissertation, JOL version A",FIX,HAND,Study1,U,75,85,Test,User,-,,Recall,Recall1,35146,REPAIR,20,31494,33132,0,0,,,1
w10033288,iyem373plc,Nick_Dissertation_EX1,1,161,2020-04-20T22:12:25-07:00,19.430834054947,5,versionA_stim.csv,JOLVersionA.csv,"JOL Version A","Dissertation, JOL version A",HUNGER,FAMINE,Study1,B,40,7,Test,User,-,,Recall,Recall1,8812,FAMINE,100,2245,3115,1,1,,,0.977
w10033288,iyem373plc,Nick_Dissertation_EX1,1,162,2020-04-20T22:12:32-07:00,6.8396489620209,5,versionA_stim.csv,JOLVersionA.csv,"JOL Version A","Dissertation, JOL version A",REVOLUTION,WAR,Study1,F,20,84,Test,User,-,,Recall,Recall1,6483,WAR,100,2059,2582,1,1,,,1
w10033288,iyem373plc,Nick_Dissertation_EX1,1,163,2020-04-20T22:12:40-07:00,7.6204421520233,5,versionA_stim.csv,JOLVersionA.csv,"JOL Version A","Dissertation, JOL version A",FIRE,BLAZE,Study1,B,45,38,Test,User,-,,Recall,Recall1,7255,ALARM,40,1579,2169,0,0,,,1
w10033288,iyem373plc,Nick_Dissertation_EX1,1,164,2020-04-20T22:12:49-07:00,9.0410468578339,5,versionA_stim.csv,JOLVersionA.csv,"JOL Version A","Dissertation, JOL version A",TRIAL,JURY,Study1,S,50,30,Test,User,-,,Recall,Recall1,8685,ERROR,22.222222222222,4238,4828,0,0,,,1
w10033288,iyem373plc,Nick_Dissertation_EX1,1,165,2020-04-20T22:12:59-07:00,9.9715220928192,5,versionA_stim.csv,JOLVersionA.csv,"JOL Version A","Dissertation, JOL version A",STRONG,ACCIDENT,Study1,U,80,74,Test,User,-,,Recall,Recall1,9596,ENOUGH,28.571428571429,3013,4798,0,0,,,1
w10033288,iyem373plc,Nick_Dissertation_EX1,1,166,2020-04-20T22:13:05-07:00,6.8961699008942,5,versionA_stim.csv,JOLVersionA.csv,"JOL Version A","Dissertation, JOL version A",HOT,CHILI,Study1,B,37,10,Test,User,-,,Recall,Recall1,6537,CHILI,100,1372,2834,1,1,,,1
w10033288,iyem373plc,Nick_Dissertation_EX1,1,167,2020-04-20T22:13:15-07:00,9.490690946579,5,versionA_stim.csv,JOLVersionA.csv,"JOL Version A","Dissertation, JOL version A",SMELL,STENCH,Study1,B,42,57,Test,User,-,,Recall,Recall1,9110,STENCH,100,2919,3882,1,1,,,1
w10033288,iyem373plc,Nick_Dissertation_EX1,1,168,2020-04-20T22:14:04-07:00,48.587131023407,5,versionA_stim.csv,JOLVersionA.csv,"JOL Version A","Dissertation, JOL version A",SLEEP,DROWSY,Study1,B,41,13,Test,User,-,,Recall,Recall1,48222,DROWSY,100,42666,43884,1,1,,,1
w10033288,iyem373plc,Nick_Dissertation_EX1,1,169,2020-04-20T22:14:11-07:00,7.3637161254883,5,versionA_stim.csv,JOLVersionA.csv,"JOL Version A","Dissertation, JOL version A",LIFT,WOMAN,Study1,U,69,65,Test,User,-,,Recall,Recall1,6990,HEAVY,20,2157,3041,0,0,,,1
w10033288,iyem373plc,Nick_Dissertation_EX1,1,170,2020-04-20T22:14:27-07:00,15.857565879822,5,versionA_stim.csv,JOLVersionA.csv,"JOL Version A","Dissertation, JOL version A",TAKE,SEIZE,Study1,B,29,64,Test,User,-,,Recall,Recall1,6471,AWAY,0,1383,1890,0,0,,,0.97
w10033288,iyem373plc,Nick_Dissertation_EX1,1,171,2020-04-20T22:14:34-07:00,6.8837201595306,5,versionA_stim.csv,JOLVersionA.csv,"JOL Version A","Dissertation, JOL version A",EDITOR,NEWS,Study1,F,10,47,Test,User,-,,Recall,Recall1,6499,BOOK,0,2520,3235,0,0,,,1
w10033288,iyem373plc,Nick_Dissertation_EX1,1,172,2020-04-20T22:14:52-07:00,18.129678010941,5,versionA_stim.csv,JOLVersionA.csv,"JOL Version A","Dissertation, JOL version A",WINE,CHEESE,Study1,S,57,72,Test,User,-,,Recall,Recall1,11404,CHEESE,100,5367,6421,1,1,,,0.982
w10033288,iyem373plc,Nick_Dissertation_EX1,1,173,2020-04-20T22:15:06-07:00,14.702658891678,5,versionA_stim.csv,JOLVersionA.csv,"JOL Version A","Dissertation, JOL version A",HAPPY,CAR,Study1,U,77,31,Test,User,-,,Recall,Recall1,14122,SMILE,0,6044,6629,0,0,,,1
w10033288,iyem373plc,Nick_Dissertation_EX1,1,174,2020-04-20T22:15:24-07:00,17.525748968124,5,versionA_stim.csv,JOLVersionA.csv,"JOL Version A","Dissertation, JOL version A",BLOW,WIND,Study1,S,55,35,Test,User,-,,Recall,Recall1,15079,MOUTH,0,6467,8011,0,0,,,1
w10033288,iyem373plc,Nick_Dissertation_EX1,1,175,2020-04-20T22:15:32-07:00,7.9648101329803,5,versionA_stim.csv,JOLVersionA.csv,"JOL Version A","Dissertation, JOL version A",CHISEL,HAMMER,Study1,F,9,75,Test,User,-,,Recall,Recall1,7352,SLEEP,18.181818181818,2735,3329,0,0,,,1
w10033288,iyem373plc,Nick_Dissertation_EX1,1,176,2020-04-20T22:15:43-07:00,11.358126878738,5,versionA_stim.csv,JOLVersionA.csv,"JOL Version A","Dissertation, JOL version A",KING,VASE,Study1,U,85,44,Test,User,-,,Recall,Recall1,10998,VASE,100,1665,7598,1,1,,,1
w10033288,iyem373plc,Nick_Dissertation_EX1,1,177,2020-04-20T22:15:51-07:00,7.7671859264374,5,versionA_stim.csv,JOLVersionA.csv,"JOL Version A","Dissertation, JOL version A",ARCHITECTURE,DESIGN,Study1,S,51,16,Test,User,-,,Recall,Recall1,7363,DESIGN,100,2075,3525,1,1,,,1
w10033288,iyem373plc,Nick_Dissertation_EX1,1,178,2020-04-20T22:16:13-07:00,21.525603055954,5,versionA_stim.csv,JOLVersionA.csv,"JOL Version A","Dissertation, JOL version A",DUMP,WASTE,Study1,S,49,56,Test,User,-,,Recall,Recall1,10351,GARBAGE,33.333333333333,1588,2366,0,0,,,0.981
w10033288,iyem373plc,Nick_Dissertation_EX1,1,179,2020-04-20T22:16:33-07:00,20.14533996582,5,versionA_stim.csv,JOLVersionA.csv,"JOL Version A","Dissertation, JOL version A",,,,,,0,Instruct,-,10,"You will now be presented with a new set of word pairs. Please study each pair. Remember that your memory will be tested! When finished, press Enter to move to the next pair.",Initial_Instruct,Instruct4,12638,,,-1,-1,,,,,1
w10033288,iyem373plc,Nick_Dissertation_EX1,1,180,2020-04-20T22:16:44-07:00,11.555521965027,5,versionA_stim.csv,JOLVersionA.csv,"JOL Version A","Dissertation, JOL version A",,,,,,0,Instruct,,10,"You will again be asked to rate your ability to remember these items using a 0 to 100 scale. Remember to use the full range of the scale!",,Instruct10,11151,,,-1,-1,,,,,1
w10033288,iyem373plc,Nick_Dissertation_EX1,1,181,2020-04-20T22:17:02-07:00,17.919007062912,5,versionA_stim.csv,JOLVersionA.csv,"JOL Version A","Dissertation, JOL version A",,,,,,0,Instruct,User,-,"Press Enter when you are readty to begin",,Instruct11,6852,,,-1,-1,,,,,0.971
w10033288,iyem373plc,Nick_Dissertation_EX1,1,182,2020-04-20T22:17:18-07:00,16.004909992218,5,versionA_stim.csv,JOLVersionA.csv,"JOL Version A","Dissertation, JOL version A",NOODLE,STRING,BUFFER3,Buffer,92,94,JOL,User,-,"How likely are you to correctly recall the second item in the pair?|Type your response on a scale from 0-100 and then press Enter.",Study/JOL,BUFFER3,15594,,,14130,15097,,,,10,1
w10033288,iyem373plc,Nick_Dissertation_EX1,1,183,2020-04-20T22:17:45-07:00,26.281269073486,5,versionA_stim.csv,JOLVersionA.csv,"JOL Version A","Dissertation, JOL version A",CARROT,POTATO,BUFFER3,Buffer,91,95,JOL,User,-,"How likely are you to correctly recall the second item in the pair?|Type your response on a scale from 0-100 and then press Enter.",Study/JOL,BUFFER3,6401,,,2582,3141,,,,10,0.969
w10033288,iyem373plc,Nick_Dissertation_EX1,1,184,2020-04-20T22:17:52-07:00,7.8962140083313,5,versionA_stim.csv,JOLVersionA.csv,"JOL Version A","Dissertation, JOL version A",SHRIMP,FISH,BUFFER3,Buffer,93,92,JOL,User,-,"How likely are you to correctly recall the second item in the pair?|Type your response on a scale from 0-100 and then press Enter.",Study/JOL,BUFFER3,7523,,,4140,4296,,,,10,1
w10033288,iyem373plc,Nick_Dissertation_EX1,1,185,2020-04-20T22:18:01-07:00,8.8691079616547,5,versionA_stim.csv,JOLVersionA.csv,"JOL Version A","Dissertation, JOL version A",CAMP,ADVENTURE,BUFFER3,Buffer,95,96,JOL,User,-,"How likely are you to correctly recall the second item in the pair?|Type your response on a scale from 0-100 and then press Enter.",Study/JOL,BUFFER3,8490,,,4786,4871,,,,10,1
w10033288,iyem373plc,Nick_Dissertation_EX1,1,186,2020-04-20T22:18:18-07:00,16.666223049164,5,versionA_stim.csv,JOLVersionA.csv,"JOL Version A","Dissertation, JOL version A",ICE,FROZEN,BUFFER3,Buffer,94,93,JOL,User,-,"How likely are you to correctly recall the second item in the pair?|Type your response on a scale from 0-100 and then press Enter.",Study/JOL,BUFFER3,4739,,,1228,2710,,,,10,0.958
w10033288,iyem373plc,Nick_Dissertation_EX1,1,187,2020-04-20T22:18:28-07:00,10.39404797554,5,versionA_stim.csv,JOLVersionA.csv,"JOL Version A","Dissertation, JOL version A",TRUTH,LIE,Study2,S,148,112,JOL,User,-,"How likely are you to correctly recall the second item in the pair?|Type your response on a scale from 0-100 and then press Enter.",Study/JOL,"Study Phase2",10025,,,5825,5962,,,,19,1
w10033288,iyem373plc,Nick_Dissertation_EX1,1,188,2020-04-20T22:18:38-07:00,10.077950000763,5,versionA_stim.csv,JOLVersionA.csv,"JOL Version A","Dissertation, JOL version A",ALONE,LONELY,Study2,S,145,168,JOL,User,-,"How likely are you to correctly recall the second item in the pair?|Type your response on a scale from 0-100 and then press Enter.",Study/JOL,"Study Phase2",9716,,,6031,6124,,,,10,1
w10033288,iyem373plc,Nick_Dissertation_EX1,1,189,2020-04-20T22:18:48-07:00,9.326709985733,5,versionA_stim.csv,JOLVersionA.csv,"JOL Version A","Dissertation, JOL version A",THREAD,THIMBLE,Study2,B,121,105,JOL,User,-,"How likely are you to correctly recall the second item in the pair?|Type your response on a scale from 0-100 and then press Enter.",Study/JOL,"Study Phase2",8984,,,913,989,,,,10,1
w10033288,iyem373plc,Nick_Dissertation_EX1,1,190,2020-04-20T22:18:55-07:00,7.6996879577637,5,versionA_stim.csv,JOLVersionA.csv,"JOL Version A","Dissertation, JOL version A",RIGHTS,EQUAL,Study2,S,137,173,JOL,User,-,"How likely are you to correctly recall the second item in the pair?|Type your response on a scale from 0-100 and then press Enter.",Study/JOL,"Study Phase2",7338,,,1996,2234,,,,10,1
w10033288,iyem373plc,Nick_Dissertation_EX1,1,191,2020-04-20T22:19:01-07:00,5.2839150428772,5,versionA_stim.csv,JOLVersionA.csv,"JOL Version A","Dissertation, JOL version A",CHERRY,RED,Study2,F,104,153,JOL,User,-,"How likely are you to correctly recall the second item in the pair?|Type your response on a scale from 0-100 and then press Enter.",Study/JOL,"Study Phase2",4804,,,1409,1444,,,,10,1
w10033288,iyem373plc,Nick_Dissertation_EX1,1,192,2020-04-20T22:19:08-07:00,6.8506300449371,5,versionA_stim.csv,JOLVersionA.csv,"JOL Version A","Dissertation, JOL version A",CHILL,COLD,Study2,F,114,125,JOL,User,-,"How likely are you to correctly recall the second item in the pair?|Type your response on a scale from 0-100 and then press Enter.",Study/JOL,"Study Phase2",5650,,,1255,1326,,,,10,1
w10033288,iyem373plc,Nick_Dissertation_EX1,1,193,2020-04-20T22:19:20-07:00,12.198384046555,5,versionA_stim.csv,JOLVersionA.csv,"JOL Version A","Dissertation, JOL version A",BAD,VILLAIN,Study2,B,118,116,JOL,User,-,"How likely are you to correctly recall the second item in the pair?|Type your response on a scale from 0-100 and then press Enter.",Study/JOL,"Study Phase2",2603,,,1563,1630,,,,10,0.923
w10033288,iyem373plc,Nick_Dissertation_EX1,1,194,2020-04-20T22:19:27-07:00,7.4075648784637,5,versionA_stim.csv,JOLVersionA.csv,"JOL Version A","Dissertation, JOL version A",NAME,HATE,Study2,U,167,101,JOL,User,-,"How likely are you to correctly recall the second item in the pair?|Type your response on a scale from 0-100 and then press Enter.",Study/JOL,"Study Phase2",7006,,,5261,5370,,,,10,1
w10033288,iyem373plc,Nick_Dissertation_EX1,1,195,2020-04-20T22:19:36-07:00,9.0830600261688,5,versionA_stim.csv,JOLVersionA.csv,"JOL Version A","Dissertation, JOL version A",ADJOURN,END,Study2,F,101,109,JOL,User,-,"How likely are you to correctly recall the second item in the pair?|Type your response on a scale from 0-100 and then press Enter.",Study/JOL,"Study Phase2",8135,,,938,1872,,,,10,1
w10033288,iyem373plc,Nick_Dissertation_EX1,1,196,2020-04-20T22:19:42-07:00,5.630343914032,5,versionA_stim.csv,JOLVersionA.csv,"JOL Version A","Dissertation, JOL version A",DEAD,COFFIN,Study2,B,128,123,JOL,User,-,"How likely are you to correctly recall the second item in the pair?|Type your response on a scale from 0-100 and then press Enter.",Study/JOL,"Study Phase2",5278,,,3534,3637,,,,10,1
w10033288,iyem373plc,Nick_Dissertation_EX1,1,197,2020-04-20T22:19:47-07:00,4.9514060020447,5,versionA_stim.csv,JOLVersionA.csv,"JOL Version A","Dissertation, JOL version A",VEHICLE,CHARM,Study2,U,160,106,JOL,User,-,"How likely are you to correctly recall the second item in the pair?|Type your response on a scale from 0-100 and then press Enter.",Study/JOL,"Study Phase2",4578,,,3591,3716,,,,10,1
w10033288,iyem373plc,Nick_Dissertation_EX1,1,198,2020-04-20T22:19:57-07:00,9.8211359977722,5,versionA_stim.csv,JOLVersionA.csv,"JOL Version A","Dissertation, JOL version A",EXTENSION,LONG,Study2,F,96,137,JOL,User,-,"How likely are you to correctly recall the second item in the pair?|Type your response on a scale from 0-100 and then press Enter.",Study/JOL,"Study Phase2",9379,,,1551,1698,,,,10,1
w10033288,iyem373plc,Nick_Dissertation_EX1,1,199,2020-04-20T22:20:02-07:00,5.4209101200104,5,versionA_stim.csv,JOLVersionA.csv,"JOL Version A","Dissertation, JOL version A",BEST,FAVORITE,Study2,B,125,172,JOL,User,-,"How likely are you to correctly recall the second item in the pair?|Type your response on a scale from 0-100 and then press Enter.",Study/JOL,"Study Phase2",5062,,,3908,3989,,,,10,1
w10033288,iyem373plc,Nick_Dissertation_EX1,1,200,2020-04-20T22:20:06-07:00,4.0252649784088,5,versionA_stim.csv,JOLVersionA.csv,"JOL Version A","Dissertation, JOL version A",MIRROR,CHILDREN,Study2,U,174,120,JOL,User,-,"How likely are you to correctly recall the second item in the pair?|Type your response on a scale from 0-100 and then press Enter.",Study/JOL,"Study Phase2",3659,,,3234,3291,,,,10,1
w10033288,iyem373plc,Nick_Dissertation_EX1,1,201,2020-04-20T22:20:17-07:00,11.208271980286,5,versionA_stim.csv,JOLVersionA.csv,"JOL Version A","Dissertation, JOL version A",Shell,SHAKE,Study2,U,163,165,JOL,User,-,"How likely are you to correctly recall the second item in the pair?|Type your response on a scale from 0-100 and then press Enter.",Study/JOL,"Study Phase2",2902,,,1760,1851,,,,10,0.933
w10033288,iyem373plc,Nick_Dissertation_EX1,1,202,2020-04-20T22:20:28-07:00,10.501611948013,5,versionA_stim.csv,JOLVersionA.csv,"JOL Version A","Dissertation, JOL version A",FUZZY,BANG,Study2,U,168,128,JOL,User,-,"How likely are you to correctly recall the second item in the pair?|Type your response on a scale from 0-100 and then press Enter.",Study/JOL,"Study Phase2",9875,,,3870,3910,,,,10,1
w10033288,iyem373plc,Nick_Dissertation_EX1,1,203,2020-04-20T22:20:34-07:00,6.1616811752319,5,versionA_stim.csv,JOLVersionA.csv,"JOL Version A","Dissertation, JOL version A",SCALP,HEAD,Study2,F,105,99,JOL,User,-,"How likely are you to correctly recall the second item in the pair?|Type your response on a scale from 0-100 and then press Enter.",Study/JOL,"Study Phase2",5783,,,4092,4187,,,,10,1
w10033288,iyem373plc,Nick_Dissertation_EX1,1,204,2020-04-20T22:20:41-07:00,7.3605477809906,5,versionA_stim.csv,JOLVersionA.csv,"JOL Version A","Dissertation, JOL version A",FRUIT,STRAWBERRY,Study2,B,124,98,JOL,User,-,"How likely are you to correctly recall the second item in the pair?|Type your response on a scale from 0-100 and then press Enter.",Study/JOL,"Study Phase2",6956,,,3667,3772,,,,10,1
w10033288,iyem373plc,Nick_Dissertation_EX1,1,205,2020-04-20T22:20:49-07:00,7.4836671352386,5,versionA_stim.csv,JOLVersionA.csv,"JOL Version A","Dissertation, JOL version A",MASON,JAR,Study2,S,138,151,JOL,User,-,"How likely are you to correctly recall the second item in the pair?|Type your response on a scale from 0-100 and then press Enter.",Study/JOL,"Study Phase2",7128,,,5064,5121,,,,10,1
w10033288,iyem373plc,Nick_Dissertation_EX1,1,206,2020-04-20T22:20:59-07:00,10.085286855698,5,versionA_stim.csv,JOLVersionA.csv,"JOL Version A","Dissertation, JOL version A",PLANE,AIRCRAFT,Study2,B,129,144,JOL,User,-,"How likely are you to correctly recall the second item in the pair?|Type your response on a scale from 0-100 and then press Enter.",Study/JOL,"Study Phase2",9718,,,8864,8972,,,,10,1
w10033288,iyem373plc,Nick_Dissertation_EX1,1,207,2020-04-20T22:21:12-07:00,12.984372138977,5,versionA_stim.csv,JOLVersionA.csv,"JOL Version A","Dissertation, JOL version A",CHOP,CUT,Study2,F,107,135,JOL,User,-,"How likely are you to correctly recall the second item in the pair?|Type your response on a scale from 0-100 and then press Enter.",Study/JOL,"Study Phase2",6788,,,2827,3168,,,,10,0.971
w10033288,iyem373plc,Nick_Dissertation_EX1,1,208,2020-04-20T22:21:23-07:00,11.350564002991,5,versionA_stim.csv,JOLVersionA.csv,"JOL Version A","Dissertation, JOL version A",FEUD,FIGHT,Study2,F,113,136,JOL,User,-,"How likely are you to correctly recall the second item in the pair?|Type your response on a scale from 0-100 and then press Enter.",Study/JOL,"Study Phase2",2465,,,1885,1988,,,,10,0.923
w10033288,iyem373plc,Nick_Dissertation_EX1,1,209,2020-04-20T22:21:35-07:00,11.3033618927,5,versionA_stim.csv,JOLVersionA.csv,"JOL Version A","Dissertation, JOL version A",MAIN,SCAR,Study2,U,175,102,JOL,User,-,"How likely are you to correctly recall the second item in the pair?|Type your response on a scale from 0-100 and then press Enter.",Study/JOL,"Study Phase2",2788,,,2001,2053,,,,10,0.929
w10033288,iyem373plc,Nick_Dissertation_EX1,1,210,2020-04-20T22:21:42-07:00,6.9500410556793,5,versionA_stim.csv,JOLVersionA.csv,"JOL Version A","Dissertation, JOL version A",SHEARS,SCISSORS,Study2,F,112,97,JOL,User,-,"How likely are you to correctly recall the second item in the pair?|Type your response on a scale from 0-100 and then press Enter.",Study/JOL,"Study Phase2",6590,,,5017,5092,,,,10,1
w10033288,iyem373plc,Nick_Dissertation_EX1,1,211,2020-04-20T22:21:49-07:00,7.7892210483551,5,versionA_stim.csv,JOLVersionA.csv,"JOL Version A","Dissertation, JOL version A",DINE,EAT,Study2,F,111,110,JOL,User,-,"How likely are you to correctly recall the second item in the pair?|Type your response on a scale from 0-100 and then press Enter.",Study/JOL,"Study Phase2",7399,,,3274,6270,,,,10,1
w10033288,iyem373plc,Nick_Dissertation_EX1,1,212,2020-04-20T22:21:54-07:00,4.5797650814056,5,versionA_stim.csv,JOLVersionA.csv,"JOL Version A","Dissertation, JOL version A",FISH,SARDINE,Study2,B,130,121,JOL,User,-,"How likely are you to correctly recall the second item in the pair?|Type your response on a scale from 0-100 and then press Enter.",Study/JOL,"Study Phase2",4213,,,3275,3395,,,,10,1
w10033288,iyem373plc,Nick_Dissertation_EX1,1,213,2020-04-20T22:22:00-07:00,5.7907648086548,5,versionA_stim.csv,JOLVersionA.csv,"JOL Version A","Dissertation, JOL version A",AFFECTION,LOVE,Study2,F,115,145,JOL,User,-,"How likely are you to correctly recall the second item in the pair?|Type your response on a scale from 0-100 and then press Enter.",Study/JOL,"Study Phase2",5328,,,1841,1979,,,,10,1
w10033288,iyem373plc,Nick_Dissertation_EX1,1,214,2020-04-20T22:22:05-07:00,5.7270500659943,5,versionA_stim.csv,JOLVersionA.csv,"JOL Version A","Dissertation, JOL version A",STAR,ACTRESS,Study2,B,120,143,JOL,User,-,"How likely are you to correctly recall the second item in the pair?|Type your response on a scale from 0-100 and then press Enter.",Study/JOL,"Study Phase2",5374,,,3636,3708,,,,10,1
w10033288,iyem373plc,Nick_Dissertation_EX1,1,215,2020-04-20T22:22:10-07:00,4.4980220794678,5,versionA_stim.csv,JOLVersionA.csv,"JOL Version A","Dissertation, JOL version A",FURRY,DOG,Study2,F,102,127,JOL,User,-,"How likely are you to correctly recall the second item in the pair?|Type your response on a scale from 0-100 and then press Enter.",Study/JOL,"Study Phase2",4127,,,1210,1250,,,,10,1
w10033288,iyem373plc,Nick_Dissertation_EX1,1,216,2020-04-20T22:22:15-07:00,5.3282468318939,5,versionA_stim.csv,JOLVersionA.csv,"JOL Version A","Dissertation, JOL version A",LOUD,NOISE,Study2,S,152,169,JOL,User,-,"How likely are you to correctly recall the second item in the pair?|Type your response on a scale from 0-100 and then press Enter.",Study/JOL,"Study Phase2",4981,,,4462,4582,,,,10,1
w10033288,iyem373plc,Nick_Dissertation_EX1,1,217,2020-04-20T22:22:17-07:00,1.719799041748,5,versionA_stim.csv,JOLVersionA.csv,"JOL Version A","Dissertation, JOL version A",OWN,HAVE,Study2,S,153,159,JOL,User,-,"How likely are you to correctly recall the second item in the pair?|Type your response on a scale from 0-100 and then press Enter.",Study/JOL,"Study Phase2",1410,,,966,1046,,,,10,1
w10033288,iyem373plc,Nick_Dissertation_EX1,1,218,2020-04-20T22:22:58-07:00,40.609039068222,5,versionA_stim.csv,JOLVersionA.csv,"JOL Version A","Dissertation, JOL version A",DETECTIVE,MYSTERY,Study2,F,100,161,JOL,User,-,"How likely are you to correctly recall the second item in the pair?|Type your response on a scale from 0-100 and then press Enter.",Study/JOL,"Study Phase2",8212,,,4666,4844,,,,10,0.976
w10033288,iyem373plc,Nick_Dissertation_EX1,1,219,2020-04-20T22:23:07-07:00,9.6791019439697,5,versionA_stim.csv,JOLVersionA.csv,"JOL Version A","Dissertation, JOL version A",EVEN,REVENGE,Study2,B,122,118,JOL,User,-,"How likely are you to correctly recall the second item in the pair?|Type your response on a scale from 0-100 and then press Enter.",Study/JOL,"Study Phase2",9291,,,6966,7868,,,,10,1
w10033288,iyem373plc,Nick_Dissertation_EX1,1,220,2020-04-20T22:23:14-07:00,6.6905660629272,5,versionA_stim.csv,JOLVersionA.csv,"JOL Version A","Dissertation, JOL version A",CRACKLE,ABLE,Study2,U,162,146,JOL,User,-,"How likely are you to correctly recall the second item in the pair?|Type your response on a scale from 0-100 and then press Enter.",Study/JOL,"Study Phase2",6319,,,5319,5390,,,,10,1
w10033288,iyem373plc,Nick_Dissertation_EX1,1,221,2020-04-20T22:23:24-07:00,10.148605108261,5,versionA_stim.csv,JOLVersionA.csv,"JOL Version A","Dissertation, JOL version A",MOAT,CLEAR,Study2,U,169,158,JOL,User,-,"How likely are you to correctly recall the second item in the pair?|Type your response on a scale from 0-100 and then press Enter.",Study/JOL,"Study Phase2",9791,,,894,980,,,,10,1
w10033288,iyem373plc,Nick_Dissertation_EX1,1,222,2020-04-20T22:23:34-07:00,9.8560748100281,5,versionA_stim.csv,JOLVersionA.csv,"JOL Version A","Dissertation, JOL version A",CACTUS,PLANT,Study2,F,98,126,JOL,User,-,"How likely are you to correctly recall the second item in the pair?|Type your response on a scale from 0-100 and then press Enter.",Study/JOL,"Study Phase2",8642,,,3944,6474,,,,10,1
w10033288,iyem373plc,Nick_Dissertation_EX1,1,223,2020-04-20T22:23:50-07:00,15.982133150101,5,versionA_stim.csv,JOLVersionA.csv,"JOL Version A","Dissertation, JOL version A",JUSTICE,MAROON,Study2,U,156,171,JOL,User,-,"How likely are you to correctly recall the second item in the pair?|Type your response on a scale from 0-100 and then press Enter.",Study/JOL,"Study Phase2",7818,,,5900,5995,,,,10,1
w10033288,iyem373plc,Nick_Dissertation_EX1,1,224,2020-04-20T22:24:06-07:00,16.01699590683,5,versionA_stim.csv,JOLVersionA.csv,"JOL Version A","Dissertation, JOL version A",POP,BALLOON,Study2,B,123,150,JOL,User,-,"How likely are you to correctly recall the second item in the pair?|Type your response on a scale from 0-100 and then press Enter.",Study/JOL,"Study Phase2",6343,,,2548,2710,,,,10,0.969
w10033288,iyem373plc,Nick_Dissertation_EX1,1,225,2020-04-20T22:24:12-07:00,6.3255131244659,5,versionA_stim.csv,JOLVersionA.csv,"JOL Version A","Dissertation, JOL version A",TURN,FLIP,Study2,B,116,122,JOL,User,-,"How likely are you to correctly recall the second item in the pair?|Type your response on a scale from 0-100 and then press Enter.",Study/JOL,"Study Phase2",5927,,,4300,4411,,,,10,1
w10033288,iyem373plc,Nick_Dissertation_EX1,1,226,2020-04-20T22:24:15-07:00,3.0134170055389,5,versionA_stim.csv,JOLVersionA.csv,"JOL Version A","Dissertation, JOL version A",SUN,TAN,Study2,S,155,124,JOL,User,-,"How likely are you to correctly recall the second item in the pair?|Type your response on a scale from 0-100 and then press Enter.",Study/JOL,"Study Phase2",2655,,,1388,1484,,,,10,1
w10033288,iyem373plc,Nick_Dissertation_EX1,1,227,2020-04-20T22:24:23-07:00,7.7994918823242,5,versionA_stim.csv,JOLVersionA.csv,"JOL Version A","Dissertation, JOL version A",LOAN,SIGN,Study2,U,171,174,JOL,User,-,"How likely are you to correctly recall the second item in the pair?|Type your response on a scale from 0-100 and then press Enter.",Study/JOL,"Study Phase2",7446,,,4297,4576,,,,10,1
w10033288,iyem373plc,Nick_Dissertation_EX1,1,228,2020-04-20T22:24:29-07:00,6.0824749469757,5,versionA_stim.csv,JOLVersionA.csv,"JOL Version A","Dissertation, JOL version A",MULE,DONKEY,Study2,F,108,131,JOL,User,-,"How likely are you to correctly recall the second item in the pair?|Type your response on a scale from 0-100 and then press Enter.",Study/JOL,"Study Phase2",5719,,,1354,1465,,,,10,1
w10033288,iyem373plc,Nick_Dissertation_EX1,1,229,2020-04-20T22:24:44-07:00,14.679836988449,5,versionA_stim.csv,JOLVersionA.csv,"JOL Version A","Dissertation, JOL version A",STRETCH,CLOTH,Study2,U,157,104,JOL,User,-,"How likely are you to correctly recall the second item in the pair?|Type your response on a scale from 0-100 and then press Enter.",Study/JOL,"Study Phase2",5841,,,1640,1756,,,,10,0.967
w10033288,iyem373plc,Nick_Dissertation_EX1,1,230,2020-04-20T22:25:06-07:00,22.141174077988,5,versionA_stim.csv,JOLVersionA.csv,"JOL Version A","Dissertation, JOL version A",GLASS,BREAKABLE,Study2,B,127,166,JOL,User,-,"How likely are you to correctly recall the second item in the pair?|Type your response on a scale from 0-100 and then press Enter.",Study/JOL,"Study Phase2",20801,,,1256,2249,,,,10,1
w10033288,iyem373plc,Nick_Dissertation_EX1,1,231,2020-04-20T22:25:19-07:00,12.71034693718,5,versionA_stim.csv,JOLVersionA.csv,"JOL Version A","Dissertation, JOL version A",MEAT,OBTAIN,Study2,U,161,156,JOL,User,-,"How likely are you to correctly recall the second item in the pair?|Type your response on a scale from 0-100 and then press Enter.",Study/JOL,"Study Phase2",12340,,,6279,6314,,,,10,1
w10033288,iyem373plc,Nick_Dissertation_EX1,1,232,2020-04-20T22:25:29-07:00,10.09193110466,5,versionA_stim.csv,JOLVersionA.csv,"JOL Version A","Dissertation, JOL version A",ELEMENT,CARBON,Study2,S,141,111,JOL,User,-,"How likely are you to correctly recall the second item in the pair?|Type your response on a scale from 0-100 and then press Enter.",Study/JOL,"Study Phase2",9720,,,4310,5474,,,,10,1
w10033288,iyem373plc,Nick_Dissertation_EX1,1,233,2020-04-20T22:25:51-07:00,22.465862035751,5,versionA_stim.csv,JOLVersionA.csv,"JOL Version A","Dissertation, JOL version A",DRY,WET,Study2,S,146,141,JOL,User,-,"How likely are you to correctly recall the second item in the pair?|Type your response on a scale from 0-100 and then press Enter.",Study/JOL,"Study Phase2",3763,,,2171,2267,,,,10,0.947
w10033288,iyem373plc,Nick_Dissertation_EX1,1,234,2020-04-20T22:26:01-07:00,9.8184030056,5,versionA_stim.csv,JOLVersionA.csv,"JOL Version A","Dissertation, JOL version A",INCENSE,SMELL,Study2,F,110,164,JOL,User,-,"How likely are you to correctly recall the second item in the pair?|Type your response on a scale from 0-100 and then press Enter.",Study/JOL,"Study Phase2",9431,,,6241,6241,,,,5,1
w10033288,iyem373plc,Nick_Dissertation_EX1,1,235,2020-04-20T22:26:11-07:00,9.8280789852142,5,versionA_stim.csv,JOLVersionA.csv,"JOL Version A","Dissertation, JOL version A",SHOELACE,TIE,Study2,F,99,147,JOL,User,-,"How likely are you to correctly recall the second item in the pair?|Type your response on a scale from 0-100 and then press Enter.",Study/JOL,"Study Phase2",9448,,,5823,5942,,,,10,1
w10033288,iyem373plc,Nick_Dissertation_EX1,1,236,2020-04-20T22:26:18-07:00,6.63130402565,5,versionA_stim.csv,JOLVersionA.csv,"JOL Version A","Dissertation, JOL version A",RAZOR,SHAVE,Study2,S,136,114,JOL,User,-,"How likely are you to correctly recall the second item in the pair?|Type your response on a scale from 0-100 and then press Enter.",Study/JOL,"Study Phase2",6275,,,1826,1914,,,,10,1
w10033288,iyem373plc,Nick_Dissertation_EX1,1,237,2020-04-20T22:26:24-07:00,6.8267798423767,5,versionA_stim.csv,JOLVersionA.csv,"JOL Version A","Dissertation, JOL version A",TANTRUM,TEMPER,Study2,S,154,152,JOL,User,-,"How likely are you to correctly recall the second item in the pair?|Type your response on a scale from 0-100 and then press Enter.",Study/JOL,"Study Phase2",6456,,,1257,1372,,,,10,1
w10033288,iyem373plc,Nick_Dissertation_EX1,1,238,2020-04-20T22:26:30-07:00,5.9080710411072,5,versionA_stim.csv,JOLVersionA.csv,"JOL Version A","Dissertation, JOL version A",KEYS,JOKE,Study2,U,165,170,JOL,User,-,"How likely are you to correctly recall the second item in the pair?|Type your response on a scale from 0-100 and then press Enter.",Study/JOL,"Study Phase2",5553,,,3899,4006,,,,10,1
w10033288,iyem373plc,Nick_Dissertation_EX1,1,239,2020-04-20T22:26:58-07:00,28.147952079773,5,versionA_stim.csv,JOLVersionA.csv,"JOL Version A","Dissertation, JOL version A",BOTH,OUNCE,Study2,U,172,130,JOL,User,-,"How likely are you to correctly recall the second item in the pair?|Type your response on a scale from 0-100 and then press Enter.",Study/JOL,"Study Phase2",11019,,,1503,1559,,,,10,0.982
w10033288,iyem373plc,Nick_Dissertation_EX1,1,240,2020-04-20T22:28:04-07:00,65.260830879211,5,versionA_stim.csv,JOLVersionA.csv,"JOL Version A","Dissertation, JOL version A",CAR,WINDSHIELD,Study2,B,117,113,JOL,User,-,"How likely are you to correctly recall the second item in the pair?|Type your response on a scale from 0-100 and then press Enter.",Study/JOL,"Study Phase2",64844,,,63492,63643,,,,10,1
w10033288,iyem373plc,Nick_Dissertation_EX1,1,241,2020-04-20T22:28:12-07:00,8.0534000396729,5,versionA_stim.csv,JOLVersionA.csv,"JOL Version A","Dissertation, JOL version A",CAKE,CLOTHES,Study2,U,166,107,JOL,User,-,"How likely are you to correctly recall the second item in the pair?|Type your response on a scale from 0-100 and then press Enter.",Study/JOL,"Study Phase2",7614,,,1573,5692,,,,10,1
w10033288,iyem373plc,Nick_Dissertation_EX1,1,242,2020-04-20T22:28:26-07:00,13.807677984238,5,versionA_stim.csv,JOLVersionA.csv,"JOL Version A","Dissertation, JOL version A",LITTER,TRASH,Study2,F,103,119,JOL,User,-,"How likely are you to correctly recall the second item in the pair?|Type your response on a scale from 0-100 and then press Enter.",Study/JOL,"Study Phase2",5678,,,1985,2103,,,,10,0.966
w10033288,iyem373plc,Nick_Dissertation_EX1,1,243,2020-04-20T22:28:36-07:00,10.15277504921,5,versionA_stim.csv,JOLVersionA.csv,"JOL Version A","Dissertation, JOL version A",SAFETY,SEATBELT,Study2,S,147,115,JOL,User,-,"How likely are you to correctly recall the second item in the pair?|Type your response on a scale from 0-100 and then press Enter.",Study/JOL,"Study Phase2",9782,,,1852,1920,,,,10,1
w10033288,iyem373plc,Nick_Dissertation_EX1,1,244,2020-04-20T22:28:42-07:00,6.6266548633575,5,versionA_stim.csv,JOLVersionA.csv,"JOL Version A","Dissertation, JOL version A",MONEY,BANKER,Study2,B,132,155,JOL,User,-,"How likely are you to correctly recall the second item in the pair?|Type your response on a scale from 0-100 and then press Enter.",Study/JOL,"Study Phase2",6240,,,3195,3287,,,,10,1
w10033288,iyem373plc,Nick_Dissertation_EX1,1,245,2020-04-20T22:28:52-07:00,9.2429401874542,5,versionA_stim.csv,JOLVersionA.csv,"JOL Version A","Dissertation, JOL version A",MAZE,ELECTION,Study2,U,159,129,JOL,User,-,"How likely are you to correctly recall the second item in the pair?|Type your response on a scale from 0-100 and then press Enter.",Study/JOL,"Study Phase2",8879,,,1086,1127,,,,10,1
w10033288,iyem373plc,Nick_Dissertation_EX1,1,246,2020-04-20T22:29:02-07:00,10.001101970673,5,versionA_stim.csv,JOLVersionA.csv,"JOL Version A","Dissertation, JOL version A",FLEA,TICK,Study2,S,151,138,JOL,User,-,"How likely are you to correctly recall the second item in the pair?|Type your response on a scale from 0-100 and then press Enter.",Study/JOL,"Study Phase2",9610,,,4704,4812,,,,10,1
w10033288,iyem373plc,Nick_Dissertation_EX1,1,247,2020-04-20T22:29:11-07:00,9.1058480739594,5,versionA_stim.csv,JOLVersionA.csv,"JOL Version A","Dissertation, JOL version A",FIGHT,BRAWL,Study2,B,135,167,JOL,User,-,"How likely are you to correctly recall the second item in the pair?|Type your response on a scale from 0-100 and then press Enter.",Study/JOL,"Study Phase2",8690,,,6189,6248,,,,10,1
w10033288,iyem373plc,Nick_Dissertation_EX1,1,248,2020-04-20T22:29:28-07:00,17.468737840652,5,versionA_stim.csv,JOLVersionA.csv,"JOL Version A","Dissertation, JOL version A",CAT,PANTHER,Study2,B,126,100,JOL,User,-,"How likely are you to correctly recall the second item in the pair?|Type your response on a scale from 0-100 and then press Enter.",Study/JOL,"Study Phase2",7362,,,4320,4435,,,,10,0.973
w10033288,iyem373plc,Nick_Dissertation_EX1,1,249,2020-04-20T22:29:37-07:00,8.8208160400391,5,versionA_stim.csv,JOLVersionA.csv,"JOL Version A","Dissertation, JOL version A",ROD,REEL,Study2,S,150,148,JOL,User,-,"How likely are you to correctly recall the second item in the pair?|Type your response on a scale from 0-100 and then press Enter.",Study/JOL,"Study Phase2",8355,,,1315,1359,,,,10,1
w10033288,iyem373plc,Nick_Dissertation_EX1,1,250,2020-04-20T22:29:48-07:00,11.326179027557,5,versionA_stim.csv,JOLVersionA.csv,"JOL Version A","Dissertation, JOL version A",TEMPERATURE,Morning,Study2,U,173,149,JOL,User,-,"How likely are you to correctly recall the second item in the pair?|Type your response on a scale from 0-100 and then press Enter.",Study/JOL,"Study Phase2",10640,,,2430,2537,,,,10,1
w10033288,iyem373plc,Nick_Dissertation_EX1,1,251,2020-04-20T22:29:56-07:00,7.8334739208221,5,versionA_stim.csv,JOLVersionA.csv,"JOL Version A","Dissertation, JOL version A",WRIST,BRACELET,Study2,S,140,132,JOL,User,-,"How likely are you to correctly recall the second item in the pair?|Type your response on a scale from 0-100 and then press Enter.",Study/JOL,"Study Phase2",7449,,,1528,1561,,,,10,1
w10033288,iyem373plc,Nick_Dissertation_EX1,1,252,2020-04-20T22:30:05-07:00,8.9496150016785,5,versionA_stim.csv,JOLVersionA.csv,"JOL Version A","Dissertation, JOL version A",SLEEP,NAP,Study2,B,134,139,JOL,User,-,"How likely are you to correctly recall the second item in the pair?|Type your response on a scale from 0-100 and then press Enter.",Study/JOL,"Study Phase2",8550,,,1852,1860,,,,10,1
w10033288,iyem373plc,Nick_Dissertation_EX1,1,253,2020-04-20T22:30:29-07:00,24.017603158951,5,versionA_stim.csv,JOLVersionA.csv,"JOL Version A","Dissertation, JOL version A",DRIVER,CAR,Study2,F,106,108,JOL,User,-,"How likely are you to correctly recall the second item in the pair?|Type your response on a scale from 0-100 and then press Enter.",Study/JOL,"Study Phase2",15324,,,12630,14169,,,,10,0.987
w10033288,iyem373plc,Nick_Dissertation_EX1,1,254,2020-04-20T22:30:36-07:00,6.7233169078827,5,versionA_stim.csv,JOLVersionA.csv,"JOL Version A","Dissertation, JOL version A",DOCUMENT,PAPER,Study2,F,109,117,JOL,User,-,"How likely are you to correctly recall the second item in the pair?|Type your response on a scale from 0-100 and then press Enter.",Study/JOL,"Study Phase2",6147,,,4768,4940,,,,10,1
w10033288,iyem373plc,Nick_Dissertation_EX1,1,255,2020-04-20T22:30:45-07:00,8.8254408836365,5,versionA_stim.csv,JOLVersionA.csv,"JOL Version A","Dissertation, JOL version A",BASEBALL,LEAGUE,Study2,B,131,103,JOL,User,-,"How likely are you to correctly recall the second item in the pair?|Type your response on a scale from 0-100 and then press Enter.",Study/JOL,"Study Phase2",8416,,,4605,4701,,,,10,1
w10033288,iyem373plc,Nick_Dissertation_EX1,1,256,2020-04-20T22:31:01-07:00,16.527440071106,5,versionA_stim.csv,JOLVersionA.csv,"JOL Version A","Dissertation, JOL version A",GIVE,STEAK,Study2,U,158,154,JOL,User,-,"How likely are you to correctly recall the second item in the pair?|Type your response on a scale from 0-100 and then press Enter.",Study/JOL,"Study Phase2",6662,,,2586,2721,,,,10,0.971
w10033288,iyem373plc,Nick_Dissertation_EX1,1,257,2020-04-20T22:31:11-07:00,9.4405241012573,5,versionA_stim.csv,JOLVersionA.csv,"JOL Version A","Dissertation, JOL version A",GONE,AWAY,Study2,S,142,133,JOL,User,-,"How likely are you to correctly recall the second item in the pair?|Type your response on a scale from 0-100 and then press Enter.",Study/JOL,"Study Phase2",9046,,,2470,2570,,,,10,1
w10033288,iyem373plc,Nick_Dissertation_EX1,1,258,2020-04-20T22:31:22-07:00,10.961578845978,5,versionA_stim.csv,JOLVersionA.csv,"JOL Version A","Dissertation, JOL version A",LISTEN,FICTION,Study2,U,164,140,JOL,User,-,"How likely are you to correctly recall the second item in the pair?|Type your response on a scale from 0-100 and then press Enter.",Study/JOL,"Study Phase2",10582,,,1578,1661,,,,10,1
w10033288,iyem373plc,Nick_Dissertation_EX1,1,259,2020-04-20T22:31:30-07:00,8.104964017868,5,versionA_stim.csv,JOLVersionA.csv,"JOL Version A","Dissertation, JOL version A",WATER,DRINK,Study2,S,143,176,JOL,User,-,"How likely are you to correctly recall the second item in the pair?|Type your response on a scale from 0-100 and then press Enter.",Study/JOL,"Study Phase2",6776,,,1573,1733,,,,10,1
w10033288,iyem373plc,Nick_Dissertation_EX1,1,260,2020-04-20T22:31:37-07:00,7.7718889713287,5,versionA_stim.csv,JOLVersionA.csv,"JOL Version A","Dissertation, JOL version A",LEASE,TOIL,Study2,U,170,160,JOL,User,-,"How likely are you to correctly recall the second item in the pair?|Type your response on a scale from 0-100 and then press Enter.",Study/JOL,"Study Phase2",7310,,,1778,1837,,,,10,1
w10033288,iyem373plc,Nick_Dissertation_EX1,1,261,2020-04-20T22:31:51-07:00,13.443544149399,5,versionA_stim.csv,JOLVersionA.csv,"JOL Version A","Dissertation, JOL version A",CLUE,GAME,Study2,F,97,157,JOL,User,-,"How likely are you to correctly recall the second item in the pair?|Type your response on a scale from 0-100 and then press Enter.",Study/JOL,"Study Phase2",13081,,,2243,2327,,,,10,1
w10033288,iyem373plc,Nick_Dissertation_EX1,1,262,2020-04-20T22:31:59-07:00,7.8910539150238,5,versionA_stim.csv,JOLVersionA.csv,"JOL Version A","Dissertation, JOL version A",HONEST,TRUTHFUL,Study2,B,133,134,JOL,User,-,"How likely are you to correctly recall the second item in the pair?|Type your response on a scale from 0-100 and then press Enter.",Study/JOL,"Study Phase2",7505,,,1700,1796,,,,10,1
w10033288,iyem373plc,Nick_Dissertation_EX1,1,263,2020-04-20T22:32:10-07:00,11.632705926895,5,versionA_stim.csv,JOLVersionA.csv,"JOL Version A","Dissertation, JOL version A",PHONE,COMMUNICATION,Study2,S,149,163,JOL,User,-,"How likely are you to correctly recall the second item in the pair?|Type your response on a scale from 0-100 and then press Enter.",Study/JOL,"Study Phase2",11256,,,1764,1860,,,,10,1
w10033288,iyem373plc,Nick_Dissertation_EX1,1,264,2020-04-20T22:32:18-07:00,7.5877311229706,5,versionA_stim.csv,JOLVersionA.csv,"JOL Version A","Dissertation, JOL version A",CANDLE,WAX,Study2,S,139,142,JOL,User,-,"How likely are you to correctly recall the second item in the pair?|Type your response on a scale from 0-100 and then press Enter.",Study/JOL,"Study Phase2",7210,,,1335,2228,,,,10,1
w10033288,iyem373plc,Nick_Dissertation_EX1,1,265,2020-04-20T22:32:34-07:00,15.930196046829,5,versionA_stim.csv,JOLVersionA.csv,"JOL Version A","Dissertation, JOL version A",EARTH,GROUND,Study2,S,144,175,JOL,User,-,"How likely are you to correctly recall the second item in the pair?|Type your response on a scale from 0-100 and then press Enter.",Study/JOL,"Study Phase2",7167,,,2366,2425,,,,10,0.972
w10033288,iyem373plc,Nick_Dissertation_EX1,1,266,2020-04-20T22:32:50-07:00,15.739426851273,5,versionA_stim.csv,JOLVersionA.csv,"JOL Version A","Dissertation, JOL version A",BIRD,PENGUIN,Study2,B,119,162,JOL,User,-,"How likely are you to correctly recall the second item in the pair?|Type your response on a scale from 0-100 and then press Enter.",Study/JOL,"Study Phase2",15369,,,5137,5264,,,,10,1
w10033288,iyem373plc,Nick_Dissertation_EX1,1,267,2020-04-20T22:32:59-07:00,9.5847270488739,5,versionA_stim.csv,JOLVersionA.csv,"JOL Version A","Dissertation, JOL version A",MONTH,YEAR,BUFFER4,Buffer,177,179,JOL,User,-,"How likely are you to correctly recall the second item in the pair?|Type your response on a scale from 0-100 and then press Enter.",Study/JOL,BUFFER4,9218,,,5427,5546,,,,20,1
w10033288,iyem373plc,Nick_Dissertation_EX1,1,268,2020-04-20T22:33:08-07:00,9.2379629611969,5,versionA_stim.csv,JOLVersionA.csv,"JOL Version A","Dissertation, JOL version A",SPRING,MARCH,BUFFER4,Buffer,179,180,JOL,User,-,"How likely are you to correctly recall the second item in the pair?|Type your response on a scale from 0-100 and then press Enter.",Study/JOL,BUFFER4,8876,,,5129,5253,,,,10,1
w10033288,iyem373plc,Nick_Dissertation_EX1,1,269,2020-04-20T22:33:35-07:00,26.8648250103,5,versionA_stim.csv,JOLVersionA.csv,"JOL Version A","Dissertation, JOL version A",DAYS,WEAKS,BUFFER4,Buffer,176,181,JOL,User,-,"How likely are you to correctly recall the second item in the pair?|Type your response on a scale from 0-100 and then press Enter.",Study/JOL,BUFFER4,6946,,,2001,4841,,,,10,0.971
w10033288,iyem373plc,Nick_Dissertation_EX1,1,270,2020-04-20T22:33:43-07:00,7.9574100971222,5,versionA_stim.csv,JOLVersionA.csv,"JOL Version A","Dissertation, JOL version A",TOOL,SHED,BUFFER4,Buffer,178,178,JOL,User,-,"How likely are you to correctly recall the second item in the pair?|Type your response on a scale from 0-100 and then press Enter.",Study/JOL,BUFFER4,7547,,,1604,2848,,,,10,1
w10033288,iyem373plc,Nick_Dissertation_EX1,1,271,2020-04-20T22:33:54-07:00,10.678730010986,5,versionA_stim.csv,JOLVersionA.csv,"JOL Version A","Dissertation, JOL version A",OCTOBER,SPOOKY,BUFFER4,Buffer,180,177,JOL,User,-,"How likely are you to correctly recall the second item in the pair?|Type your response on a scale from 0-100 and then press Enter.",Study/JOL,BUFFER4,8156,,,1463,1547,,,,10,1
w10033288,iyem373plc,Nick_Dissertation_EX1,1,272,2020-04-20T22:35:01-07:00,66.585916996002,5,versionA_stim.csv,JOLVersionA.csv,"JOL Version A","Dissertation, JOL version A",,,,,,0,Instruct,User,-,"You have completed this section. Please press Enter.",Filler_Instruction,Instruct5,61153,,,-1,-1,,,,,0.996
w10033288,iyem373plc,Nick_Dissertation_EX1,1,273,2020-04-20T22:37:01-07:00,120.64705586433,5,versionA_stim.csv,JOLVersionA.csv,"JOL Version A","Dissertation, JOL version A",,,,,,0,FreeRecall,120,120,"Please list the 50 US states in reverse alphabetical order (z - a). The task will automatically advance to the next screen after two minutes.",,Filler2,120001,"WY WI WV WA VT UT TX TN SD SC RI PA OR OK OH ND NC NY NM NJ NH NV NE MT MO MS MN MI MA MD ME LA KY KS IA IN IL ID HI GA FL DE CT C ",0,13028,119973,0,0,,,1
w10033288,iyem373plc,Nick_Dissertation_EX1,1,274,2020-04-20T22:37:13-07:00,11.798943996429,5,versionA_stim.csv,JOLVersionA.csv,"JOL Version A","Dissertation, JOL version A",,,,,,0,Instruct,-,10,"You will now be presented with the first word from each of the previously studied item pairs. Please type the missing word. If you do not know the word, you may guess or press Enter to skip forward to the next pair.",,Instruct6,11359,,,-1,-1,,,,,1
w10033288,iyem373plc,Nick_Dissertation_EX1,1,275,2020-04-20T22:38:30-07:00,76.995143175125,5,versionA_stim.csv,JOLVersionA.csv,"JOL Version A","Dissertation, JOL version A",RIGHTS,EQUAL,Study2,S,137,173,Test,User,-,,Recall,Recall2,75754,LEGAL,60,73554,74302,0,0,,,1
w10033288,iyem373plc,Nick_Dissertation_EX1,1,276,2020-04-20T22:38:45-07:00,14.651332855225,5,versionA_stim.csv,JOLVersionA.csv,"JOL Version A","Dissertation, JOL version A",ADJOURN,END,Study2,F,101,109,Test,User,-,,Recall,Recall2,6903,LEGAL,25,1458,4086,0,0,,,0.971
w10033288,iyem373plc,Nick_Dissertation_EX1,1,277,2020-04-20T22:38:57-07:00,12.29599905014,5,versionA_stim.csv,JOLVersionA.csv,"JOL Version A","Dissertation, JOL version A",CAR,WINDSHIELD,Study2,B,117,113,Test,User,-,,Recall,Recall2,11922,DRIVER,37.5,8242,9298,0,0,,,1
w10033288,iyem373plc,Nick_Dissertation_EX1,1,278,2020-04-20T22:39:19-07:00,21.660370111465,5,versionA_stim.csv,JOLVersionA.csv,"JOL Version A","Dissertation, JOL version A",DRY,WET,Study2,S,146,141,Test,User,-,,Recall,Recall2,21292,WET,100,3397,3704,1,1,,,1
w10033288,iyem373plc,Nick_Dissertation_EX1,1,279,2020-04-20T22:39:27-07:00,8.430205821991,5,versionA_stim.csv,JOLVersionA.csv,"JOL Version A","Dissertation, JOL version A",CACTUS,PLANT,Study2,F,98,126,Test,User,-,,Recall,Recall2,8064,PLANT,100,2514,5499,1,1,,,1
w10033288,iyem373plc,Nick_Dissertation_EX1,1,280,2020-04-20T22:39:42-07:00,14.706923007965,5,versionA_stim.csv,JOLVersionA.csv,"JOL Version A","Dissertation, JOL version A",LITTER,TRASH,Study2,F,103,119,Test,User,-,,Recall,Recall2,4826,TRASH,100,3000,3990,1,1,,,0.96
