Username,ID,ExperimentName,Session,Trial,Date,TimeDif,"Condition Number","Stimuli File","Order File","Condition Description","Condition Notes",Stimuli*Cue,Stimuli*Answer,Stimuli*Shuffle,"Stimuli*Stimuli Notes",Stimuli*Value,Procedure*Item,"Procedure*Trial Type","Procedure*Max Time","Procedure*Min Time",Procedure*Text,"Procedure*Procedure Notes",Procedure*Shuffle,Response*RT,Response*Response,Response*Accuracy,Response*RTfirst,Response*RTlast,Response*strictAcc,Response*lenientAcc,Response*focus,Response*JOL,Response*Focus
w10042962_jkc,e0fo9w68fu,Nick_Dissertation_EX1,1,1,2020-04-24T16:19:20-07:00,7.9223649501801,5,versionA_stim.csv,JOLVersionA.csv,"JOL Version A","Dissertation, JOL version A",,,,,,0,Instruct,-,5,"In this section, you will be presented with a series of word pairs.",Initial_Instruct,Instruct1,7528,,,-1,-1,,,,,1
w10042962_jkc,e0fo9w68fu,Nick_Dissertation_EX1,1,2,2020-04-24T16:19:37-07:00,17.193935155869,5,versionA_stim.csv,JOLVersionA.csv,"JOL Version A","Dissertation, JOL version A",,,,,,0,Instruct,-,10,"As you study, you will be asked to rate your ability to remember the second item in the pair if you were only shown the first at test. You will make these ratings using a 0 to 100 Scale.",,Instruct13,16728,,,-1,-1,,,,,1
w10042962_jkc,e0fo9w68fu,Nick_Dissertation_EX1,1,3,2020-04-24T16:19:53-07:00,15.779428005219,5,versionA_stim.csv,JOLVersionA.csv,"JOL Version A","Dissertation, JOL version A",,,,,,0,Instruct,-,10,"For example, if you are given the pair CAT - DOG, a rating of 0 indicates that you would not remember DOG at test, while a rating of 100 indicates full certainty that you would remember the word DOG at test.",,Instruct14,15304,,,-1,-1,,,,,1
w10042962_jkc,e0fo9w68fu,Nick_Dissertation_EX1,1,4,2020-04-24T16:20:04-07:00,11.266342878342,5,versionA_stim.csv,JOLVersionA.csv,"JOL Version A","Dissertation, JOL version A",,,,,,0,Instruct,-,10,"When making your ratings, it is criticial that you use the full range of the scale. You will be disqualified for only giving ratings of 0 or 100! After making your rating, press Enter to advance to the next pair.",,Instruct15,10763,,,-1,-1,,,,,1
w10042962_jkc,e0fo9w68fu,Nick_Dissertation_EX1,1,5,2020-04-24T16:20:10-07:00,6.2217490673065,5,versionA_stim.csv,JOLVersionA.csv,"JOL Version A","Dissertation, JOL version A",,,,,,0,Instruct,User,-,"You will now begin the study. Press Enter when you are ready to begin.",,Instruct16,5839,,,-1,-1,,,,,1
w10042962_jkc,e0fo9w68fu,Nick_Dissertation_EX1,1,6,2020-04-24T16:20:28-07:00,17.615140914917,5,versionA_stim.csv,JOLVersionA.csv,"JOL Version A","Dissertation, JOL version A",TREES,GREEN,BUFFER1,Buffer,1,2,JOL,User,-,"How likely are you to correctly recall the second item in the pair?|Type your response on a scale from 0-100 and then press Enter.",Study/JOL,BUFFER,17043,,,10220,10417,,,,99,1
w10042962_jkc,e0fo9w68fu,Nick_Dissertation_EX1,1,7,2020-04-24T16:20:37-07:00,9.605700969696,5,versionA_stim.csv,JOLVersionA.csv,"JOL Version A","Dissertation, JOL version A",PEANUT,BUTTER,BUFFER1,Buffer,3,4,JOL,User,-,"How likely are you to correctly recall the second item in the pair?|Type your response on a scale from 0-100 and then press Enter.",Study/JOL,BUFFER,9116,,,7119,8049,,,,98,1
w10042962_jkc,e0fo9w68fu,Nick_Dissertation_EX1,1,8,2020-04-24T16:20:42-07:00,5.2213139533997,5,versionA_stim.csv,JOLVersionA.csv,"JOL Version A","Dissertation, JOL version A",SPACE,JAM,BUFFER1,Buffer,5,6,JOL,User,-,"How likely are you to correctly recall the second item in the pair?|Type your response on a scale from 0-100 and then press Enter.",Study/JOL,BUFFER,4737,,,3476,3784,,,,100,1
w10042962_jkc,e0fo9w68fu,Nick_Dissertation_EX1,1,9,2020-04-24T16:20:47-07:00,4.4482810497284,5,versionA_stim.csv,JOLVersionA.csv,"JOL Version A","Dissertation, JOL version A",SCARE,HIDE,BUFFER1,Buffer,4,5,JOL,User,-,"How likely are you to correctly recall the second item in the pair?|Type your response on a scale from 0-100 and then press Enter.",Study/JOL,BUFFER,4031,,,2983,3137,,,,50,1
w10042962_jkc,e0fo9w68fu,Nick_Dissertation_EX1,1,10,2020-04-24T16:20:52-07:00,4.9525771141052,5,versionA_stim.csv,JOLVersionA.csv,"JOL Version A","Dissertation, JOL version A",BASEBALL,CATCHER,BUFFER1,Buffer,2,3,JOL,User,-,"How likely are you to correctly recall the second item in the pair?|Type your response on a scale from 0-100 and then press Enter.",Study/JOL,BUFFER,4572,,,3514,3721,,,,50,1
w10042962_jkc,e0fo9w68fu,Nick_Dissertation_EX1,1,11,2020-04-24T16:20:56-07:00,4.367840051651,5,versionA_stim.csv,JOLVersionA.csv,"JOL Version A","Dissertation, JOL version A",GEOLOGY,ROCK,Study1,F,19,47,JOL,User,-,"How likely are you to correctly recall the second item in the pair?|Type your response on a scale from 0-100 and then press Enter.",Study/JOL,"Study Phase",4003,,,2691,3194,,,,95,1
w10042962_jkc,e0fo9w68fu,Nick_Dissertation_EX1,1,12,2020-04-24T16:21:01-07:00,4.3228359222412,5,versionA_stim.csv,JOLVersionA.csv,"JOL Version A","Dissertation, JOL version A",DUMP,WASTE,Study1,S,49,26,JOL,User,-,"How likely are you to correctly recall the second item in the pair?|Type your response on a scale from 0-100 and then press Enter.",Study/JOL,"Study Phase",3931,,,2766,3162,,,,75,1
w10042962_jkc,e0fo9w68fu,Nick_Dissertation_EX1,1,13,2020-04-24T16:21:09-07:00,7.9397399425507,5,versionA_stim.csv,JOLVersionA.csv,"JOL Version A","Dissertation, JOL version A",KING,VASE,Study1,U,85,8,JOL,User,-,"How likely are you to correctly recall the second item in the pair?|Type your response on a scale from 0-100 and then press Enter.",Study/JOL,"Study Phase",7494,,,4122,6545,,,,10,1
w10042962_jkc,e0fo9w68fu,Nick_Dissertation_EX1,1,14,2020-04-24T16:21:13-07:00,4.232901096344,5,versionA_stim.csv,JOLVersionA.csv,"JOL Version A","Dissertation, JOL version A",DRINK,SIP,Study1,B,27,61,JOL,User,-,"How likely are you to correctly recall the second item in the pair?|Type your response on a scale from 0-100 and then press Enter.",Study/JOL,"Study Phase",3680,,,2837,3085,,,,35,1
w10042962_jkc,e0fo9w68fu,Nick_Dissertation_EX1,1,15,2020-04-24T16:21:16-07:00,3.7165238857269,5,versionA_stim.csv,JOLVersionA.csv,"JOL Version A","Dissertation, JOL version A",ART,LION,Study1,U,79,30,JOL,User,-,"How likely are you to correctly recall the second item in the pair?|Type your response on a scale from 0-100 and then press Enter.",Study/JOL,"Study Phase",3342,,,2849,2849,,,,5,1
w10042962_jkc,e0fo9w68fu,Nick_Dissertation_EX1,1,16,2020-04-24T16:21:23-07:00,6.6858961582184,5,versionA_stim.csv,JOLVersionA.csv,"JOL Version A","Dissertation, JOL version A",BITTER,COLD,Study1,F,12,50,JOL,User,-,"How likely are you to correctly recall the second item in the pair?|Type your response on a scale from 0-100 and then press Enter.",Study/JOL,"Study Phase",6233,,,5065,5589,,,,75,1
w10042962_jkc,e0fo9w68fu,Nick_Dissertation_EX1,1,17,2020-04-24T16:21:28-07:00,5.106990814209,5,versionA_stim.csv,JOLVersionA.csv,"JOL Version A","Dissertation, JOL version A",HUNGER,FAMINE,Study1,B,40,40,JOL,User,-,"How likely are you to correctly recall the second item in the pair?|Type your response on a scale from 0-100 and then press Enter.",Study/JOL,"Study Phase",4714,,,3255,3362,,,,50,1
w10042962_jkc,e0fo9w68fu,Nick_Dissertation_EX1,1,18,2020-04-24T16:21:32-07:00,3.8731710910797,5,versionA_stim.csv,JOLVersionA.csv,"JOL Version A","Dissertation, JOL version A",HAPPY,CAR,Study1,U,77,79,JOL,User,-,"How likely are you to correctly recall the second item in the pair?|Type your response on a scale from 0-100 and then press Enter.",Study/JOL,"Study Phase",3469,,,2519,2706,,,,30,1
w10042962_jkc,e0fo9w68fu,Nick_Dissertation_EX1,1,19,2020-04-24T16:21:36-07:00,3.7516219615936,5,versionA_stim.csv,JOLVersionA.csv,"JOL Version A","Dissertation, JOL version A",PAW,DOG,Study1,F,15,32,JOL,User,-,"How likely are you to correctly recall the second item in the pair?|Type your response on a scale from 0-100 and then press Enter.",Study/JOL,"Study Phase",3317,,,2229,2467,,,,80,1
w10042962_jkc,e0fo9w68fu,Nick_Dissertation_EX1,1,20,2020-04-24T16:21:41-07:00,5.1947231292725,5,versionA_stim.csv,JOLVersionA.csv,"JOL Version A","Dissertation, JOL version A",PAST,FUTURE,Study1,S,61,35,JOL,User,-,"How likely are you to correctly recall the second item in the pair?|Type your response on a scale from 0-100 and then press Enter.",Study/JOL,"Study Phase",4751,,,3663,4098,,,,75,1
w10042962_jkc,e0fo9w68fu,Nick_Dissertation_EX1,1,21,2020-04-24T16:21:46-07:00,4.8094418048859,5,versionA_stim.csv,JOLVersionA.csv,"JOL Version A","Dissertation, JOL version A",BUG,WASP,Study1,B,32,11,JOL,User,-,"How likely are you to correctly recall the second item in the pair?|Type your response on a scale from 0-100 and then press Enter.",Study/JOL,"Study Phase",4428,,,3316,3510,,,,40,1
w10042962_jkc,e0fo9w68fu,Nick_Dissertation_EX1,1,22,2020-04-24T16:21:50-07:00,4.35178399086,5,versionA_stim.csv,JOLVersionA.csv,"JOL Version A","Dissertation, JOL version A",DISCUSSION,TALK,Study1,F,21,31,JOL,User,-,"How likely are you to correctly recall the second item in the pair?|Type your response on a scale from 0-100 and then press Enter.",Study/JOL,"Study Phase",3869,,,2637,2832,,,,90,1
w10042962_jkc,e0fo9w68fu,Nick_Dissertation_EX1,1,23,2020-04-24T16:21:56-07:00,5.4573969841003,5,versionA_stim.csv,JOLVersionA.csv,"JOL Version A","Dissertation, JOL version A",BALL,RACKET,Study1,B,38,39,JOL,User,-,"How likely are you to correctly recall the second item in the pair?|Type your response on a scale from 0-100 and then press Enter.",Study/JOL,"Study Phase",5026,,,3380,3723,,,,40,1
w10042962_jkc,e0fo9w68fu,Nick_Dissertation_EX1,1,24,2020-04-24T16:22:06-07:00,10.132088184357,5,versionA_stim.csv,JOLVersionA.csv,"JOL Version A","Dissertation, JOL version A",DEBATE,SIGHT,Study1,U,73,58,JOL,User,-,"How likely are you to correctly recall the second item in the pair?|Type your response on a scale from 0-100 and then press Enter.",Study/JOL,"Study Phase",9556,,,8032,8190,,,,10,1
w10042962_jkc,e0fo9w68fu,Nick_Dissertation_EX1,1,25,2020-04-24T16:22:10-07:00,4.1276638507843,5,versionA_stim.csv,JOLVersionA.csv,"JOL Version A","Dissertation, JOL version A",WINE,CHEESE,Study1,S,57,52,JOL,User,-,"How likely are you to correctly recall the second item in the pair?|Type your response on a scale from 0-100 and then press Enter.",Study/JOL,"Study Phase",3706,,,2528,2736,,,,90,1
w10042962_jkc,e0fo9w68fu,Nick_Dissertation_EX1,1,26,2020-04-24T16:22:15-07:00,4.7577481269836,5,versionA_stim.csv,JOLVersionA.csv,"JOL Version A","Dissertation, JOL version A",BRIDGE,WATER,Study1,F,18,42,JOL,User,-,"How likely are you to correctly recall the second item in the pair?|Type your response on a scale from 0-100 and then press Enter.",Study/JOL,"Study Phase",4329,,,2963,3367,,,,60,1
w10042962_jkc,e0fo9w68fu,Nick_Dissertation_EX1,1,27,2020-04-24T16:22:21-07:00,6.0146248340607,5,versionA_stim.csv,JOLVersionA.csv,"JOL Version A","Dissertation, JOL version A",WAY,OUT,Study1,F,16,49,JOL,User,-,"How likely are you to correctly recall the second item in the pair?|Type your response on a scale from 0-100 and then press Enter.",Study/JOL,"Study Phase",5564,,,4397,4836,,,,15,1
w10042962_jkc,e0fo9w68fu,Nick_Dissertation_EX1,1,28,2020-04-24T16:22:24-07:00,3.7472259998322,5,versionA_stim.csv,JOLVersionA.csv,"JOL Version A","Dissertation, JOL version A",POP,SODA,Study1,S,56,73,JOL,User,-,"How likely are you to correctly recall the second item in the pair?|Type your response on a scale from 0-100 and then press Enter.",Study/JOL,"Study Phase",3357,,,2193,2418,,,,90,1
w10042962_jkc,e0fo9w68fu,Nick_Dissertation_EX1,1,29,2020-04-24T16:22:28-07:00,3.5117170810699,5,versionA_stim.csv,JOLVersionA.csv,"JOL Version A","Dissertation, JOL version A",CLOTHES,ATTIRE,Study1,B,43,82,JOL,User,-,"How likely are you to correctly recall the second item in the pair?|Type your response on a scale from 0-100 and then press Enter.",Study/JOL,"Study Phase",3106,,,1613,2206,,,,95,1
w10042962_jkc,e0fo9w68fu,Nick_Dissertation_EX1,1,30,2020-04-24T16:22:33-07:00,5.3111979961395,5,versionA_stim.csv,JOLVersionA.csv,"JOL Version A","Dissertation, JOL version A",WORK,CHORE,Study1,B,39,27,JOL,User,-,"How likely are you to correctly recall the second item in the pair?|Type your response on a scale from 0-100 and then press Enter.",Study/JOL,"Study Phase",4920,,,3111,3279,,,,40,1
w10042962_jkc,e0fo9w68fu,Nick_Dissertation_EX1,1,31,2020-04-24T16:22:38-07:00,4.8636009693146,5,versionA_stim.csv,JOLVersionA.csv,"JOL Version A","Dissertation, JOL version A",HERD,COW,Study1,F,22,34,JOL,User,-,"How likely are you to correctly recall the second item in the pair?|Type your response on a scale from 0-100 and then press Enter.",Study/JOL,"Study Phase",4378,,,3069,3346,,,,80,1
w10042962_jkc,e0fo9w68fu,Nick_Dissertation_EX1,1,32,2020-04-24T16:22:44-07:00,5.6595950126648,5,versionA_stim.csv,JOLVersionA.csv,"JOL Version A","Dissertation, JOL version A",LETTUCE,SALAD,Study1,S,59,43,JOL,User,-,"How likely are you to correctly recall the second item in the pair?|Type your response on a scale from 0-100 and then press Enter.",Study/JOL,"Study Phase",5250,,,4062,4308,,,,98,1
w10042962_jkc,e0fo9w68fu,Nick_Dissertation_EX1,1,33,2020-04-24T16:22:47-07:00,3.6427130699158,5,versionA_stim.csv,JOLVersionA.csv,"JOL Version A","Dissertation, JOL version A",BEGIN,END,Study1,S,54,14,JOL,User,-,"How likely are you to correctly recall the second item in the pair?|Type your response on a scale from 0-100 and then press Enter.",Study/JOL,"Study Phase",3213,,,2143,2292,,,,99,1
w10042962_jkc,e0fo9w68fu,Nick_Dissertation_EX1,1,34,2020-04-24T16:22:55-07:00,8.0339980125427,5,versionA_stim.csv,JOLVersionA.csv,"JOL Version A","Dissertation, JOL version A",SMELL,STENCH,Study1,B,42,65,JOL,User,-,"How likely are you to correctly recall the second item in the pair?|Type your response on a scale from 0-100 and then press Enter.",Study/JOL,"Study Phase",7640,,,4057,6690,,,,75,1
w10042962_jkc,e0fo9w68fu,Nick_Dissertation_EX1,1,35,2020-04-24T16:23:00-07:00,4.8477370738983,5,versionA_stim.csv,JOLVersionA.csv,"JOL Version A","Dissertation, JOL version A",HONEY,BEE,Study1,S,63,9,JOL,User,-,"How likely are you to correctly recall the second item in the pair?|Type your response on a scale from 0-100 and then press Enter.",Study/JOL,"Study Phase",4304,,,2808,3018,,,,90,1
w10042962_jkc,e0fo9w68fu,Nick_Dissertation_EX1,1,36,2020-04-24T16:23:08-07:00,7.6712789535522,5,versionA_stim.csv,JOLVersionA.csv,"JOL Version A","Dissertation, JOL version A",PUSHER,CLUTTER,Study1,U,66,85,JOL,User,-,"How likely are you to correctly recall the second item in the pair?|Type your response on a scale from 0-100 and then press Enter.",Study/JOL,"Study Phase",7094,,,6560,6560,,,,2,1
w10042962_jkc,e0fo9w68fu,Nick_Dissertation_EX1,1,37,2020-04-24T16:23:12-07:00,3.7680959701538,5,versionA_stim.csv,JOLVersionA.csv,"JOL Version A","Dissertation, JOL version A",EDITOR,NEWS,Study1,F,10,69,JOL,User,-,"How likely are you to correctly recall the second item in the pair?|Type your response on a scale from 0-100 and then press Enter.",Study/JOL,"Study Phase",3220,,,2194,2384,,,,90,1
w10042962_jkc,e0fo9w68fu,Nick_Dissertation_EX1,1,38,2020-04-24T16:23:18-07:00,5.7479050159454,5,versionA_stim.csv,JOLVersionA.csv,"JOL Version A","Dissertation, JOL version A",TRIAL,JURY,Study1,S,50,44,JOL,User,-,"How likely are you to correctly recall the second item in the pair?|Type your response on a scale from 0-100 and then press Enter.",Study/JOL,"Study Phase",5034,,,3684,4051,,,,60,1
w10042962_jkc,e0fo9w68fu,Nick_Dissertation_EX1,1,39,2020-04-24T16:23:22-07:00,4.5082628726959,5,versionA_stim.csv,JOLVersionA.csv,"JOL Version A","Dissertation, JOL version A",SENTENCE,WORD,Study1,B,31,13,JOL,User,-,"How likely are you to correctly recall the second item in the pair?|Type your response on a scale from 0-100 and then press Enter.",Study/JOL,"Study Phase",4045,,,2849,3380,,,,15,1
w10042962_jkc,e0fo9w68fu,Nick_Dissertation_EX1,1,40,2020-04-24T16:23:32-07:00,10.154362201691,5,versionA_stim.csv,JOLVersionA.csv,"JOL Version A","Dissertation, JOL version A",ROOT,PLANT,Study1,F,13,60,JOL,User,-,"How likely are you to correctly recall the second item in the pair?|Type your response on a scale from 0-100 and then press Enter.",Study/JOL,"Study Phase",9678,,,7845,8623,,,,30,1
w10042962_jkc,e0fo9w68fu,Nick_Dissertation_EX1,1,41,2020-04-24T16:23:49-07:00,16.756438970566,5,versionA_stim.csv,JOLVersionA.csv,"JOL Version A","Dissertation, JOL version A",BLOW,WIND,Study1,S,55,77,JOL,User,-,"How likely are you to correctly recall the second item in the pair?|Type your response on a scale from 0-100 and then press Enter.",Study/JOL,"Study Phase",16221,,,14904,15098,,,,30,1
w10042962_jkc,e0fo9w68fu,Nick_Dissertation_EX1,1,42,2020-04-24T16:23:56-07:00,7.3823809623718,5,versionA_stim.csv,JOLVersionA.csv,"JOL Version A","Dissertation, JOL version A",SHOE,FOOT,Study1,S,60,75,JOL,User,-,"How likely are you to correctly recall the second item in the pair?|Type your response on a scale from 0-100 and then press Enter.",Study/JOL,"Study Phase",6750,,,5614,5811,,,,90,1
w10042962_jkc,e0fo9w68fu,Nick_Dissertation_EX1,1,43,2020-04-24T16:24:07-07:00,10.876314878464,5,versionA_stim.csv,JOLVersionA.csv,"JOL Version A","Dissertation, JOL version A",GRILL,BAR,Study1,S,52,68,JOL,User,-,"How likely are you to correctly recall the second item in the pair?|Type your response on a scale from 0-100 and then press Enter.",Study/JOL,"Study Phase",10397,,,8578,8990,,,,60,1
w10042962_jkc,e0fo9w68fu,Nick_Dissertation_EX1,1,44,2020-04-24T16:24:21-07:00,14.204449176788,5,versionA_stim.csv,JOLVersionA.csv,"JOL Version A","Dissertation, JOL version A",HOT,CHILI,Study1,B,37,36,JOL,User,-,"How likely are you to correctly recall the second item in the pair?|Type your response on a scale from 0-100 and then press Enter.",Study/JOL,"Study Phase",13548,,,11859,12284,,,,60,1
w10042962_jkc,e0fo9w68fu,Nick_Dissertation_EX1,1,45,2020-04-24T16:24:27-07:00,5.4717729091644,5,versionA_stim.csv,JOLVersionA.csv,"JOL Version A","Dissertation, JOL version A",DEATH,BUSINESS,Study1,U,72,15,JOL,User,-,"How likely are you to correctly recall the second item in the pair?|Type your response on a scale from 0-100 and then press Enter.",Study/JOL,"Study Phase",4976,,,3870,3870,,,,0,1
w10042962_jkc,e0fo9w68fu,Nick_Dissertation_EX1,1,46,2020-04-24T16:24:33-07:00,6.1603209972382,5,versionA_stim.csv,JOLVersionA.csv,"JOL Version A","Dissertation, JOL version A",SOON,BELT,Study1,U,70,80,JOL,User,-,"How likely are you to correctly recall the second item in the pair?|Type your response on a scale from 0-100 and then press Enter.",Study/JOL,"Study Phase",5747,,,2302,4689,,,,80,1
w10042962_jkc,e0fo9w68fu,Nick_Dissertation_EX1,1,47,2020-04-24T16:24:39-07:00,5.9275679588318,5,versionA_stim.csv,JOLVersionA.csv,"JOL Version A","Dissertation, JOL version A",HORNET,STING,Study1,F,11,72,JOL,User,-,"How likely are you to correctly recall the second item in the pair?|Type your response on a scale from 0-100 and then press Enter.",Study/JOL,"Study Phase",5504,,,4444,4645,,,,90,1
w10042962_jkc,e0fo9w68fu,Nick_Dissertation_EX1,1,48,2020-04-24T16:24:44-07:00,4.6394600868225,5,versionA_stim.csv,JOLVersionA.csv,"JOL Version A","Dissertation, JOL version A",DIGESTION,STOMACH,Study1,F,7,18,JOL,User,-,"How likely are you to correctly recall the second item in the pair?|Type your response on a scale from 0-100 and then press Enter.",Study/JOL,"Study Phase",4179,,,2987,3240,,,,100,1
w10042962_jkc,e0fo9w68fu,Nick_Dissertation_EX1,1,49,2020-04-24T16:24:48-07:00,4.2038109302521,5,versionA_stim.csv,JOLVersionA.csv,"JOL Version A","Dissertation, JOL version A",LIFT,WOMAN,Study1,U,69,86,JOL,User,-,"How likely are you to correctly recall the second item in the pair?|Type your response on a scale from 0-100 and then press Enter.",Study/JOL,"Study Phase",3780,,,2782,2880,,,,10,1
w10042962_jkc,e0fo9w68fu,Nick_Dissertation_EX1,1,50,2020-04-24T16:24:53-07:00,4.8079750537872,5,versionA_stim.csv,JOLVersionA.csv,"JOL Version A","Dissertation, JOL version A",BABY,CHILD,Study1,S,64,41,JOL,User,-,"How likely are you to correctly recall the second item in the pair?|Type your response on a scale from 0-100 and then press Enter.",Study/JOL,"Study Phase",4376,,,2875,3517,,,,70,1
w10042962_jkc,e0fo9w68fu,Nick_Dissertation_EX1,1,51,2020-04-24T16:25:03-07:00,10.32007598877,5,versionA_stim.csv,JOLVersionA.csv,"JOL Version A","Dissertation, JOL version A",ARTERY,BRONZE,Study1,U,74,12,JOL,User,-,"How likely are you to correctly recall the second item in the pair?|Type your response on a scale from 0-100 and then press Enter.",Study/JOL,"Study Phase",9745,,,9238,9238,,,,2,1
w10042962_jkc,e0fo9w68fu,Nick_Dissertation_EX1,1,52,2020-04-24T16:25:06-07:00,3.2240979671478,5,versionA_stim.csv,JOLVersionA.csv,"JOL Version A","Dissertation, JOL version A",MEANING,DEFINITION,Study1,S,62,22,JOL,User,-,"How likely are you to correctly recall the second item in the pair?|Type your response on a scale from 0-100 and then press Enter.",Study/JOL,"Study Phase",2789,,,2071,2268,,,,90,1
w10042962_jkc,e0fo9w68fu,Nick_Dissertation_EX1,1,53,2020-04-24T16:25:10-07:00,3.8502180576324,5,versionA_stim.csv,JOLVersionA.csv,"JOL Version A","Dissertation, JOL version A",ARCHITECTURE,DESIGN,Study1,S,51,33,JOL,User,-,"How likely are you to correctly recall the second item in the pair?|Type your response on a scale from 0-100 and then press Enter.",Study/JOL,"Study Phase",3453,,,2528,2903,,,,60,1
w10042962_jkc,e0fo9w68fu,Nick_Dissertation_EX1,1,54,2020-04-24T16:25:23-07:00,13.077349901199,5,versionA_stim.csv,JOLVersionA.csv,"JOL Version A","Dissertation, JOL version A",KEY,LATCH,Study1,B,36,37,JOL,User,-,"How likely are you to correctly recall the second item in the pair?|Type your response on a scale from 0-100 and then press Enter.",Study/JOL,"Study Phase",12468,,,11788,12068,,,,70,1
w10042962_jkc,e0fo9w68fu,Nick_Dissertation_EX1,1,55,2020-04-24T16:25:26-07:00,2.9949390888214,5,versionA_stim.csv,JOLVersionA.csv,"JOL Version A","Dissertation, JOL version A",TUNA,FISH,Study1,F,25,83,JOL,User,-,"How likely are you to correctly recall the second item in the pair?|Type your response on a scale from 0-100 and then press Enter.",Study/JOL,"Study Phase",2411,,,1906,2041,,,,99,1
w10042962_jkc,e0fo9w68fu,Nick_Dissertation_EX1,1,56,2020-04-24T16:25:31-07:00,4.8290479183197,5,versionA_stim.csv,JOLVersionA.csv,"JOL Version A","Dissertation, JOL version A",REVOLUTION,WAR,Study1,F,20,63,JOL,User,-,"How likely are you to correctly recall the second item in the pair?|Type your response on a scale from 0-100 and then press Enter.",Study/JOL,"Study Phase",4364,,,2129,3978,,,,90,1
w10042962_jkc,e0fo9w68fu,Nick_Dissertation_EX1,1,57,2020-04-24T16:25:35-07:00,4.0366930961609,5,versionA_stim.csv,JOLVersionA.csv,"JOL Version A","Dissertation, JOL version A",DARK,CAVE,Study1,B,28,28,JOL,User,-,"How likely are you to correctly recall the second item in the pair?|Type your response on a scale from 0-100 and then press Enter.",Study/JOL,"Study Phase",3477,,,2961,3147,,,,90,1
w10042962_jkc,e0fo9w68fu,Nick_Dissertation_EX1,1,58,2020-04-24T16:25:38-07:00,2.7364480495453,5,versionA_stim.csv,JOLVersionA.csv,"JOL Version A","Dissertation, JOL version A",MATH,DIVISION,Study1,B,33,53,JOL,User,-,"How likely are you to correctly recall the second item in the pair?|Type your response on a scale from 0-100 and then press Enter.",Study/JOL,"Study Phase",2167,,,1634,1830,,,,90,1
w10042962_jkc,e0fo9w68fu,Nick_Dissertation_EX1,1,59,2020-04-24T16:25:40-07:00,2.2240920066833,5,versionA_stim.csv,JOLVersionA.csv,"JOL Version A","Dissertation, JOL version A",HYGIENE,CLEAN,Study1,F,17,78,JOL,User,-,"How likely are you to correctly recall the second item in the pair?|Type your response on a scale from 0-100 and then press Enter.",Study/JOL,"Study Phase",1812,,,1290,1503,,,,90,1
w10042962_jkc,e0fo9w68fu,Nick_Dissertation_EX1,1,60,2020-04-24T16:25:46-07:00,6.4897480010986,5,versionA_stim.csv,JOLVersionA.csv,"JOL Version A","Dissertation, JOL version A",ALLOW,TUCK,Study1,U,78,29,JOL,User,-,"How likely are you to correctly recall the second item in the pair?|Type your response on a scale from 0-100 and then press Enter.",Study/JOL,"Study Phase",5918,,,5725,5725,,,,5,1
w10042962_jkc,e0fo9w68fu,Nick_Dissertation_EX1,1,61,2020-04-24T16:25:49-07:00,2.8624768257141,5,versionA_stim.csv,JOLVersionA.csv,"JOL Version A","Dissertation, JOL version A",PLANE,PILOT,Study1,B,44,20,JOL,User,-,"How likely are you to correctly recall the second item in the pair?|Type your response on a scale from 0-100 and then press Enter.",Study/JOL,"Study Phase",2390,,,1870,2049,,,,99,1
w10042962_jkc,e0fo9w68fu,Nick_Dissertation_EX1,1,62,2020-04-24T16:25:53-07:00,3.6813361644745,5,versionA_stim.csv,JOLVersionA.csv,"JOL Version A","Dissertation, JOL version A",DIETARY,SACKING,Study1,U,67,84,JOL,User,-,"How likely are you to correctly recall the second item in the pair?|Type your response on a scale from 0-100 and then press Enter.",Study/JOL,"Study Phase",3218,,,3014,3014,,,,2,1
w10042962_jkc,e0fo9w68fu,Nick_Dissertation_EX1,1,63,2020-04-24T16:25:56-07:00,3.4008979797363,5,versionA_stim.csv,JOLVersionA.csv,"JOL Version A","Dissertation, JOL version A",FULL,ENOUGH,Study1,B,26,64,JOL,User,-,"How likely are you to correctly recall the second item in the pair?|Type your response on a scale from 0-100 and then press Enter.",Study/JOL,"Study Phase",2920,,,2427,2576,,,,50,1
w10042962_jkc,e0fo9w68fu,Nick_Dissertation_EX1,1,64,2020-04-24T16:26:02-07:00,5.8404099941254,5,versionA_stim.csv,JOLVersionA.csv,"JOL Version A","Dissertation, JOL version A",CHISEL,HAMMER,Study1,F,9,48,JOL,User,-,"How likely are you to correctly recall the second item in the pair?|Type your response on a scale from 0-100 and then press Enter.",Study/JOL,"Study Phase",5419,,,4874,5097,,,,90,1
w10042962_jkc,e0fo9w68fu,Nick_Dissertation_EX1,1,65,2020-04-24T16:26:06-07:00,3.6290910243988,5,versionA_stim.csv,JOLVersionA.csv,"JOL Version A","Dissertation, JOL version A",BATHROOM,TOILET,Study1,S,58,17,JOL,User,-,"How likely are you to correctly recall the second item in the pair?|Type your response on a scale from 0-100 and then press Enter.",Study/JOL,"Study Phase",3013,,,2555,2692,,,,99,1
w10042962_jkc,e0fo9w68fu,Nick_Dissertation_EX1,1,66,2020-04-24T16:26:13-07:00,7.2823278903961,5,versionA_stim.csv,JOLVersionA.csv,"JOL Version A","Dissertation, JOL version A",TAKE,SEIZE,Study1,B,29,45,JOL,User,-,"How likely are you to correctly recall the second item in the pair?|Type your response on a scale from 0-100 and then press Enter.",Study/JOL,"Study Phase",6871,,,3099,3340,,,,80,1
w10042962_jkc,e0fo9w68fu,Nick_Dissertation_EX1,1,67,2020-04-24T16:26:18-07:00,5.0366299152374,5,versionA_stim.csv,JOLVersionA.csv,"JOL Version A","Dissertation, JOL version A",DELINQUENT,BAD,Study1,F,6,71,JOL,User,-,"How likely are you to correctly recall the second item in the pair?|Type your response on a scale from 0-100 and then press Enter.",Study/JOL,"Study Phase",4604,,,2244,3924,,,,90,1
w10042962_jkc,e0fo9w68fu,Nick_Dissertation_EX1,1,68,2020-04-24T16:26:25-07:00,6.4803559780121,5,versionA_stim.csv,JOLVersionA.csv,"JOL Version A","Dissertation, JOL version A",LAW,ATTORNEY,Study1,B,34,54,JOL,User,-,"How likely are you to correctly recall the second item in the pair?|Type your response on a scale from 0-100 and then press Enter.",Study/JOL,"Study Phase",6049,,,4764,5454,,,,70,1
w10042962_jkc,e0fo9w68fu,Nick_Dissertation_EX1,1,69,2020-04-24T16:26:30-07:00,5.8347630500793,5,versionA_stim.csv,JOLVersionA.csv,"JOL Version A","Dissertation, JOL version A",DISCOVER,FLOOR,Study1,U,71,55,JOL,User,-,"How likely are you to correctly recall the second item in the pair?|Type your response on a scale from 0-100 and then press Enter.",Study/JOL,"Study Phase",5404,,,2306,4760,,,,40,1
w10042962_jkc,e0fo9w68fu,Nick_Dissertation_EX1,1,70,2020-04-24T16:26:34-07:00,3.7176110744476,5,versionA_stim.csv,JOLVersionA.csv,"JOL Version A","Dissertation, JOL version A",CREDIT,CARD,Study1,F,23,74,JOL,User,-,"How likely are you to correctly recall the second item in the pair?|Type your response on a scale from 0-100 and then press Enter.",Study/JOL,"Study Phase",3166,,,2492,2805,,,,100,1
w10042962_jkc,e0fo9w68fu,Nick_Dissertation_EX1,1,71,2020-04-24T16:26:38-07:00,4.2919619083405,5,versionA_stim.csv,JOLVersionA.csv,"JOL Version A","Dissertation, JOL version A",CASH,WOULD,Study1,U,83,59,JOL,User,-,"How likely are you to correctly recall the second item in the pair?|Type your response on a scale from 0-100 and then press Enter.",Study/JOL,"Study Phase",3910,,,3668,3668,,,,1,1
w10042962_jkc,e0fo9w68fu,Nick_Dissertation_EX1,1,72,2020-04-24T16:26:42-07:00,3.6936740875244,5,versionA_stim.csv,JOLVersionA.csv,"JOL Version A","Dissertation, JOL version A",PARK,HUNGRY,Study1,U,68,51,JOL,User,-,"How likely are you to correctly recall the second item in the pair?|Type your response on a scale from 0-100 and then press Enter.",Study/JOL,"Study Phase",3282,,,2817,2951,,,,10,1
w10042962_jkc,e0fo9w68fu,Nick_Dissertation_EX1,1,73,2020-04-24T16:26:46-07:00,4.1405589580536,5,versionA_stim.csv,JOLVersionA.csv,"JOL Version A","Dissertation, JOL version A",NUMBER,AMOUNT,Study1,S,47,16,JOL,User,-,"How likely are you to correctly recall the second item in the pair?|Type your response on a scale from 0-100 and then press Enter.",Study/JOL,"Study Phase",3722,,,3073,3351,,,,80,1
w10042962_jkc,e0fo9w68fu,Nick_Dissertation_EX1,1,74,2020-04-24T16:26:50-07:00,4.056272983551,5,versionA_stim.csv,JOLVersionA.csv,"JOL Version A","Dissertation, JOL version A",HEIGHT,GROWTH,Study1,B,30,23,JOL,User,-,"How likely are you to correctly recall the second item in the pair?|Type your response on a scale from 0-100 and then press Enter.",Study/JOL,"Study Phase",3627,,,2908,3281,,,,80,1
w10042962_jkc,e0fo9w68fu,Nick_Dissertation_EX1,1,75,2020-04-24T16:26:55-07:00,4.3794870376587,5,versionA_stim.csv,JOLVersionA.csv,"JOL Version A","Dissertation, JOL version A",VALLEY,ADD,Study1,U,82,25,JOL,User,-,"How likely are you to correctly recall the second item in the pair?|Type your response on a scale from 0-100 and then press Enter.",Study/JOL,"Study Phase",3973,,,3616,3616,,,,0,1
w10042962_jkc,e0fo9w68fu,Nick_Dissertation_EX1,1,76,2020-04-24T16:26:58-07:00,3.5037269592285,5,versionA_stim.csv,JOLVersionA.csv,"JOL Version A","Dissertation, JOL version A",ORCHID,FLOWER,Study1,F,24,67,JOL,User,-,"How likely are you to correctly recall the second item in the pair?|Type your response on a scale from 0-100 and then press Enter.",Study/JOL,"Study Phase",3059,,,2605,2744,,,,10,1
w10042962_jkc,e0fo9w68fu,Nick_Dissertation_EX1,1,77,2020-04-24T16:27:03-07:00,4.6466920375824,5,versionA_stim.csv,JOLVersionA.csv,"JOL Version A","Dissertation, JOL version A",KIDNEY,LIVER,Study1,S,53,10,JOL,User,-,"How likely are you to correctly recall the second item in the pair?|Type your response on a scale from 0-100 and then press Enter.",Study/JOL,"Study Phase",3897,,,3419,3548,,,,10,1
w10042962_jkc,e0fo9w68fu,Nick_Dissertation_EX1,1,78,2020-04-24T16:27:06-07:00,3.5531649589539,5,versionA_stim.csv,JOLVersionA.csv,"JOL Version A","Dissertation, JOL version A",DUE,ASSIGNMENT,Study1,S,46,56,JOL,User,-,"How likely are you to correctly recall the second item in the pair?|Type your response on a scale from 0-100 and then press Enter.",Study/JOL,"Study Phase",3136,,,2565,2784,,,,90,1
w10042962_jkc,e0fo9w68fu,Nick_Dissertation_EX1,1,79,2020-04-24T16:27:10-07:00,3.4813129901886,5,versionA_stim.csv,JOLVersionA.csv,"JOL Version A","Dissertation, JOL version A",CIRCLE,ROUND,Study1,S,65,19,JOL,User,-,"How likely are you to correctly recall the second item in the pair?|Type your response on a scale from 0-100 and then press Enter.",Study/JOL,"Study Phase",3026,,,1980,2678,,,,100,1
w10042962_jkc,e0fo9w68fu,Nick_Dissertation_EX1,1,80,2020-04-24T16:27:14-07:00,3.7452471256256,5,versionA_stim.csv,JOLVersionA.csv,"JOL Version A","Dissertation, JOL version A",SUGAR,RIDDLE,Study1,U,81,76,JOL,User,-,"How likely are you to correctly recall the second item in the pair?|Type your response on a scale from 0-100 and then press Enter.",Study/JOL,"Study Phase",3111,,,2882,2882,,,,3,1
w10042962_jkc,e0fo9w68fu,Nick_Dissertation_EX1,1,81,2020-04-24T16:27:17-07:00,3.4336700439453,5,versionA_stim.csv,JOLVersionA.csv,"JOL Version A","Dissertation, JOL version A",LOCATION,SITE,Study1,S,48,81,JOL,User,-,"How likely are you to correctly recall the second item in the pair?|Type your response on a scale from 0-100 and then press Enter.",Study/JOL,"Study Phase",3004,,,2476,2689,,,,90,1
w10042962_jkc,e0fo9w68fu,Nick_Dissertation_EX1,1,82,2020-04-24T16:27:25-07:00,7.8079349994659,5,versionA_stim.csv,JOLVersionA.csv,"JOL Version A","Dissertation, JOL version A",SWAN,BIRD,Study1,F,14,38,JOL,User,-,"How likely are you to correctly recall the second item in the pair?|Type your response on a scale from 0-100 and then press Enter.",Study/JOL,"Study Phase",7356,,,6406,6934,,,,100,1
w10042962_jkc,e0fo9w68fu,Nick_Dissertation_EX1,1,83,2020-04-24T16:27:51-07:00,26.198834896088,5,versionA_stim.csv,JOLVersionA.csv,"JOL Version A","Dissertation, JOL version A",FIRE,BLAZE,Study1,B,45,70,JOL,User,-,"How likely are you to correctly recall the second item in the pair?|Type your response on a scale from 0-100 and then press Enter.",Study/JOL,"Study Phase",25698,,,25191,25327,,,,50,1
w10042962_jkc,e0fo9w68fu,Nick_Dissertation_EX1,1,84,2020-04-24T16:27:54-07:00,3.3690760135651,5,versionA_stim.csv,JOLVersionA.csv,"JOL Version A","Dissertation, JOL version A",SLEEP,DROWSY,Study1,B,41,21,JOL,User,-,"How likely are you to correctly recall the second item in the pair?|Type your response on a scale from 0-100 and then press Enter.",Study/JOL,"Study Phase",2819,,,1674,1887,,,,90,1
w10042962_jkc,e0fo9w68fu,Nick_Dissertation_EX1,1,85,2020-04-24T16:27:57-07:00,2.2710509300232,5,versionA_stim.csv,JOLVersionA.csv,"JOL Version A","Dissertation, JOL version A",GREAT,FANTASTIC,Study1,B,35,24,JOL,User,-,"How likely are you to correctly recall the second item in the pair?|Type your response on a scale from 0-100 and then press Enter.",Study/JOL,"Study Phase",1783,,,1258,1469,,,,90,1
w10042962_jkc,e0fo9w68fu,Nick_Dissertation_EX1,1,86,2020-04-24T16:28:00-07:00,3.151890039444,5,versionA_stim.csv,JOLVersionA.csv,"JOL Version A","Dissertation, JOL version A",FIX,HAND,Study1,U,75,46,JOL,User,-,"How likely are you to correctly recall the second item in the pair?|Type your response on a scale from 0-100 and then press Enter.",Study/JOL,"Study Phase",2753,,,2565,2565,,,,2,1
w10042962_jkc,e0fo9w68fu,Nick_Dissertation_EX1,1,87,2020-04-24T16:28:03-07:00,3.0442368984222,5,versionA_stim.csv,JOLVersionA.csv,"JOL Version A","Dissertation, JOL version A",MACHINE,POSITION,Study1,U,76,66,JOL,User,-,"How likely are you to correctly recall the second item in the pair?|Type your response on a scale from 0-100 and then press Enter.",Study/JOL,"Study Phase",2617,,,2436,2436,,,,2,1
w10042962_jkc,e0fo9w68fu,Nick_Dissertation_EX1,1,88,2020-04-24T16:28:06-07:00,3.2082011699677,5,versionA_stim.csv,JOLVersionA.csv,"JOL Version A","Dissertation, JOL version A",HIDE,SICK,Study1,U,84,7,JOL,User,-,"How likely are you to correctly recall the second item in the pair?|Type your response on a scale from 0-100 and then press Enter.",Study/JOL,"Study Phase",2758,,,2532,2532,,,,5,1
w10042962_jkc,e0fo9w68fu,Nick_Dissertation_EX1,1,89,2020-04-24T16:28:09-07:00,2.8111188411713,5,versionA_stim.csv,JOLVersionA.csv,"JOL Version A","Dissertation, JOL version A",WAGE,MONEY,Study1,F,8,62,JOL,User,-,"How likely are you to correctly recall the second item in the pair?|Type your response on a scale from 0-100 and then press Enter.",Study/JOL,"Study Phase",2370,,,1820,2048,,,,90,1
w10042962_jkc,e0fo9w68fu,Nick_Dissertation_EX1,1,90,2020-04-24T16:28:13-07:00,3.9888660907745,5,versionA_stim.csv,JOLVersionA.csv,"JOL Version A","Dissertation, JOL version A",STRONG,ACCIDENT,Study1,U,80,57,JOL,User,-,"How likely are you to correctly recall the second item in the pair?|Type your response on a scale from 0-100 and then press Enter.",Study/JOL,"Study Phase",3489,,,3327,3327,,,,5,1
w10042962_jkc,e0fo9w68fu,Nick_Dissertation_EX1,1,91,2020-04-24T16:28:19-07:00,5.9439690113068,5,versionA_stim.csv,JOLVersionA.csv,"JOL Version A","Dissertation, JOL version A",THING,STUFF,BUFFER2,Buffer,90,91,JOL,User,-,"How likely are you to correctly recall the second item in the pair?|Type your response on a scale from 0-100 and then press Enter.",Study/JOL,BUFFER2,5412,,,5144,5144,,,,7,1
w10042962_jkc,e0fo9w68fu,Nick_Dissertation_EX1,1,92,2020-04-24T16:28:23-07:00,4.5908639431,5,versionA_stim.csv,JOLVersionA.csv,"JOL Version A","Dissertation, JOL version A",GEESE,GOOSE,BUFFER2,Buffer,86,89,JOL,User,-,"How likely are you to correctly recall the second item in the pair?|Type your response on a scale from 0-100 and then press Enter.",Study/JOL,BUFFER2,4185,,,2403,3479,,,,90,1
w10042962_jkc,e0fo9w68fu,Nick_Dissertation_EX1,1,93,2020-04-24T16:28:27-07:00,3.6449639797211,5,versionA_stim.csv,JOLVersionA.csv,"JOL Version A","Dissertation, JOL version A",MALT,CHOCOLATE,BUFFER2,Buffer,88,88,JOL,User,-,"How likely are you to correctly recall the second item in the pair?|Type your response on a scale from 0-100 and then press Enter.",Study/JOL,BUFFER2,3049,,,2405,2667,,,,100,1
w10042962_jkc,e0fo9w68fu,Nick_Dissertation_EX1,1,94,2020-04-24T16:28:30-07:00,2.8894560337067,5,versionA_stim.csv,JOLVersionA.csv,"JOL Version A","Dissertation, JOL version A",MOON,SPACE,BUFFER2,Buffer,89,87,JOL,User,-,"How likely are you to correctly recall the second item in the pair?|Type your response on a scale from 0-100 and then press Enter.",Study/JOL,BUFFER2,2461,,,1546,2088,,,,100,1
w10042962_jkc,e0fo9w68fu,Nick_Dissertation_EX1,1,95,2020-04-24T16:28:33-07:00,2.7517020702362,5,versionA_stim.csv,JOLVersionA.csv,"JOL Version A","Dissertation, JOL version A",SHERRIF,POLICE,BUFFER2,Buffer,87,90,JOL,User,-,"How likely are you to correctly recall the second item in the pair?|Type your response on a scale from 0-100 and then press Enter.",Study/JOL,BUFFER2,2354,,,1409,1738,,,,100,1
w10042962_jkc,e0fo9w68fu,Nick_Dissertation_EX1,1,96,2020-04-24T16:28:36-07:00,3.323117017746,5,versionA_stim.csv,JOLVersionA.csv,"JOL Version A","Dissertation, JOL version A",,,,,,0,Instruct,User,-,"You have completed this section. Please press Enter.",Filler_Instruction,Instruct2,2889,,,-1,-1,,,,,1
w10042962_jkc,e0fo9w68fu,Nick_Dissertation_EX1,1,97,2020-04-24T16:30:37-07:00,120.62838602066,5,versionA_stim.csv,JOLVersionA.csv,"JOL Version A","Dissertation, JOL version A",,,,,,0,FreeRecall,120,120,"Please list the 50 US states in alphabetical order. The task will automatically advance to the next screen after two minutes.",,Filler1,120004,"Alabama, Alaska, Arizona, Arkansas, California, Colorado, Connecticut, Delaware, Florida, Georgia, Hawaii, Idaho, Illinois, Indiana, Iowa, Kansas, Kentucky, Louisiana, Maine, Marylan",0,6908,119789,0,0,,,1
w10042962_jkc,e0fo9w68fu,Nick_Dissertation_EX1,1,98,2020-04-24T16:30:48-07:00,11.624919891357,5,versionA_stim.csv,JOLVersionA.csv,"JOL Version A","Dissertation, JOL version A",,,,,,0,Instruct,-,10,"You will now be presented with the first word from each of the previously studied item pairs. Please type the missing word. If you do not know the word, you may guess or press Enter to skip forward to the next pair.",,Instruct3,10891,,,-1,-1,,,,,1
w10042962_jkc,e0fo9w68fu,Nick_Dissertation_EX1,1,99,2020-04-24T16:30:53-07:00,4.3481330871582,5,versionA_stim.csv,JOLVersionA.csv,"JOL Version A","Dissertation, JOL version A",ROOT,PLANT,Study1,F,13,60,Test,User,-,,Recall,Recall1,3787,plant,100,2236,3139,1,1,,,1
w10042962_jkc,e0fo9w68fu,Nick_Dissertation_EX1,1,100,2020-04-24T16:30:57-07:00,4.4607830047607,5,versionA_stim.csv,JOLVersionA.csv,"JOL Version A","Dissertation, JOL version A",SHOE,FOOT,Study1,S,60,75,Test,User,-,,Recall,Recall1,3908,foot,100,2778,3164,1,1,,,1
w10042962_jkc,e0fo9w68fu,Nick_Dissertation_EX1,1,101,2020-04-24T16:31:01-07:00,3.7617230415344,5,versionA_stim.csv,JOLVersionA.csv,"JOL Version A","Dissertation, JOL version A",DIGESTION,STOMACH,Study1,F,7,18,Test,User,-,,Recall,Recall1,3339,stomach,100,1387,2502,1,1,,,1
w10042962_jkc,e0fo9w68fu,Nick_Dissertation_EX1,1,102,2020-04-24T16:31:06-07:00,4.9225699901581,5,versionA_stim.csv,JOLVersionA.csv,"JOL Version A","Dissertation, JOL version A",HYGIENE,CLEAN,Study1,F,17,78,Test,User,-,,Recall,Recall1,4465,clean,100,2786,3688,1,1,,,1
w10042962_jkc,e0fo9w68fu,Nick_Dissertation_EX1,1,103,2020-04-24T16:31:13-07:00,7.0947890281677,5,versionA_stim.csv,JOLVersionA.csv,"JOL Version A","Dissertation, JOL version A",BALL,RACKET,Study1,B,38,39,Test,User,-,,Recall,Recall1,6676,basket,66.666666666667,4645,5760,0,0,,,1
w10042962_jkc,e0fo9w68fu,Nick_Dissertation_EX1,1,104,2020-04-24T16:31:17-07:00,4.3770768642426,5,versionA_stim.csv,JOLVersionA.csv,"JOL Version A","Dissertation, JOL version A",PAST,FUTURE,Study1,S,61,35,Test,User,-,,Recall,Recall1,3972,future,100,2349,3393,1,1,,,1
w10042962_jkc,e0fo9w68fu,Nick_Dissertation_EX1,1,105,2020-04-24T16:31:22-07:00,4.5627920627594,5,versionA_stim.csv,JOLVersionA.csv,"JOL Version A","Dissertation, JOL version A",BLOW,WIND,Study1,S,55,77,Test,User,-,,Recall,Recall1,4066,,0,-1,-1,0,0,,,1
w10042962_jkc,e0fo9w68fu,Nick_Dissertation_EX1,1,106,2020-04-24T16:31:26-07:00,3.7886719703674,5,versionA_stim.csv,JOLVersionA.csv,"JOL Version A","Dissertation, JOL version A",PARK,HUNGRY,Study1,U,68,51,Test,User,-,,Recall,Recall1,3394,hungry,100,1819,2701,1,1,,,1
w10042962_jkc,e0fo9w68fu,Nick_Dissertation_EX1,1,107,2020-04-24T16:31:34-07:00,8.4909060001373,5,versionA_stim.csv,JOLVersionA.csv,"JOL Version A","Dissertation, JOL version A",HOT,CHILI,Study1,B,37,36,Test,User,-,,Recall,Recall1,8072,warm,0,6330,6983,0,0,,,1
w10042962_jkc,e0fo9w68fu,Nick_Dissertation_EX1,1,108,2020-04-24T16:31:38-07:00,4.2702529430389,5,versionA_stim.csv,JOLVersionA.csv,"JOL Version A","Dissertation, JOL version A",MEANING,DEFINITION,Study1,S,62,22,Test,User,-,,Recall,Recall1,3896,definition,100,1815,3208,1,1,,,1
w10042962_jkc,e0fo9w68fu,Nick_Dissertation_EX1,1,109,2020-04-24T16:31:53-07:00,14.749094963074,5,versionA_stim.csv,JOLVersionA.csv,"JOL Version A","Dissertation, JOL version A",DELINQUENT,BAD,Study1,F,6,71,Test,User,-,,Recall,Recall1,14245,mad,66.666666666667,3988,13010,0,0,,,1
w10042962_jkc,e0fo9w68fu,Nick_Dissertation_EX1,1,110,2020-04-24T16:31:57-07:00,4.0762901306152,5,versionA_stim.csv,JOLVersionA.csv,"JOL Version A","Dissertation, JOL version A",BABY,CHILD,Study1,S,64,41,Test,User,-,,Recall,Recall1,3560,child,100,1833,2797,1,1,,,1
w10042962_jkc,e0fo9w68fu,Nick_Dissertation_EX1,1,111,2020-04-24T16:32:00-07:00,2.6462159156799,5,versionA_stim.csv,JOLVersionA.csv,"JOL Version A","Dissertation, JOL version A",HERD,COW,Study1,F,22,34,Test,User,-,,Recall,Recall1,2255,cow,100,1207,1554,1,1,,,1
w10042962_jkc,e0fo9w68fu,Nick_Dissertation_EX1,1,112,2020-04-24T16:32:04-07:00,3.8479051589966,5,versionA_stim.csv,JOLVersionA.csv,"JOL Version A","Dissertation, JOL version A",BATHROOM,TOILET,Study1,S,58,17,Test,User,-,,Recall,Recall1,3431,toilet,100,1684,2637,1,1,,,1
w10042962_jkc,e0fo9w68fu,Nick_Dissertation_EX1,1,113,2020-04-24T16:32:08-07:00,4.0809788703918,5,versionA_stim.csv,JOLVersionA.csv,"JOL Version A","Dissertation, JOL version A",BRIDGE,WATER,Study1,F,18,42,Test,User,-,,Recall,Recall1,3677,water,100,1849,2865,1,1,,,1
w10042962_jkc,e0fo9w68fu,Nick_Dissertation_EX1,1,114,2020-04-24T16:32:16-07:00,7.7850720882416,5,versionA_stim.csv,JOLVersionA.csv,"JOL Version A","Dissertation, JOL version A",HUNGER,FAMINE,Study1,B,40,40,Test,User,-,,Recall,Recall1,7357,thirst,16.666666666667,5515,6619,0,0,,,1
w10042962_jkc,e0fo9w68fu,Nick_Dissertation_EX1,1,115,2020-04-24T16:32:20-07:00,4.2018058300018,5,versionA_stim.csv,JOLVersionA.csv,"JOL Version A","Dissertation, JOL version A",GRILL,BAR,Study1,S,52,68,Test,User,-,,Recall,Recall1,3796,bar,100,2369,3009,1,1,,,1
w10042962_jkc,e0fo9w68fu,Nick_Dissertation_EX1,1,116,2020-04-24T16:32:26-07:00,6.3594059944153,5,versionA_stim.csv,JOLVersionA.csv,"JOL Version A","Dissertation, JOL version A",HIDE,SICK,Study1,U,84,7,Test,User,-,,Recall,Recall1,5844,seek,50,3796,4401,0,0,,,1
w10042962_jkc,e0fo9w68fu,Nick_Dissertation_EX1,1,117,2020-04-24T16:32:30-07:00,3.9649050235748,5,versionA_stim.csv,JOLVersionA.csv,"JOL Version A","Dissertation, JOL version A",FIX,HAND,Study1,U,75,46,Test,User,-,,Recall,Recall1,3581,hands,88.888888888889,1867,2816,0,1,,,1
w10042962_jkc,e0fo9w68fu,Nick_Dissertation_EX1,1,118,2020-04-24T16:32:35-07:00,5.3249499797821,5,versionA_stim.csv,JOLVersionA.csv,"JOL Version A","Dissertation, JOL version A",LIFT,WOMAN,Study1,U,69,86,Test,User,-,,Recall,Recall1,4890,pull,0,2328,4063,0,0,,,1
w10042962_jkc,e0fo9w68fu,Nick_Dissertation_EX1,1,119,2020-04-24T16:32:39-07:00,3.4140160083771,5,versionA_stim.csv,JOLVersionA.csv,"JOL Version A","Dissertation, JOL version A",CIRCLE,ROUND,Study1,S,65,19,Test,User,-,,Recall,Recall1,2999,round,100,1457,2197,1,1,,,1
w10042962_jkc,e0fo9w68fu,Nick_Dissertation_EX1,1,120,2020-04-24T16:32:42-07:00,3.3261811733246,5,versionA_stim.csv,JOLVersionA.csv,"JOL Version A","Dissertation, JOL version A",HONEY,BEE,Study1,S,63,9,Test,User,-,,Recall,Recall1,2823,bee,100,1592,1913,1,1,,,1
w10042962_jkc,e0fo9w68fu,Nick_Dissertation_EX1,1,121,2020-04-24T16:32:48-07:00,5.9298138618469,5,versionA_stim.csv,JOLVersionA.csv,"JOL Version A","Dissertation, JOL version A",DRINK,SIP,Study1,B,27,61,Test,User,-,,Recall,Recall1,5535,,0,-1,-1,0,0,,,1
w10042962_jkc,e0fo9w68fu,Nick_Dissertation_EX1,1,122,2020-04-24T16:32:51-07:00,2.4809999465942,5,versionA_stim.csv,JOLVersionA.csv,"JOL Version A","Dissertation, JOL version A",PUSHER,CLUTTER,Study1,U,66,85,Test,User,-,,Recall,Recall1,2086,,0,-1,-1,0,0,,,1
w10042962_jkc,e0fo9w68fu,Nick_Dissertation_EX1,1,123,2020-04-24T16:32:57-07:00,6.5567140579224,5,versionA_stim.csv,JOLVersionA.csv,"JOL Version A","Dissertation, JOL version A",MACHINE,POSITION,Study1,U,76,66,Test,User,-,,Recall,Recall1,6133,money,30.769230769231,4180,5054,0,0,,,1
w10042962_jkc,e0fo9w68fu,Nick_Dissertation_EX1,1,124,2020-04-24T16:33:01-07:00,4.0221180915833,5,versionA_stim.csv,JOLVersionA.csv,"JOL Version A","Dissertation, JOL version A",PLANE,PILOT,Study1,B,44,20,Test,User,-,,Recall,Recall1,3421,wings,20,2172,2888,0,0,,,1
w10042962_jkc,e0fo9w68fu,Nick_Dissertation_EX1,1,125,2020-04-24T16:33:09-07:00,7.650976896286,5,versionA_stim.csv,JOLVersionA.csv,"JOL Version A","Dissertation, JOL version A",SUGAR,RIDDLE,Study1,U,81,76,Test,User,-,,Recall,Recall1,7251,sweet,18.181818181818,5021,5955,0,0,,,1
w10042962_jkc,e0fo9w68fu,Nick_Dissertation_EX1,1,126,2020-04-24T16:33:15-07:00,6.5669000148773,5,versionA_stim.csv,JOLVersionA.csv,"JOL Version A","Dissertation, JOL version A",DIETARY,SACKING,Study1,U,67,84,Test,User,-,,Recall,Recall1,6165,health,15.384615384615,2592,4070,0,0,,,1
w10042962_jkc,e0fo9w68fu,Nick_Dissertation_EX1,1,127,2020-04-24T16:33:18-07:00,3.0773839950562,5,versionA_stim.csv,JOLVersionA.csv,"JOL Version A","Dissertation, JOL version A",SOON,BELT,Study1,U,70,80,Test,User,-,,Recall,Recall1,2641,now,0,1538,1885,0,0,,,1
w10042962_jkc,e0fo9w68fu,Nick_Dissertation_EX1,1,128,2020-04-24T16:33:23-07:00,4.1518421173096,5,versionA_stim.csv,JOLVersionA.csv,"JOL Version A","Dissertation, JOL version A",BITTER,COLD,Study1,F,12,50,Test,User,-,,Recall,Recall1,3744,sweet,0,1840,3235,0,0,,,1
w10042962_jkc,e0fo9w68fu,Nick_Dissertation_EX1,1,129,2020-04-24T16:33:26-07:00,3.6174218654633,5,versionA_stim.csv,JOLVersionA.csv,"JOL Version A","Dissertation, JOL version A",ALLOW,TUCK,Study1,U,78,29,Test,User,-,,Recall,Recall1,3165,deny,0,1661,2281,0,0,,,1
w10042962_jkc,e0fo9w68fu,Nick_Dissertation_EX1,1,130,2020-04-24T16:33:31-07:00,4.4497170448303,5,versionA_stim.csv,JOLVersionA.csv,"JOL Version A","Dissertation, JOL version A",SENTENCE,WORD,Study1,B,31,13,Test,User,-,,Recall,Recall1,4018,word,100,2766,3343,1,1,,,1
w10042962_jkc,e0fo9w68fu,Nick_Dissertation_EX1,1,131,2020-04-24T16:33:35-07:00,4.6955740451813,5,versionA_stim.csv,JOLVersionA.csv,"JOL Version A","Dissertation, JOL version A",HEIGHT,GROWTH,Study1,B,30,23,Test,User,-,,Recall,Recall1,4153,growth,100,2305,3264,1,1,,,1
w10042962_jkc,e0fo9w68fu,Nick_Dissertation_EX1,1,132,2020-04-24T16:33:45-07:00,9.5738399028778,5,versionA_stim.csv,JOLVersionA.csv,"JOL Version A","Dissertation, JOL version A",WAY,OUT,Study1,F,16,49,Test,User,-,,Recall,Recall1,9127,wrong,25,4528,5464,0,0,,,1
w10042962_jkc,e0fo9w68fu,Nick_Dissertation_EX1,1,133,2020-04-24T16:33:49-07:00,4.5143539905548,5,versionA_stim.csv,JOLVersionA.csv,"JOL Version A","Dissertation, JOL version A",SWAN,BIRD,Study1,F,14,38,Test,User,-,,Recall,Recall1,3861,bird,100,2357,3099,1,1,,,1
w10042962_jkc,e0fo9w68fu,Nick_Dissertation_EX1,1,134,2020-04-24T16:33:56-07:00,6.0956790447235,5,versionA_stim.csv,JOLVersionA.csv,"JOL Version A","Dissertation, JOL version A",ARCHITECTURE,DESIGN,Study1,S,51,33,Test,User,-,,Recall,Recall1,5622,design,100,3563,4712,1,1,,,1
w10042962_jkc,e0fo9w68fu,Nick_Dissertation_EX1,1,135,2020-04-24T16:34:05-07:00,9.1899769306183,5,versionA_stim.csv,JOLVersionA.csv,"JOL Version A","Dissertation, JOL version A",DUE,ASSIGNMENT,Study1,S,46,56,Test,User,-,,Recall,Recall1,8772,deadline,22.222222222222,5575,7551,0,0,,,1
w10042962_jkc,e0fo9w68fu,Nick_Dissertation_EX1,1,136,2020-04-24T16:34:12-07:00,7.2766120433807,5,versionA_stim.csv,JOLVersionA.csv,"JOL Version A","Dissertation, JOL version A",KING,VASE,Study1,U,85,8,Test,User,-,,Recall,Recall1,6855,ruler,22.222222222222,3978,5797,0,0,,,1
w10042962_jkc,e0fo9w68fu,Nick_Dissertation_EX1,1,137,2020-04-24T16:34:17-07:00,4.8602380752563,5,versionA_stim.csv,JOLVersionA.csv,"JOL Version A","Dissertation, JOL version A",BEGIN,END,Study1,S,54,14,Test,User,-,,Recall,Recall1,4453,end,100,1666,3664,1,1,,,1
w10042962_jkc,e0fo9w68fu,Nick_Dissertation_EX1,1,138,2020-04-24T16:34:25-07:00,8.043025970459,5,versionA_stim.csv,JOLVersionA.csv,"JOL Version A","Dissertation, JOL version A",GREAT,FANTASTIC,Study1,B,35,24,Test,User,-,,Recall,Recall1,7488,fantastic,100,3504,6686,1,1,,,1
w10042962_jkc,e0fo9w68fu,Nick_Dissertation_EX1,1,139,2020-04-24T16:34:30-07:00,5.0488550662994,5,versionA_stim.csv,JOLVersionA.csv,"JOL Version A","Dissertation, JOL version A",DEATH,BUSINESS,Study1,U,72,15,Test,User,-,,Recall,Recall1,4545,life,33.333333333333,2847,4004,0,0,,,1
w10042962_jkc,e0fo9w68fu,Nick_Dissertation_EX1,1,140,2020-04-24T16:34:36-07:00,5.5317900180817,5,versionA_stim.csv,JOLVersionA.csv,"JOL Version A","Dissertation, JOL version A",MATH,DIVISION,Study1,B,33,53,Test,User,-,,Recall,Recall1,5109,problem,13.333333333333,2787,4217,0,0,,,1
w10042962_jkc,e0fo9w68fu,Nick_Dissertation_EX1,1,141,2020-04-24T16:34:39-07:00,3.1930799484253,5,versionA_stim.csv,JOLVersionA.csv,"JOL Version A","Dissertation, JOL version A",ORCHID,FLOWER,Study1,F,24,67,Test,User,-,,Recall,Recall1,2805,plant,18.181818181818,1605,2272,0,0,,,1
w10042962_jkc,e0fo9w68fu,Nick_Dissertation_EX1,1,142,2020-04-24T16:34:42-07:00,3.4115209579468,5,versionA_stim.csv,JOLVersionA.csv,"JOL Version A","Dissertation, JOL version A",GEOLOGY,ROCK,Study1,F,19,47,Test,User,-,,Recall,Recall1,2950,rock,100,1500,2009,1,1,,,1
w10042962_jkc,e0fo9w68fu,Nick_Dissertation_EX1,1,143,2020-04-24T16:34:46-07:00,3.6362681388855,5,versionA_stim.csv,JOLVersionA.csv,"JOL Version A","Dissertation, JOL version A",CLOTHES,ATTIRE,Study1,B,43,82,Test,User,-,,Recall,Recall1,3231,,0,-1,-1,0,0,,,1
w10042962_jkc,e0fo9w68fu,Nick_Dissertation_EX1,1,144,2020-04-24T16:34:48-07:00,2.2034659385681,5,versionA_stim.csv,JOLVersionA.csv,"JOL Version A","Dissertation, JOL version A",WINE,CHEESE,Study1,S,57,52,Test,User,-,,Recall,Recall1,1773,,0,-1,-1,0,0,,,1
w10042962_jkc,e0fo9w68fu,Nick_Dissertation_EX1,1,145,2020-04-24T16:34:52-07:00,4.4954669475555,5,versionA_stim.csv,JOLVersionA.csv,"JOL Version A","Dissertation, JOL version A",FIRE,BLAZE,Study1,B,45,70,Test,User,-,,Recall,Recall1,4007,hot,0,2821,3241,0,0,,,1
w10042962_jkc,e0fo9w68fu,Nick_Dissertation_EX1,1,146,2020-04-24T16:34:55-07:00,2.7935590744019,5,versionA_stim.csv,JOLVersionA.csv,"JOL Version A","Dissertation, JOL version A",NUMBER,AMOUNT,Study1,S,47,16,Test,User,-,,Recall,Recall1,2245,,0,-1,-1,0,0,,,1
w10042962_jkc,e0fo9w68fu,Nick_Dissertation_EX1,1,147,2020-04-24T16:35:01-07:00,6.165650844574,5,versionA_stim.csv,JOLVersionA.csv,"JOL Version A","Dissertation, JOL version A",DARK,CAVE,Study1,B,28,28,Test,User,-,,Recall,Recall1,5753,,0,-1,-1,0,0,,,1
w10042962_jkc,e0fo9w68fu,Nick_Dissertation_EX1,1,148,2020-04-24T16:35:05-07:00,3.3065211772919,5,versionA_stim.csv,JOLVersionA.csv,"JOL Version A","Dissertation, JOL version A",TUNA,FISH,Study1,F,25,83,Test,User,-,,Recall,Recall1,2892,fish,100,1357,1816,1,1,,,1
w10042962_jkc,e0fo9w68fu,Nick_Dissertation_EX1,1,149,2020-04-24T16:35:08-07:00,3.20774102211,5,versionA_stim.csv,JOLVersionA.csv,"JOL Version A","Dissertation, JOL version A",ART,LION,Study1,U,79,30,Test,User,-,,Recall,Recall1,2771,,0,-1,-1,0,0,,,1
w10042962_jkc,e0fo9w68fu,Nick_Dissertation_EX1,1,150,2020-04-24T16:35:13-07:00,4.8169758319855,5,versionA_stim.csv,JOLVersionA.csv,"JOL Version A","Dissertation, JOL version A",LOCATION,SITE,Study1,S,48,81,Test,User,-,,Recall,Recall1,4372,destination,13.333333333333,1645,3544,0,0,,,1
w10042962_jkc,e0fo9w68fu,Nick_Dissertation_EX1,1,151,2020-04-24T16:35:44-07:00,31.450448989868,5,versionA_stim.csv,JOLVersionA.csv,"JOL Version A","Dissertation, JOL version A",DEBATE,SIGHT,Study1,U,73,58,Test,User,-,,Recall,Recall1,31009,quarrel,0,28824,30131,0,0,,,1
w10042962_jkc,e0fo9w68fu,Nick_Dissertation_EX1,1,152,2020-04-24T16:35:50-07:00,6.1982131004333,5,versionA_stim.csv,JOLVersionA.csv,"JOL Version A","Dissertation, JOL version A",HORNET,STING,Study1,F,11,72,Test,User,-,,Recall,Recall1,5641,wasp,22.222222222222,3232,4817,0,0,,,1
w10042962_jkc,e0fo9w68fu,Nick_Dissertation_EX1,1,153,2020-04-24T16:35:54-07:00,3.6894299983978,5,versionA_stim.csv,JOLVersionA.csv,"JOL Version A","Dissertation, JOL version A",STRONG,ACCIDENT,Study1,U,80,57,Test,User,-,,Recall,Recall1,3287,weak,16.666666666667,1900,2533,0,0,,,1
w10042962_jkc,e0fo9w68fu,Nick_Dissertation_EX1,1,154,2020-04-24T16:36:00-07:00,6.0304260253906,5,versionA_stim.csv,JOLVersionA.csv,"JOL Version A","Dissertation, JOL version A",EDITOR,NEWS,Study1,F,10,69,Test,User,-,,Recall,Recall1,5626,newspaper,61.538461538462,2295,4389,0,0,,,1
w10042962_jkc,e0fo9w68fu,Nick_Dissertation_EX1,1,155,2020-04-24T16:36:04-07:00,4.2269690036774,5,versionA_stim.csv,JOLVersionA.csv,"JOL Version A","Dissertation, JOL version A",SLEEP,DROWSY,Study1,B,41,21,Test,User,-,,Recall,Recall1,3828,bed,22.222222222222,2920,3237,0,0,,,1
w10042962_jkc,e0fo9w68fu,Nick_Dissertation_EX1,1,156,2020-04-24T16:36:10-07:00,5.6824238300323,5,versionA_stim.csv,JOLVersionA.csv,"JOL Version A","Dissertation, JOL version A",DISCUSSION,TALK,Study1,F,21,31,Test,User,-,,Recall,Recall1,5226,people,20,3747,4460,0,0,,,1
w10042962_jkc,e0fo9w68fu,Nick_Dissertation_EX1,1,157,2020-04-24T16:36:14-07:00,3.9126720428467,5,versionA_stim.csv,JOLVersionA.csv,"JOL Version A","Dissertation, JOL version A",ARTERY,BRONZE,Study1,U,74,12,Test,User,-,,Recall,Recall1,3391,blood,36.363636363636,1844,2705,0,0,,,1
w10042962_jkc,e0fo9w68fu,Nick_Dissertation_EX1,1,158,2020-04-24T16:36:18-07:00,3.7748310565948,5,versionA_stim.csv,JOLVersionA.csv,"JOL Version A","Dissertation, JOL version A",KIDNEY,LIVER,Study1,S,53,10,Test,User,-,,Recall,Recall1,3348,liver,100,1480,2182,1,1,,,1
w10042962_jkc,e0fo9w68fu,Nick_Dissertation_EX1,1,159,2020-04-24T16:36:24-07:00,5.8746740818024,5,versionA_stim.csv,JOLVersionA.csv,"JOL Version A","Dissertation, JOL version A",DISCOVER,FLOOR,Study1,U,71,55,Test,User,-,,Recall,Recall1,5479,travel,18.181818181818,3101,5126,0,0,,,1
w10042962_jkc,e0fo9w68fu,Nick_Dissertation_EX1,1,160,2020-04-24T16:36:27-07:00,3.5896599292755,5,versionA_stim.csv,JOLVersionA.csv,"JOL Version A","Dissertation, JOL version A",BUG,WASP,Study1,B,32,11,Test,User,-,,Recall,Recall1,3154,wasp,100,2229,2824,1,1,,,1
w10042962_jkc,e0fo9w68fu,Nick_Dissertation_EX1,1,161,2020-04-24T16:36:32-07:00,4.5501379966736,5,versionA_stim.csv,JOLVersionA.csv,"JOL Version A","Dissertation, JOL version A",VALLEY,ADD,Study1,U,82,25,Test,User,-,,Recall,Recall1,4153,grass,25,2617,3662,0,0,,,1
w10042962_jkc,e0fo9w68fu,Nick_Dissertation_EX1,1,162,2020-04-24T16:36:35-07:00,3.492938041687,5,versionA_stim.csv,JOLVersionA.csv,"JOL Version A","Dissertation, JOL version A",LAW,ATTORNEY,Study1,B,34,54,Test,User,-,,Recall,Recall1,3037,jury,33.333333333333,2192,2841,0,0,,,1
w10042962_jkc,e0fo9w68fu,Nick_Dissertation_EX1,1,163,2020-04-24T16:36:38-07:00,3.0380129814148,5,versionA_stim.csv,JOLVersionA.csv,"JOL Version A","Dissertation, JOL version A",PAW,DOG,Study1,F,15,32,Test,User,-,,Recall,Recall1,2640,dog,100,2075,2447,1,1,,,1
w10042962_jkc,e0fo9w68fu,Nick_Dissertation_EX1,1,164,2020-04-24T16:36:41-07:00,2.8259038925171,5,versionA_stim.csv,JOLVersionA.csv,"JOL Version A","Dissertation, JOL version A",SMELL,STENCH,Study1,B,42,65,Test,User,-,,Recall,Recall1,2439,odor,0,1569,2235,0,0,,,1
w10042962_jkc,e0fo9w68fu,Nick_Dissertation_EX1,1,165,2020-04-24T16:36:44-07:00,3.0623910427094,5,versionA_stim.csv,JOLVersionA.csv,"JOL Version A","Dissertation, JOL version A",LETTUCE,SALAD,Study1,S,59,43,Test,User,-,,Recall,Recall1,2654,salad,100,1474,2480,1,1,,,1
w10042962_jkc,e0fo9w68fu,Nick_Dissertation_EX1,1,166,2020-04-24T16:36:50-07:00,5.5062229633331,5,versionA_stim.csv,JOLVersionA.csv,"JOL Version A","Dissertation, JOL version A",WAGE,MONEY,Study1,F,8,62,Test,User,-,,Recall,Recall1,5086,pay,25,2167,4909,0,0,,,1
w10042962_jkc,e0fo9w68fu,Nick_Dissertation_EX1,1,167,2020-04-24T16:36:58-07:00,8.0425000190735,5,versionA_stim.csv,JOLVersionA.csv,"JOL Version A","Dissertation, JOL version A",HAPPY,CAR,Study1,U,77,79,Test,User,-,,Recall,Recall1,7551,excited,20,4467,7298,0,0,,,1
w10042962_jkc,e0fo9w68fu,Nick_Dissertation_EX1,1,168,2020-04-24T16:37:01-07:00,2.861428976059,5,versionA_stim.csv,JOLVersionA.csv,"JOL Version A","Dissertation, JOL version A",CREDIT,CARD,Study1,F,23,74,Test,User,-,,Recall,Recall1,2263,card,100,1286,2106,1,1,,,1
w10042962_jkc,e0fo9w68fu,Nick_Dissertation_EX1,1,169,2020-04-24T16:37:04-07:00,3.0101959705353,5,versionA_stim.csv,JOLVersionA.csv,"JOL Version A","Dissertation, JOL version A",POP,SODA,Study1,S,56,73,Test,User,-,,Recall,Recall1,2632,corn,25,1878,2308,0,0,,,1
w10042962_jkc,e0fo9w68fu,Nick_Dissertation_EX1,1,170,2020-04-24T16:37:08-07:00,4.4674851894379,5,versionA_stim.csv,JOLVersionA.csv,"JOL Version A","Dissertation, JOL version A",WORK,CHORE,Study1,B,39,27,Test,User,-,,Recall,Recall1,3957,chore,100,3005,3835,1,1,,,1
w10042962_jkc,e0fo9w68fu,Nick_Dissertation_EX1,1,171,2020-04-24T16:37:14-07:00,6.0544798374176,5,versionA_stim.csv,JOLVersionA.csv,"JOL Version A","Dissertation, JOL version A",FULL,ENOUGH,Study1,B,26,64,Test,User,-,,Recall,Recall1,5460,enough,100,4101,5128,1,1,,,1
w10042962_jkc,e0fo9w68fu,Nick_Dissertation_EX1,1,172,2020-04-24T16:37:17-07:00,2.7906501293182,5,versionA_stim.csv,JOLVersionA.csv,"JOL Version A","Dissertation, JOL version A",TAKE,SEIZE,Study1,B,29,45,Test,User,-,,Recall,Recall1,2228,,0,-1,-1,0,0,,,1
w10042962_jkc,e0fo9w68fu,Nick_Dissertation_EX1,1,173,2020-04-24T16:37:22-07:00,5.1448609828949,5,versionA_stim.csv,JOLVersionA.csv,"JOL Version A","Dissertation, JOL version A",CASH,WOULD,Study1,U,83,59,Test,User,-,,Recall,Recall1,4669,wage,22.222222222222,3042,3919,0,0,,,1
w10042962_jkc,e0fo9w68fu,Nick_Dissertation_EX1,1,174,2020-04-24T16:37:26-07:00,4.2999088764191,5,versionA_stim.csv,JOLVersionA.csv,"JOL Version A","Dissertation, JOL version A",DUMP,WASTE,Study1,S,49,26,Test,User,-,,Recall,Recall1,3892,fill,0,2977,3597,0,0,,,1
w10042962_jkc,e0fo9w68fu,Nick_Dissertation_EX1,1,175,2020-04-24T16:37:30-07:00,3.3694441318512,5,versionA_stim.csv,JOLVersionA.csv,"JOL Version A","Dissertation, JOL version A",CHISEL,HAMMER,Study1,F,9,48,Test,User,-,,Recall,Recall1,2930,hammer,100,1981,2762,1,1,,,1
w10042962_jkc,e0fo9w68fu,Nick_Dissertation_EX1,1,176,2020-04-24T16:37:34-07:00,4.11439204216,5,versionA_stim.csv,JOLVersionA.csv,"JOL Version A","Dissertation, JOL version A",KEY,LATCH,Study1,B,36,37,Test,User,-,,Recall,Recall1,3648,,0,-1,-1,0,0,,,1
w10042962_jkc,e0fo9w68fu,Nick_Dissertation_EX1,1,177,2020-04-24T16:37:39-07:00,5.6199889183044,5,versionA_stim.csv,JOLVersionA.csv,"JOL Version A","Dissertation, JOL version A",REVOLUTION,WAR,Study1,F,20,63,Test,User,-,,Recall,Recall1,5242,war,100,4249,4839,1,1,,,1
w10042962_jkc,e0fo9w68fu,Nick_Dissertation_EX1,1,178,2020-04-24T16:37:43-07:00,3.2989621162415,5,versionA_stim.csv,JOLVersionA.csv,"JOL Version A","Dissertation, JOL version A",TRIAL,JURY,Study1,S,50,44,Test,User,-,,Recall,Recall1,2905,jury,100,1971,2653,1,1,,,1
w10042962_jkc,e0fo9w68fu,Nick_Dissertation_EX1,1,179,2020-04-24T16:37:56-07:00,13.188565969467,5,versionA_stim.csv,JOLVersionA.csv,"JOL Version A","Dissertation, JOL version A",,,,,,0,Instruct,-,10,"You will now be presented with a new set of word pairs. Please study each pair. Remember that your memory will be tested! When finished, press Enter to move to the next pair.",Initial_Instruct,Instruct4,12733,,,-1,-1,,,,,1
w10042962_jkc,e0fo9w68fu,Nick_Dissertation_EX1,1,180,2020-04-24T16:39:52-07:00,116.03996396065,5,versionA_stim.csv,JOLVersionA.csv,"JOL Version A","Dissertation, JOL version A",,,,,,0,Instruct,,10,"You will again be asked to rate your ability to remember these items using a 0 to 100 scale. Remember to use the full range of the scale!",,Instruct10,115415,,,-1,-1,,,,,1
w10042962_jkc,e0fo9w68fu,Nick_Dissertation_EX1,1,181,2020-04-24T16:39:53-07:00,1.4529118537903,5,versionA_stim.csv,JOLVersionA.csv,"JOL Version A","Dissertation, JOL version A",,,,,,0,Instruct,User,-,"Press Enter when you are readty to begin",,Instruct11,897,,,-1,-1,,,,,1
w10042962_jkc,e0fo9w68fu,Nick_Dissertation_EX1,1,182,2020-04-24T16:39:58-07:00,4.93301820755,5,versionA_stim.csv,JOLVersionA.csv,"JOL Version A","Dissertation, JOL version A",CAMP,ADVENTURE,BUFFER3,Buffer,95,92,JOL,User,-,"How likely are you to correctly recall the second item in the pair?|Type your response on a scale from 0-100 and then press Enter.",Study/JOL,BUFFER3,4522,,,4077,4189,,,,50,1
w10042962_jkc,e0fo9w68fu,Nick_Dissertation_EX1,1,183,2020-04-24T16:40:01-07:00,2.1781868934631,5,versionA_stim.csv,JOLVersionA.csv,"JOL Version A","Dissertation, JOL version A",ICE,FROZEN,BUFFER3,Buffer,94,95,JOL,User,-,"How likely are you to correctly recall the second item in the pair?|Type your response on a scale from 0-100 and then press Enter.",Study/JOL,BUFFER3,1765,,,1332,1448,,,,50,1
w10042962_jkc,e0fo9w68fu,Nick_Dissertation_EX1,1,184,2020-04-24T16:40:04-07:00,3.0924351215363,5,versionA_stim.csv,JOLVersionA.csv,"JOL Version A","Dissertation, JOL version A",SHRIMP,FISH,BUFFER3,Buffer,93,93,JOL,User,-,"How likely are you to correctly recall the second item in the pair?|Type your response on a scale from 0-100 and then press Enter.",Study/JOL,BUFFER3,2643,,,1951,2268,,,,25,1
w10042962_jkc,e0fo9w68fu,Nick_Dissertation_EX1,1,185,2020-04-24T16:40:07-07:00,3.0177118778229,5,versionA_stim.csv,JOLVersionA.csv,"JOL Version A","Dissertation, JOL version A",CARROT,POTATO,BUFFER3,Buffer,91,96,JOL,User,-,"How likely are you to correctly recall the second item in the pair?|Type your response on a scale from 0-100 and then press Enter.",Study/JOL,BUFFER3,2518,,,2069,2175,,,,20,1
w10042962_jkc,e0fo9w68fu,Nick_Dissertation_EX1,1,186,2020-04-24T16:40:10-07:00,2.9353809356689,5,versionA_stim.csv,JOLVersionA.csv,"JOL Version A","Dissertation, JOL version A",NOODLE,STRING,BUFFER3,Buffer,92,94,JOL,User,-,"How likely are you to correctly recall the second item in the pair?|Type your response on a scale from 0-100 and then press Enter.",Study/JOL,BUFFER3,2484,,,2064,2200,,,,10,1
w10042962_jkc,e0fo9w68fu,Nick_Dissertation_EX1,1,187,2020-04-24T16:40:13-07:00,3.2218689918518,5,versionA_stim.csv,JOLVersionA.csv,"JOL Version A","Dissertation, JOL version A",MAIN,SCAR,Study2,U,175,148,JOL,User,-,"How likely are you to correctly recall the second item in the pair?|Type your response on a scale from 0-100 and then press Enter.",Study/JOL,"Study Phase2",2796,,,2503,2503,,,,0,1
w10042962_jkc,e0fo9w68fu,Nick_Dissertation_EX1,1,188,2020-04-24T16:40:15-07:00,2.5994610786438,5,versionA_stim.csv,JOLVersionA.csv,"JOL Version A","Dissertation, JOL version A",KEYS,JOKE,Study2,U,165,129,JOL,User,-,"How likely are you to correctly recall the second item in the pair?|Type your response on a scale from 0-100 and then press Enter.",Study/JOL,"Study Phase2",2155,,,1580,1581,,,,0,1
w10042962_jkc,e0fo9w68fu,Nick_Dissertation_EX1,1,189,2020-04-24T16:40:18-07:00,2.4946420192719,5,versionA_stim.csv,JOLVersionA.csv,"JOL Version A","Dissertation, JOL version A",LISTEN,FICTION,Study2,U,164,103,JOL,User,-,"How likely are you to correctly recall the second item in the pair?|Type your response on a scale from 0-100 and then press Enter.",Study/JOL,"Study Phase2",2102,,,1775,1775,,,,0,1
w10042962_jkc,e0fo9w68fu,Nick_Dissertation_EX1,1,190,2020-04-24T16:40:22-07:00,4.2713758945465,5,versionA_stim.csv,JOLVersionA.csv,"JOL Version A","Dissertation, JOL version A",SAFETY,SEATBELT,Study2,S,147,116,JOL,User,-,"How likely are you to correctly recall the second item in the pair?|Type your response on a scale from 0-100 and then press Enter.",Study/JOL,"Study Phase2",3879,,,3123,3495,,,,50,1
w10042962_jkc,e0fo9w68fu,Nick_Dissertation_EX1,1,191,2020-04-24T16:40:25-07:00,3.0151891708374,5,versionA_stim.csv,JOLVersionA.csv,"JOL Version A","Dissertation, JOL version A",VEHICLE,CHARM,Study2,U,160,124,JOL,User,-,"How likely are you to correctly recall the second item in the pair?|Type your response on a scale from 0-100 and then press Enter.",Study/JOL,"Study Phase2",2604,,,2282,2282,,,,0,1
w10042962_jkc,e0fo9w68fu,Nick_Dissertation_EX1,1,192,2020-04-24T16:40:29-07:00,4.2080488204956,5,versionA_stim.csv,JOLVersionA.csv,"JOL Version A","Dissertation, JOL version A",ADJOURN,END,Study2,F,101,158,JOL,User,-,"How likely are you to correctly recall the second item in the pair?|Type your response on a scale from 0-100 and then press Enter.",Study/JOL,"Study Phase2",3827,,,3081,3662,,,,25,1
w10042962_jkc,e0fo9w68fu,Nick_Dissertation_EX1,1,193,2020-04-24T16:40:33-07:00,3.6302790641785,5,versionA_stim.csv,JOLVersionA.csv,"JOL Version A","Dissertation, JOL version A",EXTENSION,LONG,Study2,F,96,111,JOL,User,-,"How likely are you to correctly recall the second item in the pair?|Type your response on a scale from 0-100 and then press Enter.",Study/JOL,"Study Phase2",3225,,,2620,2859,,,,80,1
w10042962_jkc,e0fo9w68fu,Nick_Dissertation_EX1,1,194,2020-04-24T16:40:36-07:00,3.0264029502869,5,versionA_stim.csv,JOLVersionA.csv,"JOL Version A","Dissertation, JOL version A",SCALP,HEAD,Study2,F,105,150,JOL,User,-,"How likely are you to correctly recall the second item in the pair?|Type your response on a scale from 0-100 and then press Enter.",Study/JOL,"Study Phase2",2628,,,2158,2315,,,,40,1
w10042962_jkc,e0fo9w68fu,Nick_Dissertation_EX1,1,195,2020-04-24T16:40:41-07:00,4.946494102478,5,versionA_stim.csv,JOLVersionA.csv,"JOL Version A","Dissertation, JOL version A",ALONE,LONELY,Study2,S,145,119,JOL,User,-,"How likely are you to correctly recall the second item in the pair?|Type your response on a scale from 0-100 and then press Enter.",Study/JOL,"Study Phase2",4547,,,3264,3716,,,,25,1
w10042962_jkc,e0fo9w68fu,Nick_Dissertation_EX1,1,196,2020-04-24T16:40:46-07:00,4.6100699901581,5,versionA_stim.csv,JOLVersionA.csv,"JOL Version A","Dissertation, JOL version A",LEASE,TOIL,Study2,U,170,137,JOL,User,-,"How likely are you to correctly recall the second item in the pair?|Type your response on a scale from 0-100 and then press Enter.",Study/JOL,"Study Phase2",4054,,,3776,3777,,,,0,1
w10042962_jkc,e0fo9w68fu,Nick_Dissertation_EX1,1,197,2020-04-24T16:40:48-07:00,2.8357009887695,5,versionA_stim.csv,JOLVersionA.csv,"JOL Version A","Dissertation, JOL version A",MIRROR,CHILDREN,Study2,U,174,98,JOL,User,-,"How likely are you to correctly recall the second item in the pair?|Type your response on a scale from 0-100 and then press Enter.",Study/JOL,"Study Phase2",2407,,,1703,1703,,,,0,1
w10042962_jkc,e0fo9w68fu,Nick_Dissertation_EX1,1,198,2020-04-24T16:40:51-07:00,2.115984916687,5,versionA_stim.csv,JOLVersionA.csv,"JOL Version A","Dissertation, JOL version A",INCENSE,SMELL,Study2,F,110,145,JOL,User,-,"How likely are you to correctly recall the second item in the pair?|Type your response on a scale from 0-100 and then press Enter.",Study/JOL,"Study Phase2",1730,,,1395,1395,,,,0,1
w10042962_jkc,e0fo9w68fu,Nick_Dissertation_EX1,1,199,2020-04-24T16:40:55-07:00,4.311103105545,5,versionA_stim.csv,JOLVersionA.csv,"JOL Version A","Dissertation, JOL version A",SHEARS,SCISSORS,Study2,F,112,174,JOL,User,-,"How likely are you to correctly recall the second item in the pair?|Type your response on a scale from 0-100 and then press Enter.",Study/JOL,"Study Phase2",3838,,,2706,3137,,,,25,1
w10042962_jkc,e0fo9w68fu,Nick_Dissertation_EX1,1,200,2020-04-24T16:40:58-07:00,3.1650230884552,5,versionA_stim.csv,JOLVersionA.csv,"JOL Version A","Dissertation, JOL version A",TRUTH,LIE,Study2,S,148,164,JOL,User,-,"How likely are you to correctly recall the second item in the pair?|Type your response on a scale from 0-100 and then press Enter.",Study/JOL,"Study Phase2",2751,,,2232,2407,,,,50,1
w10042962_jkc,e0fo9w68fu,Nick_Dissertation_EX1,1,201,2020-04-24T16:41:01-07:00,3.0576548576355,5,versionA_stim.csv,JOLVersionA.csv,"JOL Version A","Dissertation, JOL version A",MULE,DONKEY,Study2,F,108,169,JOL,User,-,"How likely are you to correctly recall the second item in the pair?|Type your response on a scale from 0-100 and then press Enter.",Study/JOL,"Study Phase2",2682,,,1898,2358,,,,70,1
w10042962_jkc,e0fo9w68fu,Nick_Dissertation_EX1,1,202,2020-04-24T16:41:04-07:00,3.1017210483551,5,versionA_stim.csv,JOLVersionA.csv,"JOL Version A","Dissertation, JOL version A",DRIVER,CAR,Study2,F,106,99,JOL,User,-,"How likely are you to correctly recall the second item in the pair?|Type your response on a scale from 0-100 and then press Enter.",Study/JOL,"Study Phase2",2656,,,2167,2373,,,,90,1
w10042962_jkc,e0fo9w68fu,Nick_Dissertation_EX1,1,203,2020-04-24T16:41:09-07:00,4.3078629970551,5,versionA_stim.csv,JOLVersionA.csv,"JOL Version A","Dissertation, JOL version A",CANDLE,WAX,Study2,S,139,130,JOL,User,-,"How likely are you to correctly recall the second item in the pair?|Type your response on a scale from 0-100 and then press Enter.",Study/JOL,"Study Phase2",3947,,,2165,3583,,,,60,1
w10042962_jkc,e0fo9w68fu,Nick_Dissertation_EX1,1,204,2020-04-24T16:41:12-07:00,3.3379480838776,5,versionA_stim.csv,JOLVersionA.csv,"JOL Version A","Dissertation, JOL version A",DRY,WET,Study2,S,146,108,JOL,User,-,"How likely are you to correctly recall the second item in the pair?|Type your response on a scale from 0-100 and then press Enter.",Study/JOL,"Study Phase2",2944,,,2411,2548,,,,40,1
w10042962_jkc,e0fo9w68fu,Nick_Dissertation_EX1,1,205,2020-04-24T16:41:15-07:00,2.7856199741364,5,versionA_stim.csv,JOLVersionA.csv,"JOL Version A","Dissertation, JOL version A",EARTH,GROUND,Study2,S,144,132,JOL,User,-,"How likely are you to correctly recall the second item in the pair?|Type your response on a scale from 0-100 and then press Enter.",Study/JOL,"Study Phase2",2273,,,1697,1884,,,,30,1
w10042962_jkc,e0fo9w68fu,Nick_Dissertation_EX1,1,206,2020-04-24T16:41:19-07:00,4.0484428405762,5,versionA_stim.csv,JOLVersionA.csv,"JOL Version A","Dissertation, JOL version A",PLANE,AIRCRAFT,Study2,B,129,155,JOL,User,-,"How likely are you to correctly recall the second item in the pair?|Type your response on a scale from 0-100 and then press Enter.",Study/JOL,"Study Phase2",3581,,,2895,3141,,,,90,1
w10042962_jkc,e0fo9w68fu,Nick_Dissertation_EX1,1,207,2020-04-24T16:41:22-07:00,3.1785061359406,5,versionA_stim.csv,JOLVersionA.csv,"JOL Version A","Dissertation, JOL version A",FIGHT,BRAWL,Study2,B,135,138,JOL,User,-,"How likely are you to correctly recall the second item in the pair?|Type your response on a scale from 0-100 and then press Enter.",Study/JOL,"Study Phase2",2742,,,2036,2377,,,,60,1
w10042962_jkc,e0fo9w68fu,Nick_Dissertation_EX1,1,208,2020-04-24T16:41:25-07:00,2.8107950687408,5,versionA_stim.csv,JOLVersionA.csv,"JOL Version A","Dissertation, JOL version A",BEST,FAVORITE,Study2,B,125,105,JOL,User,-,"How likely are you to correctly recall the second item in the pair?|Type your response on a scale from 0-100 and then press Enter.",Study/JOL,"Study Phase2",2421,,,1980,2108,,,,30,1
w10042962_jkc,e0fo9w68fu,Nick_Dissertation_EX1,1,209,2020-04-24T16:41:27-07:00,2.3708379268646,5,versionA_stim.csv,JOLVersionA.csv,"JOL Version A","Dissertation, JOL version A",CACTUS,PLANT,Study2,F,98,117,JOL,User,-,"How likely are you to correctly recall the second item in the pair?|Type your response on a scale from 0-100 and then press Enter.",Study/JOL,"Study Phase2",1958,,,1442,1575,,,,30,1
w10042962_jkc,e0fo9w68fu,Nick_Dissertation_EX1,1,210,2020-04-24T16:41:30-07:00,3.1006059646606,5,versionA_stim.csv,JOLVersionA.csv,"JOL Version A","Dissertation, JOL version A",CHERRY,RED,Study2,F,104,121,JOL,User,-,"How likely are you to correctly recall the second item in the pair?|Type your response on a scale from 0-100 and then press Enter.",Study/JOL,"Study Phase2",2603,,,1887,2231,,,,80,1
w10042962_jkc,e0fo9w68fu,Nick_Dissertation_EX1,1,211,2020-04-24T16:41:33-07:00,2.5148611068726,5,versionA_stim.csv,JOLVersionA.csv,"JOL Version A","Dissertation, JOL version A",DOCUMENT,PAPER,Study2,F,109,104,JOL,User,-,"How likely are you to correctly recall the second item in the pair?|Type your response on a scale from 0-100 and then press Enter.",Study/JOL,"Study Phase2",2128,,,1525,1833,,,,80,1
w10042962_jkc,e0fo9w68fu,Nick_Dissertation_EX1,1,212,2020-04-24T16:41:35-07:00,2.6904468536377,5,versionA_stim.csv,JOLVersionA.csv,"JOL Version A","Dissertation, JOL version A",CHOP,CUT,Study2,F,107,126,JOL,User,-,"How likely are you to correctly recall the second item in the pair?|Type your response on a scale from 0-100 and then press Enter.",Study/JOL,"Study Phase2",2239,,,1576,2063,,,,75,1
w10042962_jkc,e0fo9w68fu,Nick_Dissertation_EX1,1,213,2020-04-24T16:41:39-07:00,3.4072980880737,5,versionA_stim.csv,JOLVersionA.csv,"JOL Version A","Dissertation, JOL version A",PHONE,COMMUNICATION,Study2,S,149,161,JOL,User,-,"How likely are you to correctly recall the second item in the pair?|Type your response on a scale from 0-100 and then press Enter.",Study/JOL,"Study Phase2",2979,,,2376,2557,,,,50,1
w10042962_jkc,e0fo9w68fu,Nick_Dissertation_EX1,1,214,2020-04-24T16:41:42-07:00,3.5363869667053,5,versionA_stim.csv,JOLVersionA.csv,"JOL Version A","Dissertation, JOL version A",Shell,SHAKE,Study2,U,163,135,JOL,User,-,"How likely are you to correctly recall the second item in the pair?|Type your response on a scale from 0-100 and then press Enter.",Study/JOL,"Study Phase2",3151,,,2824,2824,,,,0,1
w10042962_jkc,e0fo9w68fu,Nick_Dissertation_EX1,1,215,2020-04-24T16:41:48-07:00,5.5596849918365,5,versionA_stim.csv,JOLVersionA.csv,"JOL Version A","Dissertation, JOL version A",ELEMENT,CARBON,Study2,S,141,118,JOL,User,-,"How likely are you to correctly recall the second item in the pair?|Type your response on a scale from 0-100 and then press Enter.",Study/JOL,"Study Phase2",5161,,,4494,4806,,,,20,1
w10042962_jkc,e0fo9w68fu,Nick_Dissertation_EX1,1,216,2020-04-24T16:41:53-07:00,5.5889461040497,5,versionA_stim.csv,JOLVersionA.csv,"JOL Version A","Dissertation, JOL version A",RIGHTS,EQUAL,Study2,S,137,112,JOL,User,-,"How likely are you to correctly recall the second item in the pair?|Type your response on a scale from 0-100 and then press Enter.",Study/JOL,"Study Phase2",5189,,,2806,4809,,,,90,1
w10042962_jkc,e0fo9w68fu,Nick_Dissertation_EX1,1,217,2020-04-24T16:41:56-07:00,2.5669519901276,5,versionA_stim.csv,JOLVersionA.csv,"JOL Version A","Dissertation, JOL version A",ROD,REEL,Study2,S,150,102,JOL,User,-,"How likely are you to correctly recall the second item in the pair?|Type your response on a scale from 0-100 and then press Enter.",Study/JOL,"Study Phase2",2154,,,1671,1856,,,,90,1
w10042962_jkc,e0fo9w68fu,Nick_Dissertation_EX1,1,218,2020-04-24T16:41:58-07:00,2.091728925705,5,versionA_stim.csv,JOLVersionA.csv,"JOL Version A","Dissertation, JOL version A",HONEST,TRUTHFUL,Study2,B,133,120,JOL,User,-,"How likely are you to correctly recall the second item in the pair?|Type your response on a scale from 0-100 and then press Enter.",Study/JOL,"Study Phase2",1696,,,1203,1375,,,,90,1
w10042962_jkc,e0fo9w68fu,Nick_Dissertation_EX1,1,219,2020-04-24T16:42:00-07:00,1.8811459541321,5,versionA_stim.csv,JOLVersionA.csv,"JOL Version A","Dissertation, JOL version A",FRUIT,STRAWBERRY,Study2,B,124,142,JOL,User,-,"How likely are you to correctly recall the second item in the pair?|Type your response on a scale from 0-100 and then press Enter.",Study/JOL,"Study Phase2",1508,,,1009,1184,,,,90,1
w10042962_jkc,e0fo9w68fu,Nick_Dissertation_EX1,1,220,2020-04-24T16:42:04-07:00,3.7959990501404,5,versionA_stim.csv,JOLVersionA.csv,"JOL Version A","Dissertation, JOL version A",STRETCH,CLOTH,Study2,U,157,153,JOL,User,-,"How likely are you to correctly recall the second item in the pair?|Type your response on a scale from 0-100 and then press Enter.",Study/JOL,"Study Phase2",3395,,,3036,3036,,,,0,1
w10042962_jkc,e0fo9w68fu,Nick_Dissertation_EX1,1,221,2020-04-24T16:42:08-07:00,4.0000720024109,5,versionA_stim.csv,JOLVersionA.csv,"JOL Version A","Dissertation, JOL version A",TANTRUM,TEMPER,Study2,S,154,127,JOL,User,-,"How likely are you to correctly recall the second item in the pair?|Type your response on a scale from 0-100 and then press Enter.",Study/JOL,"Study Phase2",3624,,,3049,3463,,,,15,1
w10042962_jkc,e0fo9w68fu,Nick_Dissertation_EX1,1,222,2020-04-24T16:42:10-07:00,2.6438839435577,5,versionA_stim.csv,JOLVersionA.csv,"JOL Version A","Dissertation, JOL version A",MASON,JAR,Study2,S,138,100,JOL,User,-,"How likely are you to correctly recall the second item in the pair?|Type your response on a scale from 0-100 and then press Enter.",Study/JOL,"Study Phase2",2213,,,1734,1882,,,,90,1
w10042962_jkc,e0fo9w68fu,Nick_Dissertation_EX1,1,223,2020-04-24T16:42:13-07:00,2.5067200660706,5,versionA_stim.csv,JOLVersionA.csv,"JOL Version A","Dissertation, JOL version A",SUN,TAN,Study2,S,155,170,JOL,User,-,"How likely are you to correctly recall the second item in the pair?|Type your response on a scale from 0-100 and then press Enter.",Study/JOL,"Study Phase2",2107,,,1643,1786,,,,90,1
w10042962_jkc,e0fo9w68fu,Nick_Dissertation_EX1,1,224,2020-04-24T16:42:15-07:00,2.3247849941254,5,versionA_stim.csv,JOLVersionA.csv,"JOL Version A","Dissertation, JOL version A",FUZZY,BANG,Study2,U,168,166,JOL,User,-,"How likely are you to correctly recall the second item in the pair?|Type your response on a scale from 0-100 and then press Enter.",Study/JOL,"Study Phase2",1924,,,1649,1649,,,,0,1
w10042962_jkc,e0fo9w68fu,Nick_Dissertation_EX1,1,225,2020-04-24T16:42:19-07:00,4.1638939380646,5,versionA_stim.csv,JOLVersionA.csv,"JOL Version A","Dissertation, JOL version A",LITTER,TRASH,Study2,F,103,114,JOL,User,-,"How likely are you to correctly recall the second item in the pair?|Type your response on a scale from 0-100 and then press Enter.",Study/JOL,"Study Phase2",3801,,,2406,3451,,,,70,1
w10042962_jkc,e0fo9w68fu,Nick_Dissertation_EX1,1,226,2020-04-24T16:42:22-07:00,2.7715039253235,5,versionA_stim.csv,JOLVersionA.csv,"JOL Version A","Dissertation, JOL version A",BOTH,OUNCE,Study2,U,172,144,JOL,User,-,"How likely are you to correctly recall the second item in the pair?|Type your response on a scale from 0-100 and then press Enter.",Study/JOL,"Study Phase2",2392,,,2111,2111,,,,0,1
w10042962_jkc,e0fo9w68fu,Nick_Dissertation_EX1,1,227,2020-04-24T16:42:24-07:00,2.2653551101685,5,versionA_stim.csv,JOLVersionA.csv,"JOL Version A","Dissertation, JOL version A",MAZE,ELECTION,Study2,U,159,128,JOL,User,-,"How likely are you to correctly recall the second item in the pair?|Type your response on a scale from 0-100 and then press Enter.",Study/JOL,"Study Phase2",1860,,,1545,1545,,,,0,1
w10042962_jkc,e0fo9w68fu,Nick_Dissertation_EX1,1,228,2020-04-24T16:42:28-07:00,3.550733089447,5,versionA_stim.csv,JOLVersionA.csv,"JOL Version A","Dissertation, JOL version A",TEMPERATURE,Morning,Study2,U,173,176,JOL,User,-,"How likely are you to correctly recall the second item in the pair?|Type your response on a scale from 0-100 and then press Enter.",Study/JOL,"Study Phase2",3108,,,2901,2901,,,,1,1
w10042962_jkc,e0fo9w68fu,Nick_Dissertation_EX1,1,229,2020-04-24T16:42:31-07:00,2.6886389255524,5,versionA_stim.csv,JOLVersionA.csv,"JOL Version A","Dissertation, JOL version A",MOAT,CLEAR,Study2,U,169,175,JOL,User,-,"How likely are you to correctly recall the second item in the pair?|Type your response on a scale from 0-100 and then press Enter.",Study/JOL,"Study Phase2",2184,,,2020,2020,,,,2,1
w10042962_jkc,e0fo9w68fu,Nick_Dissertation_EX1,1,230,2020-04-24T16:42:35-07:00,4.3828840255737,5,versionA_stim.csv,JOLVersionA.csv,"JOL Version A","Dissertation, JOL version A",GLASS,BREAKABLE,Study2,B,127,133,JOL,User,-,"How likely are you to correctly recall the second item in the pair?|Type your response on a scale from 0-100 and then press Enter.",Study/JOL,"Study Phase2",3972,,,3323,3667,,,,60,1
w10042962_jkc,e0fo9w68fu,Nick_Dissertation_EX1,1,231,2020-04-24T16:42:41-07:00,5.9378809928894,5,versionA_stim.csv,JOLVersionA.csv,"JOL Version A","Dissertation, JOL version A",WRIST,BRACELET,Study2,S,140,107,JOL,User,-,"How likely are you to correctly recall the second item in the pair?|Type your response on a scale from 0-100 and then press Enter.",Study/JOL,"Study Phase2",5510,,,4881,5205,,,,60,1
w10042962_jkc,e0fo9w68fu,Nick_Dissertation_EX1,1,232,2020-04-24T16:42:44-07:00,2.7330460548401,5,versionA_stim.csv,JOLVersionA.csv,"JOL Version A","Dissertation, JOL version A",DEAD,COFFIN,Study2,B,128,168,JOL,User,-,"How likely are you to correctly recall the second item in the pair?|Type your response on a scale from 0-100 and then press Enter.",Study/JOL,"Study Phase2",2155,,,1681,1865,,,,90,1
w10042962_jkc,e0fo9w68fu,Nick_Dissertation_EX1,1,233,2020-04-24T16:42:47-07:00,2.9707219600677,5,versionA_stim.csv,JOLVersionA.csv,"JOL Version A","Dissertation, JOL version A",DINE,EAT,Study2,F,111,97,JOL,User,-,"How likely are you to correctly recall the second item in the pair?|Type your response on a scale from 0-100 and then press Enter.",Study/JOL,"Study Phase2",2567,,,2073,2287,,,,90,1
w10042962_jkc,e0fo9w68fu,Nick_Dissertation_EX1,1,234,2020-04-24T16:42:50-07:00,3.7602319717407,5,versionA_stim.csv,JOLVersionA.csv,"JOL Version A","Dissertation, JOL version A",JUSTICE,MAROON,Study2,U,156,162,JOL,User,-,"How likely are you to correctly recall the second item in the pair?|Type your response on a scale from 0-100 and then press Enter.",Study/JOL,"Study Phase2",3351,,,3071,3071,,,,0,1
w10042962_jkc,e0fo9w68fu,Nick_Dissertation_EX1,1,235,2020-04-24T16:43:04-07:00,13.901558876038,5,versionA_stim.csv,JOLVersionA.csv,"JOL Version A","Dissertation, JOL version A",CHILL,COLD,Study2,F,114,172,JOL,User,-,"How likely are you to correctly recall the second item in the pair?|Type your response on a scale from 0-100 and then press Enter.",Study/JOL,"Study Phase2",13248,,,12257,12882,,,,70,1
w10042962_jkc,e0fo9w68fu,Nick_Dissertation_EX1,1,236,2020-04-24T16:43:10-07:00,5.725426197052,5,versionA_stim.csv,JOLVersionA.csv,"JOL Version A","Dissertation, JOL version A",OWN,HAVE,Study2,S,153,136,JOL,User,-,"How likely are you to correctly recall the second item in the pair?|Type your response on a scale from 0-100 and then press Enter.",Study/JOL,"Study Phase2",5208,,,4537,4859,,,,60,1
w10042962_jkc,e0fo9w68fu,Nick_Dissertation_EX1,1,237,2020-04-24T16:43:21-07:00,11.253934860229,5,versionA_stim.csv,JOLVersionA.csv,"JOL Version A","Dissertation, JOL version A",WATER,DRINK,Study2,S,143,167,JOL,User,-,"How likely are you to correctly recall the second item in the pair?|Type your response on a scale from 0-100 and then press Enter.",Study/JOL,"Study Phase2",10817,,,10325,10506,,,,40,1
w10042962_jkc,e0fo9w68fu,Nick_Dissertation_EX1,1,238,2020-04-24T16:43:24-07:00,2.977324962616,5,versionA_stim.csv,JOLVersionA.csv,"JOL Version A","Dissertation, JOL version A",SLEEP,NAP,Study2,B,134,146,JOL,User,-,"How likely are you to correctly recall the second item in the pair?|Type your response on a scale from 0-100 and then press Enter.",Study/JOL,"Study Phase2",2472,,,1995,2145,,,,40,1
w10042962_jkc,e0fo9w68fu,Nick_Dissertation_EX1,1,239,2020-04-24T16:43:28-07:00,3.8662240505219,5,versionA_stim.csv,JOLVersionA.csv,"JOL Version A","Dissertation, JOL version A",STAR,ACTRESS,Study2,B,120,101,JOL,User,-,"How likely are you to correctly recall the second item in the pair?|Type your response on a scale from 0-100 and then press Enter.",Study/JOL,"Study Phase2",3481,,,3064,3212,,,,40,1
w10042962_jkc,e0fo9w68fu,Nick_Dissertation_EX1,1,240,2020-04-24T16:43:32-07:00,3.9902100563049,5,versionA_stim.csv,JOLVersionA.csv,"JOL Version A","Dissertation, JOL version A",GIVE,STEAK,Study2,U,158,160,JOL,User,-,"How likely are you to correctly recall the second item in the pair?|Type your response on a scale from 0-100 and then press Enter.",Study/JOL,"Study Phase2",3550,,,3252,3252,,,,0,1
w10042962_jkc,e0fo9w68fu,Nick_Dissertation_EX1,1,241,2020-04-24T16:43:34-07:00,2.0188150405884,5,versionA_stim.csv,JOLVersionA.csv,"JOL Version A","Dissertation, JOL version A",BAD,VILLAIN,Study2,B,118,115,JOL,User,-,"How likely are you to correctly recall the second item in the pair?|Type your response on a scale from 0-100 and then press Enter.",Study/JOL,"Study Phase2",1637,,,1348,1348,,,,0,1
w10042962_jkc,e0fo9w68fu,Nick_Dissertation_EX1,1,242,2020-04-24T16:43:39-07:00,4.5563969612122,5,versionA_stim.csv,JOLVersionA.csv,"JOL Version A","Dissertation, JOL version A",AFFECTION,LOVE,Study2,F,115,134,JOL,User,-,"How likely are you to correctly recall the second item in the pair?|Type your response on a scale from 0-100 and then press Enter.",Study/JOL,"Study Phase2",4128,,,2885,3814,,,,60,1
w10042962_jkc,e0fo9w68fu,Nick_Dissertation_EX1,1,243,2020-04-24T16:43:41-07:00,2.4056169986725,5,versionA_stim.csv,JOLVersionA.csv,"JOL Version A","Dissertation, JOL version A",CAT,PANTHER,Study2,B,126,147,JOL,User,-,"How likely are you to correctly recall the second item in the pair?|Type your response on a scale from 0-100 and then press Enter.",Study/JOL,"Study Phase2",1957,,,1668,1668,,,,0,1
w10042962_jkc,e0fo9w68fu,Nick_Dissertation_EX1,1,244,2020-04-24T16:43:45-07:00,3.5103690624237,5,versionA_stim.csv,JOLVersionA.csv,"JOL Version A","Dissertation, JOL version A",FLEA,TICK,Study2,S,151,122,JOL,User,-,"How likely are you to correctly recall the second item in the pair?|Type your response on a scale from 0-100 and then press Enter.",Study/JOL,"Study Phase2",3117,,,2591,2848,,,,80,1
w10042962_jkc,e0fo9w68fu,Nick_Dissertation_EX1,1,245,2020-04-24T16:43:47-07:00,2.440997838974,5,versionA_stim.csv,JOLVersionA.csv,"JOL Version A","Dissertation, JOL version A",NAME,HATE,Study2,U,167,123,JOL,User,-,"How likely are you to correctly recall the second item in the pair?|Type your response on a scale from 0-100 and then press Enter.",Study/JOL,"Study Phase2",1962,,,1664,1664,,,,0,1
w10042962_jkc,e0fo9w68fu,Nick_Dissertation_EX1,1,246,2020-04-24T16:43:50-07:00,3.2417430877686,5,versionA_stim.csv,JOLVersionA.csv,"JOL Version A","Dissertation, JOL version A",FURRY,DOG,Study2,F,102,156,JOL,User,-,"How likely are you to correctly recall the second item in the pair?|Type your response on a scale from 0-100 and then press Enter.",Study/JOL,"Study Phase2",2846,,,2698,2698,,,,2,1
w10042962_jkc,e0fo9w68fu,Nick_Dissertation_EX1,1,247,2020-04-24T16:43:53-07:00,2.9180500507355,5,versionA_stim.csv,JOLVersionA.csv,"JOL Version A","Dissertation, JOL version A",CAR,WINDSHIELD,Study2,B,117,109,JOL,User,-,"How likely are you to correctly recall the second item in the pair?|Type your response on a scale from 0-100 and then press Enter.",Study/JOL,"Study Phase2",2506,,,2098,2211,,,,30,1
w10042962_jkc,e0fo9w68fu,Nick_Dissertation_EX1,1,248,2020-04-24T16:43:56-07:00,2.7755258083344,5,versionA_stim.csv,JOLVersionA.csv,"JOL Version A","Dissertation, JOL version A",FEUD,FIGHT,Study2,F,113,106,JOL,User,-,"How likely are you to correctly recall the second item in the pair?|Type your response on a scale from 0-100 and then press Enter.",Study/JOL,"Study Phase2",2361,,,1862,2047,,,,50,1
w10042962_jkc,e0fo9w68fu,Nick_Dissertation_EX1,1,249,2020-04-24T16:43:59-07:00,2.658744096756,5,versionA_stim.csv,JOLVersionA.csv,"JOL Version A","Dissertation, JOL version A",TURN,FLIP,Study2,B,116,151,JOL,User,-,"How likely are you to correctly recall the second item in the pair?|Type your response on a scale from 0-100 and then press Enter.",Study/JOL,"Study Phase2",2270,,,1893,1979,,,,60,1
w10042962_jkc,e0fo9w68fu,Nick_Dissertation_EX1,1,250,2020-04-24T16:44:01-07:00,2.536169052124,5,versionA_stim.csv,JOLVersionA.csv,"JOL Version A","Dissertation, JOL version A",MONEY,BANKER,Study2,B,132,165,JOL,User,-,"How likely are you to correctly recall the second item in the pair?|Type your response on a scale from 0-100 and then press Enter.",Study/JOL,"Study Phase2",2142,,,1746,1862,,,,30,1
w10042962_jkc,e0fo9w68fu,Nick_Dissertation_EX1,1,251,2020-04-24T16:44:05-07:00,4.0082819461823,5,versionA_stim.csv,JOLVersionA.csv,"JOL Version A","Dissertation, JOL version A",SHOELACE,TIE,Study2,F,99,154,JOL,User,-,"How likely are you to correctly recall the second item in the pair?|Type your response on a scale from 0-100 and then press Enter.",Study/JOL,"Study Phase2",3529,,,3158,3259,,,,50,1
w10042962_jkc,e0fo9w68fu,Nick_Dissertation_EX1,1,252,2020-04-24T16:44:09-07:00,3.7120900154114,5,versionA_stim.csv,JOLVersionA.csv,"JOL Version A","Dissertation, JOL version A",CLUE,GAME,Study2,F,97,157,JOL,User,-,"How likely are you to correctly recall the second item in the pair?|Type your response on a scale from 0-100 and then press Enter.",Study/JOL,"Study Phase2",3162,,,2777,2777,,,,0,1
w10042962_jkc,e0fo9w68fu,Nick_Dissertation_EX1,1,253,2020-04-24T16:44:13-07:00,3.7750170230865,5,versionA_stim.csv,JOLVersionA.csv,"JOL Version A","Dissertation, JOL version A",THREAD,THIMBLE,Study2,B,121,173,JOL,User,-,"How likely are you to correctly recall the second item in the pair?|Type your response on a scale from 0-100 and then press Enter.",Study/JOL,"Study Phase2",3331,,,3043,3043,,,,0,1
w10042962_jkc,e0fo9w68fu,Nick_Dissertation_EX1,1,254,2020-04-24T16:44:16-07:00,2.8166420459747,5,versionA_stim.csv,JOLVersionA.csv,"JOL Version A","Dissertation, JOL version A",MEAT,OBTAIN,Study2,U,161,152,JOL,User,-,"How likely are you to correctly recall the second item in the pair?|Type your response on a scale from 0-100 and then press Enter.",Study/JOL,"Study Phase2",2404,,,2143,2143,,,,0,1
w10042962_jkc,e0fo9w68fu,Nick_Dissertation_EX1,1,255,2020-04-24T16:44:24-07:00,8.6919319629669,5,versionA_stim.csv,JOLVersionA.csv,"JOL Version A","Dissertation, JOL version A",CAKE,CLOTHES,Study2,U,166,110,JOL,User,-,"How likely are you to correctly recall the second item in the pair?|Type your response on a scale from 0-100 and then press Enter.",Study/JOL,"Study Phase2",8285,,,7858,7858,,,,0,1
w10042962_jkc,e0fo9w68fu,Nick_Dissertation_EX1,1,256,2020-04-24T16:44:28-07:00,3.3862860202789,5,versionA_stim.csv,JOLVersionA.csv,"JOL Version A","Dissertation, JOL version A",BIRD,PENGUIN,Study2,B,119,140,JOL,User,-,"How likely are you to correctly recall the second item in the pair?|Type your response on a scale from 0-100 and then press Enter.",Study/JOL,"Study Phase2",2751,,,2262,2422,,,,30,1
w10042962_jkc,e0fo9w68fu,Nick_Dissertation_EX1,1,257,2020-04-24T16:44:32-07:00,3.8659870624542,5,versionA_stim.csv,JOLVersionA.csv,"JOL Version A","Dissertation, JOL version A",GONE,AWAY,Study2,S,142,143,JOL,User,-,"How likely are you to correctly recall the second item in the pair?|Type your response on a scale from 0-100 and then press Enter.",Study/JOL,"Study Phase2",3363,,,2726,3058,,,,60,1
w10042962_jkc,e0fo9w68fu,Nick_Dissertation_EX1,1,258,2020-04-24T16:44:35-07:00,3.2821259498596,5,versionA_stim.csv,JOLVersionA.csv,"JOL Version A","Dissertation, JOL version A",LOAN,SIGN,Study2,U,171,163,JOL,User,-,"How likely are you to correctly recall the second item in the pair?|Type your response on a scale from 0-100 and then press Enter.",Study/JOL,"Study Phase2",2754,,,2432,2432,,,,0,1
w10042962_jkc,e0fo9w68fu,Nick_Dissertation_EX1,1,259,2020-04-24T16:44:39-07:00,4.1402318477631,5,versionA_stim.csv,JOLVersionA.csv,"JOL Version A","Dissertation, JOL version A",CRACKLE,ABLE,Study2,U,162,139,JOL,User,-,"How likely are you to correctly recall the second item in the pair?|Type your response on a scale from 0-100 and then press Enter.",Study/JOL,"Study Phase2",3637,,,3330,3331,,,,0,1
w10042962_jkc,e0fo9w68fu,Nick_Dissertation_EX1,1,260,2020-04-24T16:44:43-07:00,4.1685290336609,5,versionA_stim.csv,JOLVersionA.csv,"JOL Version A","Dissertation, JOL version A",DETECTIVE,MYSTERY,Study2,F,100,149,JOL,User,-,"How likely are you to correctly recall the second item in the pair?|Type your response on a scale from 0-100 and then press Enter.",Study/JOL,"Study Phase2",3608,,,2620,3276,,,,80,1
w10042962_jkc,e0fo9w68fu,Nick_Dissertation_EX1,1,261,2020-04-24T16:44:47-07:00,3.4591791629791,5,versionA_stim.csv,JOLVersionA.csv,"JOL Version A","Dissertation, JOL version A",EVEN,REVENGE,Study2,B,122,159,JOL,User,-,"How likely are you to correctly recall the second item in the pair?|Type your response on a scale from 0-100 and then press Enter.",Study/JOL,"Study Phase2",2959,,,2533,2675,,,,30,1
w10042962_jkc,e0fo9w68fu,Nick_Dissertation_EX1,1,262,2020-04-24T16:44:49-07:00,2.7996008396149,5,versionA_stim.csv,JOLVersionA.csv,"JOL Version A","Dissertation, JOL version A",RAZOR,SHAVE,Study2,S,136,171,JOL,User,-,"How likely are you to correctly recall the second item in the pair?|Type your response on a scale from 0-100 and then press Enter.",Study/JOL,"Study Phase2",2227,,,1568,1568,,,,8,1
w10042962_jkc,e0fo9w68fu,Nick_Dissertation_EX1,1,263,2020-04-24T16:44:56-07:00,6.3714909553528,5,versionA_stim.csv,JOLVersionA.csv,"JOL Version A","Dissertation, JOL version A",FISH,SARDINE,Study2,B,130,141,JOL,User,-,"How likely are you to correctly recall the second item in the pair?|Type your response on a scale from 0-100 and then press Enter.",Study/JOL,"Study Phase2",5724,,,4641,5352,,,,60,1
w10042962_jkc,e0fo9w68fu,Nick_Dissertation_EX1,1,264,2020-04-24T16:44:59-07:00,2.9383370876312,5,versionA_stim.csv,JOLVersionA.csv,"JOL Version A","Dissertation, JOL version A",LOUD,NOISE,Study2,S,152,113,JOL,User,-,"How likely are you to correctly recall the second item in the pair?|Type your response on a scale from 0-100 and then press Enter.",Study/JOL,"Study Phase2",2383,,,1682,2028,,,,60,1
w10042962_jkc,e0fo9w68fu,Nick_Dissertation_EX1,1,265,2020-04-24T16:45:02-07:00,3.1312661170959,5,versionA_stim.csv,JOLVersionA.csv,"JOL Version A","Dissertation, JOL version A",POP,BALLOON,Study2,B,123,125,JOL,User,-,"How likely are you to correctly recall the second item in the pair?|Type your response on a scale from 0-100 and then press Enter.",Study/JOL,"Study Phase2",2603,,,1839,2247,,,,50,1
w10042962_jkc,e0fo9w68fu,Nick_Dissertation_EX1,1,266,2020-04-24T16:45:06-07:00,4.1605498790741,5,versionA_stim.csv,JOLVersionA.csv,"JOL Version A","Dissertation, JOL version A",BASEBALL,LEAGUE,Study2,B,131,131,JOL,User,-,"How likely are you to correctly recall the second item in the pair?|Type your response on a scale from 0-100 and then press Enter.",Study/JOL,"Study Phase2",3646,,,2736,3227,,,,50,1
w10042962_jkc,e0fo9w68fu,Nick_Dissertation_EX1,1,267,2020-04-24T16:45:09-07:00,3.1275000572205,5,versionA_stim.csv,JOLVersionA.csv,"JOL Version A","Dissertation, JOL version A",MONTH,YEAR,BUFFER4,Buffer,177,179,JOL,User,-,"How likely are you to correctly recall the second item in the pair?|Type your response on a scale from 0-100 and then press Enter.",Study/JOL,BUFFER4,2597,,,1978,2227,,,,50,1
w10042962_jkc,e0fo9w68fu,Nick_Dissertation_EX1,1,268,2020-04-24T16:45:12-07:00,3.1987109184265,5,versionA_stim.csv,JOLVersionA.csv,"JOL Version A","Dissertation, JOL version A",OCTOBER,SPOOKY,BUFFER4,Buffer,180,177,JOL,User,-,"How likely are you to correctly recall the second item in the pair?|Type your response on a scale from 0-100 and then press Enter.",Study/JOL,BUFFER4,2673,,,1915,2292,,,,60,1
w10042962_jkc,e0fo9w68fu,Nick_Dissertation_EX1,1,269,2020-04-24T16:45:33-07:00,21.055210113525,5,versionA_stim.csv,JOLVersionA.csv,"JOL Version A","Dissertation, JOL version A",TOOL,SHED,BUFFER4,Buffer,178,181,JOL,User,-,"How likely are you to correctly recall the second item in the pair?|Type your response on a scale from 0-100 and then press Enter.",Study/JOL,BUFFER4,20428,,,19904,20078,,,,40,1
w10042962_jkc,e0fo9w68fu,Nick_Dissertation_EX1,1,270,2020-04-24T16:45:36-07:00,2.6451728343964,5,versionA_stim.csv,JOLVersionA.csv,"JOL Version A","Dissertation, JOL version A",SPRING,MARCH,BUFFER4,Buffer,179,180,JOL,User,-,"How likely are you to correctly recall the second item in the pair?|Type your response on a scale from 0-100 and then press Enter.",Study/JOL,BUFFER4,2057,,,1451,1716,,,,40,1
w10042962_jkc,e0fo9w68fu,Nick_Dissertation_EX1,1,271,2020-04-24T16:45:39-07:00,3.3847739696503,5,versionA_stim.csv,JOLVersionA.csv,"JOL Version A","Dissertation, JOL version A",DAYS,WEAKS,BUFFER4,Buffer,176,178,JOL,User,-,"How likely are you to correctly recall the second item in the pair?|Type your response on a scale from 0-100 and then press Enter.",Study/JOL,BUFFER4,2842,,,2475,2476,,,,0,1
w10042962_jkc,e0fo9w68fu,Nick_Dissertation_EX1,1,272,2020-04-24T16:45:41-07:00,2.0560011863708,5,versionA_stim.csv,JOLVersionA.csv,"JOL Version A","Dissertation, JOL version A",,,,,,0,Instruct,User,-,"You have completed this section. Please press Enter.",Filler_Instruction,Instruct5,1536,,,-1,-1,,,,,1
w10042962_jkc,e0fo9w68fu,Nick_Dissertation_EX1,1,273,2020-04-24T16:47:42-07:00,120.66027402878,5,versionA_stim.csv,JOLVersionA.csv,"JOL Version A","Dissertation, JOL version A",,,,,,0,FreeRecall,120,120,"Please list the 50 US states in reverse alphabetical order (z - a). The task will automatically advance to the next screen after two minutes.",,Filler2,120004,"Wyoming, Wisconsin, West Virginia, Washington, Virginia, Vermont, Utah, Texas, Tennessee, South Dakota, South Carolina, Rhode Island, Pennsylvania, Oregon, Oklahoma, Ohio, North Dakota, North Carolina, New York, New Mexic",0,17233,119736,0,0,,,1
w10042962_jkc,e0fo9w68fu,Nick_Dissertation_EX1,1,274,2020-04-24T16:48:01-07:00,19.016808986664,5,versionA_stim.csv,JOLVersionA.csv,"JOL Version A","Dissertation, JOL version A",,,,,,0,Instruct,-,10,"You will now be presented with the first word from each of the previously studied item pairs. Please type the missing word. If you do not know the word, you may guess or press Enter to skip forward to the next pair.",,Instruct6,18166,,,-1,-1,,,,,1
w10042962_jkc,e0fo9w68fu,Nick_Dissertation_EX1,1,275,2020-04-24T16:48:06-07:00,4.5792489051819,5,versionA_stim.csv,JOLVersionA.csv,"JOL Version A","Dissertation, JOL version A",Shell,SHAKE,Study2,U,163,135,Test,User,-,,Recall,Recall2,3956,sea,50,2441,3054,0,0,,,1
w10042962_jkc,e0fo9w68fu,Nick_Dissertation_EX1,1,276,2020-04-24T16:48:10-07:00,3.8802959918976,5,versionA_stim.csv,JOLVersionA.csv,"JOL Version A","Dissertation, JOL version A",RIGHTS,EQUAL,Study2,S,137,112,Test,User,-,,Recall,Recall2,3291,equal,100,1357,2976,1,1,,,1
w10042962_jkc,e0fo9w68fu,Nick_Dissertation_EX1,1,277,2020-04-24T16:48:16-07:00,6.3376889228821,5,versionA_stim.csv,JOLVersionA.csv,"JOL Version A","Dissertation, JOL version A",STAR,ACTRESS,Study2,B,120,101,Test,User,-,,Recall,Recall2,5732,actress,100,3983,5543,1,1,,,1
