Username,ID,ExperimentName,Session,Trial,Date,TimeDif,"Condition Number","Stimuli File","Order File","Condition Description","Condition Notes",Stimuli*Cue,Stimuli*Answer,Stimuli*Shuffle,"Stimuli*Stimuli Notes",Stimuli*Value,Procedure*Item,"Procedure*Trial Type","Procedure*Max Time","Procedure*Min Time",Procedure*Text,"Procedure*Procedure Notes",Procedure*Shuffle,Response*RT,Response*Response,Response*Accuracy,Response*RTfirst,Response*RTlast,Response*strictAcc,Response*lenientAcc,Response*focus,Response*JOL,Response*Focus
w215680_oa,562cw1jwe4,Nick_Dissertation_EX1,1,1,2020-04-26T09:51:55-07:00,458.61873006821,9,versionA_stim.csv,FREQVersionA.csv,"Frequency Version A","Dissertation, Frequency version A",,,,,,0,Instruct,-,5,"In this section, you will be presented with a series of word pairs.",Initial_Instruct,Instruct1,458162,,,-1,-1,,,,,1
w215680_oa,562cw1jwe4,Nick_Dissertation_EX1,1,2,2020-04-26T09:52:10-07:00,14.817585945129,9,versionA_stim.csv,FREQVersionA.csv,"Frequency Version A","Dissertation, Frequency version A",,,,,,0,Instruct,-,5,"As you study, you will be asked to rate how often the words in each pair are used together.",,Instruct13,14376,,,-1,-1,,,,,1
w215680_oa,562cw1jwe4,Nick_Dissertation_EX1,1,3,2020-04-26T09:52:22-07:00,12.124933958054,9,versionA_stim.csv,FREQVersionA.csv,"Frequency Version A","Dissertation, Frequency version A",,,,,,0,Instruct,-,10,"For example, if you are given the pair CAT - DOG, a rating of 0 indicates that the words DOG and CAT are not used together often in language, while a rating of 100 indicates that DOG and CAT are commonly used together.",,Instruct14,11773,,,-1,-1,,,,,1
w215680_oa,562cw1jwe4,Nick_Dissertation_EX1,1,4,2020-04-26T09:52:34-07:00,12.138261079788,9,versionA_stim.csv,FREQVersionA.csv,"Frequency Version A","Dissertation, Frequency version A",,,,,,0,Instruct,-,10,"When making your ratings, it is criticial that you use the full range of the scale. You will be disqualified for only giving ratings of 0 or 100! After making your rating, press Enter to advance to the next pair.",,Instruct15,11781,,,-1,-1,,,,,1
w215680_oa,562cw1jwe4,Nick_Dissertation_EX1,1,5,2020-04-26T09:52:37-07:00,2.5900659561157,9,versionA_stim.csv,FREQVersionA.csv,"Frequency Version A","Dissertation, Frequency version A",,,,,,0,Instruct,User,-,"You will now begin the study. Press Enter when you are ready to begin.",,Instruct16,2236,,,-1,-1,,,,,1
w215680_oa,562cw1jwe4,Nick_Dissertation_EX1,1,6,2020-04-26T09:52:48-07:00,11.206844091415,9,versionA_stim.csv,FREQVersionA.csv,"Frequency Version A","Dissertation, Frequency version A",TREES,GREEN,BUFFER1,Buffer,1,2,FREQ,User,-,"How often are these two words used together?|Type your response on a scale from 0-100 and then press Enter.",Study/JOL,BUFFER,10822,,,4047,10508,,,,60,1
w215680_oa,562cw1jwe4,Nick_Dissertation_EX1,1,7,2020-04-26T09:52:54-07:00,6.5928130149841,9,versionA_stim.csv,FREQVersionA.csv,"Frequency Version A","Dissertation, Frequency version A",SCARE,HIDE,BUFFER1,Buffer,4,4,FREQ,User,-,"How often are these two words used together?|Type your response on a scale from 0-100 and then press Enter.",Study/JOL,BUFFER,6235,,,5426,5952,,,,80,1
w215680_oa,562cw1jwe4,Nick_Dissertation_EX1,1,8,2020-04-26T09:53:04-07:00,9.5396678447723,9,versionA_stim.csv,FREQVersionA.csv,"Frequency Version A","Dissertation, Frequency version A",BASEBALL,CATCHER,BUFFER1,Buffer,2,6,FREQ,User,-,"How often are these two words used together?|Type your response on a scale from 0-100 and then press Enter.",Study/JOL,BUFFER,9185,,,8711,8882,,,,90,1
w215680_oa,562cw1jwe4,Nick_Dissertation_EX1,1,9,2020-04-26T09:53:08-07:00,3.6764001846313,9,versionA_stim.csv,FREQVersionA.csv,"Frequency Version A","Dissertation, Frequency version A",SPACE,JAM,BUFFER1,Buffer,5,3,FREQ,User,-,"How often are these two words used together?|Type your response on a scale from 0-100 and then press Enter.",Study/JOL,BUFFER,3315,,,2626,3075,,,,100,1
w215680_oa,562cw1jwe4,Nick_Dissertation_EX1,1,10,2020-04-26T09:53:16-07:00,8.4674689769745,9,versionA_stim.csv,FREQVersionA.csv,"Frequency Version A","Dissertation, Frequency version A",PEANUT,BUTTER,BUFFER1,Buffer,3,5,FREQ,User,-,"How often are these two words used together?|Type your response on a scale from 0-100 and then press Enter.",Study/JOL,BUFFER,8077,,,1859,7756,,,,100,1
w215680_oa,562cw1jwe4,Nick_Dissertation_EX1,1,11,2020-04-26T09:53:21-07:00,4.6625509262085,9,versionA_stim.csv,FREQVersionA.csv,"Frequency Version A","Dissertation, Frequency version A",FULL,ENOUGH,Study1,B,26,28,FREQ,User,-,"How often are these two words used together?|Type your response on a scale from 0-100 and then press Enter.",Study/JOL,"Study Phase",4310,,,3997,4115,,,,40,1
w215680_oa,562cw1jwe4,Nick_Dissertation_EX1,1,12,2020-04-26T09:53:25-07:00,4.1904740333557,9,versionA_stim.csv,FREQVersionA.csv,"Frequency Version A","Dissertation, Frequency version A",TAKE,SEIZE,Study1,B,29,51,FREQ,User,-,"How often are these two words used together?|Type your response on a scale from 0-100 and then press Enter.",Study/JOL,"Study Phase",3836,,,2810,2921,,,,10,1
w215680_oa,562cw1jwe4,Nick_Dissertation_EX1,1,13,2020-04-26T09:53:29-07:00,4.3890359401703,9,versionA_stim.csv,FREQVersionA.csv,"Frequency Version A","Dissertation, Frequency version A",TUNA,FISH,Study1,F,25,78,FREQ,User,-,"How often are these two words used together?|Type your response on a scale from 0-100 and then press Enter.",Study/JOL,"Study Phase",4038,,,3152,3760,,,,70,1
w215680_oa,562cw1jwe4,Nick_Dissertation_EX1,1,14,2020-04-26T09:53:32-07:00,2.4881179332733,9,versionA_stim.csv,FREQVersionA.csv,"Frequency Version A","Dissertation, Frequency version A",CREDIT,CARD,Study1,F,23,46,FREQ,User,-,"How often are these two words used together?|Type your response on a scale from 0-100 and then press Enter.",Study/JOL,"Study Phase",2124,,,1627,1900,,,,100,1
w215680_oa,562cw1jwe4,Nick_Dissertation_EX1,1,15,2020-04-26T09:53:37-07:00,5.2597110271454,9,versionA_stim.csv,FREQVersionA.csv,"Frequency Version A","Dissertation, Frequency version A",MATH,DIVISION,Study1,B,33,11,FREQ,User,-,"How often are these two words used together?|Type your response on a scale from 0-100 and then press Enter.",Study/JOL,"Study Phase",4906,,,4450,4583,,,,40,1
w215680_oa,562cw1jwe4,Nick_Dissertation_EX1,1,16,2020-04-26T09:53:45-07:00,7.5197551250458,9,versionA_stim.csv,FREQVersionA.csv,"Frequency Version A","Dissertation, Frequency version A",DISCUSSION,TALK,Study1,F,21,70,FREQ,User,-,"How often are these two words used together?|Type your response on a scale from 0-100 and then press Enter.",Study/JOL,"Study Phase",7166,,,6669,6834,,,,30,1
w215680_oa,562cw1jwe4,Nick_Dissertation_EX1,1,17,2020-04-26T09:53:56-07:00,11.276252985001,9,versionA_stim.csv,FREQVersionA.csv,"Frequency Version A","Dissertation, Frequency version A",HOT,CHILI,Study1,B,37,40,FREQ,User,-,"How often are these two words used together?|Type your response on a scale from 0-100 and then press Enter.",Study/JOL,"Study Phase",10934,,,10486,10675,,,,20,1
w215680_oa,562cw1jwe4,Nick_Dissertation_EX1,1,18,2020-04-26T09:54:00-07:00,4.3728029727936,9,versionA_stim.csv,FREQVersionA.csv,"Frequency Version A","Dissertation, Frequency version A",PARK,HUNGRY,Study1,U,68,27,FREQ,User,-,"How often are these two words used together?|Type your response on a scale from 0-100 and then press Enter.",Study/JOL,"Study Phase",4004,,,3612,3748,,,,10,1
w215680_oa,562cw1jwe4,Nick_Dissertation_EX1,1,19,2020-04-26T09:54:14-07:00,14.152349948883,9,versionA_stim.csv,FREQVersionA.csv,"Frequency Version A","Dissertation, Frequency version A",STRONG,ACCIDENT,Study1,U,80,42,FREQ,User,-,"How often are these two words used together?|Type your response on a scale from 0-100 and then press Enter.",Study/JOL,"Study Phase",13793,,,13569,13569,,,,1,1
w215680_oa,562cw1jwe4,Nick_Dissertation_EX1,1,20,2020-04-26T09:54:42-07:00,27.268025159836,9,versionA_stim.csv,FREQVersionA.csv,"Frequency Version A","Dissertation, Frequency version A",KEY,LATCH,Study1,B,36,32,FREQ,User,-,"How often are these two words used together?|Type your response on a scale from 0-100 and then press Enter.",Study/JOL,"Study Phase",26905,,,26577,26577,,,,5,0.856
w215680_oa,562cw1jwe4,Nick_Dissertation_EX1,1,21,2020-04-26T09:54:48-07:00,6.0839049816132,9,versionA_stim.csv,FREQVersionA.csv,"Frequency Version A","Dissertation, Frequency version A",SENTENCE,WORD,Study1,B,31,75,FREQ,User,-,"How often are these two words used together?|Type your response on a scale from 0-100 and then press Enter.",Study/JOL,"Study Phase",5700,,,5299,5473,,,,90,1
w215680_oa,562cw1jwe4,Nick_Dissertation_EX1,1,22,2020-04-26T09:55:08-07:00,20.543137788773,9,versionA_stim.csv,FREQVersionA.csv,"Frequency Version A","Dissertation, Frequency version A",DELINQUENT,BAD,Study1,F,6,37,FREQ,User,-,"How often are these two words used together?|Type your response on a scale from 0-100 and then press Enter.",Study/JOL,"Study Phase",20169,,,19761,19951,,,,20,0.793
w215680_oa,562cw1jwe4,Nick_Dissertation_EX1,1,23,2020-04-26T09:55:31-07:00,22.436221122742,9,versionA_stim.csv,FREQVersionA.csv,"Frequency Version A","Dissertation, Frequency version A",CHISEL,HAMMER,Study1,F,9,49,FREQ,User,-,"How often are these two words used together?|Type your response on a scale from 0-100 and then press Enter.",Study/JOL,"Study Phase",22071,,,21936,21936,,,,1,0.746
w215680_oa,562cw1jwe4,Nick_Dissertation_EX1,1,24,2020-04-26T09:55:35-07:00,4.1172881126404,9,versionA_stim.csv,FREQVersionA.csv,"Frequency Version A","Dissertation, Frequency version A",DEATH,BUSINESS,Study1,U,72,17,FREQ,User,-,"How often are these two words used together?|Type your response on a scale from 0-100 and then press Enter.",Study/JOL,"Study Phase",3742,,,3517,3517,,,,0,1
w215680_oa,562cw1jwe4,Nick_Dissertation_EX1,1,25,2020-04-26T09:55:38-07:00,3.2516078948975,9,versionA_stim.csv,FREQVersionA.csv,"Frequency Version A","Dissertation, Frequency version A",KIDNEY,LIVER,Study1,S,53,12,FREQ,User,-,"How often are these two words used together?|Type your response on a scale from 0-100 and then press Enter.",Study/JOL,"Study Phase",2878,,,2469,2637,,,,90,1
w215680_oa,562cw1jwe4,Nick_Dissertation_EX1,1,26,2020-04-26T09:55:44-07:00,6.4523298740387,9,versionA_stim.csv,FREQVersionA.csv,"Frequency Version A","Dissertation, Frequency version A",NUMBER,AMOUNT,Study1,S,47,29,FREQ,User,-,"How often are these two words used together?|Type your response on a scale from 0-100 and then press Enter.",Study/JOL,"Study Phase",6104,,,4840,5873,,,,100,1
w215680_oa,562cw1jwe4,Nick_Dissertation_EX1,1,27,2020-04-26T09:55:48-07:00,3.5674622058868,9,versionA_stim.csv,FREQVersionA.csv,"Frequency Version A","Dissertation, Frequency version A",VALLEY,ADD,Study1,U,82,73,FREQ,User,-,"How often are these two words used together?|Type your response on a scale from 0-100 and then press Enter.",Study/JOL,"Study Phase",3203,,,2907,2907,,,,0,1
w215680_oa,562cw1jwe4,Nick_Dissertation_EX1,1,28,2020-04-26T09:56:10-07:00,21.620823860168,9,versionA_stim.csv,FREQVersionA.csv,"Frequency Version A","Dissertation, Frequency version A",DIETARY,SACKING,Study1,U,67,7,FREQ,User,-,"How often are these two words used together?|Type your response on a scale from 0-100 and then press Enter.",Study/JOL,"Study Phase",21240,,,20871,20872,,,,0,0.736
w215680_oa,562cw1jwe4,Nick_Dissertation_EX1,1,29,2020-04-26T09:56:14-07:00,4.6720111370087,9,versionA_stim.csv,FREQVersionA.csv,"Frequency Version A","Dissertation, Frequency version A",TRIAL,JURY,Study1,S,50,41,FREQ,User,-,"How often are these two words used together?|Type your response on a scale from 0-100 and then press Enter.",Study/JOL,"Study Phase",4289,,,3766,4042,,,,100,1
w215680_oa,562cw1jwe4,Nick_Dissertation_EX1,1,30,2020-04-26T09:56:20-07:00,5.908499956131,9,versionA_stim.csv,FREQVersionA.csv,"Frequency Version A","Dissertation, Frequency version A",CASH,WOULD,Study1,U,83,79,FREQ,User,-,"How often are these two words used together?|Type your response on a scale from 0-100 and then press Enter.",Study/JOL,"Study Phase",5531,,,4273,4274,,,,0,1
w215680_oa,562cw1jwe4,Nick_Dissertation_EX1,1,31,2020-04-26T09:56:27-07:00,6.3252689838409,9,versionA_stim.csv,FREQVersionA.csv,"Frequency Version A","Dissertation, Frequency version A",PLANE,PILOT,Study1,B,44,39,FREQ,User,-,"How often are these two words used together?|Type your response on a scale from 0-100 and then press Enter.",Study/JOL,"Study Phase",5964,,,5363,5659,,,,100,1
w215680_oa,562cw1jwe4,Nick_Dissertation_EX1,1,32,2020-04-26T09:56:30-07:00,2.9934830665588,9,versionA_stim.csv,FREQVersionA.csv,"Frequency Version A","Dissertation, Frequency version A",REVOLUTION,WAR,Study1,F,20,60,FREQ,User,-,"How often are these two words used together?|Type your response on a scale from 0-100 and then press Enter.",Study/JOL,"Study Phase",2619,,,1980,2302,,,,100,1
w215680_oa,562cw1jwe4,Nick_Dissertation_EX1,1,33,2020-04-26T09:56:32-07:00,2.7099277973175,9,versionA_stim.csv,FREQVersionA.csv,"Frequency Version A","Dissertation, Frequency version A",MEANING,DEFINITION,Study1,S,62,48,FREQ,User,-,"How often are these two words used together?|Type your response on a scale from 0-100 and then press Enter.",Study/JOL,"Study Phase",2347,,,1370,1714,,,,100,1
w215680_oa,562cw1jwe4,Nick_Dissertation_EX1,1,34,2020-04-26T09:56:40-07:00,7.7251091003418,9,versionA_stim.csv,FREQVersionA.csv,"Frequency Version A","Dissertation, Frequency version A",DEBATE,SIGHT,Study1,U,73,26,FREQ,User,-,"How often are these two words used together?|Type your response on a scale from 0-100 and then press Enter.",Study/JOL,"Study Phase",7364,,,6939,7081,,,,20,1
w215680_oa,562cw1jwe4,Nick_Dissertation_EX1,1,35,2020-04-26T09:56:49-07:00,8.5307099819183,9,versionA_stim.csv,FREQVersionA.csv,"Frequency Version A","Dissertation, Frequency version A",WORK,CHORE,Study1,B,39,59,FREQ,User,-,"How often are these two words used together?|Type your response on a scale from 0-100 and then press Enter.",Study/JOL,"Study Phase",8177,,,4990,5140,,,,30,1
w215680_oa,562cw1jwe4,Nick_Dissertation_EX1,1,36,2020-04-26T09:56:52-07:00,3.7968790531158,9,versionA_stim.csv,FREQVersionA.csv,"Frequency Version A","Dissertation, Frequency version A",ARCHITECTURE,DESIGN,Study1,S,51,84,FREQ,User,-,"How often are these two words used together?|Type your response on a scale from 0-100 and then press Enter.",Study/JOL,"Study Phase",3437,,,2109,2485,,,,100,1
w215680_oa,562cw1jwe4,Nick_Dissertation_EX1,1,37,2020-04-26T09:57:01-07:00,8.8059420585632,9,versionA_stim.csv,FREQVersionA.csv,"Frequency Version A","Dissertation, Frequency version A",BEGIN,END,Study1,S,54,53,FREQ,User,-,"How often are these two words used together?|Type your response on a scale from 0-100 and then press Enter.",Study/JOL,"Study Phase",8447,,,7799,8189,,,,50,1
w215680_oa,562cw1jwe4,Nick_Dissertation_EX1,1,38,2020-04-26T09:57:05-07:00,4.033262014389,9,versionA_stim.csv,FREQVersionA.csv,"Frequency Version A","Dissertation, Frequency version A",PAW,DOG,Study1,F,15,8,FREQ,User,-,"How often are these two words used together?|Type your response on a scale from 0-100 and then press Enter.",Study/JOL,"Study Phase",3667,,,2779,3354,,,,100,1
w215680_oa,562cw1jwe4,Nick_Dissertation_EX1,1,39,2020-04-26T09:57:10-07:00,4.454479932785,9,versionA_stim.csv,FREQVersionA.csv,"Frequency Version A","Dissertation, Frequency version A",POP,SODA,Study1,S,56,34,FREQ,User,-,"How often are these two words used together?|Type your response on a scale from 0-100 and then press Enter.",Study/JOL,"Study Phase",4096,,,3751,3934,,,,65,1
w215680_oa,562cw1jwe4,Nick_Dissertation_EX1,1,40,2020-04-26T09:57:12-07:00,2.4654350280762,9,versionA_stim.csv,FREQVersionA.csv,"Frequency Version A","Dissertation, Frequency version A",PAST,FUTURE,Study1,S,61,83,FREQ,User,-,"How often are these two words used together?|Type your response on a scale from 0-100 and then press Enter.",Study/JOL,"Study Phase",2106,,,1537,1858,,,,100,1
w215680_oa,562cw1jwe4,Nick_Dissertation_EX1,1,41,2020-04-26T09:57:16-07:00,3.5110800266266,9,versionA_stim.csv,FREQVersionA.csv,"Frequency Version A","Dissertation, Frequency version A",HYGIENE,CLEAN,Study1,F,17,56,FREQ,User,-,"How often are these two words used together?|Type your response on a scale from 0-100 and then press Enter.",Study/JOL,"Study Phase",3162,,,2499,2915,,,,100,1
w215680_oa,562cw1jwe4,Nick_Dissertation_EX1,1,42,2020-04-26T09:57:23-07:00,7.2080669403076,9,versionA_stim.csv,FREQVersionA.csv,"Frequency Version A","Dissertation, Frequency version A",SLEEP,DROWSY,Study1,B,41,47,FREQ,User,-,"How often are these two words used together?|Type your response on a scale from 0-100 and then press Enter.",Study/JOL,"Study Phase",6854,,,6453,6668,,,,75,1
w215680_oa,562cw1jwe4,Nick_Dissertation_EX1,1,43,2020-04-26T09:57:26-07:00,3.0251250267029,9,versionA_stim.csv,FREQVersionA.csv,"Frequency Version A","Dissertation, Frequency version A",DARK,CAVE,Study1,B,28,52,FREQ,User,-,"How often are these two words used together?|Type your response on a scale from 0-100 and then press Enter.",Study/JOL,"Study Phase",2670,,,2258,2435,,,,90,1
w215680_oa,562cw1jwe4,Nick_Dissertation_EX1,1,44,2020-04-26T09:57:32-07:00,6.2558488845825,9,versionA_stim.csv,FREQVersionA.csv,"Frequency Version A","Dissertation, Frequency version A",CLOTHES,ATTIRE,Study1,B,43,55,FREQ,User,-,"How often are these two words used together?|Type your response on a scale from 0-100 and then press Enter.",Study/JOL,"Study Phase",5890,,,4473,4918,,,,80,1
w215680_oa,562cw1jwe4,Nick_Dissertation_EX1,1,45,2020-04-26T09:57:39-07:00,7.384840965271,9,versionA_stim.csv,FREQVersionA.csv,"Frequency Version A","Dissertation, Frequency version A",LETTUCE,SALAD,Study1,S,59,10,FREQ,User,-,"How often are these two words used together?|Type your response on a scale from 0-100 and then press Enter.",Study/JOL,"Study Phase",7025,,,6497,6816,,,,100,1
w215680_oa,562cw1jwe4,Nick_Dissertation_EX1,1,46,2020-04-26T09:57:49-07:00,9.7149810791016,9,versionA_stim.csv,FREQVersionA.csv,"Frequency Version A","Dissertation, Frequency version A",SUGAR,RIDDLE,Study1,U,81,50,FREQ,User,-,"How often are these two words used together?|Type your response on a scale from 0-100 and then press Enter.",Study/JOL,"Study Phase",9354,,,8185,8960,,,,15,1
w215680_oa,562cw1jwe4,Nick_Dissertation_EX1,1,47,2020-04-26T09:57:54-07:00,4.6592950820923,9,versionA_stim.csv,FREQVersionA.csv,"Frequency Version A","Dissertation, Frequency version A",HONEY,BEE,Study1,S,63,63,FREQ,User,-,"How often are these two words used together?|Type your response on a scale from 0-100 and then press Enter.",Study/JOL,"Study Phase",4296,,,3841,4081,,,,100,1
w215680_oa,562cw1jwe4,Nick_Dissertation_EX1,1,48,2020-04-26T09:57:59-07:00,4.8757400512695,9,versionA_stim.csv,FREQVersionA.csv,"Frequency Version A","Dissertation, Frequency version A",CIRCLE,ROUND,Study1,S,65,81,FREQ,User,-,"How often are these two words used together?|Type your response on a scale from 0-100 and then press Enter.",Study/JOL,"Study Phase",4514,,,3786,4123,,,,100,1
w215680_oa,562cw1jwe4,Nick_Dissertation_EX1,1,49,2020-04-26T09:58:02-07:00,3.7479829788208,9,versionA_stim.csv,FREQVersionA.csv,"Frequency Version A","Dissertation, Frequency version A",DUE,ASSIGNMENT,Study1,S,46,36,FREQ,User,-,"How often are these two words used together?|Type your response on a scale from 0-100 and then press Enter.",Study/JOL,"Study Phase",3392,,,2936,3184,,,,100,1
w215680_oa,562cw1jwe4,Nick_Dissertation_EX1,1,50,2020-04-26T09:58:12-07:00,9.8930428028107,9,versionA_stim.csv,FREQVersionA.csv,"Frequency Version A","Dissertation, Frequency version A",HAPPY,CAR,Study1,U,77,20,FREQ,User,-,"How often are these two words used together?|Type your response on a scale from 0-100 and then press Enter.",Study/JOL,"Study Phase",9537,,,2868,9311,,,,40,1
w215680_oa,562cw1jwe4,Nick_Dissertation_EX1,1,51,2020-04-26T09:58:17-07:00,4.3672389984131,9,versionA_stim.csv,FREQVersionA.csv,"Frequency Version A","Dissertation, Frequency version A",GEOLOGY,ROCK,Study1,F,19,62,FREQ,User,-,"How often are these two words used together?|Type your response on a scale from 0-100 and then press Enter.",Study/JOL,"Study Phase",4003,,,3643,3793,,,,60,1
w215680_oa,562cw1jwe4,Nick_Dissertation_EX1,1,52,2020-04-26T09:58:23-07:00,6.3748161792755,9,versionA_stim.csv,FREQVersionA.csv,"Frequency Version A","Dissertation, Frequency version A",ROOT,PLANT,Study1,F,13,31,FREQ,User,-,"How often are these two words used together?|Type your response on a scale from 0-100 and then press Enter.",Study/JOL,"Study Phase",6013,,,4630,5780,,,,45,1
w215680_oa,562cw1jwe4,Nick_Dissertation_EX1,1,53,2020-04-26T09:58:30-07:00,6.5629279613495,9,versionA_stim.csv,FREQVersionA.csv,"Frequency Version A","Dissertation, Frequency version A",LOCATION,SITE,Study1,S,48,80,FREQ,User,-,"How often are these two words used together?|Type your response on a scale from 0-100 and then press Enter.",Study/JOL,"Study Phase",6223,,,5470,6067,,,,75,1
w215680_oa,562cw1jwe4,Nick_Dissertation_EX1,1,54,2020-04-26T10:00:51-07:00,141.18535399437,9,versionA_stim.csv,FREQVersionA.csv,"Frequency Version A","Dissertation, Frequency version A",ARTERY,BRONZE,Study1,U,74,82,FREQ,User,-,"How often are these two words used together?|Type your response on a scale from 0-100 and then press Enter.",Study/JOL,"Study Phase",140825,,,140576,140576,,,,1,0.279
w215680_oa,562cw1jwe4,Nick_Dissertation_EX1,1,55,2020-04-26T10:01:00-07:00,9.6114149093628,9,versionA_stim.csv,FREQVersionA.csv,"Frequency Version A","Dissertation, Frequency version A",ORCHID,FLOWER,Study1,F,24,76,FREQ,User,-,"How often are these two words used together?|Type your response on a scale from 0-100 and then press Enter.",Study/JOL,"Study Phase",9228,,,5817,8953,,,,40,1
w215680_oa,562cw1jwe4,Nick_Dissertation_EX1,1,56,2020-04-26T10:01:13-07:00,12.713380098343,9,versionA_stim.csv,FREQVersionA.csv,"Frequency Version A","Dissertation, Frequency version A",LIFT,WOMAN,Study1,U,69,22,FREQ,User,-,"How often are these two words used together?|Type your response on a scale from 0-100 and then press Enter.",Study/JOL,"Study Phase",12349,,,12100,12100,,,,3,1
w215680_oa,562cw1jwe4,Nick_Dissertation_EX1,1,57,2020-04-26T10:01:22-07:00,8.806501865387,9,versionA_stim.csv,FREQVersionA.csv,"Frequency Version A","Dissertation, Frequency version A",SWAN,BIRD,Study1,F,14,44,FREQ,User,-,"How often are these two words used together?|Type your response on a scale from 0-100 and then press Enter.",Study/JOL,"Study Phase",8426,,,6809,8169,,,,60,1
w215680_oa,562cw1jwe4,Nick_Dissertation_EX1,1,58,2020-04-26T10:01:31-07:00,9.1410009860992,9,versionA_stim.csv,FREQVersionA.csv,"Frequency Version A","Dissertation, Frequency version A",HIDE,SICK,Study1,U,84,66,FREQ,User,-,"How often are these two words used together?|Type your response on a scale from 0-100 and then press Enter.",Study/JOL,"Study Phase",8739,,,8483,8483,,,,0,1
w215680_oa,562cw1jwe4,Nick_Dissertation_EX1,1,59,2020-04-26T10:01:44-07:00,12.922892093658,9,versionA_stim.csv,FREQVersionA.csv,"Frequency Version A","Dissertation, Frequency version A",PUSHER,CLUTTER,Study1,U,66,21,FREQ,User,-,"How often are these two words used together?|Type your response on a scale from 0-100 and then press Enter.",Study/JOL,"Study Phase",12545,,,3613,12221,,,,0,1
w215680_oa,562cw1jwe4,Nick_Dissertation_EX1,1,60,2020-04-26T10:01:49-07:00,5.1213660240173,9,versionA_stim.csv,FREQVersionA.csv,"Frequency Version A","Dissertation, Frequency version A",SHOE,FOOT,Study1,S,60,14,FREQ,User,-,"How often are these two words used together?|Type your response on a scale from 0-100 and then press Enter.",Study/JOL,"Study Phase",4750,,,3613,3943,,,,100,1
w215680_oa,562cw1jwe4,Nick_Dissertation_EX1,1,61,2020-04-26T10:01:55-07:00,5.5736200809479,9,versionA_stim.csv,FREQVersionA.csv,"Frequency Version A","Dissertation, Frequency version A",BITTER,COLD,Study1,F,12,64,FREQ,User,-,"How often are these two words used together?|Type your response on a scale from 0-100 and then press Enter.",Study/JOL,"Study Phase",5216,,,4825,4941,,,,30,1
w215680_oa,562cw1jwe4,Nick_Dissertation_EX1,1,62,2020-04-26T10:01:57-07:00,2.762512922287,9,versionA_stim.csv,FREQVersionA.csv,"Frequency Version A","Dissertation, Frequency version A",WAGE,MONEY,Study1,F,8,65,FREQ,User,-,"How often are these two words used together?|Type your response on a scale from 0-100 and then press Enter.",Study/JOL,"Study Phase",2377,,,1641,1962,,,,100,1
w215680_oa,562cw1jwe4,Nick_Dissertation_EX1,1,63,2020-04-26T10:02:02-07:00,4.4344248771667,9,versionA_stim.csv,FREQVersionA.csv,"Frequency Version A","Dissertation, Frequency version A",HUNGER,FAMINE,Study1,B,40,24,FREQ,User,-,"How often are these two words used together?|Type your response on a scale from 0-100 and then press Enter.",Study/JOL,"Study Phase",4076,,,3330,3819,,,,100,1
w215680_oa,562cw1jwe4,Nick_Dissertation_EX1,1,64,2020-04-26T10:02:11-07:00,8.7584180831909,9,versionA_stim.csv,FREQVersionA.csv,"Frequency Version A","Dissertation, Frequency version A",GRILL,BAR,Study1,S,52,85,FREQ,User,-,"How often are these two words used together?|Type your response on a scale from 0-100 and then press Enter.",Study/JOL,"Study Phase",7969,,,7273,7831,,,,75,1
w215680_oa,562cw1jwe4,Nick_Dissertation_EX1,1,65,2020-04-26T10:02:28-07:00,17.749957084656,9,versionA_stim.csv,FREQVersionA.csv,"Frequency Version A","Dissertation, Frequency version A",SMELL,STENCH,Study1,B,42,86,FREQ,User,-,"How often are these two words used together?|Type your response on a scale from 0-100 and then press Enter.",Study/JOL,"Study Phase",17346,,,17050,17168,,,,50,0.862
w215680_oa,562cw1jwe4,Nick_Dissertation_EX1,1,66,2020-04-26T10:02:31-07:00,2.6550848484039,9,versionA_stim.csv,FREQVersionA.csv,"Frequency Version A","Dissertation, Frequency version A",BLOW,WIND,Study1,S,55,67,FREQ,User,-,"How often are these two words used together?|Type your response on a scale from 0-100 and then press Enter.",Study/JOL,"Study Phase",2282,,,1777,2104,,,,100,1
w215680_oa,562cw1jwe4,Nick_Dissertation_EX1,1,67,2020-04-26T10:02:37-07:00,5.7618720531464,9,versionA_stim.csv,FREQVersionA.csv,"Frequency Version A","Dissertation, Frequency version A",BALL,RACKET,Study1,B,38,23,FREQ,User,-,"How often are these two words used together?|Type your response on a scale from 0-100 and then press Enter.",Study/JOL,"Study Phase",5389,,,4980,5179,,,,90,1
w215680_oa,562cw1jwe4,Nick_Dissertation_EX1,1,68,2020-04-26T10:02:44-07:00,6.9777889251709,9,versionA_stim.csv,FREQVersionA.csv,"Frequency Version A","Dissertation, Frequency version A",SOON,BELT,Study1,U,70,16,FREQ,User,-,"How often are these two words used together?|Type your response on a scale from 0-100 and then press Enter.",Study/JOL,"Study Phase",6593,,,6264,6264,,,,0,1
w215680_oa,562cw1jwe4,Nick_Dissertation_EX1,1,69,2020-04-26T10:02:51-07:00,6.8676600456238,9,versionA_stim.csv,FREQVersionA.csv,"Frequency Version A","Dissertation, Frequency version A",DISCOVER,FLOOR,Study1,U,71,54,FREQ,User,-,"How often are these two words used together?|Type your response on a scale from 0-100 and then press Enter.",Study/JOL,"Study Phase",6520,,,6247,6247,,,,0,1
w215680_oa,562cw1jwe4,Nick_Dissertation_EX1,1,70,2020-04-26T10:02:53-07:00,2.5433971881866,9,versionA_stim.csv,FREQVersionA.csv,"Frequency Version A","Dissertation, Frequency version A",LAW,ATTORNEY,Study1,B,34,69,FREQ,User,-,"How often are these two words used together?|Type your response on a scale from 0-100 and then press Enter.",Study/JOL,"Study Phase",2194,,,1609,1946,,,,100,1
w215680_oa,562cw1jwe4,Nick_Dissertation_EX1,1,71,2020-04-26T10:02:55-07:00,2.0545527935028,9,versionA_stim.csv,FREQVersionA.csv,"Frequency Version A","Dissertation, Frequency version A",EDITOR,NEWS,Study1,F,10,43,FREQ,User,-,"How often are these two words used together?|Type your response on a scale from 0-100 and then press Enter.",Study/JOL,"Study Phase",1734,,,1117,1501,,,,100,1
w215680_oa,562cw1jwe4,Nick_Dissertation_EX1,1,72,2020-04-26T10:03:03-07:00,7.5032000541687,9,versionA_stim.csv,FREQVersionA.csv,"Frequency Version A","Dissertation, Frequency version A",DIGESTION,STOMACH,Study1,F,7,57,FREQ,User,-,"How often are these two words used together?|Type your response on a scale from 0-100 and then press Enter.",Study/JOL,"Study Phase",7128,,,6744,6910,,,,70,1
w215680_oa,562cw1jwe4,Nick_Dissertation_EX1,1,73,2020-04-26T10:03:06-07:00,3.1253290176392,9,versionA_stim.csv,FREQVersionA.csv,"Frequency Version A","Dissertation, Frequency version A",WAY,OUT,Study1,F,16,33,FREQ,User,-,"How often are these two words used together?|Type your response on a scale from 0-100 and then press Enter.",Study/JOL,"Study Phase",2768,,,2287,2584,,,,100,1
w215680_oa,562cw1jwe4,Nick_Dissertation_EX1,1,74,2020-04-26T10:03:12-07:00,5.6231369972229,9,versionA_stim.csv,FREQVersionA.csv,"Frequency Version A","Dissertation, Frequency version A",WINE,CHEESE,Study1,S,57,45,FREQ,User,-,"How often are these two words used together?|Type your response on a scale from 0-100 and then press Enter.",Study/JOL,"Study Phase",5228,,,4723,4881,,,,50,1
w215680_oa,562cw1jwe4,Nick_Dissertation_EX1,1,75,2020-04-26T10:03:14-07:00,2.6002681255341,9,versionA_stim.csv,FREQVersionA.csv,"Frequency Version A","Dissertation, Frequency version A",BATHROOM,TOILET,Study1,S,58,71,FREQ,User,-,"How often are these two words used together?|Type your response on a scale from 0-100 and then press Enter.",Study/JOL,"Study Phase",2238,,,1773,2046,,,,100,1
w215680_oa,562cw1jwe4,Nick_Dissertation_EX1,1,76,2020-04-26T10:03:27-07:00,12.512447834015,9,versionA_stim.csv,FREQVersionA.csv,"Frequency Version A","Dissertation, Frequency version A",HORNET,STING,Study1,F,11,68,FREQ,User,-,"How often are these two words used together?|Type your response on a scale from 0-100 and then press Enter.",Study/JOL,"Study Phase",12135,,,11767,11916,,,,90,0.778
w215680_oa,562cw1jwe4,Nick_Dissertation_EX1,1,77,2020-04-26T10:03:29-07:00,2.655375957489,9,versionA_stim.csv,FREQVersionA.csv,"Frequency Version A","Dissertation, Frequency version A",BUG,WASP,Study1,B,32,77,FREQ,User,-,"How often are these two words used together?|Type your response on a scale from 0-100 and then press Enter.",Study/JOL,"Study Phase",2242,,,1793,2058,,,,100,1
w215680_oa,562cw1jwe4,Nick_Dissertation_EX1,1,78,2020-04-26T10:03:33-07:00,3.4557580947876,9,versionA_stim.csv,FREQVersionA.csv,"Frequency Version A","Dissertation, Frequency version A",FIRE,BLAZE,Study1,B,45,13,FREQ,User,-,"How often are these two words used together?|Type your response on a scale from 0-100 and then press Enter.",Study/JOL,"Study Phase",3043,,,946,2793,,,,60,1
w215680_oa,562cw1jwe4,Nick_Dissertation_EX1,1,79,2020-04-26T10:03:35-07:00,2.0134799480438,9,versionA_stim.csv,FREQVersionA.csv,"Frequency Version A","Dissertation, Frequency version A",BABY,CHILD,Study1,S,64,25,FREQ,User,-,"How often are these two words used together?|Type your response on a scale from 0-100 and then press Enter.",Study/JOL,"Study Phase",1607,,,1168,1439,,,,100,1
w215680_oa,562cw1jwe4,Nick_Dissertation_EX1,1,80,2020-04-26T10:03:37-07:00,2.0588200092316,9,versionA_stim.csv,FREQVersionA.csv,"Frequency Version A","Dissertation, Frequency version A",DRINK,SIP,Study1,B,27,18,FREQ,User,-,"How often are these two words used together?|Type your response on a scale from 0-100 and then press Enter.",Study/JOL,"Study Phase",1711,,,1255,1552,,,,100,1
w215680_oa,562cw1jwe4,Nick_Dissertation_EX1,1,81,2020-04-26T10:03:42-07:00,4.6763651371002,9,versionA_stim.csv,FREQVersionA.csv,"Frequency Version A","Dissertation, Frequency version A",FIX,HAND,Study1,U,75,15,FREQ,User,-,"How often are these two words used together?|Type your response on a scale from 0-100 and then press Enter.",Study/JOL,"Study Phase",4300,,,3924,4067,,,,10,1
w215680_oa,562cw1jwe4,Nick_Dissertation_EX1,1,82,2020-04-26T10:03:47-07:00,5.4449248313904,9,versionA_stim.csv,FREQVersionA.csv,"Frequency Version A","Dissertation, Frequency version A",HEIGHT,GROWTH,Study1,B,30,19,FREQ,User,-,"How often are these two words used together?|Type your response on a scale from 0-100 and then press Enter.",Study/JOL,"Study Phase",5074,,,4738,4864,,,,50,1
w215680_oa,562cw1jwe4,Nick_Dissertation_EX1,1,83,2020-04-26T10:03:52-07:00,5.1994471549988,9,versionA_stim.csv,FREQVersionA.csv,"Frequency Version A","Dissertation, Frequency version A",KING,VASE,Study1,U,85,30,FREQ,User,-,"How often are these two words used together?|Type your response on a scale from 0-100 and then press Enter.",Study/JOL,"Study Phase",4838,,,4638,4638,,,,1,1
w215680_oa,562cw1jwe4,Nick_Dissertation_EX1,1,84,2020-04-26T10:04:00-07:00,7.6723368167877,9,versionA_stim.csv,FREQVersionA.csv,"Frequency Version A","Dissertation, Frequency version A",GREAT,FANTASTIC,Study1,B,35,72,FREQ,User,-,"How often are these two words used together?|Type your response on a scale from 0-100 and then press Enter.",Study/JOL,"Study Phase",7314,,,6978,7136,,,,90,1
w215680_oa,562cw1jwe4,Nick_Dissertation_EX1,1,85,2020-04-26T10:04:10-07:00,9.7766880989075,9,versionA_stim.csv,FREQVersionA.csv,"Frequency Version A","Dissertation, Frequency version A",ALLOW,TUCK,Study1,U,78,74,FREQ,User,-,"How often are these two words used together?|Type your response on a scale from 0-100 and then press Enter.",Study/JOL,"Study Phase",9419,,,9187,9187,,,,1,1
w215680_oa,562cw1jwe4,Nick_Dissertation_EX1,1,86,2020-04-26T10:04:18-07:00,8.3210890293121,9,versionA_stim.csv,FREQVersionA.csv,"Frequency Version A","Dissertation, Frequency version A",DUMP,WASTE,Study1,S,49,61,FREQ,User,-,"How often are these two words used together?|Type your response on a scale from 0-100 and then press Enter.",Study/JOL,"Study Phase",7952,,,7447,7661,,,,90,1
w215680_oa,562cw1jwe4,Nick_Dissertation_EX1,1,87,2020-04-26T10:04:23-07:00,5.1558210849762,9,versionA_stim.csv,FREQVersionA.csv,"Frequency Version A","Dissertation, Frequency version A",BRIDGE,WATER,Study1,F,18,9,FREQ,User,-,"How often are these two words used together?|Type your response on a scale from 0-100 and then press Enter.",Study/JOL,"Study Phase",4788,,,4226,4523,,,,100,1
w215680_oa,562cw1jwe4,Nick_Dissertation_EX1,1,88,2020-04-26T10:04:26-07:00,3.1343369483948,9,versionA_stim.csv,FREQVersionA.csv,"Frequency Version A","Dissertation, Frequency version A",HERD,COW,Study1,F,22,58,FREQ,User,-,"How often are these two words used together?|Type your response on a scale from 0-100 and then press Enter.",Study/JOL,"Study Phase",2765,,,1299,2547,,,,100,1
w215680_oa,562cw1jwe4,Nick_Dissertation_EX1,1,89,2020-04-26T10:04:32-07:00,5.4202828407288,9,versionA_stim.csv,FREQVersionA.csv,"Frequency Version A","Dissertation, Frequency version A",MACHINE,POSITION,Study1,U,76,35,FREQ,User,-,"How often are these two words used together?|Type your response on a scale from 0-100 and then press Enter.",Study/JOL,"Study Phase",5046,,,4710,4828,,,,40,1
w215680_oa,562cw1jwe4,Nick_Dissertation_EX1,1,90,2020-04-26T10:04:37-07:00,5.3546051979065,9,versionA_stim.csv,FREQVersionA.csv,"Frequency Version A","Dissertation, Frequency version A",ART,LION,Study1,U,79,38,FREQ,User,-,"How often are these two words used together?|Type your response on a scale from 0-100 and then press Enter.",Study/JOL,"Study Phase",4997,,,4612,4794,,,,10,1
w215680_oa,562cw1jwe4,Nick_Dissertation_EX1,1,91,2020-04-26T10:04:42-07:00,5.1101689338684,9,versionA_stim.csv,FREQVersionA.csv,"Frequency Version A","Dissertation, Frequency version A",GEESE,GOOSE,BUFFER2,Buffer,86,89,FREQ,User,-,"How often are these two words used together?|Type your response on a scale from 0-100 and then press Enter.",Study/JOL,BUFFER2,4740,,,3987,4356,,,,100,1
w215680_oa,562cw1jwe4,Nick_Dissertation_EX1,1,92,2020-04-26T10:04:45-07:00,2.5537688732147,9,versionA_stim.csv,FREQVersionA.csv,"Frequency Version A","Dissertation, Frequency version A",SHERRIF,POLICE,BUFFER2,Buffer,87,90,FREQ,User,-,"How often are these two words used together?|Type your response on a scale from 0-100 and then press Enter.",Study/JOL,BUFFER2,2173,,,1694,2014,,,,100,1
w215680_oa,562cw1jwe4,Nick_Dissertation_EX1,1,93,2020-04-26T10:05:06-07:00,21.119168996811,9,versionA_stim.csv,FREQVersionA.csv,"Frequency Version A","Dissertation, Frequency version A",MALT,CHOCOLATE,BUFFER2,Buffer,88,91,FREQ,User,-,"How often are these two words used together?|Type your response on a scale from 0-100 and then press Enter.",Study/JOL,BUFFER2,20723,,,20411,20529,,,,20,0.651
w215680_oa,562cw1jwe4,Nick_Dissertation_EX1,1,94,2020-04-26T10:05:08-07:00,2.2339081764221,9,versionA_stim.csv,FREQVersionA.csv,"Frequency Version A","Dissertation, Frequency version A",MOON,SPACE,BUFFER2,Buffer,89,87,FREQ,User,-,"How often are these two words used together?|Type your response on a scale from 0-100 and then press Enter.",Study/JOL,BUFFER2,1863,,,1374,1672,,,,100,1
w215680_oa,562cw1jwe4,Nick_Dissertation_EX1,1,95,2020-04-26T10:05:20-07:00,12.143003940582,9,versionA_stim.csv,FREQVersionA.csv,"Frequency Version A","Dissertation, Frequency version A",THING,STUFF,BUFFER2,Buffer,90,88,FREQ,User,-,"How often are these two words used together?|Type your response on a scale from 0-100 and then press Enter.",Study/JOL,BUFFER2,11665,,,11272,11272,,,,5,1
w215680_oa,562cw1jwe4,Nick_Dissertation_EX1,1,96,2020-04-26T10:05:23-07:00,2.7059938907623,9,versionA_stim.csv,FREQVersionA.csv,"Frequency Version A","Dissertation, Frequency version A",,,,,,0,Instruct,User,-,"You have completed this section. Please press Enter.",Filler_Instruction,Instruct2,2258,,,-1,-1,,,,,1
w215680_oa,562cw1jwe4,Nick_Dissertation_EX1,1,97,2020-04-26T10:07:23-07:00,120.41941905022,9,versionA_stim.csv,FREQVersionA.csv,"Frequency Version A","Dissertation, Frequency version A",,,,,,0,FreeRecall,120,120,"Please list the 50 US states in alphabetical order. The task will automatically advance to the next screen after two minutes.",,Filler1,120005,"Alabama Alaska Arizona Arkansas California Colorado Connecticut Delaware Florida Georgia Hawaii Idaho Illinois Indiana Iowa Kansas Kentucky Louisiana Maine Maryland Massachusetts Michigan Minnesota Mississippi Missouri Montana Nebraska Nevada New Hampshire New Jersey New Mexico New York North Carolina North Dakota Ohio Oklahoma Oregon Pennsylvania Rhode Island South Carolina South Dakota Tennessee Texas Utah Vermont Virginia Washington West Virginia Wisconsin Wyoming",0,-1,-1,0,0,,,0.93
w215680_oa,562cw1jwe4,Nick_Dissertation_EX1,1,98,2020-04-26T10:07:35-07:00,11.243880033493,9,versionA_stim.csv,FREQVersionA.csv,"Frequency Version A","Dissertation, Frequency version A",,,,,,0,Instruct,-,10,"You will now be presented with the first word from each of the previously studied item pairs. Please type the missing word. If you do not know the word, you may guess or press Enter to skip forward to the next pair.",,Instruct3,10841,,,-1,-1,,,,,1
w215680_oa,562cw1jwe4,Nick_Dissertation_EX1,1,99,2020-04-26T10:07:39-07:00,4.3248240947723,9,versionA_stim.csv,FREQVersionA.csv,"Frequency Version A","Dissertation, Frequency version A",HERD,COW,Study1,F,22,58,Test,User,-,,Recall,Recall1,3919,cow,100,3509,3740,1,1,,,1
w215680_oa,562cw1jwe4,Nick_Dissertation_EX1,1,100,2020-04-26T10:07:57-07:00,17.905315876007,9,versionA_stim.csv,FREQVersionA.csv,"Frequency Version A","Dissertation, Frequency version A",SOON,BELT,Study1,U,70,16,Test,User,-,,Recall,Recall1,17541,early,44.444444444444,7134,8364,0,0,,,1
w215680_oa,562cw1jwe4,Nick_Dissertation_EX1,1,101,2020-04-26T10:08:13-07:00,16.23855805397,9,versionA_stim.csv,FREQVersionA.csv,"Frequency Version A","Dissertation, Frequency version A",CLOTHES,ATTIRE,Study1,B,43,55,Test,User,-,,Recall,Recall1,15882,attire,100,14402,15543,1,1,,,1
w215680_oa,562cw1jwe4,Nick_Dissertation_EX1,1,102,2020-04-26T10:08:21-07:00,7.7103209495544,9,versionA_stim.csv,FREQVersionA.csv,"Frequency Version A","Dissertation, Frequency version A",CHISEL,HAMMER,Study1,F,9,49,Test,User,-,,Recall,Recall1,7338,icecream,28.571428571429,5216,7135,0,0,,,1
w215680_oa,562cw1jwe4,Nick_Dissertation_EX1,1,103,2020-04-26T10:08:29-07:00,8.5620310306549,9,versionA_stim.csv,FREQVersionA.csv,"Frequency Version A","Dissertation, Frequency version A",POP,SODA,Study1,S,56,34,Test,User,-,,Recall,Recall1,8153,sticks,20,4594,7239,0,0,,,1
w215680_oa,562cw1jwe4,Nick_Dissertation_EX1,1,104,2020-04-26T10:08:35-07:00,5.4335670471191,9,versionA_stim.csv,FREQVersionA.csv,"Frequency Version A","Dissertation, Frequency version A",HYGIENE,CLEAN,Study1,F,17,56,Test,User,-,,Recall,Recall1,5057,clean,100,1823,2629,1,1,,,1
w215680_oa,562cw1jwe4,Nick_Dissertation_EX1,1,105,2020-04-26T10:08:43-07:00,8.4316668510437,9,versionA_stim.csv,FREQVersionA.csv,"Frequency Version A","Dissertation, Frequency version A",EDITOR,NEWS,Study1,F,10,43,Test,User,-,,Recall,Recall1,8059,news,100,1987,4065,1,1,,,1
w215680_oa,562cw1jwe4,Nick_Dissertation_EX1,1,106,2020-04-26T10:08:51-07:00,7.5434091091156,9,versionA_stim.csv,FREQVersionA.csv,"Frequency Version A","Dissertation, Frequency version A",HORNET,STING,Study1,F,11,68,Test,User,-,,Recall,Recall1,7159,wasp,22.222222222222,4030,6205,0,0,,,1
w215680_oa,562cw1jwe4,Nick_Dissertation_EX1,1,107,2020-04-26T10:08:53-07:00,2.7101519107819,9,versionA_stim.csv,FREQVersionA.csv,"Frequency Version A","Dissertation, Frequency version A",BRIDGE,WATER,Study1,F,18,9,Test,User,-,,Recall,Recall1,2341,water,100,1484,2131,1,1,,,1
w215680_oa,562cw1jwe4,Nick_Dissertation_EX1,1,108,2020-04-26T10:08:57-07:00,3.536062002182,9,versionA_stim.csv,FREQVersionA.csv,"Frequency Version A","Dissertation, Frequency version A",MACHINE,POSITION,Study1,U,76,35,Test,User,-,,Recall,Recall1,3174,position,100,1934,3021,1,1,,,1
w215680_oa,562cw1jwe4,Nick_Dissertation_EX1,1,109,2020-04-26T10:09:27-07:00,30.081782102585,9,versionA_stim.csv,FREQVersionA.csv,"Frequency Version A","Dissertation, Frequency version A",HUNGER,FAMINE,Study1,B,40,24,Test,User,-,,Recall,Recall1,29624,feminine,71.428571428571,-1,-1,0,0,,,0.933
w215680_oa,562cw1jwe4,Nick_Dissertation_EX1,1,110,2020-04-26T10:09:32-07:00,4.593003988266,9,versionA_stim.csv,FREQVersionA.csv,"Frequency Version A","Dissertation, Frequency version A",HOT,CHILI,Study1,B,37,40,Test,User,-,,Recall,Recall1,3988,chilli,90.909090909091,2604,3714,0,1,,,1
w215680_oa,562cw1jwe4,Nick_Dissertation_EX1,1,111,2020-04-26T10:10:24-07:00,52.760346889496,9,versionA_stim.csv,FREQVersionA.csv,"Frequency Version A","Dissertation, Frequency version A",SLEEP,DROWSY,Study1,B,41,47,Test,User,-,,Recall,Recall1,52403,death,18.181818181818,51138,51857,0,0,,,1
w215680_oa,562cw1jwe4,Nick_Dissertation_EX1,1,112,2020-04-26T10:10:59-07:00,34.99692606926,9,versionA_stim.csv,FREQVersionA.csv,"Frequency Version A","Dissertation, Frequency version A",KEY,LATCH,Study1,B,36,32,Test,User,-,,Recall,Recall1,34619,metal,20,33705,34400,0,0,,,0.736
w215680_oa,562cw1jwe4,Nick_Dissertation_EX1,1,113,2020-04-26T10:11:03-07:00,4.1311910152435,9,versionA_stim.csv,FREQVersionA.csv,"Frequency Version A","Dissertation, Frequency version A",ROOT,PLANT,Study1,F,13,31,Test,User,-,,Recall,Recall1,3658,tree,22.222222222222,1816,2393,0,0,,,1
w215680_oa,562cw1jwe4,Nick_Dissertation_EX1,1,114,2020-04-26T10:11:33-07:00,29.7047560215,9,versionA_stim.csv,FREQVersionA.csv,"Frequency Version A","Dissertation, Frequency version A",LIFT,WOMAN,Study1,U,69,22,Test,User,-,,Recall,Recall1,29332,drop,22.222222222222,28211,29121,0,0,,,0.851
w215680_oa,562cw1jwe4,Nick_Dissertation_EX1,1,115,2020-04-26T10:11:40-07:00,6.572105884552,9,versionA_stim.csv,FREQVersionA.csv,"Frequency Version A","Dissertation, Frequency version A",SENTENCE,WORD,Study1,B,31,75,Test,User,-,,Recall,Recall1,6196,words,88.888888888889,2058,2785,0,1,,,1
w215680_oa,562cw1jwe4,Nick_Dissertation_EX1,1,116,2020-04-26T10:11:47-07:00,7.2399370670319,9,versionA_stim.csv,FREQVersionA.csv,"Frequency Version A","Dissertation, Frequency version A",TRIAL,JURY,Study1,S,50,41,Test,User,-,,Recall,Recall1,6884,jury,100,5326,5773,1,1,,,1
w215680_oa,562cw1jwe4,Nick_Dissertation_EX1,1,117,2020-04-26T10:12:06-07:00,19.327892065048,9,versionA_stim.csv,FREQVersionA.csv,"Frequency Version A","Dissertation, Frequency version A",DELINQUENT,BAD,Study1,F,6,37,Test,User,-,,Recall,Recall1,18927,crime,0,17838,18773,0,0,,,0.729
w215680_oa,562cw1jwe4,Nick_Dissertation_EX1,1,118,2020-04-26T10:12:23-07:00,16.521228075027,9,versionA_stim.csv,FREQVersionA.csv,"Frequency Version A","Dissertation, Frequency version A",DISCOVER,FLOOR,Study1,U,71,54,Test,User,-,,Recall,Recall1,16139,find,22.222222222222,15083,15672,0,0,,,1
w215680_oa,562cw1jwe4,Nick_Dissertation_EX1,1,119,2020-04-26T10:12:30-07:00,6.8140389919281,9,versionA_stim.csv,FREQVersionA.csv,"Frequency Version A","Dissertation, Frequency version A",ALLOW,TUCK,Study1,U,78,74,Test,User,-,,Recall,Recall1,6443,permission,0,4867,6280,0,0,,,1
w215680_oa,562cw1jwe4,Nick_Dissertation_EX1,1,120,2020-04-26T10:12:40-07:00,10.628007888794,9,versionA_stim.csv,FREQVersionA.csv,"Frequency Version A","Dissertation, Frequency version A",MEANING,DEFINITION,Study1,S,62,48,Test,User,-,,Recall,Recall1,10249,dictionary,60,6359,8910,0,0,,,1
w215680_oa,562cw1jwe4,Nick_Dissertation_EX1,1,121,2020-04-26T10:12:43-07:00,2.7330820560455,9,versionA_stim.csv,FREQVersionA.csv,"Frequency Version A","Dissertation, Frequency version A",GRILL,BAR,Study1,S,52,85,Test,User,-,,Recall,Recall1,2351,bar,100,1912,2198,1,1,,,1
w215680_oa,562cw1jwe4,Nick_Dissertation_EX1,1,122,2020-04-26T10:12:52-07:00,9.2020900249481,9,versionA_stim.csv,FREQVersionA.csv,"Frequency Version A","Dissertation, Frequency version A",PAST,FUTURE,Study1,S,61,83,Test,User,-,,Recall,Recall1,8846,future,100,1371,8163,1,1,,,1
w215680_oa,562cw1jwe4,Nick_Dissertation_EX1,1,123,2020-04-26T10:12:57-07:00,4.4486730098724,9,versionA_stim.csv,FREQVersionA.csv,"Frequency Version A","Dissertation, Frequency version A",WINE,CHEESE,Study1,S,57,45,Test,User,-,,Recall,Recall1,4013,cheese,100,1749,3140,1,1,,,1
w215680_oa,562cw1jwe4,Nick_Dissertation_EX1,1,124,2020-04-26T10:13:02-07:00,5.0480220317841,9,versionA_stim.csv,FREQVersionA.csv,"Frequency Version A","Dissertation, Frequency version A",LETTUCE,SALAD,Study1,S,59,10,Test,User,-,,Recall,Recall1,4684,salad,100,2705,3360,1,1,,,1
w215680_oa,562cw1jwe4,Nick_Dissertation_EX1,1,125,2020-04-26T10:13:04-07:00,2.4213960170746,9,versionA_stim.csv,FREQVersionA.csv,"Frequency Version A","Dissertation, Frequency version A",BEGIN,END,Study1,S,54,53,Test,User,-,,Recall,Recall1,2061,end,100,1636,1875,1,1,,,1
w215680_oa,562cw1jwe4,Nick_Dissertation_EX1,1,126,2020-04-26T10:13:09-07:00,5.2132999897003,9,versionA_stim.csv,FREQVersionA.csv,"Frequency Version A","Dissertation, Frequency version A",LOCATION,SITE,Study1,S,48,80,Test,User,-,,Recall,Recall1,4850,position,50,3554,4680,0,0,,,1
w215680_oa,562cw1jwe4,Nick_Dissertation_EX1,1,127,2020-04-26T10:13:18-07:00,8.4311230182648,9,versionA_stim.csv,FREQVersionA.csv,"Frequency Version A","Dissertation, Frequency version A",FIRE,BLAZE,Study1,B,45,13,Test,User,-,,Recall,Recall1,8073,blazw,80,6487,7725,0,1,,,1
w215680_oa,562cw1jwe4,Nick_Dissertation_EX1,1,128,2020-04-26T10:13:54-07:00,36.444866895676,9,versionA_stim.csv,FREQVersionA.csv,"Frequency Version A","Dissertation, Frequency version A",GREAT,FANTASTIC,Study1,B,35,72,Test,User,-,,Recall,Recall1,36075,distinguished,27.272727272727,31085,35139,0,0,,,0.811
w215680_oa,562cw1jwe4,Nick_Dissertation_EX1,1,129,2020-04-26T10:14:00-07:00,5.3322579860687,9,versionA_stim.csv,FREQVersionA.csv,"Frequency Version A","Dissertation, Frequency version A",HAPPY,CAR,Study1,U,77,20,Test,User,-,,Recall,Recall1,4963,car,100,4082,4456,1,1,,,1
w215680_oa,562cw1jwe4,Nick_Dissertation_EX1,1,130,2020-04-26T10:14:20-07:00,20.363445043564,9,versionA_stim.csv,FREQVersionA.csv,"Frequency Version A","Dissertation, Frequency version A",SMELL,STENCH,Study1,B,42,86,Test,User,-,,Recall,Recall1,19986,odour,0,-1,-1,0,0,,,0.636
w215680_oa,562cw1jwe4,Nick_Dissertation_EX1,1,131,2020-04-26T10:14:25-07:00,4.5889179706573,9,versionA_stim.csv,FREQVersionA.csv,"Frequency Version A","Dissertation, Frequency version A",CIRCLE,ROUND,Study1,S,65,81,Test,User,-,,Recall,Recall1,4024,round,100,1897,3584,1,1,,,1
w215680_oa,562cw1jwe4,Nick_Dissertation_EX1,1,132,2020-04-26T10:14:28-07:00,3.0432848930359,9,versionA_stim.csv,FREQVersionA.csv,"Frequency Version A","Dissertation, Frequency version A",PAW,DOG,Study1,F,15,8,Test,User,-,,Recall,Recall1,2592,dog,100,1919,2358,1,1,,,1
w215680_oa,562cw1jwe4,Nick_Dissertation_EX1,1,133,2020-04-26T10:14:40-07:00,12.831945180893,9,versionA_stim.csv,FREQVersionA.csv,"Frequency Version A","Dissertation, Frequency version A",VALLEY,ADD,Study1,U,82,73,Test,User,-,,Recall,Recall1,12462,below,0,11621,12210,0,0,,,1
w215680_oa,562cw1jwe4,Nick_Dissertation_EX1,1,134,2020-04-26T10:14:43-07:00,2.9523868560791,9,versionA_stim.csv,FREQVersionA.csv,"Frequency Version A","Dissertation, Frequency version A",DUMP,WASTE,Study1,S,49,61,Test,User,-,,Recall,Recall1,2588,waste,100,1499,2257,1,1,,,1
w215680_oa,562cw1jwe4,Nick_Dissertation_EX1,1,135,2020-04-26T10:15:20-07:00,37.104836940765,9,versionA_stim.csv,FREQVersionA.csv,"Frequency Version A","Dissertation, Frequency version A",BATHROOM,TOILET,Study1,S,58,71,Test,User,-,,Recall,Recall1,36712,hygiene,30.769230769231,14050,15344,0,0,,,0.914
w215680_oa,562cw1jwe4,Nick_Dissertation_EX1,1,136,2020-04-26T10:15:29-07:00,8.0562660694122,9,versionA_stim.csv,FREQVersionA.csv,"Frequency Version A","Dissertation, Frequency version A",ARTERY,BRONZE,Study1,U,74,82,Test,User,-,,Recall,Recall1,7583,musle,18.181818181818,5687,6612,0,0,,,1
w215680_oa,562cw1jwe4,Nick_Dissertation_EX1,1,137,2020-04-26T10:15:33-07:00,4.6142439842224,9,versionA_stim.csv,FREQVersionA.csv,"Frequency Version A","Dissertation, Frequency version A",PLANE,PILOT,Study1,B,44,39,Test,User,-,,Recall,Recall1,4162,pilot,100,3387,4042,1,1,,,1
w215680_oa,562cw1jwe4,Nick_Dissertation_EX1,1,138,2020-04-26T10:15:42-07:00,9.3375179767609,9,versionA_stim.csv,FREQVersionA.csv,"Frequency Version A","Dissertation, Frequency version A",HIDE,SICK,Study1,U,84,66,Test,User,-,,Recall,Recall1,8955,sick,100,6560,7063,1,1,,,1
w215680_oa,562cw1jwe4,Nick_Dissertation_EX1,1,139,2020-04-26T10:15:59-07:00,17.035890102386,9,versionA_stim.csv,FREQVersionA.csv,"Frequency Version A","Dissertation, Frequency version A",CREDIT,CARD,Study1,F,23,46,Test,User,-,,Recall,Recall1,16611,card,100,15197,15746,1,1,,,0.86
w215680_oa,562cw1jwe4,Nick_Dissertation_EX1,1,140,2020-04-26T10:16:08-07:00,8.7822840213776,9,versionA_stim.csv,FREQVersionA.csv,"Frequency Version A","Dissertation, Frequency version A",CASH,WOULD,Study1,U,83,79,Test,User,-,,Recall,Recall1,8401,money,20,3267,5107,0,0,,,1
w215680_oa,562cw1jwe4,Nick_Dissertation_EX1,1,141,2020-04-26T10:16:25-07:00,17.202661037445,9,versionA_stim.csv,FREQVersionA.csv,"Frequency Version A","Dissertation, Frequency version A",KIDNEY,LIVER,Study1,S,53,12,Test,User,-,,Recall,Recall1,16817,liver,100,1855,2909,1,1,,,0.7
w215680_oa,562cw1jwe4,Nick_Dissertation_EX1,1,142,2020-04-26T10:16:29-07:00,4.0032498836517,9,versionA_stim.csv,FREQVersionA.csv,"Frequency Version A","Dissertation, Frequency version A",DUE,ASSIGNMENT,Study1,S,46,36,Test,User,-,,Recall,Recall1,3611,assignment,100,1595,3426,1,1,,,1
w215680_oa,562cw1jwe4,Nick_Dissertation_EX1,1,143,2020-04-26T10:16:52-07:00,22.161623001099,9,versionA_stim.csv,FREQVersionA.csv,"Frequency Version A","Dissertation, Frequency version A",DEATH,BUSINESS,Study1,U,72,17,Test,User,-,,Recall,Recall1,21788,hide,33.333333333333,15715,19585,0,0,,,1
w215680_oa,562cw1jwe4,Nick_Dissertation_EX1,1,144,2020-04-26T10:17:00-07:00,8.499792098999,9,versionA_stim.csv,FREQVersionA.csv,"Frequency Version A","Dissertation, Frequency version A",HEIGHT,GROWTH,Study1,B,30,19,Test,User,-,,Recall,Recall1,8113,length,50,6182,7020,0,0,,,1
w215680_oa,562cw1jwe4,Nick_Dissertation_EX1,1,145,2020-04-26T10:17:26-07:00,26.006507873535,9,versionA_stim.csv,FREQVersionA.csv,"Frequency Version A","Dissertation, Frequency version A",PUSHER,CLUTTER,Study1,U,66,21,Test,User,-,,Recall,Recall1,25598,illegal,28.571428571429,23670,24827,0,0,,,0.746
w215680_oa,562cw1jwe4,Nick_Dissertation_EX1,1,146,2020-04-26T10:17:31-07:00,4.5820980072021,9,versionA_stim.csv,FREQVersionA.csv,"Frequency Version A","Dissertation, Frequency version A",BITTER,COLD,Study1,F,12,64,Test,User,-,,Recall,Recall1,4206,sour,25,1498,2794,0,0,,,1
w215680_oa,562cw1jwe4,Nick_Dissertation_EX1,1,147,2020-04-26T10:17:36-07:00,4.9586670398712,9,versionA_stim.csv,FREQVersionA.csv,"Frequency Version A","Dissertation, Frequency version A",ORCHID,FLOWER,Study1,F,24,76,Test,User,-,,Recall,Recall1,4566,flowers,92.307692307692,1637,4308,0,1,,,1
w215680_oa,562cw1jwe4,Nick_Dissertation_EX1,1,148,2020-04-26T10:17:50-07:00,13.953211069107,9,versionA_stim.csv,FREQVersionA.csv,"Frequency Version A","Dissertation, Frequency version A",STRONG,ACCIDENT,Study1,U,80,42,Test,User,-,,Recall,Recall1,13584,core,33.333333333333,12217,12855,0,0,,,0.841
w215680_oa,562cw1jwe4,Nick_Dissertation_EX1,1,149,2020-04-26T10:18:30-07:00,40.672960996628,9,versionA_stim.csv,FREQVersionA.csv,"Frequency Version A","Dissertation, Frequency version A",TAKE,SEIZE,Study1,B,29,51,Test,User,-,,Recall,Recall1,40267,grasp,20,38538,39262,0,0,,,0.863
w215680_oa,562cw1jwe4,Nick_Dissertation_EX1,1,150,2020-04-26T10:18:35-07:00,4.3865828514099,9,versionA_stim.csv,FREQVersionA.csv,"Frequency Version A","Dissertation, Frequency version A",REVOLUTION,WAR,Study1,F,20,60,Test,User,-,,Recall,Recall1,3989,war,100,2582,3093,1,1,,,1
w215680_oa,562cw1jwe4,Nick_Dissertation_EX1,1,151,2020-04-26T10:18:41-07:00,6.1854832172394,9,versionA_stim.csv,FREQVersionA.csv,"Frequency Version A","Dissertation, Frequency version A",PARK,HUNGRY,Study1,U,68,27,Test,User,-,,Recall,Recall1,5798,food,0,4686,5268,0,0,,,1
w215680_oa,562cw1jwe4,Nick_Dissertation_EX1,1,152,2020-04-26T10:19:03-07:00,22.052899837494,9,versionA_stim.csv,FREQVersionA.csv,"Frequency Version A","Dissertation, Frequency version A",DEBATE,SIGHT,Study1,U,73,26,Test,User,-,,Recall,Recall1,21686,discussion,26.666666666667,19877,21508,0,0,,,0.861
w215680_oa,562cw1jwe4,Nick_Dissertation_EX1,1,153,2020-04-26T10:19:06-07:00,3.4564089775085,9,versionA_stim.csv,FREQVersionA.csv,"Frequency Version A","Dissertation, Frequency version A",BABY,CHILD,Study1,S,64,25,Test,User,-,,Recall,Recall1,3087,child,100,2119,2933,1,1,,,1
w215680_oa,562cw1jwe4,Nick_Dissertation_EX1,1,154,2020-04-26T10:19:49-07:00,42.108669996262,9,versionA_stim.csv,FREQVersionA.csv,"Frequency Version A","Dissertation, Frequency version A",DIETARY,SACKING,Study1,U,67,7,Test,User,-,,Recall,Recall1,41730,nutrient,13.333333333333,11069,39957,0,0,,,0.884
w215680_oa,562cw1jwe4,Nick_Dissertation_EX1,1,155,2020-04-26T10:20:14-07:00,25.40561413765,9,versionA_stim.csv,FREQVersionA.csv,"Frequency Version A","Dissertation, Frequency version A",WORK,CHORE,Study1,B,39,59,Test,User,-,,Recall,Recall1,25001,money,40,24122,24717,0,0,,,1
w215680_oa,562cw1jwe4,Nick_Dissertation_EX1,1,156,2020-04-26T10:20:19-07:00,4.5931558609009,9,versionA_stim.csv,FREQVersionA.csv,"Frequency Version A","Dissertation, Frequency version A",ART,LION,Study1,U,79,38,Test,User,-,,Recall,Recall1,4224,flowers,36.363636363636,2887,4039,0,0,,,1
w215680_oa,562cw1jwe4,Nick_Dissertation_EX1,1,157,2020-04-26T10:20:42-07:00,23.328024148941,9,versionA_stim.csv,FREQVersionA.csv,"Frequency Version A","Dissertation, Frequency version A",FIX,HAND,Study1,U,75,15,Test,User,-,,Recall,Recall1,22970,attach,20,20585,21990,0,0,,,0.702
w215680_oa,562cw1jwe4,Nick_Dissertation_EX1,1,158,2020-04-26T10:20:47-07:00,5.5870039463043,9,versionA_stim.csv,FREQVersionA.csv,"Frequency Version A","Dissertation, Frequency version A",WAGE,MONEY,Study1,F,8,65,Test,User,-,,Recall,Recall1,5212,money,100,2827,3482,1,1,,,1
w215680_oa,562cw1jwe4,Nick_Dissertation_EX1,1,159,2020-04-26T10:21:14-07:00,27.021121025085,9,versionA_stim.csv,FREQVersionA.csv,"Frequency Version A","Dissertation, Frequency version A",DRINK,SIP,Study1,B,27,18,Test,User,-,,Recall,Recall1,26655,digest,22.222222222222,24816,25685,0,0,,,0.833
w215680_oa,562cw1jwe4,Nick_Dissertation_EX1,1,160,2020-04-26T10:21:32-07:00,17.561377048492,9,versionA_stim.csv,FREQVersionA.csv,"Frequency Version A","Dissertation, Frequency version A",KING,VASE,Study1,U,85,30,Test,User,-,,Recall,Recall1,17168,prince,20,15503,16253,0,0,,,0.784
w215680_oa,562cw1jwe4,Nick_Dissertation_EX1,1,161,2020-04-26T10:21:34-07:00,2.4187819957733,9,versionA_stim.csv,FREQVersionA.csv,"Frequency Version A","Dissertation, Frequency version A",HONEY,BEE,Study1,S,63,63,Test,User,-,,Recall,Recall1,2038,bee,100,1590,1904,1,1,,,1
w215680_oa,562cw1jwe4,Nick_Dissertation_EX1,1,162,2020-04-26T10:21:54-07:00,19.978725910187,9,versionA_stim.csv,FREQVersionA.csv,"Frequency Version A","Dissertation, Frequency version A",BALL,RACKET,Study1,B,38,23,Test,User,-,,Recall,Recall1,19620,baseball,28.571428571429,18158,19355,0,0,,,0.871
w215680_oa,562cw1jwe4,Nick_Dissertation_EX1,1,163,2020-04-26T10:22:00-07:00,5.7221879959106,9,versionA_stim.csv,FREQVersionA.csv,"Frequency Version A","Dissertation, Frequency version A",DIGESTION,STOMACH,Study1,F,7,57,Test,User,-,,Recall,Recall1,5349,stomach,100,1619,3305,1,1,,,1
w215680_oa,562cw1jwe4,Nick_Dissertation_EX1,1,164,2020-04-26T10:22:08-07:00,7.4010319709778,9,versionA_stim.csv,FREQVersionA.csv,"Frequency Version A","Dissertation, Frequency version A",SWAN,BIRD,Study1,F,14,44,Test,User,-,,Recall,Recall1,7023,birds,88.888888888889,2219,3105,0,1,,,1
w215680_oa,562cw1jwe4,Nick_Dissertation_EX1,1,165,2020-04-26T10:22:12-07:00,4.9184420108795,9,versionA_stim.csv,FREQVersionA.csv,"Frequency Version A","Dissertation, Frequency version A",ARCHITECTURE,DESIGN,Study1,S,51,84,Test,User,-,,Recall,Recall1,4542,design,100,2235,3491,1,1,,,1
w215680_oa,562cw1jwe4,Nick_Dissertation_EX1,1,166,2020-04-26T10:22:35-07:00,22.819481134415,9,versionA_stim.csv,FREQVersionA.csv,"Frequency Version A","Dissertation, Frequency version A",BUG,WASP,Study1,B,32,77,Test,User,-,,Recall,Recall1,22037,infestation,13.333333333333,2943,3951,0,0,,,0.774
w215680_oa,562cw1jwe4,Nick_Dissertation_EX1,1,167,2020-04-26T10:22:39-07:00,3.6128067970276,9,versionA_stim.csv,FREQVersionA.csv,"Frequency Version A","Dissertation, Frequency version A",GEOLOGY,ROCK,Study1,F,19,62,Test,User,-,,Recall,Recall1,2887,rock,100,2269,2660,1,1,,,1
w215680_oa,562cw1jwe4,Nick_Dissertation_EX1,1,168,2020-04-26T10:22:41-07:00,2.2107911109924,9,versionA_stim.csv,FREQVersionA.csv,"Frequency Version A","Dissertation, Frequency version A",TUNA,FISH,Study1,F,25,78,Test,User,-,,Recall,Recall1,1816,fish,100,1160,1559,1,1,,,1
w215680_oa,562cw1jwe4,Nick_Dissertation_EX1,1,169,2020-04-26T10:22:51-07:00,9.4485869407654,9,versionA_stim.csv,FREQVersionA.csv,"Frequency Version A","Dissertation, Frequency version A",MATH,DIVISION,Study1,B,33,11,Test,User,-,,Recall,Recall1,9077,numbers,13.333333333333,4494,8484,0,0,,,1
w215680_oa,562cw1jwe4,Nick_Dissertation_EX1,1,170,2020-04-26T10:23:29-07:00,38.894519090652,9,versionA_stim.csv,FREQVersionA.csv,"Frequency Version A","Dissertation, Frequency version A",NUMBER,AMOUNT,Study1,S,47,29,Test,User,-,,Recall,Recall1,38510,total,18.181818181818,32430,38317,0,0,,,0.855
w215680_oa,562cw1jwe4,Nick_Dissertation_EX1,1,171,2020-04-26T10:23:39-07:00,10.022405862808,9,versionA_stim.csv,FREQVersionA.csv,"Frequency Version A","Dissertation, Frequency version A",FULL,ENOUGH,Study1,B,26,28,Test,User,-,,Recall,Recall1,9647,contempt,14.285714285714,7828,9019,0,0,,,1
w215680_oa,562cw1jwe4,Nick_Dissertation_EX1,1,172,2020-04-26T10:23:53-07:00,13.531980037689,9,versionA_stim.csv,FREQVersionA.csv,"Frequency Version A","Dissertation, Frequency version A",DISCUSSION,TALK,Study1,F,21,70,Test,User,-,,Recall,Recall1,13147,talk,100,2401,12096,1,1,,,1
w215680_oa,562cw1jwe4,Nick_Dissertation_EX1,1,173,2020-04-26T10:24:00-07:00,6.7384750843048,9,versionA_stim.csv,FREQVersionA.csv,"Frequency Version A","Dissertation, Frequency version A",WAY,OUT,Study1,F,16,33,Test,User,-,,Recall,Recall1,6360,out,100,5679,6021,1,1,,,1
w215680_oa,562cw1jwe4,Nick_Dissertation_EX1,1,174,2020-04-26T10:24:19-07:00,19.214860916138,9,versionA_stim.csv,FREQVersionA.csv,"Frequency Version A","Dissertation, Frequency version A",SUGAR,RIDDLE,Study1,U,81,50,Test,User,-,,Recall,Recall1,18841,candy,18.181818181818,17538,18518,0,0,,,1
w215680_oa,562cw1jwe4,Nick_Dissertation_EX1,1,175,2020-04-26T10:24:23-07:00,4.4495639801025,9,versionA_stim.csv,FREQVersionA.csv,"Frequency Version A","Dissertation, Frequency version A",LAW,ATTORNEY,Study1,B,34,69,Test,User,-,,Recall,Recall1,4055,attorney,100,1334,2749,1,1,,,1
w215680_oa,562cw1jwe4,Nick_Dissertation_EX1,1,176,2020-04-26T10:24:30-07:00,7.1093101501465,9,versionA_stim.csv,FREQVersionA.csv,"Frequency Version A","Dissertation, Frequency version A",DARK,CAVE,Study1,B,28,52,Test,User,-,,Recall,Recall1,6731,night,0,5465,6168,0,0,,,1
w215680_oa,562cw1jwe4,Nick_Dissertation_EX1,1,177,2020-04-26T10:24:34-07:00,3.8989119529724,9,versionA_stim.csv,FREQVersionA.csv,"Frequency Version A","Dissertation, Frequency version A",BLOW,WIND,Study1,S,55,67,Test,User,-,,Recall,Recall1,3432,wind,100,2887,3303,1,1,,,1
w215680_oa,562cw1jwe4,Nick_Dissertation_EX1,1,178,2020-04-26T10:24:39-07:00,4.8817830085754,9,versionA_stim.csv,FREQVersionA.csv,"Frequency Version A","Dissertation, Frequency version A",SHOE,FOOT,Study1,S,60,14,Test,User,-,,Recall,Recall1,4530,foot,100,3920,4367,1,1,,,1
w215680_oa,562cw1jwe4,Nick_Dissertation_EX1,1,179,2020-04-26T10:24:51-07:00,12.202656030655,9,versionA_stim.csv,FREQVersionA.csv,"Frequency Version A","Dissertation, Frequency version A",,,,,,0,Instruct,-,10,"You will now be presented with a new set of word pairs. Please study each pair. Remember that your memory will be tested! When finished, press Enter to move to the next pair.",Initial_Instruct,Instruct4,11842,,,-1,-1,,,,,1
w215680_oa,562cw1jwe4,Nick_Dissertation_EX1,1,180,2020-04-26T10:25:03-07:00,11.234845876694,9,versionA_stim.csv,FREQVersionA.csv,"Frequency Version A","Dissertation, Frequency version A",,,,,,0,Instruct,,10,"You will again be asked to rate how often the paired items are used together, using a 0 to 100 scale. Remember to use the full range of the scale!",,Instruct10,10867,,,-1,-1,,,,,1
w215680_oa,562cw1jwe4,Nick_Dissertation_EX1,1,181,2020-04-26T10:25:09-07:00,6.1506381034851,9,versionA_stim.csv,FREQVersionA.csv,"Frequency Version A","Dissertation, Frequency version A",,,,,,0,Instruct,User,-,"Press Enter when you are readty to begin",,Instruct11,5799,,,-1,-1,,,,,1
w215680_oa,562cw1jwe4,Nick_Dissertation_EX1,1,182,2020-04-26T10:25:17-07:00,8.0007920265198,9,versionA_stim.csv,FREQVersionA.csv,"Frequency Version A","Dissertation, Frequency version A",ICE,FROZEN,BUFFER3,Buffer,94,93,FREQ,User,-,"How often are these two words used together?|Type your response on a scale from 0-100 and then press Enter.",Study/JOL,BUFFER3,7618,,,6818,7321,,,,100,1
w215680_oa,562cw1jwe4,Nick_Dissertation_EX1,1,183,2020-04-26T10:25:45-07:00,28.581782817841,9,versionA_stim.csv,FREQVersionA.csv,"Frequency Version A","Dissertation, Frequency version A",CAMP,ADVENTURE,BUFFER3,Buffer,95,95,FREQ,User,-,"How often are these two words used together?|Type your response on a scale from 0-100 and then press Enter.",Study/JOL,BUFFER3,28224,,,25635,27870,,,,90,0.709
w215680_oa,562cw1jwe4,Nick_Dissertation_EX1,1,184,2020-04-26T10:25:56-07:00,10.385872125626,9,versionA_stim.csv,FREQVersionA.csv,"Frequency Version A","Dissertation, Frequency version A",CARROT,POTATO,BUFFER3,Buffer,91,94,FREQ,User,-,"How often are these two words used together?|Type your response on a scale from 0-100 and then press Enter.",Study/JOL,BUFFER3,10002,,,9538,9720,,,,90,0.68
w215680_oa,562cw1jwe4,Nick_Dissertation_EX1,1,185,2020-04-26T10:26:05-07:00,9.3850049972534,9,versionA_stim.csv,FREQVersionA.csv,"Frequency Version A","Dissertation, Frequency version A",NOODLE,STRING,BUFFER3,Buffer,92,96,FREQ,User,-,"How often are these two words used together?|Type your response on a scale from 0-100 and then press Enter.",Study/JOL,BUFFER3,9024,,,3760,8734,,,,70,1
w215680_oa,562cw1jwe4,Nick_Dissertation_EX1,1,186,2020-04-26T10:26:14-07:00,8.3744580745697,9,versionA_stim.csv,FREQVersionA.csv,"Frequency Version A","Dissertation, Frequency version A",SHRIMP,FISH,BUFFER3,Buffer,93,92,FREQ,User,-,"How often are these two words used together?|Type your response on a scale from 0-100 and then press Enter.",Study/JOL,BUFFER3,8020,,,6140,6421,,,,100,1
w215680_oa,562cw1jwe4,Nick_Dissertation_EX1,1,187,2020-04-26T10:26:26-07:00,12.01842880249,9,versionA_stim.csv,FREQVersionA.csv,"Frequency Version A","Dissertation, Frequency version A",SHEARS,SCISSORS,Study2,F,112,150,FREQ,User,-,"How often are these two words used together?|Type your response on a scale from 0-100 and then press Enter.",Study/JOL,"Study Phase2",11645,,,11226,11418,,,,90,0.797
w215680_oa,562cw1jwe4,Nick_Dissertation_EX1,1,188,2020-04-26T10:26:34-07:00,8.5273721218109,9,versionA_stim.csv,FREQVersionA.csv,"Frequency Version A","Dissertation, Frequency version A",DRY,WET,Study2,S,146,139,FREQ,User,-,"How often are these two words used together?|Type your response on a scale from 0-100 and then press Enter.",Study/JOL,"Study Phase2",8147,,,6835,6992,,,,50,1
w215680_oa,562cw1jwe4,Nick_Dissertation_EX1,1,189,2020-04-26T10:26:39-07:00,4.978688955307,9,versionA_stim.csv,FREQVersionA.csv,"Frequency Version A","Dissertation, Frequency version A",ROD,REEL,Study2,S,150,130,FREQ,User,-,"How often are these two words used together?|Type your response on a scale from 0-100 and then press Enter.",Study/JOL,"Study Phase2",4601,,,4095,4409,,,,100,1
w215680_oa,562cw1jwe4,Nick_Dissertation_EX1,1,190,2020-04-26T10:26:47-07:00,7.7341070175171,9,versionA_stim.csv,FREQVersionA.csv,"Frequency Version A","Dissertation, Frequency version A",BAD,VILLAIN,Study2,B,118,137,FREQ,User,-,"How often are these two words used together?|Type your response on a scale from 0-100 and then press Enter.",Study/JOL,"Study Phase2",7024,,,6525,6790,,,,100,0.5
w215680_oa,562cw1jwe4,Nick_Dissertation_EX1,1,191,2020-04-26T10:27:02-07:00,14.727463006973,9,versionA_stim.csv,FREQVersionA.csv,"Frequency Version A","Dissertation, Frequency version A",MAIN,SCAR,Study2,U,175,113,FREQ,User,-,"How often are these two words used together?|Type your response on a scale from 0-100 and then press Enter.",Study/JOL,"Study Phase2",14345,,,13982,14143,,,,10,0.792
w215680_oa,562cw1jwe4,Nick_Dissertation_EX1,1,192,2020-04-26T10:27:13-07:00,11.823796033859,9,versionA_stim.csv,FREQVersionA.csv,"Frequency Version A","Dissertation, Frequency version A",MAZE,ELECTION,Study2,U,159,99,FREQ,User,-,"How often are these two words used together?|Type your response on a scale from 0-100 and then press Enter.",Study/JOL,"Study Phase2",11459,,,11258,11258,,,,0,0.828
w215680_oa,562cw1jwe4,Nick_Dissertation_EX1,1,193,2020-04-26T10:27:23-07:00,9.782693862915,9,versionA_stim.csv,FREQVersionA.csv,"Frequency Version A","Dissertation, Frequency version A",MULE,DONKEY,Study2,F,108,144,FREQ,User,-,"How often are these two words used together?|Type your response on a scale from 0-100 and then press Enter.",Study/JOL,"Study Phase2",9332,,,3819,9131,,,,80,1
w215680_oa,562cw1jwe4,Nick_Dissertation_EX1,1,194,2020-04-26T10:27:33-07:00,9.6823689937592,9,versionA_stim.csv,FREQVersionA.csv,"Frequency Version A","Dissertation, Frequency version A",ELEMENT,CARBON,Study2,S,141,119,FREQ,User,-,"How often are these two words used together?|Type your response on a scale from 0-100 and then press Enter.",Study/JOL,"Study Phase2",9264,,,8480,9018,,,,100,0.745
w215680_oa,562cw1jwe4,Nick_Dissertation_EX1,1,195,2020-04-26T10:27:47-07:00,14.62368106842,9,versionA_stim.csv,FREQVersionA.csv,"Frequency Version A","Dissertation, Frequency version A",SHOELACE,TIE,Study2,F,99,154,FREQ,User,-,"How often are these two words used together?|Type your response on a scale from 0-100 and then press Enter.",Study/JOL,"Study Phase2",14254,,,13678,13780,,,,10,0.778
w215680_oa,562cw1jwe4,Nick_Dissertation_EX1,1,196,2020-04-26T10:27:52-07:00,4.3883221149445,9,versionA_stim.csv,FREQVersionA.csv,"Frequency Version A","Dissertation, Frequency version A",SCALP,HEAD,Study2,F,105,141,FREQ,User,-,"How often are these two words used together?|Type your response on a scale from 0-100 and then press Enter.",Study/JOL,"Study Phase2",4033,,,3568,3841,,,,100,1
w215680_oa,562cw1jwe4,Nick_Dissertation_EX1,1,197,2020-04-26T10:27:54-07:00,2.5694179534912,9,versionA_stim.csv,FREQVersionA.csv,"Frequency Version A","Dissertation, Frequency version A",TRUTH,LIE,Study2,S,148,127,FREQ,User,-,"How often are these two words used together?|Type your response on a scale from 0-100 and then press Enter.",Study/JOL,"Study Phase2",2201,,,1248,1785,,,,100,1
w215680_oa,562cw1jwe4,Nick_Dissertation_EX1,1,198,2020-04-26T10:28:10-07:00,15.937237024307,9,versionA_stim.csv,FREQVersionA.csv,"Frequency Version A","Dissertation, Frequency version A",ALONE,LONELY,Study2,S,145,175,FREQ,User,-,"How often are these two words used together?|Type your response on a scale from 0-100 and then press Enter.",Study/JOL,"Study Phase2",15547,,,12322,15296,,,,80,1
w215680_oa,562cw1jwe4,Nick_Dissertation_EX1,1,199,2020-04-26T10:28:16-07:00,5.1562910079956,9,versionA_stim.csv,FREQVersionA.csv,"Frequency Version A","Dissertation, Frequency version A",CACTUS,PLANT,Study2,F,98,160,FREQ,User,-,"How often are these two words used together?|Type your response on a scale from 0-100 and then press Enter.",Study/JOL,"Study Phase2",4790,,,3838,4223,,,,100,1
w215680_oa,562cw1jwe4,Nick_Dissertation_EX1,1,200,2020-04-26T10:28:20-07:00,4.3925440311432,9,versionA_stim.csv,FREQVersionA.csv,"Frequency Version A","Dissertation, Frequency version A",VEHICLE,CHARM,Study2,U,160,152,FREQ,User,-,"How often are these two words used together?|Type your response on a scale from 0-100 and then press Enter.",Study/JOL,"Study Phase2",4018,,,3641,3801,,,,60,1
w215680_oa,562cw1jwe4,Nick_Dissertation_EX1,1,201,2020-04-26T10:28:33-07:00,12.684196949005,9,versionA_stim.csv,FREQVersionA.csv,"Frequency Version A","Dissertation, Frequency version A",TANTRUM,TEMPER,Study2,S,154,121,FREQ,User,-,"How often are these two words used together?|Type your response on a scale from 0-100 and then press Enter.",Study/JOL,"Study Phase2",12314,,,12009,12129,,,,40,0.806
w215680_oa,562cw1jwe4,Nick_Dissertation_EX1,1,202,2020-04-26T10:28:44-07:00,11.814528942108,9,versionA_stim.csv,FREQVersionA.csv,"Frequency Version A","Dissertation, Frequency version A",GONE,AWAY,Study2,S,142,120,FREQ,User,-,"How often are these two words used together?|Type your response on a scale from 0-100 and then press Enter.",Study/JOL,"Study Phase2",11452,,,10091,10217,,,,50,1
w215680_oa,562cw1jwe4,Nick_Dissertation_EX1,1,203,2020-04-26T10:28:51-07:00,6.570739030838,9,versionA_stim.csv,FREQVersionA.csv,"Frequency Version A","Dissertation, Frequency version A",EXTENSION,LONG,Study2,F,96,163,FREQ,User,-,"How often are these two words used together?|Type your response on a scale from 0-100 and then press Enter.",Study/JOL,"Study Phase2",6209,,,5769,6000,,,,100,1
w215680_oa,562cw1jwe4,Nick_Dissertation_EX1,1,204,2020-04-26T10:28:54-07:00,3.4790239334106,9,versionA_stim.csv,FREQVersionA.csv,"Frequency Version A","Dissertation, Frequency version A",FRUIT,STRAWBERRY,Study2,B,124,110,FREQ,User,-,"How often are these two words used together?|Type your response on a scale from 0-100 and then press Enter.",Study/JOL,"Study Phase2",3102,,,2590,2902,,,,100,1
w215680_oa,562cw1jwe4,Nick_Dissertation_EX1,1,205,2020-04-26T10:28:57-07:00,2.6970360279083,9,versionA_stim.csv,FREQVersionA.csv,"Frequency Version A","Dissertation, Frequency version A",RAZOR,SHAVE,Study2,S,136,107,FREQ,User,-,"How often are these two words used together?|Type your response on a scale from 0-100 and then press Enter.",Study/JOL,"Study Phase2",2336,,,1592,2146,,,,100,1
w215680_oa,562cw1jwe4,Nick_Dissertation_EX1,1,206,2020-04-26T10:29:01-07:00,3.3913130760193,9,versionA_stim.csv,FREQVersionA.csv,"Frequency Version A","Dissertation, Frequency version A",BASEBALL,LEAGUE,Study2,B,131,156,FREQ,User,-,"How often are these two words used together?|Type your response on a scale from 0-100 and then press Enter.",Study/JOL,"Study Phase2",3030,,,2612,2779,,,,90,1
w215680_oa,562cw1jwe4,Nick_Dissertation_EX1,1,207,2020-04-26T10:29:13-07:00,12.702342033386,9,versionA_stim.csv,FREQVersionA.csv,"Frequency Version A","Dissertation, Frequency version A",STRETCH,CLOTH,Study2,U,157,101,FREQ,User,-,"How often are these two words used together?|Type your response on a scale from 0-100 and then press Enter.",Study/JOL,"Study Phase2",12260,,,8046,8941,,,,40,1
w215680_oa,562cw1jwe4,Nick_Dissertation_EX1,1,208,2020-04-26T10:29:27-07:00,13.323163986206,9,versionA_stim.csv,FREQVersionA.csv,"Frequency Version A","Dissertation, Frequency version A",FUZZY,BANG,Study2,U,168,172,FREQ,User,-,"How often are these two words used together?|Type your response on a scale from 0-100 and then press Enter.",Study/JOL,"Study Phase2",12552,,,11591,11711,,,,10,0.635
w215680_oa,562cw1jwe4,Nick_Dissertation_EX1,1,209,2020-04-26T10:29:34-07:00,7.7285408973694,9,versionA_stim.csv,FREQVersionA.csv,"Frequency Version A","Dissertation, Frequency version A",ADJOURN,END,Study2,F,101,138,FREQ,User,-,"How often are these two words used together?|Type your response on a scale from 0-100 and then press Enter.",Study/JOL,"Study Phase2",6975,,,6332,6775,,,,100,1
w215680_oa,562cw1jwe4,Nick_Dissertation_EX1,1,210,2020-04-26T10:29:42-07:00,7.3373320102692,9,versionA_stim.csv,FREQVersionA.csv,"Frequency Version A","Dissertation, Frequency version A",DEAD,COFFIN,Study2,B,128,147,FREQ,User,-,"How often are these two words used together?|Type your response on a scale from 0-100 and then press Enter.",Study/JOL,"Study Phase2",6715,,,5763,6443,,,,100,0.559
w215680_oa,562cw1jwe4,Nick_Dissertation_EX1,1,211,2020-04-26T10:29:56-07:00,13.975160121918,9,versionA_stim.csv,FREQVersionA.csv,"Frequency Version A","Dissertation, Frequency version A",MOAT,CLEAR,Study2,U,169,123,FREQ,User,-,"How often are these two words used together?|Type your response on a scale from 0-100 and then press Enter.",Study/JOL,"Study Phase2",13567,,,13236,13340,,,,10,0.824
w215680_oa,562cw1jwe4,Nick_Dissertation_EX1,1,212,2020-04-26T10:30:20-07:00,23.951041936874,9,versionA_stim.csv,FREQVersionA.csv,"Frequency Version A","Dissertation, Frequency version A",FURRY,DOG,Study2,F,102,151,FREQ,User,-,"How often are these two words used together?|Type your response on a scale from 0-100 and then press Enter.",Study/JOL,"Study Phase2",23525,,,23197,23315,,,,70,0.653
w215680_oa,562cw1jwe4,Nick_Dissertation_EX1,1,213,2020-04-26T10:30:39-07:00,19.68678689003,9,versionA_stim.csv,FREQVersionA.csv,"Frequency Version A","Dissertation, Frequency version A",CAR,WINDSHIELD,Study2,B,117,112,FREQ,User,-,"How often are these two words used together?|Type your response on a scale from 0-100 and then press Enter.",Study/JOL,"Study Phase2",19312,,,17351,17800,,,,100,0.557
w215680_oa,562cw1jwe4,Nick_Dissertation_EX1,1,214,2020-04-26T10:30:49-07:00,9.6017589569092,9,versionA_stim.csv,FREQVersionA.csv,"Frequency Version A","Dissertation, Frequency version A",MIRROR,CHILDREN,Study2,U,174,174,FREQ,User,-,"How often are these two words used together?|Type your response on a scale from 0-100 and then press Enter.",Study/JOL,"Study Phase2",9231,,,9086,9087,,,,5,0.766
w215680_oa,562cw1jwe4,Nick_Dissertation_EX1,1,215,2020-04-26T10:30:52-07:00,3.5740561485291,9,versionA_stim.csv,FREQVersionA.csv,"Frequency Version A","Dissertation, Frequency version A",LITTER,TRASH,Study2,F,103,103,FREQ,User,-,"How often are these two words used together?|Type your response on a scale from 0-100 and then press Enter.",Study/JOL,"Study Phase2",3173,,,2587,2989,,,,100,1
w215680_oa,562cw1jwe4,Nick_Dissertation_EX1,1,216,2020-04-26T10:30:56-07:00,3.6873209476471,9,versionA_stim.csv,FREQVersionA.csv,"Frequency Version A","Dissertation, Frequency version A",RIGHTS,EQUAL,Study2,S,137,158,FREQ,User,-,"How often are these two words used together?|Type your response on a scale from 0-100 and then press Enter.",Study/JOL,"Study Phase2",3302,,,2582,3023,,,,100,1
w215680_oa,562cw1jwe4,Nick_Dissertation_EX1,1,217,2020-04-26T10:30:59-07:00,2.7543079853058,9,versionA_stim.csv,FREQVersionA.csv,"Frequency Version A","Dissertation, Frequency version A",CHILL,COLD,Study2,F,114,157,FREQ,User,-,"How often are these two words used together?|Type your response on a scale from 0-100 and then press Enter.",Study/JOL,"Study Phase2",2363,,,1681,2027,,,,100,1
w215680_oa,562cw1jwe4,Nick_Dissertation_EX1,1,218,2020-04-26T10:31:01-07:00,2.4871020317078,9,versionA_stim.csv,FREQVersionA.csv,"Frequency Version A","Dissertation, Frequency version A",CHERRY,RED,Study2,F,104,105,FREQ,User,-,"How often are these two words used together?|Type your response on a scale from 0-100 and then press Enter.",Study/JOL,"Study Phase2",2124,,,1323,1884,,,,100,1
w215680_oa,562cw1jwe4,Nick_Dissertation_EX1,1,219,2020-04-26T10:31:15-07:00,13.648009061813,9,versionA_stim.csv,FREQVersionA.csv,"Frequency Version A","Dissertation, Frequency version A",BIRD,PENGUIN,Study2,B,119,124,FREQ,User,-,"How often are these two words used together?|Type your response on a scale from 0-100 and then press Enter.",Study/JOL,"Study Phase2",13286,,,12915,13075,,,,90,0.896
w215680_oa,562cw1jwe4,Nick_Dissertation_EX1,1,220,2020-04-26T10:31:19-07:00,3.8149490356445,9,versionA_stim.csv,FREQVersionA.csv,"Frequency Version A","Dissertation, Frequency version A",CANDLE,WAX,Study2,S,139,136,FREQ,User,-,"How often are these two words used together?|Type your response on a scale from 0-100 and then press Enter.",Study/JOL,"Study Phase2",3430,,,2855,3199,,,,100,1
w215680_oa,562cw1jwe4,Nick_Dissertation_EX1,1,221,2020-04-26T10:31:28-07:00,9.1693999767303,9,versionA_stim.csv,FREQVersionA.csv,"Frequency Version A","Dissertation, Frequency version A",FISH,SARDINE,Study2,B,130,129,FREQ,User,-,"How often are these two words used together?|Type your response on a scale from 0-100 and then press Enter.",Study/JOL,"Study Phase2",8794,,,8370,8505,,,,40,0.773
w215680_oa,562cw1jwe4,Nick_Dissertation_EX1,1,222,2020-04-26T10:31:35-07:00,6.5276808738708,9,versionA_stim.csv,FREQVersionA.csv,"Frequency Version A","Dissertation, Frequency version A",SAFETY,SEATBELT,Study2,S,147,176,FREQ,User,-,"How often are these two words used together?|Type your response on a scale from 0-100 and then press Enter.",Study/JOL,"Study Phase2",6153,,,5224,5881,,,,100,1
w215680_oa,562cw1jwe4,Nick_Dissertation_EX1,1,223,2020-04-26T10:31:44-07:00,9.2255799770355,9,versionA_stim.csv,FREQVersionA.csv,"Frequency Version A","Dissertation, Frequency version A",KEYS,JOKE,Study2,U,165,128,FREQ,User,-,"How often are these two words used together?|Type your response on a scale from 0-100 and then press Enter.",Study/JOL,"Study Phase2",8814,,,8389,8556,,,,10,0.795
w215680_oa,562cw1jwe4,Nick_Dissertation_EX1,1,224,2020-04-26T10:31:57-07:00,13.205765962601,9,versionA_stim.csv,FREQVersionA.csv,"Frequency Version A","Dissertation, Frequency version A",TEMPERATURE,Morning,Study2,U,173,135,FREQ,User,-,"How often are these two words used together?|Type your response on a scale from 0-100 and then press Enter.",Study/JOL,"Study Phase2",12828,,,5602,5968,,,,60,0.877
w215680_oa,562cw1jwe4,Nick_Dissertation_EX1,1,225,2020-04-26T10:32:06-07:00,9.1227471828461,9,versionA_stim.csv,FREQVersionA.csv,"Frequency Version A","Dissertation, Frequency version A",EVEN,REVENGE,Study2,B,122,166,FREQ,User,-,"How often are these two words used together?|Type your response on a scale from 0-100 and then press Enter.",Study/JOL,"Study Phase2",8662,,,8294,8435,,,,80,0.818
w215680_oa,562cw1jwe4,Nick_Dissertation_EX1,1,226,2020-04-26T10:32:11-07:00,4.7666318416595,9,versionA_stim.csv,FREQVersionA.csv,"Frequency Version A","Dissertation, Frequency version A",FEUD,FIGHT,Study2,F,113,161,FREQ,User,-,"How often are these two words used together?|Type your response on a scale from 0-100 and then press Enter.",Study/JOL,"Study Phase2",4391,,,3814,4197,,,,100,1
w215680_oa,562cw1jwe4,Nick_Dissertation_EX1,1,227,2020-04-26T10:32:13-07:00,2.2974081039429,9,versionA_stim.csv,FREQVersionA.csv,"Frequency Version A","Dissertation, Frequency version A",LOAN,SIGN,Study2,U,171,100,FREQ,User,-,"How often are these two words used together?|Type your response on a scale from 0-100 and then press Enter.",Study/JOL,"Study Phase2",1925,,,1469,1734,,,,100,1
w215680_oa,562cw1jwe4,Nick_Dissertation_EX1,1,228,2020-04-26T10:32:25-07:00,11.958402872086,9,versionA_stim.csv,FREQVersionA.csv,"Frequency Version A","Dissertation, Frequency version A",INCENSE,SMELL,Study2,F,110,104,FREQ,User,-,"How often are these two words used together?|Type your response on a scale from 0-100 and then press Enter.",Study/JOL,"Study Phase2",11563,,,4938,5111,,,,30,0.845
w215680_oa,562cw1jwe4,Nick_Dissertation_EX1,1,229,2020-04-26T10:32:33-07:00,7.8963780403137,9,versionA_stim.csv,FREQVersionA.csv,"Frequency Version A","Dissertation, Frequency version A",MEAT,OBTAIN,Study2,U,161,97,FREQ,User,-,"How often are these two words used together?|Type your response on a scale from 0-100 and then press Enter.",Study/JOL,"Study Phase2",7527,,,7207,7325,,,,20,0.816
w215680_oa,562cw1jwe4,Nick_Dissertation_EX1,1,230,2020-04-26T10:32:46-07:00,12.807892084122,9,versionA_stim.csv,FREQVersionA.csv,"Frequency Version A","Dissertation, Frequency version A",CLUE,GAME,Study2,F,97,143,FREQ,User,-,"How often are these two words used together?|Type your response on a scale from 0-100 and then press Enter.",Study/JOL,"Study Phase2",12413,,,9357,12194,,,,60,0.855
w215680_oa,562cw1jwe4,Nick_Dissertation_EX1,1,231,2020-04-26T10:32:57-07:00,10.752739906311,9,versionA_stim.csv,FREQVersionA.csv,"Frequency Version A","Dissertation, Frequency version A",TURN,FLIP,Study2,B,116,146,FREQ,User,-,"How often are these two words used together?|Type your response on a scale from 0-100 and then press Enter.",Study/JOL,"Study Phase2",10380,,,3187,3306,,,,10,0.769
w215680_oa,562cw1jwe4,Nick_Dissertation_EX1,1,232,2020-04-26T10:33:11-07:00,14.585167169571,9,versionA_stim.csv,FREQVersionA.csv,"Frequency Version A","Dissertation, Frequency version A",OWN,HAVE,Study2,S,153,155,FREQ,User,-,"How often are these two words used together?|Type your response on a scale from 0-100 and then press Enter.",Study/JOL,"Study Phase2",14174,,,13815,13955,,,,30,0.859
w215680_oa,562cw1jwe4,Nick_Dissertation_EX1,1,233,2020-04-26T10:33:19-07:00,8.0730028152466,9,versionA_stim.csv,FREQVersionA.csv,"Frequency Version A","Dissertation, Frequency version A",CAT,PANTHER,Study2,B,126,148,FREQ,User,-,"How often are these two words used together?|Type your response on a scale from 0-100 and then press Enter.",Study/JOL,"Study Phase2",7697,,,7375,7486,,,,40,0.769
w215680_oa,562cw1jwe4,Nick_Dissertation_EX1,1,234,2020-04-26T10:33:23-07:00,3.9671120643616,9,versionA_stim.csv,FREQVersionA.csv,"Frequency Version A","Dissertation, Frequency version A",PHONE,COMMUNICATION,Study2,S,149,168,FREQ,User,-,"How often are these two words used together?|Type your response on a scale from 0-100 and then press Enter.",Study/JOL,"Study Phase2",3586,,,2056,3138,,,,100,1
w215680_oa,562cw1jwe4,Nick_Dissertation_EX1,1,235,2020-04-26T10:33:33-07:00,9.801176071167,9,versionA_stim.csv,FREQVersionA.csv,"Frequency Version A","Dissertation, Frequency version A",BOTH,OUNCE,Study2,U,172,122,FREQ,User,-,"How often are these two words used together?|Type your response on a scale from 0-100 and then press Enter.",Study/JOL,"Study Phase2",9417,,,9039,9194,,,,30,0.854
w215680_oa,562cw1jwe4,Nick_Dissertation_EX1,1,236,2020-04-26T10:33:41-07:00,8.0518710613251,9,versionA_stim.csv,FREQVersionA.csv,"Frequency Version A","Dissertation, Frequency version A",THREAD,THIMBLE,Study2,B,121,126,FREQ,User,-,"How often are these two words used together?|Type your response on a scale from 0-100 and then press Enter.",Study/JOL,"Study Phase2",7663,,,7334,7453,,,,50,0.795
w215680_oa,562cw1jwe4,Nick_Dissertation_EX1,1,237,2020-04-26T10:33:51-07:00,9.6538739204407,9,versionA_stim.csv,FREQVersionA.csv,"Frequency Version A","Dissertation, Frequency version A",CAKE,CLOTHES,Study2,U,166,145,FREQ,User,-,"How often are these two words used together?|Type your response on a scale from 0-100 and then press Enter.",Study/JOL,"Study Phase2",9224,,,8912,9038,,,,20,0.787
w215680_oa,562cw1jwe4,Nick_Dissertation_EX1,1,238,2020-04-26T10:34:00-07:00,9.7758269309998,9,versionA_stim.csv,FREQVersionA.csv,"Frequency Version A","Dissertation, Frequency version A",NAME,HATE,Study2,U,167,142,FREQ,User,-,"How often are these two words used together?|Type your response on a scale from 0-100 and then press Enter.",Study/JOL,"Study Phase2",9394,,,2176,3015,,,,0,0.766
w215680_oa,562cw1jwe4,Nick_Dissertation_EX1,1,239,2020-04-26T10:34:09-07:00,8.6792621612549,9,versionA_stim.csv,FREQVersionA.csv,"Frequency Version A","Dissertation, Frequency version A",DRIVER,CAR,Study2,F,106,173,FREQ,User,-,"How often are these two words used together?|Type your response on a scale from 0-100 and then press Enter.",Study/JOL,"Study Phase2",8305,,,7729,8122,,,,100,0.667
w215680_oa,562cw1jwe4,Nick_Dissertation_EX1,1,240,2020-04-26T10:34:17-07:00,7.386079788208,9,versionA_stim.csv,FREQVersionA.csv,"Frequency Version A","Dissertation, Frequency version A",WATER,DRINK,Study2,S,143,98,FREQ,User,-,"How often are these two words used together?|Type your response on a scale from 0-100 and then press Enter.",Study/JOL,"Study Phase2",7014,,,6142,6494,,,,100,1
w215680_oa,562cw1jwe4,Nick_Dissertation_EX1,1,241,2020-04-26T10:34:26-07:00,9.318941116333,9,versionA_stim.csv,FREQVersionA.csv,"Frequency Version A","Dissertation, Frequency version A",MONEY,BANKER,Study2,B,132,140,FREQ,User,-,"How often are these two words used together?|Type your response on a scale from 0-100 and then press Enter.",Study/JOL,"Study Phase2",8949,,,8581,8708,,,,50,0.756
w215680_oa,562cw1jwe4,Nick_Dissertation_EX1,1,242,2020-04-26T10:34:37-07:00,10.888932943344,9,versionA_stim.csv,FREQVersionA.csv,"Frequency Version A","Dissertation, Frequency version A",Shell,SHAKE,Study2,U,163,164,FREQ,User,-,"How often are these two words used together?|Type your response on a scale from 0-100 and then press Enter.",Study/JOL,"Study Phase2",10513,,,10256,10256,,,,0,0.679
w215680_oa,562cw1jwe4,Nick_Dissertation_EX1,1,243,2020-04-26T10:34:44-07:00,7.5378720760345,9,versionA_stim.csv,FREQVersionA.csv,"Frequency Version A","Dissertation, Frequency version A",FLEA,TICK,Study2,S,151,102,FREQ,User,-,"How often are these two words used together?|Type your response on a scale from 0-100 and then press Enter.",Study/JOL,"Study Phase2",7163,,,6929,6929,,,,0,0.806
w215680_oa,562cw1jwe4,Nick_Dissertation_EX1,1,244,2020-04-26T10:34:51-07:00,7.176558971405,9,versionA_stim.csv,FREQVersionA.csv,"Frequency Version A","Dissertation, Frequency version A",GIVE,STEAK,Study2,U,158,106,FREQ,User,-,"How often are these two words used together?|Type your response on a scale from 0-100 and then press Enter.",Study/JOL,"Study Phase2",6741,,,6324,6325,,,,1,0.765
w215680_oa,562cw1jwe4,Nick_Dissertation_EX1,1,245,2020-04-26T10:35:05-07:00,13.135381937027,9,versionA_stim.csv,FREQVersionA.csv,"Frequency Version A","Dissertation, Frequency version A",CHOP,CUT,Study2,F,107,167,FREQ,User,-,"How often are these two words used together?|Type your response on a scale from 0-100 and then press Enter.",Study/JOL,"Study Phase2",12708,,,9807,12361,,,,80,0.859
w215680_oa,562cw1jwe4,Nick_Dissertation_EX1,1,246,2020-04-26T10:35:12-07:00,7.6566729545593,9,versionA_stim.csv,FREQVersionA.csv,"Frequency Version A","Dissertation, Frequency version A",LOUD,NOISE,Study2,S,152,153,FREQ,User,-,"How often are these two words used together?|Type your response on a scale from 0-100 and then press Enter.",Study/JOL,"Study Phase2",7217,,,6704,7034,,,,100,0.757
w215680_oa,562cw1jwe4,Nick_Dissertation_EX1,1,247,2020-04-26T10:35:24-07:00,11.753279209137,9,versionA_stim.csv,FREQVersionA.csv,"Frequency Version A","Dissertation, Frequency version A",JUSTICE,MAROON,Study2,U,156,132,FREQ,User,-,"How often are these two words used together?|Type your response on a scale from 0-100 and then press Enter.",Study/JOL,"Study Phase2",11363,,,10993,11120,,,,10,0.842
w215680_oa,562cw1jwe4,Nick_Dissertation_EX1,1,248,2020-04-26T10:35:31-07:00,6.8238439559937,9,versionA_stim.csv,FREQVersionA.csv,"Frequency Version A","Dissertation, Frequency version A",POP,BALLOON,Study2,B,123,109,FREQ,User,-,"How often are these two words used together?|Type your response on a scale from 0-100 and then press Enter.",Study/JOL,"Study Phase2",6425,,,5952,6241,,,,100,0.758
w215680_oa,562cw1jwe4,Nick_Dissertation_EX1,1,249,2020-04-26T10:35:33-07:00,2.1112768650055,9,versionA_stim.csv,FREQVersionA.csv,"Frequency Version A","Dissertation, Frequency version A",AFFECTION,LOVE,Study2,F,115,165,FREQ,User,-,"How often are these two words used together?|Type your response on a scale from 0-100 and then press Enter.",Study/JOL,"Study Phase2",1757,,,1251,1574,,,,100,1
w215680_oa,562cw1jwe4,Nick_Dissertation_EX1,1,250,2020-04-26T10:35:41-07:00,8.3053140640259,9,versionA_stim.csv,FREQVersionA.csv,"Frequency Version A","Dissertation, Frequency version A",BEST,FAVORITE,Study2,B,125,170,FREQ,User,-,"How often are these two words used together?|Type your response on a scale from 0-100 and then press Enter.",Study/JOL,"Study Phase2",7934,,,7125,7429,,,,100,0.8
w215680_oa,562cw1jwe4,Nick_Dissertation_EX1,1,251,2020-04-26T10:35:50-07:00,8.8011100292206,9,versionA_stim.csv,FREQVersionA.csv,"Frequency Version A","Dissertation, Frequency version A",CRACKLE,ABLE,Study2,U,162,169,FREQ,User,-,"How often are these two words used together?|Type your response on a scale from 0-100 and then press Enter.",Study/JOL,"Study Phase2",8400,,,8062,8238,,,,90,0.762
w215680_oa,562cw1jwe4,Nick_Dissertation_EX1,1,252,2020-04-26T10:36:00-07:00,9.905620098114,9,versionA_stim.csv,FREQVersionA.csv,"Frequency Version A","Dissertation, Frequency version A",PLANE,AIRCRAFT,Study2,B,129,133,FREQ,User,-,"How often are these two words used together?|Type your response on a scale from 0-100 and then press Enter.",Study/JOL,"Study Phase2",9532,,,8637,9283,,,,100,0.854
w215680_oa,562cw1jwe4,Nick_Dissertation_EX1,1,253,2020-04-26T10:36:11-07:00,10.758027791977,9,versionA_stim.csv,FREQVersionA.csv,"Frequency Version A","Dissertation, Frequency version A",SLEEP,NAP,Study2,B,134,108,FREQ,User,-,"How often are these two words used together?|Type your response on a scale from 0-100 and then press Enter.",Study/JOL,"Study Phase2",10325,,,9582,10087,,,,100,0.808
w215680_oa,562cw1jwe4,Nick_Dissertation_EX1,1,254,2020-04-26T10:36:19-07:00,8.70046210289,9,versionA_stim.csv,FREQVersionA.csv,"Frequency Version A","Dissertation, Frequency version A",LISTEN,FICTION,Study2,U,164,159,FREQ,User,-,"How often are these two words used together?|Type your response on a scale from 0-100 and then press Enter.",Study/JOL,"Study Phase2",8232,,,7695,7933,,,,10,0.833
w215680_oa,562cw1jwe4,Nick_Dissertation_EX1,1,255,2020-04-26T10:36:27-07:00,7.5252780914307,9,versionA_stim.csv,FREQVersionA.csv,"Frequency Version A","Dissertation, Frequency version A",DOCUMENT,PAPER,Study2,F,109,117,FREQ,User,-,"How often are these two words used together?|Type your response on a scale from 0-100 and then press Enter.",Study/JOL,"Study Phase2",7051,,,6338,6842,,,,100,0.833
w215680_oa,562cw1jwe4,Nick_Dissertation_EX1,1,256,2020-04-26T10:36:40-07:00,13.006532907486,9,versionA_stim.csv,FREQVersionA.csv,"Frequency Version A","Dissertation, Frequency version A",STAR,ACTRESS,Study2,B,120,111,FREQ,User,-,"How often are these two words used together?|Type your response on a scale from 0-100 and then press Enter.",Study/JOL,"Study Phase2",11613,,,11318,11427,,,,50,0.879
w215680_oa,562cw1jwe4,Nick_Dissertation_EX1,1,257,2020-04-26T10:36:43-07:00,3.389545917511,9,versionA_stim.csv,FREQVersionA.csv,"Frequency Version A","Dissertation, Frequency version A",SUN,TAN,Study2,S,155,171,FREQ,User,-,"How often are these two words used together?|Type your response on a scale from 0-100 and then press Enter.",Study/JOL,"Study Phase2",3011,,,2606,2713,,,,50,1
w215680_oa,562cw1jwe4,Nick_Dissertation_EX1,1,258,2020-04-26T10:36:57-07:00,14.017680168152,9,versionA_stim.csv,FREQVersionA.csv,"Frequency Version A","Dissertation, Frequency version A",DETECTIVE,MYSTERY,Study2,F,100,115,FREQ,User,-,"How often are these two words used together?|Type your response on a scale from 0-100 and then press Enter.",Study/JOL,"Study Phase2",13643,,,13147,13444,,,,100,0.899
w215680_oa,562cw1jwe4,Nick_Dissertation_EX1,1,259,2020-04-26T10:37:01-07:00,3.9656479358673,9,versionA_stim.csv,FREQVersionA.csv,"Frequency Version A","Dissertation, Frequency version A",GLASS,BREAKABLE,Study2,B,127,134,FREQ,User,-,"How often are these two words used together?|Type your response on a scale from 0-100 and then press Enter.",Study/JOL,"Study Phase2",3390,,,2878,3182,,,,100,1
w215680_oa,562cw1jwe4,Nick_Dissertation_EX1,1,260,2020-04-26T10:37:05-07:00,3.9559879302979,9,versionA_stim.csv,FREQVersionA.csv,"Frequency Version A","Dissertation, Frequency version A",DINE,EAT,Study2,F,111,114,FREQ,User,-,"How often are these two words used together?|Type your response on a scale from 0-100 and then press Enter.",Study/JOL,"Study Phase2",3588,,,2957,3366,,,,100,1
w215680_oa,562cw1jwe4,Nick_Dissertation_EX1,1,261,2020-04-26T10:37:08-07:00,2.4889130592346,9,versionA_stim.csv,FREQVersionA.csv,"Frequency Version A","Dissertation, Frequency version A",WRIST,BRACELET,Study2,S,140,162,FREQ,User,-,"How often are these two words used together?|Type your response on a scale from 0-100 and then press Enter.",Study/JOL,"Study Phase2",2101,,,1284,1845,,,,100,1
w215680_oa,562cw1jwe4,Nick_Dissertation_EX1,1,262,2020-04-26T10:37:16-07:00,8.4728059768677,9,versionA_stim.csv,FREQVersionA.csv,"Frequency Version A","Dissertation, Frequency version A",MASON,JAR,Study2,S,138,118,FREQ,User,-,"How often are these two words used together?|Type your response on a scale from 0-100 and then press Enter.",Study/JOL,"Study Phase2",8104,,,7736,7902,,,,90,0.829
w215680_oa,562cw1jwe4,Nick_Dissertation_EX1,1,263,2020-04-26T10:37:26-07:00,10.24276804924,9,versionA_stim.csv,FREQVersionA.csv,"Frequency Version A","Dissertation, Frequency version A",FIGHT,BRAWL,Study2,B,135,116,FREQ,User,-,"How often are these two words used together?|Type your response on a scale from 0-100 and then press Enter.",Study/JOL,"Study Phase2",9736,,,3309,3484,,,,40,0.837
w215680_oa,562cw1jwe4,Nick_Dissertation_EX1,1,264,2020-04-26T10:37:48-07:00,21.191937923431,9,versionA_stim.csv,FREQVersionA.csv,"Frequency Version A","Dissertation, Frequency version A",EARTH,GROUND,Study2,S,144,125,FREQ,User,-,"How often are these two words used together?|Type your response on a scale from 0-100 and then press Enter.",Study/JOL,"Study Phase2",20775,,,10704,12151,,,,80,0.788
w215680_oa,562cw1jwe4,Nick_Dissertation_EX1,1,265,2020-04-26T10:38:36-07:00,47.989489078522,9,versionA_stim.csv,FREQVersionA.csv,"Frequency Version A","Dissertation, Frequency version A",LEASE,TOIL,Study2,U,170,131,FREQ,User,-,"How often are these two words used together?|Type your response on a scale from 0-100 and then press Enter.",Study/JOL,"Study Phase2",47572,,,47073,47338,,,,20,0.941
w215680_oa,562cw1jwe4,Nick_Dissertation_EX1,1,266,2020-04-26T10:38:43-07:00,7.0441830158234,9,versionA_stim.csv,FREQVersionA.csv,"Frequency Version A","Dissertation, Frequency version A",HONEST,TRUTHFUL,Study2,B,133,149,FREQ,User,-,"How often are these two words used together?|Type your response on a scale from 0-100 and then press Enter.",Study/JOL,"Study Phase2",6644,,,6211,6444,,,,100,0.735
w215680_oa,562cw1jwe4,Nick_Dissertation_EX1,1,267,2020-04-26T10:38:47-07:00,4.7655289173126,9,versionA_stim.csv,FREQVersionA.csv,"Frequency Version A","Dissertation, Frequency version A",MONTH,YEAR,BUFFER4,Buffer,177,179,FREQ,User,-,"How often are these two words used together?|Type your response on a scale from 0-100 and then press Enter.",Study/JOL,BUFFER4,4174,,,3429,3926,,,,100,1
w215680_oa,562cw1jwe4,Nick_Dissertation_EX1,1,268,2020-04-26T10:38:56-07:00,8.62868309021,9,versionA_stim.csv,FREQVersionA.csv,"Frequency Version A","Dissertation, Frequency version A",OCTOBER,SPOOKY,BUFFER4,Buffer,180,181,FREQ,User,-,"How often are these two words used together?|Type your response on a scale from 0-100 and then press Enter.",Study/JOL,BUFFER4,8242,,,7745,7992,,,,10,0.833
w215680_oa,562cw1jwe4,Nick_Dissertation_EX1,1,269,2020-04-26T10:39:04-07:00,7.3931558132172,9,versionA_stim.csv,FREQVersionA.csv,"Frequency Version A","Dissertation, Frequency version A",SPRING,MARCH,BUFFER4,Buffer,179,180,FREQ,User,-,"How often are these two words used together?|Type your response on a scale from 0-100 and then press Enter.",Study/JOL,BUFFER4,7002,,,6650,6776,,,,60,1
w215680_oa,562cw1jwe4,Nick_Dissertation_EX1,1,270,2020-04-26T10:39:14-07:00,10.0607380867,9,versionA_stim.csv,FREQVersionA.csv,"Frequency Version A","Dissertation, Frequency version A",DAYS,WEAKS,BUFFER4,Buffer,176,178,FREQ,User,-,"How often are these two words used together?|Type your response on a scale from 0-100 and then press Enter.",Study/JOL,BUFFER4,9682,,,9178,9178,,,,0,1
w215680_oa,562cw1jwe4,Nick_Dissertation_EX1,1,271,2020-04-26T10:39:27-07:00,13.34215593338,9,versionA_stim.csv,FREQVersionA.csv,"Frequency Version A","Dissertation, Frequency version A",TOOL,SHED,BUFFER4,Buffer,178,177,FREQ,User,-,"How often are these two words used together?|Type your response on a scale from 0-100 and then press Enter.",Study/JOL,BUFFER4,12908,,,12048,12649,,,,30,0.877
w215680_oa,562cw1jwe4,Nick_Dissertation_EX1,1,272,2020-04-26T10:39:36-07:00,9.5945591926575,9,versionA_stim.csv,FREQVersionA.csv,"Frequency Version A","Dissertation, Frequency version A",,,,,,0,Instruct,User,-,"You have completed this section. Please press Enter.",Filler_Instruction,Instruct5,9211,,,-1,-1,,,,,1
w215680_oa,562cw1jwe4,Nick_Dissertation_EX1,1,273,2020-04-26T10:41:37-07:00,120.44031381607,9,versionA_stim.csv,FREQVersionA.csv,"Frequency Version A","Dissertation, Frequency version A",,,,,,0,FreeRecall,120,120,"Please list the 50 US states in reverse alphabetical order (z - a). The task will automatically advance to the next screen after two minutes.",,Filler2,120004,"Alabama Alaska Arizona Arkansas California Colorado Connecticut Delaware Florida Georgia Hawaii Idaho Illinois Indiana Iowa Kansas Kentucky Louisiana Maine Maryland Massachusetts Michigan Minnesota Mississippi Missouri Montana Nebraska Nevada New Hampshire New Jersey New Mexico New York North Carolina North Dakota Ohio Oklahoma Oregon Pennsylvania Rhode Island South Carolina South Dakota Tennessee Texas Utah Vermont Virginia Washington West Virginia Wisconsin Wyoming",0,-1,-1,0,0,,,0.957
w215680_oa,562cw1jwe4,Nick_Dissertation_EX1,1,274,2020-04-26T10:41:52-07:00,14.977290153503,9,versionA_stim.csv,FREQVersionA.csv,"Frequency Version A","Dissertation, Frequency version A",,,,,,0,Instruct,-,10,"You will now be presented with the first word from each of the previously studied item pairs. Please type the missing word. If you do not know the word, you may guess or press Enter to skip forward to the next pair.",,Instruct6,14567,,,-1,-1,,,,,1
w215680_oa,562cw1jwe4,Nick_Dissertation_EX1,1,275,2020-04-26T10:41:57-07:00,5.2245059013367,9,versionA_stim.csv,FREQVersionA.csv,"Frequency Version A","Dissertation, Frequency version A",RIGHTS,EQUAL,Study2,S,137,158,Test,User,-,,Recall,Recall2,4826,equal,100,3458,4599,1,1,,,1
w215680_oa,562cw1jwe4,Nick_Dissertation_EX1,1,276,2020-04-26T10:42:14-07:00,16.715403079987,9,versionA_stim.csv,FREQVersionA.csv,"Frequency Version A","Dissertation, Frequency version A",LEASE,TOIL,Study2,U,170,131,Test,User,-,,Recall,Recall2,16329,toil,100,15705,16160,1,1,,,1
