Username,ID,ExperimentName,Session,Trial,Date,TimeDif,"Condition Number","Stimuli File","Order File","Condition Description","Condition Notes",Stimuli*Cue,Stimuli*Answer,Stimuli*Shuffle,"Stimuli*Stimuli Notes",Stimuli*Value,Procedure*Item,"Procedure*Trial Type","Procedure*Max Time","Procedure*Min Time",Procedure*Text,"Procedure*Procedure Notes",Procedure*Shuffle,Response*RT,Response*Response,Response*Accuracy,Response*RTfirst,Response*RTlast,Response*strictAcc,Response*lenientAcc,Response*focus,Response*JOL,Response*Focus
w10051625_bcd,a3n6u2x9fb,Nick_Dissertation_EX1,1,1,2020-04-28T11:36:50-07:00,7.5595932006836,12,versionC_stim.csv,FREQVersionD.csv,"Frequency Version D","Dissertation, Frequency version D",,,,,,0,Instruct,-,5,"In this section, you will be presented with a series of word pairs.",Initial_Instruct,Instruct1,6214,,,-1,-1,,,,,1
w10051625_bcd,a3n6u2x9fb,Nick_Dissertation_EX1,1,2,2020-04-28T11:36:59-07:00,8.5829429626465,12,versionC_stim.csv,FREQVersionD.csv,"Frequency Version D","Dissertation, Frequency version D",,,,,,0,Instruct,-,5,"As you study, you will be asked to rate how often the words in each pair are used together.",,Instruct13,6757,,,-1,-1,,,,,1
w10051625_bcd,a3n6u2x9fb,Nick_Dissertation_EX1,1,3,2020-04-28T11:37:13-07:00,13.75336098671,12,versionC_stim.csv,FREQVersionD.csv,"Frequency Version D","Dissertation, Frequency version D",,,,,,0,Instruct,-,10,"For example, if you are given the pair CAT - DOG, a rating of 0 indicates that the words DOG and CAT are not used together often in language, while a rating of 100 indicates that DOG and CAT are commonly used together.",,Instruct14,13377,,,-1,-1,,,,,1
w10051625_bcd,a3n6u2x9fb,Nick_Dissertation_EX1,1,4,2020-04-28T11:37:25-07:00,11.980571985245,12,versionC_stim.csv,FREQVersionD.csv,"Frequency Version D","Dissertation, Frequency version D",,,,,,0,Instruct,-,10,"When making your ratings, it is criticial that you use the full range of the scale. You will be disqualified for only giving ratings of 0 or 100! After making your rating, press Enter to advance to the next pair.",,Instruct15,11457,,,-1,-1,,,,,1
w10051625_bcd,a3n6u2x9fb,Nick_Dissertation_EX1,1,5,2020-04-28T11:37:27-07:00,2.9227578639984,12,versionC_stim.csv,FREQVersionD.csv,"Frequency Version D","Dissertation, Frequency version D",,,,,,0,Instruct,User,-,"You will now begin the study. Press Enter when you are ready to begin.",,Instruct16,2492,,,-1,-1,,,,,1
w10051625_bcd,a3n6u2x9fb,Nick_Dissertation_EX1,1,6,2020-04-28T11:37:38-07:00,10.264594078064,12,versionC_stim.csv,FREQVersionD.csv,"Frequency Version D","Dissertation, Frequency version D",FISH,SHRIMP,BUFFER3,Buffer,93,92,FREQ,User,-,"How often are these two words used together?|Type your response on a scale from 0-100 and then press Enter.",Study/JOL,BUFFER,9002,,,6269,6627,,,,100,1
w10051625_bcd,a3n6u2x9fb,Nick_Dissertation_EX1,1,7,2020-04-28T11:37:53-07:00,14.939913988113,12,versionC_stim.csv,FREQVersionD.csv,"Frequency Version D","Dissertation, Frequency version D",FROZEN,ICE,BUFFER3,Buffer,94,94,FREQ,User,-,"How often are these two words used together?|Type your response on a scale from 0-100 and then press Enter.",Study/JOL,BUFFER,13199,,,3054,12294,,,,85,1
w10051625_bcd,a3n6u2x9fb,Nick_Dissertation_EX1,1,8,2020-04-28T11:38:00-07:00,7.094731092453,12,versionC_stim.csv,FREQVersionD.csv,"Frequency Version D","Dissertation, Frequency version D",ADVENTURE,CAMP,BUFFER3,Buffer,95,93,FREQ,User,-,"How often are these two words used together?|Type your response on a scale from 0-100 and then press Enter.",Study/JOL,BUFFER,4142,,,2637,3213,,,,76,1
w10051625_bcd,a3n6u2x9fb,Nick_Dissertation_EX1,1,9,2020-04-28T11:38:08-07:00,8.5545778274536,12,versionC_stim.csv,FREQVersionD.csv,"Frequency Version D","Dissertation, Frequency version D",POTATO,CARROT,BUFFER3,Buffer,91,96,FREQ,User,-,"How often are these two words used together?|Type your response on a scale from 0-100 and then press Enter.",Study/JOL,BUFFER,5948,,,4102,5146,,,,38,1
w10051625_bcd,a3n6u2x9fb,Nick_Dissertation_EX1,1,10,2020-04-28T11:38:14-07:00,5.962904214859,12,versionC_stim.csv,FREQVersionD.csv,"Frequency Version D","Dissertation, Frequency version D",STRING,NOODLE,BUFFER3,Buffer,92,95,FREQ,User,-,"How often are these two words used together?|Type your response on a scale from 0-100 and then press Enter.",Study/JOL,BUFFER,5395,,,3364,4673,,,,15,1
w10051625_bcd,a3n6u2x9fb,Nick_Dissertation_EX1,1,11,2020-04-28T11:38:21-07:00,7.0259778499603,12,versionC_stim.csv,FREQVersionD.csv,"Frequency Version D","Dissertation, Frequency version D",SCAR,MAIN,Study2,U,175,133,FREQ,User,-,"How often are these two words used together?|Type your response on a scale from 0-100 and then press Enter.",Study/JOL,"Study Phase",6526,,,5732,5732,,,,5,1
w10051625_bcd,a3n6u2x9fb,Nick_Dissertation_EX1,1,12,2020-04-28T11:38:29-07:00,7.8898141384125,12,versionC_stim.csv,FREQVersionD.csv,"Frequency Version D","Dissertation, Frequency version D",LEAGUE,BASEBALL,Study2,F,131,138,FREQ,User,-,"How often are these two words used together?|Type your response on a scale from 0-100 and then press Enter.",Study/JOL,"Study Phase",7397,,,3237,6424,,,,90,1
w10051625_bcd,a3n6u2x9fb,Nick_Dissertation_EX1,1,13,2020-04-28T11:38:38-07:00,8.2931590080261,12,versionC_stim.csv,FREQVersionD.csv,"Frequency Version D","Dissertation, Frequency version D",FAVORITE,BEST,Study2,F,125,129,FREQ,User,-,"How often are these two words used together?|Type your response on a scale from 0-100 and then press Enter.",Study/JOL,"Study Phase",5597,,,3281,4802,,,,88,1
w10051625_bcd,a3n6u2x9fb,Nick_Dissertation_EX1,1,14,2020-04-28T11:38:43-07:00,5.3608329296112,12,versionC_stim.csv,FREQVersionD.csv,"Frequency Version D","Dissertation, Frequency version D",MYSTERY,DETECTIVE,Study2,B,100,117,FREQ,User,-,"How often are these two words used together?|Type your response on a scale from 0-100 and then press Enter.",Study/JOL,"Study Phase",4706,,,3360,3544,,,,60,1
w10051625_bcd,a3n6u2x9fb,Nick_Dissertation_EX1,1,15,2020-04-28T11:38:54-07:00,11.610424041748,12,versionC_stim.csv,FREQVersionD.csv,"Frequency Version D","Dissertation, Frequency version D",LONG,EXTENSION,Study2,B,96,153,FREQ,User,-,"How often are these two words used together?|Type your response on a scale from 0-100 and then press Enter.",Study/JOL,"Study Phase",8599,,,3410,7860,,,,48,1
w10051625_bcd,a3n6u2x9fb,Nick_Dissertation_EX1,1,16,2020-04-28T11:39:19-07:00,24.934571027756,12,versionC_stim.csv,FREQVersionD.csv,"Frequency Version D","Dissertation, Frequency version D",PLANT,CACTUS,Study2,B,98,121,FREQ,User,-,"How often are these two words used together?|Type your response on a scale from 0-100 and then press Enter.",Study/JOL,"Study Phase",10066,,,3132,9381,,,,64,1
w10051625_bcd,a3n6u2x9fb,Nick_Dissertation_EX1,1,17,2020-04-28T11:39:25-07:00,5.9221320152283,12,versionC_stim.csv,FREQVersionD.csv,"Frequency Version D","Dissertation, Frequency version D",LIE,TRUTH,Study2,S,148,139,FREQ,User,-,"How often are these two words used together?|Type your response on a scale from 0-100 and then press Enter.",Study/JOL,"Study Phase",5467,,,2806,4003,,,,95,1
w10051625_bcd,a3n6u2x9fb,Nick_Dissertation_EX1,1,18,2020-04-28T11:39:32-07:00,6.6855700016022,12,versionC_stim.csv,FREQVersionD.csv,"Frequency Version D","Dissertation, Frequency version D",REVENGE,EVEN,Study2,F,122,114,FREQ,User,-,"How often are these two words used together?|Type your response on a scale from 0-100 and then press Enter.",Study/JOL,"Study Phase",5923,,,3810,5011,,,,75,1
w10051625_bcd,a3n6u2x9fb,Nick_Dissertation_EX1,1,19,2020-04-28T11:39:44-07:00,12.273135900497,12,versionC_stim.csv,FREQVersionD.csv,"Frequency Version D","Dissertation, Frequency version D",BRACELET,WRIST,Study2,S,140,156,FREQ,User,-,"How often are these two words used together?|Type your response on a scale from 0-100 and then press Enter.",Study/JOL,"Study Phase",11413,,,8920,10528,,,,87,1
w10051625_bcd,a3n6u2x9fb,Nick_Dissertation_EX1,1,20,2020-04-28T11:39:51-07:00,6.2196850776672,12,versionC_stim.csv,FREQVersionD.csv,"Frequency Version D","Dissertation, Frequency version D",AWAY,GONE,Study2,S,142,102,FREQ,User,-,"How often are these two words used together?|Type your response on a scale from 0-100 and then press Enter.",Study/JOL,"Study Phase",5729,,,3310,4419,,,,46,1
w10051625_bcd,a3n6u2x9fb,Nick_Dissertation_EX1,1,21,2020-04-28T11:39:56-07:00,5.1383748054504,12,versionC_stim.csv,FREQVersionD.csv,"Frequency Version D","Dissertation, Frequency version D",CLEAR,MOAT,Study2,U,169,119,FREQ,User,-,"How often are these two words used together?|Type your response on a scale from 0-100 and then press Enter.",Study/JOL,"Study Phase",4713,,,3416,3612,,,,10,1
w10051625_bcd,a3n6u2x9fb,Nick_Dissertation_EX1,1,22,2020-04-28T11:40:05-07:00,9.3634631633759,12,versionC_stim.csv,FREQVersionD.csv,"Frequency Version D","Dissertation, Frequency version D",CLOTHES,CAKE,Study2,U,166,175,FREQ,User,-,"How often are these two words used together?|Type your response on a scale from 0-100 and then press Enter.",Study/JOL,"Study Phase",7943,,,3038,6878,,,,14,1
w10051625_bcd,a3n6u2x9fb,Nick_Dissertation_EX1,1,23,2020-04-28T11:40:10-07:00,5.2992799282074,12,versionC_stim.csv,FREQVersionD.csv,"Frequency Version D","Dissertation, Frequency version D",DONKEY,MULE,Study2,B,108,152,FREQ,User,-,"How often are these two words used together?|Type your response on a scale from 0-100 and then press Enter.",Study/JOL,"Study Phase",4899,,,3459,3852,,,,30,1
w10051625_bcd,a3n6u2x9fb,Nick_Dissertation_EX1,1,24,2020-04-28T11:40:16-07:00,6.0972669124603,12,versionC_stim.csv,FREQVersionD.csv,"Frequency Version D","Dissertation, Frequency version D",STRAWBERRY,FRUIT,Study2,F,124,112,FREQ,User,-,"How often are these two words used together?|Type your response on a scale from 0-100 and then press Enter.",Study/JOL,"Study Phase",5664,,,3393,4598,,,,55,1
w10051625_bcd,a3n6u2x9fb,Nick_Dissertation_EX1,1,25,2020-04-28T11:40:24-07:00,7.998957157135,12,versionC_stim.csv,FREQVersionD.csv,"Frequency Version D","Dissertation, Frequency version D",TRASH,LITTER,Study2,B,103,141,FREQ,User,-,"How often are these two words used together?|Type your response on a scale from 0-100 and then press Enter.",Study/JOL,"Study Phase",7615,,,5281,6835,,,,63,1
w10051625_bcd,a3n6u2x9fb,Nick_Dissertation_EX1,1,26,2020-04-28T11:40:35-07:00,10.832623004913,12,versionC_stim.csv,FREQVersionD.csv,"Frequency Version D","Dissertation, Frequency version D",ABLE,CRACKLE,Study2,U,162,105,FREQ,User,-,"How often are these two words used together?|Type your response on a scale from 0-100 and then press Enter.",Study/JOL,"Study Phase",10341,,,3959,5374,,,,8,1
w10051625_bcd,a3n6u2x9fb,Nick_Dissertation_EX1,1,27,2020-04-28T11:40:47-07:00,11.930229902267,12,versionC_stim.csv,FREQVersionD.csv,"Frequency Version D","Dissertation, Frequency version D",WET,DRY,Study2,S,146,151,FREQ,User,-,"How often are these two words used together?|Type your response on a scale from 0-100 and then press Enter.",Study/JOL,"Study Phase",10014,,,5483,9218,,,,92,1
w10051625_bcd,a3n6u2x9fb,Nick_Dissertation_EX1,1,28,2020-04-28T11:40:57-07:00,9.7396540641785,12,versionC_stim.csv,FREQVersionD.csv,"Frequency Version D","Dissertation, Frequency version D",LOVE,AFFECTION,Study2,B,115,147,FREQ,User,-,"How often are these two words used together?|Type your response on a scale from 0-100 and then press Enter.",Study/JOL,"Study Phase",6013,,,3815,4810,,,,79,1
w10051625_bcd,a3n6u2x9fb,Nick_Dissertation_EX1,1,29,2020-04-28T11:41:06-07:00,9.5347628593445,12,versionC_stim.csv,FREQVersionD.csv,"Frequency Version D","Dissertation, Frequency version D",FICTION,LISTEN,Study2,U,164,172,FREQ,User,-,"How often are these two words used together?|Type your response on a scale from 0-100 and then press Enter.",Study/JOL,"Study Phase",9000,,,4643,7816,,,,3,1
w10051625_bcd,a3n6u2x9fb,Nick_Dissertation_EX1,1,30,2020-04-28T11:41:14-07:00,7.573221206665,12,versionC_stim.csv,FREQVersionD.csv,"Frequency Version D","Dissertation, Frequency version D",EQUAL,RIGHTS,Study2,S,137,176,FREQ,User,-,"How often are these two words used together?|Type your response on a scale from 0-100 and then press Enter.",Study/JOL,"Study Phase",6645,,,4181,5805,,,,87,1
w10051625_bcd,a3n6u2x9fb,Nick_Dissertation_EX1,1,31,2020-04-28T11:41:21-07:00,7.1879329681396,12,versionC_stim.csv,FREQVersionD.csv,"Frequency Version D","Dissertation, Frequency version D",MAROON,JUSTICE,Study2,U,156,100,FREQ,User,-,"How often are these two words used together?|Type your response on a scale from 0-100 and then press Enter.",Study/JOL,"Study Phase",5857,,,3805,3983,,,,10,1
w10051625_bcd,a3n6u2x9fb,Nick_Dissertation_EX1,1,32,2020-04-28T11:41:32-07:00,11.116034030914,12,versionC_stim.csv,FREQVersionD.csv,"Frequency Version D","Dissertation, Frequency version D",HATE,NAME,Study2,U,167,167,FREQ,User,-,"How often are these two words used together?|Type your response on a scale from 0-100 and then press Enter.",Study/JOL,"Study Phase",9471,,,6423,8833,,,,65,1
w10051625_bcd,a3n6u2x9fb,Nick_Dissertation_EX1,1,33,2020-04-28T11:41:42-07:00,9.5650420188904,12,versionC_stim.csv,FREQVersionD.csv,"Frequency Version D","Dissertation, Frequency version D",END,ADJOURN,Study2,B,101,155,FREQ,User,-,"How often are these two words used together?|Type your response on a scale from 0-100 and then press Enter.",Study/JOL,"Study Phase",7471,,,3781,6732,,,,35,1
w10051625_bcd,a3n6u2x9fb,Nick_Dissertation_EX1,1,34,2020-04-28T11:41:52-07:00,10.40350985527,12,versionC_stim.csv,FREQVersionD.csv,"Frequency Version D","Dissertation, Frequency version D",CAR,DRIVER,Study2,B,106,106,FREQ,User,-,"How often are these two words used together?|Type your response on a scale from 0-100 and then press Enter.",Study/JOL,"Study Phase",8794,,,3210,7797,,,,80,1
w10051625_bcd,a3n6u2x9fb,Nick_Dissertation_EX1,1,35,2020-04-28T11:42:00-07:00,7.3724749088287,12,versionC_stim.csv,FREQVersionD.csv,"Frequency Version D","Dissertation, Frequency version D",TOIL,LEASE,Study2,U,170,160,FREQ,User,-,"How often are these two words used together?|Type your response on a scale from 0-100 and then press Enter.",Study/JOL,"Study Phase",3535,,,2865,2865,,,,5,1
w10051625_bcd,a3n6u2x9fb,Nick_Dissertation_EX1,1,36,2020-04-28T11:42:09-07:00,8.8633291721344,12,versionC_stim.csv,FREQVersionD.csv,"Frequency Version D","Dissertation, Frequency version D",TICK,FLEA,Study2,S,151,113,FREQ,User,-,"How often are these two words used together?|Type your response on a scale from 0-100 and then press Enter.",Study/JOL,"Study Phase",7681,,,4077,6723,,,,42,1
w10051625_bcd,a3n6u2x9fb,Nick_Dissertation_EX1,1,37,2020-04-28T11:42:16-07:00,7.9543809890747,12,versionC_stim.csv,FREQVersionD.csv,"Frequency Version D","Dissertation, Frequency version D",JAR,MASON,Study2,S,138,128,FREQ,User,-,"How often are these two words used together?|Type your response on a scale from 0-100 and then press Enter.",Study/JOL,"Study Phase",7003,,,4126,6029,,,,97,1
w10051625_bcd,a3n6u2x9fb,Nick_Dissertation_EX1,1,38,2020-04-28T11:42:27-07:00,10.719065904617,12,versionC_stim.csv,FREQVersionD.csv,"Frequency Version D","Dissertation, Frequency version D",BREAKABLE,GLASS,Study2,F,127,143,FREQ,User,-,"How often are these two words used together?|Type your response on a scale from 0-100 and then press Enter.",Study/JOL,"Study Phase",7447,,,6287,6483,,,,89,1
w10051625_bcd,a3n6u2x9fb,Nick_Dissertation_EX1,1,39,2020-04-28T11:42:36-07:00,8.3453190326691,12,versionC_stim.csv,FREQVersionD.csv,"Frequency Version D","Dissertation, Frequency version D",COLD,CHILL,Study2,B,114,146,FREQ,User,-,"How often are these two words used together?|Type your response on a scale from 0-100 and then press Enter.",Study/JOL,"Study Phase",7264,,,2486,5864,,,,65,1
w10051625_bcd,a3n6u2x9fb,Nick_Dissertation_EX1,1,40,2020-04-28T11:42:41-07:00,5.9023869037628,12,versionC_stim.csv,FREQVersionD.csv,"Frequency Version D","Dissertation, Frequency version D",PAPER,DOCUMENT,Study2,B,109,148,FREQ,User,-,"How often are these two words used together?|Type your response on a scale from 0-100 and then press Enter.",Study/JOL,"Study Phase",4348,,,2909,3091,,,,45,1
w10051625_bcd,a3n6u2x9fb,Nick_Dissertation_EX1,1,41,2020-04-28T11:42:52-07:00,10.707937002182,12,versionC_stim.csv,FREQVersionD.csv,"Frequency Version D","Dissertation, Frequency version D",FLIP,TURN,Study2,F,116,108,FREQ,User,-,"How often are these two words used together?|Type your response on a scale from 0-100 and then press Enter.",Study/JOL,"Study Phase",10109,,,9018,9124,,,,45,1
w10051625_bcd,a3n6u2x9fb,Nick_Dissertation_EX1,1,42,2020-04-28T11:43:01-07:00,9.1486461162567,12,versionC_stim.csv,FREQVersionD.csv,"Frequency Version D","Dissertation, Frequency version D",VILLAIN,BAD,Study2,F,118,158,FREQ,User,-,"How often are these two words used together?|Type your response on a scale from 0-100 and then press Enter.",Study/JOL,"Study Phase",7863,,,5992,7062,,,,57,1
w10051625_bcd,a3n6u2x9fb,Nick_Dissertation_EX1,1,43,2020-04-28T11:43:11-07:00,9.9665970802307,12,versionC_stim.csv,FREQVersionD.csv,"Frequency Version D","Dissertation, Frequency version D",Morning,TEMPERATURE,Study2,U,173,135,FREQ,User,-,"How often are these two words used together?|Type your response on a scale from 0-100 and then press Enter.",Study/JOL,"Study Phase",7656,,,4521,7094,,,,37,1
w10051625_bcd,a3n6u2x9fb,Nick_Dissertation_EX1,1,44,2020-04-28T11:43:19-07:00,7.9926428794861,12,versionC_stim.csv,FREQVersionD.csv,"Frequency Version D","Dissertation, Frequency version D",RED,CHERRY,Study2,B,104,126,FREQ,User,-,"How often are these two words used together?|Type your response on a scale from 0-100 and then press Enter.",Study/JOL,"Study Phase",6644,,,5542,5823,,,,43,1
w10051625_bcd,a3n6u2x9fb,Nick_Dissertation_EX1,1,45,2020-04-28T11:43:27-07:00,7.2723569869995,12,versionC_stim.csv,FREQVersionD.csv,"Frequency Version D","Dissertation, Frequency version D",CLOTH,STRETCH,Study2,U,157,165,FREQ,User,-,"How often are these two words used together?|Type your response on a scale from 0-100 and then press Enter.",Study/JOL,"Study Phase",6885,,,3778,4595,,,,21,1
w10051625_bcd,a3n6u2x9fb,Nick_Dissertation_EX1,1,46,2020-04-28T11:43:32-07:00,5.2229449748993,12,versionC_stim.csv,FREQVersionD.csv,"Frequency Version D","Dissertation, Frequency version D",BRAWL,FIGHT,Study2,F,135,116,FREQ,User,-,"How often are these two words used together?|Type your response on a scale from 0-100 and then press Enter.",Study/JOL,"Study Phase",4793,,,3180,3447,,,,20,1
w10051625_bcd,a3n6u2x9fb,Nick_Dissertation_EX1,1,47,2020-04-28T11:43:38-07:00,6.0624210834503,12,versionC_stim.csv,FREQVersionD.csv,"Frequency Version D","Dissertation, Frequency version D",SHAVE,RAZOR,Study2,S,136,163,FREQ,User,-,"How often are these two words used together?|Type your response on a scale from 0-100 and then press Enter.",Study/JOL,"Study Phase",5629,,,3133,4359,,,,67,1
w10051625_bcd,a3n6u2x9fb,Nick_Dissertation_EX1,1,48,2020-04-28T11:43:42-07:00,4.0870320796967,12,versionC_stim.csv,FREQVersionD.csv,"Frequency Version D","Dissertation, Frequency version D",TAN,SUN,Study2,S,155,154,FREQ,User,-,"How often are these two words used together?|Type your response on a scale from 0-100 and then press Enter.",Study/JOL,"Study Phase",3411,,,1938,2127,,,,40,1
w10051625_bcd,a3n6u2x9fb,Nick_Dissertation_EX1,1,49,2020-04-28T11:43:49-07:00,7.1264498233795,12,versionC_stim.csv,FREQVersionD.csv,"Frequency Version D","Dissertation, Frequency version D",HAVE,OWN,Study2,S,153,132,FREQ,User,-,"How often are these two words used together?|Type your response on a scale from 0-100 and then press Enter.",Study/JOL,"Study Phase",3820,,,2546,2770,,,,78,1
w10051625_bcd,a3n6u2x9fb,Nick_Dissertation_EX1,1,50,2020-04-28T11:43:57-07:00,8.2080190181732,12,versionC_stim.csv,FREQVersionD.csv,"Frequency Version D","Dissertation, Frequency version D",LONELY,ALONE,Study2,S,145,169,FREQ,User,-,"How often are these two words used together?|Type your response on a scale from 0-100 and then press Enter.",Study/JOL,"Study Phase",7779,,,5070,6841,,,,82,1
w10051625_bcd,a3n6u2x9fb,Nick_Dissertation_EX1,1,51,2020-04-28T11:44:09-07:00,12.065934181213,12,versionC_stim.csv,FREQVersionD.csv,"Frequency Version D","Dissertation, Frequency version D",TIE,SHOELACE,Study2,B,99,104,FREQ,User,-,"How often are these two words used together?|Type your response on a scale from 0-100 and then press Enter.",Study/JOL,"Study Phase",8433,,,6035,6966,,,,64,1
w10051625_bcd,a3n6u2x9fb,Nick_Dissertation_EX1,1,52,2020-04-28T11:44:14-07:00,4.6232948303223,12,versionC_stim.csv,FREQVersionD.csv,"Frequency Version D","Dissertation, Frequency version D",BALLOON,POP,Study2,F,123,170,FREQ,User,-,"How often are these two words used together?|Type your response on a scale from 0-100 and then press Enter.",Study/JOL,"Study Phase",3586,,,1997,2603,,,,64,1
w10051625_bcd,a3n6u2x9fb,Nick_Dissertation_EX1,1,53,2020-04-28T11:44:22-07:00,8.0257911682129,12,versionC_stim.csv,FREQVersionD.csv,"Frequency Version D","Dissertation, Frequency version D",DOG,FURRY,Study2,B,102,122,FREQ,User,-,"How often are these two words used together?|Type your response on a scale from 0-100 and then press Enter.",Study/JOL,"Study Phase",6893,,,1449,6014,,,,47,1
w10051625_bcd,a3n6u2x9fb,Nick_Dissertation_EX1,1,54,2020-04-28T11:44:34-07:00,11.61104798317,12,versionC_stim.csv,FREQVersionD.csv,"Frequency Version D","Dissertation, Frequency version D",THIMBLE,THREAD,Study2,F,121,131,FREQ,User,-,"How often are these two words used together?|Type your response on a scale from 0-100 and then press Enter.",Study/JOL,"Study Phase",7068,,,5782,6011,,,,87,1
w10051625_bcd,a3n6u2x9fb,Nick_Dissertation_EX1,1,55,2020-04-28T11:44:45-07:00,11.221241950989,12,versionC_stim.csv,FREQVersionD.csv,"Frequency Version D","Dissertation, Frequency version D",SARDINE,FISH,Study2,F,130,101,FREQ,User,-,"How often are these two words used together?|Type your response on a scale from 0-100 and then press Enter.",Study/JOL,"Study Phase",9550,,,8207,8405,,,,56,1
w10051625_bcd,a3n6u2x9fb,Nick_Dissertation_EX1,1,56,2020-04-28T11:44:51-07:00,5.9299640655518,12,versionC_stim.csv,FREQVersionD.csv,"Frequency Version D","Dissertation, Frequency version D",TRUTHFUL,HONEST,Study2,F,133,123,FREQ,User,-,"How often are these two words used together?|Type your response on a scale from 0-100 and then press Enter.",Study/JOL,"Study Phase",4388,,,3147,3337,,,,67,1
w10051625_bcd,a3n6u2x9fb,Nick_Dissertation_EX1,1,57,2020-04-28T11:44:57-07:00,6.2202849388123,12,versionC_stim.csv,FREQVersionD.csv,"Frequency Version D","Dissertation, Frequency version D",HEAD,SCALP,Study2,B,105,136,FREQ,User,-,"How often are these two words used together?|Type your response on a scale from 0-100 and then press Enter.",Study/JOL,"Study Phase",4663,,,2954,3799,,,,74,1
w10051625_bcd,a3n6u2x9fb,Nick_Dissertation_EX1,1,58,2020-04-28T11:45:06-07:00,9.1236798763275,12,versionC_stim.csv,FREQVersionD.csv,"Frequency Version D","Dissertation, Frequency version D",JOKE,KEYS,Study2,U,165,142,FREQ,User,-,"How often are these two words used together?|Type your response on a scale from 0-100 and then press Enter.",Study/JOL,"Study Phase",7227,,,3672,6322,,,,2,1
w10051625_bcd,a3n6u2x9fb,Nick_Dissertation_EX1,1,59,2020-04-28T11:45:09-07:00,3.3468840122223,12,versionC_stim.csv,FREQVersionD.csv,"Frequency Version D","Dissertation, Frequency version D",CHARM,VEHICLE,Study2,U,160,124,FREQ,User,-,"How often are these two words used together?|Type your response on a scale from 0-100 and then press Enter.",Study/JOL,"Study Phase",2994,,,2238,2238,,,,1,1
w10051625_bcd,a3n6u2x9fb,Nick_Dissertation_EX1,1,60,2020-04-28T11:45:13-07:00,3.458456993103,12,versionC_stim.csv,FREQVersionD.csv,"Frequency Version D","Dissertation, Frequency version D",OUNCE,BOTH,Study2,U,172,130,FREQ,User,-,"How often are these two words used together?|Type your response on a scale from 0-100 and then press Enter.",Study/JOL,"Study Phase",3097,,,2023,2024,,,,3,1
w10051625_bcd,a3n6u2x9fb,Nick_Dissertation_EX1,1,61,2020-04-28T11:45:20-07:00,7.243812084198,12,versionC_stim.csv,FREQVersionD.csv,"Frequency Version D","Dissertation, Frequency version D",PENGUIN,BIRD,Study2,F,119,174,FREQ,User,-,"How often are these two words used together?|Type your response on a scale from 0-100 and then press Enter.",Study/JOL,"Study Phase",6762,,,4867,5783,,,,56,1
w10051625_bcd,a3n6u2x9fb,Nick_Dissertation_EX1,1,62,2020-04-28T11:45:27-07:00,7.2738480567932,12,versionC_stim.csv,FREQVersionD.csv,"Frequency Version D","Dissertation, Frequency version D",PANTHER,CAT,Study2,F,126,161,FREQ,User,-,"How often are these two words used together?|Type your response on a scale from 0-100 and then press Enter.",Study/JOL,"Study Phase",4958,,,2898,3640,,,,64,1
w10051625_bcd,a3n6u2x9fb,Nick_Dissertation_EX1,1,63,2020-04-28T11:45:32-07:00,4.9181489944458,12,versionC_stim.csv,FREQVersionD.csv,"Frequency Version D","Dissertation, Frequency version D",NAP,SLEEP,Study2,F,134,145,FREQ,User,-,"How often are these two words used together?|Type your response on a scale from 0-100 and then press Enter.",Study/JOL,"Study Phase",3453,,,2464,2692,,,,78,1
w10051625_bcd,a3n6u2x9fb,Nick_Dissertation_EX1,1,64,2020-04-28T11:45:42-07:00,9.4774749279022,12,versionC_stim.csv,FREQVersionD.csv,"Frequency Version D","Dissertation, Frequency version D",NOISE,LOUD,Study2,S,152,134,FREQ,User,-,"How often are these two words used together?|Type your response on a scale from 0-100 and then press Enter.",Study/JOL,"Study Phase",6058,,,4263,5328,,,,83,1
w10051625_bcd,a3n6u2x9fb,Nick_Dissertation_EX1,1,65,2020-04-28T11:45:50-07:00,8.60724401474,12,versionC_stim.csv,FREQVersionD.csv,"Frequency Version D","Dissertation, Frequency version D",EAT,DINE,Study2,B,111,149,FREQ,User,-,"How often are these two words used together?|Type your response on a scale from 0-100 and then press Enter.",Study/JOL,"Study Phase",5416,,,3947,4335,,,,50,1
w10051625_bcd,a3n6u2x9fb,Nick_Dissertation_EX1,1,66,2020-04-28T11:46:00-07:00,9.513288974762,12,versionC_stim.csv,FREQVersionD.csv,"Frequency Version D","Dissertation, Frequency version D",BANG,FUZZY,Study2,U,168,111,FREQ,User,-,"How often are these two words used together?|Type your response on a scale from 0-100 and then press Enter.",Study/JOL,"Study Phase",5116,,,3329,3329,,,,2,1
w10051625_bcd,a3n6u2x9fb,Nick_Dissertation_EX1,1,67,2020-04-28T11:46:12-07:00,11.598365068436,12,versionC_stim.csv,FREQVersionD.csv,"Frequency Version D","Dissertation, Frequency version D",COFFIN,DEAD,Study2,F,128,118,FREQ,User,-,"How often are these two words used together?|Type your response on a scale from 0-100 and then press Enter.",Study/JOL,"Study Phase",6001,,,4739,4967,,,,40,1
w10051625_bcd,a3n6u2x9fb,Nick_Dissertation_EX1,1,68,2020-04-28T11:46:21-07:00,9.2952539920807,12,versionC_stim.csv,FREQVersionD.csv,"Frequency Version D","Dissertation, Frequency version D",WINDSHIELD,CAR,Study2,F,117,107,FREQ,User,-,"How often are these two words used together?|Type your response on a scale from 0-100 and then press Enter.",Study/JOL,"Study Phase",8772,,,6806,7062,,,,46,1
w10051625_bcd,a3n6u2x9fb,Nick_Dissertation_EX1,1,69,2020-04-28T11:46:29-07:00,7.9889080524445,12,versionC_stim.csv,FREQVersionD.csv,"Frequency Version D","Dissertation, Frequency version D",WAX,CANDLE,Study2,S,139,171,FREQ,User,-,"How often are these two words used together?|Type your response on a scale from 0-100 and then press Enter.",Study/JOL,"Study Phase",4389,,,2714,3565,,,,32,1
w10051625_bcd,a3n6u2x9fb,Nick_Dissertation_EX1,1,70,2020-04-28T11:46:43-07:00,14.103911876678,12,versionC_stim.csv,FREQVersionD.csv,"Frequency Version D","Dissertation, Frequency version D",AIRCRAFT,PLANE,Study2,F,129,115,FREQ,User,-,"How often are these two words used together?|Type your response on a scale from 0-100 and then press Enter.",Study/JOL,"Study Phase",12264,,,7826,8706,,,,63,1
w10051625_bcd,a3n6u2x9fb,Nick_Dissertation_EX1,1,71,2020-04-28T11:46:49-07:00,5.9992949962616,12,versionC_stim.csv,FREQVersionD.csv,"Frequency Version D","Dissertation, Frequency version D",TEMPER,TANTRUM,Study2,S,154,137,FREQ,User,-,"How often are these two words used together?|Type your response on a scale from 0-100 and then press Enter.",Study/JOL,"Study Phase",5376,,,3612,4627,,,,92,1
w10051625_bcd,a3n6u2x9fb,Nick_Dissertation_EX1,1,72,2020-04-28T11:46:53-07:00,4.507031917572,12,versionC_stim.csv,FREQVersionD.csv,"Frequency Version D","Dissertation, Frequency version D",ACTRESS,STAR,Study2,F,120,127,FREQ,User,-,"How often are these two words used together?|Type your response on a scale from 0-100 and then press Enter.",Study/JOL,"Study Phase",4106,,,2976,3140,,,,87,1
w10051625_bcd,a3n6u2x9fb,Nick_Dissertation_EX1,1,73,2020-04-28T11:46:59-07:00,5.7604501247406,12,versionC_stim.csv,FREQVersionD.csv,"Frequency Version D","Dissertation, Frequency version D",SEATBELT,SAFETY,Study2,S,147,144,FREQ,User,-,"How often are these two words used together?|Type your response on a scale from 0-100 and then press Enter.",Study/JOL,"Study Phase",5366,,,3347,4465,,,,91,1
w10051625_bcd,a3n6u2x9fb,Nick_Dissertation_EX1,1,74,2020-04-28T11:47:10-07:00,10.499528884888,12,versionC_stim.csv,FREQVersionD.csv,"Frequency Version D","Dissertation, Frequency version D",ELECTION,MAZE,Study2,U,159,99,FREQ,User,-,"How often are these two words used together?|Type your response on a scale from 0-100 and then press Enter.",Study/JOL,"Study Phase",9397,,,4782,8523,,,,11,1
w10051625_bcd,a3n6u2x9fb,Nick_Dissertation_EX1,1,75,2020-04-28T11:47:20-07:00,10.006208181381,12,versionC_stim.csv,FREQVersionD.csv,"Frequency Version D","Dissertation, Frequency version D",DRINK,WATER,Study2,S,143,162,FREQ,User,-,"How often are these two words used together?|Type your response on a scale from 0-100 and then press Enter.",Study/JOL,"Study Phase",9628,,,2875,8414,,,,100,1
w10051625_bcd,a3n6u2x9fb,Nick_Dissertation_EX1,1,76,2020-04-28T11:47:28-07:00,8.4444289207458,12,versionC_stim.csv,FREQVersionD.csv,"Frequency Version D","Dissertation, Frequency version D",COMMUNICATION,PHONE,Study2,S,149,166,FREQ,User,-,"How often are these two words used together?|Type your response on a scale from 0-100 and then press Enter.",Study/JOL,"Study Phase",7008,,,5768,6100,,,,61,1
w10051625_bcd,a3n6u2x9fb,Nick_Dissertation_EX1,1,77,2020-04-28T11:47:38-07:00,9.8982810974121,12,versionC_stim.csv,FREQVersionD.csv,"Frequency Version D","Dissertation, Frequency version D",CUT,CHOP,Study2,B,107,140,FREQ,User,-,"How often are these two words used together?|Type your response on a scale from 0-100 and then press Enter.",Study/JOL,"Study Phase",7281,,,5699,6354,,,,52,1
w10051625_bcd,a3n6u2x9fb,Nick_Dissertation_EX1,1,78,2020-04-28T11:47:48-07:00,10.488901853561,12,versionC_stim.csv,FREQVersionD.csv,"Frequency Version D","Dissertation, Frequency version D",CHILDREN,MIRROR,Study2,U,174,120,FREQ,User,-,"How often are these two words used together?|Type your response on a scale from 0-100 and then press Enter.",Study/JOL,"Study Phase",8439,,,4838,7653,,,,18,1
w10051625_bcd,a3n6u2x9fb,Nick_Dissertation_EX1,1,79,2020-04-28T11:47:53-07:00,4.1462769508362,12,versionC_stim.csv,FREQVersionD.csv,"Frequency Version D","Dissertation, Frequency version D",SCISSORS,SHEARS,Study2,B,112,103,FREQ,User,-,"How often are these two words used together?|Type your response on a scale from 0-100 and then press Enter.",Study/JOL,"Study Phase",3701,,,2831,2831,,,,8,1
w10051625_bcd,a3n6u2x9fb,Nick_Dissertation_EX1,1,80,2020-04-28T11:47:59-07:00,5.9783070087433,12,versionC_stim.csv,FREQVersionD.csv,"Frequency Version D","Dissertation, Frequency version D",SIGN,LOAN,Study2,U,171,157,FREQ,User,-,"How often are these two words used together?|Type your response on a scale from 0-100 and then press Enter.",Study/JOL,"Study Phase",5570,,,3550,4537,,,,73,1
w10051625_bcd,a3n6u2x9fb,Nick_Dissertation_EX1,1,81,2020-04-28T11:48:06-07:00,7.8381371498108,12,versionC_stim.csv,FREQVersionD.csv,"Frequency Version D","Dissertation, Frequency version D",SMELL,INCENSE,Study2,B,110,173,FREQ,User,-,"How often are these two words used together?|Type your response on a scale from 0-100 and then press Enter.",Study/JOL,"Study Phase",7016,,,5220,6116,,,,90,1
w10051625_bcd,a3n6u2x9fb,Nick_Dissertation_EX1,1,82,2020-04-28T11:48:16-07:00,9.7704908847809,12,versionC_stim.csv,FREQVersionD.csv,"Frequency Version D","Dissertation, Frequency version D",BANKER,MONEY,Study2,F,132,125,FREQ,User,-,"How often are these two words used together?|Type your response on a scale from 0-100 and then press Enter.",Study/JOL,"Study Phase",9384,,,4321,8376,,,,88,1
w10051625_bcd,a3n6u2x9fb,Nick_Dissertation_EX1,1,83,2020-04-28T11:48:25-07:00,8.8991589546204,12,versionC_stim.csv,FREQVersionD.csv,"Frequency Version D","Dissertation, Frequency version D",GROUND,EARTH,Study2,S,144,164,FREQ,User,-,"How often are these two words used together?|Type your response on a scale from 0-100 and then press Enter.",Study/JOL,"Study Phase",8493,,,6891,7469,,,,64,1
w10051625_bcd,a3n6u2x9fb,Nick_Dissertation_EX1,1,84,2020-04-28T11:48:37-07:00,12.08122420311,12,versionC_stim.csv,FREQVersionD.csv,"Frequency Version D","Dissertation, Frequency version D",GAME,CLUE,Study2,B,97,98,FREQ,User,-,"How often are these two words used together?|Type your response on a scale from 0-100 and then press Enter.",Study/JOL,"Study Phase",11669,,,10480,10753,,,,79,1
w10051625_bcd,a3n6u2x9fb,Nick_Dissertation_EX1,1,85,2020-04-28T11:48:49-07:00,11.537746906281,12,versionC_stim.csv,FREQVersionD.csv,"Frequency Version D","Dissertation, Frequency version D",STEAK,GIVE,Study2,U,158,168,FREQ,User,-,"How often are these two words used together?|Type your response on a scale from 0-100 and then press Enter.",Study/JOL,"Study Phase",7886,,,6099,6692,,,,26,1
w10051625_bcd,a3n6u2x9fb,Nick_Dissertation_EX1,1,86,2020-04-28T11:48:57-07:00,8.2872478961945,12,versionC_stim.csv,FREQVersionD.csv,"Frequency Version D","Dissertation, Frequency version D",REEL,ROD,Study2,S,150,109,FREQ,User,-,"How often are these two words used together?|Type your response on a scale from 0-100 and then press Enter.",Study/JOL,"Study Phase",6516,,,4301,5625,,,,97,1
w10051625_bcd,a3n6u2x9fb,Nick_Dissertation_EX1,1,87,2020-04-28T11:49:11-07:00,13.956963062286,12,versionC_stim.csv,FREQVersionD.csv,"Frequency Version D","Dissertation, Frequency version D",FIGHT,FEUD,Study2,B,113,97,FREQ,User,-,"How often are these two words used together?|Type your response on a scale from 0-100 and then press Enter.",Study/JOL,"Study Phase",5411,,,3558,4226,,,,60,1
w10051625_bcd,a3n6u2x9fb,Nick_Dissertation_EX1,1,88,2020-04-28T11:49:26-07:00,15.086385011673,12,versionC_stim.csv,FREQVersionD.csv,"Frequency Version D","Dissertation, Frequency version D",OBTAIN,MEAT,Study2,U,161,110,FREQ,User,-,"How often are these two words used together?|Type your response on a scale from 0-100 and then press Enter.",Study/JOL,"Study Phase",12834,,,6213,11660,,,,4,1
w10051625_bcd,a3n6u2x9fb,Nick_Dissertation_EX1,1,89,2020-04-28T11:49:35-07:00,8.6494309902191,12,versionC_stim.csv,FREQVersionD.csv,"Frequency Version D","Dissertation, Frequency version D",CARBON,ELEMENT,Study2,S,141,150,FREQ,User,-,"How often are these two words used together?|Type your response on a scale from 0-100 and then press Enter.",Study/JOL,"Study Phase",6971,,,5629,5858,,,,89,1
w10051625_bcd,a3n6u2x9fb,Nick_Dissertation_EX1,1,90,2020-04-28T11:49:42-07:00,6.9351091384888,12,versionC_stim.csv,FREQVersionD.csv,"Frequency Version D","Dissertation, Frequency version D",SHAKE,Shell,Study2,U,163,159,FREQ,User,-,"How often are these two words used together?|Type your response on a scale from 0-100 and then press Enter.",Study/JOL,"Study Phase",4210,,,3120,3120,,,,0,1
w10051625_bcd,a3n6u2x9fb,Nick_Dissertation_EX1,1,91,2020-04-28T11:49:47-07:00,5.1852118968964,12,versionC_stim.csv,FREQVersionD.csv,"Frequency Version D","Dissertation, Frequency version D",SPOOKY,OCTOBER,BUFFER4,Buffer,180,178,FREQ,User,-,"How often are these two words used together?|Type your response on a scale from 0-100 and then press Enter.",Study/JOL,BUFFER2,4547,,,2639,3552,,,,78,1
w10051625_bcd,a3n6u2x9fb,Nick_Dissertation_EX1,1,92,2020-04-28T11:49:53-07:00,5.8964819908142,12,versionC_stim.csv,FREQVersionD.csv,"Frequency Version D","Dissertation, Frequency version D",YEAR,MONTH,BUFFER4,Buffer,177,177,FREQ,User,-,"How often are these two words used together?|Type your response on a scale from 0-100 and then press Enter.",Study/JOL,BUFFER2,3506,,,2286,2619,,,,90,1
w10051625_bcd,a3n6u2x9fb,Nick_Dissertation_EX1,1,93,2020-04-28T11:50:08-07:00,14.842170953751,12,versionC_stim.csv,FREQVersionD.csv,"Frequency Version D","Dissertation, Frequency version D",MARCH,SPRING,BUFFER4,Buffer,179,180,FREQ,User,-,"How often are these two words used together?|Type your response on a scale from 0-100 and then press Enter.",Study/JOL,BUFFER2,10320,,,8318,8536,,,,77,1
w10051625_bcd,a3n6u2x9fb,Nick_Dissertation_EX1,1,94,2020-04-28T11:50:15-07:00,7.2914569377899,12,versionC_stim.csv,FREQVersionD.csv,"Frequency Version D","Dissertation, Frequency version D",SHED,TOOL,BUFFER4,Buffer,178,179,FREQ,User,-,"How often are these two words used together?|Type your response on a scale from 0-100 and then press Enter.",Study/JOL,BUFFER2,5339,,,3791,4422,,,,52,1
w10051625_bcd,a3n6u2x9fb,Nick_Dissertation_EX1,1,95,2020-04-28T11:50:25-07:00,10.27551317215,12,versionC_stim.csv,FREQVersionD.csv,"Frequency Version D","Dissertation, Frequency version D",WEAKS,DAYS,BUFFER4,Buffer,176,181,FREQ,User,-,"How often are these two words used together?|Type your response on a scale from 0-100 and then press Enter.",Study/JOL,BUFFER2,9158,,,7108,7108,,,,4,1
w10051625_bcd,a3n6u2x9fb,Nick_Dissertation_EX1,1,96,2020-04-28T11:50:27-07:00,2.3061819076538,12,versionC_stim.csv,FREQVersionD.csv,"Frequency Version D","Dissertation, Frequency version D",,,,,,0,Instruct,User,-,"You have completed this section. Please press Enter.",Filler_Instruction,Instruct2,1926,,,-1,-1,,,,,1
w10051625_bcd,a3n6u2x9fb,Nick_Dissertation_EX1,1,97,2020-04-28T11:52:28-07:00,120.43644309044,12,versionC_stim.csv,FREQVersionD.csv,"Frequency Version D","Dissertation, Frequency version D",,,,,,0,FreeRecall,120,120,"Please list the 50 US states in alphabetical order. The task will automatically advance to the next screen after two minutes.",,Filler1,120002,"Atlanta, Georgia,. Iowa, kentucky , Mississippi, New York, Oregon, Pennsylvania, Tennessee, virginia, ",0,11296,115594,0,0,,,1
w10051625_bcd,a3n6u2x9fb,Nick_Dissertation_EX1,1,98,2020-04-28T11:52:41-07:00,13.390230894089,12,versionC_stim.csv,FREQVersionD.csv,"Frequency Version D","Dissertation, Frequency version D",,,,,,0,Instruct,-,10,"You will now be presented with the first word from each of the previously studied item pairs. Please type the missing word. If you do not know the word, you may guess or press Enter to skip forward to the next pair.",,Instruct3,12804,,,-1,-1,,,,,1
w10051625_bcd,a3n6u2x9fb,Nick_Dissertation_EX1,1,99,2020-04-28T11:52:45-07:00,3.9089901447296,12,versionC_stim.csv,FREQVersionD.csv,"Frequency Version D","Dissertation, Frequency version D",STRAWBERRY,FRUIT,Study2,F,124,112,Test,User,-,,Recall,Recall1,3233,fruit,100,1881,2482,1,1,,,1
w10051625_bcd,a3n6u2x9fb,Nick_Dissertation_EX1,1,100,2020-04-28T11:52:49-07:00,3.4796957969666,12,versionC_stim.csv,FREQVersionD.csv,"Frequency Version D","Dissertation, Frequency version D",FLIP,TURN,Study2,F,116,108,Test,User,-,,Recall,Recall1,2930,turn,100,1591,2068,1,1,,,1
w10051625_bcd,a3n6u2x9fb,Nick_Dissertation_EX1,1,101,2020-04-28T11:52:55-07:00,6.6490480899811,12,versionC_stim.csv,FREQVersionD.csv,"Frequency Version D","Dissertation, Frequency version D",MYSTERY,DETECTIVE,Study2,B,100,117,Test,User,-,,Recall,Recall1,6264,crime,42.857142857143,4689,5486,0,0,,,1
w10051625_bcd,a3n6u2x9fb,Nick_Dissertation_EX1,1,102,2020-04-28T11:53:00-07:00,4.5728640556335,12,versionC_stim.csv,FREQVersionD.csv,"Frequency Version D","Dissertation, Frequency version D",BANKER,MONEY,Study2,F,132,125,Test,User,-,,Recall,Recall1,3171,money,100,1240,2405,1,1,,,1
w10051625_bcd,a3n6u2x9fb,Nick_Dissertation_EX1,1,103,2020-04-28T11:53:07-07:00,7.3418629169464,12,versionC_stim.csv,FREQVersionD.csv,"Frequency Version D","Dissertation, Frequency version D",BANG,FUZZY,Study2,U,168,111,Test,User,-,,Recall,Recall1,5140,,0,3705,3705,0,0,,,1
w10051625_bcd,a3n6u2x9fb,Nick_Dissertation_EX1,1,104,2020-04-28T11:53:11-07:00,3.9711999893188,12,versionC_stim.csv,FREQVersionD.csv,"Frequency Version D","Dissertation, Frequency version D",BALLOON,POP,Study2,F,123,170,Test,User,-,,Recall,Recall1,2921,pop,100,1874,2199,1,1,,,1
w10051625_bcd,a3n6u2x9fb,Nick_Dissertation_EX1,1,105,2020-04-28T11:53:18-07:00,6.4936671257019,12,versionC_stim.csv,FREQVersionD.csv,"Frequency Version D","Dissertation, Frequency version D",ELECTION,MAZE,Study2,U,159,99,Test,User,-,,Recall,Recall1,4994,pesident,16.666666666667,1602,4147,0,0,,,1
w10051625_bcd,a3n6u2x9fb,Nick_Dissertation_EX1,1,106,2020-04-28T11:53:28-07:00,10.759949922562,12,versionC_stim.csv,FREQVersionD.csv,"Frequency Version D","Dissertation, Frequency version D",EQUAL,RIGHTS,Study2,S,137,176,Test,User,-,,Recall,Recall1,3438,rights,100,1668,2713,1,1,,,1
w10051625_bcd,a3n6u2x9fb,Nick_Dissertation_EX1,1,107,2020-04-28T11:53:33-07:00,4.6874389648438,12,versionC_stim.csv,FREQVersionD.csv,"Frequency Version D","Dissertation, Frequency version D",REVENGE,EVEN,Study2,F,122,114,Test,User,-,,Recall,Recall1,3202,even,100,1850,2347,1,1,,,1
w10051625_bcd,a3n6u2x9fb,Nick_Dissertation_EX1,1,108,2020-04-28T11:53:38-07:00,5.1619861125946,12,versionC_stim.csv,FREQVersionD.csv,"Frequency Version D","Dissertation, Frequency version D",GROUND,EARTH,Study2,S,144,164,Test,User,-,,Recall,Recall1,4710,earth,100,3218,3807,1,1,,,1
w10051625_bcd,a3n6u2x9fb,Nick_Dissertation_EX1,1,109,2020-04-28T11:53:44-07:00,6.0593450069427,12,versionC_stim.csv,FREQVersionD.csv,"Frequency Version D","Dissertation, Frequency version D",SEATBELT,SAFETY,Study2,S,147,144,Test,User,-,,Recall,Recall1,5485,safety,100,3805,4629,1,1,,,1
w10051625_bcd,a3n6u2x9fb,Nick_Dissertation_EX1,1,110,2020-04-28T11:53:47-07:00,3.0512318611145,12,versionC_stim.csv,FREQVersionD.csv,"Frequency Version D","Dissertation, Frequency version D",LONELY,ALONE,Study2,S,145,169,Test,User,-,,Recall,Recall1,2606,alone,100,1390,2021,1,1,,,1
w10051625_bcd,a3n6u2x9fb,Nick_Dissertation_EX1,1,111,2020-04-28T11:53:52-07:00,4.4680399894714,12,versionC_stim.csv,FREQVersionD.csv,"Frequency Version D","Dissertation, Frequency version D",DRINK,WATER,Study2,S,143,162,Test,User,-,,Recall,Recall1,4074,water,100,1478,3257,1,1,,,1
w10051625_bcd,a3n6u2x9fb,Nick_Dissertation_EX1,1,112,2020-04-28T11:54:01-07:00,9.5917811393738,12,versionC_stim.csv,FREQVersionD.csv,"Frequency Version D","Dissertation, Frequency version D",SHAKE,Shell,Study2,U,163,159,Test,User,-,,Recall,Recall1,9098,,0,2393,2393,0,0,,,1
w10051625_bcd,a3n6u2x9fb,Nick_Dissertation_EX1,1,113,2020-04-28T11:54:07-07:00,5.6579790115356,12,versionC_stim.csv,FREQVersionD.csv,"Frequency Version D","Dissertation, Frequency version D",PAPER,DOCUMENT,Study2,B,109,148,Test,User,-,,Recall,Recall1,5310,document,100,2591,4269,1,1,,,1
w10051625_bcd,a3n6u2x9fb,Nick_Dissertation_EX1,1,114,2020-04-28T11:54:12-07:00,4.360424041748,12,versionC_stim.csv,FREQVersionD.csv,"Frequency Version D","Dissertation, Frequency version D",LEAGUE,BASEBALL,Study2,F,131,138,Test,User,-,,Recall,Recall1,3983,baseball,100,1764,3278,1,1,,,1
w10051625_bcd,a3n6u2x9fb,Nick_Dissertation_EX1,1,115,2020-04-28T11:54:16-07:00,4.3549718856812,12,versionC_stim.csv,FREQVersionD.csv,"Frequency Version D","Dissertation, Frequency version D",HAVE,OWN,Study2,S,153,132,Test,User,-,,Recall,Recall1,3894,own,100,2819,3092,1,1,,,1
w10051625_bcd,a3n6u2x9fb,Nick_Dissertation_EX1,1,116,2020-04-28T11:54:19-07:00,2.7127659320831,12,versionC_stim.csv,FREQVersionD.csv,"Frequency Version D","Dissertation, Frequency version D",VILLAIN,BAD,Study2,F,118,158,Test,User,-,,Recall,Recall1,2355,bad,100,1356,1692,1,1,,,1
w10051625_bcd,a3n6u2x9fb,Nick_Dissertation_EX1,1,117,2020-04-28T11:54:25-07:00,6.6984219551086,12,versionC_stim.csv,FREQVersionD.csv,"Frequency Version D","Dissertation, Frequency version D",Morning,TEMPERATURE,Study2,U,173,135,Test,User,-,,Recall,Recall1,5564,temperature,100,1821,3672,1,1,,,1
w10051625_bcd,a3n6u2x9fb,Nick_Dissertation_EX1,1,118,2020-04-28T11:54:33-07:00,7.7480561733246,12,versionC_stim.csv,FREQVersionD.csv,"Frequency Version D","Dissertation, Frequency version D",WET,DRY,Study2,S,146,151,Test,User,-,,Recall,Recall1,3191,dry,100,2097,2416,1,1,,,1
w10051625_bcd,a3n6u2x9fb,Nick_Dissertation_EX1,1,119,2020-04-28T11:54:42-07:00,8.811705827713,12,versionC_stim.csv,FREQVersionD.csv,"Frequency Version D","Dissertation, Frequency version D",STEAK,GIVE,Study2,U,158,168,Test,User,-,,Recall,Recall1,5793,shake,22.222222222222,2766,3389,0,0,,,1
w10051625_bcd,a3n6u2x9fb,Nick_Dissertation_EX1,1,120,2020-04-28T11:54:49-07:00,7.3742291927338,12,versionC_stim.csv,FREQVersionD.csv,"Frequency Version D","Dissertation, Frequency version D",THIMBLE,THREAD,Study2,F,121,131,Test,User,-,,Recall,Recall1,6208,thread,100,2731,5321,1,1,,,1
w10051625_bcd,a3n6u2x9fb,Nick_Dissertation_EX1,1,121,2020-04-28T11:54:54-07:00,5.2378458976746,12,versionC_stim.csv,FREQVersionD.csv,"Frequency Version D","Dissertation, Frequency version D",CAR,DRIVER,Study2,B,106,106,Test,User,-,,Recall,Recall1,2638,,0,-1,-1,0,0,,,1
w10051625_bcd,a3n6u2x9fb,Nick_Dissertation_EX1,1,122,2020-04-28T11:55:01-07:00,6.9905190467834,12,versionC_stim.csv,FREQVersionD.csv,"Frequency Version D","Dissertation, Frequency version D",SARDINE,FISH,Study2,F,130,101,Test,User,-,,Recall,Recall1,6416,fish,100,3381,4366,1,1,,,1
w10051625_bcd,a3n6u2x9fb,Nick_Dissertation_EX1,1,123,2020-04-28T11:55:06-07:00,4.2002739906311,12,versionC_stim.csv,FREQVersionD.csv,"Frequency Version D","Dissertation, Frequency version D",RED,CHERRY,Study2,B,104,126,Test,User,-,,Recall,Recall1,3698,cherry,100,1684,2453,1,1,,,1
w10051625_bcd,a3n6u2x9fb,Nick_Dissertation_EX1,1,124,2020-04-28T11:55:12-07:00,6.0305290222168,12,versionC_stim.csv,FREQVersionD.csv,"Frequency Version D","Dissertation, Frequency version D",PENGUIN,BIRD,Study2,F,119,174,Test,User,-,,Recall,Recall1,3088,bird,100,1839,2444,1,1,,,1
w10051625_bcd,a3n6u2x9fb,Nick_Dissertation_EX1,1,125,2020-04-28T11:55:19-07:00,7.5299808979034,12,versionC_stim.csv,FREQVersionD.csv,"Frequency Version D","Dissertation, Frequency version D",SHAVE,RAZOR,Study2,S,136,163,Test,User,-,,Recall,Recall1,3713,razor,100,1908,3085,1,1,,,1
w10051625_bcd,a3n6u2x9fb,Nick_Dissertation_EX1,1,126,2020-04-28T11:55:25-07:00,6.1769831180573,12,versionC_stim.csv,FREQVersionD.csv,"Frequency Version D","Dissertation, Frequency version D",SCAR,MAIN,Study2,U,175,133,Test,User,-,,Recall,Recall1,5686,,0,-1,-1,0,0,,,1
w10051625_bcd,a3n6u2x9fb,Nick_Dissertation_EX1,1,127,2020-04-28T11:55:28-07:00,2.9783868789673,12,versionC_stim.csv,FREQVersionD.csv,"Frequency Version D","Dissertation, Frequency version D",MAROON,JUSTICE,Study2,U,156,100,Test,User,-,,Recall,Recall1,2587,,0,-1,-1,0,0,,,1
w10051625_bcd,a3n6u2x9fb,Nick_Dissertation_EX1,1,128,2020-04-28T11:55:49-07:00,20.506494998932,12,versionC_stim.csv,FREQVersionD.csv,"Frequency Version D","Dissertation, Frequency version D",SCISSORS,SHEARS,Study2,B,112,103,Test,User,-,,Recall,Recall1,19975,,0,1962,11963,0,0,,,1
w10051625_bcd,a3n6u2x9fb,Nick_Dissertation_EX1,1,129,2020-04-28T11:55:55-07:00,5.7522239685059,12,versionC_stim.csv,FREQVersionD.csv,"Frequency Version D","Dissertation, Frequency version D",SMELL,INCENSE,Study2,B,110,173,Test,User,-,,Recall,Recall1,4296,,0,-1,-1,0,0,,,1
w10051625_bcd,a3n6u2x9fb,Nick_Dissertation_EX1,1,130,2020-04-28T11:55:58-07:00,3.4103741645813,12,versionC_stim.csv,FREQVersionD.csv,"Frequency Version D","Dissertation, Frequency version D",ACTRESS,STAR,Study2,F,120,127,Test,User,-,,Recall,Recall1,2807,star,100,1369,1901,1,1,,,1
w10051625_bcd,a3n6u2x9fb,Nick_Dissertation_EX1,1,131,2020-04-28T11:56:04-07:00,6.2028698921204,12,versionC_stim.csv,FREQVersionD.csv,"Frequency Version D","Dissertation, Frequency version D",TRUTHFUL,HONEST,Study2,F,133,123,Test,User,-,,Recall,Recall1,2845,lie,22.222222222222,1797,2160,0,0,,,1
w10051625_bcd,a3n6u2x9fb,Nick_Dissertation_EX1,1,132,2020-04-28T11:56:08-07:00,4.1406350135803,12,versionC_stim.csv,FREQVersionD.csv,"Frequency Version D","Dissertation, Frequency version D",CHARM,VEHICLE,Study2,U,160,124,Test,User,-,,Recall,Recall1,1600,,0,-1,-1,0,0,,,1
w10051625_bcd,a3n6u2x9fb,Nick_Dissertation_EX1,1,133,2020-04-28T11:56:13-07:00,4.8035409450531,12,versionC_stim.csv,FREQVersionD.csv,"Frequency Version D","Dissertation, Frequency version D",REEL,ROD,Study2,S,150,109,Test,User,-,,Recall,Recall1,4290,rod,100,1636,2458,1,1,,,1
w10051625_bcd,a3n6u2x9fb,Nick_Dissertation_EX1,1,134,2020-04-28T11:56:24-07:00,11.182901144028,12,versionC_stim.csv,FREQVersionD.csv,"Frequency Version D","Dissertation, Frequency version D",CLOTHES,CAKE,Study2,U,166,175,Test,User,-,,Recall,Recall1,10754,cloth,22.222222222222,8888,9527,0,0,,,1
w10051625_bcd,a3n6u2x9fb,Nick_Dissertation_EX1,1,135,2020-04-28T11:56:28-07:00,3.2337369918823,12,versionC_stim.csv,FREQVersionD.csv,"Frequency Version D","Dissertation, Frequency version D",TAN,SUN,Study2,S,155,154,Test,User,-,,Recall,Recall1,2629,sun,100,1486,1822,1,1,,,1
w10051625_bcd,a3n6u2x9fb,Nick_Dissertation_EX1,1,136,2020-04-28T11:56:34-07:00,6.6452288627625,12,versionC_stim.csv,FREQVersionD.csv,"Frequency Version D","Dissertation, Frequency version D",NAP,SLEEP,Study2,F,134,145,Test,User,-,,Recall,Recall1,3174,sleep,100,1615,2442,1,1,,,1
w10051625_bcd,a3n6u2x9fb,Nick_Dissertation_EX1,1,137,2020-04-28T11:56:37-07:00,3.26935505867,12,versionC_stim.csv,FREQVersionD.csv,"Frequency Version D","Dissertation, Frequency version D",FAVORITE,BEST,Study2,F,125,129,Test,User,-,,Recall,Recall1,2821,best,100,1487,1962,1,1,,,1
w10051625_bcd,a3n6u2x9fb,Nick_Dissertation_EX1,1,138,2020-04-28T11:56:41-07:00,3.2774529457092,12,versionC_stim.csv,FREQVersionD.csv,"Frequency Version D","Dissertation, Frequency version D",OUNCE,BOTH,Study2,U,172,130,Test,User,-,,Recall,Recall1,2937,,0,-1,-1,0,0,,,1
w10051625_bcd,a3n6u2x9fb,Nick_Dissertation_EX1,1,139,2020-04-28T11:56:46-07:00,4.9953300952911,12,versionC_stim.csv,FREQVersionD.csv,"Frequency Version D","Dissertation, Frequency version D",TRASH,LITTER,Study2,B,103,141,Test,User,-,,Recall,Recall1,3901,,0,-1,-1,0,0,,,1
w10051625_bcd,a3n6u2x9fb,Nick_Dissertation_EX1,1,140,2020-04-28T11:56:50-07:00,4.5090658664703,12,versionC_stim.csv,FREQVersionD.csv,"Frequency Version D","Dissertation, Frequency version D",AWAY,GONE,Study2,S,142,102,Test,User,-,,Recall,Recall1,4018,gone,100,1732,2202,1,1,,,1
w10051625_bcd,a3n6u2x9fb,Nick_Dissertation_EX1,1,141,2020-04-28T11:56:54-07:00,3.4202561378479,12,versionC_stim.csv,FREQVersionD.csv,"Frequency Version D","Dissertation, Frequency version D",CHILDREN,MIRROR,Study2,U,174,120,Test,User,-,,Recall,Recall1,3045,,0,-1,-1,0,0,,,1
w10051625_bcd,a3n6u2x9fb,Nick_Dissertation_EX1,1,142,2020-04-28T11:56:57-07:00,3.0063738822937,12,versionC_stim.csv,FREQVersionD.csv,"Frequency Version D","Dissertation, Frequency version D",BRAWL,FIGHT,Study2,F,135,116,Test,User,-,,Recall,Recall1,2557,fight,100,1413,1923,1,1,,,1
w10051625_bcd,a3n6u2x9fb,Nick_Dissertation_EX1,1,143,2020-04-28T11:57:03-07:00,5.8367111682892,12,versionC_stim.csv,FREQVersionD.csv,"Frequency Version D","Dissertation, Frequency version D",TIE,SHOELACE,Study2,B,99,104,Test,User,-,,Recall,Recall1,4405,shoelace,100,1613,3490,1,1,,,1
w10051625_bcd,a3n6u2x9fb,Nick_Dissertation_EX1,1,144,2020-04-28T11:57:08-07:00,5.211306810379,12,versionC_stim.csv,FREQVersionD.csv,"Frequency Version D","Dissertation, Frequency version D",CUT,CHOP,Study2,B,107,140,Test,User,-,,Recall,Recall1,4019,,0,-1,-1,0,0,,,1
w10051625_bcd,a3n6u2x9fb,Nick_Dissertation_EX1,1,145,2020-04-28T11:57:13-07:00,4.9083452224731,12,versionC_stim.csv,FREQVersionD.csv,"Frequency Version D","Dissertation, Frequency version D",OBTAIN,MEAT,Study2,U,161,110,Test,User,-,,Recall,Recall1,3688,,0,2073,2073,0,0,,,1
w10051625_bcd,a3n6u2x9fb,Nick_Dissertation_EX1,1,146,2020-04-28T11:57:19-07:00,6.8093199729919,12,versionC_stim.csv,FREQVersionD.csv,"Frequency Version D","Dissertation, Frequency version D",CLOTH,STRETCH,Study2,U,157,165,Test,User,-,,Recall,Recall1,6350,clothes,28.571428571429,2585,5456,0,0,,,1
w10051625_bcd,a3n6u2x9fb,Nick_Dissertation_EX1,1,147,2020-04-28T11:57:23-07:00,3.7508318424225,12,versionC_stim.csv,FREQVersionD.csv,"Frequency Version D","Dissertation, Frequency version D",EAT,DINE,Study2,B,111,149,Test,User,-,,Recall,Recall1,3301,,0,-1,-1,0,0,,,1
w10051625_bcd,a3n6u2x9fb,Nick_Dissertation_EX1,1,148,2020-04-28T11:57:48-07:00,24.325220108032,12,versionC_stim.csv,FREQVersionD.csv,"Frequency Version D","Dissertation, Frequency version D",END,ADJOURN,Study2,B,101,155,Test,User,-,,Recall,Recall1,23909,"adjourn ",100,6658,11098,1,1,,,1
w10051625_bcd,a3n6u2x9fb,Nick_Dissertation_EX1,1,149,2020-04-28T11:57:51-07:00,3.0759699344635,12,versionC_stim.csv,FREQVersionD.csv,"Frequency Version D","Dissertation, Frequency version D",LOVE,AFFECTION,Study2,B,115,147,Test,User,-,,Recall,Recall1,2711,,0,-1,-1,0,0,,,1
w10051625_bcd,a3n6u2x9fb,Nick_Dissertation_EX1,1,150,2020-04-28T11:57:58-07:00,6.9562170505524,12,versionC_stim.csv,FREQVersionD.csv,"Frequency Version D","Dissertation, Frequency version D",LIE,TRUTH,Study2,S,148,139,Test,User,-,,Recall,Recall1,5967,truthful,76.923076923077,3049,5081,0,1,,,1
w10051625_bcd,a3n6u2x9fb,Nick_Dissertation_EX1,1,151,2020-04-28T11:58:03-07:00,5.1683740615845,12,versionC_stim.csv,FREQVersionD.csv,"Frequency Version D","Dissertation, Frequency version D",LONG,EXTENSION,Study2,B,96,153,Test,User,-,,Recall,Recall1,3266,,0,-1,-1,0,0,,,1
w10051625_bcd,a3n6u2x9fb,Nick_Dissertation_EX1,1,152,2020-04-28T11:58:11-07:00,8.2221069335938,12,versionC_stim.csv,FREQVersionD.csv,"Frequency Version D","Dissertation, Frequency version D",FIGHT,FEUD,Study2,B,113,97,Test,User,-,,Recall,Recall1,5210,brawl,0,3466,4394,0,0,,,1
w10051625_bcd,a3n6u2x9fb,Nick_Dissertation_EX1,1,153,2020-04-28T11:58:14-07:00,3.04172706604,12,versionC_stim.csv,FREQVersionD.csv,"Frequency Version D","Dissertation, Frequency version D",PANTHER,CAT,Study2,F,126,161,Test,User,-,,Recall,Recall1,2478,cat,100,1490,1832,1,1,,,1
w10051625_bcd,a3n6u2x9fb,Nick_Dissertation_EX1,1,154,2020-04-28T11:58:18-07:00,4.1922519207001,12,versionC_stim.csv,FREQVersionD.csv,"Frequency Version D","Dissertation, Frequency version D",CLEAR,MOAT,Study2,U,169,119,Test,User,-,,Recall,Recall1,3541,,0,-1,-1,0,0,,,1
w10051625_bcd,a3n6u2x9fb,Nick_Dissertation_EX1,1,155,2020-04-28T11:58:22-07:00,3.6148920059204,12,versionC_stim.csv,FREQVersionD.csv,"Frequency Version D","Dissertation, Frequency version D",TICK,FLEA,Study2,S,151,113,Test,User,-,,Recall,Recall1,3145,flea,100,1720,2293,1,1,,,1
w10051625_bcd,a3n6u2x9fb,Nick_Dissertation_EX1,1,156,2020-04-28T11:58:27-07:00,4.7009060382843,12,versionC_stim.csv,FREQVersionD.csv,"Frequency Version D","Dissertation, Frequency version D",COMMUNICATION,PHONE,Study2,S,149,166,Test,User,-,,Recall,Recall1,4136,phone,100,2517,3322,1,1,,,1
w10051625_bcd,a3n6u2x9fb,Nick_Dissertation_EX1,1,157,2020-04-28T11:58:31-07:00,4.5228970050812,12,versionC_stim.csv,FREQVersionD.csv,"Frequency Version D","Dissertation, Frequency version D",PLANT,CACTUS,Study2,B,98,121,Test,User,-,,Recall,Recall1,4067,cactus,100,1900,3314,1,1,,,1
w10051625_bcd,a3n6u2x9fb,Nick_Dissertation_EX1,1,158,2020-04-28T11:58:35-07:00,4.3356149196625,12,versionC_stim.csv,FREQVersionD.csv,"Frequency Version D","Dissertation, Frequency version D",WAX,CANDLE,Study2,S,139,171,Test,User,-,,Recall,Recall1,2998,candle,100,1133,1885,1,1,,,1
w10051625_bcd,a3n6u2x9fb,Nick_Dissertation_EX1,1,159,2020-04-28T11:58:40-07:00,4.4482131004333,12,versionC_stim.csv,FREQVersionD.csv,"Frequency Version D","Dissertation, Frequency version D",DOG,FURRY,Study2,B,102,122,Test,User,-,,Recall,Recall1,2779,cat,0,1755,2135,0,0,,,1
w10051625_bcd,a3n6u2x9fb,Nick_Dissertation_EX1,1,160,2020-04-28T11:58:44-07:00,3.8245780467987,12,versionC_stim.csv,FREQVersionD.csv,"Frequency Version D","Dissertation, Frequency version D",HEAD,SCALP,Study2,B,105,136,Test,User,-,,Recall,Recall1,3357,scalp,100,1628,2318,1,1,,,1
w10051625_bcd,a3n6u2x9fb,Nick_Dissertation_EX1,1,161,2020-04-28T11:58:47-07:00,3.1883327960968,12,versionC_stim.csv,FREQVersionD.csv,"Frequency Version D","Dissertation, Frequency version D",NOISE,LOUD,Study2,S,152,134,Test,User,-,,Recall,Recall1,2641,loud,100,1372,1912,1,1,,,1
w10051625_bcd,a3n6u2x9fb,Nick_Dissertation_EX1,1,162,2020-04-28T11:58:51-07:00,3.6969649791718,12,versionC_stim.csv,FREQVersionD.csv,"Frequency Version D","Dissertation, Frequency version D",FICTION,LISTEN,Study2,U,164,172,Test,User,-,,Recall,Recall1,2201,,0,-1,-1,0,0,,,1
w10051625_bcd,a3n6u2x9fb,Nick_Dissertation_EX1,1,163,2020-04-28T11:58:53-07:00,2.0212571620941,12,versionC_stim.csv,FREQVersionD.csv,"Frequency Version D","Dissertation, Frequency version D",ABLE,CRACKLE,Study2,U,162,105,Test,User,-,,Recall,Recall1,1604,,0,-1,-1,0,0,,,1
w10051625_bcd,a3n6u2x9fb,Nick_Dissertation_EX1,1,164,2020-04-28T11:58:55-07:00,2.1962220668793,12,versionC_stim.csv,FREQVersionD.csv,"Frequency Version D","Dissertation, Frequency version D",SIGN,LOAN,Study2,U,171,157,Test,User,-,,Recall,Recall1,1827,,0,-1,-1,0,0,,,1
w10051625_bcd,a3n6u2x9fb,Nick_Dissertation_EX1,1,165,2020-04-28T11:58:59-07:00,3.7712368965149,12,versionC_stim.csv,FREQVersionD.csv,"Frequency Version D","Dissertation, Frequency version D",GAME,CLUE,Study2,B,97,98,Test,User,-,,Recall,Recall1,3277,,0,-1,-1,0,0,,,1
w10051625_bcd,a3n6u2x9fb,Nick_Dissertation_EX1,1,166,2020-04-28T11:59:03-07:00,4.0350079536438,12,versionC_stim.csv,FREQVersionD.csv,"Frequency Version D","Dissertation, Frequency version D",DONKEY,MULE,Study2,B,108,152,Test,User,-,,Recall,Recall1,3556,mule,100,2336,2913,1,1,,,1
w10051625_bcd,a3n6u2x9fb,Nick_Dissertation_EX1,1,167,2020-04-28T11:59:09-07:00,6.2184839248657,12,versionC_stim.csv,FREQVersionD.csv,"Frequency Version D","Dissertation, Frequency version D",AIRCRAFT,PLANE,Study2,F,129,115,Test,User,-,,Recall,Recall1,4599,airplane,76.923076923077,2301,3982,0,1,,,1
w10051625_bcd,a3n6u2x9fb,Nick_Dissertation_EX1,1,168,2020-04-28T11:59:16-07:00,6.8919742107391,12,versionC_stim.csv,FREQVersionD.csv,"Frequency Version D","Dissertation, Frequency version D",COLD,CHILL,Study2,B,114,146,Test,User,-,,Recall,Recall1,6402,chilly,90.909090909091,1742,5431,0,1,,,1
w10051625_bcd,a3n6u2x9fb,Nick_Dissertation_EX1,1,169,2020-04-28T11:59:24-07:00,8.1753280162811,12,versionC_stim.csv,FREQVersionD.csv,"Frequency Version D","Dissertation, Frequency version D",COFFIN,DEAD,Study2,F,128,118,Test,User,-,,Recall,Recall1,6724,death,66.666666666667,1947,4124,0,0,,,1
w10051625_bcd,a3n6u2x9fb,Nick_Dissertation_EX1,1,170,2020-04-28T11:59:31-07:00,7.3886528015137,12,versionC_stim.csv,FREQVersionD.csv,"Frequency Version D","Dissertation, Frequency version D",CARBON,ELEMENT,Study2,S,141,150,Test,User,-,,Recall,Recall1,3909,element,100,2327,3218,1,1,,,1
w10051625_bcd,a3n6u2x9fb,Nick_Dissertation_EX1,1,171,2020-04-28T11:59:40-07:00,9.2438080310822,12,versionC_stim.csv,FREQVersionD.csv,"Frequency Version D","Dissertation, Frequency version D",HATE,NAME,Study2,U,167,167,Test,User,-,,Recall,Recall1,7243,,0,-1,-1,0,0,,,1
w10051625_bcd,a3n6u2x9fb,Nick_Dissertation_EX1,1,172,2020-04-28T11:59:47-07:00,6.1915111541748,12,versionC_stim.csv,FREQVersionD.csv,"Frequency Version D","Dissertation, Frequency version D",JOKE,KEYS,Study2,U,165,142,Test,User,-,,Recall,Recall1,2936,,0,-1,-1,0,0,,,1
w10051625_bcd,a3n6u2x9fb,Nick_Dissertation_EX1,1,173,2020-04-28T11:59:50-07:00,3.4336187839508,12,versionC_stim.csv,FREQVersionD.csv,"Frequency Version D","Dissertation, Frequency version D",WINDSHIELD,CAR,Study2,F,117,107,Test,User,-,,Recall,Recall1,2322,car,100,1263,1627,1,1,,,1
w10051625_bcd,a3n6u2x9fb,Nick_Dissertation_EX1,1,174,2020-04-28T11:59:54-07:00,3.5487751960754,12,versionC_stim.csv,FREQVersionD.csv,"Frequency Version D","Dissertation, Frequency version D",BRACELET,WRIST,Study2,S,140,156,Test,User,-,,Recall,Recall1,3094,wrist,100,1527,2435,1,1,,,1
w10051625_bcd,a3n6u2x9fb,Nick_Dissertation_EX1,1,175,2020-04-28T12:00:01-07:00,7.089359998703,12,versionC_stim.csv,FREQVersionD.csv,"Frequency Version D","Dissertation, Frequency version D",BREAKABLE,GLASS,Study2,F,127,143,Test,User,-,,Recall,Recall1,3064,glass,100,1697,2477,1,1,,,1
w10051625_bcd,a3n6u2x9fb,Nick_Dissertation_EX1,1,176,2020-04-28T12:00:04-07:00,3.3971838951111,12,versionC_stim.csv,FREQVersionD.csv,"Frequency Version D","Dissertation, Frequency version D",TOIL,LEASE,Study2,U,170,160,Test,User,-,,Recall,Recall1,2914,,0,-1,-1,0,0,,,1
w10051625_bcd,a3n6u2x9fb,Nick_Dissertation_EX1,1,177,2020-04-28T12:00:07-07:00,3.0736620426178,12,versionC_stim.csv,FREQVersionD.csv,"Frequency Version D","Dissertation, Frequency version D",JAR,MASON,Study2,S,138,128,Test,User,-,,Recall,Recall1,2634,mason,100,1409,1975,1,1,,,1
w10051625_bcd,a3n6u2x9fb,Nick_Dissertation_EX1,1,178,2020-04-28T12:00:11-07:00,3.9911210536957,12,versionC_stim.csv,FREQVersionD.csv,"Frequency Version D","Dissertation, Frequency version D",TEMPER,TANTRUM,Study2,S,154,137,Test,User,-,,Recall,Recall1,3556,tantrum,100,1508,2689,1,1,,,1
w10051625_bcd,a3n6u2x9fb,Nick_Dissertation_EX1,1,179,2020-04-28T12:00:25-07:00,14.157986879349,12,versionC_stim.csv,FREQVersionD.csv,"Frequency Version D","Dissertation, Frequency version D",,,,,,0,Instruct,-,10,"You will now be presented with a new set of word pairs. Please study each pair. Remember that your memory will be tested! When finished, press Enter to move to the next pair.",Initial_Instruct,Instruct4,11605,,,-1,-1,,,,,1
w10051625_bcd,a3n6u2x9fb,Nick_Dissertation_EX1,1,180,2020-04-28T12:00:48-07:00,22.374861001968,12,versionC_stim.csv,FREQVersionD.csv,"Frequency Version D","Dissertation, Frequency version D",,,,,,0,Instruct,,10,"You will again be asked to rate how often the paired items are used together, using a 0 to 100 scale. Remember to use the full range of the scale!",,Instruct10,17168,,,-1,-1,,,,,1
w10051625_bcd,a3n6u2x9fb,Nick_Dissertation_EX1,1,181,2020-04-28T12:00:50-07:00,2.1361219882965,12,versionC_stim.csv,FREQVersionD.csv,"Frequency Version D","Dissertation, Frequency version D",,,,,,0,Instruct,User,-,"Press Enter when you are readty to begin",,Instruct11,1671,,,-1,-1,,,,,1
w10051625_bcd,a3n6u2x9fb,Nick_Dissertation_EX1,1,182,2020-04-28T12:00:59-07:00,9.5873560905457,12,versionC_stim.csv,FREQVersionD.csv,"Frequency Version D","Dissertation, Frequency version D",JAM,SPACE,BUFFER1,Buffer,5,2,FREQ,User,-,"How often are these two words used together?|Type your response on a scale from 0-100 and then press Enter.",Study/JOL,BUFFER3,8347,,,4220,7068,,,,30,1
w10051625_bcd,a3n6u2x9fb,Nick_Dissertation_EX1,1,183,2020-04-28T12:01:07-07:00,7.6548218727112,12,versionC_stim.csv,FREQVersionD.csv,"Frequency Version D","Dissertation, Frequency version D",HIDE,SCARE,BUFFER1,Buffer,4,3,FREQ,User,-,"How often are these two words used together?|Type your response on a scale from 0-100 and then press Enter.",Study/JOL,BUFFER3,4795,,,3461,3942,,,,74,1
w10051625_bcd,a3n6u2x9fb,Nick_Dissertation_EX1,1,184,2020-04-28T12:01:16-07:00,8.6624231338501,12,versionC_stim.csv,FREQVersionD.csv,"Frequency Version D","Dissertation, Frequency version D",GREEN,TREES,BUFFER1,Buffer,1,6,FREQ,User,-,"How often are these two words used together?|Type your response on a scale from 0-100 and then press Enter.",Study/JOL,BUFFER3,6886,,,5167,6198,,,,81,1
w10051625_bcd,a3n6u2x9fb,Nick_Dissertation_EX1,1,185,2020-04-28T12:01:20-07:00,4.563677072525,12,versionC_stim.csv,FREQVersionD.csv,"Frequency Version D","Dissertation, Frequency version D",BUTTER,PEANUT,BUFFER1,Buffer,3,4,FREQ,User,-,"How often are these two words used together?|Type your response on a scale from 0-100 and then press Enter.",Study/JOL,BUFFER3,4064,,,2930,3131,,,,90,1
w10051625_bcd,a3n6u2x9fb,Nick_Dissertation_EX1,1,186,2020-04-28T12:01:27-07:00,7.0344319343567,12,versionC_stim.csv,FREQVersionD.csv,"Frequency Version D","Dissertation, Frequency version D",CATCHER,BASEBALL,BUFFER1,Buffer,2,5,FREQ,User,-,"How often are these two words used together?|Type your response on a scale from 0-100 and then press Enter.",Study/JOL,BUFFER3,6332,,,5205,5387,,,,89,1
w10051625_bcd,a3n6u2x9fb,Nick_Dissertation_EX1,1,187,2020-04-28T12:01:35-07:00,7.3693199157715,12,versionC_stim.csv,FREQVersionD.csv,"Frequency Version D","Dissertation, Frequency version D",ASSIGNMENT,DUE,Study1,S,46,41,FREQ,User,-,"How often are these two words used together?|Type your response on a scale from 0-100 and then press Enter.",Study/JOL,"Study Phase2",4958,,,3682,4111,,,,98,1
w10051625_bcd,a3n6u2x9fb,Nick_Dissertation_EX1,1,188,2020-04-28T12:01:43-07:00,8.3137500286102,12,versionC_stim.csv,FREQVersionD.csv,"Frequency Version D","Dissertation, Frequency version D",POSITION,MACHINE,Study1,U,76,23,FREQ,User,-,"How often are these two words used together?|Type your response on a scale from 0-100 and then press Enter.",Study/JOL,"Study Phase2",3727,,,2676,3000,,,,21,1
w10051625_bcd,a3n6u2x9fb,Nick_Dissertation_EX1,1,189,2020-04-28T12:01:54-07:00,11.316764116287,12,versionC_stim.csv,FREQVersionD.csv,"Frequency Version D","Dissertation, Frequency version D",STENCH,SMELL,Study1,F,42,68,FREQ,User,-,"How often are these two words used together?|Type your response on a scale from 0-100 and then press Enter.",Study/JOL,"Study Phase2",6843,,,4039,6280,,,,73,1
w10051625_bcd,a3n6u2x9fb,Nick_Dissertation_EX1,1,190,2020-04-28T12:01:58-07:00,4.1214900016785,12,versionC_stim.csv,FREQVersionD.csv,"Frequency Version D","Dissertation, Frequency version D",WASP,BUG,Study1,F,32,30,FREQ,User,-,"How often are these two words used together?|Type your response on a scale from 0-100 and then press Enter.",Study/JOL,"Study Phase2",3717,,,2014,2961,,,,67,1
w10051625_bcd,a3n6u2x9fb,Nick_Dissertation_EX1,1,191,2020-04-28T12:02:04-07:00,5.0834488868713,12,versionC_stim.csv,FREQVersionD.csv,"Frequency Version D","Dissertation, Frequency version D",PLANT,ROOT,Study1,B,13,63,FREQ,User,-,"How often are these two words used together?|Type your response on a scale from 0-100 and then press Enter.",Study/JOL,"Study Phase2",4494,,,2681,3972,,,,86,1
w10051625_bcd,a3n6u2x9fb,Nick_Dissertation_EX1,1,192,2020-04-28T12:02:10-07:00,5.9926679134369,12,versionC_stim.csv,FREQVersionD.csv,"Frequency Version D","Dissertation, Frequency version D",CHILD,BABY,Study1,S,64,28,FREQ,User,-,"How often are these two words used together?|Type your response on a scale from 0-100 and then press Enter.",Study/JOL,"Study Phase2",4496,,,2577,3702,,,,46,1
w10051625_bcd,a3n6u2x9fb,Nick_Dissertation_EX1,1,193,2020-04-28T12:02:17-07:00,7.0588040351868,12,versionC_stim.csv,FREQVersionD.csv,"Frequency Version D","Dissertation, Frequency version D",DESIGN,ARCHITECTURE,Study1,S,51,72,FREQ,User,-,"How often are these two words used together?|Type your response on a scale from 0-100 and then press Enter.",Study/JOL,"Study Phase2",6568,,,3270,5773,,,,68,1
w10051625_bcd,a3n6u2x9fb,Nick_Dissertation_EX1,1,194,2020-04-28T12:02:22-07:00,5.6926441192627,12,versionC_stim.csv,FREQVersionD.csv,"Frequency Version D","Dissertation, Frequency version D",FUTURE,PAST,Study1,S,61,43,FREQ,User,-,"How often are these two words used together?|Type your response on a scale from 0-100 and then press Enter.",Study/JOL,"Study Phase2",4183,,,1982,3498,,,,93,1
w10051625_bcd,a3n6u2x9fb,Nick_Dissertation_EX1,1,195,2020-04-28T12:02:27-07:00,4.9539940357208,12,versionC_stim.csv,FREQVersionD.csv,"Frequency Version D","Dissertation, Frequency version D",DEFINITION,MEANING,Study1,S,62,21,FREQ,User,-,"How often are these two words used together?|Type your response on a scale from 0-100 and then press Enter.",Study/JOL,"Study Phase2",4096,,,3147,3343,,,,90,1
w10051625_bcd,a3n6u2x9fb,Nick_Dissertation_EX1,1,196,2020-04-28T12:02:37-07:00,9.5084087848663,12,versionC_stim.csv,FREQVersionD.csv,"Frequency Version D","Dissertation, Frequency version D",WASTE,DUMP,Study1,S,49,47,FREQ,User,-,"How often are these two words used together?|Type your response on a scale from 0-100 and then press Enter.",Study/JOL,"Study Phase2",8113,,,2476,7306,,,,56,1
w10051625_bcd,a3n6u2x9fb,Nick_Dissertation_EX1,1,197,2020-04-28T12:02:44-07:00,6.8541660308838,12,versionC_stim.csv,FREQVersionD.csv,"Frequency Version D","Dissertation, Frequency version D",SITE,LOCATION,Study1,S,48,77,FREQ,User,-,"How often are these two words used together?|Type your response on a scale from 0-100 and then press Enter.",Study/JOL,"Study Phase2",4573,,,2821,3475,,,,70,1
w10051625_bcd,a3n6u2x9fb,Nick_Dissertation_EX1,1,198,2020-04-28T12:02:55-07:00,10.924831151962,12,versionC_stim.csv,FREQVersionD.csv,"Frequency Version D","Dissertation, Frequency version D",GROWTH,HEIGHT,Study1,F,30,73,FREQ,User,-,"How often are these two words used together?|Type your response on a scale from 0-100 and then press Enter.",Study/JOL,"Study Phase2",10415,,,4280,9630,,,,84,1
w10051625_bcd,a3n6u2x9fb,Nick_Dissertation_EX1,1,199,2020-04-28T12:03:03-07:00,8.6450488567352,12,versionC_stim.csv,FREQVersionD.csv,"Frequency Version D","Dissertation, Frequency version D",HAND,FIX,Study1,U,75,60,FREQ,User,-,"How often are these two words used together?|Type your response on a scale from 0-100 and then press Enter.",Study/JOL,"Study Phase2",8171,,,2510,7602,,,,63,1
w10051625_bcd,a3n6u2x9fb,Nick_Dissertation_EX1,1,200,2020-04-28T12:03:08-07:00,4.6520390510559,12,versionC_stim.csv,FREQVersionD.csv,"Frequency Version D","Dissertation, Frequency version D",FAMINE,HUNGER,Study1,F,40,16,FREQ,User,-,"How often are these two words used together?|Type your response on a scale from 0-100 and then press Enter.",Study/JOL,"Study Phase2",4115,,,2618,3267,,,,71,1
w10051625_bcd,a3n6u2x9fb,Nick_Dissertation_EX1,1,201,2020-04-28T12:03:18-07:00,10.297497987747,12,versionC_stim.csv,FREQVersionD.csv,"Frequency Version D","Dissertation, Frequency version D",NEWS,EDITOR,Study1,B,10,78,FREQ,User,-,"How often are these two words used together?|Type your response on a scale from 0-100 and then press Enter.",Study/JOL,"Study Phase2",5675,,,4539,4856,,,,87,1
w10051625_bcd,a3n6u2x9fb,Nick_Dissertation_EX1,1,202,2020-04-28T12:03:28-07:00,9.5746819972992,12,versionC_stim.csv,FREQVersionD.csv,"Frequency Version D","Dissertation, Frequency version D",BRONZE,ARTERY,Study1,U,74,14,FREQ,User,-,"How often are these two words used together?|Type your response on a scale from 0-100 and then press Enter.",Study/JOL,"Study Phase2",8288,,,4850,7461,,,,53,1
w10051625_bcd,a3n6u2x9fb,Nick_Dissertation_EX1,1,203,2020-04-28T12:03:37-07:00,9.0664520263672,12,versionC_stim.csv,FREQVersionD.csv,"Frequency Version D","Dissertation, Frequency version D",RIDDLE,SUGAR,Study1,U,81,18,FREQ,User,-,"How often are these two words used together?|Type your response on a scale from 0-100 and then press Enter.",Study/JOL,"Study Phase2",7334,,,3000,6513,,,,3,1
w10051625_bcd,a3n6u2x9fb,Nick_Dissertation_EX1,1,204,2020-04-28T12:03:46-07:00,8.802864074707,12,versionC_stim.csv,FREQVersionD.csv,"Frequency Version D","Dissertation, Frequency version D",FISH,TUNA,Study1,B,25,19,FREQ,User,-,"How often are these two words used together?|Type your response on a scale from 0-100 and then press Enter.",Study/JOL,"Study Phase2",7879,,,6407,6788,,,,79,1
w10051625_bcd,a3n6u2x9fb,Nick_Dissertation_EX1,1,205,2020-04-28T12:03:50-07:00,4.1201269626617,12,versionC_stim.csv,FREQVersionD.csv,"Frequency Version D","Dissertation, Frequency version D",BIRD,SWAN,Study1,B,14,44,FREQ,User,-,"How often are these two words used together?|Type your response on a scale from 0-100 and then press Enter.",Study/JOL,"Study Phase2",3647,,,2414,2941,,,,78,1
w10051625_bcd,a3n6u2x9fb,Nick_Dissertation_EX1,1,206,2020-04-28T12:03:55-07:00,4.9493598937988,12,versionC_stim.csv,FREQVersionD.csv,"Frequency Version D","Dissertation, Frequency version D",ATTIRE,CLOTHES,Study1,F,43,29,FREQ,User,-,"How often are these two words used together?|Type your response on a scale from 0-100 and then press Enter.",Study/JOL,"Study Phase2",4486,,,3311,3611,,,,80,1
w10051625_bcd,a3n6u2x9fb,Nick_Dissertation_EX1,1,207,2020-04-28T12:04:02-07:00,7.5512840747833,12,versionC_stim.csv,FREQVersionD.csv,"Frequency Version D","Dissertation, Frequency version D",SALAD,LETTUCE,Study1,S,59,39,FREQ,User,-,"How often are these two words used together?|Type your response on a scale from 0-100 and then press Enter.",Study/JOL,"Study Phase2",7034,,,5728,6313,,,,86,1
w10051625_bcd,a3n6u2x9fb,Nick_Dissertation_EX1,1,208,2020-04-28T12:04:13-07:00,10.724375009537,12,versionC_stim.csv,FREQVersionD.csv,"Frequency Version D","Dissertation, Frequency version D",FLOOR,DISCOVER,Study1,U,71,71,FREQ,User,-,"How often are these two words used together?|Type your response on a scale from 0-100 and then press Enter.",Study/JOL,"Study Phase2",8051,,,6331,7054,,,,18,1
w10051625_bcd,a3n6u2x9fb,Nick_Dissertation_EX1,1,209,2020-04-28T12:04:25-07:00,12.393661022186,12,versionC_stim.csv,FREQVersionD.csv,"Frequency Version D","Dissertation, Frequency version D",PILOT,PLANE,Study1,F,44,38,FREQ,User,-,"How often are these two words used together?|Type your response on a scale from 0-100 and then press Enter.",Study/JOL,"Study Phase2",10160,,,3611,9245,,,,89,1
w10051625_bcd,a3n6u2x9fb,Nick_Dissertation_EX1,1,210,2020-04-28T12:04:35-07:00,9.5651910305023,12,versionC_stim.csv,FREQVersionD.csv,"Frequency Version D","Dissertation, Frequency version D",CLEAN,HYGIENE,Study1,B,17,17,FREQ,User,-,"How often are these two words used together?|Type your response on a scale from 0-100 and then press Enter.",Study/JOL,"Study Phase2",9035,,,6509,7029,,,,81,1
w10051625_bcd,a3n6u2x9fb,Nick_Dissertation_EX1,1,211,2020-04-28T12:04:44-07:00,9.4816999435425,12,versionC_stim.csv,FREQVersionD.csv,"Frequency Version D","Dissertation, Frequency version D",LIVER,KIDNEY,Study1,S,53,46,FREQ,User,-,"How often are these two words used together?|Type your response on a scale from 0-100 and then press Enter.",Study/JOL,"Study Phase2",8897,,,5227,8157,,,,77,1
w10051625_bcd,a3n6u2x9fb,Nick_Dissertation_EX1,1,212,2020-04-28T12:04:51-07:00,6.2335159778595,12,versionC_stim.csv,FREQVersionD.csv,"Frequency Version D","Dissertation, Frequency version D",CLUTTER,PUSHER,Study1,U,66,62,FREQ,User,-,"How often are these two words used together?|Type your response on a scale from 0-100 and then press Enter.",Study/JOL,"Study Phase2",5502,,,4224,4702,,,,20,1
w10051625_bcd,a3n6u2x9fb,Nick_Dissertation_EX1,1,213,2020-04-28T12:04:57-07:00,6.2445240020752,12,versionC_stim.csv,FREQVersionD.csv,"Frequency Version D","Dissertation, Frequency version D",DOG,PAW,Study1,B,15,85,FREQ,User,-,"How often are these two words used together?|Type your response on a scale from 0-100 and then press Enter.",Study/JOL,"Study Phase2",5324,,,3743,4452,,,,90,1
w10051625_bcd,a3n6u2x9fb,Nick_Dissertation_EX1,1,214,2020-04-28T12:05:13-07:00,15.639070034027,12,versionC_stim.csv,FREQVersionD.csv,"Frequency Version D","Dissertation, Frequency version D",FLOWER,ORCHID,Study1,B,24,32,FREQ,User,-,"How often are these two words used together?|Type your response on a scale from 0-100 and then press Enter.",Study/JOL,"Study Phase2",6800,,,6014,6159,,,,72,1
w10051625_bcd,a3n6u2x9fb,Nick_Dissertation_EX1,1,215,2020-04-28T12:05:19-07:00,6.0275800228119,12,versionC_stim.csv,FREQVersionD.csv,"Frequency Version D","Dissertation, Frequency version D",LION,ART,Study1,U,79,84,FREQ,User,-,"How often are these two words used together?|Type your response on a scale from 0-100 and then press Enter.",Study/JOL,"Study Phase2",5461,,,4639,4639,,,,7,1
w10051625_bcd,a3n6u2x9fb,Nick_Dissertation_EX1,1,216,2020-04-28T12:05:23-07:00,4.7358238697052,12,versionC_stim.csv,FREQVersionD.csv,"Frequency Version D","Dissertation, Frequency version D",DROWSY,SLEEP,Study1,F,41,76,FREQ,User,-,"How often are these two words used together?|Type your response on a scale from 0-100 and then press Enter.",Study/JOL,"Study Phase2",3992,,,2631,3286,,,,73,1
w10051625_bcd,a3n6u2x9fb,Nick_Dissertation_EX1,1,217,2020-04-28T12:05:28-07:00,4.8003311157227,12,versionC_stim.csv,FREQVersionD.csv,"Frequency Version D","Dissertation, Frequency version D",TOILET,BATHROOM,Study1,S,58,8,FREQ,User,-,"How often are these two words used together?|Type your response on a scale from 0-100 and then press Enter.",Study/JOL,"Study Phase2",4247,,,2202,3370,,,,92,1
w10051625_bcd,a3n6u2x9fb,Nick_Dissertation_EX1,1,218,2020-04-28T12:05:42-07:00,13.453815937042,12,versionC_stim.csv,FREQVersionD.csv,"Frequency Version D","Dissertation, Frequency version D",BAD,DELINQUENT,Study1,B,6,80,FREQ,User,-,"How often are these two words used together?|Type your response on a scale from 0-100 and then press Enter.",Study/JOL,"Study Phase2",11953,,,7235,10559,,,,68,1
w10051625_bcd,a3n6u2x9fb,Nick_Dissertation_EX1,1,219,2020-04-28T12:05:46-07:00,4.8196790218353,12,versionC_stim.csv,FREQVersionD.csv,"Frequency Version D","Dissertation, Frequency version D",WOMAN,LIFT,Study1,U,69,33,FREQ,User,-,"How often are these two words used together?|Type your response on a scale from 0-100 and then press Enter.",Study/JOL,"Study Phase2",4166,,,3115,3115,,,,5,1
w10051625_bcd,a3n6u2x9fb,Nick_Dissertation_EX1,1,220,2020-04-28T12:05:54-07:00,7.5028750896454,12,versionC_stim.csv,FREQVersionD.csv,"Frequency Version D","Dissertation, Frequency version D",ACCIDENT,STRONG,Study1,U,80,53,FREQ,User,-,"How often are these two words used together?|Type your response on a scale from 0-100 and then press Enter.",Study/JOL,"Study Phase2",6055,,,4561,5131,,,,18,1
w10051625_bcd,a3n6u2x9fb,Nick_Dissertation_EX1,1,221,2020-04-28T12:06:06-07:00,12.116843938828,12,versionC_stim.csv,FREQVersionD.csv,"Frequency Version D","Dissertation, Frequency version D",SACKING,DIETARY,Study1,U,67,54,FREQ,User,-,"How often are these two words used together?|Type your response on a scale from 0-100 and then press Enter.",Study/JOL,"Study Phase2",11379,,,3606,10422,,,,6,1
w10051625_bcd,a3n6u2x9fb,Nick_Dissertation_EX1,1,222,2020-04-28T12:06:14-07:00,7.8401660919189,12,versionC_stim.csv,FREQVersionD.csv,"Frequency Version D","Dissertation, Frequency version D",WAR,REVOLUTION,Study1,B,20,74,FREQ,User,-,"How often are these two words used together?|Type your response on a scale from 0-100 and then press Enter.",Study/JOL,"Study Phase2",6320,,,4851,5349,,,,67,1
w10051625_bcd,a3n6u2x9fb,Nick_Dissertation_EX1,1,223,2020-04-28T12:06:18-07:00,4.6826519966125,12,versionC_stim.csv,FREQVersionD.csv,"Frequency Version D","Dissertation, Frequency version D",MONEY,WAGE,Study1,B,8,9,FREQ,User,-,"How often are these two words used together?|Type your response on a scale from 0-100 and then press Enter.",Study/JOL,"Study Phase2",4224,,,2184,2553,,,,80,1
w10051625_bcd,a3n6u2x9fb,Nick_Dissertation_EX1,1,224,2020-04-28T12:06:26-07:00,7.8417580127716,12,versionC_stim.csv,FREQVersionD.csv,"Frequency Version D","Dissertation, Frequency version D",BELT,SOON,Study1,U,70,51,FREQ,User,-,"How often are these two words used together?|Type your response on a scale from 0-100 and then press Enter.",Study/JOL,"Study Phase2",4381,,,3513,3513,,,,8,1
w10051625_bcd,a3n6u2x9fb,Nick_Dissertation_EX1,1,225,2020-04-28T12:06:33-07:00,6.3773698806763,12,versionC_stim.csv,FREQVersionD.csv,"Frequency Version D","Dissertation, Frequency version D",SEIZE,TAKE,Study1,F,29,69,FREQ,User,-,"How often are these two words used together?|Type your response on a scale from 0-100 and then press Enter.",Study/JOL,"Study Phase2",4512,,,3277,3489,,,,78,1
w10051625_bcd,a3n6u2x9fb,Nick_Dissertation_EX1,1,226,2020-04-28T12:06:39-07:00,6.4353270530701,12,versionC_stim.csv,FREQVersionD.csv,"Frequency Version D","Dissertation, Frequency version D",VASE,KING,Study1,U,85,20,FREQ,User,-,"How often are these two words used together?|Type your response on a scale from 0-100 and then press Enter.",Study/JOL,"Study Phase2",4527,,,2837,2837,,,,4,1
w10051625_bcd,a3n6u2x9fb,Nick_Dissertation_EX1,1,227,2020-04-28T12:06:49-07:00,9.8644208908081,12,versionC_stim.csv,FREQVersionD.csv,"Frequency Version D","Dissertation, Frequency version D",CHILI,HOT,Study1,F,37,79,FREQ,User,-,"How often are these two words used together?|Type your response on a scale from 0-100 and then press Enter.",Study/JOL,"Study Phase2",4606,,,3676,3849,,,,76,1
w10051625_bcd,a3n6u2x9fb,Nick_Dissertation_EX1,1,228,2020-04-28T12:06:59-07:00,9.6576480865479,12,versionC_stim.csv,FREQVersionD.csv,"Frequency Version D","Dissertation, Frequency version D",CHORE,WORK,Study1,F,39,57,FREQ,User,-,"How often are these two words used together?|Type your response on a scale from 0-100 and then press Enter.",Study/JOL,"Study Phase2",7382,,,3395,6226,,,,67,1
w10051625_bcd,a3n6u2x9fb,Nick_Dissertation_EX1,1,229,2020-04-28T12:07:03-07:00,4.2789850234985,12,versionC_stim.csv,FREQVersionD.csv,"Frequency Version D","Dissertation, Frequency version D",TUCK,ALLOW,Study1,U,78,48,FREQ,User,-,"How often are these two words used together?|Type your response on a scale from 0-100 and then press Enter.",Study/JOL,"Study Phase2",3855,,,2776,2776,,,,5,1
w10051625_bcd,a3n6u2x9fb,Nick_Dissertation_EX1,1,230,2020-04-28T12:07:11-07:00,8.169646024704,12,versionC_stim.csv,FREQVersionD.csv,"Frequency Version D","Dissertation, Frequency version D",TALK,DISCUSSION,Study1,B,21,10,FREQ,User,-,"How often are these two words used together?|Type your response on a scale from 0-100 and then press Enter.",Study/JOL,"Study Phase2",5381,,,4010,4470,,,,78,1
w10051625_bcd,a3n6u2x9fb,Nick_Dissertation_EX1,1,231,2020-04-28T12:07:18-07:00,7.0580508708954,12,versionC_stim.csv,FREQVersionD.csv,"Frequency Version D","Dissertation, Frequency version D",SODA,POP,Study1,S,56,7,FREQ,User,-,"How often are these two words used together?|Type your response on a scale from 0-100 and then press Enter.",Study/JOL,"Study Phase2",4844,,,2494,2777,,,,67,1
w10051625_bcd,a3n6u2x9fb,Nick_Dissertation_EX1,1,232,2020-04-28T12:07:27-07:00,8.9154131412506,12,versionC_stim.csv,FREQVersionD.csv,"Frequency Version D","Dissertation, Frequency version D",ADD,VALLEY,Study1,U,82,36,FREQ,User,-,"How often are these two words used together?|Type your response on a scale from 0-100 and then press Enter.",Study/JOL,"Study Phase2",4026,,,2936,2936,,,,4,1
w10051625_bcd,a3n6u2x9fb,Nick_Dissertation_EX1,1,233,2020-04-28T12:07:38-07:00,11.259640932083,12,versionC_stim.csv,FREQVersionD.csv,"Frequency Version D","Dissertation, Frequency version D",BUSINESS,DEATH,Study1,U,72,26,FREQ,User,-,"How often are these two words used together?|Type your response on a scale from 0-100 and then press Enter.",Study/JOL,"Study Phase2",10281,,,8818,8818,,,,7,1
w10051625_bcd,a3n6u2x9fb,Nick_Dissertation_EX1,1,234,2020-04-28T12:07:47-07:00,9.0936920642853,12,versionC_stim.csv,FREQVersionD.csv,"Frequency Version D","Dissertation, Frequency version D",SIGHT,DEBATE,Study1,U,73,52,FREQ,User,-,"How often are these two words used together?|Type your response on a scale from 0-100 and then press Enter.",Study/JOL,"Study Phase2",8522,,,6165,6165,,,,8,1
w10051625_bcd,a3n6u2x9fb,Nick_Dissertation_EX1,1,235,2020-04-28T12:07:52-07:00,4.3989169597626,12,versionC_stim.csv,FREQVersionD.csv,"Frequency Version D","Dissertation, Frequency version D",RACKET,BALL,Study1,F,38,50,FREQ,User,-,"How often are these two words used together?|Type your response on a scale from 0-100 and then press Enter.",Study/JOL,"Study Phase2",3804,,,2711,2930,,,,90,1
w10051625_bcd,a3n6u2x9fb,Nick_Dissertation_EX1,1,236,2020-04-28T12:08:00-07:00,8.1247239112854,12,versionC_stim.csv,FREQVersionD.csv,"Frequency Version D","Dissertation, Frequency version D",COLD,BITTER,Study1,B,12,15,FREQ,User,-,"How often are these two words used together?|Type your response on a scale from 0-100 and then press Enter.",Study/JOL,"Study Phase2",7732,,,4742,6784,,,,40,1
w10051625_bcd,a3n6u2x9fb,Nick_Dissertation_EX1,1,237,2020-04-28T12:08:06-07:00,5.6248271465302,12,versionC_stim.csv,FREQVersionD.csv,"Frequency Version D","Dissertation, Frequency version D",AMOUNT,NUMBER,Study1,S,47,82,FREQ,User,-,"How often are these two words used together?|Type your response on a scale from 0-100 and then press Enter.",Study/JOL,"Study Phase2",4554,,,2667,3357,,,,86,1
w10051625_bcd,a3n6u2x9fb,Nick_Dissertation_EX1,1,238,2020-04-28T12:08:11-07:00,4.9246418476105,12,versionC_stim.csv,FREQVersionD.csv,"Frequency Version D","Dissertation, Frequency version D",JURY,TRIAL,Study1,S,50,27,FREQ,User,-,"How often are these two words used together?|Type your response on a scale from 0-100 and then press Enter.",Study/JOL,"Study Phase2",4433,,,1958,3464,,,,93,1
w10051625_bcd,a3n6u2x9fb,Nick_Dissertation_EX1,1,239,2020-04-28T12:08:18-07:00,7.2008180618286,12,versionC_stim.csv,FREQVersionD.csv,"Frequency Version D","Dissertation, Frequency version D",WIND,BLOW,Study1,S,55,24,FREQ,User,-,"How often are these two words used together?|Type your response on a scale from 0-100 and then press Enter.",Study/JOL,"Study Phase2",6691,,,2601,5471,,,,59,1
w10051625_bcd,a3n6u2x9fb,Nick_Dissertation_EX1,1,240,2020-04-28T12:08:29-07:00,10.834959983826,12,versionC_stim.csv,FREQVersionD.csv,"Frequency Version D","Dissertation, Frequency version D",STING,HORNET,Study1,B,11,67,FREQ,User,-,"How often are these two words used together?|Type your response on a scale from 0-100 and then press Enter.",Study/JOL,"Study Phase2",10336,,,9057,9454,,,,71,1
w10051625_bcd,a3n6u2x9fb,Nick_Dissertation_EX1,1,241,2020-04-28T12:08:38-07:00,9.1875030994415,12,versionC_stim.csv,FREQVersionD.csv,"Frequency Version D","Dissertation, Frequency version D",ROCK,GEOLOGY,Study1,B,19,49,FREQ,User,-,"How often are these two words used together?|Type your response on a scale from 0-100 and then press Enter.",Study/JOL,"Study Phase2",7660,,,4385,6828,,,,64,1
w10051625_bcd,a3n6u2x9fb,Nick_Dissertation_EX1,1,242,2020-04-28T12:08:52-07:00,14.564582824707,12,versionC_stim.csv,FREQVersionD.csv,"Frequency Version D","Dissertation, Frequency version D",HUNGRY,PARK,Study1,U,68,83,FREQ,User,-,"How often are these two words used together?|Type your response on a scale from 0-100 and then press Enter.",Study/JOL,"Study Phase2",11627,,,7132,8343,,,,11,1
w10051625_bcd,a3n6u2x9fb,Nick_Dissertation_EX1,1,243,2020-04-28T12:08:57-07:00,4.8427221775055,12,versionC_stim.csv,FREQVersionD.csv,"Frequency Version D","Dissertation, Frequency version D",STOMACH,DIGESTION,Study1,B,7,86,FREQ,User,-,"How often are these two words used together?|Type your response on a scale from 0-100 and then press Enter.",Study/JOL,"Study Phase2",4373,,,2169,3357,,,,87,1
w10051625_bcd,a3n6u2x9fb,Nick_Dissertation_EX1,1,244,2020-04-28T12:09:03-07:00,6.0772449970245,12,versionC_stim.csv,FREQVersionD.csv,"Frequency Version D","Dissertation, Frequency version D",CAR,HAPPY,Study1,U,77,70,FREQ,User,-,"How often are these two words used together?|Type your response on a scale from 0-100 and then press Enter.",Study/JOL,"Study Phase2",5462,,,3942,4523,,,,80,1
w10051625_bcd,a3n6u2x9fb,Nick_Dissertation_EX1,1,245,2020-04-28T12:09:08-07:00,4.4178969860077,12,versionC_stim.csv,FREQVersionD.csv,"Frequency Version D","Dissertation, Frequency version D",WORD,SENTENCE,Study1,F,31,58,FREQ,User,-,"How often are these two words used together?|Type your response on a scale from 0-100 and then press Enter.",Study/JOL,"Study Phase2",3826,,,2374,2997,,,,92,1
w10051625_bcd,a3n6u2x9fb,Nick_Dissertation_EX1,1,246,2020-04-28T12:09:15-07:00,7.295560836792,12,versionC_stim.csv,FREQVersionD.csv,"Frequency Version D","Dissertation, Frequency version D",OUT,WAY,Study1,B,16,59,FREQ,User,-,"How often are these two words used together?|Type your response on a scale from 0-100 and then press Enter.",Study/JOL,"Study Phase2",6771,,,5306,5848,,,,86,1
w10051625_bcd,a3n6u2x9fb,Nick_Dissertation_EX1,1,247,2020-04-28T12:09:22-07:00,7.3637070655823,12,versionC_stim.csv,FREQVersionD.csv,"Frequency Version D","Dissertation, Frequency version D",SIP,DRINK,Study1,F,27,22,FREQ,User,-,"How often are these two words used together?|Type your response on a scale from 0-100 and then press Enter.",Study/JOL,"Study Phase2",4398,,,2840,3472,,,,93,1
w10051625_bcd,a3n6u2x9fb,Nick_Dissertation_EX1,1,248,2020-04-28T12:09:31-07:00,8.6224999427795,12,versionC_stim.csv,FREQVersionD.csv,"Frequency Version D","Dissertation, Frequency version D",COW,HERD,Study1,B,22,35,FREQ,User,-,"How often are these two words used together?|Type your response on a scale from 0-100 and then press Enter.",Study/JOL,"Study Phase2",5129,,,3782,4197,,,,78,1
w10051625_bcd,a3n6u2x9fb,Nick_Dissertation_EX1,1,249,2020-04-28T12:09:40-07:00,8.9033961296082,12,versionC_stim.csv,FREQVersionD.csv,"Frequency Version D","Dissertation, Frequency version D",FANTASTIC,GREAT,Study1,F,35,65,FREQ,User,-,"How often are these two words used together?|Type your response on a scale from 0-100 and then press Enter.",Study/JOL,"Study Phase2",7051,,,2116,6197,,,,78,1
w10051625_bcd,a3n6u2x9fb,Nick_Dissertation_EX1,1,250,2020-04-28T12:09:44-07:00,4.4147908687592,12,versionC_stim.csv,FREQVersionD.csv,"Frequency Version D","Dissertation, Frequency version D",BEE,HONEY,Study1,S,63,42,FREQ,User,-,"How often are these two words used together?|Type your response on a scale from 0-100 and then press Enter.",Study/JOL,"Study Phase2",3714,,,2145,2817,,,,84,1
w10051625_bcd,a3n6u2x9fb,Nick_Dissertation_EX1,1,251,2020-04-28T12:09:51-07:00,7.0723361968994,12,versionC_stim.csv,FREQVersionD.csv,"Frequency Version D","Dissertation, Frequency version D",ATTORNEY,LAW,Study1,F,34,40,FREQ,User,-,"How often are these two words used together?|Type your response on a scale from 0-100 and then press Enter.",Study/JOL,"Study Phase2",6568,,,2114,5590,,,,92,1
w10051625_bcd,a3n6u2x9fb,Nick_Dissertation_EX1,1,252,2020-04-28T12:09:59-07:00,7.6857659816742,12,versionC_stim.csv,FREQVersionD.csv,"Frequency Version D","Dissertation, Frequency version D",WOULD,CASH,Study1,U,83,61,FREQ,User,-,"How often are these two words used together?|Type your response on a scale from 0-100 and then press Enter.",Study/JOL,"Study Phase2",7198,,,5678,6225,,,,13,1
w10051625_bcd,a3n6u2x9fb,Nick_Dissertation_EX1,1,253,2020-04-28T12:10:06-07:00,6.6786639690399,12,versionC_stim.csv,FREQVersionD.csv,"Frequency Version D","Dissertation, Frequency version D",CHEESE,WINE,Study1,S,57,55,FREQ,User,-,"How often are these two words used together?|Type your response on a scale from 0-100 and then press Enter.",Study/JOL,"Study Phase2",6080,,,4585,5083,,,,75,1
w10051625_bcd,a3n6u2x9fb,Nick_Dissertation_EX1,1,254,2020-04-28T12:10:14-07:00,7.8734509944916,12,versionC_stim.csv,FREQVersionD.csv,"Frequency Version D","Dissertation, Frequency version D",FOOT,SHOE,Study1,S,60,81,FREQ,User,-,"How often are these two words used together?|Type your response on a scale from 0-100 and then press Enter.",Study/JOL,"Study Phase2",7483,,,5968,6405,,,,85,1
w10051625_bcd,a3n6u2x9fb,Nick_Dissertation_EX1,1,255,2020-04-28T12:10:18-07:00,4.5437788963318,12,versionC_stim.csv,FREQVersionD.csv,"Frequency Version D","Dissertation, Frequency version D",CARD,CREDIT,Study1,B,23,66,FREQ,User,-,"How often are these two words used together?|Type your response on a scale from 0-100 and then press Enter.",Study/JOL,"Study Phase2",4137,,,2302,2928,,,,95,1
w10051625_bcd,a3n6u2x9fb,Nick_Dissertation_EX1,1,256,2020-04-28T12:10:23-07:00,5.0197191238403,12,versionC_stim.csv,FREQVersionD.csv,"Frequency Version D","Dissertation, Frequency version D",WATER,BRIDGE,Study1,B,18,37,FREQ,User,-,"How often are these two words used together?|Type your response on a scale from 0-100 and then press Enter.",Study/JOL,"Study Phase2",4623,,,1998,3722,,,,93,1
w10051625_bcd,a3n6u2x9fb,Nick_Dissertation_EX1,1,257,2020-04-28T12:10:41-07:00,18.113867998123,12,versionC_stim.csv,FREQVersionD.csv,"Frequency Version D","Dissertation, Frequency version D",END,BEGIN,Study1,S,54,34,FREQ,User,-,"How often are these two words used together?|Type your response on a scale from 0-100 and then press Enter.",Study/JOL,"Study Phase2",17616,,,9711,16531,,,,74,1
w10051625_bcd,a3n6u2x9fb,Nick_Dissertation_EX1,1,258,2020-04-28T12:10:50-07:00,8.3444080352783,12,versionC_stim.csv,FREQVersionD.csv,"Frequency Version D","Dissertation, Frequency version D",DIVISION,MATH,Study1,F,33,12,FREQ,User,-,"How often are these two words used together?|Type your response on a scale from 0-100 and then press Enter.",Study/JOL,"Study Phase2",7812,,,6782,6968,,,,87,1
w10051625_bcd,a3n6u2x9fb,Nick_Dissertation_EX1,1,259,2020-04-28T12:10:53-07:00,3.7099969387054,12,versionC_stim.csv,FREQVersionD.csv,"Frequency Version D","Dissertation, Frequency version D",ENOUGH,FULL,Study1,F,26,13,FREQ,User,-,"How often are these two words used together?|Type your response on a scale from 0-100 and then press Enter.",Study/JOL,"Study Phase2",3234,,,1641,2379,,,,80,1
w10051625_bcd,a3n6u2x9fb,Nick_Dissertation_EX1,1,260,2020-04-28T12:11:00-07:00,6.9977309703827,12,versionC_stim.csv,FREQVersionD.csv,"Frequency Version D","Dissertation, Frequency version D",BAR,GRILL,Study1,S,52,31,FREQ,User,-,"How often are these two words used together?|Type your response on a scale from 0-100 and then press Enter.",Study/JOL,"Study Phase2",5983,,,2122,4881,,,,67,1
w10051625_bcd,a3n6u2x9fb,Nick_Dissertation_EX1,1,261,2020-04-28T12:11:09-07:00,8.9475948810577,12,versionC_stim.csv,FREQVersionD.csv,"Frequency Version D","Dissertation, Frequency version D",HAMMER,CHISEL,Study1,B,9,56,FREQ,User,-,"How often are these two words used together?|Type your response on a scale from 0-100 and then press Enter.",Study/JOL,"Study Phase2",5487,,,4498,4728,,,,64,1
w10051625_bcd,a3n6u2x9fb,Nick_Dissertation_EX1,1,262,2020-04-28T12:11:20-07:00,10.74455499649,12,versionC_stim.csv,FREQVersionD.csv,"Frequency Version D","Dissertation, Frequency version D",ROUND,CIRCLE,Study1,S,65,11,FREQ,User,-,"How often are these two words used together?|Type your response on a scale from 0-100 and then press Enter.",Study/JOL,"Study Phase2",5630,,,3922,4561,,,,74,1
w10051625_bcd,a3n6u2x9fb,Nick_Dissertation_EX1,1,263,2020-04-28T12:11:25-07:00,5.2056159973145,12,versionC_stim.csv,FREQVersionD.csv,"Frequency Version D","Dissertation, Frequency version D",CAVE,DARK,Study1,F,28,64,FREQ,User,-,"How often are these two words used together?|Type your response on a scale from 0-100 and then press Enter.",Study/JOL,"Study Phase2",4599,,,3112,3664,,,,81,1
w10051625_bcd,a3n6u2x9fb,Nick_Dissertation_EX1,1,264,2020-04-28T12:11:36-07:00,10.457663059235,12,versionC_stim.csv,FREQVersionD.csv,"Frequency Version D","Dissertation, Frequency version D",BLAZE,FIRE,Study1,F,45,25,FREQ,User,-,"How often are these two words used together?|Type your response on a scale from 0-100 and then press Enter.",Study/JOL,"Study Phase2",9859,,,2104,8896,,,,68,1
w10051625_bcd,a3n6u2x9fb,Nick_Dissertation_EX1,1,265,2020-04-28T12:11:42-07:00,6.7812640666962,12,versionC_stim.csv,FREQVersionD.csv,"Frequency Version D","Dissertation, Frequency version D",LATCH,KEY,Study1,F,36,75,FREQ,User,-,"How often are these two words used together?|Type your response on a scale from 0-100 and then press Enter.",Study/JOL,"Study Phase2",5780,,,4187,4428,,,,46,1
w10051625_bcd,a3n6u2x9fb,Nick_Dissertation_EX1,1,266,2020-04-28T12:11:54-07:00,11.374284029007,12,versionC_stim.csv,FREQVersionD.csv,"Frequency Version D","Dissertation, Frequency version D",SICK,HIDE,Study1,U,84,45,FREQ,User,-,"How often are these two words used together?|Type your response on a scale from 0-100 and then press Enter.",Study/JOL,"Study Phase2",10755,,,4962,9411,,,,9,1
w10051625_bcd,a3n6u2x9fb,Nick_Dissertation_EX1,1,267,2020-04-28T12:11:59-07:00,5.0696969032288,12,versionC_stim.csv,FREQVersionD.csv,"Frequency Version D","Dissertation, Frequency version D",CHOCOLATE,MALT,BUFFER2,Buffer,88,87,FREQ,User,-,"How often are these two words used together?|Type your response on a scale from 0-100 and then press Enter.",Study/JOL,BUFFER4,4632,,,2375,2715,,,,90,1
w10051625_bcd,a3n6u2x9fb,Nick_Dissertation_EX1,1,268,2020-04-28T12:12:04-07:00,4.7934100627899,12,versionC_stim.csv,FREQVersionD.csv,"Frequency Version D","Dissertation, Frequency version D",SPACE,MOON,BUFFER2,Buffer,89,89,FREQ,User,-,"How often are these two words used together?|Type your response on a scale from 0-100 and then press Enter.",Study/JOL,BUFFER4,4366,,,2867,3346,,,,91,1
w10051625_bcd,a3n6u2x9fb,Nick_Dissertation_EX1,1,269,2020-04-28T12:12:17-07:00,12.865992069244,12,versionC_stim.csv,FREQVersionD.csv,"Frequency Version D","Dissertation, Frequency version D",GOOSE,GEESE,BUFFER2,Buffer,86,90,FREQ,User,-,"How often are these two words used together?|Type your response on a scale from 0-100 and then press Enter.",Study/JOL,BUFFER4,8293,,,5508,7337,,,,44,1
w10051625_bcd,a3n6u2x9fb,Nick_Dissertation_EX1,1,270,2020-04-28T12:12:25-07:00,8.4721899032593,12,versionC_stim.csv,FREQVersionD.csv,"Frequency Version D","Dissertation, Frequency version D",POLICE,SHERRIF,BUFFER2,Buffer,87,91,FREQ,User,-,"How often are these two words used together?|Type your response on a scale from 0-100 and then press Enter.",Study/JOL,BUFFER4,7856,,,6275,6500,,,,87,1
w10051625_bcd,a3n6u2x9fb,Nick_Dissertation_EX1,1,271,2020-04-28T12:12:30-07:00,5.2396099567413,12,versionC_stim.csv,FREQVersionD.csv,"Frequency Version D","Dissertation, Frequency version D",STUFF,THING,BUFFER2,Buffer,90,88,FREQ,User,-,"How often are these two words used together?|Type your response on a scale from 0-100 and then press Enter.",Study/JOL,BUFFER4,4827,,,3753,3952,,,,34,1
w10051625_bcd,a3n6u2x9fb,Nick_Dissertation_EX1,1,272,2020-04-28T12:12:32-07:00,2.0666680335999,12,versionC_stim.csv,FREQVersionD.csv,"Frequency Version D","Dissertation, Frequency version D",,,,,,0,Instruct,User,-,"You have completed this section. Please press Enter.",Filler_Instruction,Instruct5,1643,,,-1,-1,,,,,1
w10051625_bcd,a3n6u2x9fb,Nick_Dissertation_EX1,1,273,2020-04-28T12:14:34-07:00,121.50447511673,12,versionC_stim.csv,FREQVersionD.csv,"Frequency Version D","Dissertation, Frequency version D",,,,,,0,FreeRecall,120,120,"Please list the 50 US states in reverse alphabetical order (z - a). The task will automatically advance to the next screen after two minutes.",,Filler2,120002,"Arkansas, Arizona, california, Delaware, florida, georgia, Idaho, kentucky, Missouri, Mississippi, New York, new ",0,3974,119878,0,0,,,1
w10051625_bcd,a3n6u2x9fb,Nick_Dissertation_EX1,1,274,2020-04-28T12:14:46-07:00,11.756060838699,12,versionC_stim.csv,FREQVersionD.csv,"Frequency Version D","Dissertation, Frequency version D",,,,,,0,Instruct,-,10,"You will now be presented with the first word from each of the previously studied item pairs. Please type the missing word. If you do not know the word, you may guess or press Enter to skip forward to the next pair.",,Instruct6,10557,,,-1,-1,,,,,1
w10051625_bcd,a3n6u2x9fb,Nick_Dissertation_EX1,1,275,2020-04-28T12:14:51-07:00,5.1264431476593,12,versionC_stim.csv,FREQVersionD.csv,"Frequency Version D","Dissertation, Frequency version D",CHEESE,WINE,Study1,S,57,55,Test,User,-,,Recall,Recall2,4678,wine,100,2821,3186,1,1,,,1
w10051625_bcd,a3n6u2x9fb,Nick_Dissertation_EX1,1,276,2020-04-28T12:14:58-07:00,6.9407708644867,12,versionC_stim.csv,FREQVersionD.csv,"Frequency Version D","Dissertation, Frequency version D",AMOUNT,NUMBER,Study1,S,47,82,Test,User,-,,Recall,Recall2,6518,number,100,1568,5753,1,1,,,1
w10051625_bcd,a3n6u2x9fb,Nick_Dissertation_EX1,1,277,2020-04-28T12:15:01-07:00,2.9765131473541,12,versionC_stim.csv,FREQVersionD.csv,"Frequency Version D","Dissertation, Frequency version D",SIGHT,DEBATE,Study1,U,73,52,Test,User,-,,Recall,Recall2,2500,,0,-1,-1,0,0,,,1
w10051625_bcd,a3n6u2x9fb,Nick_Dissertation_EX1,1,278,2020-04-28T12:15:06-07:00,4.9123089313507,12,versionC_stim.csv,FREQVersionD.csv,"Frequency Version D","Dissertation, Frequency version D",FANTASTIC,GREAT,Study1,F,35,65,Test,User,-,,Recall,Recall2,4481,great,100,2900,3590,1,1,,,1
