Username,ID,ExperimentName,Session,Trial,Date,TimeDif,"Condition Number","Stimuli File","Order File","Condition Description","Condition Notes",Stimuli*Cue,Stimuli*Answer,Stimuli*Shuffle,"Stimuli*Stimuli Notes",Stimuli*Value,Procedure*Item,"Procedure*Trial Type","Procedure*Max Time","Procedure*Min Time",Procedure*Text,"Procedure*Procedure Notes",Procedure*Shuffle,Response*RT,Response*Response,Response*Accuracy,Response*RTfirst,Response*RTlast,Response*strictAcc,Response*lenientAcc,Response*focus,Response*Focus
w10055893,6wq7i83dg1,Nick_Dissertation_EX1,1,1,2020-04-20T17:25:02-07:00,11.606295108795,3,versionC_stim.csv,READVersionC.csv,"Read Version C","Dissertation, read only version C",,,,,,0,Instruct,-,10,"Please study each of the following word pairs. Remember that your memory will be tested! When finished, press Enter to move to the next pair.",Initial_Instruct,Instruct1,11338,,,-1,-1,,,,1
w10055893,6wq7i83dg1,Nick_Dissertation_EX1,1,2,2020-04-20T17:25:06-07:00,3.5811638832092,3,versionC_stim.csv,READVersionC.csv,"Read Version C","Dissertation, read only version C",BUTTER,PEANUT,BUFFER1,Buffer,3,2,Study,User,-,,Study/JOL,BUFFER,3226,,,-1,-1,,,,1
w10055893,6wq7i83dg1,Nick_Dissertation_EX1,1,3,2020-04-20T17:25:10-07:00,4.4039659500122,3,versionC_stim.csv,READVersionC.csv,"Read Version C","Dissertation, read only version C",GREEN,TREES,BUFFER1,Buffer,1,6,Study,User,-,,Study/JOL,BUFFER,3097,,,-1,-1,,,,1
w10055893,6wq7i83dg1,Nick_Dissertation_EX1,1,4,2020-04-20T17:25:13-07:00,3.1537370681763,3,versionC_stim.csv,READVersionC.csv,"Read Version C","Dissertation, read only version C",JAM,SPACE,BUFFER1,Buffer,5,3,Study,User,-,,Study/JOL,BUFFER,2859,,,-1,-1,,,,1
w10055893,6wq7i83dg1,Nick_Dissertation_EX1,1,5,2020-04-20T17:25:16-07:00,2.6858239173889,3,versionC_stim.csv,READVersionC.csv,"Read Version C","Dissertation, read only version C",CATCHER,BASEBALL,BUFFER1,Buffer,2,5,Study,User,-,,Study/JOL,BUFFER,2387,,,-1,-1,,,,1
w10055893,6wq7i83dg1,Nick_Dissertation_EX1,1,6,2020-04-20T17:25:20-07:00,3.6655659675598,3,versionC_stim.csv,READVersionC.csv,"Read Version C","Dissertation, read only version C",HIDE,SCARE,BUFFER1,Buffer,4,4,Study,User,-,,Study/JOL,BUFFER,3369,,,-1,-1,,,,1
w10055893,6wq7i83dg1,Nick_Dissertation_EX1,1,7,2020-04-20T17:25:21-07:00,1.7279920578003,3,versionC_stim.csv,READVersionC.csv,"Read Version C","Dissertation, read only version C",CHEESE,WINE,Study1,S,57,11,Study,User,-,,Study/JOL,"Study Phase",1408,,,-1,-1,,,,1
w10055893,6wq7i83dg1,Nick_Dissertation_EX1,1,8,2020-04-20T17:25:24-07:00,2.6369969844818,3,versionC_stim.csv,READVersionC.csv,"Read Version C","Dissertation, read only version C",WAR,REVOLUTION,Study1,B,20,71,Study,User,-,,Study/JOL,"Study Phase",2325,,,-1,-1,,,,1
w10055893,6wq7i83dg1,Nick_Dissertation_EX1,1,9,2020-04-20T17:25:26-07:00,1.8646161556244,3,versionC_stim.csv,READVersionC.csv,"Read Version C","Dissertation, read only version C",AMOUNT,NUMBER,Study1,S,47,16,Study,User,-,,Study/JOL,"Study Phase",1550,,,-1,-1,,,,1
w10055893,6wq7i83dg1,Nick_Dissertation_EX1,1,10,2020-04-20T17:25:28-07:00,1.6813018321991,3,versionC_stim.csv,READVersionC.csv,"Read Version C","Dissertation, read only version C",SICK,HIDE,Study1,U,84,25,Study,User,-,,Study/JOL,"Study Phase",1371,,,-1,-1,,,,1
w10055893,6wq7i83dg1,Nick_Dissertation_EX1,1,11,2020-04-20T17:25:30-07:00,2.0528659820557,3,versionC_stim.csv,READVersionC.csv,"Read Version C","Dissertation, read only version C",NEWS,EDITOR,Study1,B,10,55,Study,User,-,,Study/JOL,"Study Phase",1746,,,-1,-1,,,,1
w10055893,6wq7i83dg1,Nick_Dissertation_EX1,1,12,2020-04-20T17:25:31-07:00,1.1725721359253,3,versionC_stim.csv,READVersionC.csv,"Read Version C","Dissertation, read only version C",WOULD,CASH,Study1,U,83,70,Study,User,-,,Study/JOL,"Study Phase",939,,,-1,-1,,,,1
w10055893,6wq7i83dg1,Nick_Dissertation_EX1,1,13,2020-04-20T17:25:32-07:00,1.5187330245972,3,versionC_stim.csv,READVersionC.csv,"Read Version C","Dissertation, read only version C",BRONZE,ARTERY,Study1,U,74,9,Study,User,-,,Study/JOL,"Study Phase",1224,,,-1,-1,,,,1
w10055893,6wq7i83dg1,Nick_Dissertation_EX1,1,14,2020-04-20T17:25:35-07:00,2.5142948627472,3,versionC_stim.csv,READVersionC.csv,"Read Version C","Dissertation, read only version C",PLANT,ROOT,Study1,B,13,14,Study,User,-,,Study/JOL,"Study Phase",2221,,,-1,-1,,,,1
w10055893,6wq7i83dg1,Nick_Dissertation_EX1,1,15,2020-04-20T17:25:36-07:00,1.1869111061096,3,versionC_stim.csv,READVersionC.csv,"Read Version C","Dissertation, read only version C",DROWSY,SLEEP,Study1,F,41,73,Study,User,-,,Study/JOL,"Study Phase",953,,,-1,-1,,,,1
w10055893,6wq7i83dg1,Nick_Dissertation_EX1,1,16,2020-04-20T17:25:37-07:00,1.2874188423157,3,versionC_stim.csv,READVersionC.csv,"Read Version C","Dissertation, read only version C",TALK,DISCUSSION,Study1,B,21,78,Study,User,-,,Study/JOL,"Study Phase",1030,,,-1,-1,,,,1
w10055893,6wq7i83dg1,Nick_Dissertation_EX1,1,17,2020-04-20T17:25:39-07:00,1.2652771472931,3,versionC_stim.csv,READVersionC.csv,"Read Version C","Dissertation, read only version C",DESIGN,ARCHITECTURE,Study1,S,51,12,Study,User,-,,Study/JOL,"Study Phase",981,,,-1,-1,,,,1
w10055893,6wq7i83dg1,Nick_Dissertation_EX1,1,18,2020-04-20T17:25:40-07:00,1.7547850608826,3,versionC_stim.csv,READVersionC.csv,"Read Version C","Dissertation, read only version C",ADD,VALLEY,Study1,U,82,61,Study,User,-,,Study/JOL,"Study Phase",1448,,,-1,-1,,,,1
w10055893,6wq7i83dg1,Nick_Dissertation_EX1,1,19,2020-04-20T17:25:42-07:00,1.7234628200531,3,versionC_stim.csv,READVersionC.csv,"Read Version C","Dissertation, read only version C",POSITION,MACHINE,Study1,U,76,68,Study,User,-,,Study/JOL,"Study Phase",1430,,,-1,-1,,,,1
w10055893,6wq7i83dg1,Nick_Dissertation_EX1,1,20,2020-04-20T17:25:43-07:00,1.0949862003326,3,versionC_stim.csv,READVersionC.csv,"Read Version C","Dissertation, read only version C",MONEY,WAGE,Study1,B,8,83,Study,User,-,,Study/JOL,"Study Phase",875,,,-1,-1,,,,1
w10055893,6wq7i83dg1,Nick_Dissertation_EX1,1,21,2020-04-20T17:25:45-07:00,1.5211069583893,3,versionC_stim.csv,READVersionC.csv,"Read Version C","Dissertation, read only version C",SACKING,DIETARY,Study1,U,67,29,Study,User,-,,Study/JOL,"Study Phase",1231,,,-1,-1,,,,1
w10055893,6wq7i83dg1,Nick_Dissertation_EX1,1,22,2020-04-20T17:25:46-07:00,1.1224520206451,3,versionC_stim.csv,READVersionC.csv,"Read Version C","Dissertation, read only version C",SEIZE,TAKE,Study1,F,29,77,Study,User,-,,Study/JOL,"Study Phase",881,,,-1,-1,,,,1
w10055893,6wq7i83dg1,Nick_Dissertation_EX1,1,23,2020-04-20T17:25:47-07:00,1.3256850242615,3,versionC_stim.csv,READVersionC.csv,"Read Version C","Dissertation, read only version C",PILOT,PLANE,Study1,F,44,36,Study,User,-,,Study/JOL,"Study Phase",1041,,,-1,-1,,,,1
w10055893,6wq7i83dg1,Nick_Dissertation_EX1,1,24,2020-04-20T17:25:48-07:00,1.4268038272858,3,versionC_stim.csv,READVersionC.csv,"Read Version C","Dissertation, read only version C",JURY,TRIAL,Study1,S,50,28,Study,User,-,,Study/JOL,"Study Phase",936,,,-1,-1,,,,1
w10055893,6wq7i83dg1,Nick_Dissertation_EX1,1,25,2020-04-20T17:25:50-07:00,1.9356641769409,3,versionC_stim.csv,READVersionC.csv,"Read Version C","Dissertation, read only version C",HAMMER,CHISEL,Study1,B,9,59,Study,User,-,,Study/JOL,"Study Phase",1267,,,-1,-1,,,,1
w10055893,6wq7i83dg1,Nick_Dissertation_EX1,1,26,2020-04-20T17:25:52-07:00,1.6298408508301,3,versionC_stim.csv,READVersionC.csv,"Read Version C","Dissertation, read only version C",FAMINE,HUNGER,Study1,F,40,54,Study,User,-,,Study/JOL,"Study Phase",1177,,,-1,-1,,,,1
w10055893,6wq7i83dg1,Nick_Dissertation_EX1,1,27,2020-04-20T17:25:54-07:00,1.8412380218506,3,versionC_stim.csv,READVersionC.csv,"Read Version C","Dissertation, read only version C",WIND,BLOW,Study1,S,55,47,Study,User,-,,Study/JOL,"Study Phase",1526,,,-1,-1,,,,1
w10055893,6wq7i83dg1,Nick_Dissertation_EX1,1,28,2020-04-20T17:25:55-07:00,1.4788780212402,3,versionC_stim.csv,READVersionC.csv,"Read Version C","Dissertation, read only version C",BELT,SOON,Study1,U,70,15,Study,User,-,,Study/JOL,"Study Phase",1191,,,-1,-1,,,,1
w10055893,6wq7i83dg1,Nick_Dissertation_EX1,1,29,2020-04-20T17:25:56-07:00,1.0245549678802,3,versionC_stim.csv,READVersionC.csv,"Read Version C","Dissertation, read only version C",SODA,POP,Study1,S,56,81,Study,User,-,,Study/JOL,"Study Phase",770,,,-1,-1,,,,1
w10055893,6wq7i83dg1,Nick_Dissertation_EX1,1,30,2020-04-20T17:25:58-07:00,1.6455810070038,3,versionC_stim.csv,READVersionC.csv,"Read Version C","Dissertation, read only version C",TOILET,BATHROOM,Study1,S,58,67,Study,User,-,,Study/JOL,"Study Phase",1378,,,-1,-1,,,,1
w10055893,6wq7i83dg1,Nick_Dissertation_EX1,1,31,2020-04-20T17:26:00-07:00,1.6114249229431,3,versionC_stim.csv,READVersionC.csv,"Read Version C","Dissertation, read only version C",CHILI,HOT,Study1,F,37,17,Study,User,-,,Study/JOL,"Study Phase",1303,,,-1,-1,,,,1
w10055893,6wq7i83dg1,Nick_Dissertation_EX1,1,32,2020-04-20T17:26:00-07:00,0.81849002838135,3,versionC_stim.csv,READVersionC.csv,"Read Version C","Dissertation, read only version C",SIGHT,DEBATE,Study1,U,73,79,Study,User,-,,Study/JOL,"Study Phase",586,,,-1,-1,,,,1
w10055893,6wq7i83dg1,Nick_Dissertation_EX1,1,33,2020-04-20T17:26:02-07:00,1.0863809585571,3,versionC_stim.csv,READVersionC.csv,"Read Version C","Dissertation, read only version C",DOG,PAW,Study1,B,15,24,Study,User,-,,Study/JOL,"Study Phase",872,,,-1,-1,,,,1
w10055893,6wq7i83dg1,Nick_Dissertation_EX1,1,34,2020-04-20T17:26:03-07:00,1.2743330001831,3,versionC_stim.csv,READVersionC.csv,"Read Version C","Dissertation, read only version C",ATTORNEY,LAW,Study1,F,34,46,Study,User,-,,Study/JOL,"Study Phase",978,,,-1,-1,,,,1
w10055893,6wq7i83dg1,Nick_Dissertation_EX1,1,35,2020-04-20T17:26:04-07:00,1.0930161476135,3,versionC_stim.csv,READVersionC.csv,"Read Version C","Dissertation, read only version C",ROUND,CIRCLE,Study1,S,65,35,Study,User,-,,Study/JOL,"Study Phase",841,,,-1,-1,,,,1
w10055893,6wq7i83dg1,Nick_Dissertation_EX1,1,36,2020-04-20T17:26:06-07:00,1.6251690387726,3,versionC_stim.csv,READVersionC.csv,"Read Version C","Dissertation, read only version C",COW,HERD,Study1,B,22,49,Study,User,-,,Study/JOL,"Study Phase",1323,,,-1,-1,,,,1
w10055893,6wq7i83dg1,Nick_Dissertation_EX1,1,37,2020-04-20T17:26:07-07:00,0.98135685920715,3,versionC_stim.csv,READVersionC.csv,"Read Version C","Dissertation, read only version C",BLAZE,FIRE,Study1,F,45,21,Study,User,-,,Study/JOL,"Study Phase",736,,,-1,-1,,,,1
w10055893,6wq7i83dg1,Nick_Dissertation_EX1,1,38,2020-04-20T17:26:08-07:00,1.4156889915466,3,versionC_stim.csv,READVersionC.csv,"Read Version C","Dissertation, read only version C",FISH,TUNA,Study1,B,25,80,Study,User,-,,Study/JOL,"Study Phase",1072,,,-1,-1,,,,1
w10055893,6wq7i83dg1,Nick_Dissertation_EX1,1,39,2020-04-20T17:26:09-07:00,1.1145730018616,3,versionC_stim.csv,READVersionC.csv,"Read Version C","Dissertation, read only version C",LIVER,KIDNEY,Study1,S,53,33,Study,User,-,,Study/JOL,"Study Phase",874,,,-1,-1,,,,1
w10055893,6wq7i83dg1,Nick_Dissertation_EX1,1,40,2020-04-20T17:26:13-07:00,3.7179009914398,3,versionC_stim.csv,READVersionC.csv,"Read Version C","Dissertation, read only version C",DIVISION,MATH,Study1,F,33,58,Study,User,-,,Study/JOL,"Study Phase",2043,,,-1,-1,,,,1
w10055893,6wq7i83dg1,Nick_Dissertation_EX1,1,41,2020-04-20T17:26:15-07:00,2.4166870117188,3,versionC_stim.csv,READVersionC.csv,"Read Version C","Dissertation, read only version C",LATCH,KEY,Study1,F,36,69,Study,User,-,,Study/JOL,"Study Phase",1003,,,-1,-1,,,,1
w10055893,6wq7i83dg1,Nick_Dissertation_EX1,1,42,2020-04-20T17:26:16-07:00,0.99748802185059,3,versionC_stim.csv,READVersionC.csv,"Read Version C","Dissertation, read only version C",WATER,BRIDGE,Study1,B,18,10,Study,User,-,,Study/JOL,"Study Phase",749,,,-1,-1,,,,1
w10055893,6wq7i83dg1,Nick_Dissertation_EX1,1,43,2020-04-20T17:26:18-07:00,1.5779719352722,3,versionC_stim.csv,READVersionC.csv,"Read Version C","Dissertation, read only version C",CHILD,BABY,Study1,S,64,34,Study,User,-,,Study/JOL,"Study Phase",1200,,,-1,-1,,,,1
w10055893,6wq7i83dg1,Nick_Dissertation_EX1,1,44,2020-04-20T17:26:19-07:00,1.6797091960907,3,versionC_stim.csv,READVersionC.csv,"Read Version C","Dissertation, read only version C",CHORE,WORK,Study1,F,39,63,Study,User,-,,Study/JOL,"Study Phase",1377,,,-1,-1,,,,1
w10055893,6wq7i83dg1,Nick_Dissertation_EX1,1,45,2020-04-20T17:26:21-07:00,1.5733819007874,3,versionC_stim.csv,READVersionC.csv,"Read Version C","Dissertation, read only version C",STOMACH,DIGESTION,Study1,B,7,26,Study,User,-,,Study/JOL,"Study Phase",1197,,,-1,-1,,,,1
w10055893,6wq7i83dg1,Nick_Dissertation_EX1,1,46,2020-04-20T17:26:23-07:00,1.7181649208069,3,versionC_stim.csv,READVersionC.csv,"Read Version C","Dissertation, read only version C",ATTIRE,CLOTHES,Study1,F,43,60,Study,User,-,,Study/JOL,"Study Phase",1348,,,-1,-1,,,,1
w10055893,6wq7i83dg1,Nick_Dissertation_EX1,1,47,2020-04-20T17:26:24-07:00,1.7086160182953,3,versionC_stim.csv,READVersionC.csv,"Read Version C","Dissertation, read only version C",CARD,CREDIT,Study1,B,23,53,Study,User,-,,Study/JOL,"Study Phase",1258,,,-1,-1,,,,1
w10055893,6wq7i83dg1,Nick_Dissertation_EX1,1,48,2020-04-20T17:26:27-07:00,2.6184461116791,3,versionC_stim.csv,READVersionC.csv,"Read Version C","Dissertation, read only version C",VASE,KING,Study1,U,85,8,Study,User,-,,Study/JOL,"Study Phase",1132,,,-1,-1,,,,1
w10055893,6wq7i83dg1,Nick_Dissertation_EX1,1,49,2020-04-20T17:26:29-07:00,1.7457399368286,3,versionC_stim.csv,READVersionC.csv,"Read Version C","Dissertation, read only version C",TUCK,ALLOW,Study1,U,78,19,Study,User,-,,Study/JOL,"Study Phase",1162,,,-1,-1,,,,1
w10055893,6wq7i83dg1,Nick_Dissertation_EX1,1,50,2020-04-20T17:26:30-07:00,1.616555929184,3,versionC_stim.csv,READVersionC.csv,"Read Version C","Dissertation, read only version C",RIDDLE,SUGAR,Study1,U,81,42,Study,User,-,,Study/JOL,"Study Phase",1302,,,-1,-1,,,,1
w10055893,6wq7i83dg1,Nick_Dissertation_EX1,1,51,2020-04-20T17:26:32-07:00,1.4384150505066,3,versionC_stim.csv,READVersionC.csv,"Read Version C","Dissertation, read only version C",CAVE,DARK,Study1,F,28,76,Study,User,-,,Study/JOL,"Study Phase",1113,,,-1,-1,,,,1
w10055893,6wq7i83dg1,Nick_Dissertation_EX1,1,52,2020-04-20T17:26:33-07:00,1.4062840938568,3,versionC_stim.csv,READVersionC.csv,"Read Version C","Dissertation, read only version C",OUT,WAY,Study1,B,16,56,Study,User,-,,Study/JOL,"Study Phase",1101,,,-1,-1,,,,1
w10055893,6wq7i83dg1,Nick_Dissertation_EX1,1,53,2020-04-20T17:26:35-07:00,1.9085810184479,3,versionC_stim.csv,READVersionC.csv,"Read Version C","Dissertation, read only version C",ENOUGH,FULL,Study1,F,26,7,Study,User,-,,Study/JOL,"Study Phase",1604,,,-1,-1,,,,1
w10055893,6wq7i83dg1,Nick_Dissertation_EX1,1,54,2020-04-20T17:26:37-07:00,1.7630019187927,3,versionC_stim.csv,READVersionC.csv,"Read Version C","Dissertation, read only version C",BAR,GRILL,Study1,S,52,85,Study,User,-,,Study/JOL,"Study Phase",1438,,,-1,-1,,,,1
w10055893,6wq7i83dg1,Nick_Dissertation_EX1,1,55,2020-04-20T17:26:38-07:00,0.9510281085968,3,versionC_stim.csv,READVersionC.csv,"Read Version C","Dissertation, read only version C",BIRD,SWAN,Study1,B,14,27,Study,User,-,,Study/JOL,"Study Phase",706,,,-1,-1,,,,1
w10055893,6wq7i83dg1,Nick_Dissertation_EX1,1,56,2020-04-20T17:26:39-07:00,0.85218000411987,3,versionC_stim.csv,READVersionC.csv,"Read Version C","Dissertation, read only version C",FUTURE,PAST,Study1,S,61,30,Study,User,-,,Study/JOL,"Study Phase",642,,,-1,-1,,,,1
w10055893,6wq7i83dg1,Nick_Dissertation_EX1,1,57,2020-04-20T17:26:40-07:00,0.80700492858887,3,versionC_stim.csv,READVersionC.csv,"Read Version C","Dissertation, read only version C",BAD,DELINQUENT,Study1,B,6,72,Study,User,-,,Study/JOL,"Study Phase",592,,,-1,-1,,,,1
w10055893,6wq7i83dg1,Nick_Dissertation_EX1,1,58,2020-04-20T17:26:40-07:00,0.91873288154602,3,versionC_stim.csv,READVersionC.csv,"Read Version C","Dissertation, read only version C",BEE,HONEY,Study1,S,63,65,Study,User,-,,Study/JOL,"Study Phase",694,,,-1,-1,,,,1
w10055893,6wq7i83dg1,Nick_Dissertation_EX1,1,59,2020-04-20T17:26:42-07:00,1.1074481010437,3,versionC_stim.csv,READVersionC.csv,"Read Version C","Dissertation, read only version C",COLD,BITTER,Study1,B,12,57,Study,User,-,,Study/JOL,"Study Phase",890,,,-1,-1,,,,1
w10055893,6wq7i83dg1,Nick_Dissertation_EX1,1,60,2020-04-20T17:26:42-07:00,0.77805709838867,3,versionC_stim.csv,READVersionC.csv,"Read Version C","Dissertation, read only version C",CLUTTER,PUSHER,Study1,U,66,43,Study,User,-,,Study/JOL,"Study Phase",571,,,-1,-1,,,,1
w10055893,6wq7i83dg1,Nick_Dissertation_EX1,1,61,2020-04-20T17:26:43-07:00,1.0889508724213,3,versionC_stim.csv,READVersionC.csv,"Read Version C","Dissertation, read only version C",FOOT,SHOE,Study1,S,60,50,Study,User,-,,Study/JOL,"Study Phase",867,,,-1,-1,,,,1
w10055893,6wq7i83dg1,Nick_Dissertation_EX1,1,62,2020-04-20T17:26:44-07:00,0.95398592948914,3,versionC_stim.csv,READVersionC.csv,"Read Version C","Dissertation, read only version C",ACCIDENT,STRONG,Study1,U,80,32,Study,User,-,,Study/JOL,"Study Phase",746,,,-1,-1,,,,1
w10055893,6wq7i83dg1,Nick_Dissertation_EX1,1,63,2020-04-20T17:26:45-07:00,0.85493016242981,3,versionC_stim.csv,READVersionC.csv,"Read Version C","Dissertation, read only version C",CAR,HAPPY,Study1,U,77,82,Study,User,-,,Study/JOL,"Study Phase",655,,,-1,-1,,,,1
w10055893,6wq7i83dg1,Nick_Dissertation_EX1,1,64,2020-04-20T17:26:56-07:00,10.684090852737,3,versionC_stim.csv,READVersionC.csv,"Read Version C","Dissertation, read only version C",WORD,SENTENCE,Study1,F,31,20,Study,User,-,,Study/JOL,"Study Phase",10341,,,-1,-1,,,,0.481
w10055893,6wq7i83dg1,Nick_Dissertation_EX1,1,65,2020-04-20T17:26:57-07:00,0.80337405204773,3,versionC_stim.csv,READVersionC.csv,"Read Version C","Dissertation, read only version C",HAND,FIX,Study1,U,75,37,Study,User,-,,Study/JOL,"Study Phase",563,,,-1,-1,,,,1
w10055893,6wq7i83dg1,Nick_Dissertation_EX1,1,66,2020-04-20T17:26:57-07:00,0.73559093475342,3,versionC_stim.csv,READVersionC.csv,"Read Version C","Dissertation, read only version C",CLEAN,HYGIENE,Study1,B,17,40,Study,User,-,,Study/JOL,"Study Phase",537,,,-1,-1,,,,1
w10055893,6wq7i83dg1,Nick_Dissertation_EX1,1,67,2020-04-20T17:26:58-07:00,0.74089097976685,3,versionC_stim.csv,READVersionC.csv,"Read Version C","Dissertation, read only version C",RACKET,BALL,Study1,F,38,44,Study,User,-,,Study/JOL,"Study Phase",520,,,-1,-1,,,,1
w10055893,6wq7i83dg1,Nick_Dissertation_EX1,1,68,2020-04-20T17:26:59-07:00,0.84207916259766,3,versionC_stim.csv,READVersionC.csv,"Read Version C","Dissertation, read only version C",HUNGRY,PARK,Study1,U,68,41,Study,User,-,,Study/JOL,"Study Phase",453,,,-1,-1,,,,1
w10055893,6wq7i83dg1,Nick_Dissertation_EX1,1,69,2020-04-20T17:27:00-07:00,0.67472791671753,3,versionC_stim.csv,READVersionC.csv,"Read Version C","Dissertation, read only version C",SIP,DRINK,Study1,F,27,39,Study,User,-,,Study/JOL,"Study Phase",444,,,-1,-1,,,,1
w10055893,6wq7i83dg1,Nick_Dissertation_EX1,1,70,2020-04-20T17:27:00-07:00,0.68445801734924,3,versionC_stim.csv,READVersionC.csv,"Read Version C","Dissertation, read only version C",ASSIGNMENT,DUE,Study1,S,46,75,Study,User,-,,Study/JOL,"Study Phase",456,,,-1,-1,,,,1
w10055893,6wq7i83dg1,Nick_Dissertation_EX1,1,71,2020-04-20T17:27:01-07:00,0.68758606910706,3,versionC_stim.csv,READVersionC.csv,"Read Version C","Dissertation, read only version C",FLOOR,DISCOVER,Study1,U,71,18,Study,User,-,,Study/JOL,"Study Phase",464,,,-1,-1,,,,1
w10055893,6wq7i83dg1,Nick_Dissertation_EX1,1,72,2020-04-20T17:27:02-07:00,0.71117782592773,3,versionC_stim.csv,READVersionC.csv,"Read Version C","Dissertation, read only version C",WOMAN,LIFT,Study1,U,69,23,Study,User,-,,Study/JOL,"Study Phase",497,,,-1,-1,,,,1
w10055893,6wq7i83dg1,Nick_Dissertation_EX1,1,73,2020-04-20T17:27:03-07:00,0.71772909164429,3,versionC_stim.csv,READVersionC.csv,"Read Version C","Dissertation, read only version C",ROCK,GEOLOGY,Study1,B,19,84,Study,User,-,,Study/JOL,"Study Phase",507,,,-1,-1,,,,1
w10055893,6wq7i83dg1,Nick_Dissertation_EX1,1,74,2020-04-20T17:27:03-07:00,0.80141997337341,3,versionC_stim.csv,READVersionC.csv,"Read Version C","Dissertation, read only version C",SALAD,LETTUCE,Study1,S,59,62,Study,User,-,,Study/JOL,"Study Phase",584,,,-1,-1,,,,1
w10055893,6wq7i83dg1,Nick_Dissertation_EX1,1,75,2020-04-20T17:27:04-07:00,0.77617597579956,3,versionC_stim.csv,READVersionC.csv,"Read Version C","Dissertation, read only version C",STING,HORNET,Study1,B,11,52,Study,User,-,,Study/JOL,"Study Phase",564,,,-1,-1,,,,1
w10055893,6wq7i83dg1,Nick_Dissertation_EX1,1,76,2020-04-20T17:27:05-07:00,0.7446460723877,3,versionC_stim.csv,READVersionC.csv,"Read Version C","Dissertation, read only version C",DEFINITION,MEANING,Study1,S,62,38,Study,User,-,,Study/JOL,"Study Phase",524,,,-1,-1,,,,1
w10055893,6wq7i83dg1,Nick_Dissertation_EX1,1,77,2020-04-20T17:27:06-07:00,0.79432797431946,3,versionC_stim.csv,READVersionC.csv,"Read Version C","Dissertation, read only version C",FANTASTIC,GREAT,Study1,F,35,51,Study,User,-,,Study/JOL,"Study Phase",570,,,-1,-1,,,,1
w10055893,6wq7i83dg1,Nick_Dissertation_EX1,1,78,2020-04-20T17:27:06-07:00,0.75149512290955,3,versionC_stim.csv,READVersionC.csv,"Read Version C","Dissertation, read only version C",END,BEGIN,Study1,S,54,22,Study,User,-,,Study/JOL,"Study Phase",533,,,-1,-1,,,,1
w10055893,6wq7i83dg1,Nick_Dissertation_EX1,1,79,2020-04-20T17:27:09-07:00,2.9632549285889,3,versionC_stim.csv,READVersionC.csv,"Read Version C","Dissertation, read only version C",SITE,LOCATION,Study1,S,48,31,Study,User,-,,Study/JOL,"Study Phase",2685,,,-1,-1,,,,1
w10055893,6wq7i83dg1,Nick_Dissertation_EX1,1,80,2020-04-20T17:27:11-07:00,1.6513779163361,3,versionC_stim.csv,READVersionC.csv,"Read Version C","Dissertation, read only version C",LION,ART,Study1,U,79,64,Study,User,-,,Study/JOL,"Study Phase",1332,,,-1,-1,,,,1
w10055893,6wq7i83dg1,Nick_Dissertation_EX1,1,81,2020-04-20T17:27:12-07:00,0.88726615905762,3,versionC_stim.csv,READVersionC.csv,"Read Version C","Dissertation, read only version C",FLOWER,ORCHID,Study1,B,24,66,Study,User,-,,Study/JOL,"Study Phase",626,,,-1,-1,,,,1
w10055893,6wq7i83dg1,Nick_Dissertation_EX1,1,82,2020-04-20T17:27:13-07:00,0.8782799243927,3,versionC_stim.csv,READVersionC.csv,"Read Version C","Dissertation, read only version C",WASTE,DUMP,Study1,S,49,86,Study,User,-,,Study/JOL,"Study Phase",655,,,-1,-1,,,,1
w10055893,6wq7i83dg1,Nick_Dissertation_EX1,1,83,2020-04-20T17:27:14-07:00,0.8813009262085,3,versionC_stim.csv,READVersionC.csv,"Read Version C","Dissertation, read only version C",STENCH,SMELL,Study1,F,42,13,Study,User,-,,Study/JOL,"Study Phase",659,,,-1,-1,,,,1
w10055893,6wq7i83dg1,Nick_Dissertation_EX1,1,84,2020-04-20T17:27:15-07:00,0.8521249294281,3,versionC_stim.csv,READVersionC.csv,"Read Version C","Dissertation, read only version C",GROWTH,HEIGHT,Study1,F,30,48,Study,User,-,,Study/JOL,"Study Phase",605,,,-1,-1,,,,1
w10055893,6wq7i83dg1,Nick_Dissertation_EX1,1,85,2020-04-20T17:27:15-07:00,0.86764216423035,3,versionC_stim.csv,READVersionC.csv,"Read Version C","Dissertation, read only version C",BUSINESS,DEATH,Study1,U,72,45,Study,User,-,,Study/JOL,"Study Phase",600,,,-1,-1,,,,1
w10055893,6wq7i83dg1,Nick_Dissertation_EX1,1,86,2020-04-20T17:27:16-07:00,0.88570284843445,3,versionC_stim.csv,READVersionC.csv,"Read Version C","Dissertation, read only version C",WASP,BUG,Study1,F,32,74,Study,User,-,,Study/JOL,"Study Phase",648,,,-1,-1,,,,1
w10055893,6wq7i83dg1,Nick_Dissertation_EX1,1,87,2020-04-20T17:27:17-07:00,0.79838800430298,3,versionC_stim.csv,READVersionC.csv,"Read Version C","Dissertation, read only version C",POLICE,SHERRIF,BUFFER2,Buffer,87,89,Study,User,-,,Study/JOL,BUFFER2,562,,,-1,-1,,,,1
w10055893,6wq7i83dg1,Nick_Dissertation_EX1,1,88,2020-04-20T17:27:18-07:00,0.69850707054138,3,versionC_stim.csv,READVersionC.csv,"Read Version C","Dissertation, read only version C",SPACE,MOON,BUFFER2,Buffer,89,91,Study,User,-,,Study/JOL,BUFFER2,468,,,-1,-1,,,,1
w10055893,6wq7i83dg1,Nick_Dissertation_EX1,1,89,2020-04-20T17:27:19-07:00,0.76423406600952,3,versionC_stim.csv,READVersionC.csv,"Read Version C","Dissertation, read only version C",CHOCOLATE,MALT,BUFFER2,Buffer,88,87,Study,User,-,,Study/JOL,BUFFER2,523,,,-1,-1,,,,1
w10055893,6wq7i83dg1,Nick_Dissertation_EX1,1,90,2020-04-20T17:27:19-07:00,0.77092289924622,3,versionC_stim.csv,READVersionC.csv,"Read Version C","Dissertation, read only version C",GOOSE,GEESE,BUFFER2,Buffer,86,88,Study,User,-,,Study/JOL,BUFFER2,467,,,-1,-1,,,,1
w10055893,6wq7i83dg1,Nick_Dissertation_EX1,1,91,2020-04-20T17:27:20-07:00,0.70587301254272,3,versionC_stim.csv,READVersionC.csv,"Read Version C","Dissertation, read only version C",STUFF,THING,BUFFER2,Buffer,90,90,Study,User,-,,Study/JOL,BUFFER2,474,,,-1,-1,,,,1
w10055893,6wq7i83dg1,Nick_Dissertation_EX1,1,92,2020-04-20T17:27:26-07:00,6.2337779998779,3,versionC_stim.csv,READVersionC.csv,"Read Version C","Dissertation, read only version C",,,,,,0,Instruct,User,-,"You have completed this section. Please press Enter.",Filler_Instruction,Instruct2,4897,,,-1,-1,,,,1
w10055893,6wq7i83dg1,Nick_Dissertation_EX1,1,93,2020-04-20T17:29:27-07:00,120.31353616714,3,versionC_stim.csv,READVersionC.csv,"Read Version C","Dissertation, read only version C",,,,,,0,FreeRecall,120,120,"Please list the 50 US states in alphabetical order. The task will automatically advance to the next screen after two minutes.",,Filler1,120002,"Alabama Alaska Arizona Arkansas California Colorado Connecticut Delaware Florida Georgia Hawaii Idaho Illinois Indiana Iowa Kansas Kentucky Louisiana Maine Maryland Massachusetts Michigan Minnesota Mississippi Missouri Montana Nebraska Nevada New Hampshire New Jersey New Mexico New York North Carolina North Dakota Ohio Oklahoma Oregon Pennsylvania Rhode Island South Carolina South Dakota Tennessee Texas Utah Vermont Virginia Washington West Virginia Wisconsin Wyoming",0,-1,-1,0,0,,0.976
w10055893,6wq7i83dg1,Nick_Dissertation_EX1,1,94,2020-04-20T17:29:41-07:00,14.195858955383,3,versionC_stim.csv,READVersionC.csv,"Read Version C","Dissertation, read only version C",,,,,,0,Instruct,-,10,"You will now be presented with the first word from each of the previously studied item pairs. Please type the missing word. If you do not know the word, you may guess or press Enter to skip forward to the next pair.",,Instruct3,13866,,,-1,-1,,,,1
w10055893,6wq7i83dg1,Nick_Dissertation_EX1,1,95,2020-04-20T17:29:45-07:00,4.0906829833984,3,versionC_stim.csv,READVersionC.csv,"Read Version C","Dissertation, read only version C",MONEY,WAGE,Study1,B,8,83,Test,User,-,,Recall,Recall1,3731,,0,-1,-1,0,0,,1
w10055893,6wq7i83dg1,Nick_Dissertation_EX1,1,96,2020-04-20T17:29:48-07:00,2.8847918510437,3,versionC_stim.csv,READVersionC.csv,"Read Version C","Dissertation, read only version C",CHEESE,WINE,Study1,S,57,11,Test,User,-,,Recall,Recall1,2579,wine,100,1785,2248,1,1,,1
w10055893,6wq7i83dg1,Nick_Dissertation_EX1,1,97,2020-04-20T17:29:51-07:00,3.2510411739349,3,versionC_stim.csv,READVersionC.csv,"Read Version C","Dissertation, read only version C",LION,ART,Study1,U,79,64,Test,User,-,,Recall,Recall1,1948,,0,-1,-1,0,0,,1
w10055893,6wq7i83dg1,Nick_Dissertation_EX1,1,98,2020-04-20T17:29:53-07:00,1.8304219245911,3,versionC_stim.csv,READVersionC.csv,"Read Version C","Dissertation, read only version C",BRONZE,ARTERY,Study1,U,74,9,Test,User,-,,Recall,Recall1,1522,,0,-1,-1,0,0,,1
w10055893,6wq7i83dg1,Nick_Dissertation_EX1,1,99,2020-04-20T17:29:55-07:00,1.6999900341034,3,versionC_stim.csv,READVersionC.csv,"Read Version C","Dissertation, read only version C",STENCH,SMELL,Study1,F,42,13,Test,User,-,,Recall,Recall1,1404,,0,-1,-1,0,0,,1
w10055893,6wq7i83dg1,Nick_Dissertation_EX1,1,100,2020-04-20T17:29:56-07:00,1.8945689201355,3,versionC_stim.csv,READVersionC.csv,"Read Version C","Dissertation, read only version C",WOMAN,LIFT,Study1,U,69,23,Test,User,-,,Recall,Recall1,1600,,0,-1,-1,0,0,,1
w10055893,6wq7i83dg1,Nick_Dissertation_EX1,1,101,2020-04-20T17:29:58-07:00,1.1532709598541,3,versionC_stim.csv,READVersionC.csv,"Read Version C","Dissertation, read only version C",CLEAN,HYGIENE,Study1,B,17,40,Test,User,-,,Recall,Recall1,906,,0,-1,-1,0,0,,1
w10055893,6wq7i83dg1,Nick_Dissertation_EX1,1,102,2020-04-20T17:29:59-07:00,1.1834449768066,3,versionC_stim.csv,READVersionC.csv,"Read Version C","Dissertation, read only version C",NEWS,EDITOR,Study1,B,10,55,Test,User,-,,Recall,Recall1,686,,0,-1,-1,0,0,,1
w10055893,6wq7i83dg1,Nick_Dissertation_EX1,1,103,2020-04-20T17:30:00-07:00,1.5641961097717,3,versionC_stim.csv,READVersionC.csv,"Read Version C","Dissertation, read only version C",BELT,SOON,Study1,U,70,15,Test,User,-,,Recall,Recall1,1057,,0,-1,-1,0,0,,1
w10055893,6wq7i83dg1,Nick_Dissertation_EX1,1,104,2020-04-20T17:30:02-07:00,1.3744039535522,3,versionC_stim.csv,READVersionC.csv,"Read Version C","Dissertation, read only version C",SIGHT,DEBATE,Study1,U,73,79,Test,User,-,,Recall,Recall1,948,,0,-1,-1,0,0,,1
w10055893,6wq7i83dg1,Nick_Dissertation_EX1,1,105,2020-04-20T17:30:03-07:00,1.7269079685211,3,versionC_stim.csv,READVersionC.csv,"Read Version C","Dissertation, read only version C",SIP,DRINK,Study1,F,27,39,Test,User,-,,Recall,Recall1,1237,,0,-1,-1,0,0,,1
w10055893,6wq7i83dg1,Nick_Dissertation_EX1,1,106,2020-04-20T17:30:05-07:00,1.4755380153656,3,versionC_stim.csv,READVersionC.csv,"Read Version C","Dissertation, read only version C",FUTURE,PAST,Study1,S,61,30,Test,User,-,,Recall,Recall1,1130,,0,-1,-1,0,0,,1
w10055893,6wq7i83dg1,Nick_Dissertation_EX1,1,107,2020-04-20T17:30:06-07:00,1.1612560749054,3,versionC_stim.csv,READVersionC.csv,"Read Version C","Dissertation, read only version C",CAR,HAPPY,Study1,U,77,82,Test,User,-,,Recall,Recall1,900,,0,-1,-1,0,0,,1
w10055893,6wq7i83dg1,Nick_Dissertation_EX1,1,108,2020-04-20T17:30:08-07:00,1.6570699214935,3,versionC_stim.csv,READVersionC.csv,"Read Version C","Dissertation, read only version C",FAMINE,HUNGER,Study1,F,40,54,Test,User,-,,Recall,Recall1,1215,,0,-1,-1,0,0,,1
w10055893,6wq7i83dg1,Nick_Dissertation_EX1,1,109,2020-04-20T17:30:10-07:00,2.6831569671631,3,versionC_stim.csv,READVersionC.csv,"Read Version C","Dissertation, read only version C",WIND,BLOW,Study1,S,55,47,Test,User,-,,Recall,Recall1,1411,,0,-1,-1,0,0,,1
w10055893,6wq7i83dg1,Nick_Dissertation_EX1,1,110,2020-04-20T17:30:14-07:00,3.797856092453,3,versionC_stim.csv,READVersionC.csv,"Read Version C","Dissertation, read only version C",DROWSY,SLEEP,Study1,F,41,73,Test,User,-,,Recall,Recall1,3192,,0,-1,-1,0,0,,1
w10055893,6wq7i83dg1,Nick_Dissertation_EX1,1,111,2020-04-20T17:30:18-07:00,3.7842290401459,3,versionC_stim.csv,READVersionC.csv,"Read Version C","Dissertation, read only version C",HAMMER,CHISEL,Study1,B,9,59,Test,User,-,,Recall,Recall1,3458,nail,40,2285,3172,0,0,,1
w10055893,6wq7i83dg1,Nick_Dissertation_EX1,1,112,2020-04-20T17:30:20-07:00,1.8260669708252,3,versionC_stim.csv,READVersionC.csv,"Read Version C","Dissertation, read only version C",LATCH,KEY,Study1,F,36,69,Test,User,-,,Recall,Recall1,1440,,0,-1,-1,0,0,,1
w10055893,6wq7i83dg1,Nick_Dissertation_EX1,1,113,2020-04-20T17:30:23-07:00,3.5442168712616,3,versionC_stim.csv,READVersionC.csv,"Read Version C","Dissertation, read only version C",BEE,HONEY,Study1,S,63,65,Test,User,-,,Recall,Recall1,3246,honey,100,1965,2698,1,1,,1
w10055893,6wq7i83dg1,Nick_Dissertation_EX1,1,114,2020-04-20T17:30:25-07:00,1.8050141334534,3,versionC_stim.csv,READVersionC.csv,"Read Version C","Dissertation, read only version C",TALK,DISCUSSION,Study1,B,21,78,Test,User,-,,Recall,Recall1,1514,,0,-1,-1,0,0,,1
w10055893,6wq7i83dg1,Nick_Dissertation_EX1,1,115,2020-04-20T17:30:27-07:00,1.9169459342957,3,versionC_stim.csv,READVersionC.csv,"Read Version C","Dissertation, read only version C",WASTE,DUMP,Study1,S,49,86,Test,User,-,,Recall,Recall1,1617,,0,-1,-1,0,0,,1
w10055893,6wq7i83dg1,Nick_Dissertation_EX1,1,116,2020-04-20T17:30:30-07:00,2.5471661090851,3,versionC_stim.csv,READVersionC.csv,"Read Version C","Dissertation, read only version C",ACCIDENT,STRONG,Study1,U,80,32,Test,User,-,,Recall,Recall1,2201,,0,-1,-1,0,0,,1
w10055893,6wq7i83dg1,Nick_Dissertation_EX1,1,117,2020-04-20T17:30:31-07:00,1.4436318874359,3,versionC_stim.csv,READVersionC.csv,"Read Version C","Dissertation, read only version C",CHILD,BABY,Study1,S,64,34,Test,User,-,,Recall,Recall1,1126,,0,-1,-1,0,0,,1
w10055893,6wq7i83dg1,Nick_Dissertation_EX1,1,118,2020-04-20T17:30:33-07:00,2.1121990680695,3,versionC_stim.csv,READVersionC.csv,"Read Version C","Dissertation, read only version C",BUSINESS,DEATH,Study1,U,72,45,Test,User,-,,Recall,Recall1,1816,,0,-1,-1,0,0,,1
w10055893,6wq7i83dg1,Nick_Dissertation_EX1,1,119,2020-04-20T17:30:35-07:00,1.7637269496918,3,versionC_stim.csv,READVersionC.csv,"Read Version C","Dissertation, read only version C",GROWTH,HEIGHT,Study1,F,30,48,Test,User,-,,Recall,Recall1,1450,,0,-1,-1,0,0,,1
w10055893,6wq7i83dg1,Nick_Dissertation_EX1,1,120,2020-04-20T17:30:37-07:00,2.1241919994354,3,versionC_stim.csv,READVersionC.csv,"Read Version C","Dissertation, read only version C",SICK,HIDE,Study1,U,84,25,Test,User,-,,Recall,Recall1,1698,,0,-1,-1,0,0,,1
w10055893,6wq7i83dg1,Nick_Dissertation_EX1,1,121,2020-04-20T17:30:38-07:00,1.2931089401245,3,versionC_stim.csv,READVersionC.csv,"Read Version C","Dissertation, read only version C",VASE,KING,Study1,U,85,8,Test,User,-,,Recall,Recall1,895,,0,-1,-1,0,0,,1
w10055893,6wq7i83dg1,Nick_Dissertation_EX1,1,122,2020-04-20T17:30:43-07:00,4.2454919815063,3,versionC_stim.csv,READVersionC.csv,"Read Version C","Dissertation, read only version C",RACKET,BALL,Study1,F,38,44,Test,User,-,,Recall,Recall1,2758,ball,100,1525,2417,1,1,,1
w10055893,6wq7i83dg1,Nick_Dissertation_EX1,1,123,2020-04-20T17:30:46-07:00,2.9285871982574,3,versionC_stim.csv,READVersionC.csv,"Read Version C","Dissertation, read only version C",CARD,CREDIT,Study1,B,23,53,Test,User,-,,Recall,Recall1,2597,,0,-1,-1,0,0,,1
w10055893,6wq7i83dg1,Nick_Dissertation_EX1,1,124,2020-04-20T17:30:49-07:00,3.1784889698029,3,versionC_stim.csv,READVersionC.csv,"Read Version C","Dissertation, read only version C",SODA,POP,Study1,S,56,81,Test,User,-,,Recall,Recall1,2868,pop,100,1945,2281,1,1,,1
w10055893,6wq7i83dg1,Nick_Dissertation_EX1,1,125,2020-04-20T17:30:54-07:00,5.6221098899841,3,versionC_stim.csv,READVersionC.csv,"Read Version C","Dissertation, read only version C",CAVE,DARK,Study1,F,28,76,Test,User,-,,Recall,Recall1,5244,,0,-1,-1,0,0,,1
w10055893,6wq7i83dg1,Nick_Dissertation_EX1,1,126,2020-04-20T17:30:57-07:00,2.980033159256,3,versionC_stim.csv,READVersionC.csv,"Read Version C","Dissertation, read only version C",COW,HERD,Study1,B,22,49,Test,User,-,,Recall,Recall1,2672,milk,0,1808,2356,0,0,,1
w10055893,6wq7i83dg1,Nick_Dissertation_EX1,1,127,2020-04-20T17:31:00-07:00,2.8529539108276,3,versionC_stim.csv,READVersionC.csv,"Read Version C","Dissertation, read only version C",ATTIRE,CLOTHES,Study1,F,43,60,Test,User,-,,Recall,Recall1,2548,,0,-1,-1,0,0,,1
w10055893,6wq7i83dg1,Nick_Dissertation_EX1,1,128,2020-04-20T17:31:02-07:00,1.3603708744049,3,versionC_stim.csv,READVersionC.csv,"Read Version C","Dissertation, read only version C",ROUND,CIRCLE,Study1,S,65,35,Test,User,-,,Recall,Recall1,1024,,0,-1,-1,0,0,,1
w10055893,6wq7i83dg1,Nick_Dissertation_EX1,1,129,2020-04-20T17:31:03-07:00,1.5411281585693,3,versionC_stim.csv,READVersionC.csv,"Read Version C","Dissertation, read only version C",BAD,DELINQUENT,Study1,B,6,72,Test,User,-,,Recall,Recall1,1240,,0,-1,-1,0,0,,1
w10055893,6wq7i83dg1,Nick_Dissertation_EX1,1,130,2020-04-20T17:31:05-07:00,2.2989120483398,3,versionC_stim.csv,READVersionC.csv,"Read Version C","Dissertation, read only version C",WATER,BRIDGE,Study1,B,18,10,Test,User,-,,Recall,Recall1,1989,,0,-1,-1,0,0,,1
w10055893,6wq7i83dg1,Nick_Dissertation_EX1,1,131,2020-04-20T17:31:06-07:00,1.0505158901215,3,versionC_stim.csv,READVersionC.csv,"Read Version C","Dissertation, read only version C",ROCK,GEOLOGY,Study1,B,19,84,Test,User,-,,Recall,Recall1,804,,0,-1,-1,0,0,,1
w10055893,6wq7i83dg1,Nick_Dissertation_EX1,1,132,2020-04-20T17:31:08-07:00,1.1124749183655,3,versionC_stim.csv,READVersionC.csv,"Read Version C","Dissertation, read only version C",BLAZE,FIRE,Study1,F,45,21,Test,User,-,,Recall,Recall1,888,,0,-1,-1,0,0,,1
w10055893,6wq7i83dg1,Nick_Dissertation_EX1,1,133,2020-04-20T17:31:09-07:00,1.4451231956482,3,versionC_stim.csv,READVersionC.csv,"Read Version C","Dissertation, read only version C",FOOT,SHOE,Study1,S,60,50,Test,User,-,,Recall,Recall1,1163,,0,-1,-1,0,0,,1
w10055893,6wq7i83dg1,Nick_Dissertation_EX1,1,134,2020-04-20T17:31:10-07:00,1.3617389202118,3,versionC_stim.csv,READVersionC.csv,"Read Version C","Dissertation, read only version C",STING,HORNET,Study1,B,11,52,Test,User,-,,Recall,Recall1,1066,,0,-1,-1,0,0,,1
w10055893,6wq7i83dg1,Nick_Dissertation_EX1,1,135,2020-04-20T17:31:13-07:00,2.2341980934143,3,versionC_stim.csv,READVersionC.csv,"Read Version C","Dissertation, read only version C",END,BEGIN,Study1,S,54,22,Test,User,-,,Recall,Recall1,1951,,0,-1,-1,0,0,,1
w10055893,6wq7i83dg1,Nick_Dissertation_EX1,1,136,2020-04-20T17:31:14-07:00,1.1265568733215,3,versionC_stim.csv,READVersionC.csv,"Read Version C","Dissertation, read only version C",FISH,TUNA,Study1,B,25,80,Test,User,-,,Recall,Recall1,882,,0,-1,-1,0,0,,1
w10055893,6wq7i83dg1,Nick_Dissertation_EX1,1,137,2020-04-20T17:31:16-07:00,2.3147640228271,3,versionC_stim.csv,READVersionC.csv,"Read Version C","Dissertation, read only version C",DIVISION,MATH,Study1,F,33,58,Test,User,-,,Recall,Recall1,1734,,0,-1,-1,0,0,,1
w10055893,6wq7i83dg1,Nick_Dissertation_EX1,1,138,2020-04-20T17:31:18-07:00,1.7205669879913,3,versionC_stim.csv,READVersionC.csv,"Read Version C","Dissertation, read only version C",DESIGN,ARCHITECTURE,Study1,S,51,12,Test,User,-,,Recall,Recall1,1405,,0,-1,-1,0,0,,1
w10055893,6wq7i83dg1,Nick_Dissertation_EX1,1,139,2020-04-20T17:31:19-07:00,0.94699501991272,3,versionC_stim.csv,READVersionC.csv,"Read Version C","Dissertation, read only version C",WAR,REVOLUTION,Study1,B,20,71,Test,User,-,,Recall,Recall1,691,,0,-1,-1,0,0,,1
w10055893,6wq7i83dg1,Nick_Dissertation_EX1,1,140,2020-04-20T17:31:21-07:00,1.8507080078125,3,versionC_stim.csv,READVersionC.csv,"Read Version C","Dissertation, read only version C",BIRD,SWAN,Study1,B,14,27,Test,User,-,,Recall,Recall1,1557,,0,-1,-1,0,0,,1
w10055893,6wq7i83dg1,Nick_Dissertation_EX1,1,141,2020-04-20T17:31:24-07:00,3.2073140144348,3,versionC_stim.csv,READVersionC.csv,"Read Version C","Dissertation, read only version C",ATTORNEY,LAW,Study1,F,34,46,Test,User,-,,Recall,Recall1,2883,law,100,2353,2751,1,1,,1
w10055893,6wq7i83dg1,Nick_Dissertation_EX1,1,142,2020-04-20T17:31:26-07:00,1.8331680297852,3,versionC_stim.csv,READVersionC.csv,"Read Version C","Dissertation, read only version C",FLOOR,DISCOVER,Study1,U,71,18,Test,User,-,,Recall,Recall1,1516,,0,-1,-1,0,0,,1
w10055893,6wq7i83dg1,Nick_Dissertation_EX1,1,143,2020-04-20T17:31:27-07:00,1.3218100070953,3,versionC_stim.csv,READVersionC.csv,"Read Version C","Dissertation, read only version C",CLUTTER,PUSHER,Study1,U,66,43,Test,User,-,,Recall,Recall1,1001,,0,-1,-1,0,0,,1
w10055893,6wq7i83dg1,Nick_Dissertation_EX1,1,144,2020-04-20T17:31:28-07:00,1.524199962616,3,versionC_stim.csv,READVersionC.csv,"Read Version C","Dissertation, read only version C",POSITION,MACHINE,Study1,U,76,68,Test,User,-,,Recall,Recall1,1223,,0,-1,-1,0,0,,1
w10055893,6wq7i83dg1,Nick_Dissertation_EX1,1,145,2020-04-20T17:31:29-07:00,0.93687105178833,3,versionC_stim.csv,READVersionC.csv,"Read Version C","Dissertation, read only version C",TUCK,ALLOW,Study1,U,78,19,Test,User,-,,Recall,Recall1,689,,0,-1,-1,0,0,,1
w10055893,6wq7i83dg1,Nick_Dissertation_EX1,1,146,2020-04-20T17:31:33-07:00,3.999107837677,3,versionC_stim.csv,READVersionC.csv,"Read Version C","Dissertation, read only version C",TOILET,BATHROOM,Study1,S,58,67,Test,User,-,,Recall,Recall1,3721,paper,30.769230769231,2811,3440,0,0,,1
w10055893,6wq7i83dg1,Nick_Dissertation_EX1,1,147,2020-04-20T17:31:35-07:00,1.489981174469,3,versionC_stim.csv,READVersionC.csv,"Read Version C","Dissertation, read only version C",LIVER,KIDNEY,Study1,S,53,33,Test,User,-,,Recall,Recall1,1148,,0,-1,-1,0,0,,1
w10055893,6wq7i83dg1,Nick_Dissertation_EX1,1,148,2020-04-20T17:31:37-07:00,1.8272337913513,3,versionC_stim.csv,READVersionC.csv,"Read Version C","Dissertation, read only version C",OUT,WAY,Study1,B,16,56,Test,User,-,,Recall,Recall1,1480,,0,-1,-1,0,0,,1
w10055893,6wq7i83dg1,Nick_Dissertation_EX1,1,149,2020-04-20T17:31:39-07:00,2.088564157486,3,versionC_stim.csv,READVersionC.csv,"Read Version C","Dissertation, read only version C",AMOUNT,NUMBER,Study1,S,47,16,Test,User,-,,Recall,Recall1,1754,,0,-1,-1,0,0,,1
w10055893,6wq7i83dg1,Nick_Dissertation_EX1,1,150,2020-04-20T17:31:40-07:00,1.1578199863434,3,versionC_stim.csv,READVersionC.csv,"Read Version C","Dissertation, read only version C",FANTASTIC,GREAT,Study1,F,35,51,Test,User,-,,Recall,Recall1,913,,0,-1,-1,0,0,,1
w10055893,6wq7i83dg1,Nick_Dissertation_EX1,1,151,2020-04-20T17:31:42-07:00,1.7816240787506,3,versionC_stim.csv,READVersionC.csv,"Read Version C","Dissertation, read only version C",ENOUGH,FULL,Study1,F,26,7,Test,User,-,,Recall,Recall1,1492,,0,-1,-1,0,0,,1
w10055893,6wq7i83dg1,Nick_Dissertation_EX1,1,152,2020-04-20T17:31:45-07:00,3.2503597736359,3,versionC_stim.csv,READVersionC.csv,"Read Version C","Dissertation, read only version C",STOMACH,DIGESTION,Study1,B,7,26,Test,User,-,,Recall,Recall1,1924,,0,-1,-1,0,0,,1
w10055893,6wq7i83dg1,Nick_Dissertation_EX1,1,153,2020-04-20T17:31:46-07:00,1.2710571289062,3,versionC_stim.csv,READVersionC.csv,"Read Version C","Dissertation, read only version C",HAND,FIX,Study1,U,75,37,Test,User,-,,Recall,Recall1,971,,0,-1,-1,0,0,,1
w10055893,6wq7i83dg1,Nick_Dissertation_EX1,1,154,2020-04-20T17:31:48-07:00,1.4324848651886,3,versionC_stim.csv,READVersionC.csv,"Read Version C","Dissertation, read only version C",SALAD,LETTUCE,Study1,S,59,62,Test,User,-,,Recall,Recall1,1136,,0,-1,-1,0,0,,1
w10055893,6wq7i83dg1,Nick_Dissertation_EX1,1,155,2020-04-20T17:31:49-07:00,1.4948341846466,3,versionC_stim.csv,READVersionC.csv,"Read Version C","Dissertation, read only version C",SITE,LOCATION,Study1,S,48,31,Test,User,-,,Recall,Recall1,1203,,0,-1,-1,0,0,,1
w10055893,6wq7i83dg1,Nick_Dissertation_EX1,1,156,2020-04-20T17:31:51-07:00,1.9910500049591,3,versionC_stim.csv,READVersionC.csv,"Read Version C","Dissertation, read only version C",CHILI,HOT,Study1,F,37,17,Test,User,-,,Recall,Recall1,1698,,0,-1,-1,0,0,,1
w10055893,6wq7i83dg1,Nick_Dissertation_EX1,1,157,2020-04-20T17:31:53-07:00,1.5833189487457,3,versionC_stim.csv,READVersionC.csv,"Read Version C","Dissertation, read only version C",FLOWER,ORCHID,Study1,B,24,66,Test,User,-,,Recall,Recall1,1288,,0,-1,-1,0,0,,1
w10055893,6wq7i83dg1,Nick_Dissertation_EX1,1,158,2020-04-20T17:31:54-07:00,1.6391198635101,3,versionC_stim.csv,READVersionC.csv,"Read Version C","Dissertation, read only version C",WORD,SENTENCE,Study1,F,31,20,Test,User,-,,Recall,Recall1,1329,,0,-1,-1,0,0,,1
w10055893,6wq7i83dg1,Nick_Dissertation_EX1,1,159,2020-04-20T17:31:56-07:00,1.616072177887,3,versionC_stim.csv,READVersionC.csv,"Read Version C","Dissertation, read only version C",DEFINITION,MEANING,Study1,S,62,38,Test,User,-,,Recall,Recall1,1239,,0,-1,-1,0,0,,1
w10055893,6wq7i83dg1,Nick_Dissertation_EX1,1,160,2020-04-20T17:31:57-07:00,1.3891580104828,3,versionC_stim.csv,READVersionC.csv,"Read Version C","Dissertation, read only version C",PILOT,PLANE,Study1,F,44,36,Test,User,-,,Recall,Recall1,1073,,0,-1,-1,0,0,,1
w10055893,6wq7i83dg1,Nick_Dissertation_EX1,1,161,2020-04-20T17:31:59-07:00,1.3762190341949,3,versionC_stim.csv,READVersionC.csv,"Read Version C","Dissertation, read only version C",WOULD,CASH,Study1,U,83,70,Test,User,-,,Recall,Recall1,1049,,0,-1,-1,0,0,,1
w10055893,6wq7i83dg1,Nick_Dissertation_EX1,1,162,2020-04-20T17:32:00-07:00,1.1210198402405,3,versionC_stim.csv,READVersionC.csv,"Read Version C","Dissertation, read only version C",CHORE,WORK,Study1,F,39,63,Test,User,-,,Recall,Recall1,860,,0,-1,-1,0,0,,1
w10055893,6wq7i83dg1,Nick_Dissertation_EX1,1,163,2020-04-20T17:32:01-07:00,1.3103401660919,3,versionC_stim.csv,READVersionC.csv,"Read Version C","Dissertation, read only version C",SEIZE,TAKE,Study1,F,29,77,Test,User,-,,Recall,Recall1,874,,0,-1,-1,0,0,,1
w10055893,6wq7i83dg1,Nick_Dissertation_EX1,1,164,2020-04-20T17:32:02-07:00,1.1730489730835,3,versionC_stim.csv,READVersionC.csv,"Read Version C","Dissertation, read only version C",WASP,BUG,Study1,F,32,74,Test,User,-,,Recall,Recall1,950,,0,-1,-1,0,0,,1
w10055893,6wq7i83dg1,Nick_Dissertation_EX1,1,165,2020-04-20T17:32:05-07:00,2.7040920257568,3,versionC_stim.csv,READVersionC.csv,"Read Version C","Dissertation, read only version C",ASSIGNMENT,DUE,Study1,S,46,75,Test,User,-,,Recall,Recall1,2413,,0,-1,-1,0,0,,1
w10055893,6wq7i83dg1,Nick_Dissertation_EX1,1,166,2020-04-20T17:32:11-07:00,6.2188348770142,3,versionC_stim.csv,READVersionC.csv,"Read Version C","Dissertation, read only version C",DOG,PAW,Study1,B,15,24,Test,User,-,,Recall,Recall1,5919,bone,0,1535,5016,0,0,,1
w10055893,6wq7i83dg1,Nick_Dissertation_EX1,1,167,2020-04-20T17:32:13-07:00,2.1269590854645,3,versionC_stim.csv,READVersionC.csv,"Read Version C","Dissertation, read only version C",RIDDLE,SUGAR,Study1,U,81,42,Test,User,-,,Recall,Recall1,1789,,0,-1,-1,0,0,,1
w10055893,6wq7i83dg1,Nick_Dissertation_EX1,1,168,2020-04-20T17:32:17-07:00,3.800078868866,3,versionC_stim.csv,READVersionC.csv,"Read Version C","Dissertation, read only version C",PLANT,ROOT,Study1,B,13,14,Test,User,-,,Recall,Recall1,3476,grenn,22.222222222222,2458,3226,0,0,,1
w10055893,6wq7i83dg1,Nick_Dissertation_EX1,1,169,2020-04-20T17:32:20-07:00,3.1463971138,3,versionC_stim.csv,READVersionC.csv,"Read Version C","Dissertation, read only version C",JURY,TRIAL,Study1,S,50,28,Test,User,-,,Recall,Recall1,2840,duty,22.222222222222,1645,2520,0,0,,1
w10055893,6wq7i83dg1,Nick_Dissertation_EX1,1,170,2020-04-20T17:32:23-07:00,2.9128348827362,3,versionC_stim.csv,READVersionC.csv,"Read Version C","Dissertation, read only version C",HUNGRY,PARK,Study1,U,68,41,Test,User,-,,Recall,Recall1,2599,food,0,1889,2437,0,0,,1
w10055893,6wq7i83dg1,Nick_Dissertation_EX1,1,171,2020-04-20T17:32:29-07:00,5.8065049648285,3,versionC_stim.csv,READVersionC.csv,"Read Version C","Dissertation, read only version C",ADD,VALLEY,Study1,U,82,61,Test,User,-,,Recall,Recall1,4492,subtract,14.285714285714,2173,4316,0,0,,1
w10055893,6wq7i83dg1,Nick_Dissertation_EX1,1,172,2020-04-20T17:32:32-07:00,2.8425931930542,3,versionC_stim.csv,READVersionC.csv,"Read Version C","Dissertation, read only version C",COLD,BITTER,Study1,B,12,57,Test,User,-,,Recall,Recall1,2535,flu,0,1859,2193,0,0,,1
w10055893,6wq7i83dg1,Nick_Dissertation_EX1,1,173,2020-04-20T17:32:35-07:00,3.4380178451538,3,versionC_stim.csv,READVersionC.csv,"Read Version C","Dissertation, read only version C",BAR,GRILL,Study1,S,52,85,Test,User,-,,Recall,Recall1,3144,drink,40,1741,2602,0,0,,1
w10055893,6wq7i83dg1,Nick_Dissertation_EX1,1,174,2020-04-20T17:32:37-07:00,1.6467821598053,3,versionC_stim.csv,READVersionC.csv,"Read Version C","Dissertation, read only version C",SACKING,DIETARY,Study1,U,67,29,Test,User,-,,Recall,Recall1,1260,,0,-1,-1,0,0,,1
w10055893,6wq7i83dg1,Nick_Dissertation_EX1,1,175,2020-04-20T17:33:15-07:00,38.093851804733,3,versionC_stim.csv,READVersionC.csv,"Read Version C","Dissertation, read only version C",,,,,,0,Instruct,-,10,"You will now be presented with a new set of word pairs. Please study each pair. Remember that your memory will be tested! When finished, press Enter to move to the next pair.",Initial_Instruct,Instruct4,35892,,,-1,-1,,,,1
w10055893,6wq7i83dg1,Nick_Dissertation_EX1,1,176,2020-04-20T17:33:19-07:00,3.4390540122986,3,versionC_stim.csv,READVersionC.csv,"Read Version C","Dissertation, read only version C",FISH,SHRIMP,BUFFER3,Buffer,93,96,Study,User,-,,Study/JOL,BUFFER3,3075,,,-1,-1,,,,1
w10055893,6wq7i83dg1,Nick_Dissertation_EX1,1,177,2020-04-20T17:33:21-07:00,2.1292431354523,3,versionC_stim.csv,READVersionC.csv,"Read Version C","Dissertation, read only version C",FROZEN,ICE,BUFFER3,Buffer,94,94,Study,User,-,,Study/JOL,BUFFER3,1822,,,-1,-1,,,,1
w10055893,6wq7i83dg1,Nick_Dissertation_EX1,1,178,2020-04-20T17:33:22-07:00,1.6741118431091,3,versionC_stim.csv,READVersionC.csv,"Read Version C","Dissertation, read only version C",STRING,NOODLE,BUFFER3,Buffer,92,95,Study,User,-,,Study/JOL,BUFFER3,1370,,,-1,-1,,,,1
w10055893,6wq7i83dg1,Nick_Dissertation_EX1,1,179,2020-04-20T17:33:24-07:00,1.5820109844208,3,versionC_stim.csv,READVersionC.csv,"Read Version C","Dissertation, read only version C",ADVENTURE,CAMP,BUFFER3,Buffer,95,92,Study,User,-,,Study/JOL,BUFFER3,1257,,,-1,-1,,,,1
w10055893,6wq7i83dg1,Nick_Dissertation_EX1,1,180,2020-04-20T17:33:26-07:00,2.0352671146393,3,versionC_stim.csv,READVersionC.csv,"Read Version C","Dissertation, read only version C",POTATO,CARROT,BUFFER3,Buffer,91,93,Study,User,-,,Study/JOL,BUFFER3,1727,,,-1,-1,,,,1
w10055893,6wq7i83dg1,Nick_Dissertation_EX1,1,181,2020-04-20T17:33:28-07:00,1.8516409397125,3,versionC_stim.csv,READVersionC.csv,"Read Version C","Dissertation, read only version C",TICK,FLEA,Study2,S,151,160,Study,User,-,,Study/JOL,"Study Phase2",1548,,,-1,-1,,,,1
w10055893,6wq7i83dg1,Nick_Dissertation_EX1,1,182,2020-04-20T17:33:30-07:00,1.7276961803436,3,versionC_stim.csv,READVersionC.csv,"Read Version C","Dissertation, read only version C",WINDSHIELD,CAR,Study2,F,117,176,Study,User,-,,Study/JOL,"Study Phase2",1425,,,-1,-1,,,,1
w10055893,6wq7i83dg1,Nick_Dissertation_EX1,1,183,2020-04-20T17:33:31-07:00,1.8000547885895,3,versionC_stim.csv,READVersionC.csv,"Read Version C","Dissertation, read only version C",TRASH,LITTER,Study2,B,103,162,Study,User,-,,Study/JOL,"Study Phase2",1510,,,-1,-1,,,,1
w10055893,6wq7i83dg1,Nick_Dissertation_EX1,1,184,2020-04-20T17:33:33-07:00,1.6585021018982,3,versionC_stim.csv,READVersionC.csv,"Read Version C","Dissertation, read only version C",HEAD,SCALP,Study2,B,105,99,Study,User,-,,Study/JOL,"Study Phase2",1367,,,-1,-1,,,,1
w10055893,6wq7i83dg1,Nick_Dissertation_EX1,1,185,2020-04-20T17:33:35-07:00,1.7105910778046,3,versionC_stim.csv,READVersionC.csv,"Read Version C","Dissertation, read only version C",LOVE,AFFECTION,Study2,B,115,130,Study,User,-,,Study/JOL,"Study Phase2",1204,,,-1,-1,,,,1
w10055893,6wq7i83dg1,Nick_Dissertation_EX1,1,186,2020-04-20T17:33:36-07:00,1.6002349853516,3,versionC_stim.csv,READVersionC.csv,"Read Version C","Dissertation, read only version C",BALLOON,POP,Study2,F,123,147,Study,User,-,,Study/JOL,"Study Phase2",1304,,,-1,-1,,,,1
w10055893,6wq7i83dg1,Nick_Dissertation_EX1,1,187,2020-04-20T17:33:38-07:00,1.9137358665466,3,versionC_stim.csv,READVersionC.csv,"Read Version C","Dissertation, read only version C",JOKE,KEYS,Study2,U,165,124,Study,User,-,,Study/JOL,"Study Phase2",1603,,,-1,-1,,,,1
w10055893,6wq7i83dg1,Nick_Dissertation_EX1,1,188,2020-04-20T17:33:40-07:00,1.6771450042725,3,versionC_stim.csv,READVersionC.csv,"Read Version C","Dissertation, read only version C",WAX,CANDLE,Study2,S,139,133,Study,User,-,,Study/JOL,"Study Phase2",1370,,,-1,-1,,,,1
w10055893,6wq7i83dg1,Nick_Dissertation_EX1,1,189,2020-04-20T17:33:42-07:00,1.7370829582214,3,versionC_stim.csv,READVersionC.csv,"Read Version C","Dissertation, read only version C",EQUAL,RIGHTS,Study2,S,137,175,Study,User,-,,Study/JOL,"Study Phase2",1424,,,-1,-1,,,,1
w10055893,6wq7i83dg1,Nick_Dissertation_EX1,1,190,2020-04-20T17:33:43-07:00,1.8522222042084,3,versionC_stim.csv,READVersionC.csv,"Read Version C","Dissertation, read only version C",CARBON,ELEMENT,Study2,S,141,172,Study,User,-,,Study/JOL,"Study Phase2",1555,,,-1,-1,,,,1
w10055893,6wq7i83dg1,Nick_Dissertation_EX1,1,191,2020-04-20T17:33:45-07:00,1.8821778297424,3,versionC_stim.csv,READVersionC.csv,"Read Version C","Dissertation, read only version C",ABLE,CRACKLE,Study2,U,162,118,Study,User,-,,Study/JOL,"Study Phase2",1581,,,-1,-1,,,,1
w10055893,6wq7i83dg1,Nick_Dissertation_EX1,1,192,2020-04-20T17:33:48-07:00,3.1023440361023,3,versionC_stim.csv,READVersionC.csv,"Read Version C","Dissertation, read only version C",GROUND,EARTH,Study2,S,144,113,Study,User,-,,Study/JOL,"Study Phase2",2767,,,-1,-1,,,,1
w10055893,6wq7i83dg1,Nick_Dissertation_EX1,1,193,2020-04-20T17:33:50-07:00,1.7640459537506,3,versionC_stim.csv,READVersionC.csv,"Read Version C","Dissertation, read only version C",CUT,CHOP,Study2,B,107,146,Study,User,-,,Study/JOL,"Study Phase2",1457,,,-1,-1,,,,1
w10055893,6wq7i83dg1,Nick_Dissertation_EX1,1,194,2020-04-20T17:33:52-07:00,1.8271660804749,3,versionC_stim.csv,READVersionC.csv,"Read Version C","Dissertation, read only version C",CHARM,VEHICLE,Study2,U,160,121,Study,User,-,,Study/JOL,"Study Phase2",1506,,,-1,-1,,,,1
w10055893,6wq7i83dg1,Nick_Dissertation_EX1,1,195,2020-04-20T17:33:53-07:00,1.4395198822021,3,versionC_stim.csv,READVersionC.csv,"Read Version C","Dissertation, read only version C",WET,DRY,Study2,S,146,131,Study,User,-,,Study/JOL,"Study Phase2",1124,,,-1,-1,,,,1
w10055893,6wq7i83dg1,Nick_Dissertation_EX1,1,196,2020-04-20T17:33:55-07:00,1.7676780223846,3,versionC_stim.csv,READVersionC.csv,"Read Version C","Dissertation, read only version C",END,ADJOURN,Study2,B,101,117,Study,User,-,,Study/JOL,"Study Phase2",1421,,,-1,-1,,,,1
w10055893,6wq7i83dg1,Nick_Dissertation_EX1,1,197,2020-04-20T17:33:57-07:00,1.6971690654755,3,versionC_stim.csv,READVersionC.csv,"Read Version C","Dissertation, read only version C",SHAVE,RAZOR,Study2,S,136,136,Study,User,-,,Study/JOL,"Study Phase2",1404,,,-1,-1,,,,1
w10055893,6wq7i83dg1,Nick_Dissertation_EX1,1,198,2020-04-20T17:33:58-07:00,1.5040669441223,3,versionC_stim.csv,READVersionC.csv,"Read Version C","Dissertation, read only version C",LONELY,ALONE,Study2,S,145,128,Study,User,-,,Study/JOL,"Study Phase2",1208,,,-1,-1,,,,1
w10055893,6wq7i83dg1,Nick_Dissertation_EX1,1,199,2020-04-20T17:34:00-07:00,1.1394829750061,3,versionC_stim.csv,READVersionC.csv,"Read Version C","Dissertation, read only version C",DOG,FURRY,Study2,B,102,142,Study,User,-,,Study/JOL,"Study Phase2",885,,,-1,-1,,,,1
w10055893,6wq7i83dg1,Nick_Dissertation_EX1,1,200,2020-04-20T17:34:02-07:00,2.1462881565094,3,versionC_stim.csv,READVersionC.csv,"Read Version C","Dissertation, read only version C",REVENGE,EVEN,Study2,F,122,112,Study,User,-,,Study/JOL,"Study Phase2",1855,,,-1,-1,,,,1
w10055893,6wq7i83dg1,Nick_Dissertation_EX1,1,201,2020-04-20T17:34:03-07:00,1.3151390552521,3,versionC_stim.csv,READVersionC.csv,"Read Version C","Dissertation, read only version C",LEAGUE,BASEBALL,Study2,F,131,135,Study,User,-,,Study/JOL,"Study Phase2",994,,,-1,-1,,,,1
w10055893,6wq7i83dg1,Nick_Dissertation_EX1,1,202,2020-04-20T17:34:05-07:00,1.6097278594971,3,versionC_stim.csv,READVersionC.csv,"Read Version C","Dissertation, read only version C",BANKER,MONEY,Study2,F,132,161,Study,User,-,,Study/JOL,"Study Phase2",1305,,,-1,-1,,,,1
w10055893,6wq7i83dg1,Nick_Dissertation_EX1,1,203,2020-04-20T17:34:07-07:00,2.0413770675659,3,versionC_stim.csv,READVersionC.csv,"Read Version C","Dissertation, read only version C",FAVORITE,BEST,Study2,F,125,169,Study,User,-,,Study/JOL,"Study Phase2",1715,,,-1,-1,,,,1
w10055893,6wq7i83dg1,Nick_Dissertation_EX1,1,204,2020-04-20T17:34:09-07:00,2.0873289108276,3,versionC_stim.csv,READVersionC.csv,"Read Version C","Dissertation, read only version C",STEAK,GIVE,Study2,U,158,110,Study,User,-,,Study/JOL,"Study Phase2",1764,,,-1,-1,,,,1
w10055893,6wq7i83dg1,Nick_Dissertation_EX1,1,205,2020-04-20T17:34:10-07:00,1.4580309391022,3,versionC_stim.csv,READVersionC.csv,"Read Version C","Dissertation, read only version C",CAR,DRIVER,Study2,B,106,168,Study,User,-,,Study/JOL,"Study Phase2",1155,,,-1,-1,,,,1
w10055893,6wq7i83dg1,Nick_Dissertation_EX1,1,206,2020-04-20T17:34:12-07:00,1.4012441635132,3,versionC_stim.csv,READVersionC.csv,"Read Version C","Dissertation, read only version C",TEMPER,TANTRUM,Study2,S,154,167,Study,User,-,,Study/JOL,"Study Phase2",1103,,,-1,-1,,,,1
w10055893,6wq7i83dg1,Nick_Dissertation_EX1,1,207,2020-04-20T17:34:13-07:00,1.76136302948,3,versionC_stim.csv,READVersionC.csv,"Read Version C","Dissertation, read only version C",BREAKABLE,GLASS,Study2,F,127,102,Study,User,-,,Study/JOL,"Study Phase2",1309,,,-1,-1,,,,1
w10055893,6wq7i83dg1,Nick_Dissertation_EX1,1,208,2020-04-20T17:34:16-07:00,2.8206958770752,3,versionC_stim.csv,READVersionC.csv,"Read Version C","Dissertation, read only version C",CLEAR,MOAT,Study2,U,169,139,Study,User,-,,Study/JOL,"Study Phase2",1475,,,-1,-1,,,,1
w10055893,6wq7i83dg1,Nick_Dissertation_EX1,1,209,2020-04-20T17:34:18-07:00,1.7202610969543,3,versionC_stim.csv,READVersionC.csv,"Read Version C","Dissertation, read only version C",SHAKE,Shell,Study2,U,163,100,Study,User,-,,Study/JOL,"Study Phase2",1405,,,-1,-1,,,,1
w10055893,6wq7i83dg1,Nick_Dissertation_EX1,1,210,2020-04-20T17:34:19-07:00,1.4096579551697,3,versionC_stim.csv,READVersionC.csv,"Read Version C","Dissertation, read only version C",NAP,SLEEP,Study2,F,134,97,Study,User,-,,Study/JOL,"Study Phase2",1058,,,-1,-1,,,,1
w10055893,6wq7i83dg1,Nick_Dissertation_EX1,1,211,2020-04-20T17:34:21-07:00,1.7293000221252,3,versionC_stim.csv,READVersionC.csv,"Read Version C","Dissertation, read only version C",SIGN,LOAN,Study2,U,171,137,Study,User,-,,Study/JOL,"Study Phase2",1432,,,-1,-1,,,,1
w10055893,6wq7i83dg1,Nick_Dissertation_EX1,1,212,2020-04-20T17:34:23-07:00,1.9018440246582,3,versionC_stim.csv,READVersionC.csv,"Read Version C","Dissertation, read only version C",ELECTION,MAZE,Study2,U,159,171,Study,User,-,,Study/JOL,"Study Phase2",1601,,,-1,-1,,,,1
w10055893,6wq7i83dg1,Nick_Dissertation_EX1,1,213,2020-04-20T17:34:25-07:00,2.0290558338165,3,versionC_stim.csv,READVersionC.csv,"Read Version C","Dissertation, read only version C",COLD,CHILL,Study2,B,114,101,Study,User,-,,Study/JOL,"Study Phase2",1715,,,-1,-1,,,,1
w10055893,6wq7i83dg1,Nick_Dissertation_EX1,1,214,2020-04-20T17:34:27-07:00,2.0027341842651,3,versionC_stim.csv,READVersionC.csv,"Read Version C","Dissertation, read only version C",REEL,ROD,Study2,S,150,132,Study,User,-,,Study/JOL,"Study Phase2",1679,,,-1,-1,,,,1
w10055893,6wq7i83dg1,Nick_Dissertation_EX1,1,215,2020-04-20T17:34:29-07:00,1.5038979053497,3,versionC_stim.csv,READVersionC.csv,"Read Version C","Dissertation, read only version C",BRAWL,FIGHT,Study2,F,135,123,Study,User,-,,Study/JOL,"Study Phase2",1198,,,-1,-1,,,,1
w10055893,6wq7i83dg1,Nick_Dissertation_EX1,1,216,2020-04-20T17:34:30-07:00,1.3097970485687,3,versionC_stim.csv,READVersionC.csv,"Read Version C","Dissertation, read only version C",HAVE,OWN,Study2,S,153,164,Study,User,-,,Study/JOL,"Study Phase2",993,,,-1,-1,,,,1
w10055893,6wq7i83dg1,Nick_Dissertation_EX1,1,217,2020-04-20T17:34:31-07:00,1.5437779426575,3,versionC_stim.csv,READVersionC.csv,"Read Version C","Dissertation, read only version C",AWAY,GONE,Study2,S,142,116,Study,User,-,,Study/JOL,"Study Phase2",1225,,,-1,-1,,,,1
w10055893,6wq7i83dg1,Nick_Dissertation_EX1,1,218,2020-04-20T17:34:33-07:00,1.6404740810394,3,versionC_stim.csv,READVersionC.csv,"Read Version C","Dissertation, read only version C",PLANT,CACTUS,Study2,B,98,144,Study,User,-,,Study/JOL,"Study Phase2",1332,,,-1,-1,,,,1
w10055893,6wq7i83dg1,Nick_Dissertation_EX1,1,219,2020-04-20T17:34:35-07:00,1.6567480564117,3,versionC_stim.csv,READVersionC.csv,"Read Version C","Dissertation, read only version C",STRAWBERRY,FRUIT,Study2,F,124,126,Study,User,-,,Study/JOL,"Study Phase2",1356,,,-1,-1,,,,1
w10055893,6wq7i83dg1,Nick_Dissertation_EX1,1,220,2020-04-20T17:34:37-07:00,2.6937928199768,3,versionC_stim.csv,READVersionC.csv,"Read Version C","Dissertation, read only version C",CLOTH,STRETCH,Study2,U,157,163,Study,User,-,,Study/JOL,"Study Phase2",2253,,,-1,-1,,,,1
w10055893,6wq7i83dg1,Nick_Dissertation_EX1,1,221,2020-04-20T17:34:39-07:00,2.1048121452332,3,versionC_stim.csv,READVersionC.csv,"Read Version C","Dissertation, read only version C",CHILDREN,MIRROR,Study2,U,174,108,Study,User,-,,Study/JOL,"Study Phase2",1788,,,-1,-1,,,,1
w10055893,6wq7i83dg1,Nick_Dissertation_EX1,1,222,2020-04-20T17:34:41-07:00,1.4153070449829,3,versionC_stim.csv,READVersionC.csv,"Read Version C","Dissertation, read only version C",ACTRESS,STAR,Study2,F,120,158,Study,User,-,,Study/JOL,"Study Phase2",1056,,,-1,-1,,,,1
w10055893,6wq7i83dg1,Nick_Dissertation_EX1,1,223,2020-04-20T17:34:42-07:00,1.596932888031,3,versionC_stim.csv,READVersionC.csv,"Read Version C","Dissertation, read only version C",MAROON,JUSTICE,Study2,U,156,166,Study,User,-,,Study/JOL,"Study Phase2",1300,,,-1,-1,,,,1
w10055893,6wq7i83dg1,Nick_Dissertation_EX1,1,224,2020-04-20T17:34:44-07:00,1.1923899650574,3,versionC_stim.csv,READVersionC.csv,"Read Version C","Dissertation, read only version C",NOISE,LOUD,Study2,S,152,98,Study,User,-,,Study/JOL,"Study Phase2",938,,,-1,-1,,,,1
w10055893,6wq7i83dg1,Nick_Dissertation_EX1,1,225,2020-04-20T17:34:45-07:00,1.3629369735718,3,versionC_stim.csv,READVersionC.csv,"Read Version C","Dissertation, read only version C",SMELL,INCENSE,Study2,B,110,170,Study,User,-,,Study/JOL,"Study Phase2",1073,,,-1,-1,,,,1
w10055893,6wq7i83dg1,Nick_Dissertation_EX1,1,226,2020-04-20T17:34:46-07:00,1.4145290851593,3,versionC_stim.csv,READVersionC.csv,"Read Version C","Dissertation, read only version C",TRUTHFUL,HONEST,Study2,F,133,159,Study,User,-,,Study/JOL,"Study Phase2",1097,,,-1,-1,,,,1
w10055893,6wq7i83dg1,Nick_Dissertation_EX1,1,227,2020-04-20T17:34:48-07:00,1.7554519176483,3,versionC_stim.csv,READVersionC.csv,"Read Version C","Dissertation, read only version C",PANTHER,CAT,Study2,F,126,127,Study,User,-,,Study/JOL,"Study Phase2",1448,,,-1,-1,,,,1
w10055893,6wq7i83dg1,Nick_Dissertation_EX1,1,228,2020-04-20T17:34:50-07:00,1.7858910560608,3,versionC_stim.csv,READVersionC.csv,"Read Version C","Dissertation, read only version C",SARDINE,FISH,Study2,F,130,165,Study,User,-,,Study/JOL,"Study Phase2",1490,,,-1,-1,,,,1
w10055893,6wq7i83dg1,Nick_Dissertation_EX1,1,229,2020-04-20T17:34:52-07:00,1.5260701179504,3,versionC_stim.csv,READVersionC.csv,"Read Version C","Dissertation, read only version C",TIE,SHOELACE,Study2,B,99,105,Study,User,-,,Study/JOL,"Study Phase2",1209,,,-1,-1,,,,1
w10055893,6wq7i83dg1,Nick_Dissertation_EX1,1,230,2020-04-20T17:34:53-07:00,1.4767558574677,3,versionC_stim.csv,READVersionC.csv,"Read Version C","Dissertation, read only version C",Morning,TEMPERATURE,Study2,U,173,141,Study,User,-,,Study/JOL,"Study Phase2",1171,,,-1,-1,,,,1
w10055893,6wq7i83dg1,Nick_Dissertation_EX1,1,231,2020-04-20T17:34:54-07:00,1.4561650753021,3,versionC_stim.csv,READVersionC.csv,"Read Version C","Dissertation, read only version C",SCISSORS,SHEARS,Study2,B,112,154,Study,User,-,,Study/JOL,"Study Phase2",1130,,,-1,-1,,,,1
w10055893,6wq7i83dg1,Nick_Dissertation_EX1,1,232,2020-04-20T17:34:56-07:00,2.0436508655548,3,versionC_stim.csv,READVersionC.csv,"Read Version C","Dissertation, read only version C",THIMBLE,THREAD,Study2,F,121,152,Study,User,-,,Study/JOL,"Study Phase2",1732,,,-1,-1,,,,1
w10055893,6wq7i83dg1,Nick_Dissertation_EX1,1,233,2020-04-20T17:34:58-07:00,1.5238440036774,3,versionC_stim.csv,READVersionC.csv,"Read Version C","Dissertation, read only version C",LONG,EXTENSION,Study2,B,96,140,Study,User,-,,Study/JOL,"Study Phase2",1203,,,-1,-1,,,,1
w10055893,6wq7i83dg1,Nick_Dissertation_EX1,1,234,2020-04-20T17:35:00-07:00,1.5180180072784,3,versionC_stim.csv,READVersionC.csv,"Read Version C","Dissertation, read only version C",GAME,CLUE,Study2,B,97,149,Study,User,-,,Study/JOL,"Study Phase2",1196,,,-1,-1,,,,1
w10055893,6wq7i83dg1,Nick_Dissertation_EX1,1,235,2020-04-20T17:35:01-07:00,1.3953001499176,3,versionC_stim.csv,READVersionC.csv,"Read Version C","Dissertation, read only version C",MYSTERY,DETECTIVE,Study2,B,100,115,Study,User,-,,Study/JOL,"Study Phase2",1078,,,-1,-1,,,,1
w10055893,6wq7i83dg1,Nick_Dissertation_EX1,1,236,2020-04-20T17:35:02-07:00,1.362147808075,3,versionC_stim.csv,READVersionC.csv,"Read Version C","Dissertation, read only version C",FICTION,LISTEN,Study2,U,164,153,Study,User,-,,Study/JOL,"Study Phase2",1049,,,-1,-1,,,,1
w10055893,6wq7i83dg1,Nick_Dissertation_EX1,1,237,2020-04-20T17:35:03-07:00,1.0419230461121,3,versionC_stim.csv,READVersionC.csv,"Read Version C","Dissertation, read only version C",COFFIN,DEAD,Study2,F,128,122,Study,User,-,,Study/JOL,"Study Phase2",791,,,-1,-1,,,,1
w10055893,6wq7i83dg1,Nick_Dissertation_EX1,1,238,2020-04-20T17:35:05-07:00,1.4180159568787,3,versionC_stim.csv,READVersionC.csv,"Read Version C","Dissertation, read only version C",PAPER,DOCUMENT,Study2,B,109,107,Study,User,-,,Study/JOL,"Study Phase2",1122,,,-1,-1,,,,1
w10055893,6wq7i83dg1,Nick_Dissertation_EX1,1,239,2020-04-20T17:35:06-07:00,0.9506561756134,3,versionC_stim.csv,READVersionC.csv,"Read Version C","Dissertation, read only version C",HATE,NAME,Study2,U,167,148,Study,User,-,,Study/JOL,"Study Phase2",687,,,-1,-1,,,,1
w10055893,6wq7i83dg1,Nick_Dissertation_EX1,1,240,2020-04-20T17:35:06-07:00,0.71530890464783,3,versionC_stim.csv,READVersionC.csv,"Read Version C","Dissertation, read only version C",FIGHT,FEUD,Study2,B,113,111,Study,User,-,,Study/JOL,"Study Phase2",484,,,-1,-1,,,,1
w10055893,6wq7i83dg1,Nick_Dissertation_EX1,1,241,2020-04-20T17:35:07-07:00,0.67353391647339,3,versionC_stim.csv,READVersionC.csv,"Read Version C","Dissertation, read only version C",SEATBELT,SAFETY,Study2,S,147,150,Study,User,-,,Study/JOL,"Study Phase2",432,,,-1,-1,,,,1
w10055893,6wq7i83dg1,Nick_Dissertation_EX1,1,242,2020-04-20T17:35:07-07:00,0.30025911331177,3,versionC_stim.csv,READVersionC.csv,"Read Version C","Dissertation, read only version C",OUNCE,BOTH,Study2,U,172,103,Study,User,-,,Study/JOL,"Study Phase2",53,,,-1,-1,,,,1
w10055893,6wq7i83dg1,Nick_Dissertation_EX1,1,243,2020-04-20T17:35:08-07:00,0.47305488586426,3,versionC_stim.csv,READVersionC.csv,"Read Version C","Dissertation, read only version C",SCAR,MAIN,Study2,U,175,104,Study,User,-,,Study/JOL,"Study Phase2",237,,,-1,-1,,,,1
w10055893,6wq7i83dg1,Nick_Dissertation_EX1,1,244,2020-04-20T17:35:08-07:00,0.3426501750946,3,versionC_stim.csv,READVersionC.csv,"Read Version C","Dissertation, read only version C",AIRCRAFT,PLANE,Study2,F,129,155,Study,User,-,,Study/JOL,"Study Phase2",107,,,-1,-1,,,,1
w10055893,6wq7i83dg1,Nick_Dissertation_EX1,1,245,2020-04-20T17:35:09-07:00,0.35443782806396,3,versionC_stim.csv,READVersionC.csv,"Read Version C","Dissertation, read only version C",OBTAIN,MEAT,Study2,U,161,143,Study,User,-,,Study/JOL,"Study Phase2",121,,,-1,-1,,,,1
w10055893,6wq7i83dg1,Nick_Dissertation_EX1,1,246,2020-04-20T17:35:09-07:00,0.31728911399841,3,versionC_stim.csv,READVersionC.csv,"Read Version C","Dissertation, read only version C",JAR,MASON,Study2,S,138,106,Study,User,-,,Study/JOL,"Study Phase2",62,,,-1,-1,,,,1
w10055893,6wq7i83dg1,Nick_Dissertation_EX1,1,247,2020-04-20T17:35:09-07:00,0.51270794868469,3,versionC_stim.csv,READVersionC.csv,"Read Version C","Dissertation, read only version C",PENGUIN,BIRD,Study2,F,119,129,Study,User,-,,Study/JOL,"Study Phase2",78,,,-1,-1,,,,1
w10055893,6wq7i83dg1,Nick_Dissertation_EX1,1,248,2020-04-20T17:35:11-07:00,1.1209070682526,3,versionC_stim.csv,READVersionC.csv,"Read Version C","Dissertation, read only version C",VILLAIN,BAD,Study2,F,118,145,Study,User,-,,Study/JOL,"Study Phase2",718,,,-1,-1,,,,1
w10055893,6wq7i83dg1,Nick_Dissertation_EX1,1,249,2020-04-20T17:35:11-07:00,0.59554290771484,3,versionC_stim.csv,READVersionC.csv,"Read Version C","Dissertation, read only version C",LIE,TRUTH,Study2,S,148,120,Study,User,-,,Study/JOL,"Study Phase2",347,,,-1,-1,,,,1
w10055893,6wq7i83dg1,Nick_Dissertation_EX1,1,250,2020-04-20T17:35:12-07:00,0.70859718322754,3,versionC_stim.csv,READVersionC.csv,"Read Version C","Dissertation, read only version C",DRINK,WATER,Study2,S,143,138,Study,User,-,,Study/JOL,"Study Phase2",472,,,-1,-1,,,,1
w10055893,6wq7i83dg1,Nick_Dissertation_EX1,1,251,2020-04-20T17:35:13-07:00,0.78492498397827,3,versionC_stim.csv,READVersionC.csv,"Read Version C","Dissertation, read only version C",BANG,FUZZY,Study2,U,168,174,Study,User,-,,Study/JOL,"Study Phase2",533,,,-1,-1,,,,1
w10055893,6wq7i83dg1,Nick_Dissertation_EX1,1,252,2020-04-20T17:35:13-07:00,0.68573188781738,3,versionC_stim.csv,READVersionC.csv,"Read Version C","Dissertation, read only version C",DONKEY,MULE,Study2,B,108,114,Study,User,-,,Study/JOL,"Study Phase2",415,,,-1,-1,,,,1
w10055893,6wq7i83dg1,Nick_Dissertation_EX1,1,253,2020-04-20T17:35:14-07:00,0.66428995132446,3,versionC_stim.csv,READVersionC.csv,"Read Version C","Dissertation, read only version C",FLIP,TURN,Study2,F,116,109,Study,User,-,,Study/JOL,"Study Phase2",427,,,-1,-1,,,,1
w10055893,6wq7i83dg1,Nick_Dissertation_EX1,1,254,2020-04-20T17:35:15-07:00,0.65271615982056,3,versionC_stim.csv,READVersionC.csv,"Read Version C","Dissertation, read only version C",EAT,DINE,Study2,B,111,157,Study,User,-,,Study/JOL,"Study Phase2",408,,,-1,-1,,,,1
w10055893,6wq7i83dg1,Nick_Dissertation_EX1,1,255,2020-04-20T17:35:15-07:00,0.67864489555359,3,versionC_stim.csv,READVersionC.csv,"Read Version C","Dissertation, read only version C",RED,CHERRY,Study2,B,104,125,Study,User,-,,Study/JOL,"Study Phase2",452,,,-1,-1,,,,1
w10055893,6wq7i83dg1,Nick_Dissertation_EX1,1,256,2020-04-20T17:35:16-07:00,0.93759608268738,3,versionC_stim.csv,READVersionC.csv,"Read Version C","Dissertation, read only version C",TAN,SUN,Study2,S,155,134,Study,User,-,,Study/JOL,"Study Phase2",576,,,-1,-1,,,,1
w10055893,6wq7i83dg1,Nick_Dissertation_EX1,1,257,2020-04-20T17:35:17-07:00,0.83385896682739,3,versionC_stim.csv,READVersionC.csv,"Read Version C","Dissertation, read only version C",COMMUNICATION,PHONE,Study2,S,149,173,Study,User,-,,Study/JOL,"Study Phase2",560,,,-1,-1,,,,1
w10055893,6wq7i83dg1,Nick_Dissertation_EX1,1,258,2020-04-20T17:35:18-07:00,0.76638889312744,3,versionC_stim.csv,READVersionC.csv,"Read Version C","Dissertation, read only version C",TOIL,LEASE,Study2,U,170,156,Study,User,-,,Study/JOL,"Study Phase2",474,,,-1,-1,,,,1
w10055893,6wq7i83dg1,Nick_Dissertation_EX1,1,259,2020-04-20T17:35:19-07:00,1.6340391635895,3,versionC_stim.csv,READVersionC.csv,"Read Version C","Dissertation, read only version C",CLOTHES,CAKE,Study2,U,166,119,Study,User,-,,Study/JOL,"Study Phase2",1139,,,-1,-1,,,,1
w10055893,6wq7i83dg1,Nick_Dissertation_EX1,1,260,2020-04-20T17:35:21-07:00,1.5387589931488,3,versionC_stim.csv,READVersionC.csv,"Read Version C","Dissertation, read only version C",BRACELET,WRIST,Study2,S,140,151,Study,User,-,,Study/JOL,"Study Phase2",1183,,,-1,-1,,,,1
w10055893,6wq7i83dg1,Nick_Dissertation_EX1,1,261,2020-04-20T17:35:23-07:00,1.6619429588318,3,versionC_stim.csv,READVersionC.csv,"Read Version C","Dissertation, read only version C",WEAKS,DAYS,BUFFER4,Buffer,176,177,Study,User,-,,Study/JOL,BUFFER4,1337,,,-1,-1,,,,1
w10055893,6wq7i83dg1,Nick_Dissertation_EX1,1,262,2020-04-20T17:35:24-07:00,0.94841194152832,3,versionC_stim.csv,READVersionC.csv,"Read Version C","Dissertation, read only version C",YEAR,MONTH,BUFFER4,Buffer,177,179,Study,User,-,,Study/JOL,BUFFER4,692,,,-1,-1,,,,1
w10055893,6wq7i83dg1,Nick_Dissertation_EX1,1,263,2020-04-20T17:35:25-07:00,0.90724110603333,3,versionC_stim.csv,READVersionC.csv,"Read Version C","Dissertation, read only version C",SHED,TOOL,BUFFER4,Buffer,178,181,Study,User,-,,Study/JOL,BUFFER4,680,,,-1,-1,,,,1
w10055893,6wq7i83dg1,Nick_Dissertation_EX1,1,264,2020-04-20T17:35:26-07:00,1.1787528991699,3,versionC_stim.csv,READVersionC.csv,"Read Version C","Dissertation, read only version C",SPOOKY,OCTOBER,BUFFER4,Buffer,180,178,Study,User,-,,Study/JOL,BUFFER4,949,,,-1,-1,,,,1
w10055893,6wq7i83dg1,Nick_Dissertation_EX1,1,265,2020-04-20T17:35:26-07:00,0.73969912528992,3,versionC_stim.csv,READVersionC.csv,"Read Version C","Dissertation, read only version C",MARCH,SPRING,BUFFER4,Buffer,179,180,Study,User,-,,Study/JOL,BUFFER4,512,,,-1,-1,,,,1
w10055893,6wq7i83dg1,Nick_Dissertation_EX1,1,266,2020-04-20T17:35:29-07:00,2.5572948455811,3,versionC_stim.csv,READVersionC.csv,"Read Version C","Dissertation, read only version C",,,,,,0,Instruct,User,-,"You have completed this section. Please press Enter.",Filler_Instruction,Instruct5,2262,,,-1,-1,,,,1
w10055893,6wq7i83dg1,Nick_Dissertation_EX1,1,267,2020-04-20T17:37:29-07:00,120.37523293495,3,versionC_stim.csv,READVersionC.csv,"Read Version C","Dissertation, read only version C",,,,,,0,FreeRecall,120,120,"Please list the 50 US states in reverse alphabetical order (z - a). The task will automatically advance to the next screen after two minutes.",,Filler2,120002,"North Carolina North Dakota Ohio Oklahoma Oregon Pennsylvania Rhode Island South Carolina South Dakota Tennessee Texas Utah Vermont Virginia Wyoming Wisconsin West Virginia Washington virginia Vermont Utah texas Tennessee Tennessee Texas Utah Vermont Virginia",0,40541,118883,0,0,,0.987
w10055893,6wq7i83dg1,Nick_Dissertation_EX1,1,268,2020-04-20T17:37:41-07:00,11.297361135483,3,versionC_stim.csv,READVersionC.csv,"Read Version C","Dissertation, read only version C",,,,,,0,Instruct,-,10,"You will now be presented with the first word from each of the previously studied item pairs. Please type the missing word. If you do not know the word, you may guess or press Enter to skip forward to the next pair.",,Instruct6,10862,,,-1,-1,,,,1
w10055893,6wq7i83dg1,Nick_Dissertation_EX1,1,269,2020-04-20T17:37:46-07:00,5.739706993103,3,versionC_stim.csv,READVersionC.csv,"Read Version C","Dissertation, read only version C",PAPER,DOCUMENT,Study2,B,109,107,Test,User,-,,Recall,Recall2,5177,cut,54.545454545455,3512,3887,0,0,,1
w10055893,6wq7i83dg1,Nick_Dissertation_EX1,1,270,2020-04-20T17:37:51-07:00,4.2465720176697,3,versionC_stim.csv,READVersionC.csv,"Read Version C","Dissertation, read only version C",GAME,CLUE,Study2,B,97,149,Test,User,-,,Recall,Recall2,3799,board,0,2587,3680,0,0,,1
w10055893,6wq7i83dg1,Nick_Dissertation_EX1,1,271,2020-04-20T17:37:55-07:00,3.901242017746,3,versionC_stim.csv,READVersionC.csv,"Read Version C","Dissertation, read only version C",EAT,DINE,Study2,B,111,157,Test,User,-,,Recall,Recall2,3382,food,25,2621,3051,0,0,,1
w10055893,6wq7i83dg1,Nick_Dissertation_EX1,1,272,2020-04-20T17:37:58-07:00,3.0912899971008,3,versionC_stim.csv,READVersionC.csv,"Read Version C","Dissertation, read only version C",SHAKE,Shell,Study2,U,163,100,Test,User,-,,Recall,Recall2,2254,shell,100,1336,1989,1,1,,1
w10055893,6wq7i83dg1,Nick_Dissertation_EX1,1,273,2020-04-20T17:38:00-07:00,2.0058238506317,3,versionC_stim.csv,READVersionC.csv,"Read Version C","Dissertation, read only version C",OBTAIN,MEAT,Study2,U,161,143,Test,User,-,,Recall,Recall2,1682,,0,-1,-1,0,0,,1
w10055893,6wq7i83dg1,Nick_Dissertation_EX1,1,274,2020-04-20T17:38:03-07:00,3.1880481243134,3,versionC_stim.csv,READVersionC.csv,"Read Version C","Dissertation, read only version C",WINDSHIELD,CAR,Study2,F,117,176,Test,User,-,,Recall,Recall2,2884,break,25,1696,2560,0,0,,1
w10055893,6wq7i83dg1,Nick_Dissertation_EX1,1,275,2020-04-20T17:38:07-07:00,3.8328459262848,3,versionC_stim.csv,READVersionC.csv,"Read Version C","Dissertation, read only version C",SCISSORS,SHEARS,Study2,B,112,154,Test,User,-,,Recall,Recall2,2278,cut,0,1349,1647,0,0,,1
w10055893,6wq7i83dg1,Nick_Dissertation_EX1,1,276,2020-04-20T17:38:11-07:00,4.7939209938049,3,versionC_stim.csv,READVersionC.csv,"Read Version C","Dissertation, read only version C",CLEAR,MOAT,Study2,U,169,139,Test,User,-,,Recall,Recall2,3263,moat,100,2343,3062,1,1,,1
w10055893,6wq7i83dg1,Nick_Dissertation_EX1,1,277,2020-04-20T17:38:15-07:00,3.6209499835968,3,versionC_stim.csv,READVersionC.csv,"Read Version C","Dissertation, read only version C",SCAR,MAIN,Study2,U,175,104,Test,User,-,,Recall,Recall2,3298,arm,28.571428571429,2482,2917,0,0,,1
w10055893,6wq7i83dg1,Nick_Dissertation_EX1,1,278,2020-04-20T17:38:18-07:00,2.7460379600525,3,versionC_stim.csv,READVersionC.csv,"Read Version C","Dissertation, read only version C",MYSTERY,DETECTIVE,Study2,B,100,115,Test,User,-,,Recall,Recall2,2441,,0,-1,-1,0,0,,1
w10055893,6wq7i83dg1,Nick_Dissertation_EX1,1,279,2020-04-20T17:38:20-07:00,2.2939112186432,3,versionC_stim.csv,READVersionC.csv,"Read Version C","Dissertation, read only version C",COMMUNICATION,PHONE,Study2,S,149,173,Test,User,-,,Recall,Recall2,1966,,0,-1,-1,0,0,,1
w10055893,6wq7i83dg1,Nick_Dissertation_EX1,1,280,2020-04-20T17:38:23-07:00,2.8573307991028,3,versionC_stim.csv,READVersionC.csv,"Read Version C","Dissertation, read only version C",MAROON,JUSTICE,Study2,U,156,166,Test,User,-,,Recall,Recall2,1557,,0,-1,-1,0,0,,1
w10055893,6wq7i83dg1,Nick_Dissertation_EX1,1,281,2020-04-20T17:38:27-07:00,3.8271660804749,3,versionC_stim.csv,READVersionC.csv,"Read Version C","Dissertation, read only version C",CUT,CHOP,Study2,B,107,146,Test,User,-,,Recall,Recall2,3489,paper,22.222222222222,2708,3282,0,0,,1
w10055893,6wq7i83dg1,Nick_Dissertation_EX1,1,282,2020-04-20T17:38:33-07:00,6.2122220993042,3,versionC_stim.csv,READVersionC.csv,"Read Version C","Dissertation, read only version C",BRACELET,WRIST,Study2,S,140,151,Test,User,-,,Recall,Recall2,4878,wrist,100,3698,4750,1,1,,1
w10055893,6wq7i83dg1,Nick_Dissertation_EX1,1,283,2020-04-20T17:38:36-07:00,3.4523448944092,3,versionC_stim.csv,READVersionC.csv,"Read Version C","Dissertation, read only version C",COLD,CHILL,Study2,B,114,101,Test,User,-,,Recall,Recall2,3146,flu,25,2416,2904,0,0,,1
w10055893,6wq7i83dg1,Nick_Dissertation_EX1,1,284,2020-04-20T17:38:44-07:00,7.150365114212,3,versionC_stim.csv,READVersionC.csv,"Read Version C","Dissertation, read only version C",THIMBLE,THREAD,Study2,F,121,152,Test,User,-,,Recall,Recall2,6826,needle,33.333333333333,3269,6574,0,0,,1
w10055893,6wq7i83dg1,Nick_Dissertation_EX1,1,285,2020-04-20T17:38:46-07:00,2.3165938854218,3,versionC_stim.csv,READVersionC.csv,"Read Version C","Dissertation, read only version C",BRAWL,FIGHT,Study2,F,135,123,Test,User,-,,Recall,Recall2,1993,,0,-1,-1,0,0,,1
w10055893,6wq7i83dg1,Nick_Dissertation_EX1,1,286,2020-04-20T17:38:50-07:00,4.3457329273224,3,versionC_stim.csv,READVersionC.csv,"Read Version C","Dissertation, read only version C",ELECTION,MAZE,Study2,U,159,171,Test,User,-,,Recall,Recall2,4012,vote,25,3098,3874,0,0,,1
w10055893,6wq7i83dg1,Nick_Dissertation_EX1,1,287,2020-04-20T17:38:54-07:00,3.5477900505066,3,versionC_stim.csv,READVersionC.csv,"Read Version C","Dissertation, read only version C",Morning,TEMPERATURE,Study2,U,173,141,Test,User,-,,Recall,Recall2,3238,night,12.5,1759,3084,0,0,,1
w10055893,6wq7i83dg1,Nick_Dissertation_EX1,1,288,2020-04-20T17:38:58-07:00,4.5251760482788,3,versionC_stim.csv,READVersionC.csv,"Read Version C","Dissertation, read only version C",CLOTH,STRETCH,Study2,U,157,163,Test,User,-,,Recall,Recall2,4225,,0,-1,-1,0,0,,1
w10055893,6wq7i83dg1,Nick_Dissertation_EX1,1,289,2020-04-20T17:39:02-07:00,3.1580538749695,3,versionC_stim.csv,READVersionC.csv,"Read Version C","Dissertation, read only version C",COFFIN,DEAD,Study2,F,128,122,Test,User,-,,Recall,Recall2,2803,dead,100,1716,2287,1,1,,1
w10055893,6wq7i83dg1,Nick_Dissertation_EX1,1,290,2020-04-20T17:39:04-07:00,2.5413241386414,3,versionC_stim.csv,READVersionC.csv,"Read Version C","Dissertation, read only version C",BANKER,MONEY,Study2,F,132,161,Test,User,-,,Recall,Recall2,2222,,0,-1,-1,0,0,,1
w10055893,6wq7i83dg1,Nick_Dissertation_EX1,1,291,2020-04-20T17:39:09-07:00,4.5516619682312,3,versionC_stim.csv,READVersionC.csv,"Read Version C","Dissertation, read only version C",END,ADJOURN,Study2,B,101,117,Test,User,-,,Recall,Recall2,3120,,0,-1,-1,0,0,,1
w10055893,6wq7i83dg1,Nick_Dissertation_EX1,1,292,2020-04-20T17:39:14-07:00,5.2016470432281,3,versionC_stim.csv,READVersionC.csv,"Read Version C","Dissertation, read only version C",OUNCE,BOTH,Study2,U,172,103,Test,User,-,,Recall,Recall2,4542,pound,22.222222222222,2036,4146,0,0,,1
w10055893,6wq7i83dg1,Nick_Dissertation_EX1,1,293,2020-04-20T17:39:20-07:00,6.063127040863,3,versionC_stim.csv,READVersionC.csv,"Read Version C","Dissertation, read only version C",SIGN,LOAN,Study2,U,171,137,Test,User,-,,Recall,Recall2,5738,language,50,3614,5207,0,0,,1
w10055893,6wq7i83dg1,Nick_Dissertation_EX1,1,294,2020-04-20T17:39:34-07:00,14.5110039711,3,versionC_stim.csv,READVersionC.csv,"Read Version C","Dissertation, read only version C",CHILDREN,MIRROR,Study2,U,174,108,Test,User,-,,Recall,Recall2,13492,play,0,11848,12848,0,0,,1
w10055893,6wq7i83dg1,Nick_Dissertation_EX1,1,295,2020-04-20T17:39:39-07:00,4.4567768573761,3,versionC_stim.csv,READVersionC.csv,"Read Version C","Dissertation, read only version C",BALLOON,POP,Study2,F,123,147,Test,User,-,,Recall,Recall2,4115,pop,100,3182,3512,1,1,,1
w10055893,6wq7i83dg1,Nick_Dissertation_EX1,1,296,2020-04-20T17:39:42-07:00,3.1085782051086,3,versionC_stim.csv,READVersionC.csv,"Read Version C","Dissertation, read only version C",TRUTHFUL,HONEST,Study2,F,133,159,Test,User,-,,Recall,Recall2,2766,lie,22.222222222222,2084,2441,0,0,,1
w10055893,6wq7i83dg1,Nick_Dissertation_EX1,1,297,2020-04-20T17:39:47-07:00,5.2409348487854,3,versionC_stim.csv,READVersionC.csv,"Read Version C","Dissertation, read only version C",TAN,SUN,Study2,S,155,134,Test,User,-,,Recall,Recall2,4874,,0,-1,-1,0,0,,1
w10055893,6wq7i83dg1,Nick_Dissertation_EX1,1,298,2020-04-20T17:39:51-07:00,3.5699441432953,3,versionC_stim.csv,READVersionC.csv,"Read Version C","Dissertation, read only version C",TEMPER,TANTRUM,Study2,S,154,167,Test,User,-,,Recall,Recall2,3198,mad,20,2620,3021,0,0,,1
w10055893,6wq7i83dg1,Nick_Dissertation_EX1,1,299,2020-04-20T17:39:55-07:00,4.3358299732208,3,versionC_stim.csv,READVersionC.csv,"Read Version C","Dissertation, read only version C",JOKE,KEYS,Study2,U,165,124,Test,User,-,,Recall,Recall2,2598,funny,22.222222222222,1684,2408,0,0,,1
w10055893,6wq7i83dg1,Nick_Dissertation_EX1,1,300,2020-04-20T17:39:57-07:00,1.7916419506073,3,versionC_stim.csv,READVersionC.csv,"Read Version C","Dissertation, read only version C",PENGUIN,BIRD,Study2,F,119,129,Test,User,-,,Recall,Recall2,1414,,0,-1,-1,0,0,,1
w10055893,6wq7i83dg1,Nick_Dissertation_EX1,1,301,2020-04-20T17:40:01-07:00,3.8027379512787,3,versionC_stim.csv,READVersionC.csv,"Read Version C","Dissertation, read only version C",STRAWBERRY,FRUIT,Study2,F,124,126,Test,User,-,,Recall,Recall2,3482,fruit,100,2475,3069,1,1,,1
w10055893,6wq7i83dg1,Nick_Dissertation_EX1,1,302,2020-04-20T17:40:04-07:00,3.1458179950714,3,versionC_stim.csv,READVersionC.csv,"Read Version C","Dissertation, read only version C",JAR,MASON,Study2,S,138,106,Test,User,-,,Recall,Recall2,2799,can,50,2111,2484,0,0,,1
w10055893,6wq7i83dg1,Nick_Dissertation_EX1,1,303,2020-04-20T17:40:07-07:00,3.214371919632,3,versionC_stim.csv,READVersionC.csv,"Read Version C","Dissertation, read only version C",GROUND,EARTH,Study2,S,144,113,Test,User,-,,Recall,Recall2,2741,hog,25,1676,2301,0,0,,1
w10055893,6wq7i83dg1,Nick_Dissertation_EX1,1,304,2020-04-20T17:40:09-07:00,1.9850511550903,3,versionC_stim.csv,READVersionC.csv,"Read Version C","Dissertation, read only version C",BANG,FUZZY,Study2,U,168,174,Test,User,-,,Recall,Recall2,1596,,0,-1,-1,0,0,,1
w10055893,6wq7i83dg1,Nick_Dissertation_EX1,1,305,2020-04-20T17:40:12-07:00,2.5849168300629,3,versionC_stim.csv,READVersionC.csv,"Read Version C","Dissertation, read only version C",NAP,SLEEP,Study2,F,134,97,Test,User,-,,Recall,Recall2,2240,time,22.222222222222,1652,1985,0,0,,1
w10055893,6wq7i83dg1,Nick_Dissertation_EX1,1,306,2020-04-20T17:40:15-07:00,3.2339491844177,3,versionC_stim.csv,READVersionC.csv,"Read Version C","Dissertation, read only version C",FIGHT,FEUD,Study2,B,113,111,Test,User,-,,Recall,Recall2,1263,,0,-1,-1,0,0,,1
w10055893,6wq7i83dg1,Nick_Dissertation_EX1,1,307,2020-04-20T17:40:18-07:00,3.2257599830627,3,versionC_stim.csv,READVersionC.csv,"Read Version C","Dissertation, read only version C",LONELY,ALONE,Study2,S,145,128,Test,User,-,,Recall,Recall2,2786,alone,100,1696,2256,1,1,,1
w10055893,6wq7i83dg1,Nick_Dissertation_EX1,1,308,2020-04-20T17:40:20-07:00,2.1839349269867,3,versionC_stim.csv,READVersionC.csv,"Read Version C","Dissertation, read only version C",PLANT,CACTUS,Study2,B,98,144,Test,User,-,,Recall,Recall2,1546,,0,-1,-1,0,0,,1
w10055893,6wq7i83dg1,Nick_Dissertation_EX1,1,309,2020-04-20T17:40:25-07:00,4.5891020298004,3,versionC_stim.csv,READVersionC.csv,"Read Version C","Dissertation, read only version C",CARBON,ELEMENT,Study2,S,141,172,Test,User,-,,Recall,Recall2,4188,element,100,2748,3733,1,1,,1
w10055893,6wq7i83dg1,Nick_Dissertation_EX1,1,310,2020-04-20T17:40:26-07:00,1.4347229003906,3,versionC_stim.csv,READVersionC.csv,"Read Version C","Dissertation, read only version C",HAVE,OWN,Study2,S,153,164,Test,User,-,,Recall,Recall2,1110,,0,-1,-1,0,0,,1
w10055893,6wq7i83dg1,Nick_Dissertation_EX1,1,311,2020-04-20T17:40:28-07:00,2.1310420036316,3,versionC_stim.csv,READVersionC.csv,"Read Version C","Dissertation, read only version C",PANTHER,CAT,Study2,F,126,127,Test,User,-,,Recall,Recall2,1793,,0,-1,-1,0,0,,1
w10055893,6wq7i83dg1,Nick_Dissertation_EX1,1,312,2020-04-20T17:40:33-07:00,4.5265271663666,3,versionC_stim.csv,READVersionC.csv,"Read Version C","Dissertation, read only version C",SHAVE,RAZOR,Study2,S,136,136,Test,User,-,,Recall,Recall2,4188,,0,-1,-1,0,0,,1
w10055893,6wq7i83dg1,Nick_Dissertation_EX1,1,313,2020-04-20T17:40:36-07:00,2.5512309074402,3,versionC_stim.csv,READVersionC.csv,"Read Version C","Dissertation, read only version C",LONG,EXTENSION,Study2,B,96,140,Test,User,-,,Recall,Recall2,1997,hair,15.384615384615,1420,1833,0,0,,1
w10055893,6wq7i83dg1,Nick_Dissertation_EX1,1,314,2020-04-20T17:40:38-07:00,2.6739981174469,3,versionC_stim.csv,READVersionC.csv,"Read Version C","Dissertation, read only version C",CAR,DRIVER,Study2,B,106,168,Test,User,-,,Recall,Recall2,2003,wash,0,1126,1887,0,0,,1
w10055893,6wq7i83dg1,Nick_Dissertation_EX1,1,315,2020-04-20T17:40:40-07:00,1.8301658630371,3,versionC_stim.csv,READVersionC.csv,"Read Version C","Dissertation, read only version C",NOISE,LOUD,Study2,S,152,98,Test,User,-,,Recall,Recall2,1221,,0,-1,-1,0,0,,1
w10055893,6wq7i83dg1,Nick_Dissertation_EX1,1,316,2020-04-20T17:40:42-07:00,1.5742931365967,3,versionC_stim.csv,READVersionC.csv,"Read Version C","Dissertation, read only version C",LOVE,AFFECTION,Study2,B,115,130,Test,User,-,,Recall,Recall2,1242,,0,-1,-1,0,0,,1
w10055893,6wq7i83dg1,Nick_Dissertation_EX1,1,317,2020-04-20T17:40:43-07:00,1.1661539077759,3,versionC_stim.csv,READVersionC.csv,"Read Version C","Dissertation, read only version C",ACTRESS,STAR,Study2,F,120,158,Test,User,-,,Recall,Recall2,891,,0,-1,-1,0,0,,1
w10055893,6wq7i83dg1,Nick_Dissertation_EX1,1,318,2020-04-20T17:40:47-07:00,4.5362329483032,3,versionC_stim.csv,READVersionC.csv,"Read Version C","Dissertation, read only version C",EQUAL,RIGHTS,Study2,S,137,175,Test,User,-,,Recall,Recall2,4219,rights,100,1794,3363,1,1,,1
w10055893,6wq7i83dg1,Nick_Dissertation_EX1,1,319,2020-04-20T17:40:49-07:00,1.5023469924927,3,versionC_stim.csv,READVersionC.csv,"Read Version C","Dissertation, read only version C",VILLAIN,BAD,Study2,F,118,145,Test,User,-,,Recall,Recall2,1187,,0,-1,-1,0,0,,1
w10055893,6wq7i83dg1,Nick_Dissertation_EX1,1,320,2020-04-20T17:40:57-07:00,7.9003901481628,3,versionC_stim.csv,READVersionC.csv,"Read Version C","Dissertation, read only version C",TICK,FLEA,Study2,S,151,160,Test,User,-,,Recall,Recall2,7412,flee,75,5528,5947,0,1,,1
w10055893,6wq7i83dg1,Nick_Dissertation_EX1,1,321,2020-04-20T17:40:59-07:00,1.9887869358063,3,versionC_stim.csv,READVersionC.csv,"Read Version C","Dissertation, read only version C",HATE,NAME,Study2,U,167,148,Test,User,-,,Recall,Recall2,1478,,0,-1,-1,0,0,,1
w10055893,6wq7i83dg1,Nick_Dissertation_EX1,1,322,2020-04-20T17:41:03-07:00,4.0993318557739,3,versionC_stim.csv,READVersionC.csv,"Read Version C","Dissertation, read only version C",FAVORITE,BEST,Study2,F,125,169,Test,User,-,,Recall,Recall2,3744,color,0,2105,3124,0,0,,1
w10055893,6wq7i83dg1,Nick_Dissertation_EX1,1,323,2020-04-20T17:41:05-07:00,1.9632911682129,3,versionC_stim.csv,READVersionC.csv,"Read Version C","Dissertation, read only version C",FICTION,LISTEN,Study2,U,164,153,Test,User,-,,Recall,Recall2,1637,,0,-1,-1,0,0,,1
w10055893,6wq7i83dg1,Nick_Dissertation_EX1,1,324,2020-04-20T17:41:07-07:00,2.6267359256744,3,versionC_stim.csv,READVersionC.csv,"Read Version C","Dissertation, read only version C",AWAY,GONE,Study2,S,142,116,Test,User,-,,Recall,Recall2,2304,,0,-1,-1,0,0,,1
w10055893,6wq7i83dg1,Nick_Dissertation_EX1,1,325,2020-04-20T17:41:09-07:00,1.8810789585114,3,versionC_stim.csv,READVersionC.csv,"Read Version C","Dissertation, read only version C",SMELL,INCENSE,Study2,B,110,170,Test,User,-,,Recall,Recall2,1554,,0,-1,-1,0,0,,1
w10055893,6wq7i83dg1,Nick_Dissertation_EX1,1,326,2020-04-20T17:41:10-07:00,1.1493000984192,3,versionC_stim.csv,READVersionC.csv,"Read Version C","Dissertation, read only version C",HEAD,SCALP,Study2,B,105,99,Test,User,-,,Recall,Recall2,875,,0,-1,-1,0,0,,1
w10055893,6wq7i83dg1,Nick_Dissertation_EX1,1,327,2020-04-20T17:41:12-07:00,1.1112940311432,3,versionC_stim.csv,READVersionC.csv,"Read Version C","Dissertation, read only version C",REEL,ROD,Study2,S,150,132,Test,User,-,,Recall,Recall2,855,,0,-1,-1,0,0,,1
w10055893,6wq7i83dg1,Nick_Dissertation_EX1,1,328,2020-04-20T17:41:13-07:00,1.4914989471436,3,versionC_stim.csv,READVersionC.csv,"Read Version C","Dissertation, read only version C",WET,DRY,Study2,S,146,131,Test,User,-,,Recall,Recall2,1182,,0,-1,-1,0,0,,1
w10055893,6wq7i83dg1,Nick_Dissertation_EX1,1,329,2020-04-20T17:41:16-07:00,3.3377170562744,3,versionC_stim.csv,READVersionC.csv,"Read Version C","Dissertation, read only version C",CLOTHES,CAKE,Study2,U,166,119,Test,User,-,,Recall,Recall2,1973,,0,-1,-1,0,0,,1
w10055893,6wq7i83dg1,Nick_Dissertation_EX1,1,330,2020-04-20T17:41:20-07:00,3.6444568634033,3,versionC_stim.csv,READVersionC.csv,"Read Version C","Dissertation, read only version C",LEAGUE,BASEBALL,Study2,F,131,135,Test,User,-,,Recall,Recall2,3321,baseball,100,1817,3066,1,1,,1
w10055893,6wq7i83dg1,Nick_Dissertation_EX1,1,331,2020-04-20T17:41:22-07:00,2.0912470817566,3,versionC_stim.csv,READVersionC.csv,"Read Version C","Dissertation, read only version C",RED,CHERRY,Study2,B,104,125,Test,User,-,,Recall,Recall2,1757,,0,-1,-1,0,0,,1
w10055893,6wq7i83dg1,Nick_Dissertation_EX1,1,332,2020-04-20T17:41:25-07:00,2.6171910762787,3,versionC_stim.csv,READVersionC.csv,"Read Version C","Dissertation, read only version C",STEAK,GIVE,Study2,U,158,110,Test,User,-,,Recall,Recall2,2271,give,100,1724,2123,1,1,,1
w10055893,6wq7i83dg1,Nick_Dissertation_EX1,1,333,2020-04-20T17:41:26-07:00,1.65607380867,3,versionC_stim.csv,READVersionC.csv,"Read Version C","Dissertation, read only version C",DONKEY,MULE,Study2,B,108,114,Test,User,-,,Recall,Recall2,1294,,0,-1,-1,0,0,,1
w10055893,6wq7i83dg1,Nick_Dissertation_EX1,1,334,2020-04-20T17:41:32-07:00,5.8277020454407,3,versionC_stim.csv,READVersionC.csv,"Read Version C","Dissertation, read only version C",BREAKABLE,GLASS,Study2,F,127,102,Test,User,-,,Recall,Recall2,5459,glass,100,4417,5212,1,1,,1
w10055893,6wq7i83dg1,Nick_Dissertation_EX1,1,335,2020-04-20T17:41:35-07:00,2.7354209423065,3,versionC_stim.csv,READVersionC.csv,"Read Version C","Dissertation, read only version C",SARDINE,FISH,Study2,F,130,165,Test,User,-,,Recall,Recall2,2409,fish,100,1712,2052,1,1,,1
w10055893,6wq7i83dg1,Nick_Dissertation_EX1,1,336,2020-04-20T17:41:36-07:00,1.4181261062622,3,versionC_stim.csv,READVersionC.csv,"Read Version C","Dissertation, read only version C",FLIP,TURN,Study2,F,116,109,Test,User,-,,Recall,Recall2,1076,,0,-1,-1,0,0,,1
w10055893,6wq7i83dg1,Nick_Dissertation_EX1,1,337,2020-04-20T17:41:40-07:00,3.3353729248047,3,versionC_stim.csv,READVersionC.csv,"Read Version C","Dissertation, read only version C",TOIL,LEASE,Study2,U,170,156,Test,User,-,,Recall,Recall2,3009,,0,-1,-1,0,0,,1
w10055893,6wq7i83dg1,Nick_Dissertation_EX1,1,338,2020-04-20T17:41:41-07:00,1.4879989624023,3,versionC_stim.csv,READVersionC.csv,"Read Version C","Dissertation, read only version C",WAX,CANDLE,Study2,S,139,133,Test,User,-,,Recall,Recall2,1166,,0,-1,-1,0,0,,1
w10055893,6wq7i83dg1,Nick_Dissertation_EX1,1,339,2020-04-20T17:41:43-07:00,1.5668480396271,3,versionC_stim.csv,READVersionC.csv,"Read Version C","Dissertation, read only version C",TIE,SHOELACE,Study2,B,99,105,Test,User,-,,Recall,Recall2,1206,,0,-1,-1,0,0,,1
w10055893,6wq7i83dg1,Nick_Dissertation_EX1,1,340,2020-04-20T17:41:44-07:00,1.7338089942932,3,versionC_stim.csv,READVersionC.csv,"Read Version C","Dissertation, read only version C",DOG,FURRY,Study2,B,102,142,Test,User,-,,Recall,Recall2,1301,,0,-1,-1,0,0,,1
w10055893,6wq7i83dg1,Nick_Dissertation_EX1,1,341,2020-04-20T17:41:46-07:00,1.5964629650116,3,versionC_stim.csv,READVersionC.csv,"Read Version C","Dissertation, read only version C",LIE,TRUTH,Study2,S,148,120,Test,User,-,,Recall,Recall2,1247,,0,-1,-1,0,0,,1
w10055893,6wq7i83dg1,Nick_Dissertation_EX1,1,342,2020-04-20T17:41:49-07:00,2.7448391914368,3,versionC_stim.csv,READVersionC.csv,"Read Version C","Dissertation, read only version C",SEATBELT,SAFETY,Study2,S,147,150,Test,User,-,,Recall,Recall2,2403,car,22.222222222222,1781,2272,0,0,,1
w10055893,6wq7i83dg1,Nick_Dissertation_EX1,1,343,2020-04-20T17:41:50-07:00,1.6587908267975,3,versionC_stim.csv,READVersionC.csv,"Read Version C","Dissertation, read only version C",TRASH,LITTER,Study2,B,103,162,Test,User,-,,Recall,Recall2,1289,,0,-1,-1,0,0,,1
w10055893,6wq7i83dg1,Nick_Dissertation_EX1,1,344,2020-04-20T17:41:58-07:00,7.7433431148529,3,versionC_stim.csv,READVersionC.csv,"Read Version C","Dissertation, read only version C",ABLE,CRACKLE,Study2,U,162,118,Test,User,-,,Recall,Recall2,7421,contain,28.571428571429,4854,6934,0,0,,1
w10055893,6wq7i83dg1,Nick_Dissertation_EX1,1,345,2020-04-20T17:42:01-07:00,2.7005679607391,3,versionC_stim.csv,READVersionC.csv,"Read Version C","Dissertation, read only version C",REVENGE,EVEN,Study2,F,122,112,Test,User,-,,Recall,Recall2,2370,even,100,1655,2011,1,1,,1
w10055893,6wq7i83dg1,Nick_Dissertation_EX1,1,346,2020-04-20T17:42:03-07:00,2.0823240280151,3,versionC_stim.csv,READVersionC.csv,"Read Version C","Dissertation, read only version C",CHARM,VEHICLE,Study2,U,160,121,Test,User,-,,Recall,Recall2,1736,,0,-1,-1,0,0,,1
w10055893,6wq7i83dg1,Nick_Dissertation_EX1,1,347,2020-04-20T17:42:06-07:00,3.0764899253845,3,versionC_stim.csv,READVersionC.csv,"Read Version C","Dissertation, read only version C",AIRCRAFT,PLANE,Study2,F,129,155,Test,User,-,,Recall,Recall2,2711,,0,-1,-1,0,0,,1
w10055893,6wq7i83dg1,Nick_Dissertation_EX1,1,348,2020-04-20T17:42:07-07:00,1.3606071472168,3,versionC_stim.csv,READVersionC.csv,"Read Version C","Dissertation, read only version C",DRINK,WATER,Study2,S,143,138,Test,User,-,,Recall,Recall2,1013,,0,-1,-1,0,0,,1
w10055893,6wq7i83dg1,Nick_Dissertation_EX1,1,349,2020-04-20T17:42:11-07:00,3.2350358963013,3,versionC_stim.csv,READVersionC.csv,"Read Version C","Dissertation, read only version C",,,,,,0,Instruct,User,-,"You have completed this section. Please press Enter.",,Instruct7,2859,,,-1,-1,,,,1
w10055893,6wq7i83dg1,Nick_Dissertation_EX1,1,350,2020-04-20T17:42:15-07:00,4.3091380596161,3,versionC_stim.csv,READVersionC.csv,"Read Version C","Dissertation, read only version C",,,,,,0,Instruct,User,-,"The following screen will ask you a few questions abour your experience today. You must complete these questions to receive credit.",,Instruct8,3932,,,-1,-1,,,,1
