"Trial.ID","Sub.ID","Condition.Number","Condition.Description","Stimuli.Cue","Stimuli.Answer","Stimuli.Shuffle","Stimuli.Stimuli.Notes","JAM.RT","Response.JOL","Response.RT.1","Responses","Response.Accuracy","Answer","Scored"
1,"5eb5a8cb24edf10dc07e97c0",9,"JAM Version A","ALLOW","tuck","Study1","U",3365,NA,2534,"dont",25,"tuck",0
1,"w10103818",9,"JAM Version A","ALLOW","tuck","Study1","U",3610,"50",3093,"dont",25,"tuck",0
1,"w218848BM",9,"JAM Version A","ALLOW","tuck","Study1","U",2315,"0",3128,"take",50,"tuck",0
1,"w10088817_XD",9,"JAM Version A","ALLOW","tuck","Study1","U",4792,"15",1901,"",0,"tuck",0
1,"5eca602581b3801c9f178cec",9,"JAM Version A","ALLOW","tuck","Study1","U",3025,"3",7268,"debate",20,"tuck",0
1,"w10098918_eks",9,"JAM Version A","ALLOW","tuck","Study1","U",3820,"3",1744,"",0,"tuck",0
1,"w10059664CB",9,"JAM Version A","ALLOW","tuck","Study1","U",2738,"0",2626,"accept",20,"tuck",0
1,"w10071305_mkt",9,"JAM Version A","ALLOW","tuck","Study1","U",4997,"4",634,"",0,"tuck",0
2,"w218848BM",9,"JAM Version A","ARCHITECTURE","design","Study1","S",1669,"100",3316,"design",100,"design",1
2,"w10098918_eks",9,"JAM Version A","ARCHITECTURE","design","Study1","S",8772,"40",6766,"art",0,"design",0
2,"5eb5a8cb24edf10dc07e97c0",9,"JAM Version A","ARCHITECTURE","design","Study1","S",1004,NA,9002,"build",18.181818181818,"design",0
2,"w10071305_mkt",9,"JAM Version A","ARCHITECTURE","design","Study1","S",2419,"90",2177,"",0,"design",0
2,"w10103818",9,"JAM Version A","ARCHITECTURE","design","Study1","S",5526,"40",3856,"desogner",71.428571428571,"design",0
2,"w10088817_XD",9,"JAM Version A","ARCHITECTURE","design","Study1","S",2206,"100",3641,"art",0,"design",0
2,"5eca602581b3801c9f178cec",9,"JAM Version A","ARCHITECTURE","design","Study1","S",3356,"87",3987,"designb",92.307692307692,"design",1
2,"w10059664CB",9,"JAM Version A","ARCHITECTURE","design","Study1","S",9085,"90",3266,"design",100,"design",1
3,"w218848BM",9,"JAM Version A","ART","lion","Study1","U",6495,"0",9334,"lion",100,"lion",1
3,"w10103818",9,"JAM Version A","ART","lion","Study1","U",2922,"40",9480,"paint ",44.444444444444,"lion",0
3,"w10098918_eks",9,"JAM Version A","ART","lion","Study1","U",3765,"0",3524,"",0,"lion",0
3,"5eb5a8cb24edf10dc07e97c0",9,"JAM Version A","ART","lion","Study1","U",3184,NA,3729,"colours",18.181818181818,"lion",0
3,"w10088817_XD",9,"JAM Version A","ART","lion","Study1","U",4734,"20",1940,"",0,"lion",0
3,"w10059664CB",9,"JAM Version A","ART","lion","Study1","U",5861,"30",8534,"design ",40,"lion",0
3,"w10071305_mkt",9,"JAM Version A","ART","lion","Study1","U",2647,"2",1465,"",0,"lion",0
3,"5eca602581b3801c9f178cec",9,"JAM Version A","ART","lion","Study1","U",3729,"54",2322,"",0,"lion",0
4,"w218848BM",9,"JAM Version A","ARTERY","bronze","Study1","U",20977,"0",2959,"vessel",16.666666666667,"bronze",0
4,"w10088817_XD",9,"JAM Version A","ARTERY","bronze","Study1","U",3277,"10",2102,"",0,"bronze",0
4,"w10059664CB",9,"JAM Version A","ARTERY","bronze","Study1","U",4831,"30",2555,"art",22.222222222222,"bronze",0
4,"w10098918_eks",9,"JAM Version A","ARTERY","bronze","Study1","U",3793,"0",2530,"",0,"bronze",0
4,"5eb5a8cb24edf10dc07e97c0",9,"JAM Version A","ARTERY","bronze","Study1","U",932,NA,9973,"body",40,"bronze",0
4,"5eca602581b3801c9f178cec",9,"JAM Version A","ARTERY","bronze","Study1","U",3099,"1",5563,"bug",22.222222222222,"bronze",0
4,"w10071305_mkt",9,"JAM Version A","ARTERY","bronze","Study1","U",7118,"52",1706,"",0,"bronze",0
4,"w10103818",9,"JAM Version A","ARTERY","bronze","Study1","U",2433,"30",2515,"lawer",18.181818181818,"bronze",0
5,"w10059664CB",9,"JAM Version A","BABY","child","Study1","S",3331,"100",3759,"child",100,"child",1
5,"5eb5a8cb24edf10dc07e97c0",9,"JAM Version A","BABY","child","Study1","S",801,NA,214287,"food",22.222222222222,"child",0
5,"5eca602581b3801c9f178cec",9,"JAM Version A","BABY","child","Study1","S",2904,"3",3344,"child",100,"child",1
5,"w10071305_mkt",9,"JAM Version A","BABY","child","Study1","S",2478,"90",3178,"child",100,"child",1
5,"w10088817_XD",9,"JAM Version A","BABY","child","Study1","S",2705,"100",3104,"",0,"child",0
5,"w10103818",9,"JAM Version A","BABY","child","Study1","S",2344,"90",3866,"kid",50,"child",0
5,"w218848BM",9,"JAM Version A","BABY","child","Study1","S",4319,"50",2872,"child",100,"child",1
5,"w10098918_eks",9,"JAM Version A","BABY","child","Study1","S",5129,"43",5037,"child",100,"child",1
6,"5eca602581b3801c9f178cec",9,"JAM Version A","BALL","racket","Study1","B",3332,"43",3321,"bat",44.444444444444,"racket",0
6,"w10059664CB",9,"JAM Version A","BALL","racket","Study1","B",6901,"89",14049,"park",40,"racket",0
6,"w10103818",9,"JAM Version A","BALL","racket","Study1","B",1929,"45",5341,"game",40,"racket",0
6,"w218848BM",9,"JAM Version A","BALL","racket","Study1","B",2389,"50",5639,"racket",100,"racket",1
6,"w10071305_mkt",9,"JAM Version A","BALL","racket","Study1","B",1524,"90",3658,"catcher",30.769230769231,"racket",0
6,"w10088817_XD",9,"JAM Version A","BALL","racket","Study1","B",4085,"14",7141,"park",40,"racket",0
6,"5eb5a8cb24edf10dc07e97c0",9,"JAM Version A","BALL","racket","Study1","B",5827,NA,2552,"game",40,"racket",0
6,"w10098918_eks",9,"JAM Version A","BALL","racket","Study1","B",6060,"14",2115,"",0,"racket",0
7,"5eb5a8cb24edf10dc07e97c0",9,"JAM Version A","BATHROOM","toilet","Study1","S",519,NA,4083,"toilet",100,"toilet",1
7,"5eca602581b3801c9f178cec",9,"JAM Version A","BATHROOM","toilet","Study1","S",3570,"87",5179,"ceiling ",30.769230769231,"toilet",0
7,"w10059664CB",9,"JAM Version A","BATHROOM","toilet","Study1","S",4806,"100",6976,"toilet ",100,"toilet",1
7,"w218848BM",9,"JAM Version A","BATHROOM","toilet","Study1","S",4351,"100",2897,"toilet",100,"toilet",1
7,"w10098918_eks",9,"JAM Version A","BATHROOM","toilet","Study1","S",3854,"100",3986,"toilet",100,"toilet",1
7,"w10071305_mkt",9,"JAM Version A","BATHROOM","toilet","Study1","S",973,"99",4775,"toilet",100,"toilet",1
7,"w10088817_XD",9,"JAM Version A","BATHROOM","toilet","Study1","S",10635,"85",9848,"restroom",28.571428571429,"toilet",0
7,"w10103818",9,"JAM Version A","BATHROOM","toilet","Study1","S",3205,"80",3497,"bedroom",15.384615384615,"toilet",0
8,"w218848BM",9,"JAM Version A","BEGIN","end","Study1","S",2172,"100",1421,"end",100,"end",1
8,"5eb5a8cb24edf10dc07e97c0",9,"JAM Version A","BEGIN","end","Study1","S",863,NA,4436,"end",100,"end",1
8,"5eca602581b3801c9f178cec",9,"JAM Version A","BEGIN","end","Study1","S",3277,"88",4108,"sentence",36.363636363636,"end",0
8,"w10059664CB",9,"JAM Version A","BEGIN","end","Study1","S",3054,"100",3118,"end",100,"end",1
8,"w10088817_XD",9,"JAM Version A","BEGIN","end","Study1","S",2236,"100",3264,"end",100,"end",1
8,"w10103818",9,"JAM Version A","BEGIN","end","Study1","S",2998,"40",1740,"end",100,"end",1
8,"w10071305_mkt",9,"JAM Version A","BEGIN","end","Study1","S",1813,"90",3354,"start",0,"end",0
8,"w10098918_eks",9,"JAM Version A","BEGIN","end","Study1","S",3432,"100",3184,"start",0,"end",0
9,"w10059664CB",9,"JAM Version A","BITTER","cold","Study1","F",4264,"20",2706,"sweet",0,"cold",0
9,"5eca602581b3801c9f178cec",9,"JAM Version A","BITTER","cold","Study1","F",3723,"76",3173,"sweet",0,"cold",0
9,"w10088817_XD",9,"JAM Version A","BITTER","cold","Study1","F",4940,"82",5443,"sweet",0,"cold",0
9,"w10103818",9,"JAM Version A","BITTER","cold","Study1","F",2903,"30",3335,"sweet",0,"cold",0
9,"w10071305_mkt",9,"JAM Version A","BITTER","cold","Study1","F",4317,"95",4503,"sweet",0,"cold",0
9,"w10098918_eks",9,"JAM Version A","BITTER","cold","Study1","F",4653,"20",1299,"",0,"cold",0
9,"5eb5a8cb24edf10dc07e97c0",9,"JAM Version A","BITTER","cold","Study1","F",894,NA,2778,"sweet",0,"cold",0
9,"w218848BM",9,"JAM Version A","BITTER","cold","Study1","F",4078,"50",3278,"cold",100,"cold",1
10,"w10059664CB",9,"JAM Version A","BLOW","wind","Study1","S",3807,"70",2911,"wind",100,"wind",1
10,"5eca602581b3801c9f178cec",9,"JAM Version A","BLOW","wind","Study1","S",3777,"45",3386,"dry",28.571428571429,"wind",0
10,"w10071305_mkt",9,"JAM Version A","BLOW","wind","Study1","S",3750,"50",6185,"wind",100,"wind",1
10,"w10088817_XD",9,"JAM Version A","BLOW","wind","Study1","S",3409,"100",3149,"wind",100,"wind",1
10,"5eb5a8cb24edf10dc07e97c0",9,"JAM Version A","BLOW","wind","Study1","S",369,NA,47440,"fish",25,"wind",0
10,"w218848BM",9,"JAM Version A","BLOW","wind","Study1","S",3063,"100",5505,"wind",100,"wind",1
10,"w10098918_eks",9,"JAM Version A","BLOW","wind","Study1","S",3369,"60",2134,"wind",100,"wind",1
10,"w10103818",9,"JAM Version A","BLOW","wind","Study1","S",2710,"50",3079,"above",0,"wind",0
11,"w218848BM",9,"JAM Version A","BRIDGE","water","Study1","F",5509,"100",2348,"water",100,"water",1
11,"5eb5a8cb24edf10dc07e97c0",9,"JAM Version A","BRIDGE","water","Study1","F",1162,NA,12228,"tall",22.222222222222,"water",0
11,"5eca602581b3801c9f178cec",9,"JAM Version A","BRIDGE","water","Study1","F",3511,"33",3517,"water",100,"water",1
11,"w10059664CB",9,"JAM Version A","BRIDGE","water","Study1","F",3619,"100",3693,"water",100,"water",1
11,"w10088817_XD",9,"JAM Version A","BRIDGE","water","Study1","F",4439,"95",4023,"water",100,"water",1
11,"w10103818",9,"JAM Version A","BRIDGE","water","Study1","F",5725,"40",4649,"jump",0,"water",0
11,"w10071305_mkt",9,"JAM Version A","BRIDGE","water","Study1","F",2055,"56",2616,"water",100,"water",1
11,"w10098918_eks",9,"JAM Version A","BRIDGE","water","Study1","F",6498,"78",2909,"water",100,"water",1
12,"5eb5a8cb24edf10dc07e97c0",9,"JAM Version A","BUG","wasp","Study1","B",311,NA,86701,"nature",20,"wasp",0
12,"w10088817_XD",9,"JAM Version A","BUG","wasp","Study1","B",6600,"75",8558,"bee",0,"wasp",0
12,"w10103818",9,"JAM Version A","BUG","wasp","Study1","B",781,"60",3055,"dead",25,"wasp",0
12,"5eca602581b3801c9f178cec",9,"JAM Version A","BUG","wasp","Study1","B",3830,"65",1044,"",0,"wasp",0
12,"w10059664CB",9,"JAM Version A","BUG","wasp","Study1","B",5486,"80",5063,"any",28.571428571429,"wasp",0
12,"w10098918_eks",9,"JAM Version A","BUG","wasp","Study1","B",18637,"20",12400,"bee",0,"wasp",0
12,"w218848BM",9,"JAM Version A","BUG","wasp","Study1","B",2708,"50",2357,"wasp",100,"wasp",1
12,"w10071305_mkt",9,"JAM Version A","BUG","wasp","Study1","B",3687,"70",4444,"ant",28.571428571429,"wasp",0
13,"w10103818",9,"JAM Version A","CASH","would","Study1","U",3806,"10",2088,"money",20,"would",0
13,"5eca602581b3801c9f178cec",9,"JAM Version A","CASH","would","Study1","U",3112,"1",3465,"money",20,"would",0
13,"w10059664CB",9,"JAM Version A","CASH","would","Study1","U",4209,"0",6332,"money",20,"would",0
13,"w218848BM",9,"JAM Version A","CASH","would","Study1","U",3741,"0",2988,"money",20,"would",0
13,"5eb5a8cb24edf10dc07e97c0",9,"JAM Version A","CASH","would","Study1","U",431,NA,66263,"out",50,"would",0
13,"w10071305_mkt",9,"JAM Version A","CASH","would","Study1","U",2974,"30",1874,"monehy",18.181818181818,"would",0
13,"w10088817_XD",9,"JAM Version A","CASH","would","Study1","U",13828,"5",1423,"",0,"would",0
13,"w10098918_eks",9,"JAM Version A","CASH","would","Study1","U",8229,"5",2042,"",0,"would",0
14,"w10059664CB",9,"JAM Version A","CHISEL","hammer","Study1","F",4396,"100",3540,"hammer",100,"hammer",1
14,"w10088817_XD",9,"JAM Version A","CHISEL","hammer","Study1","F",2656,"2",1113,"",0,"hammer",0
14,"5eb5a8cb24edf10dc07e97c0",9,"JAM Version A","CHISEL","hammer","Study1","F",627,NA,9789,"hammer",100,"hammer",1
14,"w10071305_mkt",9,"JAM Version A","CHISEL","hammer","Study1","F",2556,"90",6517,"",0,"hammer",0
14,"w10103818",9,"JAM Version A","CHISEL","hammer","Study1","F",957,"60",2051,"",0,"hammer",0
14,"5eca602581b3801c9f178cec",9,"JAM Version A","CHISEL","hammer","Study1","F",4134,"54",3422,"hanner",66.666666666667,"hammer",1
14,"w10098918_eks",9,"JAM Version A","CHISEL","hammer","Study1","F",5966,"65",1226,"",0,"hammer",0
14,"w218848BM",9,"JAM Version A","CHISEL","hammer","Study1","F",5631,"50",2916,"hammer",100,"hammer",1
15,"w10088817_XD",9,"JAM Version A","CIRCLE","round","Study1","S",3706,"100",3353,"round",100,"round",1
15,"w10098918_eks",9,"JAM Version A","CIRCLE","round","Study1","S",4427,"97",10619,"round",100,"round",1
15,"5eb5a8cb24edf10dc07e97c0",9,"JAM Version A","CIRCLE","round","Study1","S",9585,NA,4324,"shape",0,"round",0
15,"5eca602581b3801c9f178cec",9,"JAM Version A","CIRCLE","round","Study1","S",3342,"99",3654,"round",100,"round",1
15,"w10059664CB",9,"JAM Version A","CIRCLE","round","Study1","S",5116,"100",2638,"round",100,"round",1
15,"w218848BM",9,"JAM Version A","CIRCLE","round","Study1","S",1499,"100",2609,"round",100,"round",1
15,"w10103818",9,"JAM Version A","CIRCLE","round","Study1","S",4314,"9",2160,"round",100,"round",1
15,"w10071305_mkt",9,"JAM Version A","CIRCLE","round","Study1","S",1660,"90",2621,"round",100,"round",1
16,"w10059664CB",9,"JAM Version A","CLOTHES","attire","Study1","B",3084,"100",14304,"outfits",30.769230769231,"attire",0
16,"5eb5a8cb24edf10dc07e97c0",9,"JAM Version A","CLOTHES","attire","Study1","B",878,NA,18301,"naked",36.363636363636,"attire",0
16,"5eca602581b3801c9f178cec",9,"JAM Version A","CLOTHES","attire","Study1","B",3458,"65",2961,"wear",20,"attire",0
16,"w10103818",9,"JAM Version A","CLOTHES","attire","Study1","B",2092,"30",3343,"jeans",18.181818181818,"attire",0
16,"w10071305_mkt",9,"JAM Version A","CLOTHES","attire","Study1","B",3306,"45",1136,"",0,"attire",0
16,"w10088817_XD",9,"JAM Version A","CLOTHES","attire","Study1","B",1929,"100",1873,"",0,"attire",0
16,"w218848BM",9,"JAM Version A","CLOTHES","attire","Study1","B",2658,"100",3624,"attire",100,"attire",1
16,"w10098918_eks",9,"JAM Version A","CLOTHES","attire","Study1","B",20280,"35",3391,"",0,"attire",0
17,"w10059664CB",9,"JAM Version A","CREDIT","card","Study1","F",4123,"100",3235,"card",100,"card",1
17,"w10071305_mkt",9,"JAM Version A","CREDIT","card","Study1","F",6643,"90",1970,"card",100,"card",1
17,"w10088817_XD",9,"JAM Version A","CREDIT","card","Study1","F",2027,"100",2832,"card",100,"card",1
17,"5eca602581b3801c9f178cec",9,"JAM Version A","CREDIT","card","Study1","F",3444,"87",3042,"card",100,"card",1
17,"w10103818",9,"JAM Version A","CREDIT","card","Study1","F",5453,"90",2680,"card",100,"card",1
17,"5eb5a8cb24edf10dc07e97c0",9,"JAM Version A","CREDIT","card","Study1","F",1274,NA,3592,"card",100,"card",1
17,"w10098918_eks",9,"JAM Version A","CREDIT","card","Study1","F",3100,"100",2517,"card",100,"card",1
17,"w218848BM",9,"JAM Version A","CREDIT","card","Study1","F",1839,"100",1796,"card",100,"card",1
18,"w10059664CB",9,"JAM Version A","DARK","cave","Study1","B",11076,"30",3736,"cave",100,"cave",1
18,"w10071305_mkt",9,"JAM Version A","DARK","cave","Study1","B",1471,"90",2213,"cave",100,"cave",1
18,"w10088817_XD",9,"JAM Version A","DARK","cave","Study1","B",2972,"100",4510,"",0,"cave",0
18,"5eb5a8cb24edf10dc07e97c0",9,"JAM Version A","DARK","cave","Study1","B",1831,NA,4220,"light",0,"cave",0
18,"5eca602581b3801c9f178cec",9,"JAM Version A","DARK","cave","Study1","B",4082,"55",3331,"lihht",0,"cave",0
18,"w218848BM",9,"JAM Version A","DARK","cave","Study1","B",3359,"100",4672,"light",0,"cave",0
18,"w10098918_eks",9,"JAM Version A","DARK","cave","Study1","B",5434,"1",2668,"cave",100,"cave",1
18,"w10103818",9,"JAM Version A","DARK","cave","Study1","B",3109,"60",2999,"light",0,"cave",0
19,"w10103818",9,"JAM Version A","DEATH","business","Study1","U",2528,"60",2760,"alive",30.769230769231,"business",0
19,"5eb5a8cb24edf10dc07e97c0",9,"JAM Version A","DEATH","business","Study1","U",62012,NA,18095,"business",100,"business",1
19,"5eca602581b3801c9f178cec",9,"JAM Version A","DEATH","business","Study1","U",2970,"2",3669,"butth",30.769230769231,"business",0
19,"w10059664CB",9,"JAM Version A","DEATH","business","Study1","U",3551,"0",3111,"life",33.333333333333,"business",0
19,"w218848BM",9,"JAM Version A","DEATH","business","Study1","U",1415,"0",4961,"funeral",40,"business",0
19,"w10071305_mkt",9,"JAM Version A","DEATH","business","Study1","U",2057,"60",1356,"",0,"business",0
19,"w10088817_XD",9,"JAM Version A","DEATH","business","Study1","U",2908,"1",2495,"",0,"business",0
19,"w10098918_eks",9,"JAM Version A","DEATH","business","Study1","U",4970,"0",12508,"business",100,"business",1
20,"w10059664CB",9,"JAM Version A","DEBATE","sight","Study1","U",3581,"29",2570,"team",22.222222222222,"sight",0
20,"5eca602581b3801c9f178cec",9,"JAM Version A","DEBATE","sight","Study1","U",3231,"44",4860,"discussion",26.666666666667,"sight",0
20,"w10088817_XD",9,"JAM Version A","DEBATE","sight","Study1","U",35385,"15",1926,"",0,"sight",0
20,"w10071305_mkt",9,"JAM Version A","DEBATE","sight","Study1","U",4677,"2",990,"",0,"sight",0
20,"w10103818",9,"JAM Version A","DEBATE","sight","Study1","U",1108,"20",2851,"argue",20,"sight",0
20,"5eb5a8cb24edf10dc07e97c0",9,"JAM Version A","DEBATE","sight","Study1","U",881,NA,5300,"argue",20,"sight",0
20,"w10098918_eks",9,"JAM Version A","DEBATE","sight","Study1","U",4314,"45",3801,"talk",22.222222222222,"sight",0
20,"w218848BM",9,"JAM Version A","DEBATE","sight","Study1","U",1896,"0",4007,"discuss",16.666666666667,"sight",0
21,"w10059664CB",9,"JAM Version A","DELINQUENT","bad","Study1","F",6113,"100",2290,"bad",100,"bad",1
21,"w10071305_mkt",9,"JAM Version A","DELINQUENT","bad","Study1","F",3430,"50",1720,"",0,"bad",0
21,"w10098918_eks",9,"JAM Version A","DELINQUENT","bad","Study1","F",17142,"0",1067,"",0,"bad",0
21,"w10088817_XD",9,"JAM Version A","DELINQUENT","bad","Study1","F",6103,"52",1438,"",0,"bad",0
21,"5eb5a8cb24edf10dc07e97c0",9,"JAM Version A","DELINQUENT","bad","Study1","F",2073,NA,4405,"person",0,"bad",0
21,"5eca602581b3801c9f178cec",9,"JAM Version A","DELINQUENT","bad","Study1","F",3302,"65",4719,"naughty",20,"bad",0
21,"w218848BM",9,"JAM Version A","DELINQUENT","bad","Study1","F",3049,"50",1695,"bad",100,"bad",1
21,"w10103818",9,"JAM Version A","DELINQUENT","bad","Study1","F",3000,"40",5079,"teen",0,"bad",0
22,"5eca602581b3801c9f178cec",9,"JAM Version A","DIETARY","sacking","Study1","U",3818,"4",6746,"nutrition",12.5,"sacking",0
22,"w10059664CB",9,"JAM Version A","DIETARY","sacking","Study1","U",5164,"0",14096,"nutrition",12.5,"sacking",0
22,"5eb5a8cb24edf10dc07e97c0",9,"JAM Version A","DIETARY","sacking","Study1","U",832,NA,5934,"food",0,"sacking",0
22,"w10088817_XD",9,"JAM Version A","DIETARY","sacking","Study1","U",3607,"5",2106,"",0,"sacking",0
22,"w10103818",9,"JAM Version A","DIETARY","sacking","Study1","U",3698,"40",7195,"snack",66.666666666667,"sacking",0
22,"w10071305_mkt",9,"JAM Version A","DIETARY","sacking","Study1","U",4540,"40",2664,"",0,"sacking",0
22,"w10098918_eks",9,"JAM Version A","DIETARY","sacking","Study1","U",4425,"40",1431,"",0,"sacking",0
22,"w218848BM",9,"JAM Version A","DIETARY","sacking","Study1","U",2397,"0",5842,"eat",20,"sacking",0
23,"w10059664CB",9,"JAM Version A","DIGESTION","stomach","Study1","F",4390,"100",4013,"stomach",100,"stomach",1
23,"w10071305_mkt",9,"JAM Version A","DIGESTION","stomach","Study1","F",2957,"90",2374,"stomach",100,"stomach",1
23,"5eca602581b3801c9f178cec",9,"JAM Version A","DIGESTION","stomach","Study1","F",3936,"88",2593,"",0,"stomach",0
23,"w10103818",9,"JAM Version A","DIGESTION","stomach","Study1","F",3747,"20",4534,"stomach",100,"stomach",1
23,"w10088817_XD",9,"JAM Version A","DIGESTION","stomach","Study1","F",2819,"100",1531,"",0,"stomach",0
23,"w10098918_eks",9,"JAM Version A","DIGESTION","stomach","Study1","F",4038,"12",858,"",0,"stomach",0
23,"w218848BM",9,"JAM Version A","DIGESTION","stomach","Study1","F",2531,"100",4764,"stomach",100,"stomach",1
23,"5eb5a8cb24edf10dc07e97c0",9,"JAM Version A","DIGESTION","stomach","Study1","F",3162,NA,38669,"food",18.181818181818,"stomach",0
24,"w10059664CB",9,"JAM Version A","DISCOVER","floor","Study1","U",2934,"0",3041,"card",22.222222222222,"floor",0
24,"5eb5a8cb24edf10dc07e97c0",9,"JAM Version A","DISCOVER","floor","Study1","U",2294,NA,63750,"new",0,"floor",0
24,"5eca602581b3801c9f178cec",9,"JAM Version A","DISCOVER","floor","Study1","U",3493,"76",3769,"explore",50,"floor",0
24,"w10071305_mkt",9,"JAM Version A","DISCOVER","floor","Study1","U",3345,"32",6239,"",0,"floor",0
24,"w10088817_XD",9,"JAM Version A","DISCOVER","floor","Study1","U",7566,"3",1223,"",0,"floor",0
24,"w10103818",9,"JAM Version A","DISCOVER","floor","Study1","U",1930,"20",2811,"learn",40,"floor",0
24,"w218848BM",9,"JAM Version A","DISCOVER","floor","Study1","U",2159,"0",2412,"find",22.222222222222,"floor",0
24,"w10098918_eks",9,"JAM Version A","DISCOVER","floor","Study1","U",4637,"30",1801,"",0,"floor",0
25,"5eb5a8cb24edf10dc07e97c0",9,"JAM Version A","DISCUSSION","talk","Study1","F",2510,NA,3742,"talk",100,"talk",1
25,"w10088817_XD",9,"JAM Version A","DISCUSSION","talk","Study1","F",7131,"100",3877,"talk",100,"talk",1
25,"w10103818",9,"JAM Version A","DISCUSSION","talk","Study1","F",3068,"100",26249,"converstaion",25,"talk",0
25,"5eca602581b3801c9f178cec",9,"JAM Version A","DISCUSSION","talk","Study1","F",3616,"33",4616,"debate",20,"talk",0
25,"w10059664CB",9,"JAM Version A","DISCUSSION","talk","Study1","F",6254,"100",2441,"talk",100,"talk",1
25,"w10098918_eks",9,"JAM Version A","DISCUSSION","talk","Study1","F",5944,"20",5364,"talk",100,"talk",1
25,"w218848BM",9,"JAM Version A","DISCUSSION","talk","Study1","F",4015,"10",3877,"talk",100,"talk",1
25,"w10071305_mkt",9,"JAM Version A","DISCUSSION","talk","Study1","F",3685,"80",2611,"post",25,"talk",0
26,"w10103818",9,"JAM Version A","DRINK","sip","Study1","B",3888,"30",2821,"coke",0,"sip",0
26,"5eca602581b3801c9f178cec",9,"JAM Version A","DRINK","sip","Study1","B",3586,"65",3250,"water",0,"sip",0
26,"w10059664CB",9,"JAM Version A","DRINK","sip","Study1","B",3636,"100",4251,"drunk",0,"sip",0
26,"w218848BM",9,"JAM Version A","DRINK","sip","Study1","B",4538,"100",6438,"eat",0,"sip",0
26,"5eb5a8cb24edf10dc07e97c0",9,"JAM Version A","DRINK","sip","Study1","B",2066,NA,2155,"cold",0,"sip",0
26,"w10071305_mkt",9,"JAM Version A","DRINK","sip","Study1","B",2171,"90",2782,"",0,"sip",0
26,"w10088817_XD",9,"JAM Version A","DRINK","sip","Study1","B",3776,"92",3200,"sip",100,"sip",1
26,"w10098918_eks",9,"JAM Version A","DRINK","sip","Study1","B",6832,"30",7716,"",0,"sip",0
27,"w10059664CB",9,"JAM Version A","DUE","assignment","Study1","S",3323,"100",4423,"assignment",100,"assignment",1
27,"w10088817_XD",9,"JAM Version A","DUE","assignment","Study1","S",4094,"20",5573,"assignment",100,"assignment",1
27,"5eb5a8cb24edf10dc07e97c0",9,"JAM Version A","DUE","assignment","Study1","S",875,NA,3333,"date",28.571428571429,"assignment",0
27,"w10071305_mkt",9,"JAM Version A","DUE","assignment","Study1","S",2030,"90",3280,"assignment",100,"assignment",1
27,"w10103818",9,"JAM Version A","DUE","assignment","Study1","S",2410,"2",2022,"date",28.571428571429,"assignment",0
27,"5eca602581b3801c9f178cec",9,"JAM Version A","DUE","assignment","Study1","S",3835,"44",4005,"date",28.571428571429,"assignment",0
27,"w10098918_eks",9,"JAM Version A","DUE","assignment","Study1","S",9909,"50",16175,"assignment",100,"assignment",1
27,"w218848BM",9,"JAM Version A","DUE","assignment","Study1","S",2879,"100",9673,"assignment",100,"assignment",1
28,"w10088817_XD",9,"JAM Version A","DUMP","waste","Study1","S",8555,"98",4889,"trash",40,"waste",0
28,"w10098918_eks",9,"JAM Version A","DUMP","waste","Study1","S",4880,"35",1132,"",0,"waste",0
28,"5eb5a8cb24edf10dc07e97c0",9,"JAM Version A","DUMP","waste","Study1","S",4649,NA,2433,"ground",0,"waste",0
28,"5eca602581b3801c9f178cec",9,"JAM Version A","DUMP","waste","Study1","S",4191,"66",3231,"tip",25,"waste",0
28,"w10059664CB",9,"JAM Version A","DUMP","waste","Study1","S",6504,"100",2776,"waste",100,"waste",1
28,"w218848BM",9,"JAM Version A","DUMP","waste","Study1","S",3153,"0",3198,"waste",100,"waste",1
28,"w10103818",9,"JAM Version A","DUMP","waste","Study1","S",920,"50",4741,"truck",20,"waste",0
28,"w10071305_mkt",9,"JAM Version A","DUMP","waste","Study1","S",5875,"93",2552,"truck",20,"waste",0
29,"w10103818",9,"JAM Version A","EDITOR","news","Study1","F",2532,"40",2980,"writer",20,"news",0
29,"5eca602581b3801c9f178cec",9,"JAM Version A","EDITOR","news","Study1","F",3635,"77",3996,"paper ",22.222222222222,"news",0
29,"w10059664CB",9,"JAM Version A","EDITOR","news","Study1","F",4100,"80",12662,"writer",20,"news",0
29,"w218848BM",9,"JAM Version A","EDITOR","news","Study1","F",3748,"75",35186,"",0,"news",0
29,"w10071305_mkt",9,"JAM Version A","EDITOR","news","Study1","F",3827,"65",1878,"",0,"news",0
29,"w10088817_XD",9,"JAM Version A","EDITOR","news","Study1","F",3271,"20",8997,"",0,"news",0
29,"5eb5a8cb24edf10dc07e97c0",9,"JAM Version A","EDITOR","news","Study1","F",1567,NA,8070,"chief",22.222222222222,"news",0
29,"w10098918_eks",9,"JAM Version A","EDITOR","news","Study1","F",4130,"11",2048,"",0,"news",0
30,"5eb5a8cb24edf10dc07e97c0",9,"JAM Version A","FIRE","blaze","Study1","B",788,NA,4048,"ice",25,"blaze",0
30,"w10059664CB",9,"JAM Version A","FIRE","blaze","Study1","B",3039,"100",4151,"hydride",16.666666666667,"blaze",0
30,"w10088817_XD",9,"JAM Version A","FIRE","blaze","Study1","B",7634,"65",1084,"",0,"blaze",0
30,"w10071305_mkt",9,"JAM Version A","FIRE","blaze","Study1","B",3069,"50",3508,"grill",20,"blaze",0
30,"w10103818",9,"JAM Version A","FIRE","blaze","Study1","B",5433,"50",3621,"fighter",16.666666666667,"blaze",0
30,"5eca602581b3801c9f178cec",9,"JAM Version A","FIRE","blaze","Study1","B",3417,"54",4703,"blanket ",66.666666666667,"blaze",0
30,"w10098918_eks",9,"JAM Version A","FIRE","blaze","Study1","B",2432,"33",2583,"",0,"blaze",0
30,"w218848BM",9,"JAM Version A","FIRE","blaze","Study1","B",6597,"100",4856,"water",40,"blaze",0
31,"w10088817_XD",9,"JAM Version A","FIX","hand","Study1","U",3443,"45",2436,"",0,"hand",0
31,"w10098918_eks",9,"JAM Version A","FIX","hand","Study1","U",3107,"0",1311,"",0,"hand",0
31,"w10103818",9,"JAM Version A","FIX","hand","Study1","U",849,"40",3382,"destroy",18.181818181818,"hand",0
31,"5eca602581b3801c9f178cec",9,"JAM Version A","FIX","hand","Study1","U",2931,"5",3055,"it",0,"hand",0
31,"w10059664CB",9,"JAM Version A","FIX","hand","Study1","U",8960,"0",3498,"hand",100,"hand",1
31,"w218848BM",9,"JAM Version A","FIX","hand","Study1","U",2209,"0",3775,"build",22.222222222222,"hand",0
31,"w10071305_mkt",9,"JAM Version A","FIX","hand","Study1","U",4808,"45",5820,"",0,"hand",0
31,"5eb5a8cb24edf10dc07e97c0",9,"JAM Version A","FIX","hand","Study1","U",3546,NA,3868,"break",22.222222222222,"hand",0
32,"w10059664CB",9,"JAM Version A","FULL","enough","Study1","B",3438,"100",8371,"stuffed",15.384615384615,"enough",0
32,"5eca602581b3801c9f178cec",9,"JAM Version A","FULL","enough","Study1","B",2850,"1",3897,"enough",100,"enough",1
32,"w10071305_mkt",9,"JAM Version A","FULL","enough","Study1","B",2660,"56",807,"",0,"enough",0
32,"w10088817_XD",9,"JAM Version A","FULL","enough","Study1","B",4484,"85",1346,"",0,"enough",0
32,"w10103818",9,"JAM Version A","FULL","enough","Study1","B",1901,"60",44149,"half",20,"enough",0
32,"5eb5a8cb24edf10dc07e97c0",9,"JAM Version A","FULL","enough","Study1","B",1165,NA,4294,"empty",18.181818181818,"enough",0
32,"w10098918_eks",9,"JAM Version A","FULL","enough","Study1","B",4207,"60",754,"",0,"enough",0
32,"w218848BM",9,"JAM Version A","FULL","enough","Study1","B",5040,"100",9518,"empty",18.181818181818,"enough",0
33,"w10088817_XD",9,"JAM Version A","GEOLOGY","rock","Study1","F",3862,"85",19743,"rock",100,"rock",1
33,"w10059664CB",9,"JAM Version A","GEOLOGY","rock","Study1","F",4083,"100",2583,"rock",100,"rock",1
33,"5eb5a8cb24edf10dc07e97c0",9,"JAM Version A","GEOLOGY","rock","Study1","F",1535,NA,14120,"rock",100,"rock",1
33,"w10071305_mkt",9,"JAM Version A","GEOLOGY","rock","Study1","F",4901,"75",2216,"rock",100,"rock",1
33,"w10103818",9,"JAM Version A","GEOLOGY","rock","Study1","F",1136,"50",2915,"rocks",88.888888888889,"rock",1
33,"w10098918_eks",9,"JAM Version A","GEOLOGY","rock","Study1","F",6959,"75",2957,"rock",100,"rock",1
33,"w218848BM",9,"JAM Version A","GEOLOGY","rock","Study1","F",1952,"100",3067,"rocks",88.888888888889,"rock",1
33,"5eca602581b3801c9f178cec",9,"JAM Version A","GEOLOGY","rock","Study1","F",3894,"88",3517,"rocks",88.888888888889,"rock",1
34,"w10088817_XD",9,"JAM Version A","GREAT","fantastic","Study1","B",4066,"70",845,"",0,"fantastic",0
34,"w10059664CB",9,"JAM Version A","GREAT","fantastic","Study1","B",3325,"100",6758,"fantastic ",100,"fantastic",1
34,"w10098918_eks",9,"JAM Version A","GREAT","fantastic","Study1","B",8087,"56",25807,"wonderful",11.111111111111,"fantastic",0
34,"5eb5a8cb24edf10dc07e97c0",9,"JAM Version A","GREAT","fantastic","Study1","B",2344,NA,4677,"cool",15.384615384615,"fantastic",0
34,"w10071305_mkt",9,"JAM Version A","GREAT","fantastic","Study1","B",1615,"99",3973,"fantastic",100,"fantastic",1
34,"w218848BM",9,"JAM Version A","GREAT","fantastic","Study1","B",6723,"100",2531,"good",0,"fantastic",0
34,"w10103818",9,"JAM Version A","GREAT","fantastic","Study1","B",921,"30",2350,"bad",16.666666666667,"fantastic",0
34,"5eca602581b3801c9f178cec",9,"JAM Version A","GREAT","fantastic","Study1","B",4518,"98",3854,"happy",14.285714285714,"fantastic",0
35,"5eca602581b3801c9f178cec",9,"JAM Version A","GRILL","bar","Study1","S",3309,"67",3293,"good",0,"bar",0
35,"w10071305_mkt",9,"JAM Version A","GRILL","bar","Study1","S",2411,"70",4412,"meat",28.571428571429,"bar",0
35,"w10088817_XD",9,"JAM Version A","GRILL","bar","Study1","S",13949,"75",2728,"bar",100,"bar",1
35,"w10103818",9,"JAM Version A","GRILL","bar","Study1","S",5125,"50",2471,"chicken",0,"bar",0
35,"w10059664CB",9,"JAM Version A","GRILL","bar","Study1","S",4272,"70",3443,"bar",100,"bar",1
35,"w10098918_eks",9,"JAM Version A","GRILL","bar","Study1","S",4575,"80",2182,"bar",100,"bar",1
35,"w218848BM",9,"JAM Version A","GRILL","bar","Study1","S",2971,"50",3705,"cook",0,"bar",0
35,"5eb5a8cb24edf10dc07e97c0",9,"JAM Version A","GRILL","bar","Study1","S",1975,NA,3622,"food",0,"bar",0
36,"w10088817_XD",9,"JAM Version A","HAPPY","car","Study1","U",3144,"10",1039,"",0,"car",0
36,"w10103818",9,"JAM Version A","HAPPY","car","Study1","U",3587,"80",2970,"sad",33.333333333333,"car",1
36,"w10059664CB",9,"JAM Version A","HAPPY","car","Study1","U",3505,"30",2296,"sad",33.333333333333,"car",1
36,"w10098918_eks",9,"JAM Version A","HAPPY","car","Study1","U",3957,"0",1373,"",0,"car",0
36,"w10071305_mkt",9,"JAM Version A","HAPPY","car","Study1","U",3820,"12",1945,"hour",28.571428571429,"car",0
36,"5eca602581b3801c9f178cec",9,"JAM Version A","HAPPY","car","Study1","U",2836,"75",3529,"",0,"car",0
36,"5eb5a8cb24edf10dc07e97c0",9,"JAM Version A","HAPPY","car","Study1","U",1628,NA,2660,"sad",33.333333333333,"car",1
36,"w218848BM",9,"JAM Version A","HAPPY","car","Study1","U",2543,"0",2158,"car",100,"car",1
37,"w10088817_XD",9,"JAM Version A","HEIGHT","growth","Study1","B",3323,"80",4641,"growth",100,"growth",1
37,"w10098918_eks",9,"JAM Version A","HEIGHT","growth","Study1","B",3282,"25",13508,"growth",100,"growth",1
37,"w10103818",9,"JAM Version A","HEIGHT","growth","Study1","B",1861,"70",3815,"weight",33.333333333333,"growth",0
37,"w10059664CB",9,"JAM Version A","HEIGHT","growth","Study1","B",5249,"100",6007,"weight",33.333333333333,"growth",0
37,"5eca602581b3801c9f178cec",9,"JAM Version A","HEIGHT","growth","Study1","B",4094,"76",3913,"length ",50,"growth",0
37,"w218848BM",9,"JAM Version A","HEIGHT","growth","Study1","B",1936,"50",3183,"tall",20,"growth",0
37,"w10071305_mkt",9,"JAM Version A","HEIGHT","growth","Study1","B",5077,"85",3682,"",0,"growth",0
37,"5eb5a8cb24edf10dc07e97c0",9,"JAM Version A","HEIGHT","growth","Study1","B",889,NA,49013,"weight",33.333333333333,"growth",0
38,"w10098918_eks",9,"JAM Version A","HERD","cow","Study1","F",5299,"70",1250,"",0,"cow",0
38,"w10071305_mkt",9,"JAM Version A","HERD","cow","Study1","F",1421,"90",1684,"cow",100,"cow",1
38,"w10088817_XD",9,"JAM Version A","HERD","cow","Study1","F",10720,"95",3203,"cow",100,"cow",1
38,"w10103818",9,"JAM Version A","HERD","cow","Study1","F",2359,"30",4917,"hear",0,"cow",0
38,"w10059664CB",9,"JAM Version A","HERD","cow","Study1","F",3810,"100",2078,"cow",100,"cow",1
38,"5eca602581b3801c9f178cec",9,"JAM Version A","HERD","cow","Study1","F",3953,"66",6375,"cows",85.714285714286,"cow",1
38,"5eb5a8cb24edf10dc07e97c0",9,"JAM Version A","HERD","cow","Study1","F",819,NA,4285,"cows",85.714285714286,"cow",1
38,"w218848BM",9,"JAM Version A","HERD","cow","Study1","F",1563,"100",2809,"cow",100,"cow",1
39,"w10103818",9,"JAM Version A","HIDE","sick","Study1","U",2769,"60",8483,"seek",50,"sick",1
39,"w10098918_eks",9,"JAM Version A","HIDE","sick","Study1","U",6355,"1",6628,"sick",100,"sick",1
39,"5eca602581b3801c9f178cec",9,"JAM Version A","HIDE","sick","Study1","U",3066,"1",3136,"seek",50,"sick",1
39,"w10071305_mkt",9,"JAM Version A","HIDE","sick","Study1","U",2577,"20",3604,"make",25,"sick",0
39,"w218848BM",9,"JAM Version A","HIDE","sick","Study1","U",2577,"0",7619,"seek",50,"sick",1
39,"5eb5a8cb24edf10dc07e97c0",9,"JAM Version A","HIDE","sick","Study1","U",1303,NA,29387,"seek",50,"sick",1
39,"w10088817_XD",9,"JAM Version A","HIDE","sick","Study1","U",3544,"2",5923,"",0,"sick",0
39,"w10059664CB",9,"JAM Version A","HIDE","sick","Study1","U",8297,"0",2503,"seek",50,"sick",1
40,"w10088817_XD",9,"JAM Version A","HONEY","bee","Study1","S",2882,"100",3023,"bee",100,"bee",1
40,"w10103818",9,"JAM Version A","HONEY","bee","Study1","S",2006,"9",1855,"bee",100,"bee",1
40,"w10098918_eks",9,"JAM Version A","HONEY","bee","Study1","S",8049,"90",1981,"bee",100,"bee",1
40,"w10059664CB",9,"JAM Version A","HONEY","bee","Study1","S",3109,"100",2357,"bee",100,"bee",1
40,"5eca602581b3801c9f178cec",9,"JAM Version A","HONEY","bee","Study1","S",3374,"32",4097,"smell",25,"bee",0
40,"w10071305_mkt",9,"JAM Version A","HONEY","bee","Study1","S",8216,"95",1874,"be",80,"bee",1
40,"5eb5a8cb24edf10dc07e97c0",9,"JAM Version A","HONEY","bee","Study1","S",829,NA,2994,"badger",44.444444444444,"bee",0
40,"w218848BM",9,"JAM Version A","HONEY","bee","Study1","S",3702,"100",1710,"bee",100,"bee",1
41,"5eb5a8cb24edf10dc07e97c0",9,"JAM Version A","HORNET","sting","Study1","F",836,NA,2294,"bee",0,"sting",0
41,"w10088817_XD",9,"JAM Version A","HORNET","sting","Study1","F",2243,"100",5425,"wasp",22.222222222222,"sting",0
41,"5eca602581b3801c9f178cec",9,"JAM Version A","HORNET","sting","Study1","F",4265,"77",2871,"bee",0,"sting",0
41,"w218848BM",9,"JAM Version A","HORNET","sting","Study1","F",2693,"50",2456,"nest",44.444444444444,"sting",0
41,"w10098918_eks",9,"JAM Version A","HORNET","sting","Study1","F",3803,"34",1910,"",0,"sting",0
41,"w10059664CB",9,"JAM Version A","HORNET","sting","Study1","F",3726,"100",3265,"sting",100,"sting",1
41,"w10103818",9,"JAM Version A","HORNET","sting","Study1","F",1141,"20",2609,"bee",0,"sting",0
41,"w10071305_mkt",9,"JAM Version A","HORNET","sting","Study1","F",2566,"99",3919,"sting",100,"sting",1
42,"5eb5a8cb24edf10dc07e97c0",9,"JAM Version A","HOT","chili","Study1","B",1873,NA,56517,"cold",44.444444444444,"chili",0
42,"w10098918_eks",9,"JAM Version A","HOT","chili","Study1","B",2666,"99",4910,"chilli",90.909090909091,"chili",1
42,"w10103818",9,"JAM Version A","HOT","chili","Study1","B",1089,"50",2207,"cold",44.444444444444,"chili",0
42,"w10088817_XD",9,"JAM Version A","HOT","chili","Study1","B",4758,"80",5460,"",0,"chili",0
42,"w218848BM",9,"JAM Version A","HOT","chili","Study1","B",4332,"100",3373,"chilli",90.909090909091,"chili",1
42,"w10071305_mkt",9,"JAM Version A","HOT","chili","Study1","B",5224,"27",2159,"chili",100,"chili",1
42,"w10059664CB",9,"JAM Version A","HOT","chili","Study1","B",13013,"70",2768,"chili",100,"chili",1
42,"5eca602581b3801c9f178cec",9,"JAM Version A","HOT","chili","Study1","B",3889,"55",3592,"cold",44.444444444444,"chili",0
43,"5eb5a8cb24edf10dc07e97c0",9,"JAM Version A","HUNGER","famine","Study1","B",599,NA,5355,"eat",22.222222222222,"famine",0
43,"5eca602581b3801c9f178cec",9,"JAM Version A","HUNGER","famine","Study1","B",4268,"56",3553,"psin",40,"famine",0
43,"w10098918_eks",9,"JAM Version A","HUNGER","famine","Study1","B",3658,"10",1544,"",0,"famine",0
43,"w218848BM",9,"JAM Version A","HUNGER","famine","Study1","B",3644,"100",35554,"eat",22.222222222222,"famine",0
43,"w10071305_mkt",9,"JAM Version A","HUNGER","famine","Study1","B",4484,"5",2668,"park",20,"famine",0
43,"w10088817_XD",9,"JAM Version A","HUNGER","famine","Study1","B",5097,"31",12713,"food",20,"famine",0
43,"w10103818",9,"JAM Version A","HUNGER","famine","Study1","B",1970,"20",2286,"games",54.545454545455,"famine",0
43,"w10059664CB",9,"JAM Version A","HUNGER","famine","Study1","B",3126,"100",4888,"famine",100,"famine",1
44,"w218848BM",9,"JAM Version A","HYGIENE","clean","Study1","F",2150,"100",2562,"clean",100,"clean",1
44,"5eb5a8cb24edf10dc07e97c0",9,"JAM Version A","HYGIENE","clean","Study1","F",6229,NA,12845,"clean",100,"clean",1
44,"w10098918_eks",9,"JAM Version A","HYGIENE","clean","Study1","F",6700,"95",2816,"clean",100,"clean",1
44,"w10088817_XD",9,"JAM Version A","HYGIENE","clean","Study1","F",4071,"90",3567,"clean",100,"clean",1
44,"w10103818",9,"JAM Version A","HYGIENE","clean","Study1","F",1058,"60",2486,"clean",100,"clean",1
44,"w10071305_mkt",9,"JAM Version A","HYGIENE","clean","Study1","F",2240,"50",1004,"",0,"clean",0
44,"5eca602581b3801c9f178cec",9,"JAM Version A","HYGIENE","clean","Study1","F",3157,"76",3709,"clean",100,"clean",1
44,"w10059664CB",9,"JAM Version A","HYGIENE","clean","Study1","F",2733,"100",4019,"clean",100,"clean",1
45,"5eca602581b3801c9f178cec",9,"JAM Version A","KEY","latch","Study1","B",3271,"77",3260,"lock",44.444444444444,"latch",0
45,"w10071305_mkt",9,"JAM Version A","KEY","latch","Study1","B",2572,"5",2782,"lock",44.444444444444,"latch",0
45,"5eb5a8cb24edf10dc07e97c0",9,"JAM Version A","KEY","latch","Study1","B",1318,NA,2457,"word",0,"latch",0
45,"w10088817_XD",9,"JAM Version A","KEY","latch","Study1","B",3385,"3",7282,"lock",44.444444444444,"latch",0
45,"w10103818",9,"JAM Version A","KEY","latch","Study1","B",1726,"2",2692,"hole",22.222222222222,"latch",0
45,"w218848BM",9,"JAM Version A","KEY","latch","Study1","B",4015,"50",3479,"latch",100,"latch",1
45,"w10059664CB",9,"JAM Version A","KEY","latch","Study1","B",7253,"80",3640,"latch",100,"latch",1
45,"w10098918_eks",9,"JAM Version A","KEY","latch","Study1","B",3260,"60",4791,"car",25,"latch",0
46,"5eb5a8cb24edf10dc07e97c0",9,"JAM Version A","KIDNEY","liver","Study1","S",1228,NA,7169,"infection",28.571428571429,"liver",0
46,"w218848BM",9,"JAM Version A","KIDNEY","liver","Study1","S",2009,"100",2261,"liver",100,"liver",1
46,"w10103818",9,"JAM Version A","KIDNEY","liver","Study1","S",1196,"50",3747,"failure",33.333333333333,"liver",0
46,"w10098918_eks",9,"JAM Version A","KIDNEY","liver","Study1","S",6049,"86",2258,"liver",100,"liver",1
46,"5eca602581b3801c9f178cec",9,"JAM Version A","KIDNEY","liver","Study1","S",3667,"7",3833,"liver",100,"liver",1
46,"w10071305_mkt",9,"JAM Version A","KIDNEY","liver","Study1","S",2676,"90",2363,"liver",100,"liver",1
46,"w10088817_XD",9,"JAM Version A","KIDNEY","liver","Study1","S",4576,"80",4137,"liver",100,"liver",1
46,"w10059664CB",9,"JAM Version A","KIDNEY","liver","Study1","S",5104,"90",12032,"stomach",0,"liver",0
47,"5eb5a8cb24edf10dc07e97c0",9,"JAM Version A","KING","vase","Study1","U",1768,NA,4821,"queen",22.222222222222,"vase",0
47,"w10103818",9,"JAM Version A","KING","vase","Study1","U",3775,"20",2358,"queen",22.222222222222,"vase",0
47,"w218848BM",9,"JAM Version A","KING","vase","Study1","U",2012,"0",2173,"queen",22.222222222222,"vase",0
47,"w10059664CB",9,"JAM Version A","KING","vase","Study1","U",2965,"0",4991,"kong",0,"vase",0
47,"w10071305_mkt",9,"JAM Version A","KING","vase","Study1","U",2844,"9",1997,"",0,"vase",0
47,"w10088817_XD",9,"JAM Version A","KING","vase","Study1","U",3123,"25",894,"",0,"vase",0
47,"w10098918_eks",9,"JAM Version A","KING","vase","Study1","U",2614,"0",4694,"vase",100,"vase",1
47,"5eca602581b3801c9f178cec",9,"JAM Version A","KING","vase","Study1","U",4169,"2",3322,"size",50,"vase",0
48,"5eb5a8cb24edf10dc07e97c0",9,"JAM Version A","LAW","attorney","Study1","B",1262,NA,7727,"break",30.769230769231,"attorney",0
48,"w10071305_mkt",9,"JAM Version A","LAW","attorney","Study1","B",1811,"90",6105,"attorney",100,"attorney",1
48,"w10059664CB",9,"JAM Version A","LAW","attorney","Study1","B",2907,"100",6389,"attorney ",100,"attorney",1
48,"w218848BM",9,"JAM Version A","LAW","attorney","Study1","B",1442,"100",5102,"police",28.571428571429,"attorney",0
48,"w10098918_eks",9,"JAM Version A","LAW","attorney","Study1","B",3605,"30",2773,"",0,"attorney",0
48,"5eca602581b3801c9f178cec",9,"JAM Version A","LAW","attorney","Study1","B",3120,"88",3765,"order",46.153846153846,"attorney",0
48,"w10088817_XD",9,"JAM Version A","LAW","attorney","Study1","B",5030,"100",7513,"attorney",100,"attorney",1
48,"w10103818",9,"JAM Version A","LAW","attorney","Study1","B",2131,"50",5240,"break",30.769230769231,"attorney",0
49,"w10071305_mkt",9,"JAM Version A","LETTUCE","salad","Study1","S",7831,"45",6277,"salad",100,"salad",1
49,"w10088817_XD",9,"JAM Version A","LETTUCE","salad","Study1","S",2159,"100",4049,"salad",100,"salad",1
49,"5eca602581b3801c9f178cec",9,"JAM Version A","LETTUCE","salad","Study1","S",4370,"89",3420,"salad",100,"salad",1
49,"5eb5a8cb24edf10dc07e97c0",9,"JAM Version A","LETTUCE","salad","Study1","S",1120,NA,175312,"green",0,"salad",0
49,"w10098918_eks",9,"JAM Version A","LETTUCE","salad","Study1","S",5595,"97",3638,"salad",100,"salad",1
49,"w218848BM",9,"JAM Version A","LETTUCE","salad","Study1","S",1714,"100",3484,"salad",100,"salad",1
49,"w10059664CB",9,"JAM Version A","LETTUCE","salad","Study1","S",4579,"80",2290,"salad",100,"salad",1
49,"w10103818",9,"JAM Version A","LETTUCE","salad","Study1","S",3537,"50",2853,"salad",100,"salad",1
50,"w10088817_XD",9,"JAM Version A","LIFT","woman","Study1","U",2856,"33",980,"",0,"woman",0
50,"5eb5a8cb24edf10dc07e97c0",9,"JAM Version A","LIFT","woman","Study1","U",4741,NA,7087,"woman",100,"woman",1
50,"w10098918_eks",9,"JAM Version A","LIFT","woman","Study1","U",2902,"1",1338,"",0,"woman",0
50,"w10103818",9,"JAM Version A","LIFT","woman","Study1","U",2623,"40",2354,"women",80,"woman",1
50,"w10071305_mkt",9,"JAM Version A","LIFT","woman","Study1","U",2309,"45",2442,"",0,"woman",0
50,"5eca602581b3801c9f178cec",9,"JAM Version A","LIFT","woman","Study1","U",3288,"55",4662,"stairs",18.181818181818,"woman",0
50,"w10059664CB",9,"JAM Version A","LIFT","woman","Study1","U",3721,"20",6286,"hang",44.444444444444,"woman",0
50,"w218848BM",9,"JAM Version A","LIFT","woman","Study1","U",3710,"0",4485,"raise",20,"woman",0
51,"5eb5a8cb24edf10dc07e97c0",9,"JAM Version A","LOCATION","site","Study1","S",2248,NA,10816,"place",22.222222222222,"site",0
51,"w10059664CB",9,"JAM Version A","LOCATION","site","Study1","S",4091,"100",2944,"sure",50,"site",1
51,"w10071305_mkt",9,"JAM Version A","LOCATION","site","Study1","S",2282,"99",1820,"",0,"site",0
51,"w10088817_XD",9,"JAM Version A","LOCATION","site","Study1","S",4017,"89",3171,"site",100,"site",1
51,"5eca602581b3801c9f178cec",9,"JAM Version A","LOCATION","site","Study1","S",4000,"88",5002,"destination ",13.333333333333,"site",0
51,"w10098918_eks",9,"JAM Version A","LOCATION","site","Study1","S",17876,"34",16251,"site",100,"site",1
51,"w10103818",9,"JAM Version A","LOCATION","site","Study1","S",3365,"40",10713,"position",50,"site",0
51,"w218848BM",9,"JAM Version A","LOCATION","site","Study1","S",2337,"100",2606,"site",100,"site",1
52,"5eb5a8cb24edf10dc07e97c0",9,"JAM Version A","MACHINE","position","Study1","U",1163,NA,2734,"gun",18.181818181818,"position",0
52,"w10071305_mkt",9,"JAM Version A","MACHINE","position","Study1","U",2336,"50",6134,"",0,"position",0
52,"5eca602581b3801c9f178cec",9,"JAM Version A","MACHINE","position","Study1","U",3141,"87",6852,"wrate",15.384615384615,"position",0
52,"w10059664CB",9,"JAM Version A","MACHINE","position","Study1","U",4665,"10",10944,"mechanic",12.5,"position",0
52,"w10088817_XD",9,"JAM Version A","MACHINE","position","Study1","U",3347,"5",1471,"",0,"position",0
52,"w10103818",9,"JAM Version A","MACHINE","position","Study1","U",2262,"5",5971,"position",100,"position",1
52,"w218848BM",9,"JAM Version A","MACHINE","position","Study1","U",2261,"0",3140,"vending",13.333333333333,"position",0
52,"w10098918_eks",9,"JAM Version A","MACHINE","position","Study1","U",6153,"2",6505,"",0,"position",0
53,"w10071305_mkt",9,"JAM Version A","MATH","division","Study1","B",3616,"25",2992,"nunbers",13.333333333333,"division",0
53,"5eb5a8cb24edf10dc07e97c0",9,"JAM Version A","MATH","division","Study1","B",2105,NA,5430,"divison",93.333333333333,"division",1
53,"w10103818",9,"JAM Version A","MATH","division","Study1","B",3039,"40",4787,"reading",40,"division",0
53,"5eca602581b3801c9f178cec",9,"JAM Version A","MATH","division","Study1","B",4475,"66",9008,"additional ",55.555555555556,"division",0
53,"w10059664CB",9,"JAM Version A","MATH","division","Study1","B",3125,"100",6138,"science",40,"division",0
53,"w10088817_XD",9,"JAM Version A","MATH","division","Study1","B",3769,"100",21009,"problem",13.333333333333,"division",0
53,"w10098918_eks",9,"JAM Version A","MATH","division","Study1","B",3655,"45",7875,"division",100,"division",1
53,"w218848BM",9,"JAM Version A","MATH","division","Study1","B",3830,"100",2458,"division",100,"division",1
54,"w10103818",9,"JAM Version A","MEANING","definition","Study1","S",2990,"50",8067,"definition",100,"definition",1
54,"5eca602581b3801c9f178cec",9,"JAM Version A","MEANING","definition","Study1","S",3442,"77",5515,"lofe",14.285714285714,"definition",0
54,"5eb5a8cb24edf10dc07e97c0",9,"JAM Version A","MEANING","definition","Study1","S",1566,NA,18514,"full",14.285714285714,"definition",0
54,"w10098918_eks",9,"JAM Version A","MEANING","definition","Study1","S",3814,"90",5415,"definition",100,"definition",1
54,"w10071305_mkt",9,"JAM Version A","MEANING","definition","Study1","S",1949,"90",844,"",0,"definition",0
54,"w10088817_XD",9,"JAM Version A","MEANING","definition","Study1","S",1904,"100",5331,"definiion",94.736842105263,"definition",1
54,"w218848BM",9,"JAM Version A","MEANING","definition","Study1","S",2583,"90",4429,"thought",23.529411764706,"definition",0
54,"w10059664CB",9,"JAM Version A","MEANING","definition","Study1","S",4192,"100",3602,"definition ",100,"definition",1
55,"w10088817_XD",9,"JAM Version A","NUMBER","amount","Study1","S",2860,"96",2330,"",0,"amount",0
55,"w10098918_eks",9,"JAM Version A","NUMBER","amount","Study1","S",3051,"80",3644,"amount",100,"amount",1
55,"w10071305_mkt",9,"JAM Version A","NUMBER","amount","Study1","S",2861,"89",4134,"",0,"amount",0
55,"5eb5a8cb24edf10dc07e97c0",9,"JAM Version A","NUMBER","amount","Study1","S",2430,NA,4138,"phone",36.363636363636,"amount",0
55,"w218848BM",9,"JAM Version A","NUMBER","amount","Study1","S",1286,"100",4288,"math",40,"amount",0
55,"w10103818",9,"JAM Version A","NUMBER","amount","Study1","S",1006,"50",3488,"one",44.444444444444,"amount",0
55,"5eca602581b3801c9f178cec",9,"JAM Version A","NUMBER","amount","Study1","S",3479,"45",3102,"line",20,"amount",0
55,"w10059664CB",9,"JAM Version A","NUMBER","amount","Study1","S",10805,"70",5676,"amount",100,"amount",1
56,"w10071305_mkt",9,"JAM Version A","ORCHID","flower","Study1","F",3922,"3",4687,"flower",100,"flower",1
56,"5eb5a8cb24edf10dc07e97c0",9,"JAM Version A","ORCHID","flower","Study1","F",2094,NA,3552,"flower",100,"flower",1
56,"w10103818",9,"JAM Version A","ORCHID","flower","Study1","F",2619,"100",2415,"flower",100,"flower",1
56,"5eca602581b3801c9f178cec",9,"JAM Version A","ORCHID","flower","Study1","F",3195,"87",3643,"flower",100,"flower",1
56,"w10059664CB",9,"JAM Version A","ORCHID","flower","Study1","F",3345,"100",3195,"flower",100,"flower",1
56,"w10088817_XD",9,"JAM Version A","ORCHID","flower","Study1","F",3264,"98",3988,"flower",100,"flower",1
56,"w10098918_eks",9,"JAM Version A","ORCHID","flower","Study1","F",3210,"100",3875,"flower",100,"flower",1
56,"w218848BM",9,"JAM Version A","ORCHID","flower","Study1","F",1399,"100",4923,"flower",100,"flower",1
57,"w10088817_XD",9,"JAM Version A","PARK","hungry","Study1","U",3848,"20",4245,"",0,"hungry",0
57,"w10103818",9,"JAM Version A","PARK","hungry","Study1","U",1627,"20",4170,"bench",18.181818181818,"hungry",0
57,"5eb5a8cb24edf10dc07e97c0",9,"JAM Version A","PARK","hungry","Study1","U",1079,NA,10168,"ranger",50,"hungry",0
57,"w10098918_eks",9,"JAM Version A","PARK","hungry","Study1","U",2927,"0",6102,"hungry",100,"hungry",1
57,"5eca602581b3801c9f178cec",9,"JAM Version A","PARK","hungry","Study1","U",3323,"75",3611,"gate",20,"hungry",0
57,"w10071305_mkt",9,"JAM Version A","PARK","hungry","Study1","U",4478,"15",2602,"hungry",100,"hungry",1
57,"w218848BM",9,"JAM Version A","PARK","hungry","Study1","U",4961,"0",4591,"drive",18.181818181818,"hungry",0
57,"w10059664CB",9,"JAM Version A","PARK","hungry","Study1","U",4549,"30",4167,"car",22.222222222222,"hungry",0
58,"5eb5a8cb24edf10dc07e97c0",9,"JAM Version A","PAST","future","Study1","S",1320,NA,10533,"future",100,"future",1
58,"w10059664CB",9,"JAM Version A","PAST","future","Study1","S",5895,"20",10142,"present",30.769230769231,"future",0
58,"w10088817_XD",9,"JAM Version A","PAST","future","Study1","S",3324,"100",5951,"tense",36.363636363636,"future",0
58,"w10071305_mkt",9,"JAM Version A","PAST","future","Study1","S",1117,"90",1993,"future",100,"future",1
58,"w218848BM",9,"JAM Version A","PAST","future","Study1","S",1834,"100",18713,"future",100,"future",1
58,"w10098918_eks",9,"JAM Version A","PAST","future","Study1","S",7277,"100",3805,"future",100,"future",1
58,"w10103818",9,"JAM Version A","PAST","future","Study1","S",1985,"50",3436,"future",100,"future",1
58,"5eca602581b3801c9f178cec",9,"JAM Version A","PAST","future","Study1","S",3334,"77",3686,"",0,"future",0
59,"5eca602581b3801c9f178cec",9,"JAM Version A","PAW","dog","Study1","F",3357,"78",4618,"dog",100,"dog",1
59,"w10071305_mkt",9,"JAM Version A","PAW","dog","Study1","F",1817,"90",2250,"dog",100,"dog",1
59,"5eb5a8cb24edf10dc07e97c0",9,"JAM Version A","PAW","dog","Study1","F",553,NA,5421,"print",0,"dog",0
59,"w10103818",9,"JAM Version A","PAW","dog","Study1","F",26562,"40",2479,"print",0,"dog",0
59,"w10059664CB",9,"JAM Version A","PAW","dog","Study1","F",5747,"80",2390,"dog",100,"dog",1
59,"w10088817_XD",9,"JAM Version A","PAW","dog","Study1","F",3611,"100",4219,"dog",100,"dog",1
59,"w10098918_eks",9,"JAM Version A","PAW","dog","Study1","F",3273,"70",3260,"dog",100,"dog",1
59,"w218848BM",9,"JAM Version A","PAW","dog","Study1","F",4775,"100",3792,"dog",100,"dog",1
60,"w10088817_XD",9,"JAM Version A","PLANE","pilot","Study1","B",2966,"98",4654,"pilot",100,"pilot",1
60,"w10098918_eks",9,"JAM Version A","PLANE","pilot","Study1","B",4794,"40",2640,"pilot",100,"pilot",1
60,"w10103818",9,"JAM Version A","PLANE","pilot","Study1","B",4011,"50",2959,"piolit",72.727272727273,"pilot",1
60,"5eb5a8cb24edf10dc07e97c0",9,"JAM Version A","PLANE","pilot","Study1","B",684,NA,9838,"fly",25,"pilot",0
60,"w218848BM",9,"JAM Version A","PLANE","pilot","Study1","B",1692,"100",4002,"jet",25,"pilot",0
60,"5eca602581b3801c9f178cec",9,"JAM Version A","PLANE","pilot","Study1","B",3971,"88",4248,"areoplsne",14.285714285714,"pilot",0
60,"w10071305_mkt",9,"JAM Version A","PLANE","pilot","Study1","B",2676,"90",2185,"pilot",100,"pilot",1
60,"w10059664CB",9,"JAM Version A","PLANE","pilot","Study1","B",3518,"100",12780,"pilot",100,"pilot",1
61,"w10059664CB",9,"JAM Version A","POP","soda","Study1","S",8963,"100",2671,"smoke",44.444444444444,"soda",0
61,"5eb5a8cb24edf10dc07e97c0",9,"JAM Version A","POP","soda","Study1","S",1291,NA,3787,"drop",25,"soda",0
61,"w218848BM",9,"JAM Version A","POP","soda","Study1","S",1621,"100",5095,"soda",100,"soda",1
61,"w10088817_XD",9,"JAM Version A","POP","soda","Study1","S",3719,"100",6027,"quiz",0,"soda",0
61,"w10071305_mkt",9,"JAM Version A","POP","soda","Study1","S",2391,"60",1907,"soda",100,"soda",1
61,"w10098918_eks",9,"JAM Version A","POP","soda","Study1","S",4181,"0",3194,"",0,"soda",0
61,"w10103818",9,"JAM Version A","POP","soda","Study1","S",2237,"50",3125,"coke",25,"soda",0
61,"5eca602581b3801c9f178cec",9,"JAM Version A","POP","soda","Study1","S",3657,"3",3059,"tart",25,"soda",0
62,"w10071305_mkt",9,"JAM Version A","PUSHER","clutter","Study1","U",2672,"70",4408,"clutter",100,"clutter",1
62,"5eca602581b3801c9f178cec",9,"JAM Version A","PUSHER","clutter","Study1","U",3120,"1",2945,"",0,"clutter",0
62,"w10059664CB",9,"JAM Version A","PUSHER","clutter","Study1","U",8003,"10",4103,"taker",50,"clutter",0
62,"5eb5a8cb24edf10dc07e97c0",9,"JAM Version A","PUSHER","clutter","Study1","U",1168,NA,2739,"pull",18.181818181818,"clutter",0
62,"w10103818",9,"JAM Version A","PUSHER","clutter","Study1","U",2729,"50",1851,"",0,"clutter",0
62,"w10088817_XD",9,"JAM Version A","PUSHER","clutter","Study1","U",3628,"12",970,"",0,"clutter",0
62,"w10098918_eks",9,"JAM Version A","PUSHER","clutter","Study1","U",3201,"0",1397,"",0,"clutter",0
62,"w218848BM",9,"JAM Version A","PUSHER","clutter","Study1","U",4464,"0",5300,"",0,"clutter",0
63,"w10103818",9,"JAM Version A","REVOLUTION","war","Study1","F",2421,"70",1930,"war",100,"war",1
63,"5eca602581b3801c9f178cec",9,"JAM Version A","REVOLUTION","war","Study1","F",3264,"56",3145,"full",0,"war",0
63,"w10098918_eks",9,"JAM Version A","REVOLUTION","war","Study1","F",6828,"70",1891,"war",100,"war",1
63,"5eb5a8cb24edf10dc07e97c0",9,"JAM Version A","REVOLUTION","war","Study1","F",1166,NA,5972,"france",22.222222222222,"war",0
63,"w218848BM",9,"JAM Version A","REVOLUTION","war","Study1","F",2604,"100",2930,"war",100,"war",1
63,"w10059664CB",9,"JAM Version A","REVOLUTION","war","Study1","F",5119,"60",3683,"war",100,"war",1
63,"w10071305_mkt",9,"JAM Version A","REVOLUTION","war","Study1","F",3569,"80",1775,"war",100,"war",1
63,"w10088817_XD",9,"JAM Version A","REVOLUTION","war","Study1","F",1903,"100",2332,"war",100,"war",1
64,"w10059664CB",9,"JAM Version A","ROOT","plant","Study1","F",4255,"100",2545,"plant",100,"plant",1
64,"w10098918_eks",9,"JAM Version A","ROOT","plant","Study1","F",6178,"45",3617,"plant",100,"plant",1
64,"5eb5a8cb24edf10dc07e97c0",9,"JAM Version A","ROOT","plant","Study1","F",794,NA,5465,"problem",33.333333333333,"plant",0
64,"w218848BM",9,"JAM Version A","ROOT","plant","Study1","F",6354,"100",10290,"flower",18.181818181818,"plant",0
64,"w10088817_XD",9,"JAM Version A","ROOT","plant","Study1","F",1839,"100",4774,"plant",100,"plant",1
64,"w10071305_mkt",9,"JAM Version A","ROOT","plant","Study1","F",1872,"90",2712,"plant",100,"plant",1
64,"w10103818",9,"JAM Version A","ROOT","plant","Study1","F",1301,"40",3947,"tree",22.222222222222,"plant",0
64,"5eca602581b3801c9f178cec",9,"JAM Version A","ROOT","plant","Study1","F",3584,"86",4060,"flower",18.181818181818,"plant",0
65,"5eb5a8cb24edf10dc07e97c0",9,"JAM Version A","SENTENCE","word","Study1","B",1028,NA,20235,"speak",0,"word",0
65,"w10059664CB",9,"JAM Version A","SENTENCE","word","Study1","B",4074,"8",2270,"word",100,"word",1
65,"w10071305_mkt",9,"JAM Version A","SENTENCE","word","Study1","B",3706,"78",1566,"",0,"word",0
65,"w218848BM",9,"JAM Version A","SENTENCE","word","Study1","B",5035,"50",2531,"words",88.888888888889,"word",1
65,"w10088817_XD",9,"JAM Version A","SENTENCE","word","Study1","B",2164,"100",1512,"",0,"word",0
65,"w10103818",9,"JAM Version A","SENTENCE","word","Study1","B",1459,"5",4685,"paragraph",15.384615384615,"word",0
65,"5eca602581b3801c9f178cec",9,"JAM Version A","SENTENCE","word","Study1","B",3318,"87",3743,"words",88.888888888889,"word",1
65,"w10098918_eks",9,"JAM Version A","SENTENCE","word","Study1","B",5496,"97",2370,"word",100,"word",1
66,"w10071305_mkt",9,"JAM Version A","SHOE","foot","Study1","S",1784,"90",6084,"foot",100,"foot",1
66,"5eb5a8cb24edf10dc07e97c0",9,"JAM Version A","SHOE","foot","Study1","S",589,NA,3666,"lace",0,"foot",0
66,"w10103818",9,"JAM Version A","SHOE","foot","Study1","S",1724,"90",1964,"feet",50,"foot",1
66,"5eca602581b3801c9f178cec",9,"JAM Version A","SHOE","foot","Study1","S",3493,"89",3590,"foot",100,"foot",1
66,"w10059664CB",9,"JAM Version A","SHOE","foot","Study1","S",3568,"100",5084,"foot",100,"foot",1
66,"w10088817_XD",9,"JAM Version A","SHOE","foot","Study1","S",1888,"100",4283,"feet",50,"foot",1
66,"w10098918_eks",9,"JAM Version A","SHOE","foot","Study1","S",4470,"98",5628,"foot",100,"foot",1
66,"w218848BM",9,"JAM Version A","SHOE","foot","Study1","S",3010,"100",2757,"foot",100,"foot",1
67,"w10103818",9,"JAM Version A","SLEEP","drowsy","Study1","B",3392,"45",2903,"awake",18.181818181818,"drowsy",0
67,"5eca602581b3801c9f178cec",9,"JAM Version A","SLEEP","drowsy","Study1","B",3459,"87",4350,"debrived",28.571428571429,"drowsy",0
67,"5eb5a8cb24edf10dc07e97c0",9,"JAM Version A","SLEEP","drowsy","Study1","B",650,NA,2793,"night",0,"drowsy",0
67,"w10098918_eks",9,"JAM Version A","SLEEP","drowsy","Study1","B",4121,"28",2185,"",0,"drowsy",0
67,"w10071305_mkt",9,"JAM Version A","SLEEP","drowsy","Study1","B",1844,"99",3653,"tired",18.181818181818,"drowsy",0
67,"w10088817_XD",9,"JAM Version A","SLEEP","drowsy","Study1","B",3584,"100",1300,"",0,"drowsy",0
67,"w218848BM",9,"JAM Version A","SLEEP","drowsy","Study1","B",1718,"100",3857,"rest",40,"drowsy",0
67,"w10059664CB",9,"JAM Version A","SLEEP","drowsy","Study1","B",4505,"100",4370,"drowsy ",100,"drowsy",1
68,"w10088817_XD",9,"JAM Version A","SMELL","stench","Study1","B",2680,"100",8306,"stintch",76.923076923077,"stench",1
68,"w10098918_eks",9,"JAM Version A","SMELL","stench","Study1","B",3921,"40",2489,"",0,"stench",0
68,"w10071305_mkt",9,"JAM Version A","SMELL","stench","Study1","B",2310,"8",1506,"",0,"stench",0
68,"5eb5a8cb24edf10dc07e97c0",9,"JAM Version A","SMELL","stench","Study1","B",1265,NA,5503,"fragrance",26.666666666667,"stench",0
68,"w218848BM",9,"JAM Version A","SMELL","stench","Study1","B",2583,"100",6861,"taste",54.545454545455,"stench",0
68,"w10103818",9,"JAM Version A","SMELL","stench","Study1","B",2579,"40",2787,"nose",20,"stench",0
68,"5eca602581b3801c9f178cec",9,"JAM Version A","SMELL","stench","Study1","B",5006,"22",3273,"taste",54.545454545455,"stench",0
68,"w10059664CB",9,"JAM Version A","SMELL","stench","Study1","B",4113,"100",8713,"stinch ",83.333333333333,"stench",1
69,"w10071305_mkt",9,"JAM Version A","SOON","belt","Study1","U",2109,"70",3508,"after",22.222222222222,"belt",0
69,"w10088817_XD",9,"JAM Version A","SOON","belt","Study1","U",2947,"0",1106,"",0,"belt",0
69,"5eb5a8cb24edf10dc07e97c0",9,"JAM Version A","SOON","belt","Study1","U",1690,NA,5457,"later",44.444444444444,"belt",0
69,"5eca602581b3801c9f178cec",9,"JAM Version A","SOON","belt","Study1","U",3330,"76",3634,"later",44.444444444444,"belt",0
69,"w10059664CB",9,"JAM Version A","SOON","belt","Study1","U",3474,"0",2599,"later",44.444444444444,"belt",0
69,"w218848BM",9,"JAM Version A","SOON","belt","Study1","U",2373,"0",2203,"later",44.444444444444,"belt",0
69,"w10103818",9,"JAM Version A","SOON","belt","Study1","U",6211,"20",2013,"now",0,"belt",0
69,"w10098918_eks",9,"JAM Version A","SOON","belt","Study1","U",3064,"23",1332,"",0,"belt",0
70,"w10088817_XD",9,"JAM Version A","STRONG","accident","Study1","U",4192,"14",2455,"",0,"accident",0
70,"w10103818",9,"JAM Version A","STRONG","accident","Study1","U",2157,"60",3700,"weak",16.666666666667,"accident",0
70,"w10071305_mkt",9,"JAM Version A","STRONG","accident","Study1","U",4308,"20",4331,"tuff",16.666666666667,"accident",0
70,"w10098918_eks",9,"JAM Version A","STRONG","accident","Study1","U",2457,"0",2595,"",0,"accident",0
70,"5eca602581b3801c9f178cec",9,"JAM Version A","STRONG","accident","Study1","U",3484,"1",3085,"s",0,"accident",0
70,"w10059664CB",9,"JAM Version A","STRONG","accident","Study1","U",6019,"40",10135,"arm",18.181818181818,"accident",0
70,"w218848BM",9,"JAM Version A","STRONG","accident","Study1","U",2977,"0",4548,"tough",15.384615384615,"accident",0
70,"5eb5a8cb24edf10dc07e97c0",9,"JAM Version A","STRONG","accident","Study1","U",2302,NA,126600,"weak",16.666666666667,"accident",0
71,"w10088817_XD",9,"JAM Version A","SUGAR","riddle","Study1","U",1839,"5",1703,"",0,"riddle",0
71,"w218848BM",9,"JAM Version A","SUGAR","riddle","Study1","U",2109,"0",3055,"cookie",33.333333333333,"riddle",0
71,"w10103818",9,"JAM Version A","SUGAR","riddle","Study1","U",1271,"40",3354,"brown",18.181818181818,"riddle",0
71,"w10071305_mkt",9,"JAM Version A","SUGAR","riddle","Study1","U",2142,"32",1004,"",0,"riddle",0
71,"w10098918_eks",9,"JAM Version A","SUGAR","riddle","Study1","U",5007,"25",3049,"",0,"riddle",0
71,"5eca602581b3801c9f178cec",9,"JAM Version A","SUGAR","riddle","Study1","U",2769,"2",4808,"",0,"riddle",0
71,"w10059664CB",9,"JAM Version A","SUGAR","riddle","Study1","U",3898,"0",3912,"sweet",18.181818181818,"riddle",0
71,"5eb5a8cb24edf10dc07e97c0",9,"JAM Version A","SUGAR","riddle","Study1","U",950,NA,133796,"spice",36.363636363636,"riddle",0
72,"5eca602581b3801c9f178cec",9,"JAM Version A","SWAN","bird","Study1","F",3203,"88",3657,"vird",75,"bird",1
72,"w10059664CB",9,"JAM Version A","SWAN","bird","Study1","F",2967,"100",14077,"goose",0,"bird",0
72,"w10071305_mkt",9,"JAM Version A","SWAN","bird","Study1","F",4886,"90",3603,"bird",100,"bird",1
72,"w10103818",9,"JAM Version A","SWAN","bird","Study1","F",2142,"50",3356,"bird",100,"bird",1
72,"5eb5a8cb24edf10dc07e97c0",9,"JAM Version A","SWAN","bird","Study1","F",9850,NA,4399,"lake",0,"bird",0
72,"w10088817_XD",9,"JAM Version A","SWAN","bird","Study1","F",2175,"100",2705,"bird",100,"bird",1
72,"w10098918_eks",9,"JAM Version A","SWAN","bird","Study1","F",3886,"97",2676,"bird",100,"bird",1
72,"w218848BM",9,"JAM Version A","SWAN","bird","Study1","F",4690,"90",2059,"bird",100,"bird",1
73,"w10071305_mkt",9,"JAM Version A","TAKE","seize","Study1","B",3995,"2",1301,"",0,"seize",0
73,"w10059664CB",9,"JAM Version A","TAKE","seize","Study1","B",6152,"100",13594,"receive ",50,"seize",0
73,"w10103818",9,"JAM Version A","TAKE","seize","Study1","B",3219,"40",2476,"home",22.222222222222,"seize",0
73,"w10088817_XD",9,"JAM Version A","TAKE","seize","Study1","B",7203,"85",1539,"",0,"seize",0
73,"5eca602581b3801c9f178cec",9,"JAM Version A","TAKE","seize","Study1","B",3320,"33",3319,"out",0,"seize",0
73,"5eb5a8cb24edf10dc07e97c0",9,"JAM Version A","TAKE","seize","Study1","B",985,NA,170603,"want",0,"seize",0
73,"w10098918_eks",9,"JAM Version A","TAKE","seize","Study1","B",2905,"20",856,"",0,"seize",0
73,"w218848BM",9,"JAM Version A","TAKE","seize","Study1","B",4212,"100",2263,"over",22.222222222222,"seize",0
74,"w10071305_mkt",9,"JAM Version A","TRIAL","jury","Study1","S",2631,"90",1887,"jury",100,"jury",1
74,"w10088817_XD",9,"JAM Version A","TRIAL","jury","Study1","S",2369,"100",2318,"",0,"jury",0
74,"w10103818",9,"JAM Version A","TRIAL","jury","Study1","S",2891,"80",2354,"error",22.222222222222,"jury",0
74,"5eca602581b3801c9f178cec",9,"JAM Version A","TRIAL","jury","Study1","S",3338,"87",3230,"jury",100,"jury",1
74,"w10059664CB",9,"JAM Version A","TRIAL","jury","Study1","S",5308,"100",3215,"jury",100,"jury",1
74,"w10098918_eks",9,"JAM Version A","TRIAL","jury","Study1","S",3164,"0",857,"",0,"jury",0
74,"5eb5a8cb24edf10dc07e97c0",9,"JAM Version A","TRIAL","jury","Study1","S",713,NA,2610,"error",22.222222222222,"jury",0
74,"w218848BM",9,"JAM Version A","TRIAL","jury","Study1","S",2836,"100",4775,"jury",100,"jury",1
75,"w10103818",9,"JAM Version A","TUNA","fish","Study1","F",1333,"50",2105,"s",40,"fish",0
75,"w10088817_XD",9,"JAM Version A","TUNA","fish","Study1","F",2268,"99",3068,"fish",100,"fish",1
75,"w10059664CB",9,"JAM Version A","TUNA","fish","Study1","F",4445,"100",2947,"fish",100,"fish",1
75,"w10071305_mkt",9,"JAM Version A","TUNA","fish","Study1","F",1603,"90",1971,"fish",100,"fish",1
75,"5eca602581b3801c9f178cec",9,"JAM Version A","TUNA","fish","Study1","F",3453,"99",4020,"fish ",100,"fish",1
75,"w10098918_eks",9,"JAM Version A","TUNA","fish","Study1","F",3403,"100",2511,"fish",100,"fish",1
75,"5eb5a8cb24edf10dc07e97c0",9,"JAM Version A","TUNA","fish","Study1","F",1468,NA,2799,"fish",100,"fish",1
75,"w218848BM",9,"JAM Version A","TUNA","fish","Study1","F",3567,"100",2047,"fish",100,"fish",1
76,"w10103818",9,"JAM Version A","VALLEY","add","Study1","U",2276,"2",6008,"mountain",18.181818181818,"add",0
76,"w10059664CB",9,"JAM Version A","VALLEY","add","Study1","U",3051,"0",5460,"mountains",16.666666666667,"add",0
76,"w10088817_XD",9,"JAM Version A","VALLEY","add","Study1","U",4209,"12",12429,"ditch",25,"add",0
76,"w10098918_eks",9,"JAM Version A","VALLEY","add","Study1","U",4109,"33",1448,"",0,"add",0
76,"5eca602581b3801c9f178cec",9,"JAM Version A","VALLEY","add","Study1","U",3044,"86",2434,"",0,"add",0
76,"5eb5a8cb24edf10dc07e97c0",9,"JAM Version A","VALLEY","add","Study1","U",623,NA,3011,"nature",22.222222222222,"add",0
76,"w10071305_mkt",9,"JAM Version A","VALLEY","add","Study1","U",10029,"20",2521,"",0,"add",0
76,"w218848BM",9,"JAM Version A","VALLEY","add","Study1","U",2406,"0",2826,"low",0,"add",0
77,"w10088817_XD",9,"JAM Version A","WAGE","money","Study1","F",3061,"100",5598,"price",20,"money",0
77,"w10098918_eks",9,"JAM Version A","WAGE","money","Study1","F",4118,"90",782,"",0,"money",0
77,"w10103818",9,"JAM Version A","WAGE","money","Study1","F",2203,"60",3243,"money",100,"money",1
77,"w10059664CB",9,"JAM Version A","WAGE","money","Study1","F",4235,"100",3462,"money ",100,"money",1
77,"w10071305_mkt",9,"JAM Version A","WAGE","money","Study1","F",3766,"87",2876,"money",100,"money",1
77,"5eb5a8cb24edf10dc07e97c0",9,"JAM Version A","WAGE","money","Study1","F",4792,NA,2465,"pay",25,"money",0
77,"5eca602581b3801c9f178cec",9,"JAM Version A","WAGE","money","Study1","F",3134,"77",3826,"salery",36.363636363636,"money",0
77,"w218848BM",9,"JAM Version A","WAGE","money","Study1","F",2723,"100",2908,"money",100,"money",1
78,"w10071305_mkt",9,"JAM Version A","WAY","out","Study1","F",2805,"90",1534,"",0,"out",0
78,"5eb5a8cb24edf10dc07e97c0",9,"JAM Version A","WAY","out","Study1","F",662,NA,1901,"out#",85.714285714286,"out",1
78,"w10098918_eks",9,"JAM Version A","WAY","out","Study1","F",3606,"60",1208,"",0,"out",0
78,"w10103818",9,"JAM Version A","WAY","out","Study1","F",1496,"50",6914,"over",28.571428571429,"out",0
78,"w10088817_XD",9,"JAM Version A","WAY","out","Study1","F",4475,"45",7148,"out",100,"out",1
78,"5eca602581b3801c9f178cec",9,"JAM Version A","WAY","out","Study1","F",3043,"88",3310,"ward",0,"out",0
78,"w10059664CB",9,"JAM Version A","WAY","out","Study1","F",3930,"20",3642,"find ",0,"out",0
78,"w218848BM",9,"JAM Version A","WAY","out","Study1","F",2341,"0",5406,"direction",16.666666666667,"out",0
79,"w10103818",9,"JAM Version A","WINE","cheese","Study1","S",550,"40",3239,"grapes",33.333333333333,"cheese",0
79,"w10098918_eks",9,"JAM Version A","WINE","cheese","Study1","S",3317,"76",2220,"cheese",100,"cheese",1
79,"5eca602581b3801c9f178cec",9,"JAM Version A","WINE","cheese","Study1","S",3642,"44",3455,"cheese",100,"cheese",1
79,"w10071305_mkt",9,"JAM Version A","WINE","cheese","Study1","S",3253,"60",2820,"cheese",100,"cheese",1
79,"w10088817_XD",9,"JAM Version A","WINE","cheese","Study1","S",3321,"5",5294,"drink'",0,"cheese",0
79,"5eb5a8cb24edf10dc07e97c0",9,"JAM Version A","WINE","cheese","Study1","S",5883,NA,126769,"red",22.222222222222,"cheese",0
79,"w10059664CB",9,"JAM Version A","WINE","cheese","Study1","S",8670,"100",2636,"cheese",100,"cheese",1
79,"w218848BM",9,"JAM Version A","WINE","cheese","Study1","S",4553,"100",2459,"cheese",100,"cheese",1
80,"w10088817_XD",9,"JAM Version A","WORK","chore","Study1","B",5534,"25",1099,"",0,"chore",0
80,"5eca602581b3801c9f178cec",9,"JAM Version A","WORK","chore","Study1","B",2865,"55",3456,"place",40,"chore",0
80,"w10059664CB",9,"JAM Version A","WORK","chore","Study1","B",3390,"60",5960,"miserable",14.285714285714,"chore",0
80,"w10103818",9,"JAM Version A","WORK","chore","Study1","B",1544,"60",3778,"place",40,"chore",0
80,"w10098918_eks",9,"JAM Version A","WORK","chore","Study1","B",2998,"1",1300,"",0,"chore",0
80,"5eb5a8cb24edf10dc07e97c0",9,"JAM Version A","WORK","chore","Study1","B",442,NA,6405,"life",22.222222222222,"chore",0
80,"w10071305_mkt",9,"JAM Version A","WORK","chore","Study1","B",1145,"99",8069,"chore",100,"chore",1
80,"w218848BM",9,"JAM Version A","WORK","chore","Study1","B",1759,"100",5855,"labor",40,"chore",0
81,"5eb5a8cb24edf10dc07e97c0",9,"JAM Version A","ADJOURN","end","Study2","F",1450,NA,966,"",0,"end",0
81,"w10088817_XD",9,"JAM Version A","ADJOURN","end","Study2","F",3823,"98",3131,"",0,"end",0
81,"w218848BM",9,"JAM Version A","ADJOURN","end","Study2","F",2779,"100",2087,"end",100,"end",1
81,"w10059664CB",9,"JAM Version A","ADJOURN","end","Study2","F",3651,"100",3197,"end",100,"end",1
81,"5eca602581b3801c9f178cec",9,"JAM Version A","ADJOURN","end","Study2","F",2932,"32",1164,"",0,"end",0
81,"w10098918_eks",9,"JAM Version A","ADJOURN","end","Study2","F",2697,"1",2015,"",0,"end",0
81,"w10103818",9,"JAM Version A","ADJOURN","end","Study2","F",516,"30",1026,"",0,"end",0
81,"w10071305_mkt",9,"JAM Version A","ADJOURN","end","Study2","F",1618,"78",950,"",0,"end",0
82,"5eb5a8cb24edf10dc07e97c0",9,"JAM Version A","AFFECTION","love","Study2","F",906,NA,10768,"",0,"love",0
82,"w10098918_eks",9,"JAM Version A","AFFECTION","love","Study2","F",4747,"10",1043,"",0,"love",0
82,"w218848BM",9,"JAM Version A","AFFECTION","love","Study2","F",1375,"100",2527,"love",100,"love",1
82,"w10071305_mkt",9,"JAM Version A","AFFECTION","love","Study2","F",1048,"99",1730,"love",100,"love",1
82,"w10088817_XD",9,"JAM Version A","AFFECTION","love","Study2","F",1555,"100",4260,"love",100,"love",1
82,"w10103818",9,"JAM Version A","AFFECTION","love","Study2","F",1418,"70",2131,"love",100,"love",1
82,"w10059664CB",9,"JAM Version A","AFFECTION","love","Study2","F",2863,"100",2353,"love",100,"love",1
82,"5eca602581b3801c9f178cec",9,"JAM Version A","AFFECTION","love","Study2","F",5155,"7",899,"",0,"love",0
83,"5eb5a8cb24edf10dc07e97c0",9,"JAM Version A","ALONE","lonely","Study2","S",554,NA,3781,"lonely",100,"lonely",1
83,"w10098918_eks",9,"JAM Version A","ALONE","lonely","Study2","S",4549,"80",2286,"lonely",100,"lonely",1
83,"w10103818",9,"JAM Version A","ALONE","lonely","Study2","S",647,"56",2719,"me",25,"lonely",0
83,"w10071305_mkt",9,"JAM Version A","ALONE","lonely","Study2","S",811,"90",3703,"together",28.571428571429,"lonely",0
83,"5eca602581b3801c9f178cec",9,"JAM Version A","ALONE","lonely","Study2","S",3126,"64",8109,"lonely ",100,"lonely",1
83,"w10059664CB",9,"JAM Version A","ALONE","lonely","Study2","S",3022,"100",2848,"lonely",100,"lonely",1
83,"w218848BM",9,"JAM Version A","ALONE","lonely","Study2","S",1581,"100",5527,"lonely",100,"lonely",1
83,"w10088817_XD",9,"JAM Version A","ALONE","lonely","Study2","S",2044,"100",3499,"lonely",100,"lonely",1
84,"5eb5a8cb24edf10dc07e97c0",9,"JAM Version A","BAD","villain","Study2","B",1704,NA,41900,"good",0,"villain",0
84,"w10103818",9,"JAM Version A","BAD","villain","Study2","B",1351,"60",1659,"good",0,"villain",0
84,"w218848BM",9,"JAM Version A","BAD","villain","Study2","B",2418,"100",5981,"delinquent",35.294117647059,"villain",0
84,"w10088817_XD",9,"JAM Version A","BAD","villain","Study2","B",3568,"96",1112,"",0,"villain",0
84,"w10098918_eks",9,"JAM Version A","BAD","villain","Study2","B",1648,"23",5467,"toilet",30.769230769231,"villain",0
84,"5eca602581b3801c9f178cec",9,"JAM Version A","BAD","villain","Study2","B",3105,"76",3283,"goid",18.181818181818,"villain",0
84,"w10059664CB",9,"JAM Version A","BAD","villain","Study2","B",2656,"100",4609,"behavior ",26.666666666667,"villain",0
84,"w10071305_mkt",9,"JAM Version A","BAD","villain","Study2","B",2011,"99",3396,"good",0,"villain",0
85,"5eb5a8cb24edf10dc07e97c0",9,"JAM Version A","BASEBALL","league","Study2","B",1526,NA,2693,"bat",22.222222222222,"league",0
85,"w10088817_XD",9,"JAM Version A","BASEBALL","league","Study2","B",2592,"100",51286,"league",100,"league",1
85,"w218848BM",9,"JAM Version A","BASEBALL","league","Study2","B",3276,"100",1630,"bat",22.222222222222,"league",0
85,"w10103818",9,"JAM Version A","BASEBALL","league","Study2","B",320,"5",4155,"soccerball",25,"league",0
85,"w10059664CB",9,"JAM Version A","BASEBALL","league","Study2","B",2519,"100",3432,"cap",22.222222222222,"league",0
85,"w10071305_mkt",9,"JAM Version A","BASEBALL","league","Study2","B",2041,"99",3371,"catcher",30.769230769231,"league",0
85,"w10098918_eks",9,"JAM Version A","BASEBALL","league","Study2","B",2727,"20",4177,"league",100,"league",1
85,"5eca602581b3801c9f178cec",9,"JAM Version A","BASEBALL","league","Study2","B",2913,"7",4631,"league",100,"league",1
86,"5eb5a8cb24edf10dc07e97c0",9,"JAM Version A","BEST","favorite","Study2","B",532,NA,2780,"",0,"favorite",0
86,"w218848BM",9,"JAM Version A","BEST","favorite","Study2","B",2820,"100",3265,"better",28.571428571429,"favorite",0
86,"w10059664CB",9,"JAM Version A","BEST","favorite","Study2","B",7991,"80",4588,"great",30.769230769231,"favorite",0
86,"w10103818",9,"JAM Version A","BEST","favorite","Study2","B",1123,"49",2734,"worst",46.153846153846,"favorite",0
86,"w10088817_XD",9,"JAM Version A","BEST","favorite","Study2","B",2890,"36",1057,"",0,"favorite",0
86,"w10098918_eks",9,"JAM Version A","BEST","favorite","Study2","B",2960,"70",3714,"favorite",100,"favorite",1
86,"w10071305_mkt",9,"JAM Version A","BEST","favorite","Study2","B",1038,"99",4107,"",0,"favorite",0
86,"5eca602581b3801c9f178cec",9,"JAM Version A","BEST","favorite","Study2","B",2861,"43",714,"",0,"favorite",0
87,"5eb5a8cb24edf10dc07e97c0",9,"JAM Version A","BIRD","penguin","Study2","B",10904,NA,3331,"fly",0,"penguin",0
87,"w218848BM",9,"JAM Version A","BIRD","penguin","Study2","B",3327,"50",3905,"penguin",100,"penguin",1
87,"w10059664CB",9,"JAM Version A","BIRD","penguin","Study2","B",2625,"100",6368,"penguins ",93.333333333333,"penguin",1
87,"w10098918_eks",9,"JAM Version A","BIRD","penguin","Study2","B",8858,"15",3078,"penguin",100,"penguin",1
87,"w10103818",9,"JAM Version A","BIRD","penguin","Study2","B",940,"35",8017,"swan",18.181818181818,"penguin",0
87,"5eca602581b3801c9f178cec",9,"JAM Version A","BIRD","penguin","Study2","B",3017,"32",1054,"",0,"penguin",0
87,"w10071305_mkt",9,"JAM Version A","BIRD","penguin","Study2","B",1719,"8",2100,"",0,"penguin",0
87,"w10088817_XD",9,"JAM Version A","BIRD","penguin","Study2","B",4595,"78",5212,"swan",18.181818181818,"penguin",0
88,"5eb5a8cb24edf10dc07e97c0",9,"JAM Version A","BOTH","ounce","Study2","U",809,NA,1703,"",0,"ounce",0
88,"w10059664CB",9,"JAM Version A","BOTH","ounce","Study2","U",3677,"20",5648,"none",44.444444444444,"ounce",0
88,"w218848BM",9,"JAM Version A","BOTH","ounce","Study2","U",21131,"0",2877,"",0,"ounce",0
88,"w10103818",9,"JAM Version A","BOTH","ounce","Study2","U",1166,"74",2109,"one",75,"ounce",1
88,"w10071305_mkt",9,"JAM Version A","BOTH","ounce","Study2","U",1098,"0",881,"",0,"ounce",0
88,"5eca602581b3801c9f178cec",9,"JAM Version A","BOTH","ounce","Study2","U",3052,"66",2445,"",0,"ounce",0
88,"w10098918_eks",9,"JAM Version A","BOTH","ounce","Study2","U",5143,"22",2093,"",0,"ounce",0
88,"w10088817_XD",9,"JAM Version A","BOTH","ounce","Study2","U",5280,"24",957,"",0,"ounce",0
89,"5eb5a8cb24edf10dc07e97c0",9,"JAM Version A","CACTUS","plant","Study2","F",3009,NA,3726,"plant",100,"plant",1
89,"w10059664CB",9,"JAM Version A","CACTUS","plant","Study2","F",3214,"100",2343,"plant",100,"plant",1
89,"w10071305_mkt",9,"JAM Version A","CACTUS","plant","Study2","F",2608,"45",3794,"plant",100,"plant",1
89,"w218848BM",9,"JAM Version A","CACTUS","plant","Study2","F",2060,"100",2203,"plant",100,"plant",1
89,"5eca602581b3801c9f178cec",9,"JAM Version A","CACTUS","plant","Study2","F",2686,"1",1085,"",0,"plant",0
89,"w10088817_XD",9,"JAM Version A","CACTUS","plant","Study2","F",1790,"100",3662,"plant",100,"plant",1
89,"w10098918_eks",9,"JAM Version A","CACTUS","plant","Study2","F",5367,"75",2368,"plant",100,"plant",1
89,"w10103818",9,"JAM Version A","CACTUS","plant","Study2","F",947,"30",3579,"plant",100,"plant",1
90,"w218848BM",9,"JAM Version A","CAKE","clothes","Study2","U",1385,"0",5254,"icecream",26.666666666667,"clothes",0
90,"w10098918_eks",9,"JAM Version A","CAKE","clothes","Study2","U",4900,"2",2186,"",0,"clothes",0
90,"w10103818",9,"JAM Version A","CAKE","clothes","Study2","U",675,"60",4461,"pops",36.363636363636,"clothes",0
90,"w10059664CB",9,"JAM Version A","CAKE","clothes","Study2","U",2543,"0",2188,"pop",20,"clothes",0
90,"w10088817_XD",9,"JAM Version A","CAKE","clothes","Study2","U",4055,"31",1579,"",0,"clothes",0
90,"5eca602581b3801c9f178cec",9,"JAM Version A","CAKE","clothes","Study2","U",2995,"85",3841,"mix",0,"clothes",0
90,"5eb5a8cb24edf10dc07e97c0",9,"JAM Version A","CAKE","clothes","Study2","U",2323,NA,29901,"",0,"clothes",0
90,"w10071305_mkt",9,"JAM Version A","CAKE","clothes","Study2","U",1060,"0",3469,"clothes",100,"clothes",1
91,"w218848BM",9,"JAM Version A","CANDLE","wax","Study2","S",2027,"100",2171,"wax",100,"wax",1
91,"5eb5a8cb24edf10dc07e97c0",9,"JAM Version A","CANDLE","wax","Study2","S",508,NA,6013,"flame",25,"wax",0
91,"w10098918_eks",9,"JAM Version A","CANDLE","wax","Study2","S",2839,"80",2461,"wax",100,"wax",1
91,"w10103818",9,"JAM Version A","CANDLE","wax","Study2","S",1969,"57",2078,"lit",0,"wax",0
91,"w10059664CB",9,"JAM Version A","CANDLE","wax","Study2","S",4057,"100",2058,"wax",100,"wax",1
91,"w10088817_XD",9,"JAM Version A","CANDLE","wax","Study2","S",1665,"100",2598,"wax",100,"wax",1
91,"5eca602581b3801c9f178cec",9,"JAM Version A","CANDLE","wax","Study2","S",3094,"42",936,"",0,"wax",0
91,"w10071305_mkt",9,"JAM Version A","CANDLE","wax","Study2","S",2132,"99",3522,"wax",100,"wax",1
92,"w10059664CB",9,"JAM Version A","CAR","windshield","Study2","B",5729,"100",4515,"vehicle ",35.294117647059,"windshield",0
92,"5eca602581b3801c9f178cec",9,"JAM Version A","CAR","windshield","Study2","B",3021,"43",4539,"crash",26.666666666667,"windshield",0
92,"5eb5a8cb24edf10dc07e97c0",9,"JAM Version A","CAR","windshield","Study2","B",1082,NA,460,"",0,"windshield",0
92,"w10098918_eks",9,"JAM Version A","CAR","windshield","Study2","B",2691,"22",2078,"",0,"windshield",0
92,"w10103818",9,"JAM Version A","CAR","windshield","Study2","B",1961,"70",2582,"key",15.384615384615,"windshield",0
92,"w218848BM",9,"JAM Version A","CAR","windshield","Study2","B",2066,"100",2491,"driver",37.5,"windshield",0
92,"w10071305_mkt",9,"JAM Version A","CAR","windshield","Study2","B",3243,"60",4282,"vehicle",35.294117647059,"windshield",0
92,"w10088817_XD",9,"JAM Version A","CAR","windshield","Study2","B",1929,"100",7104,"windshield",100,"windshield",1
93,"w10098918_eks",9,"JAM Version A","CAT","panther","Study2","B",941,"0",3135,"dog",0,"panther",0
93,"w10103818",9,"JAM Version A","CAT","panther","Study2","B",771,"34",2105,"dog",0,"panther",0
93,"5eca602581b3801c9f178cec",9,"JAM Version A","CAT","panther","Study2","B",3064,"64",867,"",0,"panther",0
93,"5eb5a8cb24edf10dc07e97c0",9,"JAM Version A","CAT","panther","Study2","B",619,NA,38944,"dog",0,"panther",0
93,"w218848BM",9,"JAM Version A","CAT","panther","Study2","B",1906,"100",3511,"dog",0,"panther",0
93,"w10088817_XD",9,"JAM Version A","CAT","panther","Study2","B",2567,"65",2476,"dog",0,"panther",0
93,"w10059664CB",9,"JAM Version A","CAT","panther","Study2","B",2983,"70",8046,"panther",100,"panther",1
93,"w10071305_mkt",9,"JAM Version A","CAT","panther","Study2","B",1589,"5",2303,"dog",0,"panther",0
94,"w10098918_eks",9,"JAM Version A","CHERRY","red","Study2","F",3758,"95",1716,"red",100,"red",1
94,"5eb5a8cb24edf10dc07e97c0",9,"JAM Version A","CHERRY","red","Study2","F",862,NA,1614,"",0,"red",0
94,"w10071305_mkt",9,"JAM Version A","CHERRY","red","Study2","F",3038,"99",2380,"red",100,"red",1
94,"w10088817_XD",9,"JAM Version A","CHERRY","red","Study2","F",1872,"100",3259,"red",100,"red",1
94,"w10059664CB",9,"JAM Version A","CHERRY","red","Study2","F",3334,"100",2053,"red",100,"red",1
94,"w218848BM",9,"JAM Version A","CHERRY","red","Study2","F",1255,"100",2190,"red",100,"red",1
94,"w10103818",9,"JAM Version A","CHERRY","red","Study2","F",771,"65",4161,"tomateo",20,"red",0
94,"5eca602581b3801c9f178cec",9,"JAM Version A","CHERRY","red","Study2","F",4040,")5",3387,"wine",28.571428571429,"red",0
95,"5eb5a8cb24edf10dc07e97c0",9,"JAM Version A","CHILL","cold","Study2","F",1359,NA,1062,"",0,"cold",0
95,"w10059664CB",9,"JAM Version A","CHILL","cold","Study2","F",4092,"90",2398,"cold",100,"cold",1
95,"w10071305_mkt",9,"JAM Version A","CHILL","cold","Study2","F",1809,"90",3391,"cold",100,"cold",1
95,"w10098918_eks",9,"JAM Version A","CHILL","cold","Study2","F",3472,"21",4866,"",0,"cold",0
95,"w10103818",9,"JAM Version A","CHILL","cold","Study2","F",781,"30",4272,"hot",28.571428571429,"cold",0
95,"5eca602581b3801c9f178cec",9,"JAM Version A","CHILL","cold","Study2","F",2850,"53",1023,"",0,"cold",0
95,"w218848BM",9,"JAM Version A","CHILL","cold","Study2","F",2240,"100",2068,"cold",100,"cold",1
95,"w10088817_XD",9,"JAM Version A","CHILL","cold","Study2","F",2363,"65",4928," cold",100,"cold",1
96,"w10059664CB",9,"JAM Version A","CHOP","cut","Study2","F",2616,"100",2821,"cut",100,"cut",1
96,"w10103818",9,"JAM Version A","CHOP","cut","Study2","F",944,"50",1752,"cut",100,"cut",1
96,"5eca602581b3801c9f178cec",9,"JAM Version A","CHOP","cut","Study2","F",3019,"43",1212,"",0,"cut",0
96,"w10071305_mkt",9,"JAM Version A","CHOP","cut","Study2","F",742,"9",4587,"cut",100,"cut",1
96,"5eb5a8cb24edf10dc07e97c0",9,"JAM Version A","CHOP","cut","Study2","F",512,NA,3612,"",0,"cut",0
96,"w10088817_XD",9,"JAM Version A","CHOP","cut","Study2","F",2220,"100",2945,"cut",100,"cut",1
96,"w10098918_eks",9,"JAM Version A","CHOP","cut","Study2","F",2506,"1",1041,"",0,"cut",0
96,"w218848BM",9,"JAM Version A","CHOP","cut","Study2","F",1392,"100",2355,"cut",100,"cut",1
97,"w10103818",9,"JAM Version A","CLUE","game","Study2","F",541,"56",2942,"hint",0,"game",0
97,"5eca602581b3801c9f178cec",9,"JAM Version A","CLUE","game","Study2","F",5110,"54",928,"",0,"game",0
97,"w10088817_XD",9,"JAM Version A","CLUE","game","Study2","F",24532,"75",1012,"",0,"game",0
97,"w10071305_mkt",9,"JAM Version A","CLUE","game","Study2","F",1486,"90",4271,"less",25,"game",0
97,"5eb5a8cb24edf10dc07e97c0",9,"JAM Version A","CLUE","game","Study2","F",471,NA,1618,"",0,"game",0
97,"w218848BM",9,"JAM Version A","CLUE","game","Study2","F",5267,"50",3985,"game",100,"game",1
97,"w10059664CB",9,"JAM Version A","CLUE","game","Study2","F",3601,"80",2226,"hung",25,"game",0
97,"w10098918_eks",9,"JAM Version A","CLUE","game","Study2","F",2813,"10",1531,"",0,"game",0
98,"w10071305_mkt",9,"JAM Version A","CRACKLE","able","Study2","U",1393,"8",3222,"pop",0,"able",0
98,"w10088817_XD",9,"JAM Version A","CRACKLE","able","Study2","U",2807,"25",6854,"",0,"able",0
98,"w10098918_eks",9,"JAM Version A","CRACKLE","able","Study2","U",1019,NA,1509,"",0,"able",0
98,"5eb5a8cb24edf10dc07e97c0",9,"JAM Version A","CRACKLE","able","Study2","U",696,NA,3048,"pop",0,"able",0
98,"w218848BM",9,"JAM Version A","CRACKLE","able","Study2","U",2495,"0",3741,"",0,"able",0
98,"w10059664CB",9,"JAM Version A","CRACKLE","able","Study2","U",4228,"0",2302,"pop",0,"able",0
98,"w10103818",9,"JAM Version A","CRACKLE","able","Study2","U",380,"30",3829,"pop",0,"able",0
98,"5eca602581b3801c9f178cec",9,"JAM Version A","CRACKLE","able","Study2","U",2896,"86",1027,"",0,"able",0
99,"5eb5a8cb24edf10dc07e97c0",9,"JAM Version A","DEAD","coffin","Study2","B",3255,NA,575623,"",0,"coffin",0
99,"w10059664CB",9,"JAM Version A","DEAD","coffin","Study2","B",2587,"100",2995,"alive",18.181818181818,"coffin",0
99,"w10071305_mkt",9,"JAM Version A","DEAD","coffin","Study2","B",2035,"90",2390,"coffin",100,"coffin",1
99,"5eca602581b3801c9f178cec",9,"JAM Version A","DEAD","coffin","Study2","B",2891,"86",3530,"alige",18.181818181818,"coffin",0
99,"w218848BM",9,"JAM Version A","DEAD","coffin","Study2","B",1524,"100",6939,"coffin",100,"coffin",1
99,"w10098918_eks",9,"JAM Version A","DEAD","coffin","Study2","B",5367,"30",10425,"coffee",66.666666666667,"coffin",1
99,"w10103818",9,"JAM Version A","DEAD","coffin","Study2","B",1171,"50",2376,"alive",18.181818181818,"coffin",0
99,"w10088817_XD",9,"JAM Version A","DEAD","coffin","Study2","B",1641,"100",4011,"casket",16.666666666667,"coffin",0
100,"w10103818",9,"JAM Version A","DETECTIVE","mystery","Study2","F",657,"56",4891,"search",46.153846153846,"mystery",0
100,"5eca602581b3801c9f178cec",9,"JAM Version A","DETECTIVE","mystery","Study2","F",2966,"74",4857,"investigators ",30,"mystery",0
100,"w10059664CB",9,"JAM Version A","DETECTIVE","mystery","Study2","F",3284,"100",3610,"mystery",100,"mystery",1
100,"w10088817_XD",9,"JAM Version A","DETECTIVE","mystery","Study2","F",2948,"89",826,"",0,"mystery",0
100,"w10071305_mkt",9,"JAM Version A","DETECTIVE","mystery","Study2","F",2405,"99",3552,"mystery",100,"mystery",1
100,"5eb5a8cb24edf10dc07e97c0",9,"JAM Version A","DETECTIVE","mystery","Study2","F",1378,NA,4653,"police",15.384615384615,"mystery",0
100,"w218848BM",9,"JAM Version A","DETECTIVE","mystery","Study2","F",4258,"100",2535,"mystery",100,"mystery",1
100,"w10098918_eks",9,"JAM Version A","DETECTIVE","mystery","Study2","F",3861,"45",4389,"mystery",100,"mystery",1
101,"w10098918_eks",9,"JAM Version A","DINE","eat","Study2","F",3961,"50",4336,"food",0,"eat",0
101,"w10088817_XD",9,"JAM Version A","DINE","eat","Study2","F",19055,"100",1830,"",0,"eat",0
101,"w10103818",9,"JAM Version A","DINE","eat","Study2","F",793,"59",2151,"in",0,"eat",0
101,"5eb5a8cb24edf10dc07e97c0",9,"JAM Version A","DINE","eat","Study2","F",1707,NA,514,"",0,"eat",0
101,"w218848BM",9,"JAM Version A","DINE","eat","Study2","F",1971,"100",3870,"in",0,"eat",0
101,"5eca602581b3801c9f178cec",9,"JAM Version A","DINE","eat","Study2","F",2873,"3",9757,"meal",57.142857142857,"eat",1
101,"w10059664CB",9,"JAM Version A","DINE","eat","Study2","F",2610,"100",3643,"eat",100,"eat",1
101,"w10071305_mkt",9,"JAM Version A","DINE","eat","Study2","F",946,"9",3696,"eat",100,"eat",1
102,"5eb5a8cb24edf10dc07e97c0",9,"JAM Version A","DOCUMENT","paper","Study2","F",964,NA,3909,"paper",100,"paper",1
102,"w10059664CB",9,"JAM Version A","DOCUMENT","paper","Study2","F",2595,"100",4196,"paper",100,"paper",1
102,"w10071305_mkt",9,"JAM Version A","DOCUMENT","paper","Study2","F",1080,"99",2460,"papers",90.909090909091,"paper",1
102,"w10098918_eks",9,"JAM Version A","DOCUMENT","paper","Study2","F",2832,"70",2182,"paper",100,"paper",1
102,"5eca602581b3801c9f178cec",9,"JAM Version A","DOCUMENT","paper","Study2","F",3053,"74",1171,"",0,"paper",0
102,"w218848BM",9,"JAM Version A","DOCUMENT","paper","Study2","F",1530,"100",2330,"paper",100,"paper",1
102,"w10088817_XD",9,"JAM Version A","DOCUMENT","paper","Study2","F",2060,"100",3321,"paper",100,"paper",1
102,"w10103818",9,"JAM Version A","DOCUMENT","paper","Study2","F",645,"40",3291,"paper",100,"paper",1
103,"w10103818",9,"JAM Version A","DRIVER","car","Study2","F",656,"60",4113,"passanger",33.333333333333,"car",0
103,"5eca602581b3801c9f178cec",9,"JAM Version A","DRIVER","car","Study2","F",3000,"64",1048,"",0,"car",0
103,"w10059664CB",9,"JAM Version A","DRIVER","car","Study2","F",2593,"100",5843,"uber",28.571428571429,"car",0
103,"5eb5a8cb24edf10dc07e97c0",9,"JAM Version A","DRIVER","car","Study2","F",898,NA,785,"",0,"car",0
103,"w10088817_XD",9,"JAM Version A","DRIVER","car","Study2","F",1806,"100",14592,"truck",25,"car",0
103,"w10071305_mkt",9,"JAM Version A","DRIVER","car","Study2","F",1085,"90",7543,"car",100,"car",1
103,"w10098918_eks",9,"JAM Version A","DRIVER","car","Study2","F",4152,"97",1857,"car",100,"car",1
103,"w218848BM",9,"JAM Version A","DRIVER","car","Study2","F",1160,"100",2363,"car",100,"car",1
104,"w10098918_eks",9,"JAM Version A","DRY","wet","Study2","S",3333,"99",2733,"wet",100,"wet",1
104,"5eb5a8cb24edf10dc07e97c0",9,"JAM Version A","DRY","wet","Study2","S",977,NA,518,"",0,"wet",0
104,"w10088817_XD",9,"JAM Version A","DRY","wet","Study2","S",2241,"100",2965,"wet",100,"wet",1
104,"w10103818",9,"JAM Version A","DRY","wet","Study2","S",612,"58",3041,"wet",100,"wet",1
104,"w10059664CB",9,"JAM Version A","DRY","wet","Study2","S",3494,"100",2477,"wet",100,"wet",1
104,"w218848BM",9,"JAM Version A","DRY","wet","Study2","S",1350,"100",5613,"wet",100,"wet",1
104,"5eca602581b3801c9f178cec",9,"JAM Version A","DRY","wet","Study2","S",3437,"99",3222,"wet",100,"wet",1
104,"w10071305_mkt",9,"JAM Version A","DRY","wet","Study2","S",3381,"0",2144,"wet",100,"wet",1
105,"5eb5a8cb24edf10dc07e97c0",9,"JAM Version A","EARTH","ground","Study2","S",1517,NA,1982,"",0,"ground",0
105,"w10059664CB",9,"JAM Version A","EARTH","ground","Study2","S",2808,"100",4944,"round",90.909090909091,"ground",1
105,"w10071305_mkt",9,"JAM Version A","EARTH","ground","Study2","S",2468,"70",5169,"moon",40,"ground",0
105,"w10098918_eks",9,"JAM Version A","EARTH","ground","Study2","S",2775,"20",2548,"ground",100,"ground",1
105,"w10103818",9,"JAM Version A","EARTH","ground","Study2","S",733,"65",2971,"round",90.909090909091,"ground",1
105,"5eca602581b3801c9f178cec",9,"JAM Version A","EARTH","ground","Study2","S",3023,"64",4037,"round",90.909090909091,"ground",1
105,"w218848BM",9,"JAM Version A","EARTH","ground","Study2","S",1806,"100",2425,"grounf",83.333333333333,"ground",1
105,"w10088817_XD",9,"JAM Version A","EARTH","ground","Study2","S",1527,"100",3725,"ground",100,"ground",1
106,"w10098918_eks",9,"JAM Version A","ELEMENT","carbon","Study2","S",1585,"23",1695,"",0,"carbon",0
106,"w10103818",9,"JAM Version A","ELEMENT","carbon","Study2","S",954,"64",4156,"surroundsing",33.333333333333,"carbon",0
106,"5eca602581b3801c9f178cec",9,"JAM Version A","ELEMENT","carbon","Study2","S",2637,"3",808,"",0,"carbon",0
106,"5eb5a8cb24edf10dc07e97c0",9,"JAM Version A","ELEMENT","carbon","Study2","S",1463,NA,4658,"weather",30.769230769231,"carbon",0
106,"w218848BM",9,"JAM Version A","ELEMENT","carbon","Study2","S",2603,"100",2772,"carbon",100,"carbon",1
106,"w10088817_XD",9,"JAM Version A","ELEMENT","carbon","Study2","S",2828,"100",3617,"carbon",100,"carbon",1
106,"w10059664CB",9,"JAM Version A","ELEMENT","carbon","Study2","S",4954,"100",14711,"cole",40,"carbon",0
106,"w10071305_mkt",9,"JAM Version A","ELEMENT","carbon","Study2","S",3325,"1",2378,"carbon",100,"carbon",1
107,"w10098918_eks",9,"JAM Version A","EVEN","revenge","Study2","B",2185,"1",2954,"",0,"revenge",0
107,"5eb5a8cb24edf10dc07e97c0",9,"JAM Version A","EVEN","revenge","Study2","B",668,NA,1665,"",0,"revenge",0
107,"w10071305_mkt",9,"JAM Version A","EVEN","revenge","Study2","B",2655,"0",2366,"odd",0,"revenge",0
107,"w10088817_XD",9,"JAM Version A","EVEN","revenge","Study2","B",7605,"50",9675,"revenge",100,"revenge",1
107,"w10059664CB",9,"JAM Version A","EVEN","revenge","Study2","B",3923,"50",10724,"square",30.769230769231,"revenge",0
107,"w218848BM",9,"JAM Version A","EVEN","revenge","Study2","B",4278,"100",5445,"revenge",100,"revenge",1
107,"w10103818",9,"JAM Version A","EVEN","revenge","Study2","B",951,"50",1943,"odd",0,"revenge",0
107,"5eca602581b3801c9f178cec",9,"JAM Version A","EVEN","revenge","Study2","B",3159,"4",5938,"enough",46.153846153846,"revenge",0
108,"5eb5a8cb24edf10dc07e97c0",9,"JAM Version A","EXTENSION","long","Study2","F",904,NA,3453,"long",100,"long",1
108,"w10059664CB",9,"JAM Version A","EXTENSION","long","Study2","F",2530,"100",3407,"long",100,"long",1
108,"w10071305_mkt",9,"JAM Version A","EXTENSION","long","Study2","F",2087,"80",2178,"long",100,"long",1
108,"w10098918_eks",9,"JAM Version A","EXTENSION","long","Study2","F",5072,"96",3126,"long",100,"long",1
108,"w10103818",9,"JAM Version A","EXTENSION","long","Study2","F",760,"60",3945,"coarad",20,"long",0
108,"5eca602581b3801c9f178cec",9,"JAM Version A","EXTENSION","long","Study2","F",3741,"64",867,"",0,"long",0
108,"w218848BM",9,"JAM Version A","EXTENSION","long","Study2","F",2589,"100",2312,"long",100,"long",1
108,"w10088817_XD",9,"JAM Version A","EXTENSION","long","Study2","F",1844,"96",3105,"long",100,"long",1
109,"w10059664CB",9,"JAM Version A","FEUD","fight","Study2","F",4342,"100",2915,"family",36.363636363636,"fight",0
109,"5eb5a8cb24edf10dc07e97c0",9,"JAM Version A","FEUD","fight","Study2","F",1455,NA,3164,"alive",20,"fight",0
109,"5eca602581b3801c9f178cec",9,"JAM Version A","FEUD","fight","Study2","F",3242,"96",873,"",0,"fight",0
109,"w10071305_mkt",9,"JAM Version A","FEUD","fight","Study2","F",2076,"0",7737,"family",36.363636363636,"fight",0
109,"w10098918_eks",9,"JAM Version A","FEUD","fight","Study2","F",3053,"40",1063,"",0,"fight",0
109,"w10103818",9,"JAM Version A","FEUD","fight","Study2","F",1136,"67",6261,"argue",20,"fight",0
109,"w10088817_XD",9,"JAM Version A","FEUD","fight","Study2","F",45336,"100",1116,"",0,"fight",0
109,"w218848BM",9,"JAM Version A","FEUD","fight","Study2","F",2003,"100",2438,"fight",100,"fight",1
110,"5eb5a8cb24edf10dc07e97c0",9,"JAM Version A","FIGHT","brawl","Study2","B",1085,NA,8687,"",0,"brawl",0
110,"5eca602581b3801c9f178cec",9,"JAM Version A","FIGHT","brawl","Study2","B",3006,"42",3868,"vlunb",20,"brawl",0
110,"w10059664CB",9,"JAM Version A","FIGHT","brawl","Study2","B",2658,"100",2935,"brawl",100,"brawl",1
110,"w10103818",9,"JAM Version A","FIGHT","brawl","Study2","B",737,"34",6560,"scrap",40,"brawl",0
110,"w10071305_mkt",9,"JAM Version A","FIGHT","brawl","Study2","B",1106,"0",8385,"attack",18.181818181818,"brawl",0
110,"w10088817_XD",9,"JAM Version A","FIGHT","brawl","Study2","B",1928,"100",11806,"brawl",100,"brawl",1
110,"w10098918_eks",9,"JAM Version A","FIGHT","brawl","Study2","B",3171,"30",1418,"",0,"brawl",0
110,"w218848BM",9,"JAM Version A","FIGHT","brawl","Study2","B",1641,"100",8176,"tackle",36.363636363636,"brawl",0
111,"5eb5a8cb24edf10dc07e97c0",9,"JAM Version A","FISH","sardine","Study2","B",920,NA,3381,"watert",30.769230769231,"sardine",0
111,"w10098918_eks",9,"JAM Version A","FISH","sardine","Study2","B",4816,"20",4079,"sardine",100,"sardine",1
111,"w10103818",9,"JAM Version A","FISH","sardine","Study2","B",660,"64",3319,"tuna",18.181818181818,"sardine",0
111,"w10088817_XD",9,"JAM Version A","FISH","sardine","Study2","B",7080,"89",5467,"smell",33.333333333333,"sardine",0
111,"5eca602581b3801c9f178cec",9,"JAM Version A","FISH","sardine","Study2","B",3093,"87",4802,"tuna ",18.181818181818,"sardine",0
111,"w10059664CB",9,"JAM Version A","FISH","sardine","Study2","B",4031,"100",2233,"tuna",18.181818181818,"sardine",0
111,"w218848BM",9,"JAM Version A","FISH","sardine","Study2","B",3450,"50",10627,"shell",33.333333333333,"sardine",0
111,"w10071305_mkt",9,"JAM Version A","FISH","sardine","Study2","B",2576,"4",2485,"tuna",18.181818181818,"sardine",0
112,"5eca602581b3801c9f178cec",9,"JAM Version A","FLEA","tick","Study2","S",3009,"54",3540,"tick",100,"tick",1
112,"w10098918_eks",9,"JAM Version A","FLEA","tick","Study2","S",4262,"12",1870,"",0,"tick",0
112,"5eb5a8cb24edf10dc07e97c0",9,"JAM Version A","FLEA","tick","Study2","S",31332,NA,4546,"tick",100,"tick",1
112,"w10059664CB",9,"JAM Version A","FLEA","tick","Study2","S",2850,"100",2796,"tick",100,"tick",1
112,"w218848BM",9,"JAM Version A","FLEA","tick","Study2","S",2522,"50",2093,"tick",100,"tick",1
112,"w10103818",9,"JAM Version A","FLEA","tick","Study2","S",473,"40",1259,"",0,"tick",0
112,"w10071305_mkt",9,"JAM Version A","FLEA","tick","Study2","S",2110,"99",1985,"tick",100,"tick",1
112,"w10088817_XD",9,"JAM Version A","FLEA","tick","Study2","S",1599,"100",3631,"tick",100,"tick",1
113,"5eca602581b3801c9f178cec",9,"JAM Version A","FRUIT","strawberry","Study2","B",2875,"4",1016,"",0,"strawberry",0
113,"w10071305_mkt",9,"JAM Version A","FRUIT","strawberry","Study2","B",1041,"99",5221,"strawberry",100,"strawberry",1
113,"w10103818",9,"JAM Version A","FRUIT","strawberry","Study2","B",874,"5",6451,"strawberry",100,"strawberry",1
113,"w10059664CB",9,"JAM Version A","FRUIT","strawberry","Study2","B",2970,"100",3345,"strawberry",100,"strawberry",1
113,"5eb5a8cb24edf10dc07e97c0",9,"JAM Version A","FRUIT","strawberry","Study2","B",748,NA,4637,"strawberry",100,"strawberry",1
113,"w10098918_eks",9,"JAM Version A","FRUIT","strawberry","Study2","B",3391,"40",4506,"strawberry",100,"strawberry",1
113,"w10088817_XD",9,"JAM Version A","FRUIT","strawberry","Study2","B",2664,"95",6291,"strawberry",100,"strawberry",1
113,"w218848BM",9,"JAM Version A","FRUIT","strawberry","Study2","B",1659,"100",3070,"salad",26.666666666667,"strawberry",0
114,"w10103818",9,"JAM Version A","FURRY","dog","Study2","F",1091,"83",3211,"dog",100,"dog",1
114,"w10059664CB",9,"JAM Version A","FURRY","dog","Study2","F",2681,"90",2090,"dog",100,"dog",1
114,"w10071305_mkt",9,"JAM Version A","FURRY","dog","Study2","F",3467,"5",1627,"dog",100,"dog",1
114,"w10088817_XD",9,"JAM Version A","FURRY","dog","Study2","F",2006,"100",2294,"dog",100,"dog",1
114,"w10098918_eks",9,"JAM Version A","FURRY","dog","Study2","F",2850,"10",7071,"bang",28.571428571429,"dog",0
114,"5eb5a8cb24edf10dc07e97c0",9,"JAM Version A","FURRY","dog","Study2","F",576,NA,149415,"animal",0,"dog",0
114,"5eca602581b3801c9f178cec",9,"JAM Version A","FURRY","dog","Study2","F",3281,"64",1165,"",0,"dog",0
114,"w218848BM",9,"JAM Version A","FURRY","dog","Study2","F",1935,"100",1968,"dog",100,"dog",1
115,"w10098918_eks",9,"JAM Version A","FUZZY","bang","Study2","U",3048,"10",2265,"bang",100,"bang",1
115,"w10071305_mkt",9,"JAM Version A","FUZZY","bang","Study2","U",1036,"0",3572,"dog",28.571428571429,"bang",0
115,"w10088817_XD",9,"JAM Version A","FUZZY","bang","Study2","U",2274,"55",2307,"dog",28.571428571429,"bang",0
115,"w10103818",9,"JAM Version A","FUZZY","bang","Study2","U",870,"60",4056,"blanket",54.545454545455,"bang",0
115,"w10059664CB",9,"JAM Version A","FUZZY","bang","Study2","U",4148,"0",2275,"dog",28.571428571429,"bang",0
115,"5eca602581b3801c9f178cec",9,"JAM Version A","FUZZY","bang","Study2","U",3213,"74",678,"",0,"bang",0
115,"5eb5a8cb24edf10dc07e97c0",9,"JAM Version A","FUZZY","bang","Study2","U",4086,NA,17796,"",0,"bang",0
115,"w218848BM",9,"JAM Version A","FUZZY","bang","Study2","U",4218,"0",1707,"dog",28.571428571429,"bang",0
116,"w10059664CB",9,"JAM Version A","GIVE","steak","Study2","U",2933,"20",2185,"take",66.666666666667,"steak",0
116,"w10098918_eks",9,"JAM Version A","GIVE","steak","Study2","U",2435,"0",6599,"away",22.222222222222,"steak",0
116,"5eb5a8cb24edf10dc07e97c0",9,"JAM Version A","GIVE","steak","Study2","U",847,NA,3159,"take",66.666666666667,"steak",0
116,"5eca602581b3801c9f178cec",9,"JAM Version A","GIVE","steak","Study2","U",2765,"2",1101,"",0,"steak",0
116,"w10071305_mkt",9,"JAM Version A","GIVE","steak","Study2","U",1507,"0",5850,"take",66.666666666667,"steak",0
116,"w218848BM",9,"JAM Version A","GIVE","steak","Study2","U",2697,"0",2061,"take",66.666666666667,"steak",0
116,"w10088817_XD",9,"JAM Version A","GIVE","steak","Study2","U",2658,"35",1330,"",0,"steak",0
116,"w10103818",9,"JAM Version A","GIVE","steak","Study2","U",651,"654",5769,"time",44.444444444444,"steak",0
117,"w10098918_eks",9,"JAM Version A","GLASS","breakable","Study2","B",4547,"35",4288,"breakable",100,"breakable",1
117,"w10103818",9,"JAM Version A","GLASS","breakable","Study2","B",564,"24",2739,"cuo",0,"breakable",0
117,"w10088817_XD",9,"JAM Version A","GLASS","breakable","Study2","B",3371,"99",4734,"break",71.428571428571,"breakable",0
117,"5eca602581b3801c9f178cec",9,"JAM Version A","GLASS","breakable","Study2","B",2961,"64",5075,"break",71.428571428571,"breakable",0
117,"w10071305_mkt",9,"JAM Version A","GLASS","breakable","Study2","B",2324,"80",5329,"breakable",100,"breakable",1
117,"w10059664CB",9,"JAM Version A","GLASS","breakable","Study2","B",2716,"100",3503,"breakable",100,"breakable",1
117,"w218848BM",9,"JAM Version A","GLASS","breakable","Study2","B",12117,"100",3346,"breakable",100,"breakable",1
117,"5eb5a8cb24edf10dc07e97c0",9,"JAM Version A","GLASS","breakable","Study2","B",1060,NA,1533,"",0,"breakable",0
118,"w10098918_eks",9,"JAM Version A","GONE","away","Study2","S",3508,"70",4295,"away",100,"away",1
118,"5eca602581b3801c9f178cec",9,"JAM Version A","GONE","away","Study2","S",3033,"98",1291,"",0,"away",0
118,"w10071305_mkt",9,"JAM Version A","GONE","away","Study2","S",1503,"90",5021,"away",100,"away",1
118,"w10088817_XD",9,"JAM Version A","GONE","away","Study2","S",2041,"100",1495,"",0,"away",0
