Username,ID,ExperimentName,Session,Trial,Date,TimeDif,"Condition Number","Stimuli File","Order File","Condition Description","Condition Notes",Stimuli*Cue,Stimuli*Answer,Stimuli*Shuffle,"Stimuli*Stimuli Notes",Stimuli*Value,Procedure*Item,"Procedure*Trial Type","Procedure*Max Time","Procedure*Min Time",Procedure*Text,"Procedure*Procedure Notes",Procedure*Shuffle,Response*RT,Response*Response,Response*Accuracy,Response*RTfirst,Response*RTlast,Response*strictAcc,Response*lenientAcc,Response*focus,Response*JOL,Response*Focus
w958053_mae,2skctkxt4z,Nick_Dissertation_EX1b,1,1,2020-05-07T07:59:08-07:00,32.499148845673,3,versionC_stim.csv,VC_VersionC.csv,"Version C","Version C",,,,,,0,Instruct,-,5,"In this section, you will be presented with a series of word pairs.",Initial_Instruct,Instruct1,32216,,,-1,-1,,,,,0.727
w958053_mae,2skctkxt4z,Nick_Dissertation_EX1b,1,2,2020-05-07T07:59:30-07:00,22.087192058563,3,versionC_stim.csv,VC_VersionC.csv,"Version C","Version C",,,,,,0,Instruct,-,5,"As you study, you will be asked to count the total number of vowels (a, e, i, o, u) within the two words. Please note that y is not considered a vowel.",,Instruct13,21688,,,-1,-1,,,,,1
w958053_mae,2skctkxt4z,Nick_Dissertation_EX1b,1,3,2020-05-07T07:59:48-07:00,17.340181112289,3,versionC_stim.csv,VC_VersionC.csv,"Version C","Version C",,,,,,0,Instruct,-,10,"For example, if you are given the pair CAT - DOG, CAT has one vowel and DOG has one vowel. The correct response would be 2 (1 + 1 = 2). After typing the number, you will press ENTER to move to the next pair.",,Instruct14,16961,,,-1,-1,,,,,1
w958053_mae,2skctkxt4z,Nick_Dissertation_EX1b,1,4,2020-05-07T07:59:50-07:00,2.7238328456879,3,versionC_stim.csv,VC_VersionC.csv,"Version C","Version C",,,,,,0,Instruct,User,-,"You will now begin the study. Press Enter when you are ready to begin.",,Instruct16,2314,,,-1,-1,,,,,1
w958053_mae,2skctkxt4z,Nick_Dissertation_EX1b,1,5,2020-05-07T08:00:02-07:00,11.652372121811,3,versionC_stim.csv,VC_VersionC.csv,"Version C","Version C",JAM,SPACE,BUFFER1,Buffer,5,4,VC,User,-,"How many vowels are the two words combined?|Type your response below and then press Enter.",Study/JOL,BUFFER,11287,,,7453,7453,,,,3,1
w958053_mae,2skctkxt4z,Nick_Dissertation_EX1b,1,6,2020-05-07T08:00:13-07:00,10.907390832901,3,versionC_stim.csv,VC_VersionC.csv,"Version C","Version C",GREEN,TREES,BUFFER1,Buffer,1,6,VC,User,-,"How many vowels are the two words combined?|Type your response below and then press Enter.",Study/JOL,BUFFER,10529,,,7996,7996,,,,4,1
w958053_mae,2skctkxt4z,Nick_Dissertation_EX1b,1,7,2020-05-07T08:00:32-07:00,19.646034002304,3,versionC_stim.csv,VC_VersionC.csv,"Version C","Version C",CATCHER,BASEBALL,BUFFER1,Buffer,2,3,VC,User,-,"How many vowels are the two words combined?|Type your response below and then press Enter.",Study/JOL,BUFFER,19260,,,17012,17012,,,,4,1
w958053_mae,2skctkxt4z,Nick_Dissertation_EX1b,1,8,2020-05-07T08:00:47-07:00,14.823319196701,3,versionC_stim.csv,VC_VersionC.csv,"Version C","Version C",BUTTER,PEANUT,BUFFER1,Buffer,3,5,VC,User,-,"How many vowels are the two words combined?|Type your response below and then press Enter.",Study/JOL,BUFFER,14437,,,8209,12743,,,,3,1
w958053_mae,2skctkxt4z,Nick_Dissertation_EX1b,1,9,2020-05-07T08:00:59-07:00,11.657684803009,3,versionC_stim.csv,VC_VersionC.csv,"Version C","Version C",HIDE,SCARE,BUFFER1,Buffer,4,2,VC,User,-,"How many vowels are the two words combined?|Type your response below and then press Enter.",Study/JOL,BUFFER,11254,,,9598,9598,,,,4,1
w958053_mae,2skctkxt4z,Nick_Dissertation_EX1b,1,10,2020-05-07T08:01:15-07:00,16.444827079773,3,versionC_stim.csv,VC_VersionC.csv,"Version C","Version C",END,BEGIN,Study1,S,54,77,VC,User,-,"How many vowels are the two words combined?|Type your response below and then press Enter.",Study/JOL,"Study Phase",15501,,,13800,13800,,,,3,1
w958053_mae,2skctkxt4z,Nick_Dissertation_EX1b,1,11,2020-05-07T08:01:27-07:00,11.14936709404,3,versionC_stim.csv,VC_VersionC.csv,"Version C","Version C",WATER,BRIDGE,Study1,B,18,84,VC,User,-,"How many vowels are the two words combined?|Type your response below and then press Enter.",Study/JOL,"Study Phase",10766,,,9504,9504,,,,4,1
w958053_mae,2skctkxt4z,Nick_Dissertation_EX1b,1,12,2020-05-07T08:01:36-07:00,9.7324278354645,3,versionC_stim.csv,VC_VersionC.csv,"Version C","Version C",CHILI,HOT,Study1,F,37,13,VC,User,-,"How many vowels are the two words combined?|Type your response below and then press Enter.",Study/JOL,"Study Phase",9405,,,8158,8158,,,,3,1
w958053_mae,2skctkxt4z,Nick_Dissertation_EX1b,1,13,2020-05-07T08:01:48-07:00,11.540348052979,3,versionC_stim.csv,VC_VersionC.csv,"Version C","Version C",FAMINE,HUNGER,Study1,F,40,75,VC,User,-,"How many vowels are the two words combined?|Type your response below and then press Enter.",Study/JOL,"Study Phase",11136,,,9889,9889,,,,4,1
w958053_mae,2skctkxt4z,Nick_Dissertation_EX1b,1,14,2020-05-07T08:02:02-07:00,13.931960105896,3,versionC_stim.csv,VC_VersionC.csv,"Version C","Version C",STING,HORNET,Study1,B,11,76,VC,User,-,"How many vowels are the two words combined?|Type your response below and then press Enter.",Study/JOL,"Study Phase",13544,,,9577,12330,,,,3,1
w958053_mae,2skctkxt4z,Nick_Dissertation_EX1b,1,15,2020-05-07T08:02:21-07:00,19.569029808044,3,versionC_stim.csv,VC_VersionC.csv,"Version C","Version C",STOMACH,DIGESTION,Study1,B,7,33,VC,User,-,"How many vowels are the two words combined?|Type your response below and then press Enter.",Study/JOL,"Study Phase",19199,,,17126,17126,,,,6,1
w958053_mae,2skctkxt4z,Nick_Dissertation_EX1b,1,16,2020-05-07T08:02:40-07:00,18.64356303215,3,versionC_stim.csv,VC_VersionC.csv,"Version C","Version C",BAD,DELINQUENT,Study1,B,6,46,VC,User,-,"How many vowels are the two words combined?|Type your response below and then press Enter.",Study/JOL,"Study Phase",18261,,,16304,16304,,,,5,1
w958053_mae,2skctkxt4z,Nick_Dissertation_EX1b,1,17,2020-05-07T08:02:50-07:00,9.5234010219574,3,versionC_stim.csv,VC_VersionC.csv,"Version C","Version C",HUNGRY,PARK,Study1,U,68,32,VC,User,-,"How many vowels are the two words combined?|Type your response below and then press Enter.",Study/JOL,"Study Phase",9180,,,7301,7301,,,,2,1
w958053_mae,2skctkxt4z,Nick_Dissertation_EX1b,1,18,2020-05-07T08:03:08-07:00,18.283768177032,3,versionC_stim.csv,VC_VersionC.csv,"Version C","Version C",SITE,LOCATION,Study1,S,48,24,VC,User,-,"How many vowels are the two words combined?|Type your response below and then press Enter.",Study/JOL,"Study Phase",17880,,,16568,16568,,,,6,1
w958053_mae,2skctkxt4z,Nick_Dissertation_EX1b,1,19,2020-05-07T08:03:20-07:00,11.86174082756,3,versionC_stim.csv,VC_VersionC.csv,"Version C","Version C",ATTORNEY,LAW,Study1,F,34,39,VC,User,-,"How many vowels are the two words combined?|Type your response below and then press Enter.",Study/JOL,"Study Phase",11487,,,10433,10433,,,,4,1
w958053_mae,2skctkxt4z,Nick_Dissertation_EX1b,1,20,2020-05-07T08:03:31-07:00,11.485510110855,3,versionC_stim.csv,VC_VersionC.csv,"Version C","Version C",BLAZE,FIRE,Study1,F,45,18,VC,User,-,"How many vowels are the two words combined?|Type your response below and then press Enter.",Study/JOL,"Study Phase",11086,,,9200,9200,,,,4,1
w958053_mae,2skctkxt4z,Nick_Dissertation_EX1b,1,21,2020-05-07T08:03:44-07:00,12.647932052612,3,versionC_stim.csv,VC_VersionC.csv,"Version C","Version C",CLEAN,HYGIENE,Study1,B,17,27,VC,User,-,"How many vowels are the two words combined?|Type your response below and then press Enter.",Study/JOL,"Study Phase",12269,,,11099,11099,,,,5,1
w958053_mae,2skctkxt4z,Nick_Dissertation_EX1b,1,22,2020-05-07T08:04:01-07:00,17.564363956451,3,versionC_stim.csv,VC_VersionC.csv,"Version C","Version C",DESIGN,ARCHITECTURE,Study1,S,51,44,VC,User,-,"How many vowels are the two words combined?|Type your response below and then press Enter.",Study/JOL,"Study Phase",17189,,,15978,15978,,,,6,1
w958053_mae,2skctkxt4z,Nick_Dissertation_EX1b,1,23,2020-05-07T08:04:12-07:00,10.654985904694,3,versionC_stim.csv,VC_VersionC.csv,"Version C","Version C",ENOUGH,FULL,Study1,F,26,40,VC,User,-,"How many vowels are the two words combined?|Type your response below and then press Enter.",Study/JOL,"Study Phase",10273,,,9199,9200,,,,4,1
w958053_mae,2skctkxt4z,Nick_Dissertation_EX1b,1,24,2020-05-07T08:04:21-07:00,8.6258609294891,3,versionC_stim.csv,VC_VersionC.csv,"Version C","Version C",TUCK,ALLOW,Study1,U,78,73,VC,User,-,"How many vowels are the two words combined?|Type your response below and then press Enter.",Study/JOL,"Study Phase",8290,,,7132,7132,,,,3,1
w958053_mae,2skctkxt4z,Nick_Dissertation_EX1b,1,25,2020-05-07T08:04:36-07:00,15.290368080139,3,versionC_stim.csv,VC_VersionC.csv,"Version C","Version C",FLOWER,ORCHID,Study1,B,24,56,VC,User,-,"How many vowels are the two words combined?|Type your response below and then press Enter.",Study/JOL,"Study Phase",14918,,,12561,12561,,,,4,1
w958053_mae,2skctkxt4z,Nick_Dissertation_EX1b,1,26,2020-05-07T08:04:49-07:00,12.8424680233,3,versionC_stim.csv,VC_VersionC.csv,"Version C","Version C",ADD,VALLEY,Study1,U,82,9,VC,User,-,"How many vowels are the two words combined?|Type your response below and then press Enter.",Study/JOL,"Study Phase",12485,,,6489,11431,,,,3,1
w958053_mae,2skctkxt4z,Nick_Dissertation_EX1b,1,27,2020-05-07T08:05:02-07:00,13.716037034988,3,versionC_stim.csv,VC_VersionC.csv,"Version C","Version C",PILOT,PLANE,Study1,F,44,36,VC,User,-,"How many vowels are the two words combined?|Type your response below and then press Enter.",Study/JOL,"Study Phase",13334,,,10910,10910,,,,4,1
w958053_mae,2skctkxt4z,Nick_Dissertation_EX1b,1,28,2020-05-07T08:05:15-07:00,12.57555603981,3,versionC_stim.csv,VC_VersionC.csv,"Version C","Version C",SALAD,LETTUCE,Study1,S,59,10,VC,User,-,"How many vowels are the two words combined?|Type your response below and then press Enter.",Study/JOL,"Study Phase",12187,,,10429,10429,,,,5,1
w958053_mae,2skctkxt4z,Nick_Dissertation_EX1b,1,29,2020-05-07T08:05:29-07:00,13.5896089077,3,versionC_stim.csv,VC_VersionC.csv,"Version C","Version C",DOG,PAW,Study1,B,15,51,VC,User,-,"How many vowels are the two words combined?|Type your response below and then press Enter.",Study/JOL,"Study Phase",13194,,,11852,11852,,,,2,1
w958053_mae,2skctkxt4z,Nick_Dissertation_EX1b,1,30,2020-05-07T08:05:42-07:00,13.642035961151,3,versionC_stim.csv,VC_VersionC.csv,"Version C","Version C",POSITION,MACHINE,Study1,U,76,61,VC,User,-,"How many vowels are the two words combined?|Type your response below and then press Enter.",Study/JOL,"Study Phase",13254,,,11656,11656,,,,7,1
w958053_mae,2skctkxt4z,Nick_Dissertation_EX1b,1,31,2020-05-07T08:06:00-07:00,17.504279136658,3,versionC_stim.csv,VC_VersionC.csv,"Version C","Version C",FANTASTIC,GREAT,Study1,F,35,80,VC,User,-,"How many vowels are the two words combined?|Type your response below and then press Enter.",Study/JOL,"Study Phase",17107,,,14757,14757,,,,5,1
w958053_mae,2skctkxt4z,Nick_Dissertation_EX1b,1,32,2020-05-07T08:06:08-07:00,8.2933979034424,3,versionC_stim.csv,VC_VersionC.csv,"Version C","Version C",STENCH,SMELL,Study1,F,42,35,VC,User,-,"How many vowels are the two words combined?|Type your response below and then press Enter.",Study/JOL,"Study Phase",7954,,,6891,6891,,,,2,1
w958053_mae,2skctkxt4z,Nick_Dissertation_EX1b,1,33,2020-05-07T08:06:14-07:00,5.9475939273834,3,versionC_stim.csv,VC_VersionC.csv,"Version C","Version C",COW,HERD,Study1,B,22,20,VC,User,-,"How many vowels are the two words combined?|Type your response below and then press Enter.",Study/JOL,"Study Phase",5584,,,3718,3718,,,,2,1
w958053_mae,2skctkxt4z,Nick_Dissertation_EX1b,1,34,2020-05-07T08:06:21-07:00,7.3460869789124,3,versionC_stim.csv,VC_VersionC.csv,"Version C","Version C",HAND,FIX,Study1,U,75,60,VC,User,-,"How many vowels are the two words combined?|Type your response below and then press Enter.",Study/JOL,"Study Phase",7012,,,4771,4771,,,,2,1
w958053_mae,2skctkxt4z,Nick_Dissertation_EX1b,1,35,2020-05-07T08:06:30-07:00,8.8531091213226,3,versionC_stim.csv,VC_VersionC.csv,"Version C","Version C",DROWSY,SLEEP,Study1,F,41,71,VC,User,-,"How many vowels are the two words combined?|Type your response below and then press Enter.",Study/JOL,"Study Phase",8521,,,7200,7200,,,,3,1
w958053_mae,2skctkxt4z,Nick_Dissertation_EX1b,1,36,2020-05-07T08:06:40-07:00,10.188575983047,3,versionC_stim.csv,VC_VersionC.csv,"Version C","Version C",BAR,GRILL,Study1,S,52,70,VC,User,-,"How many vowels are the two words combined?|Type your response below and then press Enter.",Study/JOL,"Study Phase",9813,,,7886,7886,,,,2,1
w958053_mae,2skctkxt4z,Nick_Dissertation_EX1b,1,37,2020-05-07T08:06:46-07:00,5.6215419769287,3,versionC_stim.csv,VC_VersionC.csv,"Version C","Version C",WASP,BUG,Study1,F,32,41,VC,User,-,"How many vowels are the two words combined?|Type your response below and then press Enter.",Study/JOL,"Study Phase",5251,,,4099,4099,,,,2,1
w958053_mae,2skctkxt4z,Nick_Dissertation_EX1b,1,38,2020-05-07T08:06:55-07:00,8.5027561187744,3,versionC_stim.csv,VC_VersionC.csv,"Version C","Version C",CHEESE,WINE,Study1,S,57,83,VC,User,-,"How many vowels are the two words combined?|Type your response below and then press Enter.",Study/JOL,"Study Phase",8174,,,5835,5835,,,,5,1
w958053_mae,2skctkxt4z,Nick_Dissertation_EX1b,1,39,2020-05-07T08:07:04-07:00,9.5383908748627,3,versionC_stim.csv,VC_VersionC.csv,"Version C","Version C",SIP,DRINK,Study1,F,27,67,VC,User,-,"How many vowels are the two words combined?|Type your response below and then press Enter.",Study/JOL,"Study Phase",9194,,,7537,7537,,,,2,1
w958053_mae,2skctkxt4z,Nick_Dissertation_EX1b,1,40,2020-05-07T08:07:15-07:00,10.577079057693,3,versionC_stim.csv,VC_VersionC.csv,"Version C","Version C",SIGHT,DEBATE,Study1,U,73,48,VC,User,-,"How many vowels are the two words combined?|Type your response below and then press Enter.",Study/JOL,"Study Phase",10188,,,8594,8594,,,,4,1
w958053_mae,2skctkxt4z,Nick_Dissertation_EX1b,1,41,2020-05-07T08:07:27-07:00,12.695246934891,3,versionC_stim.csv,VC_VersionC.csv,"Version C","Version C",SACKING,DIETARY,Study1,U,67,22,VC,User,-,"How many vowels are the two words combined?|Type your response below and then press Enter.",Study/JOL,"Study Phase",12316,,,11002,11002,,,,5,1
w958053_mae,2skctkxt4z,Nick_Dissertation_EX1b,1,42,2020-05-07T08:07:47-07:00,19.984576940536,3,versionC_stim.csv,VC_VersionC.csv,"Version C","Version C",CLUTTER,PUSHER,Study1,U,66,7,VC,User,-,"How many vowels are the two words combined?|Type your response below and then press Enter.",Study/JOL,"Study Phase",19571,,,17133,17133,,,,4,0.959
w958053_mae,2skctkxt4z,Nick_Dissertation_EX1b,1,43,2020-05-07T08:08:06-07:00,19.139360189438,3,versionC_stim.csv,VC_VersionC.csv,"Version C","Version C",WAR,REVOLUTION,Study1,B,20,49,VC,User,-,"How many vowels are the two words combined?|Type your response below and then press Enter.",Study/JOL,"Study Phase",18752,,,17562,17562,,,,6,1
w958053_mae,2skctkxt4z,Nick_Dissertation_EX1b,1,44,2020-05-07T08:08:17-07:00,10.769032001495,3,versionC_stim.csv,VC_VersionC.csv,"Version C","Version C",MONEY,WAGE,Study1,B,8,43,VC,User,-,"How many vowels are the two words combined?|Type your response below and then press Enter.",Study/JOL,"Study Phase",10331,,,8646,8646,,,,4,1
w958053_mae,2skctkxt4z,Nick_Dissertation_EX1b,1,45,2020-05-07T08:08:24-07:00,6.5843188762665,3,versionC_stim.csv,VC_VersionC.csv,"Version C","Version C",SICK,HIDE,Study1,U,84,81,VC,User,-,"How many vowels are the two words combined?|Type your response below and then press Enter.",Study/JOL,"Study Phase",6219,,,4381,4381,,,,3,1
w958053_mae,2skctkxt4z,Nick_Dissertation_EX1b,1,46,2020-05-07T08:08:36-07:00,11.917181015015,3,versionC_stim.csv,VC_VersionC.csv,"Version C","Version C",BUSINESS,DEATH,Study1,U,72,66,VC,User,-,"How many vowels are the two words combined?|Type your response below and then press Enter.",Study/JOL,"Study Phase",11541,,,10114,10114,,,,5,1
w958053_mae,2skctkxt4z,Nick_Dissertation_EX1b,1,47,2020-05-07T08:08:43-07:00,6.9620809555054,3,versionC_stim.csv,VC_VersionC.csv,"Version C","Version C",CHORE,WORK,Study1,F,39,25,VC,User,-,"How many vowels are the two words combined?|Type your response below and then press Enter.",Study/JOL,"Study Phase",6636,,,4788,4788,,,,3,1
w958053_mae,2skctkxt4z,Nick_Dissertation_EX1b,1,48,2020-05-07T08:08:52-07:00,9.562196969986,3,versionC_stim.csv,VC_VersionC.csv,"Version C","Version C",NEWS,EDITOR,Study1,B,10,54,VC,User,-,"How many vowels are the two words combined?|Type your response below and then press Enter.",Study/JOL,"Study Phase",9200,,,7571,7572,,,,4,1
w958053_mae,2skctkxt4z,Nick_Dissertation_EX1b,1,49,2020-05-07T08:09:00-07:00,8.2042031288147,3,versionC_stim.csv,VC_VersionC.csv,"Version C","Version C",OUT,WAY,Study1,B,16,34,VC,User,-,"How many vowels are the two words combined?|Type your response below and then press Enter.",Study/JOL,"Study Phase",7890,,,6228,6228,,,,3,1
w958053_mae,2skctkxt4z,Nick_Dissertation_EX1b,1,50,2020-05-07T08:09:10-07:00,9.8520028591156,3,versionC_stim.csv,VC_VersionC.csv,"Version C","Version C",ROUND,CIRCLE,Study1,S,65,37,VC,User,-,"How many vowels are the two words combined?|Type your response below and then press Enter.",Study/JOL,"Study Phase",9471,,,7379,7379,,,,4,1
w958053_mae,2skctkxt4z,Nick_Dissertation_EX1b,1,51,2020-05-07T08:09:18-07:00,7.7376270294189,3,versionC_stim.csv,VC_VersionC.csv,"Version C","Version C",CHILD,BABY,Study1,S,64,12,VC,User,-,"How many vowels are the two words combined?|Type your response below and then press Enter.",Study/JOL,"Study Phase",7415,,,5546,5546,,,,2,1
w958053_mae,2skctkxt4z,Nick_Dissertation_EX1b,1,52,2020-05-07T08:09:28-07:00,9.7004141807556,3,versionC_stim.csv,VC_VersionC.csv,"Version C","Version C",ASSIGNMENT,DUE,Study1,S,46,78,VC,User,-,"How many vowels are the two words combined?|Type your response below and then press Enter.",Study/JOL,"Study Phase",9341,,,7676,7676,,,,5,1
w958053_mae,2skctkxt4z,Nick_Dissertation_EX1b,1,53,2020-05-07T08:09:34-07:00,6.2921388149261,3,versionC_stim.csv,VC_VersionC.csv,"Version C","Version C",CAVE,DARK,Study1,F,28,62,VC,User,-,"How many vowels are the two words combined?|Type your response below and then press Enter.",Study/JOL,"Study Phase",5965,,,4139,4139,,,,3,1
w958053_mae,2skctkxt4z,Nick_Dissertation_EX1b,1,54,2020-05-07T08:09:43-07:00,8.6734659671783,3,versionC_stim.csv,VC_VersionC.csv,"Version C","Version C",RIDDLE,SUGAR,Study1,U,81,19,VC,User,-,"How many vowels are the two words combined?|Type your response below and then press Enter.",Study/JOL,"Study Phase",8314,,,5951,5951,,,,3,1
w958053_mae,2skctkxt4z,Nick_Dissertation_EX1b,1,55,2020-05-07T08:09:57-07:00,14.737403154373,3,versionC_stim.csv,VC_VersionC.csv,"Version C","Version C",AMOUNT,NUMBER,Study1,S,47,47,VC,User,-,"How many vowels are the two words combined?|Type your response below and then press Enter.",Study/JOL,"Study Phase",14213,,,12101,12101,,,,5,0.958
w958053_mae,2skctkxt4z,Nick_Dissertation_EX1b,1,56,2020-05-07T08:10:06-07:00,8.4655220508575,3,versionC_stim.csv,VC_VersionC.csv,"Version C","Version C",JURY,TRIAL,Study1,S,50,69,VC,User,-,"How many vowels are the two words combined?|Type your response below and then press Enter.",Study/JOL,"Study Phase",7461,,,6399,6399,,,,3,1
w958053_mae,2skctkxt4z,Nick_Dissertation_EX1b,1,57,2020-05-07T08:10:14-07:00,7.7658088207245,3,versionC_stim.csv,VC_VersionC.csv,"Version C","Version C",FISH,TUNA,Study1,B,25,31,VC,User,-,"How many vowels are the two words combined?|Type your response below and then press Enter.",Study/JOL,"Study Phase",7266,,,5459,5459,,,,3,1
w958053_mae,2skctkxt4z,Nick_Dissertation_EX1b,1,58,2020-05-07T08:10:21-07:00,7.0993790626526,3,versionC_stim.csv,VC_VersionC.csv,"Version C","Version C",SEIZE,TAKE,Study1,F,29,21,VC,User,-,"How many vowels are the two words combined?|Type your response below and then press Enter.",Study/JOL,"Study Phase",6552,,,5101,5101,,,,5,1
w958053_mae,2skctkxt4z,Nick_Dissertation_EX1b,1,59,2020-05-07T08:10:28-07:00,7.1828711032867,3,versionC_stim.csv,VC_VersionC.csv,"Version C","Version C",ATTIRE,CLOTHES,Study1,F,43,30,VC,User,-,"How many vowels are the two words combined?|Type your response below and then press Enter.",Study/JOL,"Study Phase",6838,,,5012,5012,,,,5,1
w958053_mae,2skctkxt4z,Nick_Dissertation_EX1b,1,60,2020-05-07T08:10:36-07:00,7.6689658164978,3,versionC_stim.csv,VC_VersionC.csv,"Version C","Version C",VASE,KING,Study1,U,85,26,VC,User,-,"How many vowels are the two words combined?|Type your response below and then press Enter.",Study/JOL,"Study Phase",7334,,,5514,5514,,,,3,1
w958053_mae,2skctkxt4z,Nick_Dissertation_EX1b,1,61,2020-05-07T08:10:43-07:00,7.4890689849854,3,versionC_stim.csv,VC_VersionC.csv,"Version C","Version C",BEE,HONEY,Study1,S,63,16,VC,User,-,"How many vowels are the two words combined?|Type your response below and then press Enter.",Study/JOL,"Study Phase",7152,,,4485,4485,,,,4,1
w958053_mae,2skctkxt4z,Nick_Dissertation_EX1b,1,62,2020-05-07T08:10:49-07:00,5.7800199985504,3,versionC_stim.csv,VC_VersionC.csv,"Version C","Version C",WOULD,CASH,Study1,U,83,72,VC,User,-,"How many vowels are the two words combined?|Type your response below and then press Enter.",Study/JOL,"Study Phase",5426,,,3928,3928,,,,3,1
w958053_mae,2skctkxt4z,Nick_Dissertation_EX1b,1,63,2020-05-07T08:10:57-07:00,8.3487272262573,3,versionC_stim.csv,VC_VersionC.csv,"Version C","Version C",FLOOR,DISCOVER,Study1,U,71,55,VC,User,-,"How many vowels are the two words combined?|Type your response below and then press Enter.",Study/JOL,"Study Phase",8003,,,6261,6262,,,,5,1
w958053_mae,2skctkxt4z,Nick_Dissertation_EX1b,1,64,2020-05-07T08:11:02-07:00,4.9320819377899,3,versionC_stim.csv,VC_VersionC.csv,"Version C","Version C",LATCH,KEY,Study1,F,36,28,VC,User,-,"How many vowels are the two words combined?|Type your response below and then press Enter.",Study/JOL,"Study Phase",4587,,,3041,3041,,,,2,1
w958053_mae,2skctkxt4z,Nick_Dissertation_EX1b,1,65,2020-05-07T08:11:08-07:00,5.8381948471069,3,versionC_stim.csv,VC_VersionC.csv,"Version C","Version C",PLANT,ROOT,Study1,B,13,57,VC,User,-,"How many vowels are the two words combined?|Type your response below and then press Enter.",Study/JOL,"Study Phase",5497,,,3933,3933,,,,3,1
w958053_mae,2skctkxt4z,Nick_Dissertation_EX1b,1,66,2020-05-07T08:11:17-07:00,8.960832118988,3,versionC_stim.csv,VC_VersionC.csv,"Version C","Version C",HAMMER,CHISEL,Study1,B,9,74,VC,User,-,"How many vowels are the two words combined?|Type your response below and then press Enter.",Study/JOL,"Study Phase",8600,,,7167,7167,,,,4,1
w958053_mae,2skctkxt4z,Nick_Dissertation_EX1b,1,67,2020-05-07T08:11:26-07:00,8.694757938385,3,versionC_stim.csv,VC_VersionC.csv,"Version C","Version C",BRONZE,ARTERY,Study1,U,74,14,VC,User,-,"How many vowels are the two words combined?|Type your response below and then press Enter.",Study/JOL,"Study Phase",8325,,,6546,6546,,,,4,1
w958053_mae,2skctkxt4z,Nick_Dissertation_EX1b,1,68,2020-05-07T08:11:37-07:00,10.834764003754,3,versionC_stim.csv,VC_VersionC.csv,"Version C","Version C",BELT,SOON,Study1,U,70,79,VC,User,-,"How many vowels are the two words combined?|Type your response below and then press Enter.",Study/JOL,"Study Phase",10457,,,8086,8086,,,,3,0.925
w958053_mae,2skctkxt4z,Nick_Dissertation_EX1b,1,69,2020-05-07T08:11:47-07:00,10.238106012344,3,versionC_stim.csv,VC_VersionC.csv,"Version C","Version C",TOILET,BATHROOM,Study1,S,58,50,VC,User,-,"How many vowels are the two words combined?|Type your response below and then press Enter.",Study/JOL,"Study Phase",9880,,,6807,6807,,,,6,1
w958053_mae,2skctkxt4z,Nick_Dissertation_EX1b,1,70,2020-05-07T08:11:52-07:00,5.6770219802856,3,versionC_stim.csv,VC_VersionC.csv,"Version C","Version C",CAR,HAPPY,Study1,U,77,8,VC,User,-,"How many vowels are the two words combined?|Type your response below and then press Enter.",Study/JOL,"Study Phase",5324,,,3798,3798,,,,2,1
w958053_mae,2skctkxt4z,Nick_Dissertation_EX1b,1,71,2020-05-07T08:12:00-07:00,7.9240131378174,3,versionC_stim.csv,VC_VersionC.csv,"Version C","Version C",TALK,DISCUSSION,Study1,B,21,38,VC,User,-,"How many vowels are the two words combined?|Type your response below and then press Enter.",Study/JOL,"Study Phase",7613,,,6059,6059,,,,4,1
w958053_mae,2skctkxt4z,Nick_Dissertation_EX1b,1,72,2020-05-07T08:12:07-07:00,6.348112821579,3,versionC_stim.csv,VC_VersionC.csv,"Version C","Version C",BIRD,SWAN,Study1,B,14,82,VC,User,-,"How many vowels are the two words combined?|Type your response below and then press Enter.",Study/JOL,"Study Phase",6000,,,4424,4424,,,,2,1
w958053_mae,2skctkxt4z,Nick_Dissertation_EX1b,1,73,2020-05-07T08:12:14-07:00,7.739629983902,3,versionC_stim.csv,VC_VersionC.csv,"Version C","Version C",FUTURE,PAST,Study1,S,61,59,VC,User,-,"How many vowels are the two words combined?|Type your response below and then press Enter.",Study/JOL,"Study Phase",7426,,,5881,5881,,,,4,1
w958053_mae,2skctkxt4z,Nick_Dissertation_EX1b,1,74,2020-05-07T08:12:20-07:00,5.4163541793823,3,versionC_stim.csv,VC_VersionC.csv,"Version C","Version C",FOOT,SHOE,Study1,S,60,86,VC,User,-,"How many vowels are the two words combined?|Type your response below and then press Enter.",Study/JOL,"Study Phase",5076,,,3298,3298,,,,4,1
w958053_mae,2skctkxt4z,Nick_Dissertation_EX1b,1,75,2020-05-07T08:12:27-07:00,7.4770209789276,3,versionC_stim.csv,VC_VersionC.csv,"Version C","Version C",WOMAN,LIFT,Study1,U,69,11,VC,User,-,"How many vowels are the two words combined?|Type your response below and then press Enter.",Study/JOL,"Study Phase",7143,,,5590,5590,,,,3,1
w958053_mae,2skctkxt4z,Nick_Dissertation_EX1b,1,76,2020-05-07T08:12:37-07:00,9.8301770687103,3,versionC_stim.csv,VC_VersionC.csv,"Version C","Version C",COLD,BITTER,Study1,B,12,45,VC,User,-,"How many vowels are the two words combined?|Type your response below and then press Enter.",Study/JOL,"Study Phase",9479,,,7535,7535,,,,3,1
w958053_mae,2skctkxt4z,Nick_Dissertation_EX1b,1,77,2020-05-07T08:12:43-07:00,5.4948618412018,3,versionC_stim.csv,VC_VersionC.csv,"Version C","Version C",SODA,POP,Study1,S,56,64,VC,User,-,"How many vowels are the two words combined?|Type your response below and then press Enter.",Study/JOL,"Study Phase",5173,,,3554,3554,,,,3,1
w958053_mae,2skctkxt4z,Nick_Dissertation_EX1b,1,78,2020-05-07T08:12:51-07:00,8.7201199531555,3,versionC_stim.csv,VC_VersionC.csv,"Version C","Version C",ACCIDENT,STRONG,Study1,U,80,58,VC,User,-,"How many vowels are the two words combined?|Type your response below and then press Enter.",Study/JOL,"Study Phase",8392,,,6525,6526,,,,4,1
w958053_mae,2skctkxt4z,Nick_Dissertation_EX1b,1,79,2020-05-07T08:12:59-07:00,7.8754231929779,3,versionC_stim.csv,VC_VersionC.csv,"Version C","Version C",LIVER,KIDNEY,Study1,S,53,42,VC,User,-,"How many vowels are the two words combined?|Type your response below and then press Enter.",Study/JOL,"Study Phase",7554,,,5866,5867,,,,4,1
w958053_mae,2skctkxt4z,Nick_Dissertation_EX1b,1,80,2020-05-07T08:13:05-07:00,6.09126496315,3,versionC_stim.csv,VC_VersionC.csv,"Version C","Version C",LION,ART,Study1,U,79,85,VC,User,-,"How many vowels are the two words combined?|Type your response below and then press Enter.",Study/JOL,"Study Phase",5778,,,4133,4133,,,,3,1
w958053_mae,2skctkxt4z,Nick_Dissertation_EX1b,1,81,2020-05-07T08:13:14-07:00,8.7437469959259,3,versionC_stim.csv,VC_VersionC.csv,"Version C","Version C",DIVISION,MATH,Study1,F,33,29,VC,User,-,"How many vowels are the two words combined?|Type your response below and then press Enter.",Study/JOL,"Study Phase",8388,,,6668,6668,,,,5,1
w958053_mae,2skctkxt4z,Nick_Dissertation_EX1b,1,82,2020-05-07T08:13:20-07:00,5.6388168334961,3,versionC_stim.csv,VC_VersionC.csv,"Version C","Version C",RACKET,BALL,Study1,F,38,68,VC,User,-,"How many vowels are the two words combined?|Type your response below and then press Enter.",Study/JOL,"Study Phase",5289,,,3795,3795,,,,3,1
w958053_mae,2skctkxt4z,Nick_Dissertation_EX1b,1,83,2020-05-07T08:13:28-07:00,8.5018630027771,3,versionC_stim.csv,VC_VersionC.csv,"Version C","Version C",WORD,SENTENCE,Study1,F,31,53,VC,User,-,"How many vowels are the two words combined?|Type your response below and then press Enter.",Study/JOL,"Study Phase",8122,,,6796,6796,,,,4,1
w958053_mae,2skctkxt4z,Nick_Dissertation_EX1b,1,84,2020-05-07T08:13:34-07:00,6.0637710094452,3,versionC_stim.csv,VC_VersionC.csv,"Version C","Version C",CARD,CREDIT,Study1,B,23,63,VC,User,-,"How many vowels are the two words combined?|Type your response below and then press Enter.",Study/JOL,"Study Phase",5703,,,4131,4131,,,,3,1
w958053_mae,2skctkxt4z,Nick_Dissertation_EX1b,1,85,2020-05-07T08:13:40-07:00,5.4492700099945,3,versionC_stim.csv,VC_VersionC.csv,"Version C","Version C",ROCK,GEOLOGY,Study1,B,19,65,VC,User,-,"How many vowels are the two words combined?|Type your response below and then press Enter.",Study/JOL,"Study Phase",5100,,,-1,-1,,,,,1
w958053_mae,2skctkxt4z,Nick_Dissertation_EX1b,1,86,2020-05-07T08:13:46-07:00,6.5651261806488,3,versionC_stim.csv,VC_VersionC.csv,"Version C","Version C",WASTE,DUMP,Study1,S,49,52,VC,User,-,"How many vowels are the two words combined?|Type your response below and then press Enter.",Study/JOL,"Study Phase",6237,,,4671,4671,,,,3,1
w958053_mae,2skctkxt4z,Nick_Dissertation_EX1b,1,87,2020-05-07T08:13:55-07:00,8.5300168991089,3,versionC_stim.csv,VC_VersionC.csv,"Version C","Version C",GROWTH,HEIGHT,Study1,F,30,23,VC,User,-,"How many vowels are the two words combined?|Type your response below and then press Enter.",Study/JOL,"Study Phase",8202,,,6034,6034,,,,3,1
w958053_mae,2skctkxt4z,Nick_Dissertation_EX1b,1,88,2020-05-07T08:14:01-07:00,5.7950699329376,3,versionC_stim.csv,VC_VersionC.csv,"Version C","Version C",WIND,BLOW,Study1,S,55,17,VC,User,-,"How many vowels are the two words combined?|Type your response below and then press Enter.",Study/JOL,"Study Phase",5428,,,4126,4126,,,,2,1
w958053_mae,2skctkxt4z,Nick_Dissertation_EX1b,1,89,2020-05-07T08:14:12-07:00,11.141721010208,3,versionC_stim.csv,VC_VersionC.csv,"Version C","Version C",DEFINITION,MEANING,Study1,S,62,15,VC,User,-,"How many vowels are the two words combined?|Type your response below and then press Enter.",Study/JOL,"Study Phase",10735,,,9258,9258,,,,8,1
w958053_mae,2skctkxt4z,Nick_Dissertation_EX1b,1,90,2020-05-07T08:14:22-07:00,9.964259147644,3,versionC_stim.csv,VC_VersionC.csv,"Version C","Version C",GOOSE,GEESE,BUFFER2,Buffer,86,87,VC,User,-,"How many vowels are the two words combined?|Type your response below and then press Enter.",Study/JOL,BUFFER2,9631,,,7870,7870,,,,6,1
w958053_mae,2skctkxt4z,Nick_Dissertation_EX1b,1,91,2020-05-07T08:14:30-07:00,8.1339259147644,3,versionC_stim.csv,VC_VersionC.csv,"Version C","Version C",CHOCOLATE,MALT,BUFFER2,Buffer,88,91,VC,User,-,"How many vowels are the two words combined?|Type your response below and then press Enter.",Study/JOL,BUFFER2,7762,,,6389,6389,,,,5,1
w958053_mae,2skctkxt4z,Nick_Dissertation_EX1b,1,92,2020-05-07T08:14:35-07:00,5.5273668766022,3,versionC_stim.csv,VC_VersionC.csv,"Version C","Version C",SPACE,MOON,BUFFER2,Buffer,89,90,VC,User,-,"How many vowels are the two words combined?|Type your response below and then press Enter.",Study/JOL,BUFFER2,5181,,,3451,3451,,,,4,1
w958053_mae,2skctkxt4z,Nick_Dissertation_EX1b,1,93,2020-05-07T08:14:53-07:00,17.316356182098,3,versionC_stim.csv,VC_VersionC.csv,"Version C","Version C",STUFF,THING,BUFFER2,Buffer,90,88,VC,User,-,"How many vowels are the two words combined?|Type your response below and then press Enter.",Study/JOL,BUFFER2,16944,,,13605,13605,,,,2,1
w958053_mae,2skctkxt4z,Nick_Dissertation_EX1b,1,94,2020-05-07T08:15:00-07:00,6.8344879150391,3,versionC_stim.csv,VC_VersionC.csv,"Version C","Version C",POLICE,SHERRIF,BUFFER2,Buffer,87,89,VC,User,-,"How many vowels are the two words combined?|Type your response below and then press Enter.",Study/JOL,BUFFER2,6498,,,5448,5448,,,,5,1
w958053_mae,2skctkxt4z,Nick_Dissertation_EX1b,1,95,2020-05-07T08:16:00-07:00,59.958598136902,3,versionC_stim.csv,VC_VersionC.csv,"Version C","Version C",,,,,,0,Instruct,User,-,"You have completed this section. Please press Enter.",Filler_Instruction,Instruct2,59576,,,-1,-1,,,,,1
w958053_mae,2skctkxt4z,Nick_Dissertation_EX1b,1,96,2020-05-07T08:18:00-07:00,120.41176986694,3,versionC_stim.csv,VC_VersionC.csv,"Version C","Version C",,,,,,0,FreeRecall,120,120,"Please list the 50 US states in alphabetical order. The task will automatically advance to the next screen after two minutes.",,Filler1,120007,"alabama arizona arkansas ",0,59539,101891,0,0,,,1
w958053_mae,2skctkxt4z,Nick_Dissertation_EX1b,1,97,2020-05-07T08:18:56-07:00,56.207803964615,3,versionC_stim.csv,VC_VersionC.csv,"Version C","Version C",,,,,,0,Instruct,-,10,"You will now be presented with the first word from each of the previously studied item pairs. Please type the missing word. If you do not know the word, you may guess or press Enter to skip forward to the next pair.",,Instruct3,19441,,,-1,-1,,,,,1
w958053_mae,2skctkxt4z,Nick_Dissertation_EX1b,1,98,2020-05-07T08:20:21-07:00,84.913802146912,3,versionC_stim.csv,VC_VersionC.csv,"Version C","Version C",COW,HERD,Study1,B,22,20,Test,User,-,,Recall,Recall1,7800,cow,0,4580,5689,0,0,,,1
w958053_mae,2skctkxt4z,Nick_Dissertation_EX1b,1,99,2020-05-07T08:22:54-07:00,152.77672982216,3,versionC_stim.csv,VC_VersionC.csv,"Version C","Version C",BAR,GRILL,Study1,S,52,70,Test,User,-,,Recall,Recall1,224571,calf,22.222222222222,218206,221054,0,0,,,0.928
w958053_mae,2skctkxt4z,Nick_Dissertation_EX1b,1,100,2020-05-07T08:23:23-07:00,29.156663179398,3,versionC_stim.csv,VC_VersionC.csv,"Version C","Version C",LIVER,KIDNEY,Study1,S,53,42,Test,User,-,,Recall,Recall1,28780,kidney,100,13123,25211,1,1,,,1
w958053_mae,2skctkxt4z,Nick_Dissertation_EX1b,1,101,2020-05-07T08:23:33-07:00,9.698637008667,3,versionC_stim.csv,VC_VersionC.csv,"Version C","Version C",LION,ART,Study1,U,79,85,Test,User,-,,Recall,Recall1,9328,tiger,25,4182,6944,0,0,,,1
w958053_mae,2skctkxt4z,Nick_Dissertation_EX1b,1,102,2020-05-07T08:23:47-07:00,14.251074790955,3,versionC_stim.csv,VC_VersionC.csv,"Version C","Version C",FISH,TUNA,Study1,B,25,31,Test,User,-,,Recall,Recall1,13878,shark,22.222222222222,9106,11849,0,0,,,1
w958053_mae,2skctkxt4z,Nick_Dissertation_EX1b,1,103,2020-05-07T08:24:05-07:00,17.873807191849,3,versionC_stim.csv,VC_VersionC.csv,"Version C","Version C",SICK,HIDE,Study1,U,84,81,Test,User,-,,Recall,Recall1,17495,virus,22.222222222222,11556,15750,0,0,,,1
w958053_mae,2skctkxt4z,Nick_Dissertation_EX1b,1,104,2020-05-07T08:24:21-07:00,16.222571849823,3,versionC_stim.csv,VC_VersionC.csv,"Version C","Version C",DIVISION,MATH,Study1,F,33,29,Test,User,-,,Recall,Recall1,15820,company,36.363636363636,10553,13891,0,0,,,1
w958053_mae,2skctkxt4z,Nick_Dissertation_EX1b,1,105,2020-05-07T08:24:39-07:00,17.858441114426,3,versionC_stim.csv,VC_VersionC.csv,"Version C","Version C",MONEY,WAGE,Study1,B,8,43,Test,User,-,,Recall,Recall1,17471,"coin ",0,8736,14933,0,0,,,1
w958053_mae,2skctkxt4z,Nick_Dissertation_EX1b,1,106,2020-05-07T08:25:07-07:00,27.842602014542,3,versionC_stim.csv,VC_VersionC.csv,"Version C","Version C",TUCK,ALLOW,Study1,U,78,73,Test,User,-,,Recall,Recall1,27462,stick,0,23658,26139,0,0,,,1
w958053_mae,2skctkxt4z,Nick_Dissertation_EX1b,1,107,2020-05-07T08:25:20-07:00,12.820152044296,3,versionC_stim.csv,VC_VersionC.csv,"Version C","Version C",BLAZE,FIRE,Study1,F,45,18,Test,User,-,,Recall,Recall1,12431,fire,100,10118,11233,1,1,,,1
w958053_mae,2skctkxt4z,Nick_Dissertation_EX1b,1,108,2020-05-07T08:25:30-07:00,10.16063284874,3,versionC_stim.csv,VC_VersionC.csv,"Version C","Version C",AMOUNT,NUMBER,Study1,S,47,47,Test,User,-,,Recall,Recall1,9743,total,0,5817,8140,0,0,,,1
w958053_mae,2skctkxt4z,Nick_Dissertation_EX1b,1,109,2020-05-07T08:25:37-07:00,7.6566579341888,3,versionC_stim.csv,VC_VersionC.csv,"Version C","Version C",STING,HORNET,Study1,B,11,76,Test,User,-,,Recall,Recall1,7324,,0,7298,7298,0,0,,,1
w958053_mae,2skctkxt4z,Nick_Dissertation_EX1b,1,110,2020-05-07T08:25:45-07:00,7.4001181125641,3,versionC_stim.csv,VC_VersionC.csv,"Version C","Version C",BAD,DELINQUENT,Study1,B,6,46,Test,User,-,,Recall,Recall1,7071,bee,30.769230769231,46,5991,0,0,,,1
w958053_mae,2skctkxt4z,Nick_Dissertation_EX1b,1,111,2020-05-07T08:25:51-07:00,6.2589409351349,3,versionC_stim.csv,VC_VersionC.csv,"Version C","Version C",HAMMER,CHISEL,Study1,B,9,74,Test,User,-,,Recall,Recall1,5907,nail,40,2835,4755,0,0,,,1
w958053_mae,2skctkxt4z,Nick_Dissertation_EX1b,1,112,2020-05-07T08:26:00-07:00,9.4568631649017,3,versionC_stim.csv,VC_VersionC.csv,"Version C","Version C",END,BEGIN,Study1,S,54,77,Test,User,-,,Recall,Recall1,9139,thru,0,5897,8018,0,0,,,1
w958053_mae,2skctkxt4z,Nick_Dissertation_EX1b,1,113,2020-05-07T08:26:19-07:00,18.121877908707,3,versionC_stim.csv,VC_VersionC.csv,"Version C","Version C",VASE,KING,Study1,U,85,26,Test,User,-,,Recall,Recall1,17750,urn,28.571428571429,14984,15948,0,0,,,1
w958053_mae,2skctkxt4z,Nick_Dissertation_EX1b,1,114,2020-05-07T08:26:30-07:00,11.612533092499,3,versionC_stim.csv,VC_VersionC.csv,"Version C","Version C",SACKING,DIETARY,Study1,U,67,22,Test,User,-,,Recall,Recall1,11239,bagging,14.285714285714,5609,9473,0,0,,,1
w958053_mae,2skctkxt4z,Nick_Dissertation_EX1b,1,115,2020-05-07T08:26:44-07:00,13.327560901642,3,versionC_stim.csv,VC_VersionC.csv,"Version C","Version C",ATTORNEY,LAW,Study1,F,34,39,Test,User,-,,Recall,Recall1,12935,lawyer,66.666666666667,3675,10402,0,0,,,1
w958053_mae,2skctkxt4z,Nick_Dissertation_EX1b,1,116,2020-05-07T08:27:07-07:00,23.390660047531,3,versionC_stim.csv,VC_VersionC.csv,"Version C","Version C",CLUTTER,PUSHER,Study1,U,66,7,Test,User,-,,Recall,Recall1,23002,hoarder,46.153846153846,4152,21805,0,0,,,1
w958053_mae,2skctkxt4z,Nick_Dissertation_EX1b,1,117,2020-05-07T08:27:20-07:00,12.613837003708,3,versionC_stim.csv,VC_VersionC.csv,"Version C","Version C",SITE,LOCATION,Study1,S,48,24,Test,User,-,,Recall,Recall1,12221,area,16.666666666667,5249,10633,0,0,,,1
w958053_mae,2skctkxt4z,Nick_Dissertation_EX1b,1,118,2020-05-07T08:27:44-07:00,24.472339868546,3,versionC_stim.csv,VC_VersionC.csv,"Version C","Version C",ACCIDENT,STRONG,Study1,U,80,58,Test,User,-,,Recall,Recall1,24093,injury,16.666666666667,18585,22133,0,0,,,1
w958053_mae,2skctkxt4z,Nick_Dissertation_EX1b,1,119,2020-05-07T08:27:51-07:00,6.929661989212,3,versionC_stim.csv,VC_VersionC.csv,"Version C","Version C",SIP,DRINK,Study1,F,27,67,Test,User,-,,Recall,Recall1,6549,drink,100,2751,4967,1,1,,,1
w958053_mae,2skctkxt4z,Nick_Dissertation_EX1b,1,120,2020-05-07T08:28:02-07:00,10.903218984604,3,versionC_stim.csv,VC_VersionC.csv,"Version C","Version C",POSITION,MACHINE,Study1,U,76,61,Test,User,-,,Recall,Recall1,10531,place,50,6614,8890,0,0,,,1
w958053_mae,2skctkxt4z,Nick_Dissertation_EX1b,1,121,2020-05-07T08:28:22-07:00,19.725854158401,3,versionC_stim.csv,VC_VersionC.csv,"Version C","Version C",RACKET,BALL,Study1,F,38,68,Test,User,-,,Recall,Recall1,19323,ball,100,15513,17480,1,1,,,1
w958053_mae,2skctkxt4z,Nick_Dissertation_EX1b,1,122,2020-05-07T08:28:39-07:00,17.242157936096,3,versionC_stim.csv,VC_VersionC.csv,"Version C","Version C",HUNGRY,PARK,Study1,U,68,32,Test,User,-,,Recall,Recall1,16875,strave,20,7373,10737,0,0,,,1
w958053_mae,2skctkxt4z,Nick_Dissertation_EX1b,1,123,2020-05-07T08:28:51-07:00,12.568465948105,3,versionC_stim.csv,VC_VersionC.csv,"Version C","Version C",CAVE,DARK,Study1,F,28,62,Test,User,-,,Recall,Recall1,11058,shelter,18.181818181818,5991,9338,0,0,,,1
w958053_mae,2skctkxt4z,Nick_Dissertation_EX1b,1,124,2020-05-07T08:28:58-07:00,6.94136095047,3,versionC_stim.csv,VC_VersionC.csv,"Version C","Version C",HAND,FIX,Study1,U,75,60,Test,User,-,,Recall,Recall1,6553,finger,44.444444444444,3083,4879,0,0,,,1
w958053_mae,2skctkxt4z,Nick_Dissertation_EX1b,1,125,2020-05-07T08:29:07-07:00,8.4383511543274,3,versionC_stim.csv,VC_VersionC.csv,"Version C","Version C",WIND,BLOW,Study1,S,55,17,Test,User,-,,Recall,Recall1,8096,air,0,4979,6524,0,0,,,1
w958053_mae,2skctkxt4z,Nick_Dissertation_EX1b,1,126,2020-05-07T08:29:18-07:00,10.751847982407,3,versionC_stim.csv,VC_VersionC.csv,"Version C","Version C",FANTASTIC,GREAT,Study1,F,35,80,Test,User,-,,Recall,Recall1,10365,wonderful,14.285714285714,4299,9215,0,0,,,1
w958053_mae,2skctkxt4z,Nick_Dissertation_EX1b,1,127,2020-05-07T08:29:54-07:00,36.529644966125,3,versionC_stim.csv,VC_VersionC.csv,"Version C","Version C",FUTURE,PAST,Study1,S,61,59,Test,User,-,,Recall,Recall1,36157,past,100,33320,34591,1,1,,,1
w958053_mae,2skctkxt4z,Nick_Dissertation_EX1b,1,128,2020-05-07T08:30:12-07:00,18.145282030106,3,versionC_stim.csv,VC_VersionC.csv,"Version C","Version C",WASTE,DUMP,Study1,S,49,52,Test,User,-,,Recall,Recall1,17759,,0,-1,-1,0,0,,,1
w958053_mae,2skctkxt4z,Nick_Dissertation_EX1b,1,129,2020-05-07T08:30:15-07:00,2.765105009079,3,versionC_stim.csv,VC_VersionC.csv,"Version C","Version C",CAR,HAPPY,Study1,U,77,8,Test,User,-,,Recall,Recall1,2437,,0,-1,-1,0,0,,,1
w958053_mae,2skctkxt4z,Nick_Dissertation_EX1b,1,130,2020-05-07T08:30:30-07:00,14.99586391449,3,versionC_stim.csv,VC_VersionC.csv,"Version C","Version C",LATCH,KEY,Study1,F,36,28,Test,User,-,,Recall,Recall1,14626,lock,28.571428571429,915,12871,0,0,,,1
w958053_mae,2skctkxt4z,Nick_Dissertation_EX1b,1,131,2020-05-07T08:30:41-07:00,10.664747953415,3,versionC_stim.csv,VC_VersionC.csv,"Version C","Version C",RIDDLE,SUGAR,Study1,U,81,19,Test,User,-,,Recall,Recall1,10283,puzzle,18.181818181818,3405,8877,0,0,,,1
w958053_mae,2skctkxt4z,Nick_Dissertation_EX1b,1,132,2020-05-07T08:30:55-07:00,14.573229074478,3,versionC_stim.csv,VC_VersionC.csv,"Version C","Version C",WOMAN,LIFT,Study1,U,69,11,Test,User,-,,Recall,Recall1,14187,la,33.333333333333,8522,10979,0,0,,,1
w958053_mae,2skctkxt4z,Nick_Dissertation_EX1b,1,133,2020-05-07T08:31:03-07:00,7.8149819374084,3,versionC_stim.csv,VC_VersionC.csv,"Version C","Version C",SIGHT,DEBATE,Study1,U,73,48,Test,User,-,,Recall,Recall1,7467,"see ",44.444444444444,4147,5989,0,0,,,1
w958053_mae,2skctkxt4z,Nick_Dissertation_EX1b,1,134,2020-05-07T08:31:16-07:00,13.337916135788,3,versionC_stim.csv,VC_VersionC.csv,"Version C","Version C",WAR,REVOLUTION,Study1,B,20,49,Test,User,-,,Recall,Recall1,12977,,0,-1,-1,0,0,,,1
w958053_mae,2skctkxt4z,Nick_Dissertation_EX1b,1,135,2020-05-07T08:31:28-07:00,11.380398035049,3,versionC_stim.csv,VC_VersionC.csv,"Version C","Version C",FLOWER,ORCHID,Study1,B,24,56,Test,User,-,,Recall,Recall1,10997,rose,20,429,9234,0,0,,,1
w958053_mae,2skctkxt4z,Nick_Dissertation_EX1b,1,136,2020-05-07T08:31:44-07:00,16.718887805939,3,versionC_stim.csv,VC_VersionC.csv,"Version C","Version C",DEFINITION,MEANING,Study1,S,62,15,Test,User,-,,Recall,Recall1,16344,answer,30.769230769231,4147,14697,0,0,,,1
w958053_mae,2skctkxt4z,Nick_Dissertation_EX1b,1,137,2020-05-07T08:31:51-07:00,6.9377710819244,3,versionC_stim.csv,VC_VersionC.csv,"Version C","Version C",CHEESE,WINE,Study1,S,57,83,Test,User,-,,Recall,Recall1,6601,milk,25,2875,4748,0,0,,,1
w958053_mae,2skctkxt4z,Nick_Dissertation_EX1b,1,138,2020-05-07T08:32:02-07:00,10.330935001373,3,versionC_stim.csv,VC_VersionC.csv,"Version C","Version C",ROUND,CIRCLE,Study1,S,65,37,Test,User,-,,Recall,Recall1,9931,spere,18.181818181818,5768,8205,0,0,,,1
w958053_mae,2skctkxt4z,Nick_Dissertation_EX1b,1,139,2020-05-07T08:32:12-07:00,10.093199968338,3,versionC_stim.csv,VC_VersionC.csv,"Version C","Version C",BRONZE,ARTERY,Study1,U,74,14,Test,User,-,,Recall,Recall1,9674,medal,18.181818181818,5442,7815,0,0,,,1
w958053_mae,2skctkxt4z,Nick_Dissertation_EX1b,1,140,2020-05-07T08:32:30-07:00,17.821687936783,3,versionC_stim.csv,VC_VersionC.csv,"Version C","Version C",ATTIRE,CLOTHES,Study1,F,43,30,Test,User,-,,Recall,Recall1,17411,clothes,100,4565,15365,1,1,,,1
w958053_mae,2skctkxt4z,Nick_Dissertation_EX1b,1,141,2020-05-07T08:32:40-07:00,10.646314144135,3,versionC_stim.csv,VC_VersionC.csv,"Version C","Version C",COLD,BITTER,Study1,B,12,45,Test,User,-,,Recall,Recall1,10253,,0,-1,-1,0,0,,,1
w958053_mae,2skctkxt4z,Nick_Dissertation_EX1b,1,142,2020-05-07T08:32:45-07:00,4.6795830726624,3,versionC_stim.csv,VC_VersionC.csv,"Version C","Version C",BEE,HONEY,Study1,S,63,16,Test,User,-,,Recall,Recall1,4335,hot,50,380,2358,0,0,,,1
w958053_mae,2skctkxt4z,Nick_Dissertation_EX1b,1,143,2020-05-07T08:33:01-07:00,16.180042982101,3,versionC_stim.csv,VC_VersionC.csv,"Version C","Version C",WATER,BRIDGE,Study1,B,18,84,Test,User,-,,Recall,Recall1,15801,h2o,0,11804,14063,0,0,,,1
w958053_mae,2skctkxt4z,Nick_Dissertation_EX1b,1,144,2020-05-07T08:33:11-07:00,10.31605386734,3,versionC_stim.csv,VC_VersionC.csv,"Version C","Version C",STENCH,SMELL,Study1,F,42,35,Test,User,-,,Recall,Recall1,9917,smell,100,6086,7942,1,1,,,1
w958053_mae,2skctkxt4z,Nick_Dissertation_EX1b,1,145,2020-05-07T08:33:14-07:00,2.9722781181335,3,versionC_stim.csv,VC_VersionC.csv,"Version C","Version C",DROWSY,SLEEP,Study1,F,41,71,Test,User,-,,Recall,Recall1,1634,,0,-1,-1,0,0,,,1
w958053_mae,2skctkxt4z,Nick_Dissertation_EX1b,1,146,2020-05-07T08:33:53-07:00,38.410084009171,3,versionC_stim.csv,VC_VersionC.csv,"Version C","Version C",BELT,SOON,Study1,U,70,79,Test,User,-,,Recall,Recall1,38028,fastner,36.363636363636,26685,35283,0,0,,,1
w958053_mae,2skctkxt4z,Nick_Dissertation_EX1b,1,147,2020-05-07T08:34:01-07:00,7.8839268684387,3,versionC_stim.csv,VC_VersionC.csv,"Version C","Version C",CARD,CREDIT,Study1,B,23,63,Test,User,-,,Recall,Recall1,7538,post,20,4408,5734,0,0,,,1
w958053_mae,2skctkxt4z,Nick_Dissertation_EX1b,1,148,2020-05-07T08:34:15-07:00,14.23722410202,3,versionC_stim.csv,VC_VersionC.csv,"Version C","Version C",CHORE,WORK,Study1,F,39,25,Test,User,-,,Recall,Recall1,13832,work,100,10412,11938,1,1,,,1
w958053_mae,2skctkxt4z,Nick_Dissertation_EX1b,1,149,2020-05-07T08:34:28-07:00,12.767385005951,3,versionC_stim.csv,VC_VersionC.csv,"Version C","Version C",CHILD,BABY,Study1,S,64,12,Test,User,-,,Recall,Recall1,12379,kid,0,5685,11215,0,0,,,1
w958053_mae,2skctkxt4z,Nick_Dissertation_EX1b,1,150,2020-05-07T08:34:50-07:00,22.210547924042,3,versionC_stim.csv,VC_VersionC.csv,"Version C","Version C",TOILET,BATHROOM,Study1,S,58,50,Test,User,-,,Recall,Recall1,21840,"bathroom ",100,9609,20335,1,1,,,1
w958053_mae,2skctkxt4z,Nick_Dissertation_EX1b,1,151,2020-05-07T08:35:03-07:00,13.075829029083,3,versionC_stim.csv,VC_VersionC.csv,"Version C","Version C",FLOOR,DISCOVER,Study1,U,71,55,Test,User,-,,Recall,Recall1,12694,carpet,28.571428571429,7550,10972,0,0,,,1
w958053_mae,2skctkxt4z,Nick_Dissertation_EX1b,1,152,2020-05-07T08:35:09-07:00,6.0258750915527,3,versionC_stim.csv,VC_VersionC.csv,"Version C","Version C",ENOUGH,FULL,Study1,F,26,40,Test,User,-,,Recall,Recall1,5675,full,100,3185,4258,1,1,,,1
w958053_mae,2skctkxt4z,Nick_Dissertation_EX1b,1,153,2020-05-07T08:35:22-07:00,12.993884801865,3,versionC_stim.csv,VC_VersionC.csv,"Version C","Version C",SODA,POP,Study1,S,56,64,Test,User,-,,Recall,Recall1,12610,cola,28.571428571429,7782,10845,0,0,,,1
w958053_mae,2skctkxt4z,Nick_Dissertation_EX1b,1,154,2020-05-07T08:35:28-07:00,5.7946782112122,3,versionC_stim.csv,VC_VersionC.csv,"Version C","Version C",OUT,WAY,Study1,B,16,34,Test,User,-,,Recall,Recall1,5449,in,0,2964,3839,0,0,,,1
w958053_mae,2skctkxt4z,Nick_Dissertation_EX1b,1,155,2020-05-07T08:35:36-07:00,8.3485939502716,3,versionC_stim.csv,VC_VersionC.csv,"Version C","Version C",BIRD,SWAN,Study1,B,14,82,Test,User,-,,Recall,Recall1,8026,eagle,22.222222222222,3160,6429,0,0,,,1
w958053_mae,2skctkxt4z,Nick_Dissertation_EX1b,1,156,2020-05-07T08:35:44-07:00,8.046777009964,3,versionC_stim.csv,VC_VersionC.csv,"Version C","Version C",FOOT,SHOE,Study1,S,60,86,Test,User,-,,Recall,Recall1,7716,doctor,20,3654,6241,0,0,,,1
w958053_mae,2skctkxt4z,Nick_Dissertation_EX1b,1,157,2020-05-07T08:35:53-07:00,8.2675778865814,3,versionC_stim.csv,VC_VersionC.csv,"Version C","Version C",CHILI,HOT,Study1,F,37,13,Test,User,-,,Recall,Recall1,7941,bean,0,4947,6339,0,0,,,1
w958053_mae,2skctkxt4z,Nick_Dissertation_EX1b,1,158,2020-05-07T08:36:02-07:00,9.8797509670258,3,versionC_stim.csv,VC_VersionC.csv,"Version C","Version C",DESIGN,ARCHITECTURE,Study1,S,51,44,Test,User,-,,Recall,Recall1,9543,fashion,31.578947368421,2757,7497,0,0,,,1
w958053_mae,2skctkxt4z,Nick_Dissertation_EX1b,1,159,2020-05-07T08:36:22-07:00,19.339694976807,3,versionC_stim.csv,VC_VersionC.csv,"Version C","Version C",WORD,SENTENCE,Study1,F,31,53,Test,User,-,,Recall,Recall1,18915,,0,-1,-1,0,0,,,1
w958053_mae,2skctkxt4z,Nick_Dissertation_EX1b,1,160,2020-05-07T08:36:38-07:00,15.901673078537,3,versionC_stim.csv,VC_VersionC.csv,"Version C","Version C",ROCK,GEOLOGY,Study1,B,19,65,Test,User,-,,Recall,Recall1,15493,pile,18.181818181818,632,13914,0,0,,,1
w958053_mae,2skctkxt4z,Nick_Dissertation_EX1b,1,161,2020-05-07T08:36:47-07:00,9.0945649147034,3,versionC_stim.csv,VC_VersionC.csv,"Version C","Version C",PILOT,PLANE,Study1,F,44,36,Test,User,-,,Recall,Recall1,8754,airplane,76.923076923077,2526,7116,0,1,,,1
w958053_mae,2skctkxt4z,Nick_Dissertation_EX1b,1,162,2020-05-07T08:37:01-07:00,14.765252113342,3,versionC_stim.csv,VC_VersionC.csv,"Version C","Version C",NEWS,EDITOR,Study1,B,10,54,Test,User,-,,Recall,Recall1,14353,reporter,42.857142857143,9747,12681,0,0,,,1
w958053_mae,2skctkxt4z,Nick_Dissertation_EX1b,1,163,2020-05-07T08:37:15-07:00,13.563483953476,3,versionC_stim.csv,VC_VersionC.csv,"Version C","Version C",STOMACH,DIGESTION,Study1,B,7,33,Test,User,-,,Recall,Recall1,13160,ache,15.384615384615,3743,9770,0,0,,,1
w958053_mae,2skctkxt4z,Nick_Dissertation_EX1b,1,164,2020-05-07T08:37:28-07:00,12.764563083649,3,versionC_stim.csv,VC_VersionC.csv,"Version C","Version C",WOULD,CASH,Study1,U,83,72,Test,User,-,,Recall,Recall1,12383,could,22.222222222222,8920,10991,0,0,,,1
w958053_mae,2skctkxt4z,Nick_Dissertation_EX1b,1,165,2020-05-07T08:37:36-07:00,8.4193758964539,3,versionC_stim.csv,VC_VersionC.csv,"Version C","Version C",TALK,DISCUSSION,Study1,B,21,38,Test,User,-,,Recall,Recall1,8059,speak,13.333333333333,2743,6275,0,0,,,1
w958053_mae,2skctkxt4z,Nick_Dissertation_EX1b,1,166,2020-05-07T08:37:51-07:00,14.337558984756,3,versionC_stim.csv,VC_VersionC.csv,"Version C","Version C",FAMINE,HUNGER,Study1,F,40,75,Test,User,-,,Recall,Recall1,13937,strave,16.666666666667,9318,12566,0,0,,,1
w958053_mae,2skctkxt4z,Nick_Dissertation_EX1b,1,167,2020-05-07T08:37:56-07:00,5.7850520610809,3,versionC_stim.csv,VC_VersionC.csv,"Version C","Version C",ADD,VALLEY,Study1,U,82,9,Test,User,-,,Recall,Recall1,5449,plus,20,2547,4045,0,0,,,1
w958053_mae,2skctkxt4z,Nick_Dissertation_EX1b,1,168,2020-05-07T08:38:05-07:00,8.6622478961945,3,versionC_stim.csv,VC_VersionC.csv,"Version C","Version C",DOG,PAW,Study1,B,15,51,Test,User,-,,Recall,Recall1,8337,canine,22.222222222222,2967,6538,0,0,,,1
w958053_mae,2skctkxt4z,Nick_Dissertation_EX1b,1,169,2020-05-07T08:38:08-07:00,3.053197145462,3,versionC_stim.csv,VC_VersionC.csv,"Version C","Version C",JURY,TRIAL,Study1,S,50,69,Test,User,-,,Recall,Recall1,2695,,0,-1,-1,0,0,,,1
w958053_mae,2skctkxt4z,Nick_Dissertation_EX1b,1,170,2020-05-07T08:38:28-07:00,20.40962600708,3,versionC_stim.csv,VC_VersionC.csv,"Version C","Version C",ASSIGNMENT,DUE,Study1,S,46,78,Test,User,-,,Recall,Recall1,20023,"lesson ",22.222222222222,439,18143,0,0,,,1
w958053_mae,2skctkxt4z,Nick_Dissertation_EX1b,1,171,2020-05-07T08:38:37-07:00,8.9076569080353,3,versionC_stim.csv,VC_VersionC.csv,"Version C","Version C",WASP,BUG,Study1,F,32,41,Test,User,-,,Recall,Recall1,8556,hornet,0,4637,7467,0,0,,,1
w958053_mae,2skctkxt4z,Nick_Dissertation_EX1b,1,172,2020-05-07T08:39:03-07:00,25.816437005997,3,versionC_stim.csv,VC_VersionC.csv,"Version C","Version C",CLEAN,HYGIENE,Study1,B,17,27,Test,User,-,,Recall,Recall1,25423,pur,0,6565,21093,0,0,,,1
w958053_mae,2skctkxt4z,Nick_Dissertation_EX1b,1,173,2020-05-07T08:39:29-07:00,25.310969114304,3,versionC_stim.csv,VC_VersionC.csv,"Version C","Version C",GROWTH,HEIGHT,Study1,F,30,23,Test,User,-,,Recall,Recall1,24827,"hieght ",83.333333333333,192,23290,0,1,,,1
w958053_mae,2skctkxt4z,Nick_Dissertation_EX1b,1,174,2020-05-07T08:39:46-07:00,17.268934965134,3,versionC_stim.csv,VC_VersionC.csv,"Version C","Version C",BUSINESS,DEATH,Study1,U,72,66,Test,User,-,,Recall,Recall1,16886,store,20,5428,14646,0,0,,,1
w958053_mae,2skctkxt4z,Nick_Dissertation_EX1b,1,175,2020-05-07T08:40:00-07:00,14.125598907471,3,versionC_stim.csv,VC_VersionC.csv,"Version C","Version C",SALAD,LETTUCE,Study1,S,59,10,Test,User,-,,Recall,Recall1,13730,ceasar,30.769230769231,6460,11980,0,0,,,1
w958053_mae,2skctkxt4z,Nick_Dissertation_EX1b,1,176,2020-05-07T08:40:09-07:00,9.2750210762024,3,versionC_stim.csv,VC_VersionC.csv,"Version C","Version C",PLANT,ROOT,Study1,B,13,57,Test,User,-,,Recall,Recall1,8934,corn,25,5011,6065,0,0,,,1
w958053_mae,2skctkxt4z,Nick_Dissertation_EX1b,1,177,2020-05-07T08:40:27-07:00,17.382832050323,3,versionC_stim.csv,VC_VersionC.csv,"Version C","Version C",SEIZE,TAKE,Study1,F,29,21,Test,User,-,,Recall,Recall1,16997,take,100,8711,15312,1,1,,,1
w958053_mae,2skctkxt4z,Nick_Dissertation_EX1b,1,178,2020-05-07T08:40:46-07:00,19.870589017868,3,versionC_stim.csv,VC_VersionC.csv,"Version C","Version C",,,,,,0,Instruct,-,10,"You will now be presented with a new set of word pairs. Please study each pair. Remember that your memory will be tested! When finished, press Enter to move to the next pair.",Initial_Instruct,Instruct4,19480,,,-1,-1,,,,,1
w958053_mae,2skctkxt4z,Nick_Dissertation_EX1b,1,179,2020-05-07T08:40:59-07:00,12.495731830597,3,versionC_stim.csv,VC_VersionC.csv,"Version C","Version C",,,,,,0,Instruct,,10,"You will again be asked to count how many vowels the two words contain. Please remember to type this number in the space below each pair.",,Instruct10,12086,,,-1,-1,,,,,1
w958053_mae,2skctkxt4z,Nick_Dissertation_EX1b,1,180,2020-05-07T08:41:04-07:00,4.7181739807129,3,versionC_stim.csv,VC_VersionC.csv,"Version C","Version C",,,,,,0,Instruct,User,-,"Press Enter when you are readty to begin",,Instruct11,4368,,,-1,-1,,,,,1
w958053_mae,2skctkxt4z,Nick_Dissertation_EX1b,1,181,2020-05-07T08:41:18-07:00,14.392183065414,3,versionC_stim.csv,VC_VersionC.csv,"Version C","Version C",POTATO,CARROT,BUFFER3,Buffer,91,94,VC,User,-,"How many vowels are the two words combined?|Type your response below and then press Enter.",Study/JOL,BUFFER3,14012,,,12235,12235,,,,5,1
w958053_mae,2skctkxt4z,Nick_Dissertation_EX1b,1,182,2020-05-07T08:41:26-07:00,7.6065490245819,3,versionC_stim.csv,VC_VersionC.csv,"Version C","Version C",STRING,NOODLE,BUFFER3,Buffer,92,96,VC,User,-,"How many vowels are the two words combined?|Type your response below and then press Enter.",Study/JOL,BUFFER3,7259,,,5782,5782,,,,4,1
w958053_mae,2skctkxt4z,Nick_Dissertation_EX1b,1,183,2020-05-07T08:41:41-07:00,15.458761930466,3,versionC_stim.csv,VC_VersionC.csv,"Version C","Version C",ADVENTURE,CAMP,BUFFER3,Buffer,95,95,VC,User,-,"How many vowels are the two words combined?|Type your response below and then press Enter.",Study/JOL,BUFFER3,15065,,,12813,12813,,,,5,0.895
w958053_mae,2skctkxt4z,Nick_Dissertation_EX1b,1,184,2020-05-07T08:41:47-07:00,5.871621131897,3,versionC_stim.csv,VC_VersionC.csv,"Version C","Version C",FISH,SHRIMP,BUFFER3,Buffer,93,93,VC,User,-,"How many vowels are the two words combined?|Type your response below and then press Enter.",Study/JOL,BUFFER3,5480,,,4300,4300,,,,2,1
w958053_mae,2skctkxt4z,Nick_Dissertation_EX1b,1,185,2020-05-07T08:41:52-07:00,5.5021200180054,3,versionC_stim.csv,VC_VersionC.csv,"Version C","Version C",FROZEN,ICE,BUFFER3,Buffer,94,92,VC,User,-,"How many vowels are the two words combined?|Type your response below and then press Enter.",Study/JOL,BUFFER3,5146,,,3960,3961,,,,4,1
w958053_mae,2skctkxt4z,Nick_Dissertation_EX1b,1,186,2020-05-07T08:41:58-07:00,5.1937780380249,3,versionC_stim.csv,VC_VersionC.csv,"Version C","Version C",HATE,NAME,Study2,U,167,143,VC,User,-,"How many vowels are the two words combined?|Type your response below and then press Enter.",Study/JOL,"Study Phase2",4831,,,3358,3358,,,,4,1
w958053_mae,2skctkxt4z,Nick_Dissertation_EX1b,1,187,2020-05-07T08:42:07-07:00,9.0144619941711,3,versionC_stim.csv,VC_VersionC.csv,"Version C","Version C",OBTAIN,MEAT,Study2,U,161,171,VC,User,-,"How many vowels are the two words combined?|Type your response below and then press Enter.",Study/JOL,"Study Phase2",8685,,,7319,7319,,,,5,1
w958053_mae,2skctkxt4z,Nick_Dissertation_EX1b,1,188,2020-05-07T08:42:15-07:00,8.6826138496399,3,versionC_stim.csv,VC_VersionC.csv,"Version C","Version C",MYSTERY,DETECTIVE,Study2,B,100,126,VC,User,-,"How many vowels are the two words combined?|Type your response below and then press Enter.",Study/JOL,"Study Phase2",8345,,,7104,7104,,,,5,1
w958053_mae,2skctkxt4z,Nick_Dissertation_EX1b,1,189,2020-05-07T08:42:22-07:00,6.8691201210022,3,versionC_stim.csv,VC_VersionC.csv,"Version C","Version C",FAVORITE,BEST,Study2,F,125,129,VC,User,-,"How many vowels are the two words combined?|Type your response below and then press Enter.",Study/JOL,"Study Phase2",6511,,,5303,5303,,,,5,1
w958053_mae,2skctkxt4z,Nick_Dissertation_EX1b,1,190,2020-05-07T08:42:27-07:00,4.7710168361664,3,versionC_stim.csv,VC_VersionC.csv,"Version C","Version C",NAP,SLEEP,Study2,F,134,175,VC,User,-,"How many vowels are the two words combined?|Type your response below and then press Enter.",Study/JOL,"Study Phase2",4419,,,3248,3248,,,,3,1
w958053_mae,2skctkxt4z,Nick_Dissertation_EX1b,1,191,2020-05-07T08:42:34-07:00,6.7427160739899,3,versionC_stim.csv,VC_VersionC.csv,"Version C","Version C",ACTRESS,STAR,Study2,F,120,162,VC,User,-,"How many vowels are the two words combined?|Type your response below and then press Enter.",Study/JOL,"Study Phase2",6407,,,5110,5110,,,,3,1
w958053_mae,2skctkxt4z,Nick_Dissertation_EX1b,1,192,2020-05-07T08:42:43-07:00,8.8535239696503,3,versionC_stim.csv,VC_VersionC.csv,"Version C","Version C",TIE,SHOELACE,Study2,B,99,133,VC,User,-,"How many vowels are the two words combined?|Type your response below and then press Enter.",Study/JOL,"Study Phase2",8503,,,7300,7300,,,,6,1
w958053_mae,2skctkxt4z,Nick_Dissertation_EX1b,1,193,2020-05-07T08:42:50-07:00,7.6843061447144,3,versionC_stim.csv,VC_VersionC.csv,"Version C","Version C",PLANT,CACTUS,Study2,B,98,105,VC,User,-,"How many vowels are the two words combined?|Type your response below and then press Enter.",Study/JOL,"Study Phase2",7327,,,6139,6140,,,,3,1
w958053_mae,2skctkxt4z,Nick_Dissertation_EX1b,1,194,2020-05-07T08:42:56-07:00,5.8127119541168,3,versionC_stim.csv,VC_VersionC.csv,"Version C","Version C",SHAKE,Shell,Study2,U,163,124,VC,User,-,"How many vowels are the two words combined?|Type your response below and then press Enter.",Study/JOL,"Study Phase2",5459,,,4240,4241,,,,3,1
w958053_mae,2skctkxt4z,Nick_Dissertation_EX1b,1,195,2020-05-07T08:43:02-07:00,6.2834689617157,3,versionC_stim.csv,VC_VersionC.csv,"Version C","Version C",PANTHER,CAT,Study2,F,126,176,VC,User,-,"How many vowels are the two words combined?|Type your response below and then press Enter.",Study/JOL,"Study Phase2",5953,,,4295,4295,,,,3,1
w958053_mae,2skctkxt4z,Nick_Dissertation_EX1b,1,196,2020-05-07T08:43:10-07:00,7.5427889823914,3,versionC_stim.csv,VC_VersionC.csv,"Version C","Version C",RED,CHERRY,Study2,B,104,112,VC,User,-,"How many vowels are the two words combined?|Type your response below and then press Enter.",Study/JOL,"Study Phase2",7204,,,5741,5741,,,,2,1
w958053_mae,2skctkxt4z,Nick_Dissertation_EX1b,1,197,2020-05-07T08:43:15-07:00,4.8560030460358,3,versionC_stim.csv,VC_VersionC.csv,"Version C","Version C",DOG,FURRY,Study2,B,102,135,VC,User,-,"How many vowels are the two words combined?|Type your response below and then press Enter.",Study/JOL,"Study Phase2",4528,,,3299,3299,,,,2,1
w958053_mae,2skctkxt4z,Nick_Dissertation_EX1b,1,198,2020-05-07T08:43:21-07:00,6.0686650276184,3,versionC_stim.csv,VC_VersionC.csv,"Version C","Version C",CHARM,VEHICLE,Study2,U,160,137,VC,User,-,"How many vowels are the two words combined?|Type your response below and then press Enter.",Study/JOL,"Study Phase2",5735,,,4557,4557,,,,4,1
w958053_mae,2skctkxt4z,Nick_Dissertation_EX1b,1,199,2020-05-07T08:43:26-07:00,5.2024939060211,3,versionC_stim.csv,VC_VersionC.csv,"Version C","Version C",WAX,CANDLE,Study2,S,139,159,VC,User,-,"How many vowels are the two words combined?|Type your response below and then press Enter.",Study/JOL,"Study Phase2",4841,,,3645,3645,,,,3,1
w958053_mae,2skctkxt4z,Nick_Dissertation_EX1b,1,200,2020-05-07T08:43:31-07:00,5.2719190120697,3,versionC_stim.csv,VC_VersionC.csv,"Version C","Version C",BALLOON,POP,Study2,F,123,155,VC,User,-,"How many vowels are the two words combined?|Type your response below and then press Enter.",Study/JOL,"Study Phase2",4942,,,3567,3567,,,,4,1
w958053_mae,2skctkxt4z,Nick_Dissertation_EX1b,1,201,2020-05-07T08:43:52-07:00,20.237914085388,3,versionC_stim.csv,VC_VersionC.csv,"Version C","Version C",CAR,DRIVER,Study2,B,106,127,VC,User,-,"How many vowels are the two words combined?|Type your response below and then press Enter.",Study/JOL,"Study Phase2",19796,,,18592,18593,,,,3,1
w958053_mae,2skctkxt4z,Nick_Dissertation_EX1b,1,202,2020-05-07T08:43:58-07:00,6.7047798633575,3,versionC_stim.csv,VC_VersionC.csv,"Version C","Version C",CLEAR,MOAT,Study2,U,169,163,VC,User,-,"How many vowels are the two words combined?|Type your response below and then press Enter.",Study/JOL,"Study Phase2",6347,,,5204,5204,,,,4,1
w958053_mae,2skctkxt4z,Nick_Dissertation_EX1b,1,203,2020-05-07T08:44:20-07:00,21.310064077377,3,versionC_stim.csv,VC_VersionC.csv,"Version C","Version C",PAPER,DOCUMENT,Study2,B,109,100,VC,User,-,"How many vowels are the two words combined?|Type your response below and then press Enter.",Study/JOL,"Study Phase2",20927,,,19623,19623,,,,5,1
w958053_mae,2skctkxt4z,Nick_Dissertation_EX1b,1,204,2020-05-07T08:44:27-07:00,7.6234569549561,3,versionC_stim.csv,VC_VersionC.csv,"Version C","Version C",PENGUIN,BIRD,Study2,F,119,154,VC,User,-,"How many vowels are the two words combined?|Type your response below and then press Enter.",Study/JOL,"Study Phase2",7244,,,6007,6008,,,,4,1
w958053_mae,2skctkxt4z,Nick_Dissertation_EX1b,1,205,2020-05-07T08:44:32-07:00,4.9945120811462,3,versionC_stim.csv,VC_VersionC.csv,"Version C","Version C",STEAK,GIVE,Study2,U,158,158,VC,User,-,"How many vowels are the two words combined?|Type your response below and then press Enter.",Study/JOL,"Study Phase2",4663,,,3221,3221,,,,4,1
w958053_mae,2skctkxt4z,Nick_Dissertation_EX1b,1,206,2020-05-07T08:44:37-07:00,4.6440329551697,3,versionC_stim.csv,VC_VersionC.csv,"Version C","Version C",JAR,MASON,Study2,S,138,120,VC,User,-,"How many vowels are the two words combined?|Type your response below and then press Enter.",Study/JOL,"Study Phase2",4270,,,2955,2955,,,,3,1
w958053_mae,2skctkxt4z,Nick_Dissertation_EX1b,1,207,2020-05-07T08:44:44-07:00,6.675488948822,3,versionC_stim.csv,VC_VersionC.csv,"Version C","Version C",EAT,DINE,Study2,B,111,157,VC,User,-,"How many vowels are the two words combined?|Type your response below and then press Enter.",Study/JOL,"Study Phase2",6368,,,4797,4798,,,,4,1
w958053_mae,2skctkxt4z,Nick_Dissertation_EX1b,1,208,2020-05-07T08:44:50-07:00,6.7502040863037,3,versionC_stim.csv,VC_VersionC.csv,"Version C","Version C",LONG,EXTENSION,Study2,B,96,168,VC,User,-,"How many vowels are the two words combined?|Type your response below and then press Enter.",Study/JOL,"Study Phase2",6402,,,5072,5073,,,,4,1
w958053_mae,2skctkxt4z,Nick_Dissertation_EX1b,1,209,2020-05-07T08:44:57-07:00,6.9711010456085,3,versionC_stim.csv,VC_VersionC.csv,"Version C","Version C",SCISSORS,SHEARS,Study2,B,112,104,VC,User,-,"How many vowels are the two words combined?|Type your response below and then press Enter.",Study/JOL,"Study Phase2",6635,,,5362,5362,,,,4,1
w958053_mae,2skctkxt4z,Nick_Dissertation_EX1b,1,210,2020-05-07T08:45:03-07:00,5.3526589870453,3,versionC_stim.csv,VC_VersionC.csv,"Version C","Version C",BANG,FUZZY,Study2,U,168,103,VC,User,-,"How many vowels are the two words combined?|Type your response below and then press Enter.",Study/JOL,"Study Phase2",4978,,,3616,3616,,,,4,1
w958053_mae,2skctkxt4z,Nick_Dissertation_EX1b,1,211,2020-05-07T08:45:14-07:00,11.163748979568,3,versionC_stim.csv,VC_VersionC.csv,"Version C","Version C",LOVE,AFFECTION,Study2,B,115,128,VC,User,-,"How many vowels are the two words combined?|Type your response below and then press Enter.",Study/JOL,"Study Phase2",10794,,,9325,9325,,,,6,1
w958053_mae,2skctkxt4z,Nick_Dissertation_EX1b,1,212,2020-05-07T08:45:23-07:00,9.5707540512085,3,versionC_stim.csv,VC_VersionC.csv,"Version C","Version C",AIRCRAFT,PLANE,Study2,F,129,164,VC,User,-,"How many vowels are the two words combined?|Type your response below and then press Enter.",Study/JOL,"Study Phase2",9231,,,8141,8141,,,,5,1
w958053_mae,2skctkxt4z,Nick_Dissertation_EX1b,1,213,2020-05-07T08:45:31-07:00,7.2207989692688,3,versionC_stim.csv,VC_VersionC.csv,"Version C","Version C",ELECTION,MAZE,Study2,U,159,119,VC,User,-,"How many vowels are the two words combined?|Type your response below and then press Enter.",Study/JOL,"Study Phase2",6874,,,5590,5590,,,,6,1
w958053_mae,2skctkxt4z,Nick_Dissertation_EX1b,1,214,2020-05-07T08:45:37-07:00,6.0731658935547,3,versionC_stim.csv,VC_VersionC.csv,"Version C","Version C",HAVE,OWN,Study2,S,153,136,VC,User,-,"How many vowels are the two words combined?|Type your response below and then press Enter.",Study/JOL,"Study Phase2",5728,,,4188,4188,,,,3,1
w958053_mae,2skctkxt4z,Nick_Dissertation_EX1b,1,215,2020-05-07T08:45:43-07:00,5.9651761054993,3,versionC_stim.csv,VC_VersionC.csv,"Version C","Version C",END,ADJOURN,Study2,B,101,109,VC,User,-,"How many vowels are the two words combined?|Type your response below and then press Enter.",Study/JOL,"Study Phase2",5634,,,4057,4057,,,,4,1
w958053_mae,2skctkxt4z,Nick_Dissertation_EX1b,1,216,2020-05-07T08:45:51-07:00,8.3248579502106,3,versionC_stim.csv,VC_VersionC.csv,"Version C","Version C",CLOTH,STRETCH,Study2,U,157,169,VC,User,-,"How many vowels are the two words combined?|Type your response below and then press Enter.",Study/JOL,"Study Phase2",7997,,,6531,6531,,,,2,1
w958053_mae,2skctkxt4z,Nick_Dissertation_EX1b,1,217,2020-05-07T08:45:58-07:00,6.8088600635529,3,versionC_stim.csv,VC_VersionC.csv,"Version C","Version C",CUT,CHOP,Study2,B,107,102,VC,User,-,"How many vowels are the two words combined?|Type your response below and then press Enter.",Study/JOL,"Study Phase2",6471,,,4865,4866,,,,2,1
w958053_mae,2skctkxt4z,Nick_Dissertation_EX1b,1,218,2020-05-07T08:46:06-07:00,8.3628928661346,3,versionC_stim.csv,VC_VersionC.csv,"Version C","Version C",CLOTHES,CAKE,Study2,U,166,173,VC,User,-,"How many vowels are the two words combined?|Type your response below and then press Enter.",Study/JOL,"Study Phase2",7938,,,6725,6725,,,,5,1
w958053_mae,2skctkxt4z,Nick_Dissertation_EX1b,1,219,2020-05-07T08:46:14-07:00,7.4812870025635,3,versionC_stim.csv,VC_VersionC.csv,"Version C","Version C",LEAGUE,BASEBALL,Study2,F,131,146,VC,User,-,"How many vowels are the two words combined?|Type your response below and then press Enter.",Study/JOL,"Study Phase2",7127,,,-1,-1,,,,,1
w958053_mae,2skctkxt4z,Nick_Dissertation_EX1b,1,220,2020-05-07T08:46:19-07:00,5.1891021728516,3,versionC_stim.csv,VC_VersionC.csv,"Version C","Version C",AWAY,GONE,Study2,S,142,114,VC,User,-,"How many vowels are the two words combined?|Type your response below and then press Enter.",Study/JOL,"Study Phase2",4836,,,3319,3319,,,,4,1
w958053_mae,2skctkxt4z,Nick_Dissertation_EX1b,1,221,2020-05-07T08:46:25-07:00,6.3590428829193,3,versionC_stim.csv,VC_VersionC.csv,"Version C","Version C",WINDSHIELD,CAR,Study2,F,117,144,VC,User,-,"How many vowels are the two words combined?|Type your response below and then press Enter.",Study/JOL,"Study Phase2",6011,,,4549,4549,,,,4,1
w958053_mae,2skctkxt4z,Nick_Dissertation_EX1b,1,222,2020-05-07T08:46:31-07:00,6.0308771133423,3,versionC_stim.csv,VC_VersionC.csv,"Version C","Version C",SARDINE,FISH,Study2,F,130,149,VC,User,-,"How many vowels are the two words combined?|Type your response below and then press Enter.",Study/JOL,"Study Phase2",5700,,,4365,4366,,,,4,1
w958053_mae,2skctkxt4z,Nick_Dissertation_EX1b,1,223,2020-05-07T08:46:37-07:00,5.5374138355255,3,versionC_stim.csv,VC_VersionC.csv,"Version C","Version C",REVENGE,EVEN,Study2,F,122,101,VC,User,-,"How many vowels are the two words combined?|Type your response below and then press Enter.",Study/JOL,"Study Phase2",5207,,,3769,3769,,,,5,1
w958053_mae,2skctkxt4z,Nick_Dissertation_EX1b,1,224,2020-05-07T08:46:44-07:00,7.0251679420471,3,versionC_stim.csv,VC_VersionC.csv,"Version C","Version C",BANKER,MONEY,Study2,F,132,161,VC,User,-,"How many vowels are the two words combined?|Type your response below and then press Enter.",Study/JOL,"Study Phase2",6698,,,5291,5291,,,,4,1
w958053_mae,2skctkxt4z,Nick_Dissertation_EX1b,1,225,2020-05-07T08:46:50-07:00,6.0789592266083,3,versionC_stim.csv,VC_VersionC.csv,"Version C","Version C",FICTION,LISTEN,Study2,U,164,156,VC,User,-,"How many vowels are the two words combined?|Type your response below and then press Enter.",Study/JOL,"Study Phase2",5730,,,4526,4527,,,,5,1
w958053_mae,2skctkxt4z,Nick_Dissertation_EX1b,1,226,2020-05-07T08:46:56-07:00,6.1395649909973,3,versionC_stim.csv,VC_VersionC.csv,"Version C","Version C",COFFIN,DEAD,Study2,F,128,131,VC,User,-,"How many vowels are the two words combined?|Type your response below and then press Enter.",Study/JOL,"Study Phase2",5803,,,3964,3964,,,,4,1
w958053_mae,2skctkxt4z,Nick_Dissertation_EX1b,1,227,2020-05-07T08:47:05-07:00,8.6485698223114,3,versionC_stim.csv,VC_VersionC.csv,"Version C","Version C",BREAKABLE,GLASS,Study2,F,127,98,VC,User,-,"How many vowels are the two words combined?|Type your response below and then press Enter.",Study/JOL,"Study Phase2",8321,,,7056,7056,,,,5,1
w958053_mae,2skctkxt4z,Nick_Dissertation_EX1b,1,228,2020-05-07T08:48:03-07:00,58.307733058929,3,versionC_stim.csv,VC_VersionC.csv,"Version C","Version C",GROUND,EARTH,Study2,S,144,108,VC,User,-,"How many vowels are the two words combined?|Type your response below and then press Enter.",Study/JOL,"Study Phase2",57889,,,48708,48714,,,,4,1
w958053_mae,2skctkxt4z,Nick_Dissertation_EX1b,1,229,2020-05-07T08:48:17-07:00,14.462481975555,3,versionC_stim.csv,VC_VersionC.csv,"Version C","Version C",CARBON,ELEMENT,Study2,S,141,165,VC,User,-,"How many vowels are the two words combined?|Type your response below and then press Enter.",Study/JOL,"Study Phase2",14062,,,11961,11961,,,,5,0.986
w958053_mae,2skctkxt4z,Nick_Dissertation_EX1b,1,230,2020-05-07T08:48:25-07:00,7.2365679740906,3,versionC_stim.csv,VC_VersionC.csv,"Version C","Version C",TRUTHFUL,HONEST,Study2,F,133,115,VC,User,-,"How many vowels are the two words combined?|Type your response below and then press Enter.",Study/JOL,"Study Phase2",6859,,,5634,5634,,,,4,1
w958053_mae,2skctkxt4z,Nick_Dissertation_EX1b,1,231,2020-05-07T08:48:31-07:00,6.4537620544434,3,versionC_stim.csv,VC_VersionC.csv,"Version C","Version C",ABLE,CRACKLE,Study2,U,162,150,VC,User,-,"How many vowels are the two words combined?|Type your response below and then press Enter.",Study/JOL,"Study Phase2",6142,,,4479,4480,,,,4,1
w958053_mae,2skctkxt4z,Nick_Dissertation_EX1b,1,232,2020-05-07T08:48:38-07:00,6.5991930961609,3,versionC_stim.csv,VC_VersionC.csv,"Version C","Version C",COLD,CHILL,Study2,B,114,153,VC,User,-,"How many vowels are the two words combined?|Type your response below and then press Enter.",Study/JOL,"Study Phase2",6204,,,4826,4826,,,,2,1
w958053_mae,2skctkxt4z,Nick_Dissertation_EX1b,1,233,2020-05-07T08:48:43-07:00,5.190376996994,3,versionC_stim.csv,VC_VersionC.csv,"Version C","Version C",SIGN,LOAN,Study2,U,171,148,VC,User,-,"How many vowels are the two words combined?|Type your response below and then press Enter.",Study/JOL,"Study Phase2",4841,,,3578,3578,,,,3,1
w958053_mae,2skctkxt4z,Nick_Dissertation_EX1b,1,234,2020-05-07T08:48:48-07:00,5.5462589263916,3,versionC_stim.csv,VC_VersionC.csv,"Version C","Version C",FIGHT,FEUD,Study2,B,113,138,VC,User,-,"How many vowels are the two words combined?|Type your response below and then press Enter.",Study/JOL,"Study Phase2",5215,,,3879,3880,,,,3,1
w958053_mae,2skctkxt4z,Nick_Dissertation_EX1b,1,235,2020-05-07T08:48:55-07:00,6.3930928707123,3,versionC_stim.csv,VC_VersionC.csv,"Version C","Version C",TEMPER,TANTRUM,Study2,S,154,145,VC,User,-,"How many vowels are the two words combined?|Type your response below and then press Enter.",Study/JOL,"Study Phase2",6064,,,4647,4648,,,,4,1
w958053_mae,2skctkxt4z,Nick_Dissertation_EX1b,1,236,2020-05-07T08:49:03-07:00,8.2027680873871,3,versionC_stim.csv,VC_VersionC.csv,"Version C","Version C",THIMBLE,THREAD,Study2,F,121,141,VC,User,-,"How many vowels are the two words combined?|Type your response below and then press Enter.",Study/JOL,"Study Phase2",7883,,,6354,6354,,,,4,1
w958053_mae,2skctkxt4z,Nick_Dissertation_EX1b,1,237,2020-05-07T08:49:08-07:00,4.6816830635071,3,versionC_stim.csv,VC_VersionC.csv,"Version C","Version C",TAN,SUN,Study2,S,155,99,VC,User,-,"How many vowels are the two words combined?|Type your response below and then press Enter.",Study/JOL,"Study Phase2",4369,,,3210,3210,,,,2,1
w958053_mae,2skctkxt4z,Nick_Dissertation_EX1b,1,238,2020-05-07T08:49:14-07:00,6.1898970603943,3,versionC_stim.csv,VC_VersionC.csv,"Version C","Version C",EQUAL,RIGHTS,Study2,S,137,151,VC,User,-,"How many vowels are the two words combined?|Type your response below and then press Enter.",Study/JOL,"Study Phase2",5806,,,4674,4674,,,,4,1
w958053_mae,2skctkxt4z,Nick_Dissertation_EX1b,1,239,2020-05-07T08:49:25-07:00,10.905838012695,3,versionC_stim.csv,VC_VersionC.csv,"Version C","Version C",COMMUNICATION,PHONE,Study2,S,149,166,VC,User,-,"How many vowels are the two words combined?|Type your response below and then press Enter.",Study/JOL,"Study Phase2",10544,,,9038,9038,,,,8,1
w958053_mae,2skctkxt4z,Nick_Dissertation_EX1b,1,240,2020-05-07T08:49:43-07:00,17.965377807617,3,versionC_stim.csv,VC_VersionC.csv,"Version C","Version C",Morning,TEMPERATURE,Study2,U,173,130,VC,User,-,"How many vowels are the two words combined?|Type your response below and then press Enter.",Study/JOL,"Study Phase2",17547,,,16228,16228,,,,7,1
w958053_mae,2skctkxt4z,Nick_Dissertation_EX1b,1,241,2020-05-07T08:49:50-07:00,6.7906939983368,3,versionC_stim.csv,VC_VersionC.csv,"Version C","Version C",VILLAIN,BAD,Study2,F,118,174,VC,User,-,"How many vowels are the two words combined?|Type your response below and then press Enter.",Study/JOL,"Study Phase2",6437,,,5126,5126,,,,4,1
w958053_mae,2skctkxt4z,Nick_Dissertation_EX1b,1,242,2020-05-07T08:49:56-07:00,6.6577801704407,3,versionC_stim.csv,VC_VersionC.csv,"Version C","Version C",LONELY,ALONE,Study2,S,145,147,VC,User,-,"How many vowels are the two words combined?|Type your response below and then press Enter.",Study/JOL,"Study Phase2",6343,,,5122,5122,,,,5,1
w958053_mae,2skctkxt4z,Nick_Dissertation_EX1b,1,243,2020-05-07T08:50:01-07:00,4.7326519489288,3,versionC_stim.csv,VC_VersionC.csv,"Version C","Version C",GAME,CLUE,Study2,B,97,113,VC,User,-,"How many vowels are the two words combined?|Type your response below and then press Enter.",Study/JOL,"Study Phase2",4390,,,2970,2970,,,,3,1
w958053_mae,2skctkxt4z,Nick_Dissertation_EX1b,1,244,2020-05-07T08:50:08-07:00,7.0511660575867,3,versionC_stim.csv,VC_VersionC.csv,"Version C","Version C",BRACELET,WRIST,Study2,S,140,118,VC,User,-,"How many vowels are the two words combined?|Type your response below and then press Enter.",Study/JOL,"Study Phase2",6725,,,5403,5403,,,,4,1
w958053_mae,2skctkxt4z,Nick_Dissertation_EX1b,1,245,2020-05-07T08:50:13-07:00,4.9640998840332,3,versionC_stim.csv,VC_VersionC.csv,"Version C","Version C",REEL,ROD,Study2,S,150,107,VC,User,-,"How many vowels are the two words combined?|Type your response below and then press Enter.",Study/JOL,"Study Phase2",4597,,,2826,2826,,,,2,1
w958053_mae,2skctkxt4z,Nick_Dissertation_EX1b,1,246,2020-05-07T08:50:23-07:00,9.8637521266937,3,versionC_stim.csv,VC_VersionC.csv,"Version C","Version C",STRAWBERRY,FRUIT,Study2,F,124,117,VC,User,-,"How many vowels are the two words combined?|Type your response below and then press Enter.",Study/JOL,"Study Phase2",9531,,,7992,7992,,,,4,1
w958053_mae,2skctkxt4z,Nick_Dissertation_EX1b,1,247,2020-05-07T08:50:28-07:00,5.3957328796387,3,versionC_stim.csv,VC_VersionC.csv,"Version C","Version C",WET,DRY,Study2,S,146,121,VC,User,-,"How many vowels are the two words combined?|Type your response below and then press Enter.",Study/JOL,"Study Phase2",5070,,,3616,3616,,,,1,1
w958053_mae,2skctkxt4z,Nick_Dissertation_EX1b,1,248,2020-05-07T08:50:35-07:00,6.6420140266418,3,versionC_stim.csv,VC_VersionC.csv,"Version C","Version C",TRASH,LITTER,Study2,B,103,139,VC,User,-,"How many vowels are the two words combined?|Type your response below and then press Enter.",Study/JOL,"Study Phase2",6294,,,5113,5114,,,,3,1
w958053_mae,2skctkxt4z,Nick_Dissertation_EX1b,1,249,2020-05-07T08:50:42-07:00,7.030091047287,3,versionC_stim.csv,VC_VersionC.csv,"Version C","Version C",SEATBELT,SAFETY,Study2,S,147,170,VC,User,-,"How many vowels are the two words combined?|Type your response below and then press Enter.",Study/JOL,"Study Phase2",6707,,,5442,5442,,,,5,1
w958053_mae,2skctkxt4z,Nick_Dissertation_EX1b,1,250,2020-05-07T08:50:48-07:00,6.6452648639679,3,versionC_stim.csv,VC_VersionC.csv,"Version C","Version C",SHAVE,RAZOR,Study2,S,136,106,VC,User,-,"How many vowels are the two words combined?|Type your response below and then press Enter.",Study/JOL,"Study Phase2",6284,,,5099,5100,,,,4,1
w958053_mae,2skctkxt4z,Nick_Dissertation_EX1b,1,251,2020-05-07T08:50:54-07:00,5.5390491485596,3,versionC_stim.csv,VC_VersionC.csv,"Version C","Version C",NOISE,LOUD,Study2,S,152,122,VC,User,-,"How many vowels are the two words combined?|Type your response below and then press Enter.",Study/JOL,"Study Phase2",5217,,,4070,4070,,,,4,1
w958053_mae,2skctkxt4z,Nick_Dissertation_EX1b,1,252,2020-05-07T08:50:59-07:00,5.243980884552,3,versionC_stim.csv,VC_VersionC.csv,"Version C","Version C",FLIP,TURN,Study2,F,116,152,VC,User,-,"How many vowels are the two words combined?|Type your response below and then press Enter.",Study/JOL,"Study Phase2",4895,,,3547,3547,,,,2,1
w958053_mae,2skctkxt4z,Nick_Dissertation_EX1b,1,253,2020-05-07T08:51:06-07:00,6.7856290340424,3,versionC_stim.csv,VC_VersionC.csv,"Version C","Version C",CHILDREN,MIRROR,Study2,U,174,140,VC,User,-,"How many vowels are the two words combined?|Type your response below and then press Enter.",Study/JOL,"Study Phase2",6455,,,5277,5277,,,,4,1
w958053_mae,2skctkxt4z,Nick_Dissertation_EX1b,1,254,2020-05-07T08:51:11-07:00,5.0897691249847,3,versionC_stim.csv,VC_VersionC.csv,"Version C","Version C",DONKEY,MULE,Study2,B,108,116,VC,User,-,"How many vowels are the two words combined?|Type your response below and then press Enter.",Study/JOL,"Study Phase2",4780,,,3512,3512,,,,4,1
w958053_mae,2skctkxt4z,Nick_Dissertation_EX1b,1,255,2020-05-07T08:51:16-07:00,5.2135429382324,3,versionC_stim.csv,VC_VersionC.csv,"Version C","Version C",JOKE,KEYS,Study2,U,165,110,VC,User,-,"How many vowels are the two words combined?|Type your response below and then press Enter.",Study/JOL,"Study Phase2",4890,,,3667,3668,,,,3,1
w958053_mae,2skctkxt4z,Nick_Dissertation_EX1b,1,256,2020-05-07T08:51:22-07:00,5.501720905304,3,versionC_stim.csv,VC_VersionC.csv,"Version C","Version C",TOIL,LEASE,Study2,U,170,97,VC,User,-,"How many vowels are the two words combined?|Type your response below and then press Enter.",Study/JOL,"Study Phase2",5165,,,4119,4120,,,,5,1
w958053_mae,2skctkxt4z,Nick_Dissertation_EX1b,1,257,2020-05-07T08:51:28-07:00,6.0793440341949,3,versionC_stim.csv,VC_VersionC.csv,"Version C","Version C",OUNCE,BOTH,Study2,U,172,125,VC,User,-,"How many vowels are the two words combined?|Type your response below and then press Enter.",Study/JOL,"Study Phase2",5758,,,4542,4542,,,,4,1
w958053_mae,2skctkxt4z,Nick_Dissertation_EX1b,1,258,2020-05-07T08:51:33-07:00,5.4974589347839,3,versionC_stim.csv,VC_VersionC.csv,"Version C","Version C",DRINK,WATER,Study2,S,143,142,VC,User,-,"How many vowels are the two words combined?|Type your response below and then press Enter.",Study/JOL,"Study Phase2",5171,,,3637,3637,,,,3,1
w958053_mae,2skctkxt4z,Nick_Dissertation_EX1b,1,259,2020-05-07T08:51:39-07:00,5.3226771354675,3,versionC_stim.csv,VC_VersionC.csv,"Version C","Version C",SCAR,MAIN,Study2,U,175,167,VC,User,-,"How many vowels are the two words combined?|Type your response below and then press Enter.",Study/JOL,"Study Phase2",4997,,,3697,3697,,,,3,1
w958053_mae,2skctkxt4z,Nick_Dissertation_EX1b,1,260,2020-05-07T08:51:44-07:00,5.3988969326019,3,versionC_stim.csv,VC_VersionC.csv,"Version C","Version C",TICK,FLEA,Study2,S,151,134,VC,User,-,"How many vowels are the two words combined?|Type your response below and then press Enter.",Study/JOL,"Study Phase2",5081,,,3328,3328,,,,3,1
w958053_mae,2skctkxt4z,Nick_Dissertation_EX1b,1,261,2020-05-07T08:51:51-07:00,7.0625998973846,3,versionC_stim.csv,VC_VersionC.csv,"Version C","Version C",SMELL,INCENSE,Study2,B,110,123,VC,User,-,"How many vowels are the two words combined?|Type your response below and then press Enter.",Study/JOL,"Study Phase2",6688,,,5259,5259,,,,4,1
w958053_mae,2skctkxt4z,Nick_Dissertation_EX1b,1,262,2020-05-07T08:51:57-07:00,5.5021572113037,3,versionC_stim.csv,VC_VersionC.csv,"Version C","Version C",LIE,TRUTH,Study2,S,148,132,VC,User,-,"How many vowels are the two words combined?|Type your response below and then press Enter.",Study/JOL,"Study Phase2",5164,,,3391,3391,,,,3,1
w958053_mae,2skctkxt4z,Nick_Dissertation_EX1b,1,263,2020-05-07T08:52:02-07:00,5.1413009166718,3,versionC_stim.csv,VC_VersionC.csv,"Version C","Version C",HEAD,SCALP,Study2,B,105,172,VC,User,-,"How many vowels are the two words combined?|Type your response below and then press Enter.",Study/JOL,"Study Phase2",4803,,,3336,3337,,,,3,1
w958053_mae,2skctkxt4z,Nick_Dissertation_EX1b,1,264,2020-05-07T08:52:07-07:00,5.6244249343872,3,versionC_stim.csv,VC_VersionC.csv,"Version C","Version C",BRAWL,FIGHT,Study2,F,135,111,VC,User,-,"How many vowels are the two words combined?|Type your response below and then press Enter.",Study/JOL,"Study Phase2",5277,,,3780,3780,,,,2,1
w958053_mae,2skctkxt4z,Nick_Dissertation_EX1b,1,265,2020-05-07T08:52:15-07:00,7.2862780094147,3,versionC_stim.csv,VC_VersionC.csv,"Version C","Version C",MAROON,JUSTICE,Study2,U,156,160,VC,User,-,"How many vowels are the two words combined?|Type your response below and then press Enter.",Study/JOL,"Study Phase2",6952,,,5597,5597,,,,6,1
w958053_mae,2skctkxt4z,Nick_Dissertation_EX1b,1,266,2020-05-07T08:52:24-07:00,9.416757106781,3,versionC_stim.csv,VC_VersionC.csv,"Version C","Version C",YEAR,MONTH,BUFFER4,Buffer,177,180,VC,User,-,"How many vowels are the two words combined?|Type your response below and then press Enter.",Study/JOL,BUFFER4,9104,,,7895,7895,,,,3,1
w958053_mae,2skctkxt4z,Nick_Dissertation_EX1b,1,267,2020-05-07T08:52:32-07:00,7.5746958255768,3,versionC_stim.csv,VC_VersionC.csv,"Version C","Version C",SPOOKY,OCTOBER,BUFFER4,Buffer,180,177,VC,User,-,"How many vowels are the two words combined?|Type your response below and then press Enter.",Study/JOL,BUFFER4,7139,,,5902,5902,,,,5,1
w958053_mae,2skctkxt4z,Nick_Dissertation_EX1b,1,268,2020-05-07T08:52:37-07:00,5.1441960334778,3,versionC_stim.csv,VC_VersionC.csv,"Version C","Version C",WEAKS,DAYS,BUFFER4,Buffer,176,179,VC,User,-,"How many vowels are the two words combined?|Type your response below and then press Enter.",Study/JOL,BUFFER4,4815,,,3197,3197,,,,3,1
w958053_mae,2skctkxt4z,Nick_Dissertation_EX1b,1,269,2020-05-07T08:52:45-07:00,7.9676051139832,3,versionC_stim.csv,VC_VersionC.csv,"Version C","Version C",MARCH,SPRING,BUFFER4,Buffer,179,178,VC,User,-,"How many vowels are the two words combined?|Type your response below and then press Enter.",Study/JOL,BUFFER4,7632,,,6328,6328,,,,2,1
w958053_mae,2skctkxt4z,Nick_Dissertation_EX1b,1,270,2020-05-07T08:52:49-07:00,4.4176578521729,3,versionC_stim.csv,VC_VersionC.csv,"Version C","Version C",SHED,TOOL,BUFFER4,Buffer,178,181,VC,User,-,"How many vowels are the two words combined?|Type your response below and then press Enter.",Study/JOL,BUFFER4,4046,,,2833,2833,,,,3,1
w958053_mae,2skctkxt4z,Nick_Dissertation_EX1b,1,271,2020-05-07T08:52:56-07:00,6.4438061714172,3,versionC_stim.csv,VC_VersionC.csv,"Version C","Version C",,,,,,0,Instruct,User,-,"You have completed this section. Please press Enter.",Filler_Instruction,Instruct5,6065,,,-1,-1,,,,,1
w958053_mae,2skctkxt4z,Nick_Dissertation_EX1b,1,272,2020-05-07T08:54:56-07:00,120.43354296684,3,versionC_stim.csv,VC_VersionC.csv,"Version C","Version C",,,,,,0,FreeRecall,120,120,"Please list the 50 US states in reverse alphabetical order (z - a). The task will automatically advance to the next screen after two minutes.",,Filler2,120005,"washington utah vermont te",0,45859,119600,0,0,,,1
w958053_mae,2skctkxt4z,Nick_Dissertation_EX1b,1,273,2020-05-07T08:55:15-07:00,18.779784917831,3,versionC_stim.csv,VC_VersionC.csv,"Version C","Version C",,,,,,0,Instruct,-,10,"You will now be presented with the first word from each of the previously studied item pairs. Please type the missing word. If you do not know the word, you may guess or press Enter to skip forward to the next pair.",,Instruct6,18386,,,-1,-1,,,,,1
w958053_mae,2skctkxt4z,Nick_Dissertation_EX1b,1,274,2020-05-07T08:55:55-07:00,39.630177974701,3,versionC_stim.csv,VC_VersionC.csv,"Version C","Version C",OUNCE,BOTH,Study2,U,172,125,Test,User,-,,Recall,Recall2,39240,weight,20,19340,37084,0,0,,,1
w958053_mae,2skctkxt4z,Nick_Dissertation_EX1b,1,275,2020-05-07T08:56:10-07:00,15.15832400322,3,versionC_stim.csv,VC_VersionC.csv,"Version C","Version C",EQUAL,RIGHTS,Study2,S,137,151,Test,User,-,,Recall,Recall2,14762,,0,-1,-1,0,0,,,1
w958053_mae,2skctkxt4z,Nick_Dissertation_EX1b,1,276,2020-05-07T08:56:14-07:00,4.3031220436096,3,versionC_stim.csv,VC_VersionC.csv,"Version C","Version C",FLIP,TURN,Study2,F,116,152,Test,User,-,,Recall,Recall2,3977,,0,-1,-1,0,0,,,1
w958053_mae,2skctkxt4z,Nick_Dissertation_EX1b,1,277,2020-05-07T08:56:20-07:00,6.2491779327393,3,versionC_stim.csv,VC_VersionC.csv,"Version C","Version C",SARDINE,FISH,Study2,F,130,149,Test,User,-,,Recall,Recall2,5919,fish,100,2587,4370,1,1,,,1
w958053_mae,2skctkxt4z,Nick_Dissertation_EX1b,1,278,2020-05-07T08:56:27-07:00,7.0133111476898,3,versionC_stim.csv,VC_VersionC.csv,"Version C","Version C",HATE,NAME,Study2,U,167,143,Test,User,-,,Recall,Recall2,6653,love,25,3569,5332,0,0,,,1
w958053_mae,2skctkxt4z,Nick_Dissertation_EX1b,1,279,2020-05-07T08:56:39-07:00,12.15984582901,3,versionC_stim.csv,VC_VersionC.csv,"Version C","Version C",TOIL,LEASE,Study2,U,170,97,Test,User,-,,Recall,Recall2,11777,work,0,8013,10404,0,0,,,1
w958053_mae,2skctkxt4z,Nick_Dissertation_EX1b,1,280,2020-05-07T08:56:51-07:00,11.623412132263,3,versionC_stim.csv,VC_VersionC.csv,"Version C","Version C",FICTION,LISTEN,Study2,U,164,156,Test,User,-,,Recall,Recall2,11226,fact,20,7955,9808,0,0,,,1
w958053_mae,2skctkxt4z,Nick_Dissertation_EX1b,1,281,2020-05-07T08:57:01-07:00,9.6270160675049,3,versionC_stim.csv,VC_VersionC.csv,"Version C","Version C",HAVE,OWN,Study2,S,153,136,Test,User,-,,Recall,Recall2,9261,had,0,7369,7889,0,0,,,1
w958053_mae,2skctkxt4z,Nick_Dissertation_EX1b,1,282,2020-05-07T08:57:22-07:00,21.315392971039,3,versionC_stim.csv,VC_VersionC.csv,"Version C","Version C",DONKEY,MULE,Study2,B,108,116,Test,User,-,,Recall,Recall2,20925,burro,22.222222222222,4877,19188,0,0,,,1
w958053_mae,2skctkxt4z,Nick_Dissertation_EX1b,1,283,2020-05-07T08:57:37-07:00,14.900619983673,3,versionC_stim.csv,VC_VersionC.csv,"Version C","Version C",BANG,FUZZY,Study2,U,168,103,Test,User,-,,Recall,Recall2,14492,"pop ",0,10134,13269,0,0,,,1
w958053_mae,2skctkxt4z,Nick_Dissertation_EX1b,1,284,2020-05-07T08:57:48-07:00,11.052577018738,3,versionC_stim.csv,VC_VersionC.csv,"Version C","Version C",AIRCRAFT,PLANE,Study2,F,129,164,Test,User,-,,Recall,Recall2,10639,plane,100,4622,9354,1,1,,,1
w958053_mae,2skctkxt4z,Nick_Dissertation_EX1b,1,285,2020-05-07T08:57:57-07:00,9.1308400630951,3,versionC_stim.csv,VC_VersionC.csv,"Version C","Version C",COMMUNICATION,PHONE,Study2,S,149,166,Test,User,-,,Recall,Recall2,8781,news,44.444444444444,4938,6935,0,0,,,1
w958053_mae,2skctkxt4z,Nick_Dissertation_EX1b,1,286,2020-05-07T08:58:15-07:00,17.615067958832,3,versionC_stim.csv,VC_VersionC.csv,"Version C","Version C",BALLOON,POP,Study2,F,123,155,Test,User,-,,Recall,Recall2,17223,air,0,14990,15702,0,0,,,1
w958053_mae,2skctkxt4z,Nick_Dissertation_EX1b,1,287,2020-05-07T08:58:24-07:00,9.5171329975128,3,versionC_stim.csv,VC_VersionC.csv,"Version C","Version C",CHILDREN,MIRROR,Study2,U,174,140,Test,User,-,,Recall,Recall2,9172,kids,20,4014,7507,0,0,,,1
w958053_mae,2skctkxt4z,Nick_Dissertation_EX1b,1,288,2020-05-07T08:58:34-07:00,9.6395018100739,3,versionC_stim.csv,VC_VersionC.csv,"Version C","Version C",JAR,MASON,Study2,S,138,120,Test,User,-,,Recall,Recall2,9294,glass,40,6021,7791,0,0,,,1
w958053_mae,2skctkxt4z,Nick_Dissertation_EX1b,1,289,2020-05-07T08:58:40-07:00,6.0896270275116,3,versionC_stim.csv,VC_VersionC.csv,"Version C","Version C",NAP,SLEEP,Study2,F,134,175,Test,User,-,,Recall,Recall2,5734,sleep,100,2328,4163,1,1,,,1
w958053_mae,2skctkxt4z,Nick_Dissertation_EX1b,1,290,2020-05-07T08:58:48-07:00,8.1965651512146,3,versionC_stim.csv,VC_VersionC.csv,"Version C","Version C",BRAWL,FIGHT,Study2,F,135,111,Test,User,-,,Recall,Recall2,7853,fight,100,2970,6174,1,1,,,1
w958053_mae,2skctkxt4z,Nick_Dissertation_EX1b,1,291,2020-05-07T08:59:01-07:00,12.44646692276,3,versionC_stim.csv,VC_VersionC.csv,"Version C","Version C",SHAVE,RAZOR,Study2,S,136,106,Test,User,-,,Recall,Recall2,12046,beard,40,8792,10542,0,0,,,1
w958053_mae,2skctkxt4z,Nick_Dissertation_EX1b,1,292,2020-05-07T08:59:15-07:00,14.344765901566,3,versionC_stim.csv,VC_VersionC.csv,"Version C","Version C",CLEAR,MOAT,Study2,U,169,163,Test,User,-,,Recall,Recall2,13972,clean,22.222222222222,10564,12462,0,0,,,1
w958053_mae,2skctkxt4z,Nick_Dissertation_EX1b,1,293,2020-05-07T08:59:33-07:00,17.783699035645,3,versionC_stim.csv,VC_VersionC.csv,"Version C","Version C",Morning,TEMPERATURE,Study2,U,173,130,Test,User,-,,Recall,Recall2,17371,dew,14.285714285714,3619,15897,0,0,,,1
w958053_mae,2skctkxt4z,Nick_Dissertation_EX1b,1,294,2020-05-07T08:59:42-07:00,9.0451180934906,3,versionC_stim.csv,VC_VersionC.csv,"Version C","Version C",MAROON,JUSTICE,Study2,U,156,160,Test,User,-,,Recall,Recall2,8705,color,16.666666666667,4620,7360,0,0,,,1
w958053_mae,2skctkxt4z,Nick_Dissertation_EX1b,1,295,2020-05-07T08:59:48-07:00,6.675754070282,3,versionC_stim.csv,VC_VersionC.csv,"Version C","Version C",BREAKABLE,GLASS,Study2,F,127,98,Test,User,-,,Recall,Recall2,6332,,0,-1,-1,0,0,,,1
w958053_mae,2skctkxt4z,Nick_Dissertation_EX1b,1,296,2020-05-07T08:59:54-07:00,6.0263078212738,3,versionC_stim.csv,VC_VersionC.csv,"Version C","Version C",VILLAIN,BAD,Study2,F,118,174,Test,User,-,,Recall,Recall2,5686,crook,0,2557,4236,0,0,,,1
w958053_mae,2skctkxt4z,Nick_Dissertation_EX1b,1,297,2020-05-07T09:00:08-07:00,13.753018140793,3,versionC_stim.csv,VC_VersionC.csv,"Version C","Version C",SIGN,LOAN,Study2,U,171,148,Test,User,-,,Recall,Recall2,13376,posted,20,7428,12170,0,0,,,1
w958053_mae,2skctkxt4z,Nick_Dissertation_EX1b,1,298,2020-05-07T09:00:19-07:00,10.907325983047,3,versionC_stim.csv,VC_VersionC.csv,"Version C","Version C",BANKER,MONEY,Study2,F,132,161,Test,User,-,,Recall,Recall2,10496,money,100,6976,9248,1,1,,,1
w958053_mae,2skctkxt4z,Nick_Dissertation_EX1b,1,299,2020-05-07T09:00:33-07:00,13.805711984634,3,versionC_stim.csv,VC_VersionC.csv,"Version C","Version C",DOG,FURRY,Study2,B,102,135,Test,User,-,,Recall,Recall2,13409,canine,0,5281,12182,0,0,,,1
w958053_mae,2skctkxt4z,Nick_Dissertation_EX1b,1,300,2020-05-07T09:00:50-07:00,17.00367307663,3,versionC_stim.csv,VC_VersionC.csv,"Version C","Version C",SCISSORS,SHEARS,Study2,B,112,104,Test,User,-,,Recall,Recall2,16634,knife,18.181818181818,11116,14722,0,0,,,1
w958053_mae,2skctkxt4z,Nick_Dissertation_EX1b,1,301,2020-05-07T09:01:14-07:00,24.388263940811,3,versionC_stim.csv,VC_VersionC.csv,"Version C","Version C",JOKE,KEYS,Study2,U,165,110,Test,User,-,,Recall,Recall2,23982,"trickster ",30.769230769231,10894,22849,0,0,,,1
w958053_mae,2skctkxt4z,Nick_Dissertation_EX1b,1,302,2020-05-07T09:01:23-07:00,8.46107006073,3,versionC_stim.csv,VC_VersionC.csv,"Version C","Version C",GROUND,EARTH,Study2,S,144,108,Test,User,-,,Recall,Recall2,8107,land,22.222222222222,3658,7065,0,0,,,1
w958053_mae,2skctkxt4z,Nick_Dissertation_EX1b,1,303,2020-05-07T09:01:32-07:00,9.2039189338684,3,versionC_stim.csv,VC_VersionC.csv,"Version C","Version C",PENGUIN,BIRD,Study2,F,119,154,Test,User,-,,Recall,Recall2,8850,bird,100,5636,7410,1,1,,,1
w958053_mae,2skctkxt4z,Nick_Dissertation_EX1b,1,304,2020-05-07T09:01:48-07:00,15.998662948608,3,versionC_stim.csv,VC_VersionC.csv,"Version C","Version C",SMELL,INCENSE,Study2,B,110,123,Test,User,-,,Recall,Recall2,15622,sniff,16.666666666667,9023,12820,0,0,,,1
w958053_mae,2skctkxt4z,Nick_Dissertation_EX1b,1,305,2020-05-07T09:02:21-07:00,32.85354590416,3,versionC_stim.csv,VC_VersionC.csv,"Version C","Version C",SEATBELT,SAFETY,Study2,S,147,170,Test,User,-,,Recall,Recall2,32462,fastner,30.769230769231,11789,30781,0,0,,,1
w958053_mae,2skctkxt4z,Nick_Dissertation_EX1b,1,306,2020-05-07T09:02:27-07:00,5.7546420097351,3,versionC_stim.csv,VC_VersionC.csv,"Version C","Version C",REEL,ROD,Study2,S,150,107,Test,User,-,,Recall,Recall2,5376,rod,100,2791,3939,1,1,,,1
w958053_mae,2skctkxt4z,Nick_Dissertation_EX1b,1,307,2020-05-07T09:02:39-07:00,12.473805189133,3,versionC_stim.csv,VC_VersionC.csv,"Version C","Version C",PANTHER,CAT,Study2,F,126,176,Test,User,-,,Recall,Recall2,12075,cat,100,4901,10112,1,1,,,1
w958053_mae,2skctkxt4z,Nick_Dissertation_EX1b,1,308,2020-05-07T09:02:48-07:00,8.8587288856506,3,versionC_stim.csv,VC_VersionC.csv,"Version C","Version C",GAME,CLUE,Study2,B,97,113,Test,User,-,,Recall,Recall2,8499,board,0,2835,7315,0,0,,,1
w958053_mae,2skctkxt4z,Nick_Dissertation_EX1b,1,309,2020-05-07T09:03:23-07:00,35.288937091827,3,versionC_stim.csv,VC_VersionC.csv,"Version C","Version C",MYSTERY,DETECTIVE,Study2,B,100,126,Test,User,-,,Recall,Recall2,34857,unsolved,23.529411764706,23474,33137,0,0,,,1
w958053_mae,2skctkxt4z,Nick_Dissertation_EX1b,1,310,2020-05-07T09:03:32-07:00,8.5682270526886,3,versionC_stim.csv,VC_VersionC.csv,"Version C","Version C",CUT,CHOP,Study2,B,107,102,Test,User,-,,Recall,Recall2,8230,rip,28.571428571429,4887,6986,0,0,,,1
w958053_mae,2skctkxt4z,Nick_Dissertation_EX1b,1,311,2020-05-07T09:03:43-07:00,11.115338802338,3,versionC_stim.csv,VC_VersionC.csv,"Version C","Version C",TRASH,LITTER,Study2,B,103,139,Test,User,-,,Recall,Recall2,10738,bag,0,8530,9004,0,0,,,1
w958053_mae,2skctkxt4z,Nick_Dissertation_EX1b,1,312,2020-05-07T09:03:51-07:00,7.7278301715851,3,versionC_stim.csv,VC_VersionC.csv,"Version C","Version C",WINDSHIELD,CAR,Study2,F,117,144,Test,User,-,,Recall,Recall2,7255,wiper,25,3555,5646,0,0,,,1
w958053_mae,2skctkxt4z,Nick_Dissertation_EX1b,1,313,2020-05-07T09:03:59-07:00,7.8498759269714,3,versionC_stim.csv,VC_VersionC.csv,"Version C","Version C",PAPER,DOCUMENT,Study2,B,109,100,Test,User,-,,Recall,Recall2,7504,bag,0,4979,5928,0,0,,,1
w958053_mae,2skctkxt4z,Nick_Dissertation_EX1b,1,314,2020-05-07T09:04:21-07:00,22.177828073502,3,versionC_stim.csv,VC_VersionC.csv,"Version C","Version C",PLANT,CACTUS,Study2,B,98,105,Test,User,-,,Recall,Recall2,21779,flower,0,17356,20066,0,0,,,1
w958053_mae,2skctkxt4z,Nick_Dissertation_EX1b,1,315,2020-05-07T09:04:26-07:00,5.6678438186646,3,versionC_stim.csv,VC_VersionC.csv,"Version C","Version C",THIMBLE,THREAD,Study2,F,121,141,Test,User,-,,Recall,Recall2,5340,sew,22.222222222222,2438,3887,0,0,,,1
w958053_mae,2skctkxt4z,Nick_Dissertation_EX1b,1,316,2020-05-07T09:04:44-07:00,17.662833213806,3,versionC_stim.csv,VC_VersionC.csv,"Version C","Version C",ACTRESS,STAR,Study2,F,120,162,Test,User,-,,Recall,Recall2,17290,female,20,2525,15522,0,0,,,1
w958053_mae,2skctkxt4z,Nick_Dissertation_EX1b,1,317,2020-05-07T09:04:56-07:00,12.209575891495,3,versionC_stim.csv,VC_VersionC.csv,"Version C","Version C",COLD,CHILL,Study2,B,114,153,Test,User,-,,Recall,Recall2,11826,freeze,0,5339,10308,0,0,,,1
w958053_mae,2skctkxt4z,Nick_Dissertation_EX1b,1,318,2020-05-07T09:05:05-07:00,8.9566309452057,3,versionC_stim.csv,VC_VersionC.csv,"Version C","Version C",LONELY,ALONE,Study2,S,145,147,Test,User,-,,Recall,Recall2,8627,alone,100,5160,6949,1,1,,,1
w958053_mae,2skctkxt4z,Nick_Dissertation_EX1b,1,319,2020-05-07T09:05:10-07:00,4.3379940986633,3,versionC_stim.csv,VC_VersionC.csv,"Version C","Version C",OBTAIN,MEAT,Study2,U,161,171,Test,User,-,,Recall,Recall2,3012,,0,-1,-1,0,0,,,1
w958053_mae,2skctkxt4z,Nick_Dissertation_EX1b,1,320,2020-05-07T09:05:15-07:00,5.9327900409698,3,versionC_stim.csv,VC_VersionC.csv,"Version C","Version C",DRINK,WATER,Study2,S,143,142,Test,User,-,,Recall,Recall2,5538,get,25,3311,3888,0,0,,,1
w958053_mae,2skctkxt4z,Nick_Dissertation_EX1b,1,321,2020-05-07T09:05:32-07:00,16.050720930099,3,versionC_stim.csv,VC_VersionC.csv,"Version C","Version C",TAN,SUN,Study2,S,155,99,Test,User,-,,Recall,Recall2,15594,lotion,22.222222222222,10285,13919,0,0,,,1
w958053_mae,2skctkxt4z,Nick_Dissertation_EX1b,1,322,2020-05-07T09:05:41-07:00,9.356486082077,3,versionC_stim.csv,VC_VersionC.csv,"Version C","Version C",CARBON,ELEMENT,Study2,S,141,165,Test,User,-,,Recall,Recall2,9018,steel,33.333333333333,4018,7563,0,0,,,1
w958053_mae,2skctkxt4z,Nick_Dissertation_EX1b,1,323,2020-05-07T09:05:50-07:00,9.0322329998016,3,versionC_stim.csv,VC_VersionC.csv,"Version C","Version C",WET,DRY,Study2,S,146,121,Test,User,-,,Recall,Recall2,8693,water,25,5363,7210,0,0,,,1
w958053_mae,2skctkxt4z,Nick_Dissertation_EX1b,1,324,2020-05-07T09:05:57-07:00,7.3192179203033,3,versionC_stim.csv,VC_VersionC.csv,"Version C","Version C",COFFIN,DEAD,Study2,F,128,131,Test,User,-,,Recall,Recall2,6937,urn,0,4111,5293,0,0,,,1
w958053_mae,2skctkxt4z,Nick_Dissertation_EX1b,1,325,2020-05-07T09:06:06-07:00,8.9757568836212,3,versionC_stim.csv,VC_VersionC.csv,"Version C","Version C",FIGHT,FEUD,Study2,B,113,138,Test,User,-,,Recall,Recall2,8635,brawl,0,4431,7629,0,0,,,1
w958053_mae,2skctkxt4z,Nick_Dissertation_EX1b,1,326,2020-05-07T09:06:18-07:00,11.402665138245,3,versionC_stim.csv,VC_VersionC.csv,"Version C","Version C",END,ADJOURN,Study2,B,101,109,Test,User,-,,Recall,Recall2,11000,fin,20,8637,9179,0,0,,,1
w958053_mae,2skctkxt4z,Nick_Dissertation_EX1b,1,327,2020-05-07T09:06:30-07:00,12.074938058853,3,versionC_stim.csv,VC_VersionC.csv,"Version C","Version C",HEAD,SCALP,Study2,B,105,172,Test,User,-,,Recall,Recall2,11672,hunter,0,3616,9709,0,0,,,1
w958053_mae,2skctkxt4z,Nick_Dissertation_EX1b,1,328,2020-05-07T09:06:50-07:00,19.887465953827,3,versionC_stim.csv,VC_VersionC.csv,"Version C","Version C",ELECTION,MAZE,Study2,U,159,119,Test,User,-,,Recall,Recall2,19499,selection,15.384615384615,6753,14272,0,0,,,1
w958053_mae,2skctkxt4z,Nick_Dissertation_EX1b,1,329,2020-05-07T09:07:03-07:00,13.364243030548,3,versionC_stim.csv,VC_VersionC.csv,"Version C","Version C",TRUTHFUL,HONEST,Study2,F,133,115,Test,User,-,,Recall,Recall2,12944,faithful,14.285714285714,3398,10817,0,0,,,1
w958053_mae,2skctkxt4z,Nick_Dissertation_EX1b,1,330,2020-05-07T09:07:24-07:00,21.080629825592,3,versionC_stim.csv,VC_VersionC.csv,"Version C","Version C",CHARM,VEHICLE,Study2,U,160,137,Test,User,-,,Recall,Recall2,20679,braclet,42.857142857143,12057,18762,0,0,,,1
w958053_mae,2skctkxt4z,Nick_Dissertation_EX1b,1,331,2020-05-07T09:07:35-07:00,11.258613109589,3,versionC_stim.csv,VC_VersionC.csv,"Version C","Version C",STEAK,GIVE,Study2,U,158,158,Test,User,-,,Recall,Recall2,10863,beef,25,8222,9307,0,0,,,1
w958053_mae,2skctkxt4z,Nick_Dissertation_EX1b,1,332,2020-05-07T09:07:47-07:00,11.422698020935,3,versionC_stim.csv,VC_VersionC.csv,"Version C","Version C",TIE,SHOELACE,Study2,B,99,133,Test,User,-,,Recall,Recall2,11031,clip,16.666666666667,6826,8731,0,0,,,1
w958053_mae,2skctkxt4z,Nick_Dissertation_EX1b,1,333,2020-05-07T09:08:09-07:00,22.311393976212,3,versionC_stim.csv,VC_VersionC.csv,"Version C","Version C",EAT,DINE,Study2,B,111,157,Test,User,-,,Recall,Recall2,21882,intake,60,17041,20419,0,0,,,1
