Username,ID,ExperimentName,Session,Trial,Date,TimeDif,"Condition Number","Stimuli File","Order File","Condition Description","Condition Notes",Stimuli*Cue,Stimuli*Answer,Stimuli*Shuffle,"Stimuli*Stimuli Notes",Stimuli*Value,Procedure*Item,"Procedure*Trial Type","Procedure*Max Time","Procedure*Min Time",Procedure*Text,"Procedure*Procedure Notes",Procedure*Shuffle,Response*RT,Response*Response,Response*Accuracy,Response*RTfirst,Response*RTlast,Response*strictAcc,Response*lenientAcc,Response*focus,Response*JOL,Response*Focus
w10039021,cem4e8e9hp,Nick_Dissertation_EX1b,1,1,2020-04-20T02:30:38-07:00,7.6468460559845,2,versionA_stim.csv,VC_VersionB.csv,"Version B","Version B",,,,,,0,Instruct,-,5,"In this section, you will be presented with a series of word pairs.",Initial_Instruct,Instruct1,7376,,,-1,-1,,,,,1
w10039021,cem4e8e9hp,Nick_Dissertation_EX1b,1,2,2020-04-20T02:30:47-07:00,8.8547887802124,2,versionA_stim.csv,VC_VersionB.csv,"Version B","Version B",,,,,,0,Instruct,-,5,"As you study, you will be asked to count the total number of vowels (a, e, i, o, u) within the two words. Please note that y is not considered a vowel.",,Instruct13,8598,,,-1,-1,,,,,1
w10039021,cem4e8e9hp,Nick_Dissertation_EX1b,1,3,2020-04-20T02:31:00-07:00,12.931637048721,2,versionA_stim.csv,VC_VersionB.csv,"Version B","Version B",,,,,,0,Instruct,-,10,"For example, if you are given the pair CAT - DOG, CAT has one vowel and DOG has one vowel. The correct response would be 2 (1 + 1 = 2). After typing the number, you will press ENTER to move to the next pair.",,Instruct14,12715,,,-1,-1,,,,,1
w10039021,cem4e8e9hp,Nick_Dissertation_EX1b,1,4,2020-04-20T02:31:09-07:00,8.6553030014038,2,versionA_stim.csv,VC_VersionB.csv,"Version B","Version B",,,,,,0,Instruct,User,-,"You will now begin the study. Press Enter when you are ready to begin.",,Instruct16,8439,,,-1,-1,,,,,1
w10039021,cem4e8e9hp,Nick_Dissertation_EX1b,1,5,2020-04-20T02:31:16-07:00,7.491014957428,2,versionA_stim.csv,VC_VersionB.csv,"Version B","Version B",CARROT,POTATO,BUFFER3,Buffer,91,93,VC,User,-,"How many vowels are the two words combined?|Type your response below and then press Enter.",Study/JOL,BUFFER,7230,,,6413,6414,,,,5,1
w10039021,cem4e8e9hp,Nick_Dissertation_EX1b,1,6,2020-04-20T02:31:18-07:00,1.2652561664581,2,versionA_stim.csv,VC_VersionB.csv,"Version B","Version B",SHRIMP,FISH,BUFFER3,Buffer,93,92,VC,User,-,"How many vowels are the two words combined?|Type your response below and then press Enter.",Study/JOL,BUFFER,1040,,,-1,-1,,,,,1
w10039021,cem4e8e9hp,Nick_Dissertation_EX1b,1,7,2020-04-20T02:31:27-07:00,8.8689680099487,2,versionA_stim.csv,VC_VersionB.csv,"Version B","Version B",ICE,FROZEN,BUFFER3,Buffer,94,96,VC,User,-,"How many vowels are the two words combined?|Type your response below and then press Enter.",Study/JOL,BUFFER,8616,,,7697,7697,,,,4,1
w10039021,cem4e8e9hp,Nick_Dissertation_EX1b,1,8,2020-04-20T02:31:36-07:00,9.2145619392395,2,versionA_stim.csv,VC_VersionB.csv,"Version B","Version B",CAMP,ADVENTURE,BUFFER3,Buffer,95,94,VC,User,-,"How many vowels are the two words combined?|Type your response below and then press Enter.",Study/JOL,BUFFER,8906,,,7298,7298,,,,5,1
w10039021,cem4e8e9hp,Nick_Dissertation_EX1b,1,9,2020-04-20T02:32:02-07:00,25.8045129776,2,versionA_stim.csv,VC_VersionB.csv,"Version B","Version B",NOODLE,STRING,BUFFER3,Buffer,92,95,VC,User,-,"How many vowels are the two words combined?|Type your response below and then press Enter.",Study/JOL,BUFFER,25576,,,23927,23927,,,,5,1
w10039021,cem4e8e9hp,Nick_Dissertation_EX1b,1,10,2020-04-20T02:32:06-07:00,4.2505350112915,2,versionA_stim.csv,VC_VersionB.csv,"Version B","Version B",DEAD,COFFIN,Study2,B,128,154,VC,User,-,"How many vowels are the two words combined?|Type your response below and then press Enter.",Study/JOL,"Study Phase",3999,,,2855,2855,,,,4,1
w10039021,cem4e8e9hp,Nick_Dissertation_EX1b,1,11,2020-04-20T02:32:34-07:00,27.684592962265,2,versionA_stim.csv,VC_VersionB.csv,"Version B","Version B",SHEARS,SCISSORS,Study2,F,112,126,VC,User,-,"How many vowels are the two words combined?|Type your response below and then press Enter.",Study/JOL,"Study Phase",27451,,,26354,26354,,,,4,1
w10039021,cem4e8e9hp,Nick_Dissertation_EX1b,1,12,2020-04-20T02:32:40-07:00,6.6974351406097,2,versionA_stim.csv,VC_VersionB.csv,"Version B","Version B",CHERRY,RED,Study2,F,104,174,VC,User,-,"How many vowels are the two words combined?|Type your response below and then press Enter.",Study/JOL,"Study Phase",6466,,,5474,5474,,,,2,1
w10039021,cem4e8e9hp,Nick_Dissertation_EX1b,1,13,2020-04-20T02:32:46-07:00,5.5656909942627,2,versionA_stim.csv,VC_VersionB.csv,"Version B","Version B",MIRROR,CHILDREN,Study2,U,174,121,VC,User,-,"How many vowels are the two words combined?|Type your response below and then press Enter.",Study/JOL,"Study Phase",5339,,,4149,4149,,,,4,1
w10039021,cem4e8e9hp,Nick_Dissertation_EX1b,1,14,2020-04-20T02:32:55-07:00,9.1091728210449,2,versionA_stim.csv,VC_VersionB.csv,"Version B","Version B",PHONE,COMMUNICATION,Study2,S,149,170,VC,User,-,"How many vowels are the two words combined?|Type your response below and then press Enter.",Study/JOL,"Study Phase",8877,,,6924,6924,,,,8,1
w10039021,cem4e8e9hp,Nick_Dissertation_EX1b,1,15,2020-04-20T02:33:17-07:00,22.365070104599,2,versionA_stim.csv,VC_VersionB.csv,"Version B","Version B",PLANE,AIRCRAFT,Study2,B,129,97,VC,User,-,"How many vowels are the two words combined?|Type your response below and then press Enter.",Study/JOL,"Study Phase",22134,,,20821,20821,,,,5,1
w10039021,cem4e8e9hp,Nick_Dissertation_EX1b,1,16,2020-04-20T02:33:22-07:00,5.1849229335785,2,versionA_stim.csv,VC_VersionB.csv,"Version B","Version B",CAKE,CLOTHES,Study2,U,166,129,VC,User,-,"How many vowels are the two words combined?|Type your response below and then press Enter.",Study/JOL,"Study Phase",4954,,,3850,3850,,,,4,1
w10039021,cem4e8e9hp,Nick_Dissertation_EX1b,1,17,2020-04-20T02:33:28-07:00,5.9617390632629,2,versionA_stim.csv,VC_VersionB.csv,"Version B","Version B",THREAD,THIMBLE,Study2,B,121,104,VC,User,-,"How many vowels are the two words combined?|Type your response below and then press Enter.",Study/JOL,"Study Phase",5717,,,5139,5139,,,,4,1
w10039021,cem4e8e9hp,Nick_Dissertation_EX1b,1,18,2020-04-20T02:33:34-07:00,5.4682350158691,2,versionA_stim.csv,VC_VersionB.csv,"Version B","Version B",Shell,SHAKE,Study2,U,163,176,VC,User,-,"How many vowels are the two words combined?|Type your response below and then press Enter.",Study/JOL,"Study Phase",5245,,,4690,4690,,,,3,1
w10039021,cem4e8e9hp,Nick_Dissertation_EX1b,1,19,2020-04-20T02:33:38-07:00,4.5128560066223,2,versionA_stim.csv,VC_VersionB.csv,"Version B","Version B",LISTEN,FICTION,Study2,U,164,153,VC,User,-,"How many vowels are the two words combined?|Type your response below and then press Enter.",Study/JOL,"Study Phase",4293,,,3651,3651,,,,5,1
w10039021,cem4e8e9hp,Nick_Dissertation_EX1b,1,20,2020-04-20T02:33:44-07:00,5.7648768424988,2,versionA_stim.csv,VC_VersionB.csv,"Version B","Version B",EVEN,REVENGE,Study2,B,122,157,VC,User,-,"How many vowels are the two words combined?|Type your response below and then press Enter.",Study/JOL,"Study Phase",5543,,,4614,4614,,,,5,1
w10039021,cem4e8e9hp,Nick_Dissertation_EX1b,1,21,2020-04-20T02:33:56-07:00,11.830113172531,2,versionA_stim.csv,VC_VersionB.csv,"Version B","Version B",BASEBALL,LEAGUE,Study2,B,131,99,VC,User,-,"How many vowels are the two words combined?|Type your response below and then press Enter.",Study/JOL,"Study Phase",11597,,,6096,6096,,,,7,1
w10039021,cem4e8e9hp,Nick_Dissertation_EX1b,1,22,2020-04-20T02:34:01-07:00,4.8134880065918,2,versionA_stim.csv,VC_VersionB.csv,"Version B","Version B",CLUE,GAME,Study2,F,97,100,VC,User,-,"How many vowels are the two words combined?|Type your response below and then press Enter.",Study/JOL,"Study Phase",4581,,,3862,3862,,,,4,1
w10039021,cem4e8e9hp,Nick_Dissertation_EX1b,1,23,2020-04-20T02:34:05-07:00,4.6892008781433,2,versionA_stim.csv,VC_VersionB.csv,"Version B","Version B",FURRY,DOG,Study2,F,102,144,VC,User,-,"How many vowels are the two words combined?|Type your response below and then press Enter.",Study/JOL,"Study Phase",4467,,,3756,3757,,,,2,1
w10039021,cem4e8e9hp,Nick_Dissertation_EX1b,1,24,2020-04-20T02:34:10-07:00,4.1174521446228,2,versionA_stim.csv,VC_VersionB.csv,"Version B","Version B",RAZOR,SHAVE,Study2,S,136,116,VC,User,-,"How many vowels are the two words combined?|Type your response below and then press Enter.",Study/JOL,"Study Phase",3885,,,3229,3229,,,,4,1
w10039021,cem4e8e9hp,Nick_Dissertation_EX1b,1,25,2020-04-20T02:34:16-07:00,6.1575717926025,2,versionA_stim.csv,VC_VersionB.csv,"Version B","Version B",MEAT,OBTAIN,Study2,U,161,163,VC,User,-,"How many vowels are the two words combined?|Type your response below and then press Enter.",Study/JOL,"Study Phase",5934,,,5463,5463,,,,5,1
w10039021,cem4e8e9hp,Nick_Dissertation_EX1b,1,26,2020-04-20T02:34:21-07:00,5.4261100292206,2,versionA_stim.csv,VC_VersionB.csv,"Version B","Version B",WATER,DRINK,Study2,S,143,166,VC,User,-,"How many vowels are the two words combined?|Type your response below and then press Enter.",Study/JOL,"Study Phase",5199,,,4655,4655,,,,3,1
w10039021,cem4e8e9hp,Nick_Dissertation_EX1b,1,27,2020-04-20T02:34:30-07:00,8.9404480457306,2,versionA_stim.csv,VC_VersionB.csv,"Version B","Version B",BIRD,PENGUIN,Study2,B,119,137,VC,User,-,"How many vowels are the two words combined?|Type your response below and then press Enter.",Study/JOL,"Study Phase",8192,,,7534,7535,,,,4,1
w10039021,cem4e8e9hp,Nick_Dissertation_EX1b,1,28,2020-04-20T02:34:36-07:00,6.3423221111298,2,versionA_stim.csv,VC_VersionB.csv,"Version B","Version B",WRIST,BRACELET,Study2,S,140,158,VC,User,-,"How many vowels are the two words combined?|Type your response below and then press Enter.",Study/JOL,"Study Phase",6092,,,5556,5556,,,,4,1
w10039021,cem4e8e9hp,Nick_Dissertation_EX1b,1,29,2020-04-20T02:34:43-07:00,6.198047876358,2,versionA_stim.csv,VC_VersionB.csv,"Version B","Version B",AFFECTION,LOVE,Study2,F,115,139,VC,User,-,"How many vowels are the two words combined?|Type your response below and then press Enter.",Study/JOL,"Study Phase",5968,,,4793,4793,,,,6,1
w10039021,cem4e8e9hp,Nick_Dissertation_EX1b,1,30,2020-04-20T02:34:46-07:00,3.5474140644073,2,versionA_stim.csv,VC_VersionB.csv,"Version B","Version B",OWN,HAVE,Study2,S,153,117,VC,User,-,"How many vowels are the two words combined?|Type your response below and then press Enter.",Study/JOL,"Study Phase",3293,,,2774,2774,,,,3,1
w10039021,cem4e8e9hp,Nick_Dissertation_EX1b,1,31,2020-04-20T02:34:50-07:00,4.2587990760803,2,versionA_stim.csv,VC_VersionB.csv,"Version B","Version B",LITTER,TRASH,Study2,F,103,132,VC,User,-,"How many vowels are the two words combined?|Type your response below and then press Enter.",Study/JOL,"Study Phase",4018,,,3517,3517,,,,3,1
w10039021,cem4e8e9hp,Nick_Dissertation_EX1b,1,32,2020-04-20T02:34:56-07:00,6.0152850151062,2,versionA_stim.csv,VC_VersionB.csv,"Version B","Version B",DETECTIVE,MYSTERY,Study2,F,100,167,VC,User,-,"How many vowels are the two words combined?|Type your response below and then press Enter.",Study/JOL,"Study Phase",5680,,,4968,4968,,,,5,1
w10039021,cem4e8e9hp,Nick_Dissertation_EX1b,1,33,2020-04-20T02:35:00-07:00,3.6993079185486,2,versionA_stim.csv,VC_VersionB.csv,"Version B","Version B",DRIVER,CAR,Study2,F,106,105,VC,User,-,"How many vowels are the two words combined?|Type your response below and then press Enter.",Study/JOL,"Study Phase",3468,,,2975,2976,,,,3,1
w10039021,cem4e8e9hp,Nick_Dissertation_EX1b,1,34,2020-04-20T02:35:05-07:00,5.1418778896332,2,versionA_stim.csv,VC_VersionB.csv,"Version B","Version B",INCENSE,SMELL,Study2,F,110,119,VC,User,-,"How many vowels are the two words combined?|Type your response below and then press Enter.",Study/JOL,"Study Phase",4911,,,4265,4265,,,,4,1
w10039021,cem4e8e9hp,Nick_Dissertation_EX1b,1,35,2020-04-20T02:35:11-07:00,6.1225900650024,2,versionA_stim.csv,VC_VersionB.csv,"Version B","Version B",ALONE,LONELY,Study2,S,145,134,VC,User,-,"How many vowels are the two words combined?|Type your response below and then press Enter.",Study/JOL,"Study Phase",5907,,,5393,5393,,,,3,1
w10039021,cem4e8e9hp,Nick_Dissertation_EX1b,1,36,2020-04-20T02:35:48-07:00,36.608335971832,2,versionA_stim.csv,VC_VersionB.csv,"Version B","Version B",MAZE,ELECTION,Study2,U,159,107,VC,User,-,"How many vowels are the two words combined?|Type your response below and then press Enter.",Study/JOL,"Study Phase",36387,,,35894,35894,,,,6,1
w10039021,cem4e8e9hp,Nick_Dissertation_EX1b,1,37,2020-04-20T02:35:52-07:00,3.8505129814148,2,versionA_stim.csv,VC_VersionB.csv,"Version B","Version B",MOAT,CLEAR,Study2,U,169,138,VC,User,-,"How many vowels are the two words combined?|Type your response below and then press Enter.",Study/JOL,"Study Phase",3629,,,3088,3088,,,,4,1
w10039021,cem4e8e9hp,Nick_Dissertation_EX1b,1,38,2020-04-20T02:38:08-07:00,135.89733505249,2,versionA_stim.csv,VC_VersionB.csv,"Version B","Version B",GONE,AWAY,Study2,S,142,143,VC,User,-,"How many vowels are the two words combined?|Type your response below and then press Enter.",Study/JOL,"Study Phase",135584,,,134632,134632,,,,4,0.988
w10039021,cem4e8e9hp,Nick_Dissertation_EX1b,1,39,2020-04-20T02:38:11-07:00,3.6478869915009,2,versionA_stim.csv,VC_VersionB.csv,"Version B","Version B",SCALP,HEAD,Study2,F,105,141,VC,User,-,"How many vowels are the two words combined?|Type your response below and then press Enter.",Study/JOL,"Study Phase",3383,,,2901,2901,,,,3,1
w10039021,cem4e8e9hp,Nick_Dissertation_EX1b,1,40,2020-04-20T02:38:20-07:00,8.2845530509949,2,versionA_stim.csv,VC_VersionB.csv,"Version B","Version B",FEUD,FIGHT,Study2,F,113,106,VC,User,-,"How many vowels are the two words combined?|Type your response below and then press Enter.",Study/JOL,"Study Phase",8069,,,3132,7620,,,,3,1
w10039021,cem4e8e9hp,Nick_Dissertation_EX1b,1,41,2020-04-20T02:38:30-07:00,10.062789916992,2,versionA_stim.csv,VC_VersionB.csv,"Version B","Version B",RIGHTS,EQUAL,Study2,S,137,114,VC,User,-,"How many vowels are the two words combined?|Type your response below and then press Enter.",Study/JOL,"Study Phase",9839,,,9416,9416,,,,4,1
w10039021,cem4e8e9hp,Nick_Dissertation_EX1b,1,42,2020-04-20T02:38:33-07:00,3.6467020511627,2,versionA_stim.csv,VC_VersionB.csv,"Version B","Version B",CANDLE,WAX,Study2,S,139,156,VC,User,-,"How many vowels are the two words combined?|Type your response below and then press Enter.",Study/JOL,"Study Phase",3424,,,2997,2997,,,,3,1
w10039021,cem4e8e9hp,Nick_Dissertation_EX1b,1,43,2020-04-20T02:38:38-07:00,4.4798860549927,2,versionA_stim.csv,VC_VersionB.csv,"Version B","Version B",LOAN,SIGN,Study2,U,171,162,VC,User,-,"How many vowels are the two words combined?|Type your response below and then press Enter.",Study/JOL,"Study Phase",4225,,,2762,2762,,,,3,1
w10039021,cem4e8e9hp,Nick_Dissertation_EX1b,1,44,2020-04-20T02:38:47-07:00,9.076103925705,2,versionA_stim.csv,VC_VersionB.csv,"Version B","Version B",SHOELACE,TIE,Study2,F,99,123,VC,User,-,"How many vowels are the two words combined?|Type your response below and then press Enter.",Study/JOL,"Study Phase",8841,,,8339,8339,,,,6,1
w10039021,cem4e8e9hp,Nick_Dissertation_EX1b,1,45,2020-04-20T02:38:51-07:00,4.061900138855,2,versionA_stim.csv,VC_VersionB.csv,"Version B","Version B",KEYS,JOKE,Study2,U,165,147,VC,User,-,"How many vowels are the two words combined?|Type your response below and then press Enter.",Study/JOL,"Study Phase",3811,,,3183,3183,,,,3,1
w10039021,cem4e8e9hp,Nick_Dissertation_EX1b,1,46,2020-04-20T02:38:55-07:00,3.8141939640045,2,versionA_stim.csv,VC_VersionB.csv,"Version B","Version B",CHOP,CUT,Study2,F,107,173,VC,User,-,"How many vowels are the two words combined?|Type your response below and then press Enter.",Study/JOL,"Study Phase",3587,,,3135,3135,,,,2,1
w10039021,cem4e8e9hp,Nick_Dissertation_EX1b,1,47,2020-04-20T02:39:00-07:00,5.2593719959259,2,versionA_stim.csv,VC_VersionB.csv,"Version B","Version B",VEHICLE,CHARM,Study2,U,160,101,VC,User,-,"How many vowels are the two words combined?|Type your response below and then press Enter.",Study/JOL,"Study Phase",5034,,,4637,4637,,,,4,1
w10039021,cem4e8e9hp,Nick_Dissertation_EX1b,1,48,2020-04-20T02:39:04-07:00,4.2484068870544,2,versionA_stim.csv,VC_VersionB.csv,"Version B","Version B",CHILL,COLD,Study2,F,114,133,VC,User,-,"How many vowels are the two words combined?|Type your response below and then press Enter.",Study/JOL,"Study Phase",4013,,,2991,2992,,,,2,1
w10039021,cem4e8e9hp,Nick_Dissertation_EX1b,1,49,2020-04-20T02:39:13-07:00,8.279727935791,2,versionA_stim.csv,VC_VersionB.csv,"Version B","Version B",GLASS,BREAKABLE,Study2,B,127,98,VC,User,-,"How many vowels are the two words combined?|Type your response below and then press Enter.",Study/JOL,"Study Phase",8045,,,7617,7617,,,,5,1
w10039021,cem4e8e9hp,Nick_Dissertation_EX1b,1,50,2020-04-20T02:39:16-07:00,3.379487991333,2,versionA_stim.csv,VC_VersionB.csv,"Version B","Version B",DRY,WET,Study2,S,146,152,VC,User,-,"How many vowels are the two words combined?|Type your response below and then press Enter.",Study/JOL,"Study Phase",3128,,,2532,2532,,,,1,1
w10039021,cem4e8e9hp,Nick_Dissertation_EX1b,1,51,2020-04-20T02:39:26-07:00,9.5246481895447,2,versionA_stim.csv,VC_VersionB.csv,"Version B","Version B",EXTENSION,LONG,Study2,F,96,115,VC,User,-,"How many vowels are the two words combined?|Type your response below and then press Enter.",Study/JOL,"Study Phase",9260,,,8842,8842,,,,5,1
w10039021,cem4e8e9hp,Nick_Dissertation_EX1b,1,52,2020-04-20T02:39:31-07:00,4.9553508758545,2,versionA_stim.csv,VC_VersionB.csv,"Version B","Version B",MULE,DONKEY,Study2,F,108,110,VC,User,-,"How many vowels are the two words combined?|Type your response below and then press Enter.",Study/JOL,"Study Phase",4715,,,4070,4070,,,,4,1
w10039021,cem4e8e9hp,Nick_Dissertation_EX1b,1,53,2020-04-20T02:39:37-07:00,6.1789200305939,2,versionA_stim.csv,VC_VersionB.csv,"Version B","Version B",TANTRUM,TEMPER,Study2,S,154,136,VC,User,-,"How many vowels are the two words combined?|Type your response below and then press Enter.",Study/JOL,"Study Phase",5948,,,5553,5553,,,,4,1
w10039021,cem4e8e9hp,Nick_Dissertation_EX1b,1,54,2020-04-20T02:39:41-07:00,4.0404078960419,2,versionA_stim.csv,VC_VersionB.csv,"Version B","Version B",NAME,HATE,Study2,U,167,151,VC,User,-,"How many vowels are the two words combined?|Type your response below and then press Enter.",Study/JOL,"Study Phase",3813,,,3287,3287,,,,4,1
w10039021,cem4e8e9hp,Nick_Dissertation_EX1b,1,55,2020-04-20T02:39:45-07:00,4.4684481620789,2,versionA_stim.csv,VC_VersionB.csv,"Version B","Version B",BEST,FAVORITE,Study2,B,125,103,VC,User,-,"How many vowels are the two words combined?|Type your response below and then press Enter.",Study/JOL,"Study Phase",4236,,,3888,3888,,,,5,1
w10039021,cem4e8e9hp,Nick_Dissertation_EX1b,1,56,2020-04-20T02:39:51-07:00,5.8735039234161,2,versionA_stim.csv,VC_VersionB.csv,"Version B","Version B",EARTH,GROUND,Study2,S,144,120,VC,User,-,"How many vowels are the two words combined?|Type your response below and then press Enter.",Study/JOL,"Study Phase",5606,,,4948,4948,,,,4,1
w10039021,cem4e8e9hp,Nick_Dissertation_EX1b,1,57,2020-04-20T02:40:04-07:00,12.61807513237,2,versionA_stim.csv,VC_VersionB.csv,"Version B","Version B",ADJOURN,END,Study2,F,101,172,VC,User,-,"How many vowels are the two words combined?|Type your response below and then press Enter.",Study/JOL,"Study Phase",12246,,,11451,11451,,,,4,1
w10039021,cem4e8e9hp,Nick_Dissertation_EX1b,1,58,2020-04-20T02:40:08-07:00,4.5408248901367,2,versionA_stim.csv,VC_VersionB.csv,"Version B","Version B",SUN,TAN,Study2,S,155,160,VC,User,-,"How many vowels are the two words combined?|Type your response below and then press Enter.",Study/JOL,"Study Phase",4309,,,2473,3766,,,,2,1
w10039021,cem4e8e9hp,Nick_Dissertation_EX1b,1,59,2020-04-20T02:40:13-07:00,4.3046870231628,2,versionA_stim.csv,VC_VersionB.csv,"Version B","Version B",FLEA,TICK,Study2,S,151,102,VC,User,-,"How many vowels are the two words combined?|Type your response below and then press Enter.",Study/JOL,"Study Phase",4077,,,3612,3612,,,,3,1
w10039021,cem4e8e9hp,Nick_Dissertation_EX1b,1,60,2020-04-20T02:40:19-07:00,6.2456090450287,2,versionA_stim.csv,VC_VersionB.csv,"Version B","Version B",TURN,FLIP,Study2,B,116,168,VC,User,-,"How many vowels are the two words combined?|Type your response below and then press Enter.",Study/JOL,"Study Phase",6009,,,5542,5542,,,,2,1
w10039021,cem4e8e9hp,Nick_Dissertation_EX1b,1,61,2020-04-20T02:40:25-07:00,6.1054890155792,2,versionA_stim.csv,VC_VersionB.csv,"Version B","Version B",CACTUS,PLANT,Study2,F,98,130,VC,User,-,"How many vowels are the two words combined?|Type your response below and then press Enter.",Study/JOL,"Study Phase",5856,,,5474,5474,,,,3,1
w10039021,cem4e8e9hp,Nick_Dissertation_EX1b,1,62,2020-04-20T02:40:29-07:00,3.6937308311462,2,versionA_stim.csv,VC_VersionB.csv,"Version B","Version B",FISH,SARDINE,Study2,B,130,142,VC,User,-,"How many vowels are the two words combined?|Type your response below and then press Enter.",Study/JOL,"Study Phase",3461,,,3020,3020,,,,4,1
w10039021,cem4e8e9hp,Nick_Dissertation_EX1b,1,63,2020-04-20T02:40:35-07:00,5.9693009853363,2,versionA_stim.csv,VC_VersionB.csv,"Version B","Version B",FRUIT,STRAWBERRY,Study2,B,124,145,VC,User,-,"How many vowels are the two words combined?|Type your response below and then press Enter.",Study/JOL,"Study Phase",5712,,,5236,5236,,,,4,1
w10039021,cem4e8e9hp,Nick_Dissertation_EX1b,1,64,2020-04-20T02:40:47-07:00,12.53271818161,2,versionA_stim.csv,VC_VersionB.csv,"Version B","Version B",LEASE,TOIL,Study2,U,170,150,VC,User,-,"How many vowels are the two words combined?|Type your response below and then press Enter.",Study/JOL,"Study Phase",12302,,,11933,11933,,,,5,1
w10039021,cem4e8e9hp,Nick_Dissertation_EX1b,1,65,2020-04-20T02:41:05-07:00,18.292270898819,2,versionA_stim.csv,VC_VersionB.csv,"Version B","Version B",SAFETY,SEATBELT,Study2,S,147,111,VC,User,-,"How many vowels are the two words combined?|Type your response below and then press Enter.",Study/JOL,"Study Phase",18071,,,17699,17699,,,,5,1
w10039021,cem4e8e9hp,Nick_Dissertation_EX1b,1,66,2020-04-20T02:41:14-07:00,8.1895749568939,2,versionA_stim.csv,VC_VersionB.csv,"Version B","Version B",ROD,REEL,Study2,S,150,155,VC,User,-,"How many vowels are the two words combined?|Type your response below and then press Enter.",Study/JOL,"Study Phase",7945,,,7515,7516,,,,3,1
w10039021,cem4e8e9hp,Nick_Dissertation_EX1b,1,67,2020-04-20T02:41:18-07:00,4.3320021629333,2,versionA_stim.csv,VC_VersionB.csv,"Version B","Version B",MAIN,SCAR,Study2,U,175,122,VC,User,-,"How many vowels are the two words combined?|Type your response below and then press Enter.",Study/JOL,"Study Phase",4104,,,2844,2844,,,,3,1
w10039021,cem4e8e9hp,Nick_Dissertation_EX1b,1,68,2020-04-20T02:41:27-07:00,9.174556016922,2,versionA_stim.csv,VC_VersionB.csv,"Version B","Version B",JUSTICE,MAROON,Study2,U,156,118,VC,User,-,"How many vowels are the two words combined?|Type your response below and then press Enter.",Study/JOL,"Study Phase",8938,,,8542,8542,,,,6,1
w10039021,cem4e8e9hp,Nick_Dissertation_EX1b,1,69,2020-04-20T02:41:31-07:00,4.3014760017395,2,versionA_stim.csv,VC_VersionB.csv,"Version B","Version B",MONEY,BANKER,Study2,B,132,112,VC,User,-,"How many vowels are the two words combined?|Type your response below and then press Enter.",Study/JOL,"Study Phase",4077,,,3675,3676,,,,4,1
w10039021,cem4e8e9hp,Nick_Dissertation_EX1b,1,70,2020-04-20T02:41:35-07:00,4.0899620056152,2,versionA_stim.csv,VC_VersionB.csv,"Version B","Version B",DINE,EAT,Study2,F,111,175,VC,User,-,"How many vowels are the two words combined?|Type your response below and then press Enter.",Study/JOL,"Study Phase",3866,,,3183,3183,,,,4,1
w10039021,cem4e8e9hp,Nick_Dissertation_EX1b,1,71,2020-04-20T02:41:40-07:00,4.8982439041138,2,versionA_stim.csv,VC_VersionB.csv,"Version B","Version B",HONEST,TRUTHFUL,Study2,B,133,161,VC,User,-,"How many vowels are the two words combined?|Type your response below and then press Enter.",Study/JOL,"Study Phase",4664,,,4297,4298,,,,4,1
w10039021,cem4e8e9hp,Nick_Dissertation_EX1b,1,72,2020-04-20T02:41:45-07:00,4.439239025116,2,versionA_stim.csv,VC_VersionB.csv,"Version B","Version B",CRACKLE,ABLE,Study2,U,162,164,VC,User,-,"How many vowels are the two words combined?|Type your response below and then press Enter.",Study/JOL,"Study Phase",4211,,,3865,3865,,,,4,1
w10039021,cem4e8e9hp,Nick_Dissertation_EX1b,1,73,2020-04-20T02:41:58-07:00,13.227284908295,2,versionA_stim.csv,VC_VersionB.csv,"Version B","Version B",TEMPERATURE,Morning,Study2,U,173,135,VC,User,-,"How many vowels are the two words combined?|Type your response below and then press Enter.",Study/JOL,"Study Phase",12995,,,12638,12638,,,,7,1
w10039021,cem4e8e9hp,Nick_Dissertation_EX1b,1,74,2020-04-20T02:42:03-07:00,4.8385181427002,2,versionA_stim.csv,VC_VersionB.csv,"Version B","Version B",MASON,JAR,Study2,S,138,113,VC,User,-,"How many vowels are the two words combined?|Type your response below and then press Enter.",Study/JOL,"Study Phase",4615,,,3998,3998,,,,3,1
w10039021,cem4e8e9hp,Nick_Dissertation_EX1b,1,75,2020-04-20T02:42:08-07:00,5.257875919342,2,versionA_stim.csv,VC_VersionB.csv,"Version B","Version B",STAR,ACTRESS,Study2,B,120,169,VC,User,-,"How many vowels are the two words combined?|Type your response below and then press Enter.",Study/JOL,"Study Phase",5025,,,4538,4539,,,,3,1
w10039021,cem4e8e9hp,Nick_Dissertation_EX1b,1,76,2020-04-20T02:42:15-07:00,6.8438830375671,2,versionA_stim.csv,VC_VersionB.csv,"Version B","Version B",CAR,WINDSHIELD,Study2,B,117,159,VC,User,-,"How many vowels are the two words combined?|Type your response below and then press Enter.",Study/JOL,"Study Phase",6596,,,5794,5794,,,,4,1
w10039021,cem4e8e9hp,Nick_Dissertation_EX1b,1,77,2020-04-20T02:42:33-07:00,18.444144010544,2,versionA_stim.csv,VC_VersionB.csv,"Version B","Version B",STRETCH,CLOTH,Study2,U,157,146,VC,User,-,"How many vowels are the two words combined?|Type your response below and then press Enter.",Study/JOL,"Study Phase",18202,,,17737,17737,,,,2,1
w10039021,cem4e8e9hp,Nick_Dissertation_EX1b,1,78,2020-04-20T02:42:37-07:00,3.9498319625854,2,versionA_stim.csv,VC_VersionB.csv,"Version B","Version B",POP,BALLOON,Study2,B,123,149,VC,User,-,"How many vowels are the two words combined?|Type your response below and then press Enter.",Study/JOL,"Study Phase",3716,,,3356,3356,,,,4,1
w10039021,cem4e8e9hp,Nick_Dissertation_EX1b,1,79,2020-04-20T02:42:41-07:00,3.5909988880157,2,versionA_stim.csv,VC_VersionB.csv,"Version B","Version B",BOTH,OUNCE,Study2,U,172,131,VC,User,-,"How many vowels are the two words combined?|Type your response below and then press Enter.",Study/JOL,"Study Phase",3359,,,3010,3010,,,,4,1
w10039021,cem4e8e9hp,Nick_Dissertation_EX1b,1,80,2020-04-20T02:42:44-07:00,2.9969530105591,2,versionA_stim.csv,VC_VersionB.csv,"Version B","Version B",SLEEP,NAP,Study2,B,134,148,VC,User,-,"How many vowels are the two words combined?|Type your response below and then press Enter.",Study/JOL,"Study Phase",2771,,,2416,2416,,,,3,1
w10039021,cem4e8e9hp,Nick_Dissertation_EX1b,1,81,2020-04-20T02:42:49-07:00,4.6871371269226,2,versionA_stim.csv,VC_VersionB.csv,"Version B","Version B",BAD,VILLAIN,Study2,B,118,171,VC,User,-,"How many vowels are the two words combined?|Type your response below and then press Enter.",Study/JOL,"Study Phase",4455,,,4167,4167,,,,4,1
w10039021,cem4e8e9hp,Nick_Dissertation_EX1b,1,82,2020-04-20T02:42:54-07:00,5.444179058075,2,versionA_stim.csv,VC_VersionB.csv,"Version B","Version B",DOCUMENT,PAPER,Study2,F,109,140,VC,User,-,"How many vowels are the two words combined?|Type your response below and then press Enter.",Study/JOL,"Study Phase",5170,,,4822,4822,,,,5,1
w10039021,cem4e8e9hp,Nick_Dissertation_EX1b,1,83,2020-04-20T02:42:58-07:00,3.4461069107056,2,versionA_stim.csv,VC_VersionB.csv,"Version B","Version B",TRUTH,LIE,Study2,S,148,109,VC,User,-,"How many vowels are the two words combined?|Type your response below and then press Enter.",Study/JOL,"Study Phase",3214,,,2501,2501,,,,2,1
w10039021,cem4e8e9hp,Nick_Dissertation_EX1b,1,84,2020-04-20T02:43:01-07:00,3.2196950912476,2,versionA_stim.csv,VC_VersionB.csv,"Version B","Version B",GIVE,STEAK,Study2,U,158,128,VC,User,-,"How many vowels are the two words combined?|Type your response below and then press Enter.",Study/JOL,"Study Phase",2996,,,2569,2569,,,,3,1
w10039021,cem4e8e9hp,Nick_Dissertation_EX1b,1,85,2020-04-20T02:43:06-07:00,5.5755128860474,2,versionA_stim.csv,VC_VersionB.csv,"Version B","Version B",ELEMENT,CARBON,Study2,S,141,165,VC,User,-,"How many vowels are the two words combined?|Type your response below and then press Enter.",Study/JOL,"Study Phase",5348,,,4989,4990,,,,5,1
w10039021,cem4e8e9hp,Nick_Dissertation_EX1b,1,86,2020-04-20T02:43:10-07:00,3.9300870895386,2,versionA_stim.csv,VC_VersionB.csv,"Version B","Version B",LOUD,NOISE,Study2,S,152,125,VC,User,-,"How many vowels are the two words combined?|Type your response below and then press Enter.",Study/JOL,"Study Phase",3704,,,3353,3353,,,,5,1
w10039021,cem4e8e9hp,Nick_Dissertation_EX1b,1,87,2020-04-20T02:43:14-07:00,3.4016439914703,2,versionA_stim.csv,VC_VersionB.csv,"Version B","Version B",FUZZY,BANG,Study2,U,168,127,VC,User,-,"How many vowels are the two words combined?|Type your response below and then press Enter.",Study/JOL,"Study Phase",3165,,,2791,2791,,,,2,1
w10039021,cem4e8e9hp,Nick_Dissertation_EX1b,1,88,2020-04-20T02:43:17-07:00,3.2347550392151,2,versionA_stim.csv,VC_VersionB.csv,"Version B","Version B",FIGHT,BRAWL,Study2,B,135,124,VC,User,-,"How many vowels are the two words combined?|Type your response below and then press Enter.",Study/JOL,"Study Phase",2999,,,2567,2568,,,,2,1
w10039021,cem4e8e9hp,Nick_Dissertation_EX1b,1,89,2020-04-20T02:43:21-07:00,3.9476428031921,2,versionA_stim.csv,VC_VersionB.csv,"Version B","Version B",CAT,PANTHER,Study2,B,126,108,VC,User,-,"How many vowels are the two words combined?|Type your response below and then press Enter.",Study/JOL,"Study Phase",3697,,,2883,2884,,,,3,1
w10039021,cem4e8e9hp,Nick_Dissertation_EX1b,1,90,2020-04-20T02:43:24-07:00,3.4392590522766,2,versionA_stim.csv,VC_VersionB.csv,"Version B","Version B",MONTH,YEAR,BUFFER4,Buffer,177,179,VC,User,-,"How many vowels are the two words combined?|Type your response below and then press Enter.",Study/JOL,BUFFER2,3176,,,2736,2736,,,,3,1
w10039021,cem4e8e9hp,Nick_Dissertation_EX1b,1,91,2020-04-20T02:43:27-07:00,3.0394759178162,2,versionA_stim.csv,VC_VersionB.csv,"Version B","Version B",SPRING,MARCH,BUFFER4,Buffer,179,180,VC,User,-,"How many vowels are the two words combined?|Type your response below and then press Enter.",Study/JOL,BUFFER2,2817,,,2423,2423,,,,2,1
w10039021,cem4e8e9hp,Nick_Dissertation_EX1b,1,92,2020-04-20T02:43:31-07:00,3.5125260353088,2,versionA_stim.csv,VC_VersionB.csv,"Version B","Version B",DAYS,WEAKS,BUFFER4,Buffer,176,181,VC,User,-,"How many vowels are the two words combined?|Type your response below and then press Enter.",Study/JOL,BUFFER2,3283,,,2575,2576,,,,3,1
w10039021,cem4e8e9hp,Nick_Dissertation_EX1b,1,93,2020-04-20T02:43:34-07:00,3.4095630645752,2,versionA_stim.csv,VC_VersionB.csv,"Version B","Version B",TOOL,SHED,BUFFER4,Buffer,178,178,VC,User,-,"How many vowels are the two words combined?|Type your response below and then press Enter.",Study/JOL,BUFFER2,3187,,,2733,2733,,,,3,1
w10039021,cem4e8e9hp,Nick_Dissertation_EX1b,1,94,2020-04-20T02:43:40-07:00,5.7790269851685,2,versionA_stim.csv,VC_VersionB.csv,"Version B","Version B",OCTOBER,SPOOKY,BUFFER4,Buffer,180,177,VC,User,-,"How many vowels are the two words combined?|Type your response below and then press Enter.",Study/JOL,BUFFER2,5560,,,4294,4294,,,,5,1
w10039021,cem4e8e9hp,Nick_Dissertation_EX1b,1,95,2020-04-20T02:43:46-07:00,5.5960700511932,2,versionA_stim.csv,VC_VersionB.csv,"Version B","Version B",,,,,,0,Instruct,User,-,"You have completed this section. Please press Enter.",Filler_Instruction,Instruct2,5282,,,-1,-1,,,,,1
w10039021,cem4e8e9hp,Nick_Dissertation_EX1b,1,96,2020-04-20T02:45:46-07:00,120.34492588043,2,versionA_stim.csv,VC_VersionB.csv,"Version B","Version B",,,,,,0,FreeRecall,120,120,"Please list the 50 US states in alphabetical order. The task will automatically advance to the next screen after two minutes.",,Filler1,120002,"Alabama - Montgomery 50 States and Capitals 1 States and capitals alphabetized by capital Alaska - Juneau Arizona - Phoenix Arkansas - Little Rock California - Sacramento Colorado - Denver Connecticut - Hartford Delaware - Dover Florida - Tallahassee Georgia - Atlanta Hawaii - Honolulu Idaho - Boise Illinois - Springfield Indiana - Indianapolis Iowa - Des Moines Kansas - Topeka Kentucky - Frankfort Louisiana - Baton Rouge Maine - Augusta Maryland - Annapolis Massachusetts - Boston Michigan - Lansing Minnesota - St. Paul Mississippi - Jackson Missouri - Jefferson City Montana - Helena Nebraska - Lincoln Nevada - Carson City New Hampshire New Jersey New Mexico New York North Carolina North Dakota Ohio Oklahoma Oregon Pennsylvania Rhode Island South Carolina South Dakota Tennessee Texas Utah Vermont Virginia Washington West Virginia Wisconsin Wyoming ",0,62695,62696,0,0,,,0.966
w10039021,cem4e8e9hp,Nick_Dissertation_EX1b,1,97,2020-04-20T02:45:59-07:00,12.779484033585,2,versionA_stim.csv,VC_VersionB.csv,"Version B","Version B",,,,,,0,Instruct,-,10,"You will now be presented with the first word from each of the previously studied item pairs. Please type the missing word. If you do not know the word, you may guess or press Enter to skip forward to the next pair.",,Instruct3,12515,,,-1,-1,,,,,1
w10039021,cem4e8e9hp,Nick_Dissertation_EX1b,1,98,2020-04-20T02:46:06-07:00,7.102019071579,2,versionA_stim.csv,VC_VersionB.csv,"Version B","Version B",LEASE,TOIL,Study2,U,170,150,Test,User,-,,Recall,Recall1,6784,List,25,4962,5411,0,0,,,1
w10039021,cem4e8e9hp,Nick_Dissertation_EX1b,1,99,2020-04-20T02:46:09-07:00,3.4077870845795,2,versionA_stim.csv,VC_VersionB.csv,"Version B","Version B",LOUD,NOISE,Study2,S,152,125,Test,User,-,,Recall,Recall1,3166,Noise,100,1871,3013,1,1,,,1
w10039021,cem4e8e9hp,Nick_Dissertation_EX1b,1,100,2020-04-20T02:46:12-07:00,2.2756669521332,2,versionA_stim.csv,VC_VersionB.csv,"Version B","Version B",CRACKLE,ABLE,Study2,U,162,164,Test,User,-,,Recall,Recall1,2038,Pop,0,1348,1685,0,0,,,1
w10039021,cem4e8e9hp,Nick_Dissertation_EX1b,1,101,2020-04-20T02:46:15-07:00,3.6711859703064,2,versionA_stim.csv,VC_VersionB.csv,"Version B","Version B",MAIN,SCAR,Study2,U,175,122,Test,User,-,,Recall,Recall1,3441,Dish,25,2810,3241,0,0,,,1
w10039021,cem4e8e9hp,Nick_Dissertation_EX1b,1,102,2020-04-20T02:46:20-07:00,4.4417099952698,2,versionA_stim.csv,VC_VersionB.csv,"Version B","Version B",SHOELACE,TIE,Study2,F,99,123,Test,User,-,,Recall,Recall1,4177,Shoestring,15.384615384615,1565,4027,0,0,,,1
w10039021,cem4e8e9hp,Nick_Dissertation_EX1b,1,103,2020-04-20T02:46:25-07:00,5.7853178977966,2,versionA_stim.csv,VC_VersionB.csv,"Version B","Version B",FISH,SARDINE,Study2,B,130,142,Test,User,-,,Recall,Recall1,5455,shrimp,46.153846153846,4151,5083,0,0,,,1
w10039021,cem4e8e9hp,Nick_Dissertation_EX1b,1,104,2020-04-20T02:46:29-07:00,3.7365701198578,2,versionA_stim.csv,VC_VersionB.csv,"Version B","Version B",FUZZY,BANG,Study2,U,168,127,Test,User,-,,Recall,Recall1,3495,rough,22.222222222222,2074,3311,0,0,,,1
w10039021,cem4e8e9hp,Nick_Dissertation_EX1b,1,105,2020-04-20T02:46:35-07:00,6.3226358890533,2,versionA_stim.csv,VC_VersionB.csv,"Version B","Version B",PHONE,COMMUNICATION,Study2,S,149,170,Test,User,-,,Recall,Recall1,6077,Charger,20,5026,5948,0,0,,,1
w10039021,cem4e8e9hp,Nick_Dissertation_EX1b,1,106,2020-04-20T02:46:44-07:00,8.63702917099,2,versionA_stim.csv,VC_VersionB.csv,"Version B","Version B",FIGHT,BRAWL,Study2,B,135,124,Test,User,-,,Recall,Recall1,8409,hug,0,1460,8097,0,0,,,1
w10039021,cem4e8e9hp,Nick_Dissertation_EX1b,1,107,2020-04-20T02:46:46-07:00,1.9150989055634,2,versionA_stim.csv,VC_VersionB.csv,"Version B","Version B",TRUTH,LIE,Study2,S,148,109,Test,User,-,,Recall,Recall1,1688,Lie,100,1240,1504,1,1,,,1
w10039021,cem4e8e9hp,Nick_Dissertation_EX1b,1,108,2020-04-20T02:46:49-07:00,2.8458030223846,2,versionA_stim.csv,VC_VersionB.csv,"Version B","Version B",THREAD,THIMBLE,Study2,B,121,104,Test,User,-,,Recall,Recall1,2612,Needle,30.769230769231,1582,2377,0,0,,,1
w10039021,cem4e8e9hp,Nick_Dissertation_EX1b,1,109,2020-04-20T02:46:51-07:00,2.328381061554,2,versionA_stim.csv,VC_VersionB.csv,"Version B","Version B",RAZOR,SHAVE,Study2,S,136,116,Test,User,-,,Recall,Recall1,2072,Shave,100,1352,1907,1,1,,,1
w10039021,cem4e8e9hp,Nick_Dissertation_EX1b,1,110,2020-04-20T02:46:53-07:00,2.23446393013,2,versionA_stim.csv,VC_VersionB.csv,"Version B","Version B",MOAT,CLEAR,Study2,U,169,138,Test,User,-,,Recall,Recall1,2011,,0,-1,-1,0,0,,,1
w10039021,cem4e8e9hp,Nick_Dissertation_EX1b,1,111,2020-04-20T02:46:58-07:00,5.0474610328674,2,versionA_stim.csv,VC_VersionB.csv,"Version B","Version B",CAKE,CLOTHES,Study2,U,166,129,Test,User,-,,Recall,Recall1,4811,Icecream,26.666666666667,3099,4585,0,0,,,1
w10039021,cem4e8e9hp,Nick_Dissertation_EX1b,1,112,2020-04-20T02:47:03-07:00,4.5060749053955,2,versionA_stim.csv,VC_VersionB.csv,"Version B","Version B",Shell,SHAKE,Study2,U,163,176,Test,User,-,,Recall,Recall1,4274,snail,40,1983,4040,0,0,,,1
w10039021,cem4e8e9hp,Nick_Dissertation_EX1b,1,113,2020-04-20T02:47:07-07:00,3.7928709983826,2,versionA_stim.csv,VC_VersionB.csv,"Version B","Version B",KEYS,JOKE,Study2,U,165,147,Test,User,-,,Recall,Recall1,3557,piano,22.222222222222,2017,3310,0,0,,,1
w10039021,cem4e8e9hp,Nick_Dissertation_EX1b,1,114,2020-04-20T02:47:11-07:00,3.8323531150818,2,versionA_stim.csv,VC_VersionB.csv,"Version B","Version B",BOTH,OUNCE,Study2,U,172,131,Test,User,-,,Recall,Recall1,3594,together,30.769230769231,1733,3279,0,0,,,1
w10039021,cem4e8e9hp,Nick_Dissertation_EX1b,1,115,2020-04-20T02:47:14-07:00,2.8986430168152,2,versionA_stim.csv,VC_VersionB.csv,"Version B","Version B",CHOP,CUT,Study2,F,107,173,Test,User,-,,Recall,Recall1,2653,cut,100,2148,2442,1,1,,,1
w10039021,cem4e8e9hp,Nick_Dissertation_EX1b,1,116,2020-04-20T02:47:17-07:00,3.0323920249939,2,versionA_stim.csv,VC_VersionB.csv,"Version B","Version B",CANDLE,WAX,Study2,S,139,156,Test,User,-,,Recall,Recall1,2788,blow,28.571428571429,2113,2639,0,0,,,1
w10039021,cem4e8e9hp,Nick_Dissertation_EX1b,1,117,2020-04-20T02:47:58-07:00,41.80726480484,2,versionA_stim.csv,VC_VersionB.csv,"Version B","Version B",DETECTIVE,MYSTERY,Study2,F,100,167,Test,User,-,,Recall,Recall1,41574,investigation,20,34922,41453,0,0,,,1
w10039021,cem4e8e9hp,Nick_Dissertation_EX1b,1,118,2020-04-20T02:48:02-07:00,3.5700631141663,2,versionA_stim.csv,VC_VersionB.csv,"Version B","Version B",WRIST,BRACELET,Study2,S,140,158,Test,User,-,,Recall,Recall1,3266,watch,30.769230769231,2353,2994,0,0,,,1
w10039021,cem4e8e9hp,Nick_Dissertation_EX1b,1,119,2020-04-20T02:48:05-07:00,3.0253479480743,2,versionA_stim.csv,VC_VersionB.csv,"Version B","Version B",STRETCH,CLOTH,Study2,U,157,146,Test,User,-,,Recall,Recall1,2790,bend,0,2263,2615,0,0,,,1
w10039021,cem4e8e9hp,Nick_Dissertation_EX1b,1,120,2020-04-20T02:48:12-07:00,6.8808870315552,2,versionA_stim.csv,VC_VersionB.csv,"Version B","Version B",CAR,WINDSHIELD,Study2,B,117,159,Test,User,-,,Recall,Recall1,6652,truck,0,4763,6323,0,0,,,1
w10039021,cem4e8e9hp,Nick_Dissertation_EX1b,1,121,2020-04-20T02:48:27-07:00,15.38565993309,2,versionA_stim.csv,VC_VersionB.csv,"Version B","Version B",SLEEP,NAP,Study2,B,134,148,Test,User,-,,Recall,Recall1,15157,awake,25,13849,14944,0,0,,,1
w10039021,cem4e8e9hp,Nick_Dissertation_EX1b,1,122,2020-04-20T02:48:29-07:00,1.9973111152649,2,versionA_stim.csv,VC_VersionB.csv,"Version B","Version B",EARTH,GROUND,Study2,S,144,120,Test,User,-,,Recall,Recall1,1757,sun,44.444444444444,1315,1617,0,0,,,1
w10039021,cem4e8e9hp,Nick_Dissertation_EX1b,1,123,2020-04-20T02:48:34-07:00,4.5783460140228,2,versionA_stim.csv,VC_VersionB.csv,"Version B","Version B",SHEARS,SCISSORS,Study2,F,112,126,Test,User,-,,Recall,Recall1,4340,blinds,28.571428571429,2987,4159,0,0,,,1
w10039021,cem4e8e9hp,Nick_Dissertation_EX1b,1,124,2020-04-20T02:48:37-07:00,3.1910839080811,2,versionA_stim.csv,VC_VersionB.csv,"Version B","Version B",TURN,FLIP,Study2,B,116,168,Test,User,-,,Recall,Recall1,2950,around,0,1581,2582,0,0,,,1
w10039021,cem4e8e9hp,Nick_Dissertation_EX1b,1,125,2020-04-20T02:48:39-07:00,1.6474380493164,2,versionA_stim.csv,VC_VersionB.csv,"Version B","Version B",INCENSE,SMELL,Study2,F,110,119,Test,User,-,,Recall,Recall1,1408,,0,-1,-1,0,0,,,1
w10039021,cem4e8e9hp,Nick_Dissertation_EX1b,1,126,2020-04-20T02:48:41-07:00,2.7920429706573,2,versionA_stim.csv,VC_VersionB.csv,"Version B","Version B",TANTRUM,TEMPER,Study2,S,154,136,Test,User,-,,Recall,Recall1,2560,cry,22.222222222222,1975,2364,0,0,,,1
w10039021,cem4e8e9hp,Nick_Dissertation_EX1b,1,127,2020-04-20T02:48:47-07:00,5.103856086731,2,versionA_stim.csv,VC_VersionB.csv,"Version B","Version B",RIGHTS,EQUAL,Study2,S,137,114,Test,User,-,,Recall,Recall1,4863,civil,20,3393,4613,0,0,,,1
w10039021,cem4e8e9hp,Nick_Dissertation_EX1b,1,128,2020-04-20T02:48:51-07:00,4.2491118907928,2,versionA_stim.csv,VC_VersionB.csv,"Version B","Version B",BEST,FAVORITE,Study2,B,125,103,Test,User,-,,Recall,Recall1,3994,winner,28.571428571429,3141,3836,0,0,,,1
w10039021,cem4e8e9hp,Nick_Dissertation_EX1b,1,129,2020-04-20T02:48:55-07:00,4.1245031356812,2,versionA_stim.csv,VC_VersionB.csv,"Version B","Version B",MAZE,ELECTION,Study2,U,159,107,Test,User,-,,Recall,Recall1,3888,mouse,15.384615384615,3014,3745,0,0,,,1
w10039021,cem4e8e9hp,Nick_Dissertation_EX1b,1,130,2020-04-20T02:49:01-07:00,6.0643517971039,2,versionA_stim.csv,VC_VersionB.csv,"Version B","Version B",SAFETY,SEATBELT,Study2,S,147,111,Test,User,-,,Recall,Recall1,5833,contro,14.285714285714,5042,5620,0,0,,,1
w10039021,cem4e8e9hp,Nick_Dissertation_EX1b,1,131,2020-04-20T02:49:04-07:00,2.5825831890106,2,versionA_stim.csv,VC_VersionB.csv,"Version B","Version B",DEAD,COFFIN,Study2,B,128,154,Test,User,-,,Recall,Recall1,2346,alive,18.181818181818,1599,2207,0,0,,,1
w10039021,cem4e8e9hp,Nick_Dissertation_EX1b,1,132,2020-04-20T02:49:06-07:00,2.5343799591064,2,versionA_stim.csv,VC_VersionB.csv,"Version B","Version B",MONEY,BANKER,Study2,B,132,112,Test,User,-,,Recall,Recall1,2282,heist,18.181818181818,1383,2120,0,0,,,1
w10039021,cem4e8e9hp,Nick_Dissertation_EX1b,1,133,2020-04-20T02:49:09-07:00,2.6511719226837,2,versionA_stim.csv,VC_VersionB.csv,"Version B","Version B",JUSTICE,MAROON,Study2,U,156,118,Test,User,-,,Recall,Recall1,2386,system,16.666666666667,1282,2163,0,0,,,1
w10039021,cem4e8e9hp,Nick_Dissertation_EX1b,1,134,2020-04-20T02:49:13-07:00,4.4499020576477,2,versionA_stim.csv,VC_VersionB.csv,"Version B","Version B",BASEBALL,LEAGUE,Study2,B,131,99,Test,User,-,,Recall,Recall1,4211,basketball,25,1690,3978,0,0,,,1
w10039021,cem4e8e9hp,Nick_Dissertation_EX1b,1,135,2020-04-20T02:49:15-07:00,2.0341749191284,2,versionA_stim.csv,VC_VersionB.csv,"Version B","Version B",SCALP,HEAD,Study2,F,105,141,Test,User,-,,Recall,Recall1,1805,hair,50,1295,1596,0,0,,,1
w10039021,cem4e8e9hp,Nick_Dissertation_EX1b,1,136,2020-04-20T02:49:18-07:00,2.5545060634613,2,versionA_stim.csv,VC_VersionB.csv,"Version B","Version B",TEMPERATURE,Morning,Study2,U,173,135,Test,User,-,,Recall,Recall1,2309,hot,20,1325,2160,0,0,,,1
w10039021,cem4e8e9hp,Nick_Dissertation_EX1b,1,137,2020-04-20T02:49:21-07:00,2.9031629562378,2,versionA_stim.csv,VC_VersionB.csv,"Version B","Version B",GONE,AWAY,Study2,S,142,143,Test,User,-,,Recall,Recall1,2641,here,0,2120,2475,0,0,,,1
w10039021,cem4e8e9hp,Nick_Dissertation_EX1b,1,138,2020-04-20T02:49:23-07:00,2.5248129367828,2,versionA_stim.csv,VC_VersionB.csv,"Version B","Version B",PLANE,AIRCRAFT,Study2,B,129,97,Test,User,-,,Recall,Recall1,2235,fly,18.181818181818,1714,2026,0,0,,,1
w10039021,cem4e8e9hp,Nick_Dissertation_EX1b,1,139,2020-04-20T02:49:26-07:00,2.7640810012817,2,versionA_stim.csv,VC_VersionB.csv,"Version B","Version B",MULE,DONKEY,Study2,F,108,110,Test,User,-,,Recall,Recall1,2533,donkey,100,1394,2214,1,1,,,1
w10039021,cem4e8e9hp,Nick_Dissertation_EX1b,1,140,2020-04-20T02:49:31-07:00,4.6082282066345,2,versionA_stim.csv,VC_VersionB.csv,"Version B","Version B",OWN,HAVE,Study2,S,153,117,Test,User,-,,Recall,Recall1,4363,,0,-1,-1,0,0,,,1
w10039021,cem4e8e9hp,Nick_Dissertation_EX1b,1,141,2020-04-20T02:49:35-07:00,4.6580469608307,2,versionA_stim.csv,VC_VersionB.csv,"Version B","Version B",POP,BALLOON,Study2,B,123,149,Test,User,-,,Recall,Recall1,4415,crackle,28.571428571429,2274,4209,0,0,,,1
w10039021,cem4e8e9hp,Nick_Dissertation_EX1b,1,142,2020-04-20T02:49:40-07:00,5.1393709182739,2,versionA_stim.csv,VC_VersionB.csv,"Version B","Version B",EXTENSION,LONG,Study2,F,96,115,Test,User,-,,Recall,Recall1,4895,ballet,20,4094,4767,0,0,,,1
w10039021,cem4e8e9hp,Nick_Dissertation_EX1b,1,143,2020-04-20T02:49:44-07:00,3.3918418884277,2,versionA_stim.csv,VC_VersionB.csv,"Version B","Version B",CACTUS,PLANT,Study2,F,98,130,Test,User,-,,Recall,Recall1,3146,plant,100,2241,3022,1,1,,,1
w10039021,cem4e8e9hp,Nick_Dissertation_EX1b,1,144,2020-04-20T02:49:47-07:00,3.4485960006714,2,versionA_stim.csv,VC_VersionB.csv,"Version B","Version B",CHERRY,RED,Study2,F,104,174,Test,User,-,,Recall,Recall1,3208,top,0,1376,2101,0,0,,,1
w10039021,cem4e8e9hp,Nick_Dissertation_EX1b,1,145,2020-04-20T02:49:50-07:00,3.1038551330566,2,versionA_stim.csv,VC_VersionB.csv,"Version B","Version B",MIRROR,CHILDREN,Study2,U,174,121,Test,User,-,,Recall,Recall1,2871,glass,15.384615384615,1489,2719,0,0,,,1
w10039021,cem4e8e9hp,Nick_Dissertation_EX1b,1,146,2020-04-20T02:49:54-07:00,4.0969939231873,2,versionA_stim.csv,VC_VersionB.csv,"Version B","Version B",ALONE,LONELY,Study2,S,145,134,Test,User,-,,Recall,Recall1,3868,together,28.571428571429,2427,3731,0,0,,,1
w10039021,cem4e8e9hp,Nick_Dissertation_EX1b,1,147,2020-04-20T02:49:59-07:00,4.8048231601715,2,versionA_stim.csv,VC_VersionB.csv,"Version B","Version B",GLASS,BREAKABLE,Study2,B,127,98,Test,User,-,,Recall,Recall1,4582,mirror,13.333333333333,3298,4343,0,0,,,1
w10039021,cem4e8e9hp,Nick_Dissertation_EX1b,1,148,2020-04-20T02:50:03-07:00,3.9450809955597,2,versionA_stim.csv,VC_VersionB.csv,"Version B","Version B",FRUIT,STRAWBERRY,Study2,B,124,145,Test,User,-,,Recall,Recall1,3718,apple,26.666666666667,2139,3539,0,0,,,1
w10039021,cem4e8e9hp,Nick_Dissertation_EX1b,1,149,2020-04-20T02:50:06-07:00,3.2622818946838,2,versionA_stim.csv,VC_VersionB.csv,"Version B","Version B",CHILL,COLD,Study2,F,114,133,Test,User,-,,Recall,Recall1,3026,cold,100,2455,2853,1,1,,,1
w10039021,cem4e8e9hp,Nick_Dissertation_EX1b,1,150,2020-04-20T02:50:08-07:00,2.0364639759064,2,versionA_stim.csv,VC_VersionB.csv,"Version B","Version B",EVEN,REVENGE,Study2,B,122,157,Test,User,-,,Recall,Recall1,1785,out,0,1368,1641,0,0,,,1
w10039021,cem4e8e9hp,Nick_Dissertation_EX1b,1,151,2020-04-20T02:50:14-07:00,5.881147146225,2,versionA_stim.csv,VC_VersionB.csv,"Version B","Version B",AFFECTION,LOVE,Study2,F,115,139,Test,User,-,,Recall,Recall1,5636,,0,-1,-1,0,0,,,1
w10039021,cem4e8e9hp,Nick_Dissertation_EX1b,1,152,2020-04-20T02:50:17-07:00,2.4416599273682,2,versionA_stim.csv,VC_VersionB.csv,"Version B","Version B",HONEST,TRUTHFUL,Study2,B,133,161,Test,User,-,,Recall,Recall1,2161,lie,18.181818181818,1696,2005,0,0,,,1
w10039021,cem4e8e9hp,Nick_Dissertation_EX1b,1,153,2020-04-20T02:50:20-07:00,2.8229808807373,2,versionA_stim.csv,VC_VersionB.csv,"Version B","Version B",FLEA,TICK,Study2,S,151,102,Test,User,-,,Recall,Recall1,2581,flick,66.666666666667,1783,2246,0,0,,,1
w10039021,cem4e8e9hp,Nick_Dissertation_EX1b,1,154,2020-04-20T02:50:21-07:00,1.1299800872803,2,versionA_stim.csv,VC_VersionB.csv,"Version B","Version B",ADJOURN,END,Study2,F,101,172,Test,User,-,,Recall,Recall1,917,,0,-1,-1,0,0,,,1
w10039021,cem4e8e9hp,Nick_Dissertation_EX1b,1,155,2020-04-20T02:50:23-07:00,1.9707729816437,2,versionA_stim.csv,VC_VersionB.csv,"Version B","Version B",CAT,PANTHER,Study2,B,126,108,Test,User,-,,Recall,Recall1,1697,dog,0,1247,1520,0,0,,,1
w10039021,cem4e8e9hp,Nick_Dissertation_EX1b,1,156,2020-04-20T02:50:33-07:00,10.39431810379,2,versionA_stim.csv,VC_VersionB.csv,"Version B","Version B",LITTER,TRASH,Study2,F,103,132,Test,User,-,,Recall,Recall1,10139,box,0,9019,9993,0,0,,,1
w10039021,cem4e8e9hp,Nick_Dissertation_EX1b,1,157,2020-04-20T02:50:51-07:00,18.170892000198,2,versionA_stim.csv,VC_VersionB.csv,"Version B","Version B",WATER,DRINK,Study2,S,143,166,Test,User,-,,Recall,Recall1,17940,desert,36.363636363636,16418,17318,0,0,,,1
w10039021,cem4e8e9hp,Nick_Dissertation_EX1b,1,158,2020-04-20T02:50:56-07:00,5.1497519016266,2,versionA_stim.csv,VC_VersionB.csv,"Version B","Version B",DRIVER,CAR,Study2,F,106,105,Test,User,-,,Recall,Recall1,4916,passenger,33.333333333333,2325,4657,0,0,,,1
w10039021,cem4e8e9hp,Nick_Dissertation_EX1b,1,159,2020-04-20T02:51:00-07:00,3.1147830486298,2,versionA_stim.csv,VC_VersionB.csv,"Version B","Version B",STAR,ACTRESS,Study2,B,120,169,Test,User,-,,Recall,Recall1,2881,moon,0,1715,2710,0,0,,,1
w10039021,cem4e8e9hp,Nick_Dissertation_EX1b,1,160,2020-04-20T02:51:02-07:00,2.5751118659973,2,versionA_stim.csv,VC_VersionB.csv,"Version B","Version B",LISTEN,FICTION,Study2,U,164,153,Test,User,-,,Recall,Recall1,2338,hear,0,1648,2019,0,0,,,1
w10039021,cem4e8e9hp,Nick_Dissertation_EX1b,1,161,2020-04-20T02:51:08-07:00,5.3854691982269,2,versionA_stim.csv,VC_VersionB.csv,"Version B","Version B",NAME,HATE,Study2,U,167,151,Test,User,-,,Recall,Recall1,5146,last,50,3976,4881,0,0,,,1
w10039021,cem4e8e9hp,Nick_Dissertation_EX1b,1,162,2020-04-20T02:51:11-07:00,3.2793889045715,2,versionA_stim.csv,VC_VersionB.csv,"Version B","Version B",MASON,JAR,Study2,S,138,113,Test,User,-,,Recall,Recall1,3041,jar,100,2628,2824,1,1,,,1
w10039021,cem4e8e9hp,Nick_Dissertation_EX1b,1,163,2020-04-20T02:51:14-07:00,3.7135710716248,2,versionA_stim.csv,VC_VersionB.csv,"Version B","Version B",SUN,TAN,Study2,S,155,160,Test,User,-,,Recall,Recall1,3469,star,57.142857142857,2696,3152,0,0,,,1
w10039021,cem4e8e9hp,Nick_Dissertation_EX1b,1,164,2020-04-20T02:51:19-07:00,4.7509009838104,2,versionA_stim.csv,VC_VersionB.csv,"Version B","Version B",BIRD,PENGUIN,Study2,B,119,137,Test,User,-,,Recall,Recall1,4505,fly,0,3474,4285,0,0,,,1
w10039021,cem4e8e9hp,Nick_Dissertation_EX1b,1,165,2020-04-20T02:51:24-07:00,5.2162718772888,2,versionA_stim.csv,VC_VersionB.csv,"Version B","Version B",MEAT,OBTAIN,Study2,U,161,163,Test,User,-,,Recall,Recall1,4969,chicken,30.769230769231,4052,4735,0,0,,,1
w10039021,cem4e8e9hp,Nick_Dissertation_EX1b,1,166,2020-04-20T02:51:27-07:00,2.6389560699463,2,versionA_stim.csv,VC_VersionB.csv,"Version B","Version B",GIVE,STEAK,Study2,U,158,128,Test,User,-,,Recall,Recall1,2403,take,66.666666666667,1866,2218,0,0,,,1
w10039021,cem4e8e9hp,Nick_Dissertation_EX1b,1,167,2020-04-20T02:51:33-07:00,5.4777710437775,2,versionA_stim.csv,VC_VersionB.csv,"Version B","Version B",FURRY,DOG,Study2,F,102,144,Test,User,-,,Recall,Recall1,5225,racoon,22.222222222222,3666,5052,0,0,,,1
w10039021,cem4e8e9hp,Nick_Dissertation_EX1b,1,168,2020-04-20T02:51:34-07:00,1.9163110256195,2,versionA_stim.csv,VC_VersionB.csv,"Version B","Version B",DINE,EAT,Study2,F,111,175,Test,User,-,,Recall,Recall1,1681,in,0,1333,1524,0,0,,,1
w10039021,cem4e8e9hp,Nick_Dissertation_EX1b,1,169,2020-04-20T02:51:39-07:00,4.0631308555603,2,versionA_stim.csv,VC_VersionB.csv,"Version B","Version B",ROD,REEL,Study2,S,150,155,Test,User,-,,Recall,Recall1,3820,wave,25,2745,3628,0,0,,,1
w10039021,cem4e8e9hp,Nick_Dissertation_EX1b,1,170,2020-04-20T02:51:44-07:00,5.3114361763,2,versionA_stim.csv,VC_VersionB.csv,"Version B","Version B",LOAN,SIGN,Study2,U,171,162,Test,User,-,,Recall,Recall1,5078,money,22.222222222222,3630,4491,0,0,,,1
w10039021,cem4e8e9hp,Nick_Dissertation_EX1b,1,171,2020-04-20T02:51:47-07:00,2.7801809310913,2,versionA_stim.csv,VC_VersionB.csv,"Version B","Version B",DRY,WET,Study2,S,146,152,Test,User,-,,Recall,Recall1,2528,wet,100,1963,2340,1,1,,,1
w10039021,cem4e8e9hp,Nick_Dissertation_EX1b,1,172,2020-04-20T02:51:50-07:00,3.1333968639374,2,versionA_stim.csv,VC_VersionB.csv,"Version B","Version B",FEUD,FIGHT,Study2,F,113,106,Test,User,-,,Recall,Recall1,2907,family,36.363636363636,1794,2711,0,0,,,1
w10039021,cem4e8e9hp,Nick_Dissertation_EX1b,1,173,2020-04-20T02:51:53-07:00,3.1400451660156,2,versionA_stim.csv,VC_VersionB.csv,"Version B","Version B",ELEMENT,CARBON,Study2,S,141,165,Test,User,-,,Recall,Recall1,2913,water,36.363636363636,2117,2709,0,0,,,1
w10039021,cem4e8e9hp,Nick_Dissertation_EX1b,1,174,2020-04-20T02:51:55-07:00,1.9577038288116,2,versionA_stim.csv,VC_VersionB.csv,"Version B","Version B",BAD,VILLAIN,Study2,B,118,171,Test,User,-,,Recall,Recall1,1720,good,0,1163,1563,0,0,,,1
w10039021,cem4e8e9hp,Nick_Dissertation_EX1b,1,175,2020-04-20T02:51:59-07:00,3.7387940883636,2,versionA_stim.csv,VC_VersionB.csv,"Version B","Version B",CLUE,GAME,Study2,F,97,100,Test,User,-,,Recall,Recall1,3496,hint,0,2892,3354,0,0,,,1
w10039021,cem4e8e9hp,Nick_Dissertation_EX1b,1,176,2020-04-20T02:52:03-07:00,4.0126791000366,2,versionA_stim.csv,VC_VersionB.csv,"Version B","Version B",DOCUMENT,PAPER,Study2,F,109,140,Test,User,-,,Recall,Recall1,3775,paper,100,2227,3539,1,1,,,1
w10039021,cem4e8e9hp,Nick_Dissertation_EX1b,1,177,2020-04-20T02:52:07-07:00,3.9571359157562,2,versionA_stim.csv,VC_VersionB.csv,"Version B","Version B",VEHICLE,CHARM,Study2,U,160,101,Test,User,-,,Recall,Recall1,3716,train,20,2848,3451,0,0,,,1
w10039021,cem4e8e9hp,Nick_Dissertation_EX1b,1,178,2020-04-20T02:52:19-07:00,12.819526910782,2,versionA_stim.csv,VC_VersionB.csv,"Version B","Version B",,,,,,0,Instruct,-,10,"You will now be presented with a new set of word pairs. Please study each pair. Remember that your memory will be tested! When finished, press Enter to move to the next pair.",Initial_Instruct,Instruct4,12523,,,-1,-1,,,,,1
w10039021,cem4e8e9hp,Nick_Dissertation_EX1b,1,179,2020-04-20T02:52:35-07:00,15.216029167175,2,versionA_stim.csv,VC_VersionB.csv,"Version B","Version B",,,,,,0,Instruct,,10,"You will again be asked to count how many vowels the two words contain. Please remember to type this number in the space below each pair.",,Instruct10,14987,,,-1,-1,,,,,1
w10039021,cem4e8e9hp,Nick_Dissertation_EX1b,1,180,2020-04-20T02:53:19-07:00,44.302390813828,2,versionA_stim.csv,VC_VersionB.csv,"Version B","Version B",,,,,,0,Instruct,User,-,"Press Enter when you are readty to begin",,Instruct11,44048,,,-1,-1,,,,,1
w10039021,cem4e8e9hp,Nick_Dissertation_EX1b,1,181,2020-04-20T02:53:25-07:00,5.7647631168365,2,versionA_stim.csv,VC_VersionB.csv,"Version B","Version B",BASEBALL,CATCHER,BUFFER1,Buffer,2,4,VC,User,-,"How many vowels are the two words combined?|Type your response below and then press Enter.",Study/JOL,BUFFER3,5407,,,5213,5213,,,,5,1
w10039021,cem4e8e9hp,Nick_Dissertation_EX1b,1,182,2020-04-20T02:53:29-07:00,3.9835369586945,2,versionA_stim.csv,VC_VersionB.csv,"Version B","Version B",SPACE,JAM,BUFFER1,Buffer,5,6,VC,User,-,"How many vowels are the two words combined?|Type your response below and then press Enter.",Study/JOL,BUFFER3,3757,,,3170,3170,,,,3,1
w10039021,cem4e8e9hp,Nick_Dissertation_EX1b,1,183,2020-04-20T02:53:33-07:00,4.2706301212311,2,versionA_stim.csv,VC_VersionB.csv,"Version B","Version B",PEANUT,BUTTER,BUFFER1,Buffer,3,2,VC,User,-,"How many vowels are the two words combined?|Type your response below and then press Enter.",Study/JOL,BUFFER3,4040,,,3837,3838,,,,5,1
w10039021,cem4e8e9hp,Nick_Dissertation_EX1b,1,184,2020-04-20T02:53:37-07:00,3.6797339916229,2,versionA_stim.csv,VC_VersionB.csv,"Version B","Version B",TREES,GREEN,BUFFER1,Buffer,1,3,VC,User,-,"How many vowels are the two words combined?|Type your response below and then press Enter.",Study/JOL,BUFFER3,3434,,,3254,3254,,,,4,1
w10039021,cem4e8e9hp,Nick_Dissertation_EX1b,1,185,2020-04-20T02:53:40-07:00,3.0655148029327,2,versionA_stim.csv,VC_VersionB.csv,"Version B","Version B",SCARE,HIDE,BUFFER1,Buffer,4,5,VC,User,-,"How many vowels are the two words combined?|Type your response below and then press Enter.",Study/JOL,BUFFER3,2830,,,2671,2672,,,,4,1
w10039021,cem4e8e9hp,Nick_Dissertation_EX1b,1,186,2020-04-20T02:53:43-07:00,3.0313611030579,2,versionA_stim.csv,VC_VersionB.csv,"Version B","Version B",GRILL,BAR,Study1,S,52,22,VC,User,-,"How many vowels are the two words combined?|Type your response below and then press Enter.",Study/JOL,"Study Phase2",2796,,,2419,2419,,,,2,1
w10039021,cem4e8e9hp,Nick_Dissertation_EX1b,1,187,2020-04-20T02:53:47-07:00,4.017539024353,2,versionA_stim.csv,VC_VersionB.csv,"Version B","Version B",ART,LION,Study1,U,79,16,VC,User,-,"How many vowels are the two words combined?|Type your response below and then press Enter.",Study/JOL,"Study Phase2",3753,,,2661,3487,,,,3,1
w10039021,cem4e8e9hp,Nick_Dissertation_EX1b,1,188,2020-04-20T02:53:52-07:00,5.7098848819733,2,versionA_stim.csv,VC_VersionB.csv,"Version B","Version B",REVOLUTION,WAR,Study1,F,20,15,VC,User,-,"How many vowels are the two words combined?|Type your response below and then press Enter.",Study/JOL,"Study Phase2",5475,,,5220,5220,,,,6,1
w10039021,cem4e8e9hp,Nick_Dissertation_EX1b,1,189,2020-04-20T02:53:56-07:00,3.9492070674896,2,versionA_stim.csv,VC_VersionB.csv,"Version B","Version B",WAGE,MONEY,Study1,F,8,47,VC,User,-,"How many vowels are the two words combined?|Type your response below and then press Enter.",Study/JOL,"Study Phase2",3680,,,3498,3499,,,,4,1
w10039021,cem4e8e9hp,Nick_Dissertation_EX1b,1,190,2020-04-20T02:53:59-07:00,2.7333080768585,2,versionA_stim.csv,VC_VersionB.csv,"Version B","Version B",SWAN,BIRD,Study1,F,14,77,VC,User,-,"How many vowels are the two words combined?|Type your response below and then press Enter.",Study/JOL,"Study Phase2",2497,,,2338,2338,,,,2,1
w10039021,cem4e8e9hp,Nick_Dissertation_EX1b,1,191,2020-04-20T02:54:03-07:00,4.0917639732361,2,versionA_stim.csv,VC_VersionB.csv,"Version B","Version B",TRIAL,JURY,Study1,S,50,41,VC,User,-,"How many vowels are the two words combined?|Type your response below and then press Enter.",Study/JOL,"Study Phase2",3844,,,3658,3658,,,,3,1
w10039021,cem4e8e9hp,Nick_Dissertation_EX1b,1,192,2020-04-20T02:54:06-07:00,2.9832088947296,2,versionA_stim.csv,VC_VersionB.csv,"Version B","Version B",VALLEY,ADD,Study1,U,82,40,VC,User,-,"How many vowels are the two words combined?|Type your response below and then press Enter.",Study/JOL,"Study Phase2",2745,,,2533,2533,,,,3,1
w10039021,cem4e8e9hp,Nick_Dissertation_EX1b,1,193,2020-04-20T02:54:11-07:00,5.0514531135559,2,versionA_stim.csv,VC_VersionB.csv,"Version B","Version B",KING,VASE,Study1,U,85,11,VC,User,-,"How many vowels are the two words combined?|Type your response below and then press Enter.",Study/JOL,"Study Phase2",4808,,,4598,4598,,,,3,1
w10039021,cem4e8e9hp,Nick_Dissertation_EX1b,1,194,2020-04-20T02:54:17-07:00,5.8373830318451,2,versionA_stim.csv,VC_VersionB.csv,"Version B","Version B",DIETARY,SACKING,Study1,U,67,7,VC,User,-,"How many vowels are the two words combined?|Type your response below and then press Enter.",Study/JOL,"Study Phase2",5568,,,5318,5318,,,,5,1
w10039021,cem4e8e9hp,Nick_Dissertation_EX1b,1,195,2020-04-20T02:54:22-07:00,4.4375929832458,2,versionA_stim.csv,VC_VersionB.csv,"Version B","Version B",SOON,BELT,Study1,U,70,23,VC,User,-,"How many vowels are the two words combined?|Type your response below and then press Enter.",Study/JOL,"Study Phase2",4124,,,3984,3984,,,,3,1
w10039021,cem4e8e9hp,Nick_Dissertation_EX1b,1,196,2020-04-20T02:54:27-07:00,5.5372970104218,2,versionA_stim.csv,VC_VersionB.csv,"Version B","Version B",DIGESTION,STOMACH,Study1,F,7,13,VC,User,-,"How many vowels are the two words combined?|Type your response below and then press Enter.",Study/JOL,"Study Phase2",5259,,,5051,5051,,,,6,1
w10039021,cem4e8e9hp,Nick_Dissertation_EX1b,1,197,2020-04-20T02:54:31-07:00,3.9561948776245,2,versionA_stim.csv,VC_VersionB.csv,"Version B","Version B",HUNGER,FAMINE,Study1,B,40,71,VC,User,-,"How many vowels are the two words combined?|Type your response below and then press Enter.",Study/JOL,"Study Phase2",3708,,,3536,3536,,,,5,1
w10039021,cem4e8e9hp,Nick_Dissertation_EX1b,1,198,2020-04-20T02:54:34-07:00,3.4409410953522,2,versionA_stim.csv,VC_VersionB.csv,"Version B","Version B",BRIDGE,WATER,Study1,F,18,55,VC,User,-,"How many vowels are the two words combined?|Type your response below and then press Enter.",Study/JOL,"Study Phase2",3200,,,2996,2996,,,,4,1
w10039021,cem4e8e9hp,Nick_Dissertation_EX1b,1,199,2020-04-20T02:54:38-07:00,3.9338779449463,2,versionA_stim.csv,VC_VersionB.csv,"Version B","Version B",PUSHER,CLUTTER,Study1,U,66,51,VC,User,-,"How many vowels are the two words combined?|Type your response below and then press Enter.",Study/JOL,"Study Phase2",3685,,,3572,3572,,,,4,1
w10039021,cem4e8e9hp,Nick_Dissertation_EX1b,1,200,2020-04-20T02:54:42-07:00,4.0085589885712,2,versionA_stim.csv,VC_VersionB.csv,"Version B","Version B",KIDNEY,LIVER,Study1,S,53,78,VC,User,-,"How many vowels are the two words combined?|Type your response below and then press Enter.",Study/JOL,"Study Phase2",3756,,,3634,3634,,,,4,1
w10039021,cem4e8e9hp,Nick_Dissertation_EX1b,1,201,2020-04-20T02:54:49-07:00,6.4207320213318,2,versionA_stim.csv,VC_VersionB.csv,"Version B","Version B",DISCUSSION,TALK,Study1,F,21,85,VC,User,-,"How many vowels are the two words combined?|Type your response below and then press Enter.",Study/JOL,"Study Phase2",6175,,,5977,5977,,,,5,1
w10039021,cem4e8e9hp,Nick_Dissertation_EX1b,1,202,2020-04-20T02:54:55-07:00,5.7255330085754,2,versionA_stim.csv,VC_VersionB.csv,"Version B","Version B",KEY,LATCH,Study1,B,36,17,VC,User,-,"How many vowels are the two words combined?|Type your response below and then press Enter.",Study/JOL,"Study Phase2",5487,,,5305,5306,,,,2,1
w10039021,cem4e8e9hp,Nick_Dissertation_EX1b,1,203,2020-04-20T02:54:58-07:00,3.5715661048889,2,versionA_stim.csv,VC_VersionB.csv,"Version B","Version B",HEIGHT,GROWTH,Study1,B,30,49,VC,User,-,"How many vowels are the two words combined?|Type your response below and then press Enter.",Study/JOL,"Study Phase2",3313,,,3182,3183,,,,3,1
w10039021,cem4e8e9hp,Nick_Dissertation_EX1b,1,204,2020-04-20T02:55:01-07:00,2.7772448062897,2,versionA_stim.csv,VC_VersionB.csv,"Version B","Version B",CREDIT,CARD,Study1,F,23,50,VC,User,-,"How many vowels are the two words combined?|Type your response below and then press Enter.",Study/JOL,"Study Phase2",2540,,,2414,2414,,,,3,1
w10039021,cem4e8e9hp,Nick_Dissertation_EX1b,1,205,2020-04-20T02:55:05-07:00,4.1772270202637,2,versionA_stim.csv,VC_VersionB.csv,"Version B","Version B",DELINQUENT,BAD,Study1,F,6,12,VC,User,-,"How many vowels are the two words combined?|Type your response below and then press Enter.",Study/JOL,"Study Phase2",3933,,,3815,3815,,,,5,1
w10039021,cem4e8e9hp,Nick_Dissertation_EX1b,1,206,2020-04-20T02:55:10-07:00,4.7446081638336,2,versionA_stim.csv,VC_VersionB.csv,"Version B","Version B",BATHROOM,TOILET,Study1,S,58,59,VC,User,-,"How many vowels are the two words combined?|Type your response below and then press Enter.",Study/JOL,"Study Phase2",4471,,,4323,4323,,,,6,1
w10039021,cem4e8e9hp,Nick_Dissertation_EX1b,1,207,2020-04-20T02:55:13-07:00,3.3741269111633,2,versionA_stim.csv,VC_VersionB.csv,"Version B","Version B",TUNA,FISH,Study1,F,25,72,VC,User,-,"How many vowels are the two words combined?|Type your response below and then press Enter.",Study/JOL,"Study Phase2",3077,,,2664,2665,,,,3,1
w10039021,cem4e8e9hp,Nick_Dissertation_EX1b,1,208,2020-04-20T02:55:17-07:00,3.8831050395966,2,versionA_stim.csv,VC_VersionB.csv,"Version B","Version B",SENTENCE,WORD,Study1,B,31,45,VC,User,-,"How many vowels are the two words combined?|Type your response below and then press Enter.",Study/JOL,"Study Phase2",3582,,,3485,3485,,,,4,1
w10039021,cem4e8e9hp,Nick_Dissertation_EX1b,1,209,2020-04-20T02:55:26-07:00,8.4601058959961,2,versionA_stim.csv,VC_VersionB.csv,"Version B","Version B",ORCHID,FLOWER,Study1,F,24,54,VC,User,-,"How many vowels are the two words combined?|Type your response below and then press Enter.",Study/JOL,"Study Phase2",8207,,,8029,8029,,,,4,1
w10039021,cem4e8e9hp,Nick_Dissertation_EX1b,1,210,2020-04-20T02:55:29-07:00,3.2321929931641,2,versionA_stim.csv,VC_VersionB.csv,"Version B","Version B",POP,SODA,Study1,S,56,66,VC,User,-,"How many vowels are the two words combined?|Type your response below and then press Enter.",Study/JOL,"Study Phase2",2961,,,2780,2780,,,,3,1
w10039021,cem4e8e9hp,Nick_Dissertation_EX1b,1,211,2020-04-20T02:55:32-07:00,3.6054141521454,2,versionA_stim.csv,VC_VersionB.csv,"Version B","Version B",EDITOR,NEWS,Study1,F,10,70,VC,User,-,"How many vowels are the two words combined?|Type your response below and then press Enter.",Study/JOL,"Study Phase2",3338,,,3182,3182,,,,4,1
w10039021,cem4e8e9hp,Nick_Dissertation_EX1b,1,212,2020-04-20T02:55:39-07:00,6.4581279754639,2,versionA_stim.csv,VC_VersionB.csv,"Version B","Version B",MEANING,DEFINITION,Study1,S,62,74,VC,User,-,"How many vowels are the two words combined?|Type your response below and then press Enter.",Study/JOL,"Study Phase2",6218,,,5449,5449,,,,8,1
w10039021,cem4e8e9hp,Nick_Dissertation_EX1b,1,213,2020-04-20T02:55:44-07:00,4.9136929512024,2,versionA_stim.csv,VC_VersionB.csv,"Version B","Version B",GREAT,FANTASTIC,Study1,B,35,10,VC,User,-,"How many vowels are the two words combined?|Type your response below and then press Enter.",Study/JOL,"Study Phase2",4648,,,4378,4379,,,,5,1
w10039021,cem4e8e9hp,Nick_Dissertation_EX1b,1,214,2020-04-20T02:55:48-07:00,4.5087640285492,2,versionA_stim.csv,VC_VersionB.csv,"Version B","Version B",WINE,CHEESE,Study1,S,57,34,VC,User,-,"How many vowels are the two words combined?|Type your response below and then press Enter.",Study/JOL,"Study Phase2",4258,,,3974,3974,,,,5,1
w10039021,cem4e8e9hp,Nick_Dissertation_EX1b,1,215,2020-04-20T02:55:57-07:00,8.837620973587,2,versionA_stim.csv,VC_VersionB.csv,"Version B","Version B",MATH,DIVISION,Study1,B,33,84,VC,User,-,"How many vowels are the two words combined?|Type your response below and then press Enter.",Study/JOL,"Study Phase2",8604,,,8461,8462,,,,5,1
w10039021,cem4e8e9hp,Nick_Dissertation_EX1b,1,216,2020-04-20T02:56:00-07:00,2.9356999397278,2,versionA_stim.csv,VC_VersionB.csv,"Version B","Version B",HIDE,SICK,Study1,U,84,35,VC,User,-,"How many vowels are the two words combined?|Type your response below and then press Enter.",Study/JOL,"Study Phase2",2684,,,2491,2491,,,,3,1
w10039021,cem4e8e9hp,Nick_Dissertation_EX1b,1,217,2020-04-20T02:56:03-07:00,2.7249231338501,2,versionA_stim.csv,VC_VersionB.csv,"Version B","Version B",ROOT,PLANT,Study1,F,13,62,VC,User,-,"How many vowels are the two words combined?|Type your response below and then press Enter.",Study/JOL,"Study Phase2",2475,,,2307,2307,,,,3,1
w10039021,cem4e8e9hp,Nick_Dissertation_EX1b,1,218,2020-04-20T02:56:09-07:00,5.9343650341034,2,versionA_stim.csv,VC_VersionB.csv,"Version B","Version B",BEGIN,END,Study1,S,54,65,VC,User,-,"How many vowels are the two words combined?|Type your response below and then press Enter.",Study/JOL,"Study Phase2",5682,,,5290,5290,,,,3,1
w10039021,cem4e8e9hp,Nick_Dissertation_EX1b,1,219,2020-04-20T02:56:13-07:00,4.307580947876,2,versionA_stim.csv,VC_VersionB.csv,"Version B","Version B",ALLOW,TUCK,Study1,U,78,52,VC,User,-,"How many vowels are the two words combined?|Type your response below and then press Enter.",Study/JOL,"Study Phase2",4047,,,3840,3840,,,,3,1
w10039021,cem4e8e9hp,Nick_Dissertation_EX1b,1,220,2020-04-20T02:56:24-07:00,10.761500835419,2,versionA_stim.csv,VC_VersionB.csv,"Version B","Version B",HAPPY,CAR,Study1,U,77,31,VC,User,-,"How many vowels are the two words combined?|Type your response below and then press Enter.",Study/JOL,"Study Phase2",10529,,,10315,10315,,,,2,1
w10039021,cem4e8e9hp,Nick_Dissertation_EX1b,1,221,2020-04-20T02:56:29-07:00,5.0424311161041,2,versionA_stim.csv,VC_VersionB.csv,"Version B","Version B",LOCATION,SITE,Study1,S,48,37,VC,User,-,"How many vowels are the two words combined?|Type your response below and then press Enter.",Study/JOL,"Study Phase2",4811,,,4650,4650,,,,6,1
w10039021,cem4e8e9hp,Nick_Dissertation_EX1b,1,222,2020-04-20T02:56:33-07:00,4.1754729747772,2,versionA_stim.csv,VC_VersionB.csv,"Version B","Version B",CLOTHES,ATTIRE,Study1,B,43,53,VC,User,-,"How many vowels are the two words combined?|Type your response below and then press Enter.",Study/JOL,"Study Phase2",3934,,,3824,3824,,,,5,1
w10039021,cem4e8e9hp,Nick_Dissertation_EX1b,1,223,2020-04-20T02:56:37-07:00,4.198007106781,2,versionA_stim.csv,VC_VersionB.csv,"Version B","Version B",CASH,WOULD,Study1,U,83,46,VC,User,-,"How many vowels are the two words combined?|Type your response below and then press Enter.",Study/JOL,"Study Phase2",3957,,,3836,3836,,,,3,1
w10039021,cem4e8e9hp,Nick_Dissertation_EX1b,1,224,2020-04-20T02:56:40-07:00,2.5342998504639,2,versionA_stim.csv,VC_VersionB.csv,"Version B","Version B",DUMP,WASTE,Study1,S,49,60,VC,User,-,"How many vowels are the two words combined?|Type your response below and then press Enter.",Study/JOL,"Study Phase2",2303,,,2193,2193,,,,3,1
w10039021,cem4e8e9hp,Nick_Dissertation_EX1b,1,225,2020-04-20T02:56:45-07:00,4.8608250617981,2,versionA_stim.csv,VC_VersionB.csv,"Version B","Version B",MACHINE,POSITION,Study1,U,76,9,VC,User,-,"How many vowels are the two words combined?|Type your response below and then press Enter.",Study/JOL,"Study Phase2",4613,,,4452,4452,,,,7,1
w10039021,cem4e8e9hp,Nick_Dissertation_EX1b,1,226,2020-04-20T02:56:48-07:00,3.4754509925842,2,versionA_stim.csv,VC_VersionB.csv,"Version B","Version B",FULL,ENOUGH,Study1,B,26,39,VC,User,-,"How many vowels are the two words combined?|Type your response below and then press Enter.",Study/JOL,"Study Phase2",3232,,,3130,3131,,,,4,1
w10039021,cem4e8e9hp,Nick_Dissertation_EX1b,1,227,2020-04-20T02:56:51-07:00,2.7815420627594,2,versionA_stim.csv,VC_VersionB.csv,"Version B","Version B",BITTER,COLD,Study1,F,12,27,VC,User,-,"How many vowels are the two words combined?|Type your response below and then press Enter.",Study/JOL,"Study Phase2",2526,,,2398,2398,,,,3,1
w10039021,cem4e8e9hp,Nick_Dissertation_EX1b,1,228,2020-04-20T02:56:55-07:00,3.8540630340576,2,versionA_stim.csv,VC_VersionB.csv,"Version B","Version B",CIRCLE,ROUND,Study1,S,65,73,VC,User,-,"How many vowels are the two words combined?|Type your response below and then press Enter.",Study/JOL,"Study Phase2",3605,,,3489,3489,,,,4,1
w10039021,cem4e8e9hp,Nick_Dissertation_EX1b,1,229,2020-04-20T02:56:58-07:00,3.1730759143829,2,versionA_stim.csv,VC_VersionB.csv,"Version B","Version B",SLEEP,DROWSY,Study1,B,41,69,VC,User,-,"How many vowels are the two words combined?|Type your response below and then press Enter.",Study/JOL,"Study Phase2",2936,,,2788,2788,,,,3,1
w10039021,cem4e8e9hp,Nick_Dissertation_EX1b,1,230,2020-04-20T02:57:01-07:00,3.0539519786835,2,versionA_stim.csv,VC_VersionB.csv,"Version B","Version B",BUG,WASP,Study1,B,32,29,VC,User,-,"How many vowels are the two words combined?|Type your response below and then press Enter.",Study/JOL,"Study Phase2",2814,,,2640,2641,,,,2,1
w10039021,cem4e8e9hp,Nick_Dissertation_EX1b,1,231,2020-04-20T02:57:05-07:00,3.953066110611,2,versionA_stim.csv,VC_VersionB.csv,"Version B","Version B",LETTUCE,SALAD,Study1,S,59,75,VC,User,-,"How many vowels are the two words combined?|Type your response below and then press Enter.",Study/JOL,"Study Phase2",3712,,,3582,3582,,,,5,1
w10039021,cem4e8e9hp,Nick_Dissertation_EX1b,1,232,2020-04-20T02:57:26-07:00,20.711260795593,2,versionA_stim.csv,VC_VersionB.csv,"Version B","Version B",LIFT,WOMAN,Study1,U,69,67,VC,User,-,"How many vowels are the two words combined?|Type your response below and then press Enter.",Study/JOL,"Study Phase2",20455,,,20301,20301,,,,3,1
w10039021,cem4e8e9hp,Nick_Dissertation_EX1b,1,233,2020-04-20T02:57:29-07:00,3.2138671875,2,versionA_stim.csv,VC_VersionB.csv,"Version B","Version B",SHOE,FOOT,Study1,S,60,82,VC,User,-,"How many vowels are the two words combined?|Type your response below and then press Enter.",Study/JOL,"Study Phase2",2963,,,2842,2842,,,,4,1
w10039021,cem4e8e9hp,Nick_Dissertation_EX1b,1,234,2020-04-20T02:57:33-07:00,3.9499650001526,2,versionA_stim.csv,VC_VersionB.csv,"Version B","Version B",ARTERY,BRONZE,Study1,U,74,58,VC,User,-,"How many vowels are the two words combined?|Type your response below and then press Enter.",Study/JOL,"Study Phase2",3699,,,3564,3564,,,,4,1
w10039021,cem4e8e9hp,Nick_Dissertation_EX1b,1,235,2020-04-20T02:57:37-07:00,3.7825138568878,2,versionA_stim.csv,VC_VersionB.csv,"Version B","Version B",SUGAR,RIDDLE,Study1,U,81,8,VC,User,-,"How many vowels are the two words combined?|Type your response below and then press Enter.",Study/JOL,"Study Phase2",3499,,,3436,3436,,,,4,1
w10039021,cem4e8e9hp,Nick_Dissertation_EX1b,1,236,2020-04-20T02:57:41-07:00,4.028932094574,2,versionA_stim.csv,VC_VersionB.csv,"Version B","Version B",DISCOVER,FLOOR,Study1,U,71,63,VC,User,-,"How many vowels are the two words combined?|Type your response below and then press Enter.",Study/JOL,"Study Phase2",3780,,,3579,3579,,,,5,1
w10039021,cem4e8e9hp,Nick_Dissertation_EX1b,1,237,2020-04-20T02:57:44-07:00,3.2619268894196,2,versionA_stim.csv,VC_VersionB.csv,"Version B","Version B",PAW,DOG,Study1,F,15,57,VC,User,-,"How many vowels are the two words combined?|Type your response below and then press Enter.",Study/JOL,"Study Phase2",3022,,,2849,2849,,,,2,1
w10039021,cem4e8e9hp,Nick_Dissertation_EX1b,1,238,2020-04-20T02:57:47-07:00,3.4635670185089,2,versionA_stim.csv,VC_VersionB.csv,"Version B","Version B",GEOLOGY,ROCK,Study1,F,19,19,VC,User,-,"How many vowels are the two words combined?|Type your response below and then press Enter.",Study/JOL,"Study Phase2",3226,,,-1,-1,,,,,1
w10039021,cem4e8e9hp,Nick_Dissertation_EX1b,1,239,2020-04-20T02:57:49-07:00,2.0968780517578,2,versionA_stim.csv,VC_VersionB.csv,"Version B","Version B",DARK,CAVE,Study1,B,28,56,VC,User,-,"How many vowels are the two words combined?|Type your response below and then press Enter.",Study/JOL,"Study Phase2",1849,,,-1,-1,,,,,1
w10039021,cem4e8e9hp,Nick_Dissertation_EX1b,1,240,2020-04-20T02:57:55-07:00,5.3594479560852,2,versionA_stim.csv,VC_VersionB.csv,"Version B","Version B",BALL,RACKET,Study1,B,38,36,VC,User,-,"How many vowels are the two words combined?|Type your response below and then press Enter.",Study/JOL,"Study Phase2",5100,,,4974,4974,,,,3,1
w10039021,cem4e8e9hp,Nick_Dissertation_EX1b,1,241,2020-04-20T02:57:57-07:00,2.0582680702209,2,versionA_stim.csv,VC_VersionB.csv,"Version B","Version B",FIX,HAND,Study1,U,75,38,VC,User,-,"How many vowels are the two words combined?|Type your response below and then press Enter.",Study/JOL,"Study Phase2",1822,,,1745,1745,,,,2,1
w10039021,cem4e8e9hp,Nick_Dissertation_EX1b,1,242,2020-04-20T02:58:00-07:00,3.0444209575653,2,versionA_stim.csv,VC_VersionB.csv,"Version B","Version B",PLANE,PILOT,Study1,B,44,18,VC,User,-,"How many vowels are the two words combined?|Type your response below and then press Enter.",Study/JOL,"Study Phase2",2797,,,2704,2704,,,,4,1
w10039021,cem4e8e9hp,Nick_Dissertation_EX1b,1,243,2020-04-20T02:58:03-07:00,2.8767929077148,2,versionA_stim.csv,VC_VersionB.csv,"Version B","Version B",WAY,OUT,Study1,F,16,24,VC,User,-,"How many vowels are the two words combined?|Type your response below and then press Enter.",Study/JOL,"Study Phase2",2606,,,2420,2421,,,,3,1
w10039021,cem4e8e9hp,Nick_Dissertation_EX1b,1,244,2020-04-20T02:58:05-07:00,2.1968331336975,2,versionA_stim.csv,VC_VersionB.csv,"Version B","Version B",DRINK,SIP,Study1,B,27,20,VC,User,-,"How many vowels are the two words combined?|Type your response below and then press Enter.",Study/JOL,"Study Phase2",1953,,,1845,1845,,,,2,1
w10039021,cem4e8e9hp,Nick_Dissertation_EX1b,1,245,2020-04-20T02:58:27-07:00,21.727344989777,2,versionA_stim.csv,VC_VersionB.csv,"Version B","Version B",DEATH,BUSINESS,Study1,U,72,64,VC,User,-,"How many vowels are the two words combined?|Type your response below and then press Enter.",Study/JOL,"Study Phase2",21402,,,21213,21214,,,,5,1
w10039021,cem4e8e9hp,Nick_Dissertation_EX1b,1,246,2020-04-20T02:58:32-07:00,5.2005829811096,2,versionA_stim.csv,VC_VersionB.csv,"Version B","Version B",HYGIENE,CLEAN,Study1,F,17,30,VC,User,-,"How many vowels are the two words combined?|Type your response below and then press Enter.",Study/JOL,"Study Phase2",4750,,,4578,4578,,,,5,1
w10039021,cem4e8e9hp,Nick_Dissertation_EX1b,1,247,2020-04-20T02:58:35-07:00,2.8465309143066,2,versionA_stim.csv,VC_VersionB.csv,"Version B","Version B",WORK,CHORE,Study1,B,39,86,VC,User,-,"How many vowels are the two words combined?|Type your response below and then press Enter.",Study/JOL,"Study Phase2",2604,,,2458,2459,,,,3,1
w10039021,cem4e8e9hp,Nick_Dissertation_EX1b,1,248,2020-04-20T02:58:39-07:00,4.3548130989075,2,versionA_stim.csv,VC_VersionB.csv,"Version B","Version B",CHISEL,HAMMER,Study1,F,9,25,VC,User,-,"How many vowels are the two words combined?|Type your response below and then press Enter.",Study/JOL,"Study Phase2",3484,,,3363,3364,,,,4,1
w10039021,cem4e8e9hp,Nick_Dissertation_EX1b,1,249,2020-04-20T02:58:44-07:00,5.4000749588013,2,versionA_stim.csv,VC_VersionB.csv,"Version B","Version B",SMELL,STENCH,Study1,B,42,42,VC,User,-,"How many vowels are the two words combined?|Type your response below and then press Enter.",Study/JOL,"Study Phase2",5124,,,4822,4822,,,,2,1
w10039021,cem4e8e9hp,Nick_Dissertation_EX1b,1,250,2020-04-20T02:58:51-07:00,6.7183721065521,2,versionA_stim.csv,VC_VersionB.csv,"Version B","Version B",STRONG,ACCIDENT,Study1,U,80,68,VC,User,-,"How many vowels are the two words combined?|Type your response below and then press Enter.",Study/JOL,"Study Phase2",6476,,,6185,6185,,,,4,1
w10039021,cem4e8e9hp,Nick_Dissertation_EX1b,1,251,2020-04-20T02:59:06-07:00,14.59313583374,2,versionA_stim.csv,VC_VersionB.csv,"Version B","Version B",FIRE,BLAZE,Study1,B,45,48,VC,User,-,"How many vowels are the two words combined?|Type your response below and then press Enter.",Study/JOL,"Study Phase2",14346,,,14214,14214,,,,4,1
w10039021,cem4e8e9hp,Nick_Dissertation_EX1b,1,252,2020-04-20T02:59:10-07:00,3.8621621131897,2,versionA_stim.csv,VC_VersionB.csv,"Version B","Version B",HONEY,BEE,Study1,S,63,61,VC,User,-,"How many vowels are the two words combined?|Type your response below and then press Enter.",Study/JOL,"Study Phase2",3591,,,3490,3490,,,,4,1
w10039021,cem4e8e9hp,Nick_Dissertation_EX1b,1,253,2020-04-20T02:59:16-07:00,6.2807240486145,2,versionA_stim.csv,VC_VersionB.csv,"Version B","Version B",ARCHITECTURE,DESIGN,Study1,S,51,81,VC,User,-,"How many vowels are the two words combined?|Type your response below and then press Enter.",Study/JOL,"Study Phase2",5998,,,5879,5879,,,,7,1
w10039021,cem4e8e9hp,Nick_Dissertation_EX1b,1,254,2020-04-20T02:59:19-07:00,2.9703960418701,2,versionA_stim.csv,VC_VersionB.csv,"Version B","Version B",BABY,CHILD,Study1,S,64,80,VC,User,-,"How many vowels are the two words combined?|Type your response below and then press Enter.",Study/JOL,"Study Phase2",2602,,,2302,2302,,,,2,1
w10039021,cem4e8e9hp,Nick_Dissertation_EX1b,1,255,2020-04-20T02:59:22-07:00,2.811271905899,2,versionA_stim.csv,VC_VersionB.csv,"Version B","Version B",HOT,CHILI,Study1,B,37,44,VC,User,-,"How many vowels are the two words combined?|Type your response below and then press Enter.",Study/JOL,"Study Phase2",2549,,,2385,2385,,,,3,1
w10039021,cem4e8e9hp,Nick_Dissertation_EX1b,1,256,2020-04-20T02:59:25-07:00,3.3847239017487,2,versionA_stim.csv,VC_VersionB.csv,"Version B","Version B",LAW,ATTORNEY,Study1,B,34,33,VC,User,-,"How many vowels are the two words combined?|Type your response below and then press Enter.",Study/JOL,"Study Phase2",3082,,,2948,2948,,,,4,1
w10039021,cem4e8e9hp,Nick_Dissertation_EX1b,1,257,2020-04-20T02:59:29-07:00,3.7443151473999,2,versionA_stim.csv,VC_VersionB.csv,"Version B","Version B",TAKE,SEIZE,Study1,B,29,32,VC,User,-,"How many vowels are the two words combined?|Type your response below and then press Enter.",Study/JOL,"Study Phase2",3505,,,3373,3373,,,,4,1
w10039021,cem4e8e9hp,Nick_Dissertation_EX1b,1,258,2020-04-20T02:59:32-07:00,3.6358649730682,2,versionA_stim.csv,VC_VersionB.csv,"Version B","Version B",PARK,HUNGRY,Study1,U,68,79,VC,User,-,"How many vowels are the two words combined?|Type your response below and then press Enter.",Study/JOL,"Study Phase2",3382,,,3166,3166,,,,2,1
w10039021,cem4e8e9hp,Nick_Dissertation_EX1b,1,259,2020-04-20T02:59:39-07:00,6.4128720760345,2,versionA_stim.csv,VC_VersionB.csv,"Version B","Version B",NUMBER,AMOUNT,Study1,S,47,26,VC,User,-,"How many vowels are the two words combined?|Type your response below and then press Enter.",Study/JOL,"Study Phase2",6169,,,6035,6035,,,,4,1
w10039021,cem4e8e9hp,Nick_Dissertation_EX1b,1,260,2020-04-20T02:59:42-07:00,3.2149889469147,2,versionA_stim.csv,VC_VersionB.csv,"Version B","Version B",BLOW,WIND,Study1,S,55,76,VC,User,-,"How many vowels are the two words combined?|Type your response below and then press Enter.",Study/JOL,"Study Phase2",2966,,,2826,2826,,,,2,1
w10039021,cem4e8e9hp,Nick_Dissertation_EX1b,1,261,2020-04-20T02:59:48-07:00,6.2688930034637,2,versionA_stim.csv,VC_VersionB.csv,"Version B","Version B",DUE,ASSIGNMENT,Study1,S,46,83,VC,User,-,"How many vowels are the two words combined?|Type your response below and then press Enter.",Study/JOL,"Study Phase2",3482,,,3359,3359,,,,4,1
w10039021,cem4e8e9hp,Nick_Dissertation_EX1b,1,262,2020-04-20T02:59:54-07:00,5.8043398857117,2,versionA_stim.csv,VC_VersionB.csv,"Version B","Version B",HORNET,STING,Study1,F,11,21,VC,User,-,"How many vowels are the two words combined?|Type your response below and then press Enter.",Study/JOL,"Study Phase2",5523,,,5321,5321,,,,3,1
w10039021,cem4e8e9hp,Nick_Dissertation_EX1b,1,263,2020-04-20T02:59:58-07:00,3.3969969749451,2,versionA_stim.csv,VC_VersionB.csv,"Version B","Version B",DEBATE,SIGHT,Study1,U,73,43,VC,User,-,"How many vowels are the two words combined?|Type your response below and then press Enter.",Study/JOL,"Study Phase2",2997,,,2869,2869,,,,4,1
w10039021,cem4e8e9hp,Nick_Dissertation_EX1b,1,264,2020-04-20T03:00:01-07:00,3.0861840248108,2,versionA_stim.csv,VC_VersionB.csv,"Version B","Version B",PAST,FUTURE,Study1,S,61,14,VC,User,-,"How many vowels are the two words combined?|Type your response below and then press Enter.",Study/JOL,"Study Phase2",2844,,,2707,2707,,,,4,1
w10039021,cem4e8e9hp,Nick_Dissertation_EX1b,1,265,2020-04-20T03:00:03-07:00,2.183825969696,2,versionA_stim.csv,VC_VersionB.csv,"Version B","Version B",HERD,COW,Study1,F,22,28,VC,User,-,"How many vowels are the two words combined?|Type your response below and then press Enter.",Study/JOL,"Study Phase2",1941,,,1745,1745,,,,2,1
w10039021,cem4e8e9hp,Nick_Dissertation_EX1b,1,266,2020-04-20T03:00:10-07:00,6.8896231651306,2,versionA_stim.csv,VC_VersionB.csv,"Version B","Version B",GEESE,GOOSE,BUFFER2,Buffer,86,91,VC,User,-,"How many vowels are the two words combined?|Type your response below and then press Enter.",Study/JOL,BUFFER4,6645,,,6462,6463,,,,6,1
w10039021,cem4e8e9hp,Nick_Dissertation_EX1b,1,267,2020-04-20T03:00:13-07:00,2.9520869255066,2,versionA_stim.csv,VC_VersionB.csv,"Version B","Version B",MOON,SPACE,BUFFER2,Buffer,89,90,VC,User,-,"How many vowels are the two words combined?|Type your response below and then press Enter.",Study/JOL,BUFFER4,2705,,,2556,2556,,,,4,1
w10039021,cem4e8e9hp,Nick_Dissertation_EX1b,1,268,2020-04-20T03:00:25-07:00,12.474565982819,2,versionA_stim.csv,VC_VersionB.csv,"Version B","Version B",SHERRIF,POLICE,BUFFER2,Buffer,87,88,VC,User,-,"How many vowels are the two words combined?|Type your response below and then press Enter.",Study/JOL,BUFFER4,12211,,,3834,12037,,,,5,1
w10039021,cem4e8e9hp,Nick_Dissertation_EX1b,1,269,2020-04-20T03:00:28-07:00,2.9303760528564,2,versionA_stim.csv,VC_VersionB.csv,"Version B","Version B",THING,STUFF,BUFFER2,Buffer,90,87,VC,User,-,"How many vowels are the two words combined?|Type your response below and then press Enter.",Study/JOL,BUFFER4,2679,,,2516,2516,,,,2,1
w10039021,cem4e8e9hp,Nick_Dissertation_EX1b,1,270,2020-04-20T03:00:33-07:00,4.4598300457001,2,versionA_stim.csv,VC_VersionB.csv,"Version B","Version B",MALT,CHOCOLATE,BUFFER2,Buffer,88,89,VC,User,-,"How many vowels are the two words combined?|Type your response below and then press Enter.",Study/JOL,BUFFER4,4216,,,4051,4051,,,,5,1
w10039021,cem4e8e9hp,Nick_Dissertation_EX1b,1,271,2020-04-20T03:00:35-07:00,2.3566648960114,2,versionA_stim.csv,VC_VersionB.csv,"Version B","Version B",,,,,,0,Instruct,User,-,"You have completed this section. Please press Enter.",Filler_Instruction,Instruct5,1923,,,-1,-1,,,,,1
w10039021,cem4e8e9hp,Nick_Dissertation_EX1b,1,272,2020-04-20T03:02:35-07:00,120.39262294769,2,versionA_stim.csv,VC_VersionB.csv,"Version B","Version B",,,,,,0,FreeRecall,120,120,"Please list the 50 US states in reverse alphabetical order (z - a). The task will automatically advance to the next screen after two minutes.",,Filler2,120004,"Alabama Alaska Arizona Arkansas California Colorado Connecticut Delaware - Dover Florida - Tallahassee Georgia Hawaii Idaho Illinois Indiana Iowa Kansas Kentucky Louisiana Maine Maryland - Annapolis Massachusetts - Boston Michigan - Lansing Minnesota Mississippi Missouri Montana Nebraska Nevada New Hampshire New Jersey New Mexico New York North Carolina North Dakota Ohio Oklahoma Oregon Pennsylvania Rhode Island South Carolina South Dakota Tennessee Texas Utah Vermont Virginia Washington West Virginia Wisconsin Wyoming ",0,2427,94720,0,0,,,1
w10039021,cem4e8e9hp,Nick_Dissertation_EX1b,1,273,2020-04-20T03:02:46-07:00,11.169757127762,2,versionA_stim.csv,VC_VersionB.csv,"Version B","Version B",,,,,,0,Instruct,-,10,"You will now be presented with the first word from each of the previously studied item pairs. Please type the missing word. If you do not know the word, you may guess or press Enter to skip forward to the next pair.",,Instruct6,10804,,,-1,-1,,,,,1
w10039021,cem4e8e9hp,Nick_Dissertation_EX1b,1,274,2020-04-20T03:02:53-07:00,6.7892329692841,2,versionA_stim.csv,VC_VersionB.csv,"Version B","Version B",SUGAR,RIDDLE,Study1,U,81,8,Test,User,-,,Recall,Recall2,6315,Plum,20,5401,6089,0,0,,,1
w10039021,cem4e8e9hp,Nick_Dissertation_EX1b,1,275,2020-04-20T03:02:56-07:00,2.4075739383698,2,versionA_stim.csv,VC_VersionB.csv,"Version B","Version B",ORCHID,FLOWER,Study1,F,24,54,Test,User,-,,Recall,Recall2,2167,Flower,100,1381,2004,1,1,,,1
w10039021,cem4e8e9hp,Nick_Dissertation_EX1b,1,276,2020-04-20T03:03:03-07:00,7.7997679710388,2,versionA_stim.csv,VC_VersionB.csv,"Version B","Version B",ARCHITECTURE,DESIGN,Study1,S,51,81,Test,User,-,,Recall,Recall2,7545,,0,-1,-1,0,0,,,1
w10039021,cem4e8e9hp,Nick_Dissertation_EX1b,1,277,2020-04-20T03:03:08-07:00,4.3689939975739,2,versionA_stim.csv,VC_VersionB.csv,"Version B","Version B",STRONG,ACCIDENT,Study1,U,80,68,Test,User,-,,Recall,Recall2,4123,weak,16.666666666667,3391,3826,0,0,,,1
w10039021,cem4e8e9hp,Nick_Dissertation_EX1b,1,278,2020-04-20T03:03:13-07:00,5.5935261249542,2,versionA_stim.csv,VC_VersionB.csv,"Version B","Version B",SENTENCE,WORD,Study1,B,31,45,Test,User,-,,Recall,Recall2,5329,fragment,16.666666666667,3939,5165,0,0,,,1
w10039021,cem4e8e9hp,Nick_Dissertation_EX1b,1,279,2020-04-20T03:03:16-07:00,2.7939009666443,2,versionA_stim.csv,VC_VersionB.csv,"Version B","Version B",HOT,CHILI,Study1,B,37,44,Test,User,-,,Recall,Recall2,2530,cold,44.444444444444,2060,2362,0,0,,,1
w10039021,cem4e8e9hp,Nick_Dissertation_EX1b,1,280,2020-04-20T03:03:24-07:00,7.5896279811859,2,versionA_stim.csv,VC_VersionB.csv,"Version B","Version B",KEY,LATCH,Study1,B,36,17,Test,User,-,,Recall,Recall2,7321,board,20,5532,6994,0,0,,,1
w10039021,cem4e8e9hp,Nick_Dissertation_EX1b,1,281,2020-04-20T03:03:34-07:00,9.7392139434814,2,versionA_stim.csv,VC_VersionB.csv,"Version B","Version B",CHISEL,HAMMER,Study1,F,9,25,Test,User,-,,Recall,Recall2,8701,saw,22.222222222222,7634,8461,0,0,,,1
w10039021,cem4e8e9hp,Nick_Dissertation_EX1b,1,282,2020-04-20T03:03:39-07:00,5.3370821475983,2,versionA_stim.csv,VC_VersionB.csv,"Version B","Version B",GRILL,BAR,Study1,S,52,22,Test,User,-,,Recall,Recall2,5079,,0,-1,-1,0,0,,,1
w10039021,cem4e8e9hp,Nick_Dissertation_EX1b,1,283,2020-04-20T03:03:41-07:00,2.2495238780975,2,versionA_stim.csv,VC_VersionB.csv,"Version B","Version B",SHOE,FOOT,Study1,S,60,82,Test,User,-,,Recall,Recall2,1998,lace,0,1025,1869,0,0,,,1
w10039021,cem4e8e9hp,Nick_Dissertation_EX1b,1,284,2020-04-20T03:03:45-07:00,3.8204629421234,2,versionA_stim.csv,VC_VersionB.csv,"Version B","Version B",WINE,CHEESE,Study1,S,57,34,Test,User,-,,Recall,Recall2,3582,cheese,100,1992,3310,1,1,,,1
w10039021,cem4e8e9hp,Nick_Dissertation_EX1b,1,285,2020-04-20T03:03:47-07:00,2.1101160049438,2,versionA_stim.csv,VC_VersionB.csv,"Version B","Version B",KIDNEY,LIVER,Study1,S,53,78,Test,User,-,,Recall,Recall2,1857,stone,20,1139,1631,0,0,,,1
w10039021,cem4e8e9hp,Nick_Dissertation_EX1b,1,286,2020-04-20T03:03:52-07:00,4.64359998703,2,versionA_stim.csv,VC_VersionB.csv,"Version B","Version B",FIX,HAND,Study1,U,75,38,Test,User,-,,Recall,Recall2,4388,repair,20,1917,3728,0,0,,,1
w10039021,cem4e8e9hp,Nick_Dissertation_EX1b,1,287,2020-04-20T03:03:54-07:00,2.550311088562,2,versionA_stim.csv,VC_VersionB.csv,"Version B","Version B",DISCUSSION,TALK,Study1,F,21,85,Test,User,-,,Recall,Recall2,2295,board,22.222222222222,1571,2121,0,0,,,1
w10039021,cem4e8e9hp,Nick_Dissertation_EX1b,1,288,2020-04-20T03:03:58-07:00,3.3382580280304,2,versionA_stim.csv,VC_VersionB.csv,"Version B","Version B",BALL,RACKET,Study1,B,38,36,Test,User,-,,Recall,Recall2,3090,base,40,2355,2846,0,0,,,1
w10039021,cem4e8e9hp,Nick_Dissertation_EX1b,1,289,2020-04-20T03:04:02-07:00,4.8024699687958,2,versionA_stim.csv,VC_VersionB.csv,"Version B","Version B",BRIDGE,WATER,Study1,F,18,55,Test,User,-,,Recall,Recall2,4548,london,0,3407,4327,0,0,,,1
w10039021,cem4e8e9hp,Nick_Dissertation_EX1b,1,290,2020-04-20T03:04:05-07:00,2.4399991035461,2,versionA_stim.csv,VC_VersionB.csv,"Version B","Version B",SLEEP,DROWSY,Study1,B,41,69,Test,User,-,,Recall,Recall2,2184,snore,18.181818181818,1337,1991,0,0,,,1
w10039021,cem4e8e9hp,Nick_Dissertation_EX1b,1,291,2020-04-20T03:04:09-07:00,3.8600180149078,2,versionA_stim.csv,VC_VersionB.csv,"Version B","Version B",HYGIENE,CLEAN,Study1,F,17,30,Test,User,-,,Recall,Recall2,3604,clean,100,1669,3376,1,1,,,1
w10039021,cem4e8e9hp,Nick_Dissertation_EX1b,1,292,2020-04-20T03:04:12-07:00,3.4345488548279,2,versionA_stim.csv,VC_VersionB.csv,"Version B","Version B",CIRCLE,ROUND,Study1,S,65,73,Test,User,-,,Recall,Recall2,3185,round,100,2538,3017,1,1,,,1
w10039021,cem4e8e9hp,Nick_Dissertation_EX1b,1,293,2020-04-20T03:04:15-07:00,3.1741030216217,2,versionA_stim.csv,VC_VersionB.csv,"Version B","Version B",HERD,COW,Study1,F,22,28,Test,User,-,,Recall,Recall2,2919,,0,-1,-1,0,0,,,1
w10039021,cem4e8e9hp,Nick_Dissertation_EX1b,1,294,2020-04-20T03:04:25-07:00,9.7895030975342,2,versionA_stim.csv,VC_VersionB.csv,"Version B","Version B",DISCOVER,FLOOR,Study1,U,71,63,Test,User,-,,Recall,Recall2,9525,,0,-1,-1,0,0,,,1
w10039021,cem4e8e9hp,Nick_Dissertation_EX1b,1,295,2020-04-20T03:04:28-07:00,2.4569008350372,2,versionA_stim.csv,VC_VersionB.csv,"Version B","Version B",KING,VASE,Study1,U,85,11,Test,User,-,,Recall,Recall2,2197,queen,22.222222222222,1454,1982,0,0,,,1
w10039021,cem4e8e9hp,Nick_Dissertation_EX1b,1,296,2020-04-20T03:04:33-07:00,5.9276461601257,2,versionA_stim.csv,VC_VersionB.csv,"Version B","Version B",ART,LION,Study1,U,79,16,Test,User,-,,Recall,Recall2,5670,,0,-1,-1,0,0,,,1
w10039021,cem4e8e9hp,Nick_Dissertation_EX1b,1,297,2020-04-20T03:04:38-07:00,4.0834619998932,2,versionA_stim.csv,VC_VersionB.csv,"Version B","Version B",POP,SODA,Study1,S,56,66,Test,User,-,,Recall,Recall2,3826,crackle,18.181818181818,2497,3629,0,0,,,1
w10039021,cem4e8e9hp,Nick_Dissertation_EX1b,1,298,2020-04-20T03:04:40-07:00,2.1911318302155,2,versionA_stim.csv,VC_VersionB.csv,"Version B","Version B",FULL,ENOUGH,Study1,B,26,39,Test,User,-,,Recall,Recall2,1940,house,36.363636363636,1142,1811,0,0,,,1
w10039021,cem4e8e9hp,Nick_Dissertation_EX1b,1,299,2020-04-20T03:04:45-07:00,5.1871671676636,2,versionA_stim.csv,VC_VersionB.csv,"Version B","Version B",PAST,FUTURE,Study1,S,61,14,Test,User,-,,Recall,Recall2,4932,time,40,4390,4765,0,0,,,1
w10039021,cem4e8e9hp,Nick_Dissertation_EX1b,1,300,2020-04-20T03:04:47-07:00,1.6594498157501,2,versionA_stim.csv,VC_VersionB.csv,"Version B","Version B",PUSHER,CLUTTER,Study1,U,66,51,Test,User,-,,Recall,Recall2,1387,,0,-1,-1,0,0,,,1
w10039021,cem4e8e9hp,Nick_Dissertation_EX1b,1,301,2020-04-20T03:04:52-07:00,5.7437160015106,2,versionA_stim.csv,VC_VersionB.csv,"Version B","Version B",MEANING,DEFINITION,Study1,S,62,74,Test,User,-,,Recall,Recall2,5384,defintion,94.736842105263,2825,4803,0,1,,,1
w10039021,cem4e8e9hp,Nick_Dissertation_EX1b,1,302,2020-04-20T03:04:56-07:00,3.4387681484222,2,versionA_stim.csv,VC_VersionB.csv,"Version B","Version B",HIDE,SICK,Study1,U,84,35,Test,User,-,,Recall,Recall2,3018,seek,50,2343,2799,0,0,,,1
w10039021,cem4e8e9hp,Nick_Dissertation_EX1b,1,303,2020-04-20T03:04:58-07:00,2.3909819126129,2,versionA_stim.csv,VC_VersionB.csv,"Version B","Version B",HORNET,STING,Study1,F,11,21,Test,User,-,,Recall,Recall2,2152,bee,0,1314,1758,0,0,,,1
w10039021,cem4e8e9hp,Nick_Dissertation_EX1b,1,304,2020-04-20T03:05:05-07:00,7.0035130977631,2,versionA_stim.csv,VC_VersionB.csv,"Version B","Version B",DEBATE,SIGHT,Study1,U,73,43,Test,User,-,,Recall,Recall2,6706,argue,20,5344,6520,0,0,,,1
w10039021,cem4e8e9hp,Nick_Dissertation_EX1b,1,305,2020-04-20T03:05:06-07:00,1.1092579364777,2,versionA_stim.csv,VC_VersionB.csv,"Version B","Version B",DELINQUENT,BAD,Study1,F,6,12,Test,User,-,,Recall,Recall2,887,,0,-1,-1,0,0,,,1
w10039021,cem4e8e9hp,Nick_Dissertation_EX1b,1,306,2020-04-20T03:05:09-07:00,2.8090839385986,2,versionA_stim.csv,VC_VersionB.csv,"Version B","Version B",ARTERY,BRONZE,Study1,U,74,58,Test,User,-,,Recall,Recall2,2574,vein,20,1563,2393,0,0,,,1
w10039021,cem4e8e9hp,Nick_Dissertation_EX1b,1,307,2020-04-20T03:05:12-07:00,2.8692901134491,2,versionA_stim.csv,VC_VersionB.csv,"Version B","Version B",DUMP,WASTE,Study1,S,49,60,Test,User,-,,Recall,Recall2,2600,pile,22.222222222222,1860,2426,0,0,,,1
w10039021,cem4e8e9hp,Nick_Dissertation_EX1b,1,308,2020-04-20T03:05:22-07:00,10.521203041077,2,versionA_stim.csv,VC_VersionB.csv,"Version B","Version B",MATH,DIVISION,Study1,B,33,84,Test,User,-,,Recall,Recall2,10263,spelling,37.5,8444,10112,0,0,,,1
w10039021,cem4e8e9hp,Nick_Dissertation_EX1b,1,309,2020-04-20T03:05:32-07:00,9.520192861557,2,versionA_stim.csv,VC_VersionB.csv,"Version B","Version B",BITTER,COLD,Study1,F,12,27,Test,User,-,,Recall,Recall2,9277,taste,0,3697,9018,0,0,,,1
w10039021,cem4e8e9hp,Nick_Dissertation_EX1b,1,310,2020-04-20T03:05:37-07:00,5.1194911003113,2,versionA_stim.csv,VC_VersionB.csv,"Version B","Version B",ROOT,PLANT,Study1,F,13,62,Test,User,-,,Recall,Recall2,4823,tree,22.222222222222,4081,4627,0,0,,,1
w10039021,cem4e8e9hp,Nick_Dissertation_EX1b,1,311,2020-04-20T03:05:43-07:00,5.4067349433899,2,versionA_stim.csv,VC_VersionB.csv,"Version B","Version B",DRINK,SIP,Study1,B,27,20,Test,User,-,,Recall,Recall2,5162,si[,66.666666666667,4030,4755,0,0,,,1
w10039021,cem4e8e9hp,Nick_Dissertation_EX1b,1,312,2020-04-20T03:05:46-07:00,3.8630459308624,2,versionA_stim.csv,VC_VersionB.csv,"Version B","Version B",BUG,WASP,Study1,B,32,29,Test,User,-,,Recall,Recall2,3609,bite,0,2962,3432,0,0,,,1
w10039021,cem4e8e9hp,Nick_Dissertation_EX1b,1,313,2020-04-20T03:05:54-07:00,7.980583190918,2,versionA_stim.csv,VC_VersionB.csv,"Version B","Version B",LOCATION,SITE,Study1,S,48,37,Test,User,-,,Recall,Recall2,7730,address,18.181818181818,6087,7243,0,0,,,1
w10039021,cem4e8e9hp,Nick_Dissertation_EX1b,1,314,2020-04-20T03:05:58-07:00,3.190328836441,2,versionA_stim.csv,VC_VersionB.csv,"Version B","Version B",EDITOR,NEWS,Study1,F,10,70,Test,User,-,,Recall,Recall2,2930,writer,20,1876,2674,0,0,,,1
w10039021,cem4e8e9hp,Nick_Dissertation_EX1b,1,315,2020-04-20T03:06:03-07:00,5.4989440441132,2,versionA_stim.csv,VC_VersionB.csv,"Version B","Version B",VALLEY,ADD,Study1,U,82,40,Test,User,-,,Recall,Recall2,5229,vine,0,2644,5060,0,0,,,1
w10039021,cem4e8e9hp,Nick_Dissertation_EX1b,1,316,2020-04-20T03:06:06-07:00,2.6559009552002,2,versionA_stim.csv,VC_VersionB.csv,"Version B","Version B",PAW,DOG,Study1,F,15,57,Test,User,-,,Recall,Recall2,2394,patrol,22.222222222222,1326,2165,0,0,,,1
w10039021,cem4e8e9hp,Nick_Dissertation_EX1b,1,317,2020-04-20T03:06:08-07:00,1.9737479686737,2,versionA_stim.csv,VC_VersionB.csv,"Version B","Version B",HONEY,BEE,Study1,S,63,61,Test,User,-,,Recall,Recall2,1672,bee,100,1139,1508,1,1,,,1
w10039021,cem4e8e9hp,Nick_Dissertation_EX1b,1,318,2020-04-20T03:06:13-07:00,5.7429981231689,2,versionA_stim.csv,VC_VersionB.csv,"Version B","Version B",TUNA,FISH,Study1,F,25,72,Test,User,-,,Recall,Recall2,5472,fish,100,4817,5262,1,1,,,1
w10039021,cem4e8e9hp,Nick_Dissertation_EX1b,1,319,2020-04-20T03:06:17-07:00,3.1907639503479,2,versionA_stim.csv,VC_VersionB.csv,"Version B","Version B",GREAT,FANTASTIC,Study1,B,35,10,Test,User,-,,Recall,Recall2,2901,amazing,37.5,1713,2767,0,0,,,1
w10039021,cem4e8e9hp,Nick_Dissertation_EX1b,1,320,2020-04-20T03:06:21-07:00,4.5283119678497,2,versionA_stim.csv,VC_VersionB.csv,"Version B","Version B",WAY,OUT,Study1,F,16,24,Test,User,-,,Recall,Recall2,4249,one,33.333333333333,3830,4075,0,0,,,1
w10039021,cem4e8e9hp,Nick_Dissertation_EX1b,1,321,2020-04-20T03:06:24-07:00,2.8742680549622,2,versionA_stim.csv,VC_VersionB.csv,"Version B","Version B",TAKE,SEIZE,Study1,B,29,32,Test,User,-,,Recall,Recall2,2611,away,0,1235,2419,0,0,,,1
w10039021,cem4e8e9hp,Nick_Dissertation_EX1b,1,322,2020-04-20T03:06:28-07:00,4.4876399040222,2,versionA_stim.csv,VC_VersionB.csv,"Version B","Version B",DIGESTION,STOMACH,Study1,F,7,13,Test,User,-,,Recall,Recall2,4198,ingest,30.769230769231,2540,3624,0,0,,,1
w10039021,cem4e8e9hp,Nick_Dissertation_EX1b,1,323,2020-04-20T03:06:33-07:00,4.7208549976349,2,versionA_stim.csv,VC_VersionB.csv,"Version B","Version B",HEIGHT,GROWTH,Study1,B,30,49,Test,User,-,,Recall,Recall2,4450,length,50,3033,4170,0,0,,,1
w10039021,cem4e8e9hp,Nick_Dissertation_EX1b,1,324,2020-04-20T03:06:38-07:00,4.6876840591431,2,versionA_stim.csv,VC_VersionB.csv,"Version B","Version B",WAGE,MONEY,Study1,F,8,47,Test,User,-,,Recall,Recall2,4428,money,100,2973,4241,1,1,,,1
w10039021,cem4e8e9hp,Nick_Dissertation_EX1b,1,325,2020-04-20T03:06:42-07:00,4.152626991272,2,versionA_stim.csv,VC_VersionB.csv,"Version B","Version B",CLOTHES,ATTIRE,Study1,B,43,53,Test,User,-,,Recall,Recall2,3884,shoes,18.181818181818,3274,3742,0,0,,,1
w10039021,cem4e8e9hp,Nick_Dissertation_EX1b,1,326,2020-04-20T03:06:45-07:00,2.7218170166016,2,versionA_stim.csv,VC_VersionB.csv,"Version B","Version B",HAPPY,CAR,Study1,U,77,31,Test,User,-,,Recall,Recall2,2441,angry,50,1079,2241,0,0,,,1
w10039021,cem4e8e9hp,Nick_Dissertation_EX1b,1,327,2020-04-20T03:06:47-07:00,2.0265200138092,2,versionA_stim.csv,VC_VersionB.csv,"Version B","Version B",REVOLUTION,WAR,Study1,F,20,15,Test,User,-,,Recall,Recall2,1780,,0,-1,-1,0,0,,,1
w10039021,cem4e8e9hp,Nick_Dissertation_EX1b,1,328,2020-04-20T03:06:51-07:00,4.2096869945526,2,versionA_stim.csv,VC_VersionB.csv,"Version B","Version B",CREDIT,CARD,Study1,F,23,50,Test,User,-,,Recall,Recall2,3956,score,44.444444444444,3212,3831,0,0,,,1
w10039021,cem4e8e9hp,Nick_Dissertation_EX1b,1,329,2020-04-20T03:06:56-07:00,4.940043926239,2,versionA_stim.csv,VC_VersionB.csv,"Version B","Version B",MACHINE,POSITION,Study1,U,76,9,Test,User,-,,Recall,Recall2,4679,gun,18.181818181818,4143,4453,0,0,,,1
w10039021,cem4e8e9hp,Nick_Dissertation_EX1b,1,330,2020-04-20T03:07:00-07:00,4.0184621810913,2,versionA_stim.csv,VC_VersionB.csv,"Version B","Version B",SOON,BELT,Study1,U,70,23,Test,User,-,,Recall,Recall2,3767,later,44.444444444444,3127,3626,0,0,,,1
w10039021,cem4e8e9hp,Nick_Dissertation_EX1b,1,331,2020-04-20T03:07:02-07:00,2.2881128787994,2,versionA_stim.csv,VC_VersionB.csv,"Version B","Version B",DUE,ASSIGNMENT,Study1,S,46,83,Test,User,-,,Recall,Recall2,2030,date,28.571428571429,1325,1777,0,0,,,1
