Username,ID,ExperimentName,Session,Trial,Date,TimeDif,"Condition Number","Stimuli File","Order File","Condition Description","Condition Notes",Stimuli*Cue,Stimuli*Answer,Stimuli*Shuffle,"Stimuli*Stimuli Notes",Stimuli*Value,Procedure*Item,"Procedure*Trial Type","Procedure*Max Time","Procedure*Min Time",Procedure*Text,"Procedure*Procedure Notes",Procedure*Shuffle,Response*RT,Response*Response,Response*Accuracy,Response*RTfirst,Response*RTlast,Response*strictAcc,Response*lenientAcc,Response*focus,Response*JOL,Response*Focus
5c5db292be38480001141cf8,qaevpofiew,"Deep vs Shallow",1,1,2020-07-08T14:31:35-07:00,7.4767248630524,5,versionA_stim.csv,VC_VersionA.csv,"Version A","VC Version A",,,,,,0,Instruct,-,5,"In this section, you will be presented with a series of word pairs.",Initial_Instruct,Instruct1,6754,,,-1,-1,,,,,1
5c5db292be38480001141cf8,qaevpofiew,"Deep vs Shallow",1,2,2020-07-08T14:31:53-07:00,18.312927961349,5,versionA_stim.csv,VC_VersionA.csv,"Version A","VC Version A",,,,,,0,Instruct,-,5,"As you study, you will be asked to count the total number of vowels (a, e, i, o, u) within the two words. Please note that y is not considered a vowel.",,Instruct13,17725,,,-1,-1,,,,,0.931
5c5db292be38480001141cf8,qaevpofiew,"Deep vs Shallow",1,3,2020-07-08T14:32:10-07:00,16.134525060654,5,versionA_stim.csv,VC_VersionA.csv,"Version A","VC Version A",,,,,,0,Instruct,-,10,"For example, if you are given the pair CAT - DOG, CAT has one vowel and DOG has one vowel. The correct response would be 2 (1 + 1 = 2). After typing the number, you will press ENTER to move to the next pair.",,Instruct14,15280,,,-1,-1,,,,,0.857
5c5db292be38480001141cf8,qaevpofiew,"Deep vs Shallow",1,4,2020-07-08T14:32:13-07:00,3.6478810310364,5,versionA_stim.csv,VC_VersionA.csv,"Version A","VC Version A",,,,,,0,Instruct,User,-,"You will now begin the study. Press Enter when you are ready to begin.",,Instruct16,2803,,,-1,-1,,,,,1
5c5db292be38480001141cf8,qaevpofiew,"Deep vs Shallow",1,5,2020-07-08T14:32:22-07:00,8.7677290439606,5,versionA_stim.csv,VC_VersionA.csv,"Version A","VC Version A",BASEBALL,CATCHER,BUFFER1,Buffer,2,2,VC,User,-,"How many vowels are the two words combined?|Type your response below and then press Enter.",Study/JOL,BUFFER,8193,,,7442,7442,,,,5,1
5c5db292be38480001141cf8,qaevpofiew,"Deep vs Shallow",1,6,2020-07-08T14:32:26-07:00,4.4869799613953,5,versionA_stim.csv,VC_VersionA.csv,"Version A","VC Version A",SPACE,JAM,BUFFER1,Buffer,5,6,VC,User,-,"How many vowels are the two words combined?|Type your response below and then press Enter.",Study/JOL,BUFFER,3901,,,3023,3023,,,,3,1
5c5db292be38480001141cf8,qaevpofiew,"Deep vs Shallow",1,7,2020-07-08T14:32:30-07:00,3.8788681030273,5,versionA_stim.csv,VC_VersionA.csv,"Version A","VC Version A",TREES,GREEN,BUFFER1,Buffer,1,5,VC,User,-,"How many vowels are the two words combined?|Type your response below and then press Enter.",Study/JOL,BUFFER,3280,,,2393,2393,,,,4,1
5c5db292be38480001141cf8,qaevpofiew,"Deep vs Shallow",1,8,2020-07-08T14:32:41-07:00,10.228653907776,5,versionA_stim.csv,VC_VersionA.csv,"Version A","VC Version A",PEANUT,BUTTER,BUFFER1,Buffer,3,4,VC,User,-,"How many vowels are the two words combined?|Type your response below and then press Enter.",Study/JOL,BUFFER,9652,,,7231,8562,,,,4,1
5c5db292be38480001141cf8,qaevpofiew,"Deep vs Shallow",1,9,2020-07-08T14:32:47-07:00,6.7512810230255,5,versionA_stim.csv,VC_VersionA.csv,"Version A","VC Version A",SCARE,HIDE,BUFFER1,Buffer,4,3,VC,User,-,"How many vowels are the two words combined?|Type your response below and then press Enter.",Study/JOL,BUFFER,5898,,,2950,4767,,,,4,1
5c5db292be38480001141cf8,qaevpofiew,"Deep vs Shallow",1,10,2020-07-08T14:32:52-07:00,4.3762159347534,5,versionA_stim.csv,VC_VersionA.csv,"Version A","VC Version A",SOON,BELT,Study1,U,70,58,VC,User,-,"How many vowels are the two words combined?|Type your response below and then press Enter.",Study/JOL,"Study Phase",3286,,,2452,2452,,,,3,1
5c5db292be38480001141cf8,qaevpofiew,"Deep vs Shallow",1,11,2020-07-08T14:32:58-07:00,6.2644259929657,5,versionA_stim.csv,VC_VersionA.csv,"Version A","VC Version A",DELINQUENT,BAD,Study1,F,6,85,VC,User,-,"How many vowels are the two words combined?|Type your response below and then press Enter.",Study/JOL,"Study Phase",5688,,,5244,5244,,,,4,1
5c5db292be38480001141cf8,qaevpofiew,"Deep vs Shallow",1,12,2020-07-08T14:33:03-07:00,5.5406279563904,5,versionA_stim.csv,VC_VersionA.csv,"Version A","VC Version A",CHISEL,HAMMER,Study1,F,9,84,VC,User,-,"How many vowels are the two words combined?|Type your response below and then press Enter.",Study/JOL,"Study Phase",4956,,,3933,3933,,,,4,1
5c5db292be38480001141cf8,qaevpofiew,"Deep vs Shallow",1,13,2020-07-08T14:33:07-07:00,3.9830121994019,5,versionA_stim.csv,VC_VersionA.csv,"Version A","VC Version A",GRILL,BAR,Study1,S,52,37,VC,User,-,"How many vowels are the two words combined?|Type your response below and then press Enter.",Study/JOL,"Study Phase",3384,,,2320,2320,,,,2,1
5c5db292be38480001141cf8,qaevpofiew,"Deep vs Shallow",1,14,2020-07-08T14:33:19-07:00,11.09436583519,5,versionA_stim.csv,VC_VersionA.csv,"Version A","VC Version A",BATHROOM,TOILET,Study1,S,58,68,VC,User,-,"How many vowels are the two words combined?|Type your response below and then press Enter.",Study/JOL,"Study Phase",10510,,,5299,10056,,,,6,1
5c5db292be38480001141cf8,qaevpofiew,"Deep vs Shallow",1,15,2020-07-08T14:33:28-07:00,9.0450370311737,5,versionA_stim.csv,VC_VersionA.csv,"Version A","VC Version A",PUSHER,CLUTTER,Study1,U,66,61,VC,User,-,"How many vowels are the two words combined?|Type your response below and then press Enter.",Study/JOL,"Study Phase",8432,,,5466,7287,,,,4,1
5c5db292be38480001141cf8,qaevpofiew,"Deep vs Shallow",1,16,2020-07-08T14:33:53-07:00,25.222566127777,5,versionA_stim.csv,VC_VersionA.csv,"Version A","VC Version A",ARCHITECTURE,DESIGN,Study1,S,51,19,VC,User,-,"How many vowels are the two words combined?|Type your response below and then press Enter.",Study/JOL,"Study Phase",24602,,,24048,24048,,,,6,1
5c5db292be38480001141cf8,qaevpofiew,"Deep vs Shallow",1,17,2020-07-08T14:33:58-07:00,5.0317847728729,5,versionA_stim.csv,VC_VersionA.csv,"Version A","VC Version A",SLEEP,DROWSY,Study1,B,41,82,VC,User,-,"How many vowels are the two words combined?|Type your response below and then press Enter.",Study/JOL,"Study Phase",4440,,,3691,3691,,,,3,1
5c5db292be38480001141cf8,qaevpofiew,"Deep vs Shallow",1,18,2020-07-08T14:34:02-07:00,4.2205781936646,5,versionA_stim.csv,VC_VersionA.csv,"Version A","VC Version A",HERD,COW,Study1,F,22,64,VC,User,-,"How many vowels are the two words combined?|Type your response below and then press Enter.",Study/JOL,"Study Phase",3638,,,2868,2868,,,,2,1
5c5db292be38480001141cf8,qaevpofiew,"Deep vs Shallow",1,19,2020-07-08T14:34:12-07:00,9.4885768890381,5,versionA_stim.csv,VC_VersionA.csv,"Version A","VC Version A",MEANING,DEFINITION,Study1,S,62,45,VC,User,-,"How many vowels are the two words combined?|Type your response below and then press Enter.",Study/JOL,"Study Phase",8900,,,6477,7881,,,,6,1
5c5db292be38480001141cf8,qaevpofiew,"Deep vs Shallow",1,20,2020-07-08T14:34:17-07:00,5.0558860301971,5,versionA_stim.csv,VC_VersionA.csv,"Version A","VC Version A",BRIDGE,WATER,Study1,F,18,72,VC,User,-,"How many vowels are the two words combined?|Type your response below and then press Enter.",Study/JOL,"Study Phase",4402,,,3568,3568,,,,4,1
5c5db292be38480001141cf8,qaevpofiew,"Deep vs Shallow",1,21,2020-07-08T14:34:24-07:00,7.1311569213867,5,versionA_stim.csv,VC_VersionA.csv,"Version A","VC Version A",SENTENCE,WORD,Study1,B,31,86,VC,User,-,"How many vowels are the two words combined?|Type your response below and then press Enter.",Study/JOL,"Study Phase",6518,,,4277,4277,,,,4,1
5c5db292be38480001141cf8,qaevpofiew,"Deep vs Shallow",1,22,2020-07-08T14:34:29-07:00,5.0448341369629,5,versionA_stim.csv,VC_VersionA.csv,"Version A","VC Version A",LIFT,WOMAN,Study1,U,69,30,VC,User,-,"How many vowels are the two words combined?|Type your response below and then press Enter.",Study/JOL,"Study Phase",4465,,,3807,3807,,,,3,1
5c5db292be38480001141cf8,qaevpofiew,"Deep vs Shallow",1,23,2020-07-08T14:34:42-07:00,13.260203838348,5,versionA_stim.csv,VC_VersionA.csv,"Version A","VC Version A",STRONG,ACCIDENT,Study1,U,80,71,VC,User,-,"How many vowels are the two words combined?|Type your response below and then press Enter.",Study/JOL,"Study Phase",12669,,,11763,11763,,,,4,0.453
5c5db292be38480001141cf8,qaevpofiew,"Deep vs Shallow",1,24,2020-07-08T14:34:48-07:00,5.5033850669861,5,versionA_stim.csv,VC_VersionA.csv,"Version A","VC Version A",DISCOVER,FLOOR,Study1,U,71,26,VC,User,-,"How many vowels are the two words combined?|Type your response below and then press Enter.",Study/JOL,"Study Phase",4649,,,3110,3110,,,,4,1
5c5db292be38480001141cf8,qaevpofiew,"Deep vs Shallow",1,25,2020-07-08T14:34:53-07:00,5.8446791172028,5,versionA_stim.csv,VC_VersionA.csv,"Version A","VC Version A",REVOLUTION,WAR,Study1,F,20,75,VC,User,-,"How many vowels are the two words combined?|Type your response below and then press Enter.",Study/JOL,"Study Phase",5241,,,4619,4619,,,,5,1
5c5db292be38480001141cf8,qaevpofiew,"Deep vs Shallow",1,26,2020-07-08T14:34:59-07:00,5.816428899765,5,versionA_stim.csv,VC_VersionA.csv,"Version A","VC Version A",WINE,CHEESE,Study1,S,57,21,VC,User,-,"How many vowels are the two words combined?|Type your response below and then press Enter.",Study/JOL,"Study Phase",5234,,,3173,4293,,,,5,1
5c5db292be38480001141cf8,qaevpofiew,"Deep vs Shallow",1,27,2020-07-08T14:35:05-07:00,5.8620150089264,5,versionA_stim.csv,VC_VersionA.csv,"Version A","VC Version A",HEIGHT,GROWTH,Study1,B,30,56,VC,User,-,"How many vowels are the two words combined?|Type your response below and then press Enter.",Study/JOL,"Study Phase",5274,,,4285,4285,,,,3,1
5c5db292be38480001141cf8,qaevpofiew,"Deep vs Shallow",1,28,2020-07-08T14:35:10-07:00,4.5921881198883,5,versionA_stim.csv,VC_VersionA.csv,"Version A","VC Version A",BEGIN,END,Study1,S,54,70,VC,User,-,"How many vowels are the two words combined?|Type your response below and then press Enter.",Study/JOL,"Study Phase",4010,,,2879,2879,,,,3,1
5c5db292be38480001141cf8,qaevpofiew,"Deep vs Shallow",1,29,2020-07-08T14:35:14-07:00,4.0605428218842,5,versionA_stim.csv,VC_VersionA.csv,"Version A","VC Version A",HONEY,BEE,Study1,S,63,44,VC,User,-,"How many vowels are the two words combined?|Type your response below and then press Enter.",Study/JOL,"Study Phase",3470,,,2743,2743,,,,4,1
5c5db292be38480001141cf8,qaevpofiew,"Deep vs Shallow",1,30,2020-07-08T14:35:17-07:00,3.6584391593933,5,versionA_stim.csv,VC_VersionA.csv,"Version A","VC Version A",FIX,HAND,Study1,U,75,54,VC,User,-,"How many vowels are the two words combined?|Type your response below and then press Enter.",Study/JOL,"Study Phase",3072,,,2532,2532,,,,2,1
5c5db292be38480001141cf8,qaevpofiew,"Deep vs Shallow",1,31,2020-07-08T14:35:24-07:00,6.6340229511261,5,versionA_stim.csv,VC_VersionA.csv,"Version A","VC Version A",LAW,ATTORNEY,Study1,B,34,65,VC,User,-,"How many vowels are the two words combined?|Type your response below and then press Enter.",Study/JOL,"Study Phase",6044,,,4996,4996,,,,4,1
5c5db292be38480001141cf8,qaevpofiew,"Deep vs Shallow",1,32,2020-07-08T14:35:28-07:00,4.0055260658264,5,versionA_stim.csv,VC_VersionA.csv,"Version A","VC Version A",HAPPY,CAR,Study1,U,77,81,VC,User,-,"How many vowels are the two words combined?|Type your response below and then press Enter.",Study/JOL,"Study Phase",3411,,,2920,2920,,,,2,1
5c5db292be38480001141cf8,qaevpofiew,"Deep vs Shallow",1,33,2020-07-08T14:35:32-07:00,4.1574809551239,5,versionA_stim.csv,VC_VersionA.csv,"Version A","VC Version A",POP,SODA,Study1,S,56,20,VC,User,-,"How many vowels are the two words combined?|Type your response below and then press Enter.",Study/JOL,"Study Phase",3565,,,3021,3021,,,,3,1
5c5db292be38480001141cf8,qaevpofiew,"Deep vs Shallow",1,34,2020-07-08T14:35:38-07:00,5.8302609920502,5,versionA_stim.csv,VC_VersionA.csv,"Version A","VC Version A",WORK,CHORE,Study1,B,39,69,VC,User,-,"How many vowels are the two words combined?|Type your response below and then press Enter.",Study/JOL,"Study Phase",5245,,,3767,3767,,,,3,1
5c5db292be38480001141cf8,qaevpofiew,"Deep vs Shallow",1,35,2020-07-08T14:35:46-07:00,7.6712069511414,5,versionA_stim.csv,VC_VersionA.csv,"Version A","VC Version A",PARK,HUNGRY,Study1,U,68,8,VC,User,-,"How many vowels are the two words combined?|Type your response below and then press Enter.",Study/JOL,"Study Phase",7082,,,6286,6286,,,,2,1
5c5db292be38480001141cf8,qaevpofiew,"Deep vs Shallow",1,36,2020-07-08T14:35:56-07:00,10.162409067154,5,versionA_stim.csv,VC_VersionA.csv,"Version A","VC Version A",TUNA,FISH,Study1,F,25,29,VC,User,-,"How many vowels are the two words combined?|Type your response below and then press Enter.",Study/JOL,"Study Phase",9497,,,8286,8286,,,,3,0.667
5c5db292be38480001141cf8,qaevpofiew,"Deep vs Shallow",1,37,2020-07-08T14:36:02-07:00,6.0001080036163,5,versionA_stim.csv,VC_VersionA.csv,"Version A","VC Version A",TRIAL,JURY,Study1,S,50,77,VC,User,-,"How many vowels are the two words combined?|Type your response below and then press Enter.",Study/JOL,"Study Phase",5385,,,4594,4594,,,,3,1
5c5db292be38480001141cf8,qaevpofiew,"Deep vs Shallow",1,38,2020-07-08T14:36:05-07:00,3.0727770328522,5,versionA_stim.csv,VC_VersionA.csv,"Version A","VC Version A",PAW,DOG,Study1,F,15,47,VC,User,-,"How many vowels are the two words combined?|Type your response below and then press Enter.",Study/JOL,"Study Phase",2475,,,1984,1984,,,,2,1
5c5db292be38480001141cf8,qaevpofiew,"Deep vs Shallow",1,39,2020-07-08T14:36:10-07:00,4.60786485672,5,versionA_stim.csv,VC_VersionA.csv,"Version A","VC Version A",SMELL,STENCH,Study1,B,42,13,VC,User,-,"How many vowels are the two words combined?|Type your response below and then press Enter.",Study/JOL,"Study Phase",4018,,,3163,3163,,,,2,1
5c5db292be38480001141cf8,qaevpofiew,"Deep vs Shallow",1,40,2020-07-08T14:36:14-07:00,4.383563041687,5,versionA_stim.csv,VC_VersionA.csv,"Version A","VC Version A",GEOLOGY,ROCK,Study1,F,19,83,VC,User,-,"How many vowels are the two words combined?|Type your response below and then press Enter.",Study/JOL,"Study Phase",3794,,,3223,3223,,,,4,1
5c5db292be38480001141cf8,qaevpofiew,"Deep vs Shallow",1,41,2020-07-08T14:36:17-07:00,3.3977949619293,5,versionA_stim.csv,VC_VersionA.csv,"Version A","VC Version A",TAKE,SEIZE,Study1,B,29,36,VC,User,-,"How many vowels are the two words combined?|Type your response below and then press Enter.",Study/JOL,"Study Phase",2815,,,2350,2350,,,,4,1
5c5db292be38480001141cf8,qaevpofiew,"Deep vs Shallow",1,42,2020-07-08T14:36:24-07:00,6.311017036438,5,versionA_stim.csv,VC_VersionA.csv,"Version A","VC Version A",DRINK,SIP,Study1,B,27,50,VC,User,-,"How many vowels are the two words combined?|Type your response below and then press Enter.",Study/JOL,"Study Phase",5726,,,4887,4887,,,,2,1
5c5db292be38480001141cf8,qaevpofiew,"Deep vs Shallow",1,43,2020-07-08T14:36:29-07:00,5.1200070381165,5,versionA_stim.csv,VC_VersionA.csv,"Version A","VC Version A",LETTUCE,SALAD,Study1,S,59,14,VC,User,-,"How many vowels are the two words combined?|Type your response below and then press Enter.",Study/JOL,"Study Phase",4546,,,3343,3343,,,,4,1
5c5db292be38480001141cf8,qaevpofiew,"Deep vs Shallow",1,44,2020-07-08T14:36:33-07:00,4.4068739414215,5,versionA_stim.csv,VC_VersionA.csv,"Version A","VC Version A",SHOE,FOOT,Study1,S,60,78,VC,User,-,"How many vowels are the two words combined?|Type your response below and then press Enter.",Study/JOL,"Study Phase",3810,,,2803,2803,,,,4,1
5c5db292be38480001141cf8,qaevpofiew,"Deep vs Shallow",1,45,2020-07-08T14:36:39-07:00,5.7522840499878,5,versionA_stim.csv,VC_VersionA.csv,"Version A","VC Version A",PAST,FUTURE,Study1,S,61,18,VC,User,-,"How many vowels are the two words combined?|Type your response below and then press Enter.",Study/JOL,"Study Phase",5169,,,4235,4235,,,,4,1
5c5db292be38480001141cf8,qaevpofiew,"Deep vs Shallow",1,46,2020-07-08T14:36:43-07:00,3.9386918544769,5,versionA_stim.csv,VC_VersionA.csv,"Version A","VC Version A",BUG,WASP,Study1,B,32,73,VC,User,-,"How many vowels are the two words combined?|Type your response below and then press Enter.",Study/JOL,"Study Phase",3369,,,2890,2890,,,,2,1
5c5db292be38480001141cf8,qaevpofiew,"Deep vs Shallow",1,47,2020-07-08T14:36:48-07:00,5.3753311634064,5,versionA_stim.csv,VC_VersionA.csv,"Version A","VC Version A",DISCUSSION,TALK,Study1,F,21,63,VC,User,-,"How many vowels are the two words combined?|Type your response below and then press Enter.",Study/JOL,"Study Phase",4793,,,4190,4190,,,,4,1
5c5db292be38480001141cf8,qaevpofiew,"Deep vs Shallow",1,48,2020-07-08T14:36:53-07:00,4.6943950653076,5,versionA_stim.csv,VC_VersionA.csv,"Version A","VC Version A",KING,VASE,Study1,U,85,32,VC,User,-,"How many vowels are the two words combined?|Type your response below and then press Enter.",Study/JOL,"Study Phase",4080,,,3133,3133,,,,3,1
5c5db292be38480001141cf8,qaevpofiew,"Deep vs Shallow",1,49,2020-07-08T14:37:23-07:00,29.600561857224,5,versionA_stim.csv,VC_VersionA.csv,"Version A","VC Version A",SUGAR,RIDDLE,Study1,U,81,49,VC,User,-,"How many vowels are the two words combined?|Type your response below and then press Enter.",Study/JOL,"Study Phase",29005,,,28449,28449,,,,4,0.574
5c5db292be38480001141cf8,qaevpofiew,"Deep vs Shallow",1,50,2020-07-08T14:37:27-07:00,4.3987529277802,5,versionA_stim.csv,VC_VersionA.csv,"Version A","VC Version A",BALL,RACKET,Study1,B,38,40,VC,User,-,"How many vowels are the two words combined?|Type your response below and then press Enter.",Study/JOL,"Study Phase",3545,,,3208,3208,,,,3,1
5c5db292be38480001141cf8,qaevpofiew,"Deep vs Shallow",1,51,2020-07-08T14:37:33-07:00,5.6857581138611,5,versionA_stim.csv,VC_VersionA.csv,"Version A","VC Version A",FULL,ENOUGH,Study1,B,26,35,VC,User,-,"How many vowels are the two words combined?|Type your response below and then press Enter.",Study/JOL,"Study Phase",5095,,,4627,4627,,,,3,1
5c5db292be38480001141cf8,qaevpofiew,"Deep vs Shallow",1,52,2020-07-08T14:37:37-07:00,4.3255019187927,5,versionA_stim.csv,VC_VersionA.csv,"Version A","VC Version A",HOT,CHILI,Study1,B,37,66,VC,User,-,"How many vowels are the two words combined?|Type your response below and then press Enter.",Study/JOL,"Study Phase",2732,,,2331,2331,,,,3,1
5c5db292be38480001141cf8,qaevpofiew,"Deep vs Shallow",1,53,2020-07-08T14:37:40-07:00,3.5517549514771,5,versionA_stim.csv,VC_VersionA.csv,"Version A","VC Version A",WAGE,MONEY,Study1,F,8,59,VC,User,-,"How many vowels are the two words combined?|Type your response below and then press Enter.",Study/JOL,"Study Phase",2967,,,2559,2559,,,,4,1
5c5db292be38480001141cf8,qaevpofiew,"Deep vs Shallow",1,54,2020-07-08T14:37:48-07:00,7.0713331699371,5,versionA_stim.csv,VC_VersionA.csv,"Version A","VC Version A",DEBATE,SIGHT,Study1,U,73,27,VC,User,-,"How many vowels are the two words combined?|Type your response below and then press Enter.",Study/JOL,"Study Phase",6487,,,3025,6087,,,,4,1
5c5db292be38480001141cf8,qaevpofiew,"Deep vs Shallow",1,55,2020-07-08T14:37:57-07:00,9.2878458499908,5,versionA_stim.csv,VC_VersionA.csv,"Version A","VC Version A",NUMBER,AMOUNT,Study1,S,47,12,VC,User,-,"How many vowels are the two words combined?|Type your response below and then press Enter.",Study/JOL,"Study Phase",8715,,,6173,7549,,,,4,1
5c5db292be38480001141cf8,qaevpofiew,"Deep vs Shallow",1,56,2020-07-08T14:38:01-07:00,3.9537601470947,5,versionA_stim.csv,VC_VersionA.csv,"Version A","VC Version A",CREDIT,CARD,Study1,F,23,25,VC,User,-,"How many vowels are the two words combined?|Type your response below and then press Enter.",Study/JOL,"Study Phase",3332,,,2808,2808,,,,3,1
5c5db292be38480001141cf8,qaevpofiew,"Deep vs Shallow",1,57,2020-07-08T14:38:04-07:00,3.4093999862671,5,versionA_stim.csv,VC_VersionA.csv,"Version A","VC Version A",SWAN,BIRD,Study1,F,14,62,VC,User,-,"How many vowels are the two words combined?|Type your response below and then press Enter.",Study/JOL,"Study Phase",2571,,,2137,2137,,,,2,1
5c5db292be38480001141cf8,qaevpofiew,"Deep vs Shallow",1,58,2020-07-08T14:38:08-07:00,4.11243891716,5,versionA_stim.csv,VC_VersionA.csv,"Version A","VC Version A",FIRE,BLAZE,Study1,B,45,39,VC,User,-,"How many vowels are the two words combined?|Type your response below and then press Enter.",Study/JOL,"Study Phase",3528,,,3070,3071,,,,4,1
5c5db292be38480001141cf8,qaevpofiew,"Deep vs Shallow",1,59,2020-07-08T14:38:14-07:00,5.4205651283264,5,versionA_stim.csv,VC_VersionA.csv,"Version A","VC Version A",DEATH,BUSINESS,Study1,U,72,16,VC,User,-,"How many vowels are the two words combined?|Type your response below and then press Enter.",Study/JOL,"Study Phase",4830,,,4340,4340,,,,5,1
5c5db292be38480001141cf8,qaevpofiew,"Deep vs Shallow",1,60,2020-07-08T14:38:17-07:00,3.3810338973999,5,versionA_stim.csv,VC_VersionA.csv,"Version A","VC Version A",BLOW,WIND,Study1,S,55,53,VC,User,-,"How many vowels are the two words combined?|Type your response below and then press Enter.",Study/JOL,"Study Phase",2795,,,2306,2306,,,,2,1
5c5db292be38480001141cf8,qaevpofiew,"Deep vs Shallow",1,61,2020-07-08T14:38:22-07:00,4.6836729049683,5,versionA_stim.csv,VC_VersionA.csv,"Version A","VC Version A",LOCATION,SITE,Study1,S,48,79,VC,User,-,"How many vowels are the two words combined?|Type your response below and then press Enter.",Study/JOL,"Study Phase",4101,,,3808,3808,,,,4,1
5c5db292be38480001141cf8,qaevpofiew,"Deep vs Shallow",1,62,2020-07-08T14:38:26-07:00,4.6785051822662,5,versionA_stim.csv,VC_VersionA.csv,"Version A","VC Version A",GREAT,FANTASTIC,Study1,B,35,23,VC,User,-,"How many vowels are the two words combined?|Type your response below and then press Enter.",Study/JOL,"Study Phase",4062,,,3634,3634,,,,5,1
5c5db292be38480001141cf8,qaevpofiew,"Deep vs Shallow",1,63,2020-07-08T14:38:37-07:00,10.259162902832,5,versionA_stim.csv,VC_VersionA.csv,"Version A","VC Version A",DUE,ASSIGNMENT,Study1,S,46,57,VC,User,-,"How many vowels are the two words combined?|Type your response below and then press Enter.",Study/JOL,"Study Phase",9675,,,9316,9316,,,,4,0.673
5c5db292be38480001141cf8,qaevpofiew,"Deep vs Shallow",1,64,2020-07-08T14:38:42-07:00,4.9804630279541,5,versionA_stim.csv,VC_VersionA.csv,"Version A","VC Version A",ORCHID,FLOWER,Study1,F,24,46,VC,User,-,"How many vowels are the two words combined?|Type your response below and then press Enter.",Study/JOL,"Study Phase",4139,,,3597,3597,,,,4,1
5c5db292be38480001141cf8,qaevpofiew,"Deep vs Shallow",1,65,2020-07-08T14:38:48-07:00,6.4473969936371,5,versionA_stim.csv,VC_VersionA.csv,"Version A","VC Version A",KIDNEY,LIVER,Study1,S,53,60,VC,User,-,"How many vowels are the two words combined?|Type your response below and then press Enter.",Study/JOL,"Study Phase",5863,,,3639,5493,,,,3,1
5c5db292be38480001141cf8,qaevpofiew,"Deep vs Shallow",1,66,2020-07-08T14:38:52-07:00,3.407557964325,5,versionA_stim.csv,VC_VersionA.csv,"Version A","VC Version A",VALLEY,ADD,Study1,U,82,67,VC,User,-,"How many vowels are the two words combined?|Type your response below and then press Enter.",Study/JOL,"Study Phase",2819,,,2368,2368,,,,3,1
5c5db292be38480001141cf8,qaevpofiew,"Deep vs Shallow",1,67,2020-07-08T14:38:55-07:00,3.4860401153564,5,versionA_stim.csv,VC_VersionA.csv,"Version A","VC Version A",DARK,CAVE,Study1,B,28,41,VC,User,-,"How many vowels are the two words combined?|Type your response below and then press Enter.",Study/JOL,"Study Phase",2903,,,2498,2498,,,,3,1
5c5db292be38480001141cf8,qaevpofiew,"Deep vs Shallow",1,68,2020-07-08T14:39:01-07:00,5.7385318279266,5,versionA_stim.csv,VC_VersionA.csv,"Version A","VC Version A",PLANE,PILOT,Study1,B,44,76,VC,User,-,"How many vowels are the two words combined?|Type your response below and then press Enter.",Study/JOL,"Study Phase",5156,,,2594,4788,,,,4,1
5c5db292be38480001141cf8,qaevpofiew,"Deep vs Shallow",1,69,2020-07-08T14:39:08-07:00,6.8897821903229,5,versionA_stim.csv,VC_VersionA.csv,"Version A","VC Version A",KEY,LATCH,Study1,B,36,28,VC,User,-,"How many vowels are the two words combined?|Type your response below and then press Enter.",Study/JOL,"Study Phase",6307,,,4076,5882,,,,2,1
5c5db292be38480001141cf8,qaevpofiew,"Deep vs Shallow",1,70,2020-07-08T14:39:19-07:00,11.168901920319,5,versionA_stim.csv,VC_VersionA.csv,"Version A","VC Version A",HYGIENE,CLEAN,Study1,F,17,51,VC,User,-,"How many vowels are the two words combined?|Type your response below and then press Enter.",Study/JOL,"Study Phase",10455,,,10101,10101,,,,5,0.358
5c5db292be38480001141cf8,qaevpofiew,"Deep vs Shallow",1,71,2020-07-08T14:39:25-07:00,6.2677478790283,5,versionA_stim.csv,VC_VersionA.csv,"Version A","VC Version A",ARTERY,BRONZE,Study1,U,74,15,VC,User,-,"How many vowels are the two words combined?|Type your response below and then press Enter.",Study/JOL,"Study Phase",5415,,,5006,5006,,,,4,1
5c5db292be38480001141cf8,qaevpofiew,"Deep vs Shallow",1,72,2020-07-08T14:39:29-07:00,4.3676631450653,5,versionA_stim.csv,VC_VersionA.csv,"Version A","VC Version A",ART,LION,Study1,U,79,7,VC,User,-,"How many vowels are the two words combined?|Type your response below and then press Enter.",Study/JOL,"Study Phase",3762,,,3192,3192,,,,3,1
5c5db292be38480001141cf8,qaevpofiew,"Deep vs Shallow",1,73,2020-07-08T14:39:34-07:00,4.0260548591614,5,versionA_stim.csv,VC_VersionA.csv,"Version A","VC Version A",CIRCLE,ROUND,Study1,S,65,17,VC,User,-,"How many vowels are the two words combined?|Type your response below and then press Enter.",Study/JOL,"Study Phase",3446,,,3069,3069,,,,3,1
5c5db292be38480001141cf8,qaevpofiew,"Deep vs Shallow",1,74,2020-07-08T14:39:39-07:00,5.6269750595093,5,versionA_stim.csv,VC_VersionA.csv,"Version A","VC Version A",CASH,WOULD,Study1,U,83,11,VC,User,-,"How many vowels are the two words combined?|Type your response below and then press Enter.",Study/JOL,"Study Phase",5036,,,4086,4086,,,,2,1
5c5db292be38480001141cf8,qaevpofiew,"Deep vs Shallow",1,75,2020-07-08T14:39:42-07:00,3.0177640914917,5,versionA_stim.csv,VC_VersionA.csv,"Version A","VC Version A",WAY,OUT,Study1,F,16,31,VC,User,-,"How many vowels are the two words combined?|Type your response below and then press Enter.",Study/JOL,"Study Phase",2416,,,2015,2015,,,,2,1
5c5db292be38480001141cf8,qaevpofiew,"Deep vs Shallow",1,76,2020-07-08T14:39:48-07:00,6.2004499435425,5,versionA_stim.csv,VC_VersionA.csv,"Version A","VC Version A",HUNGER,FAMINE,Study1,B,40,52,VC,User,-,"How many vowels are the two words combined?|Type your response below and then press Enter.",Study/JOL,"Study Phase",5604,,,3501,5310,,,,5,1
5c5db292be38480001141cf8,qaevpofiew,"Deep vs Shallow",1,77,2020-07-08T14:39:53-07:00,5.0913949012756,5,versionA_stim.csv,VC_VersionA.csv,"Version A","VC Version A",ALLOW,TUCK,Study1,U,78,48,VC,User,-,"How many vowels are the two words combined?|Type your response below and then press Enter.",Study/JOL,"Study Phase",4518,,,2637,4134,,,,3,1
5c5db292be38480001141cf8,qaevpofiew,"Deep vs Shallow",1,78,2020-07-08T14:40:04-07:00,10.417906999588,5,versionA_stim.csv,VC_VersionA.csv,"Version A","VC Version A",MATH,DIVISION,Study1,B,33,55,VC,User,-,"How many vowels are the two words combined?|Type your response below and then press Enter.",Study/JOL,"Study Phase",9832,,,8080,8080,,,,4,1
5c5db292be38480001141cf8,qaevpofiew,"Deep vs Shallow",1,79,2020-07-08T14:40:11-07:00,6.7839231491089,5,versionA_stim.csv,VC_VersionA.csv,"Version A","VC Version A",MACHINE,POSITION,Study1,U,76,74,VC,User,-,"How many vowels are the two words combined?|Type your response below and then press Enter.",Study/JOL,"Study Phase",6173,,,5743,5743,,,,5,1
5c5db292be38480001141cf8,qaevpofiew,"Deep vs Shallow",1,80,2020-07-08T14:40:16-07:00,4.967414855957,5,versionA_stim.csv,VC_VersionA.csv,"Version A","VC Version A",HIDE,SICK,Study1,U,84,9,VC,User,-,"How many vowels are the two words combined?|Type your response below and then press Enter.",Study/JOL,"Study Phase",4377,,,2498,3961,,,,3,1
5c5db292be38480001141cf8,qaevpofiew,"Deep vs Shallow",1,81,2020-07-08T14:40:20-07:00,3.9087941646576,5,versionA_stim.csv,VC_VersionA.csv,"Version A","VC Version A",HORNET,STING,Study1,F,11,38,VC,User,-,"How many vowels are the two words combined?|Type your response below and then press Enter.",Study/JOL,"Study Phase",3320,,,2877,2877,,,,3,1
5c5db292be38480001141cf8,qaevpofiew,"Deep vs Shallow",1,82,2020-07-08T14:40:25-07:00,5.3241238594055,5,versionA_stim.csv,VC_VersionA.csv,"Version A","VC Version A",DIETARY,SACKING,Study1,U,67,24,VC,User,-,"How many vowels are the two words combined?|Type your response below and then press Enter.",Study/JOL,"Study Phase",4735,,,4284,4284,,,,5,1
5c5db292be38480001141cf8,qaevpofiew,"Deep vs Shallow",1,83,2020-07-08T14:40:30-07:00,4.8396701812744,5,versionA_stim.csv,VC_VersionA.csv,"Version A","VC Version A",DIGESTION,STOMACH,Study1,F,7,33,VC,User,-,"How many vowels are the two words combined?|Type your response below and then press Enter.",Study/JOL,"Study Phase",4227,,,3713,3713,,,,5,1
5c5db292be38480001141cf8,qaevpofiew,"Deep vs Shallow",1,84,2020-07-08T14:40:35-07:00,5.0778198242188,5,versionA_stim.csv,VC_VersionA.csv,"Version A","VC Version A",BITTER,COLD,Study1,F,12,80,VC,User,-,"How many vowels are the two words combined?|Type your response below and then press Enter.",Study/JOL,"Study Phase",4500,,,2456,4116,,,,3,1
5c5db292be38480001141cf8,qaevpofiew,"Deep vs Shallow",1,85,2020-07-08T14:40:40-07:00,4.7578191757202,5,versionA_stim.csv,VC_VersionA.csv,"Version A","VC Version A",EDITOR,NEWS,Study1,F,10,43,VC,User,-,"How many vowels are the two words combined?|Type your response below and then press Enter.",Study/JOL,"Study Phase",4167,,,3633,3633,,,,4,1
5c5db292be38480001141cf8,qaevpofiew,"Deep vs Shallow",1,86,2020-07-08T14:40:44-07:00,4.4433958530426,5,versionA_stim.csv,VC_VersionA.csv,"Version A","VC Version A",BABY,CHILD,Study1,S,64,42,VC,User,-,"How many vowels are the two words combined?|Type your response below and then press Enter.",Study/JOL,"Study Phase",3855,,,3414,3414,,,,3,1
5c5db292be38480001141cf8,qaevpofiew,"Deep vs Shallow",1,87,2020-07-08T14:40:49-07:00,4.7192399501801,5,versionA_stim.csv,VC_VersionA.csv,"Version A","VC Version A",CLOTHES,ATTIRE,Study1,B,43,22,VC,User,-,"How many vowels are the two words combined?|Type your response below and then press Enter.",Study/JOL,"Study Phase",3715,,,3207,3207,,,,4,1
5c5db292be38480001141cf8,qaevpofiew,"Deep vs Shallow",1,88,2020-07-08T14:40:54-07:00,5.6050109863281,5,versionA_stim.csv,VC_VersionA.csv,"Version A","VC Version A",DUMP,WASTE,Study1,S,49,10,VC,User,-,"How many vowels are the two words combined?|Type your response below and then press Enter.",Study/JOL,"Study Phase",5031,,,3184,4580,,,,3,1
5c5db292be38480001141cf8,qaevpofiew,"Deep vs Shallow",1,89,2020-07-08T14:42:01-07:00,66.220029115677,5,versionA_stim.csv,VC_VersionA.csv,"Version A","VC Version A",ROOT,PLANT,Study1,F,13,34,VC,User,-,"How many vowels are the two words combined?|Type your response below and then press Enter.",Study/JOL,"Study Phase",65621,,,65312,65312,,,,3,1
5c5db292be38480001141cf8,qaevpofiew,"Deep vs Shallow",1,90,2020-07-08T14:42:19-07:00,18.936563968658,5,versionA_stim.csv,VC_VersionA.csv,"Version A","VC Version A",SHERRIF,POLICE,BUFFER2,Buffer,87,87,VC,User,-,"How many vowels are the two words combined?|Type your response below and then press Enter.",Study/JOL,BUFFER2,18021,,,17279,17279,,,,5,0.727
5c5db292be38480001141cf8,qaevpofiew,"Deep vs Shallow",1,91,2020-07-08T14:42:24-07:00,4.1773059368134,5,versionA_stim.csv,VC_VersionA.csv,"Version A","VC Version A",GEESE,GOOSE,BUFFER2,Buffer,86,90,VC,User,-,"How many vowels are the two words combined?|Type your response below and then press Enter.",Study/JOL,BUFFER2,3325,,,2828,2828,,,,6,1
5c5db292be38480001141cf8,qaevpofiew,"Deep vs Shallow",1,92,2020-07-08T14:42:30-07:00,6.8122720718384,5,versionA_stim.csv,VC_VersionA.csv,"Version A","VC Version A",MALT,CHOCOLATE,BUFFER2,Buffer,88,91,VC,User,-,"How many vowels are the two words combined?|Type your response below and then press Enter.",Study/JOL,BUFFER2,6225,,,4078,5224,,,,5,1
5c5db292be38480001141cf8,qaevpofiew,"Deep vs Shallow",1,93,2020-07-08T14:42:37-07:00,6.7212090492249,5,versionA_stim.csv,VC_VersionA.csv,"Version A","VC Version A",THING,STUFF,BUFFER2,Buffer,90,88,VC,User,-,"How many vowels are the two words combined?|Type your response below and then press Enter.",Study/JOL,BUFFER2,5116,,,4463,4463,,,,2,1
5c5db292be38480001141cf8,qaevpofiew,"Deep vs Shallow",1,94,2020-07-08T14:42:54-07:00,17.23234796524,5,versionA_stim.csv,VC_VersionA.csv,"Version A","VC Version A",MOON,SPACE,BUFFER2,Buffer,89,89,VC,User,-,"How many vowels are the two words combined?|Type your response below and then press Enter.",Study/JOL,BUFFER2,16648,,,16155,16155,,,,4,0.393
5c5db292be38480001141cf8,qaevpofiew,"Deep vs Shallow",1,95,2020-07-08T14:43:52-07:00,57.272037982941,5,versionA_stim.csv,VC_VersionA.csv,"Version A","VC Version A",,,,,,0,Instruct,User,-,"You have completed this section. Please press Enter.",Filler_Instruction,Instruct2,55315,,,-1,-1,,,,,0.487
5c5db292be38480001141cf8,qaevpofiew,"Deep vs Shallow",1,96,2020-07-08T14:45:53-07:00,120.89959692955,5,versionA_stim.csv,VC_VersionA.csv,"Version A","VC Version A",,,,,,0,FreeRecall,120,120,"Please list the 50 US states in alphabetical order. The task will automatically advance to the next screen after two minutes.",,Filler1,120003,"Colorado Illinois Kansas Louisiana Michigan Oklahoma ",0,44500,104840,0,0,,,0.817
5c5db292be38480001141cf8,qaevpofiew,"Deep vs Shallow",1,97,2020-07-08T14:46:06-07:00,13.731503009796,5,versionA_stim.csv,VC_VersionA.csv,"Version A","VC Version A",,,,,,0,Instruct,-,10,"You will now be presented with the first word from each of the previously studied item pairs. Please type the missing word. If you do not know the word, you may guess or press Enter to skip forward to the next pair.",,Instruct3,12869,,,-1,-1,,,,,1
5c5db292be38480001141cf8,qaevpofiew,"Deep vs Shallow",1,98,2020-07-08T14:46:16-07:00,9.6778531074524,5,versionA_stim.csv,VC_VersionA.csv,"Version A","VC Version A",DEBATE,SIGHT,Study1,U,73,27,Test,User,-,,Recall,Recall1,8815,,0,-1,-1,0,0,,,1
5c5db292be38480001141cf8,qaevpofiew,"Deep vs Shallow",1,99,2020-07-08T14:46:24-07:00,8.357656955719,5,versionA_stim.csv,VC_VersionA.csv,"Version A","VC Version A",HERD,COW,Study1,F,22,64,Test,User,-,,Recall,Recall1,7765,BIRD,0,6328,7212,0,0,,,1
5c5db292be38480001141cf8,qaevpofiew,"Deep vs Shallow",1,100,2020-07-08T14:46:31-07:00,7.1250689029694,5,versionA_stim.csv,VC_VersionA.csv,"Version A","VC Version A",MACHINE,POSITION,Study1,U,76,74,Test,User,-,,Recall,Recall1,6534,,0,-1,-1,0,0,,,1
5c5db292be38480001141cf8,qaevpofiew,"Deep vs Shallow",1,101,2020-07-08T14:46:40-07:00,8.1258211135864,5,versionA_stim.csv,VC_VersionA.csv,"Version A","VC Version A",DIETARY,SACKING,Study1,U,67,24,Test,User,-,,Recall,Recall1,7532,,0,-1,-1,0,0,,,1
5c5db292be38480001141cf8,qaevpofiew,"Deep vs Shallow",1,102,2020-07-08T14:46:46-07:00,6.7285799980164,5,versionA_stim.csv,VC_VersionA.csv,"Version A","VC Version A",DISCUSSION,TALK,Study1,F,21,63,Test,User,-,,Recall,Recall1,6140,TALK,100,4899,5435,1,1,,,1
5c5db292be38480001141cf8,qaevpofiew,"Deep vs Shallow",1,103,2020-07-08T14:46:54-07:00,8.1460089683533,5,versionA_stim.csv,VC_VersionA.csv,"Version A","VC Version A",LETTUCE,SALAD,Study1,S,59,14,Test,User,-,,Recall,Recall1,7480,,0,-1,-1,0,0,,,1
5c5db292be38480001141cf8,qaevpofiew,"Deep vs Shallow",1,104,2020-07-08T14:47:07-07:00,12.751668930054,5,versionA_stim.csv,VC_VersionA.csv,"Version A","VC Version A",MATH,DIVISION,Study1,B,33,55,Test,User,-,,Recall,Recall1,12153,SCHOOL,28.571428571429,10474,11344,0,0,,,1
5c5db292be38480001141cf8,qaevpofiew,"Deep vs Shallow",1,105,2020-07-08T14:47:12-07:00,4.7411282062531,5,versionA_stim.csv,VC_VersionA.csv,"Version A","VC Version A",TRIAL,JURY,Study1,S,50,77,Test,User,-,,Recall,Recall1,4095,JUDGE,44.444444444444,3022,3670,0,0,,,1
5c5db292be38480001141cf8,qaevpofiew,"Deep vs Shallow",1,106,2020-07-08T14:47:20-07:00,7.9838178157806,5,versionA_stim.csv,VC_VersionA.csv,"Version A","VC Version A",WAY,OUT,Study1,F,16,31,Test,User,-,,Recall,Recall1,7397,,0,-1,-1,0,0,,,1
5c5db292be38480001141cf8,qaevpofiew,"Deep vs Shallow",1,107,2020-07-08T14:47:32-07:00,11.892256975174,5,versionA_stim.csv,VC_VersionA.csv,"Version A","VC Version A",BUG,WASP,Study1,B,32,73,Test,User,-,,Recall,Recall1,11306,ANT,28.571428571429,10159,10458,0,0,,,1
5c5db292be38480001141cf8,qaevpofiew,"Deep vs Shallow",1,108,2020-07-08T14:47:51-07:00,19.647921085358,5,versionA_stim.csv,VC_VersionA.csv,"Version A","VC Version A",GRILL,BAR,Study1,S,52,37,Test,User,-,,Recall,Recall1,18784,,0,-1,-1,0,0,,,0.309
5c5db292be38480001141cf8,qaevpofiew,"Deep vs Shallow",1,109,2020-07-08T14:48:02-07:00,10.447789907455,5,versionA_stim.csv,VC_VersionA.csv,"Version A","VC Version A",SLEEP,DROWSY,Study1,B,41,82,Test,User,-,,Recall,Recall1,9525,,0,-1,-1,0,0,,,0.688
5c5db292be38480001141cf8,qaevpofiew,"Deep vs Shallow",1,110,2020-07-08T14:48:08-07:00,6.5585010051727,5,versionA_stim.csv,VC_VersionA.csv,"Version A","VC Version A",FIRE,BLAZE,Study1,B,45,39,Test,User,-,,Recall,Recall1,5910,WATER,40,4558,5029,0,0,,,1
5c5db292be38480001141cf8,qaevpofiew,"Deep vs Shallow",1,111,2020-07-08T14:48:14-07:00,5.1167311668396,5,versionA_stim.csv,VC_VersionA.csv,"Version A","VC Version A",ART,LION,Study1,U,79,7,Test,User,-,,Recall,Recall1,4464,DRAW,0,2493,3161,0,0,,,1
5c5db292be38480001141cf8,qaevpofiew,"Deep vs Shallow",1,112,2020-07-08T14:48:22-07:00,7.9294769763947,5,versionA_stim.csv,VC_VersionA.csv,"Version A","VC Version A",BALL,RACKET,Study1,B,38,40,Test,User,-,,Recall,Recall1,7340,TOY,22.222222222222,5706,6859,0,0,,,1
5c5db292be38480001141cf8,qaevpofiew,"Deep vs Shallow",1,113,2020-07-08T14:48:27-07:00,5.9176778793335,5,versionA_stim.csv,VC_VersionA.csv,"Version A","VC Version A",PARK,HUNGRY,Study1,U,68,8,Test,User,-,,Recall,Recall1,5339,,0,-1,-1,0,0,,,1
5c5db292be38480001141cf8,qaevpofiew,"Deep vs Shallow",1,114,2020-07-08T14:48:32-07:00,4.2905399799347,5,versionA_stim.csv,VC_VersionA.csv,"Version A","VC Version A",STRONG,ACCIDENT,Study1,U,80,71,Test,User,-,,Recall,Recall1,3709,WEAK,16.666666666667,1875,2301,0,0,,,1
5c5db292be38480001141cf8,qaevpofiew,"Deep vs Shallow",1,115,2020-07-08T14:48:39-07:00,7.3908410072327,5,versionA_stim.csv,VC_VersionA.csv,"Version A","VC Version A",ARCHITECTURE,DESIGN,Study1,S,51,19,Test,User,-,,Recall,Recall1,6808,SCULPTURE,13.333333333333,3685,6316,0,0,,,1
5c5db292be38480001141cf8,qaevpofiew,"Deep vs Shallow",1,116,2020-07-08T14:48:45-07:00,5.6797120571136,5,versionA_stim.csv,VC_VersionA.csv,"Version A","VC Version A",CREDIT,CARD,Study1,F,23,25,Test,User,-,,Recall,Recall1,5097,,0,-1,-1,0,0,,,1
5c5db292be38480001141cf8,qaevpofiew,"Deep vs Shallow",1,117,2020-07-08T14:48:54-07:00,9.5644109249115,5,versionA_stim.csv,VC_VersionA.csv,"Version A","VC Version A",WORK,CHORE,Study1,B,39,69,Test,User,-,,Recall,Recall1,8969,,0,-1,-1,0,0,,,1
5c5db292be38480001141cf8,qaevpofiew,"Deep vs Shallow",1,118,2020-07-08T14:49:05-07:00,10.444412231445,5,versionA_stim.csv,VC_VersionA.csv,"Version A","VC Version A",BITTER,COLD,Study1,F,12,80,Test,User,-,,Recall,Recall1,9554,SWEET,0,7879,8868,0,0,,,1
5c5db292be38480001141cf8,qaevpofiew,"Deep vs Shallow",1,119,2020-07-08T14:49:10-07:00,5.5629298686981,5,versionA_stim.csv,VC_VersionA.csv,"Version A","VC Version A",GEOLOGY,ROCK,Study1,F,19,83,Test,User,-,,Recall,Recall1,4966,FAMILY,0,3440,4397,0,0,,,1
5c5db292be38480001141cf8,qaevpofiew,"Deep vs Shallow",1,120,2020-07-08T14:49:17-07:00,7.0696949958801,5,versionA_stim.csv,VC_VersionA.csv,"Version A","VC Version A",HONEY,BEE,Study1,S,63,44,Test,User,-,,Recall,Recall1,6479,SUGAR,0,4918,5860,0,0,,,1
5c5db292be38480001141cf8,qaevpofiew,"Deep vs Shallow",1,121,2020-07-08T14:49:21-07:00,3.1210129261017,5,versionA_stim.csv,VC_VersionA.csv,"Version A","VC Version A",KING,VASE,Study1,U,85,32,Test,User,-,,Recall,Recall1,2531,QUEEN,22.222222222222,1402,2034,0,0,,,1
5c5db292be38480001141cf8,qaevpofiew,"Deep vs Shallow",1,122,2020-07-08T14:49:27-07:00,6.2090861797333,5,versionA_stim.csv,VC_VersionA.csv,"Version A","VC Version A",ORCHID,FLOWER,Study1,F,24,46,Test,User,-,,Recall,Recall1,5583,,0,1995,1996,0,0,,,1
5c5db292be38480001141cf8,qaevpofiew,"Deep vs Shallow",1,123,2020-07-08T14:49:30-07:00,2.8902628421783,5,versionA_stim.csv,VC_VersionA.csv,"Version A","VC Version A",ARTERY,BRONZE,Study1,U,74,15,Test,User,-,,Recall,Recall1,2299,,0,-1,-1,0,0,,,1
5c5db292be38480001141cf8,qaevpofiew,"Deep vs Shallow",1,124,2020-07-08T14:49:33-07:00,3.6097509860992,5,versionA_stim.csv,VC_VersionA.csv,"Version A","VC Version A",CIRCLE,ROUND,Study1,S,65,17,Test,User,-,,Recall,Recall1,3018,SQUARE,18.181818181818,1539,2512,0,0,,,1
5c5db292be38480001141cf8,qaevpofiew,"Deep vs Shallow",1,125,2020-07-08T14:49:41-07:00,8.0169720649719,5,versionA_stim.csv,VC_VersionA.csv,"Version A","VC Version A",MEANING,DEFINITION,Study1,S,62,45,Test,User,-,,Recall,Recall1,7426,DICTIONARY,60,5234,6865,0,0,,,1
5c5db292be38480001141cf8,qaevpofiew,"Deep vs Shallow",1,126,2020-07-08T14:49:45-07:00,3.9160859584808,5,versionA_stim.csv,VC_VersionA.csv,"Version A","VC Version A",SHOE,FOOT,Study1,S,60,78,Test,User,-,,Recall,Recall1,3322,,0,-1,-1,0,0,,,1
5c5db292be38480001141cf8,qaevpofiew,"Deep vs Shallow",1,127,2020-07-08T14:49:54-07:00,8.9964411258698,5,versionA_stim.csv,VC_VersionA.csv,"Version A","VC Version A",HEIGHT,GROWTH,Study1,B,30,56,Test,User,-,,Recall,Recall1,8410,LENGTH,50,5169,6129,0,0,,,1
5c5db292be38480001141cf8,qaevpofiew,"Deep vs Shallow",1,128,2020-07-08T14:50:00-07:00,5.9794850349426,5,versionA_stim.csv,VC_VersionA.csv,"Version A","VC Version A",HYGIENE,CLEAN,Study1,F,17,51,Test,User,-,,Recall,Recall1,5374,,0,-1,-1,0,0,,,1
5c5db292be38480001141cf8,qaevpofiew,"Deep vs Shallow",1,129,2020-07-08T14:50:06-07:00,5.466068983078,5,versionA_stim.csv,VC_VersionA.csv,"Version A","VC Version A",SWAN,BIRD,Study1,F,14,62,Test,User,-,,Recall,Recall1,4834,BIRD,100,3628,4203,1,1,,,1
5c5db292be38480001141cf8,qaevpofiew,"Deep vs Shallow",1,130,2020-07-08T14:50:14-07:00,7.9910318851471,5,versionA_stim.csv,VC_VersionA.csv,"Version A","VC Version A",POP,SODA,Study1,S,56,20,Test,User,-,,Recall,Recall1,6404,,0,-1,-1,0,0,,,1
5c5db292be38480001141cf8,qaevpofiew,"Deep vs Shallow",1,131,2020-07-08T14:50:21-07:00,7.1514959335327,5,versionA_stim.csv,VC_VersionA.csv,"Version A","VC Version A",ROOT,PLANT,Study1,F,13,34,Test,User,-,,Recall,Recall1,6540,ORIGIN,18.181818181818,5398,6209,0,0,,,1
5c5db292be38480001141cf8,qaevpofiew,"Deep vs Shallow",1,132,2020-07-08T14:50:25-07:00,3.9256360530853,5,versionA_stim.csv,VC_VersionA.csv,"Version A","VC Version A",BLOW,WIND,Study1,S,55,53,Test,User,-,,Recall,Recall1,3331,,0,-1,-1,0,0,,,1
5c5db292be38480001141cf8,qaevpofiew,"Deep vs Shallow",1,133,2020-07-08T14:50:30-07:00,4.9616439342499,5,versionA_stim.csv,VC_VersionA.csv,"Version A","VC Version A",HIDE,SICK,Study1,U,84,9,Test,User,-,,Recall,Recall1,4367,SHOW,25,2074,3298,0,0,,,1
5c5db292be38480001141cf8,qaevpofiew,"Deep vs Shallow",1,134,2020-07-08T14:50:34-07:00,4.7680602073669,5,versionA_stim.csv,VC_VersionA.csv,"Version A","VC Version A",CASH,WOULD,Study1,U,83,11,Test,User,-,,Recall,Recall1,4184,COIN,22.222222222222,2842,3469,0,0,,,1
5c5db292be38480001141cf8,qaevpofiew,"Deep vs Shallow",1,135,2020-07-08T14:50:39-07:00,4.6065528392792,5,versionA_stim.csv,VC_VersionA.csv,"Version A","VC Version A",DEATH,BUSINESS,Study1,U,72,16,Test,User,-,,Recall,Recall1,4018,LIFE,33.333333333333,2514,3140,0,0,,,1
5c5db292be38480001141cf8,qaevpofiew,"Deep vs Shallow",1,136,2020-07-08T14:50:43-07:00,3.5161991119385,5,versionA_stim.csv,VC_VersionA.csv,"Version A","VC Version A",LOCATION,SITE,Study1,S,48,79,Test,User,-,,Recall,Recall1,2919,,0,-1,-1,0,0,,,1
5c5db292be38480001141cf8,qaevpofiew,"Deep vs Shallow",1,137,2020-07-08T14:50:48-07:00,5.1471328735352,5,versionA_stim.csv,VC_VersionA.csv,"Version A","VC Version A",HORNET,STING,Study1,F,11,38,Test,User,-,,Recall,Recall1,4553,INSECT,36.363636363636,2475,3817,0,0,,,1
5c5db292be38480001141cf8,qaevpofiew,"Deep vs Shallow",1,138,2020-07-08T14:50:55-07:00,7.7169971466064,5,versionA_stim.csv,VC_VersionA.csv,"Version A","VC Version A",DIGESTION,STOMACH,Study1,F,7,33,Test,User,-,,Recall,Recall1,7130,EATING,15.384615384615,5872,6768,0,0,,,1
5c5db292be38480001141cf8,qaevpofiew,"Deep vs Shallow",1,139,2020-07-08T14:51:01-07:00,5.6462650299072,5,versionA_stim.csv,VC_VersionA.csv,"Version A","VC Version A",FIX,HAND,Study1,U,75,54,Test,User,-,,Recall,Recall1,5053,,0,2063,2731,0,0,,,1
5c5db292be38480001141cf8,qaevpofiew,"Deep vs Shallow",1,140,2020-07-08T14:51:09-07:00,8.2452948093414,5,versionA_stim.csv,VC_VersionA.csv,"Version A","VC Version A",CLOTHES,ATTIRE,Study1,B,43,22,Test,User,-,,Recall,Recall1,7641,DRESS,36.363636363636,6173,7112,0,0,,,1
5c5db292be38480001141cf8,qaevpofiew,"Deep vs Shallow",1,141,2020-07-08T14:51:15-07:00,5.7355451583862,5,versionA_stim.csv,VC_VersionA.csv,"Version A","VC Version A",PAW,DOG,Study1,F,15,47,Test,User,-,,Recall,Recall1,5142,DOG,100,2573,3815,1,1,,,1
5c5db292be38480001141cf8,qaevpofiew,"Deep vs Shallow",1,142,2020-07-08T14:51:19-07:00,3.6682958602905,5,versionA_stim.csv,VC_VersionA.csv,"Version A","VC Version A",DISCOVER,FLOOR,Study1,U,71,26,Test,User,-,,Recall,Recall1,3062,,0,-1,-1,0,0,,,1
5c5db292be38480001141cf8,qaevpofiew,"Deep vs Shallow",1,143,2020-07-08T14:51:24-07:00,5.2801871299744,5,versionA_stim.csv,VC_VersionA.csv,"Version A","VC Version A",CHISEL,HAMMER,Study1,F,9,84,Test,User,-,,Recall,Recall1,4661,TOOL,0,2420,3560,0,0,,,1
5c5db292be38480001141cf8,qaevpofiew,"Deep vs Shallow",1,144,2020-07-08T14:51:28-07:00,4.2187099456787,5,versionA_stim.csv,VC_VersionA.csv,"Version A","VC Version A",PUSHER,CLUTTER,Study1,U,66,61,Test,User,-,,Recall,Recall1,3620,,0,-1,-1,0,0,,,1
5c5db292be38480001141cf8,qaevpofiew,"Deep vs Shallow",1,145,2020-07-08T14:51:33-07:00,4.9910569190979,5,versionA_stim.csv,VC_VersionA.csv,"Version A","VC Version A",GREAT,FANTASTIC,Study1,B,35,23,Test,User,-,,Recall,Recall1,4394,BAD,16.666666666667,2268,2554,0,0,,,1
5c5db292be38480001141cf8,qaevpofiew,"Deep vs Shallow",1,146,2020-07-08T14:51:41-07:00,7.330265045166,5,versionA_stim.csv,VC_VersionA.csv,"Version A","VC Version A",HUNGER,FAMINE,Study1,B,40,52,Test,User,-,,Recall,Recall1,6742,,0,-1,-1,0,0,,,1
5c5db292be38480001141cf8,qaevpofiew,"Deep vs Shallow",1,147,2020-07-08T14:51:47-07:00,6.7554919719696,5,versionA_stim.csv,VC_VersionA.csv,"Version A","VC Version A",WINE,CHEESE,Study1,S,57,21,Test,User,-,,Recall,Recall1,6166,ALCOHOL,30.769230769231,3324,5629,0,0,,,1
5c5db292be38480001141cf8,qaevpofiew,"Deep vs Shallow",1,148,2020-07-08T14:51:51-07:00,4.064001083374,5,versionA_stim.csv,VC_VersionA.csv,"Version A","VC Version A",REVOLUTION,WAR,Study1,F,20,75,Test,User,-,,Recall,Recall1,3473,,0,-1,-1,0,0,,,1
5c5db292be38480001141cf8,qaevpofiew,"Deep vs Shallow",1,149,2020-07-08T14:51:55-07:00,3.8191080093384,5,versionA_stim.csv,VC_VersionA.csv,"Version A","VC Version A",KEY,LATCH,Study1,B,36,28,Test,User,-,,Recall,Recall1,3224,LOCK,44.444444444444,1498,1896,0,0,,,1
5c5db292be38480001141cf8,qaevpofiew,"Deep vs Shallow",1,150,2020-07-08T14:51:59-07:00,4.2557580471039,5,versionA_stim.csv,VC_VersionA.csv,"Version A","VC Version A",LAW,ATTORNEY,Study1,B,34,65,Test,User,-,,Recall,Recall1,3669,,0,-1,-1,0,0,,,1
5c5db292be38480001141cf8,qaevpofiew,"Deep vs Shallow",1,151,2020-07-08T14:52:05-07:00,5.8848288059235,5,versionA_stim.csv,VC_VersionA.csv,"Version A","VC Version A",NUMBER,AMOUNT,Study1,S,47,12,Test,User,-,,Recall,Recall1,5300,MATH,40,4329,4757,0,0,,,1
5c5db292be38480001141cf8,qaevpofiew,"Deep vs Shallow",1,152,2020-07-08T14:52:13-07:00,7.6390981674194,5,versionA_stim.csv,VC_VersionA.csv,"Version A","VC Version A",KIDNEY,LIVER,Study1,S,53,60,Test,User,-,,Recall,Recall1,7026,LIVER,100,4053,4741,1,1,,,1
5c5db292be38480001141cf8,qaevpofiew,"Deep vs Shallow",1,153,2020-07-08T14:52:17-07:00,3.8996970653534,5,versionA_stim.csv,VC_VersionA.csv,"Version A","VC Version A",HAPPY,CAR,Study1,U,77,81,Test,User,-,,Recall,Recall1,3265,,0,-1,-1,0,0,,,1
5c5db292be38480001141cf8,qaevpofiew,"Deep vs Shallow",1,154,2020-07-08T14:52:25-07:00,7.8740739822388,5,versionA_stim.csv,VC_VersionA.csv,"Version A","VC Version A",DARK,CAVE,Study1,B,28,41,Test,User,-,,Recall,Recall1,7291,LIGHT,0,6326,7016,0,0,,,1
5c5db292be38480001141cf8,qaevpofiew,"Deep vs Shallow",1,155,2020-07-08T14:52:31-07:00,6.1715059280396,5,versionA_stim.csv,VC_VersionA.csv,"Version A","VC Version A",WAGE,MONEY,Study1,F,8,59,Test,User,-,,Recall,Recall1,5575,,0,-1,-1,0,0,,,1
5c5db292be38480001141cf8,qaevpofiew,"Deep vs Shallow",1,156,2020-07-08T14:52:37-07:00,6.5283808708191,5,versionA_stim.csv,VC_VersionA.csv,"Version A","VC Version A",FULL,ENOUGH,Study1,B,26,35,Test,User,-,,Recall,Recall1,5836,,0,-1,-1,0,0,,,1
5c5db292be38480001141cf8,qaevpofiew,"Deep vs Shallow",1,157,2020-07-08T14:52:43-07:00,5.3056361675262,5,versionA_stim.csv,VC_VersionA.csv,"Version A","VC Version A",EDITOR,NEWS,Study1,F,10,43,Test,User,-,,Recall,Recall1,4708,,0,-1,-1,0,0,,,1
5c5db292be38480001141cf8,qaevpofiew,"Deep vs Shallow",1,158,2020-07-08T14:52:47-07:00,4.462005853653,5,versionA_stim.csv,VC_VersionA.csv,"Version A","VC Version A",DUMP,WASTE,Study1,S,49,10,Test,User,-,,Recall,Recall1,3875," EMPTY",20,1839,3481,0,0,,,1
5c5db292be38480001141cf8,qaevpofiew,"Deep vs Shallow",1,159,2020-07-08T14:53:00-07:00,12.370242118835,5,versionA_stim.csv,VC_VersionA.csv,"Version A","VC Version A",DUE,ASSIGNMENT,Study1,S,46,57,Test,User,-,,Recall,Recall1,11780,,0,-1,-1,0,0,,,1
5c5db292be38480001141cf8,qaevpofiew,"Deep vs Shallow",1,160,2020-07-08T14:53:06-07:00,6.8101089000702,5,versionA_stim.csv,VC_VersionA.csv,"Version A","VC Version A",HOT,CHILI,Study1,B,37,66,Test,User,-,,Recall,Recall1,5959,,0,-1,-1,0,0,,,1
5c5db292be38480001141cf8,qaevpofiew,"Deep vs Shallow",1,161,2020-07-08T14:53:12-07:00,5.5344700813293,5,versionA_stim.csv,VC_VersionA.csv,"Version A","VC Version A",TUNA,FISH,Study1,F,25,29,Test,User,-,,Recall,Recall1,4902,FISH,100,2346,3807,1,1,,,1
5c5db292be38480001141cf8,qaevpofiew,"Deep vs Shallow",1,162,2020-07-08T14:53:18-07:00,6.2883670330048,5,versionA_stim.csv,VC_VersionA.csv,"Version A","VC Version A",DRINK,SIP,Study1,B,27,50,Test,User,-,,Recall,Recall1,5671,WATER,0,4571,5344,0,0,,,1
5c5db292be38480001141cf8,qaevpofiew,"Deep vs Shallow",1,163,2020-07-08T14:53:22-07:00,3.5997650623322,5,versionA_stim.csv,VC_VersionA.csv,"Version A","VC Version A",BATHROOM,TOILET,Study1,S,58,68,Test,User,-,,Recall,Recall1,2959,,0,-1,-1,0,0,,,1
5c5db292be38480001141cf8,qaevpofiew,"Deep vs Shallow",1,164,2020-07-08T14:53:28-07:00,6.0017459392548,5,versionA_stim.csv,VC_VersionA.csv,"Version A","VC Version A",PAST,FUTURE,Study1,S,61,18,Test,User,-,,Recall,Recall1,4404,,0,-1,-1,0,0,,,1
5c5db292be38480001141cf8,qaevpofiew,"Deep vs Shallow",1,165,2020-07-08T14:53:32-07:00,4.5523309707642,5,versionA_stim.csv,VC_VersionA.csv,"Version A","VC Version A",LIFT,WOMAN,Study1,U,69,30,Test,User,-,,Recall,Recall1,3960,PULL,0,2885,3498,0,0,,,1
5c5db292be38480001141cf8,qaevpofiew,"Deep vs Shallow",1,166,2020-07-08T14:54:05-07:00,32.172853946686,5,versionA_stim.csv,VC_VersionA.csv,"Version A","VC Version A",SENTENCE,WORD,Study1,B,31,86,Test,User,-,,Recall,Recall1,31583,,0,-1,-1,0,0,,,0.98
5c5db292be38480001141cf8,qaevpofiew,"Deep vs Shallow",1,167,2020-07-08T14:54:10-07:00,5.0583400726318,5,versionA_stim.csv,VC_VersionA.csv,"Version A","VC Version A",BABY,CHILD,Study1,S,64,42,Test,User,-,,Recall,Recall1,4180,"\",0,4167,4167,0,0,,,1
5c5db292be38480001141cf8,qaevpofiew,"Deep vs Shallow",1,168,2020-07-08T14:54:14-07:00,4.1830110549927,5,versionA_stim.csv,VC_VersionA.csv,"Version A","VC Version A",TAKE,SEIZE,Study1,B,29,36,Test,User,-,,Recall,Recall1,3595,GIVE,44.444444444444,2735,3234,0,0,,,1
5c5db292be38480001141cf8,qaevpofiew,"Deep vs Shallow",1,169,2020-07-08T14:54:19-07:00,5.4712038040161,5,versionA_stim.csv,VC_VersionA.csv,"Version A","VC Version A",SOON,BELT,Study1,U,70,58,Test,User,-,,Recall,Recall1,4816,,0,-1,-1,0,0,,,1
5c5db292be38480001141cf8,qaevpofiew,"Deep vs Shallow",1,170,2020-07-08T14:54:23-07:00,4.1382250785828,5,versionA_stim.csv,VC_VersionA.csv,"Version A","VC Version A",PLANE,PILOT,Study1,B,44,76,Test,User,-,,Recall,Recall1,3543,DRIVE,20,2129,2871,0,0,,,1
5c5db292be38480001141cf8,qaevpofiew,"Deep vs Shallow",1,171,2020-07-08T14:54:30-07:00,6.5114839076996,5,versionA_stim.csv,VC_VersionA.csv,"Version A","VC Version A",BRIDGE,WATER,Study1,F,18,72,Test,User,-,,Recall,Recall1,5918,,0,-1,-1,0,0,,,1
5c5db292be38480001141cf8,qaevpofiew,"Deep vs Shallow",1,172,2020-07-08T14:54:36-07:00,5.8271632194519,5,versionA_stim.csv,VC_VersionA.csv,"Version A","VC Version A",VALLEY,ADD,Study1,U,82,67,Test,User,-,,Recall,Recall1,5234,,0,-1,-1,0,0,,,1
5c5db292be38480001141cf8,qaevpofiew,"Deep vs Shallow",1,173,2020-07-08T14:54:44-07:00,8.0005619525909,5,versionA_stim.csv,VC_VersionA.csv,"Version A","VC Version A",SMELL,STENCH,Study1,B,42,13,Test,User,-,,Recall,Recall1,7318,TASTE,54.545454545455,5809,6714,0,0,,,1
5c5db292be38480001141cf8,qaevpofiew,"Deep vs Shallow",1,174,2020-07-08T14:54:50-07:00,6.7186858654022,5,versionA_stim.csv,VC_VersionA.csv,"Version A","VC Version A",DELINQUENT,BAD,Study1,F,6,85,Test,User,-,,Recall,Recall1,6125,CHILDREN,18.181818181818,4605,5756,0,0,,,1
5c5db292be38480001141cf8,qaevpofiew,"Deep vs Shallow",1,175,2020-07-08T14:54:56-07:00,6.034166097641,5,versionA_stim.csv,VC_VersionA.csv,"Version A","VC Version A",BEGIN,END,Study1,S,54,70,Test,User,-,,Recall,Recall1,5429,START,0,3747,4699,0,0,,,1
5c5db292be38480001141cf8,qaevpofiew,"Deep vs Shallow",1,176,2020-07-08T14:55:01-07:00,4.7374210357666,5,versionA_stim.csv,VC_VersionA.csv,"Version A","VC Version A",SUGAR,RIDDLE,Study1,U,81,49,Test,User,-,,Recall,Recall1,4141,SWEET,18.181818181818,2641,3448,0,0,,,1
5c5db292be38480001141cf8,qaevpofiew,"Deep vs Shallow",1,177,2020-07-08T14:55:07-07:00,6.0954179763794,5,versionA_stim.csv,VC_VersionA.csv,"Version A","VC Version A",ALLOW,TUCK,Study1,U,78,48,Test,User,-,,Recall,Recall1,5502,BLOCK,44.444444444444,3474,5091,0,0,,,1
5c5db292be38480001141cf8,qaevpofiew,"Deep vs Shallow",1,178,2020-07-08T15:02:51-07:00,463.32575201988,5,versionA_stim.csv,VC_VersionA.csv,"Version A","VC Version A",,,,,,0,Instruct,-,10,"You will now be presented with a new set of word pairs. Please study each pair. Remember that your memory will be tested! When finished, press Enter to move to the next pair.",Initial_Instruct,Instruct4,462620,,,-1,-1,,,,,0.438
5c5db292be38480001141cf8,qaevpofiew,"Deep vs Shallow",1,179,2020-07-08T15:03:18-07:00,26.96751499176,5,versionA_stim.csv,VC_VersionA.csv,"Version A","VC Version A",,,,,,0,Instruct,,10,"You will again be asked to count how many vowels the two words contain. Please remember to type this number in the space below each pair.",,Instruct10,26079,,,-1,-1,,,,,0.75
5c5db292be38480001141cf8,qaevpofiew,"Deep vs Shallow",1,180,2020-07-08T15:03:20-07:00,1.9229629039764,5,versionA_stim.csv,VC_VersionA.csv,"Version A","VC Version A",,,,,,0,Instruct,User,-,"Press Enter when you are readty to begin",,Instruct11,1124,,,-1,-1,,,,,1
5c5db292be38480001141cf8,qaevpofiew,"Deep vs Shallow",1,181,2020-07-08T15:03:32-07:00,12.81457400322,5,versionA_stim.csv,VC_VersionA.csv,"Version A","VC Version A",ICE,FROZEN,BUFFER3,Buffer,94,94,VC,User,-,"How many vowels are the two words combined?|Type your response below and then press Enter.",Study/JOL,BUFFER3,12223,,,11760,11760,,,,4,1
5c5db292be38480001141cf8,qaevpofiew,"Deep vs Shallow",1,182,2020-07-08T15:03:38-07:00,5.6533801555634,5,versionA_stim.csv,VC_VersionA.csv,"Version A","VC Version A",CAMP,ADVENTURE,BUFFER3,Buffer,95,93,VC,User,-,"How many vowels are the two words combined?|Type your response below and then press Enter.",Study/JOL,BUFFER3,5064,,,4588,4588,,,,5,1
5c5db292be38480001141cf8,qaevpofiew,"Deep vs Shallow",1,183,2020-07-08T15:03:42-07:00,3.7041478157043,5,versionA_stim.csv,VC_VersionA.csv,"Version A","VC Version A",NOODLE,STRING,BUFFER3,Buffer,92,96,VC,User,-,"How many vowels are the two words combined?|Type your response below and then press Enter.",Study/JOL,BUFFER3,3109,,,2700,2700,,,,4,1
5c5db292be38480001141cf8,qaevpofiew,"Deep vs Shallow",1,184,2020-07-08T15:03:54-07:00,12.023739099503,5,versionA_stim.csv,VC_VersionA.csv,"Version A","VC Version A",CARROT,POTATO,BUFFER3,Buffer,91,95,VC,User,-,"How many vowels are the two words combined?|Type your response below and then press Enter.",Study/JOL,BUFFER3,11414,,,10692,10692,,,,5,1
5c5db292be38480001141cf8,qaevpofiew,"Deep vs Shallow",1,185,2020-07-08T15:04:09-07:00,14.940579891205,5,versionA_stim.csv,VC_VersionA.csv,"Version A","VC Version A",SHRIMP,FISH,BUFFER3,Buffer,93,92,VC,User,-,"How many vowels are the two words combined?|Type your response below and then press Enter.",Study/JOL,BUFFER3,14079,,,13644,13644,,,,2,1
5c5db292be38480001141cf8,qaevpofiew,"Deep vs Shallow",1,186,2020-07-08T15:04:15-07:00,6.7621791362762,5,versionA_stim.csv,VC_VersionA.csv,"Version A","VC Version A",EARTH,GROUND,Study2,S,144,164,VC,User,-,"How many vowels are the two words combined?|Type your response below and then press Enter.",Study/JOL,"Study Phase2",5903,,,5395,5395,,,,3,1
5c5db292be38480001141cf8,qaevpofiew,"Deep vs Shallow",1,187,2020-07-08T15:04:27-07:00,11.442828893661,5,versionA_stim.csv,VC_VersionA.csv,"Version A","VC Version A",MASON,JAR,Study2,S,138,141,VC,User,-,"How many vowels are the two words combined?|Type your response below and then press Enter.",Study/JOL,"Study Phase2",10852,,,10444,10444,,,,3,1
5c5db292be38480001141cf8,qaevpofiew,"Deep vs Shallow",1,188,2020-07-08T15:04:32-07:00,4.8182101249695,5,versionA_stim.csv,VC_VersionA.csv,"Version A","VC Version A",LOAN,SIGN,Study2,U,171,173,VC,User,-,"How many vowels are the two words combined?|Type your response below and then press Enter.",Study/JOL,"Study Phase2",4206,,,3834,3834,,,,3,1
5c5db292be38480001141cf8,qaevpofiew,"Deep vs Shallow",1,189,2020-07-08T15:04:40-07:00,8.7581050395966,5,versionA_stim.csv,VC_VersionA.csv,"Version A","VC Version A",FRUIT,STRAWBERRY,Study2,B,124,122,VC,User,-,"How many vowels are the two words combined?|Type your response below and then press Enter.",Study/JOL,"Study Phase2",8158,,,7778,7778,,,,3,1
5c5db292be38480001141cf8,qaevpofiew,"Deep vs Shallow",1,190,2020-07-08T15:04:45-07:00,4.7987458705902,5,versionA_stim.csv,VC_VersionA.csv,"Version A","VC Version A",GLASS,BREAKABLE,Study2,B,127,143,VC,User,-,"How many vowels are the two words combined?|Type your response below and then press Enter.",Study/JOL,"Study Phase2",4209,,,3887,3887,,,,4,1
5c5db292be38480001141cf8,qaevpofiew,"Deep vs Shallow",1,191,2020-07-08T15:04:56-07:00,11.224971055984,5,versionA_stim.csv,VC_VersionA.csv,"Version A","VC Version A",FUZZY,BANG,Study2,U,168,105,VC,User,-,"How many vowels are the two words combined?|Type your response below and then press Enter.",Study/JOL,"Study Phase2",10618,,,10179,10179,,,,2,1
5c5db292be38480001141cf8,qaevpofiew,"Deep vs Shallow",1,192,2020-07-08T15:05:06-07:00,9.5047590732574,5,versionA_stim.csv,VC_VersionA.csv,"Version A","VC Version A",OWN,HAVE,Study2,S,153,123,VC,User,-,"How many vowels are the two words combined?|Type your response below and then press Enter.",Study/JOL,"Study Phase2",8884,,,6505,8642,,,,3,1
5c5db292be38480001141cf8,qaevpofiew,"Deep vs Shallow",1,193,2020-07-08T15:05:13-07:00,7.3414328098297,5,versionA_stim.csv,VC_VersionA.csv,"Version A","VC Version A",GONE,AWAY,Study2,S,142,172,VC,User,-,"How many vowels are the two words combined?|Type your response below and then press Enter.",Study/JOL,"Study Phase2",6693,,,6129,6129,,,,4,1
5c5db292be38480001141cf8,qaevpofiew,"Deep vs Shallow",1,194,2020-07-08T15:05:25-07:00,12.185504198074,5,versionA_stim.csv,VC_VersionA.csv,"Version A","VC Version A",JUSTICE,MAROON,Study2,U,156,146,VC,User,-,"How many vowels are the two words combined?|Type your response below and then press Enter.",Study/JOL,"Study Phase2",11547,,,8775,10445,,,,6,0.963
5c5db292be38480001141cf8,qaevpofiew,"Deep vs Shallow",1,195,2020-07-08T15:05:32-07:00,6.0384759902954,5,versionA_stim.csv,VC_VersionA.csv,"Version A","VC Version A",CHILL,COLD,Study2,F,114,147,VC,User,-,"How many vowels are the two words combined?|Type your response below and then press Enter.",Study/JOL,"Study Phase2",5433,,,4470,4470,,,,2,1
5c5db292be38480001141cf8,qaevpofiew,"Deep vs Shallow",1,196,2020-07-08T15:05:39-07:00,7.3235509395599,5,versionA_stim.csv,VC_VersionA.csv,"Version A","VC Version A",LEASE,TOIL,Study2,U,170,129,VC,User,-,"How many vowels are the two words combined?|Type your response below and then press Enter.",Study/JOL,"Study Phase2",6728,,,6359,6359,,,,5,1
5c5db292be38480001141cf8,qaevpofiew,"Deep vs Shallow",1,197,2020-07-08T15:06:16-07:00,37.486856937408,5,versionA_stim.csv,VC_VersionA.csv,"Version A","VC Version A",TEMPERATURE,Morning,Study2,U,173,151,VC,User,-,"How many vowels are the two words combined?|Type your response below and then press Enter.",Study/JOL,"Study Phase2",36880,,,36146,36146,,,,6,0.416
5c5db292be38480001141cf8,qaevpofiew,"Deep vs Shallow",1,198,2020-07-08T15:06:23-07:00,6.7646009922028,5,versionA_stim.csv,VC_VersionA.csv,"Version A","VC Version A",BOTH,OUNCE,Study2,U,172,175,VC,User,-,"How many vowels are the two words combined?|Type your response below and then press Enter.",Study/JOL,"Study Phase2",5868,,,3957,5575,,,,2,1
5c5db292be38480001141cf8,qaevpofiew,"Deep vs Shallow",1,199,2020-07-08T15:06:32-07:00,9.2353301048279,5,versionA_stim.csv,VC_VersionA.csv,"Version A","VC Version A",TRUTH,LIE,Study2,S,148,130,VC,User,-,"How many vowels are the two words combined?|Type your response below and then press Enter.",Study/JOL,"Study Phase2",8628,,,5618,8366,,,,3,1
5c5db292be38480001141cf8,qaevpofiew,"Deep vs Shallow",1,200,2020-07-08T15:06:35-07:00,2.8721518516541,5,versionA_stim.csv,VC_VersionA.csv,"Version A","VC Version A",SUN,TAN,Study2,S,155,145,VC,User,-,"How many vowels are the two words combined?|Type your response below and then press Enter.",Study/JOL,"Study Phase2",2272,,,1821,1821,,,,2,1
5c5db292be38480001141cf8,qaevpofiew,"Deep vs Shallow",1,201,2020-07-08T15:06:42-07:00,6.6881949901581,5,versionA_stim.csv,VC_VersionA.csv,"Version A","VC Version A",ADJOURN,END,Study2,F,101,153,VC,User,-,"How many vowels are the two words combined?|Type your response below and then press Enter.",Study/JOL,"Study Phase2",6071,,,3170,5637,,,,3,1
5c5db292be38480001141cf8,qaevpofiew,"Deep vs Shallow",1,202,2020-07-08T15:07:58-07:00,75.854959964752,5,versionA_stim.csv,VC_VersionA.csv,"Version A","VC Version A",STRETCH,CLOTH,Study2,U,157,106,VC,User,-,"How many vowels are the two words combined?|Type your response below and then press Enter.",Study/JOL,"Study Phase2",75211,,,74751,74751,,,,2,0.307
5c5db292be38480001141cf8,qaevpofiew,"Deep vs Shallow",1,203,2020-07-08T15:08:06-07:00,8.6823961734772,5,versionA_stim.csv,VC_VersionA.csv,"Version A","VC Version A",EVEN,REVENGE,Study2,B,122,104,VC,User,-,"How many vowels are the two words combined?|Type your response below and then press Enter.",Study/JOL,"Study Phase2",7777,,,5821,7441,,,,5,1
5c5db292be38480001141cf8,qaevpofiew,"Deep vs Shallow",1,204,2020-07-08T15:08:14-07:00,7.5998668670654,5,versionA_stim.csv,VC_VersionA.csv,"Version A","VC Version A",SAFETY,SEATBELT,Study2,S,147,103,VC,User,-,"How many vowels are the two words combined?|Type your response below and then press Enter.",Study/JOL,"Study Phase2",6961,,,4655,6588,,,,5,1
5c5db292be38480001141cf8,qaevpofiew,"Deep vs Shallow",1,205,2020-07-08T15:08:20-07:00,5.8517429828644,5,versionA_stim.csv,VC_VersionA.csv,"Version A","VC Version A",LOUD,NOISE,Study2,S,152,97,VC,User,-,"How many vowels are the two words combined?|Type your response below and then press Enter.",Study/JOL,"Study Phase2",5242,,,3285,4869,,,,4,1
5c5db292be38480001141cf8,qaevpofiew,"Deep vs Shallow",1,206,2020-07-08T15:08:25-07:00,4.7357201576233,5,versionA_stim.csv,VC_VersionA.csv,"Version A","VC Version A",CAKE,CLOTHES,Study2,U,166,167,VC,User,-,"How many vowels are the two words combined?|Type your response below and then press Enter.",Study/JOL,"Study Phase2",4135,,,3597,3597,,,,4,1
5c5db292be38480001141cf8,qaevpofiew,"Deep vs Shallow",1,207,2020-07-08T15:08:30-07:00,4.9879169464111,5,versionA_stim.csv,VC_VersionA.csv,"Version A","VC Version A",DRIVER,CAR,Study2,F,106,171,VC,User,-,"How many vowels are the two words combined?|Type your response below and then press Enter.",Study/JOL,"Study Phase2",4366,,,3668,3668,,,,3,1
5c5db292be38480001141cf8,qaevpofiew,"Deep vs Shallow",1,208,2020-07-08T15:08:34-07:00,4.6725220680237,5,versionA_stim.csv,VC_VersionA.csv,"Version A","VC Version A",MULE,DONKEY,Study2,F,108,154,VC,User,-,"How many vowels are the two words combined?|Type your response below and then press Enter.",Study/JOL,"Study Phase2",4042,,,3118,3118,,,,4,1
5c5db292be38480001141cf8,qaevpofiew,"Deep vs Shallow",1,209,2020-07-08T15:08:38-07:00,3.9455180168152,5,versionA_stim.csv,VC_VersionA.csv,"Version A","VC Version A",BEST,FAVORITE,Study2,B,125,135,VC,User,-,"How many vowels are the two words combined?|Type your response below and then press Enter.",Study/JOL,"Study Phase2",3358,,,2965,2965,,,,4,1
5c5db292be38480001141cf8,qaevpofiew,"Deep vs Shallow",1,210,2020-07-08T15:08:44-07:00,5.9987699985504,5,versionA_stim.csv,VC_VersionA.csv,"Version A","VC Version A",CAR,WINDSHIELD,Study2,B,117,127,VC,User,-,"How many vowels are the two words combined?|Type your response below and then press Enter.",Study/JOL,"Study Phase2",5409,,,4946,4946,,,,4,1
5c5db292be38480001141cf8,qaevpofiew,"Deep vs Shallow",1,211,2020-07-08T15:08:49-07:00,4.9274299144745,5,versionA_stim.csv,VC_VersionA.csv,"Version A","VC Version A",FISH,SARDINE,Study2,B,130,113,VC,User,-,"How many vowels are the two words combined?|Type your response below and then press Enter.",Study/JOL,"Study Phase2",4339,,,3953,3953,,,,4,1
5c5db292be38480001141cf8,qaevpofiew,"Deep vs Shallow",1,212,2020-07-08T15:08:55-07:00,5.4266541004181,5,versionA_stim.csv,VC_VersionA.csv,"Version A","VC Version A",EXTENSION,LONG,Study2,F,96,138,VC,User,-,"How many vowels are the two words combined?|Type your response below and then press Enter.",Study/JOL,"Study Phase2",4830,,,4271,4271,,,,5,1
5c5db292be38480001141cf8,qaevpofiew,"Deep vs Shallow",1,213,2020-07-08T15:09:00-07:00,5.3553149700165,5,versionA_stim.csv,VC_VersionA.csv,"Version A","VC Version A",RIGHTS,EQUAL,Study2,S,137,102,VC,User,-,"How many vowels are the two words combined?|Type your response below and then press Enter.",Study/JOL,"Study Phase2",4744,,,4260,4260,,,,3,1
5c5db292be38480001141cf8,qaevpofiew,"Deep vs Shallow",1,214,2020-07-08T15:09:16-07:00,15.631309986115,5,versionA_stim.csv,VC_VersionA.csv,"Version A","VC Version A",MIRROR,CHILDREN,Study2,U,174,124,VC,User,-,"How many vowels are the two words combined?|Type your response below and then press Enter.",Study/JOL,"Study Phase2",14943,,,14127,14127,,,,4,0.333
5c5db292be38480001141cf8,qaevpofiew,"Deep vs Shallow",1,215,2020-07-08T15:09:20-07:00,4.1515939235687,5,versionA_stim.csv,VC_VersionA.csv,"Version A","VC Version A",DEAD,COFFIN,Study2,B,128,111,VC,User,-,"How many vowels are the two words combined?|Type your response below and then press Enter.",Study/JOL,"Study Phase2",3292,,,2812,2812,,,,4,1
5c5db292be38480001141cf8,qaevpofiew,"Deep vs Shallow",1,216,2020-07-08T15:09:24-07:00,3.9190180301666,5,versionA_stim.csv,VC_VersionA.csv,"Version A","VC Version A",STAR,ACTRESS,Study2,B,120,155,VC,User,-,"How many vowels are the two words combined?|Type your response below and then press Enter.",Study/JOL,"Study Phase2",3320,,,2799,2799,,,,3,1
5c5db292be38480001141cf8,qaevpofiew,"Deep vs Shallow",1,217,2020-07-08T15:09:27-07:00,3.5156319141388,5,versionA_stim.csv,VC_VersionA.csv,"Version A","VC Version A",POP,BALLOON,Study2,B,123,117,VC,User,-,"How many vowels are the two words combined?|Type your response below and then press Enter.",Study/JOL,"Study Phase2",2923,,,2550,2550,,,,4,1
5c5db292be38480001141cf8,qaevpofiew,"Deep vs Shallow",1,218,2020-07-08T15:09:32-07:00,4.6783580780029,5,versionA_stim.csv,VC_VersionA.csv,"Version A","VC Version A",ELEMENT,CARBON,Study2,S,141,140,VC,User,-,"How many vowels are the two words combined?|Type your response below and then press Enter.",Study/JOL,"Study Phase2",4094,,,3624,3624,,,,5,1
5c5db292be38480001141cf8,qaevpofiew,"Deep vs Shallow",1,219,2020-07-08T15:09:39-07:00,7.3248009681702,5,versionA_stim.csv,VC_VersionA.csv,"Version A","VC Version A",Shell,SHAKE,Study2,U,163,162,VC,User,-,"How many vowels are the two words combined?|Type your response below and then press Enter.",Study/JOL,"Study Phase2",6740,,,3851,5552,,,,3,1
5c5db292be38480001141cf8,qaevpofiew,"Deep vs Shallow",1,220,2020-07-08T15:09:49-07:00,9.3897840976715,5,versionA_stim.csv,VC_VersionA.csv,"Version A","VC Version A",CLUE,GAME,Study2,F,97,119,VC,User,-,"How many vowels are the two words combined?|Type your response below and then press Enter.",Study/JOL,"Study Phase2",8800,,,8363,8363,,,,4,1
5c5db292be38480001141cf8,qaevpofiew,"Deep vs Shallow",1,221,2020-07-08T15:09:53-07:00,4.52512383461,5,versionA_stim.csv,VC_VersionA.csv,"Version A","VC Version A",FURRY,DOG,Study2,F,102,118,VC,User,-,"How many vowels are the two words combined?|Type your response below and then press Enter.",Study/JOL,"Study Phase2",3914,,,3474,3475,,,,2,1
5c5db292be38480001141cf8,qaevpofiew,"Deep vs Shallow",1,222,2020-07-08T15:09:57-07:00,4.3985941410065,5,versionA_stim.csv,VC_VersionA.csv,"Version A","VC Version A",SCALP,HEAD,Study2,F,105,98,VC,User,-,"How many vowels are the two words combined?|Type your response below and then press Enter.",Study/JOL,"Study Phase2",3801,,,3390,3390,,,,3,1
5c5db292be38480001141cf8,qaevpofiew,"Deep vs Shallow",1,223,2020-07-08T15:10:02-07:00,4.542867898941,5,versionA_stim.csv,VC_VersionA.csv,"Version A","VC Version A",CHERRY,RED,Study2,F,104,170,VC,User,-,"How many vowels are the two words combined?|Type your response below and then press Enter.",Study/JOL,"Study Phase2",3934,,,3494,3494,,,,2,1
5c5db292be38480001141cf8,qaevpofiew,"Deep vs Shallow",1,224,2020-07-08T15:10:07-07:00,5.2255229949951,5,versionA_stim.csv,VC_VersionA.csv,"Version A","VC Version A",THREAD,THIMBLE,Study2,B,121,152,VC,User,-,"How many vowels are the two words combined?|Type your response below and then press Enter.",Study/JOL,"Study Phase2",4622,,,4070,4070,,,,4,1
5c5db292be38480001141cf8,qaevpofiew,"Deep vs Shallow",1,225,2020-07-08T15:10:16-07:00,8.776782989502,5,versionA_stim.csv,VC_VersionA.csv,"Version A","VC Version A",HONEST,TRUTHFUL,Study2,B,133,100,VC,User,-,"How many vowels are the two words combined?|Type your response below and then press Enter.",Study/JOL,"Study Phase2",8181,,,5227,7569,,,,4,1
5c5db292be38480001141cf8,qaevpofiew,"Deep vs Shallow",1,226,2020-07-08T15:10:23-07:00,7.2036120891571,5,versionA_stim.csv,VC_VersionA.csv,"Version A","VC Version A",FEUD,FIGHT,Study2,F,113,120,VC,User,-,"How many vowels are the two words combined?|Type your response below and then press Enter.",Study/JOL,"Study Phase2",6612,,,5924,5924,,,,3,1
5c5db292be38480001141cf8,qaevpofiew,"Deep vs Shallow",1,227,2020-07-08T15:10:34-07:00,10.724709033966,5,versionA_stim.csv,VC_VersionA.csv,"Version A","VC Version A",WRIST,BRACELET,Study2,S,140,112,VC,User,-,"How many vowels are the two words combined?|Type your response below and then press Enter.",Study/JOL,"Study Phase2",10081,,,9583,9583,,,,4,0.892
5c5db292be38480001141cf8,qaevpofiew,"Deep vs Shallow",1,228,2020-07-08T15:10:42-07:00,8.2764399051666,5,versionA_stim.csv,VC_VersionA.csv,"Version A","VC Version A",MAZE,ELECTION,Study2,U,159,107,VC,User,-,"How many vowels are the two words combined?|Type your response below and then press Enter.",Study/JOL,"Study Phase2",6397,,,5963,5963,,,,6,1
5c5db292be38480001141cf8,qaevpofiew,"Deep vs Shallow",1,229,2020-07-08T15:10:47-07:00,5.1856000423431,5,versionA_stim.csv,VC_VersionA.csv,"Version A","VC Version A",CAT,PANTHER,Study2,B,126,125,VC,User,-,"How many vowels are the two words combined?|Type your response below and then press Enter.",Study/JOL,"Study Phase2",4587,,,4174,4174,,,,3,1
5c5db292be38480001141cf8,qaevpofiew,"Deep vs Shallow",1,230,2020-07-08T15:10:51-07:00,3.5293478965759,5,versionA_stim.csv,VC_VersionA.csv,"Version A","VC Version A",CANDLE,WAX,Study2,S,139,168,VC,User,-,"How many vowels are the two words combined?|Type your response below and then press Enter.",Study/JOL,"Study Phase2",2928,,,2559,2559,,,,3,1
5c5db292be38480001141cf8,qaevpofiew,"Deep vs Shallow",1,231,2020-07-08T15:10:58-07:00,6.6857810020447,5,versionA_stim.csv,VC_VersionA.csv,"Version A","VC Version A",DETECTIVE,MYSTERY,Study2,F,100,169,VC,User,-,"How many vowels are the two words combined?|Type your response below and then press Enter.",Study/JOL,"Study Phase2",6095,,,3987,5554,,,,5,1
5c5db292be38480001141cf8,qaevpofiew,"Deep vs Shallow",1,232,2020-07-08T15:11:04-07:00,6.4666759967804,5,versionA_stim.csv,VC_VersionA.csv,"Version A","VC Version A",BASEBALL,LEAGUE,Study2,B,131,142,VC,User,-,"How many vowels are the two words combined?|Type your response below and then press Enter.",Study/JOL,"Study Phase2",5842,,,3778,5209,,,,4,1
5c5db292be38480001141cf8,qaevpofiew,"Deep vs Shallow",1,233,2020-07-08T15:11:08-07:00,3.75989818573,5,versionA_stim.csv,VC_VersionA.csv,"Version A","VC Version A",KEYS,JOKE,Study2,U,165,121,VC,User,-,"How many vowels are the two words combined?|Type your response below and then press Enter.",Study/JOL,"Study Phase2",3157,,,2468,2468,,,,3,1
5c5db292be38480001141cf8,qaevpofiew,"Deep vs Shallow",1,234,2020-07-08T15:11:14-07:00,6.2517149448395,5,versionA_stim.csv,VC_VersionA.csv,"Version A","VC Version A",SHOELACE,TIE,Study2,F,99,109,VC,User,-,"How many vowels are the two words combined?|Type your response below and then press Enter.",Study/JOL,"Study Phase2",5651,,,5002,5002,,,,6,1
5c5db292be38480001141cf8,qaevpofiew,"Deep vs Shallow",1,235,2020-07-08T15:11:18-07:00,3.4902238845825,5,versionA_stim.csv,VC_VersionA.csv,"Version A","VC Version A",SLEEP,NAP,Study2,B,134,165,VC,User,-,"How many vowels are the two words combined?|Type your response below and then press Enter.",Study/JOL,"Study Phase2",2899,,,2304,2304,,,,3,1
5c5db292be38480001141cf8,qaevpofiew,"Deep vs Shallow",1,236,2020-07-08T15:11:22-07:00,4.5811669826508,5,versionA_stim.csv,VC_VersionA.csv,"Version A","VC Version A",RAZOR,SHAVE,Study2,S,136,149,VC,User,-,"How many vowels are the two words combined?|Type your response below and then press Enter.",Study/JOL,"Study Phase2",3954,,,3538,3538,,,,4,1
5c5db292be38480001141cf8,qaevpofiew,"Deep vs Shallow",1,237,2020-07-08T15:11:27-07:00,4.4451341629028,5,versionA_stim.csv,VC_VersionA.csv,"Version A","VC Version A",DRY,WET,Study2,S,146,110,VC,User,-,"How many vowels are the two words combined?|Type your response below and then press Enter.",Study/JOL,"Study Phase2",3847,,,3359,3359,,,,1,1
5c5db292be38480001141cf8,qaevpofiew,"Deep vs Shallow",1,238,2020-07-08T15:11:31-07:00,4.5422978401184,5,versionA_stim.csv,VC_VersionA.csv,"Version A","VC Version A",MEAT,OBTAIN,Study2,U,161,139,VC,User,-,"How many vowels are the two words combined?|Type your response below and then press Enter.",Study/JOL,"Study Phase2",3941,,,3579,3579,,,,4,1
5c5db292be38480001141cf8,qaevpofiew,"Deep vs Shallow",1,239,2020-07-08T15:11:36-07:00,4.7104721069336,5,versionA_stim.csv,VC_VersionA.csv,"Version A","VC Version A",LITTER,TRASH,Study2,F,103,126,VC,User,-,"How many vowels are the two words combined?|Type your response below and then press Enter.",Study/JOL,"Study Phase2",4107,,,3639,3639,,,,2,1
5c5db292be38480001141cf8,qaevpofiew,"Deep vs Shallow",1,240,2020-07-08T15:11:41-07:00,5.2235980033875,5,versionA_stim.csv,VC_VersionA.csv,"Version A","VC Version A",INCENSE,SMELL,Study2,F,110,174,VC,User,-,"How many vowels are the two words combined?|Type your response below and then press Enter.",Study/JOL,"Study Phase2",3622,,,3152,3152,,,,4,1
5c5db292be38480001141cf8,qaevpofiew,"Deep vs Shallow",1,241,2020-07-08T15:11:48-07:00,6.721745967865,5,versionA_stim.csv,VC_VersionA.csv,"Version A","VC Version A",ALONE,LONELY,Study2,S,145,131,VC,User,-,"How many vowels are the two words combined?|Type your response below and then press Enter.",Study/JOL,"Study Phase2",6124,,,3625,5534,,,,5,1
5c5db292be38480001141cf8,qaevpofiew,"Deep vs Shallow",1,242,2020-07-08T15:11:54-07:00,5.9356319904327,5,versionA_stim.csv,VC_VersionA.csv,"Version A","VC Version A",WATER,DRINK,Study2,S,143,137,VC,User,-,"How many vowels are the two words combined?|Type your response below and then press Enter.",Study/JOL,"Study Phase2",5331,,,3320,4845,,,,3,1
5c5db292be38480001141cf8,qaevpofiew,"Deep vs Shallow",1,243,2020-07-08T15:11:58-07:00,4.2658519744873,5,versionA_stim.csv,VC_VersionA.csv,"Version A","VC Version A",CRACKLE,ABLE,Study2,U,162,101,VC,User,-,"How many vowels are the two words combined?|Type your response below and then press Enter.",Study/JOL,"Study Phase2",3657,,,3062,3062,,,,4,1
5c5db292be38480001141cf8,qaevpofiew,"Deep vs Shallow",1,244,2020-07-08T15:12:02-07:00,3.8703269958496,5,versionA_stim.csv,VC_VersionA.csv,"Version A","VC Version A",FIGHT,BRAWL,Study2,B,135,128,VC,User,-,"How many vowels are the two words combined?|Type your response below and then press Enter.",Study/JOL,"Study Phase2",3268,,,2735,2735,,,,2,1
5c5db292be38480001141cf8,qaevpofiew,"Deep vs Shallow",1,245,2020-07-08T15:12:06-07:00,3.879408121109,5,versionA_stim.csv,VC_VersionA.csv,"Version A","VC Version A",ROD,REEL,Study2,S,150,115,VC,User,-,"How many vowels are the two words combined?|Type your response below and then press Enter.",Study/JOL,"Study Phase2",3264,,,2746,2746,,,,3,1
5c5db292be38480001141cf8,qaevpofiew,"Deep vs Shallow",1,246,2020-07-08T15:12:12-07:00,6.3995008468628,5,versionA_stim.csv,VC_VersionA.csv,"Version A","VC Version A",MONEY,BANKER,Study2,B,132,134,VC,User,-,"How many vowels are the two words combined?|Type your response below and then press Enter.",Study/JOL,"Study Phase2",5791,,,5079,5079,,,,4,1
5c5db292be38480001141cf8,qaevpofiew,"Deep vs Shallow",1,247,2020-07-08T15:12:16-07:00,4.1022911071777,5,versionA_stim.csv,VC_VersionA.csv,"Version A","VC Version A",NAME,HATE,Study2,U,167,136,VC,User,-,"How many vowels are the two words combined?|Type your response below and then press Enter.",Study/JOL,"Study Phase2",3508,,,2918,2918,,,,3,1
5c5db292be38480001141cf8,qaevpofiew,"Deep vs Shallow",1,248,2020-07-08T15:12:20-07:00,4.0516998767853,5,versionA_stim.csv,VC_VersionA.csv,"Version A","VC Version A",CHOP,CUT,Study2,F,107,158,VC,User,-,"How many vowels are the two words combined?|Type your response below and then press Enter.",Study/JOL,"Study Phase2",3454,,,2979,2979,,,,2,1
5c5db292be38480001141cf8,qaevpofiew,"Deep vs Shallow",1,249,2020-07-08T15:12:29-07:00,8.3592381477356,5,versionA_stim.csv,VC_VersionA.csv,"Version A","VC Version A",MAIN,SCAR,Study2,U,175,114,VC,User,-,"How many vowels are the two words combined?|Type your response below and then press Enter.",Study/JOL,"Study Phase2",7761,,,7321,7321,,,,3,1
5c5db292be38480001141cf8,qaevpofiew,"Deep vs Shallow",1,250,2020-07-08T15:12:32-07:00,2.9661319255829,5,versionA_stim.csv,VC_VersionA.csv,"Version A","VC Version A",DINE,EAT,Study2,F,111,160,VC,User,-,"How many vowels are the two words combined?|Type your response below and then press Enter.",Study/JOL,"Study Phase2",2373,,,1934,1934,,,,3,1
5c5db292be38480001141cf8,qaevpofiew,"Deep vs Shallow",1,251,2020-07-08T15:12:39-07:00,7.6418550014496,5,versionA_stim.csv,VC_VersionA.csv,"Version A","VC Version A",PHONE,COMMUNICATION,Study2,S,149,166,VC,User,-,"How many vowels are the two words combined?|Type your response below and then press Enter.",Study/JOL,"Study Phase2",7044,,,-1,-1,,,,,1
5c5db292be38480001141cf8,qaevpofiew,"Deep vs Shallow",1,252,2020-07-08T15:12:52-07:00,12.904144048691,5,versionA_stim.csv,VC_VersionA.csv,"Version A","VC Version A",SHEARS,SCISSORS,Study2,F,112,144,VC,User,-,"How many vowels are the two words combined?|Type your response below and then press Enter.",Study/JOL,"Study Phase2",12303,,,12033,12033,,,,4,1
5c5db292be38480001141cf8,qaevpofiew,"Deep vs Shallow",1,253,2020-07-08T15:13:01-07:00,9.1523349285126,5,versionA_stim.csv,VC_VersionA.csv,"Version A","VC Version A",TANTRUM,TEMPER,Study2,S,154,161,VC,User,-,"How many vowels are the two words combined?|Type your response below and then press Enter.",Study/JOL,"Study Phase2",8527,,,6189,8066,,,,4,1
5c5db292be38480001141cf8,qaevpofiew,"Deep vs Shallow",1,254,2020-07-08T15:13:06-07:00,4.1914701461792,5,versionA_stim.csv,VC_VersionA.csv,"Version A","VC Version A",CACTUS,PLANT,Study2,F,98,132,VC,User,-,"How many vowels are the two words combined?|Type your response below and then press Enter.",Study/JOL,"Study Phase2",3580,,,3189,3189,,,,3,1
5c5db292be38480001141cf8,qaevpofiew,"Deep vs Shallow",1,255,2020-07-08T15:13:12-07:00,6.6995987892151,5,versionA_stim.csv,VC_VersionA.csv,"Version A","VC Version A",BAD,VILLAIN,Study2,B,118,133,VC,User,-,"How many vowels are the two words combined?|Type your response below and then press Enter.",Study/JOL,"Study Phase2",6078,,,2943,2943,,,,3,1
5c5db292be38480001141cf8,qaevpofiew,"Deep vs Shallow",1,256,2020-07-08T15:13:19-07:00,7.1610350608826,5,versionA_stim.csv,VC_VersionA.csv,"Version A","VC Version A",VEHICLE,CHARM,Study2,U,160,157,VC,User,-,"How many vowels are the two words combined?|Type your response below and then press Enter.",Study/JOL,"Study Phase2",6578,,,5990,5990,,,,4,0.697
5c5db292be38480001141cf8,qaevpofiew,"Deep vs Shallow",1,257,2020-07-08T15:13:27-07:00,7.6316549777985,5,versionA_stim.csv,VC_VersionA.csv,"Version A","VC Version A",TURN,FLIP,Study2,B,116,163,VC,User,-,"How many vowels are the two words combined?|Type your response below and then press Enter.",Study/JOL,"Study Phase2",7036,,,6612,6612,,,,2,1
5c5db292be38480001141cf8,qaevpofiew,"Deep vs Shallow",1,258,2020-07-08T15:13:33-07:00,6.4346041679382,5,versionA_stim.csv,VC_VersionA.csv,"Version A","VC Version A",LISTEN,FICTION,Study2,U,164,156,VC,User,-,"How many vowels are the two words combined?|Type your response below and then press Enter.",Study/JOL,"Study Phase2",5833,,,3499,5214,,,,4,1
5c5db292be38480001141cf8,qaevpofiew,"Deep vs Shallow",1,259,2020-07-08T15:13:38-07:00,4.6205179691315,5,versionA_stim.csv,VC_VersionA.csv,"Version A","VC Version A",BIRD,PENGUIN,Study2,B,119,159,VC,User,-,"How many vowels are the two words combined?|Type your response below and then press Enter.",Study/JOL,"Study Phase2",4027,,,3567,3567,,,,3,1
5c5db292be38480001141cf8,qaevpofiew,"Deep vs Shallow",1,260,2020-07-08T15:13:43-07:00,5.1166439056396,5,versionA_stim.csv,VC_VersionA.csv,"Version A","VC Version A",AFFECTION,LOVE,Study2,F,115,148,VC,User,-,"How many vowels are the two words combined?|Type your response below and then press Enter.",Study/JOL,"Study Phase2",4515,,,3893,3893,,,,5,1
5c5db292be38480001141cf8,qaevpofiew,"Deep vs Shallow",1,261,2020-07-08T15:13:47-07:00,3.4071960449219,5,versionA_stim.csv,VC_VersionA.csv,"Version A","VC Version A",GIVE,STEAK,Study2,U,158,99,VC,User,-,"How many vowels are the two words combined?|Type your response below and then press Enter.",Study/JOL,"Study Phase2",2809,,,2339,2339,,,,4,1
5c5db292be38480001141cf8,qaevpofiew,"Deep vs Shallow",1,262,2020-07-08T15:13:51-07:00,4.1078310012817,5,versionA_stim.csv,VC_VersionA.csv,"Version A","VC Version A",FLEA,TICK,Study2,S,151,108,VC,User,-,"How many vowels are the two words combined?|Type your response below and then press Enter.",Study/JOL,"Study Phase2",3515,,,3084,3084,,,,3,1
5c5db292be38480001141cf8,qaevpofiew,"Deep vs Shallow",1,263,2020-07-08T15:13:55-07:00,4.5882380008698,5,versionA_stim.csv,VC_VersionA.csv,"Version A","VC Version A",MOAT,CLEAR,Study2,U,169,116,VC,User,-,"How many vowels are the two words combined?|Type your response below and then press Enter.",Study/JOL,"Study Phase2",3995,,,3560,3560,,,,4,1
5c5db292be38480001141cf8,qaevpofiew,"Deep vs Shallow",1,264,2020-07-08T15:14:07-07:00,11.828654050827,5,versionA_stim.csv,VC_VersionA.csv,"Version A","VC Version A",DOCUMENT,PAPER,Study2,F,109,150,VC,User,-,"How many vowels are the two words combined?|Type your response below and then press Enter.",Study/JOL,"Study Phase2",11210,,,10823,10823,,,,3,1
5c5db292be38480001141cf8,qaevpofiew,"Deep vs Shallow",1,265,2020-07-08T15:14:13-07:00,5.5176520347595,5,versionA_stim.csv,VC_VersionA.csv,"Version A","VC Version A",PLANE,AIRCRAFT,Study2,B,129,176,VC,User,-,"How many vowels are the two words combined?|Type your response below and then press Enter.",Study/JOL,"Study Phase2",4881,,,4556,4556,,,,3,1
5c5db292be38480001141cf8,qaevpofiew,"Deep vs Shallow",1,266,2020-07-08T15:14:16-07:00,3.7647609710693,5,versionA_stim.csv,VC_VersionA.csv,"Version A","VC Version A",SPRING,MARCH,BUFFER4,Buffer,179,179,VC,User,-,"How many vowels are the two words combined?|Type your response below and then press Enter.",Study/JOL,BUFFER4,3154,,,2629,2629,,,,2,1
5c5db292be38480001141cf8,qaevpofiew,"Deep vs Shallow",1,267,2020-07-08T15:14:20-07:00,3.9885330200195,5,versionA_stim.csv,VC_VersionA.csv,"Version A","VC Version A",OCTOBER,SPOOKY,BUFFER4,Buffer,180,178,VC,User,-,"How many vowels are the two words combined?|Type your response below and then press Enter.",Study/JOL,BUFFER4,3391,,,3009,3009,,,,4,1
5c5db292be38480001141cf8,qaevpofiew,"Deep vs Shallow",1,268,2020-07-08T15:14:25-07:00,4.3553848266602,5,versionA_stim.csv,VC_VersionA.csv,"Version A","VC Version A",MONTH,YEAR,BUFFER4,Buffer,177,177,VC,User,-,"How many vowels are the two words combined?|Type your response below and then press Enter.",Study/JOL,BUFFER4,3755,,,3473,3473,,,,3,1
5c5db292be38480001141cf8,qaevpofiew,"Deep vs Shallow",1,269,2020-07-08T15:14:29-07:00,3.8139910697937,5,versionA_stim.csv,VC_VersionA.csv,"Version A","VC Version A",DAYS,WEAKS,BUFFER4,Buffer,176,180,VC,User,-,"How many vowels are the two words combined?|Type your response below and then press Enter.",Study/JOL,BUFFER4,3164,,,2749,2749,,,,3,1
5c5db292be38480001141cf8,qaevpofiew,"Deep vs Shallow",1,270,2020-07-08T15:14:32-07:00,3.0555350780487,5,versionA_stim.csv,VC_VersionA.csv,"Version A","VC Version A",TOOL,SHED,BUFFER4,Buffer,178,181,VC,User,-,"How many vowels are the two words combined?|Type your response below and then press Enter.",Study/JOL,BUFFER4,2450,,,2025,2025,,,,3,1
5c5db292be38480001141cf8,qaevpofiew,"Deep vs Shallow",1,271,2020-07-08T15:14:34-07:00,2.1249248981476,5,versionA_stim.csv,VC_VersionA.csv,"Version A","VC Version A",,,,,,0,Instruct,User,-,"You have completed this section. Please press Enter.",Filler_Instruction,Instruct5,1629,,,-1,-1,,,,,1
5c5db292be38480001141cf8,qaevpofiew,"Deep vs Shallow",1,272,2020-07-08T15:16:34-07:00,120.63254094124,5,versionA_stim.csv,VC_VersionA.csv,"Version A","VC Version A",,,,,,0,FreeRecall,120,120,"Please list the 50 US states in reverse alphabetical order (z - a). The task will automatically advance to the next screen after two minutes.",,Filler2,120002,"Wisconsin Texas Oklahoma Louisiana Kentucky Kansas ",0,11512,63036,0,0,,,0.778
5c5db292be38480001141cf8,qaevpofiew,"Deep vs Shallow",1,273,2020-07-08T15:18:38-07:00,123.58167409897,5,versionA_stim.csv,VC_VersionA.csv,"Version A","VC Version A",,,,,,0,Instruct,-,10,"You will now be presented with the first word from each of the previously studied item pairs. Please type the missing word. If you do not know the word, you may guess or press Enter to skip forward to the next pair.",,Instruct6,122914,,,-1,-1,,,,,0.119
5c5db292be38480001141cf8,qaevpofiew,"Deep vs Shallow",1,274,2020-07-08T15:18:58-07:00,20.346654891968,5,versionA_stim.csv,VC_VersionA.csv,"Version A","VC Version A",FEUD,FIGHT,Study2,F,113,120,Test,User,-,,Recall,Recall2,19487,FIGHT,100,17407,17916,1,1,,,0.561
5c5db292be38480001141cf8,qaevpofiew,"Deep vs Shallow",1,275,2020-07-08T15:19:17-07:00,18.644865036011,5,versionA_stim.csv,VC_VersionA.csv,"Version A","VC Version A",DEAD,COFFIN,Study2,B,128,111,Test,User,-,,Recall,Recall2,17767,,0,-1,-1,0,0,,,0.146
5c5db292be38480001141cf8,qaevpofiew,"Deep vs Shallow",1,276,2020-07-08T15:19:30-07:00,12.724713087082,5,versionA_stim.csv,VC_VersionA.csv,"Version A","VC Version A",FISH,SARDINE,Study2,B,130,113,Test,User,-,,Recall,Recall2,11817,TUNA,18.181818181818,11054,11396,0,0,,,0.25
5c5db292be38480001141cf8,qaevpofiew,"Deep vs Shallow",1,277,2020-07-08T15:19:36-07:00,6.3765420913696,5,versionA_stim.csv,VC_VersionA.csv,"Version A","VC Version A",ALONE,LONELY,Study2,S,145,131,Test,User,-,,Recall,Recall2,5743,TOGETHER,28.571428571429,4597,5498,0,0,,,1
5c5db292be38480001141cf8,qaevpofiew,"Deep vs Shallow",1,278,2020-07-08T15:19:42-07:00,6.0451929569244,5,versionA_stim.csv,VC_VersionA.csv,"Version A","VC Version A",TEMPERATURE,Morning,Study2,U,173,151,Test,User,-,,Recall,Recall2,5416,,0,-1,-1,0,0,,,1
5c5db292be38480001141cf8,qaevpofiew,"Deep vs Shallow",1,279,2020-07-08T15:19:46-07:00,4.2698168754578,5,versionA_stim.csv,VC_VersionA.csv,"Version A","VC Version A",TRUTH,LIE,Study2,S,148,130,Test,User,-,,Recall,Recall2,3675,LIE,100,3013,3366,1,1,,,0.789
5c5db292be38480001141cf8,qaevpofiew,"Deep vs Shallow",1,280,2020-07-08T15:19:51-07:00,5.031366109848,5,versionA_stim.csv,VC_VersionA.csv,"Version A","VC Version A",JUSTICE,MAROON,Study2,U,156,146,Test,User,-,,Recall,Recall2,4436,,0,-1,-1,0,0,,,1
5c5db292be38480001141cf8,qaevpofiew,"Deep vs Shallow",1,281,2020-07-08T15:19:55-07:00,3.8965899944305,5,versionA_stim.csv,VC_VersionA.csv,"Version A","VC Version A",DRY,WET,Study2,S,146,110,Test,User,-,,Recall,Recall2,3285,WET,100,2312,2778,1,1,,,0.529
5c5db292be38480001141cf8,qaevpofiew,"Deep vs Shallow",1,282,2020-07-08T15:20:04-07:00,8.6854300498962,5,versionA_stim.csv,VC_VersionA.csv,"Version A","VC Version A",FIGHT,BRAWL,Study2,B,135,128,Test,User,-,,Recall,Recall2,8062,,0,-1,-1,0,0,,,0.049
5c5db292be38480001141cf8,qaevpofiew,"Deep vs Shallow",1,283,2020-07-08T15:20:09-07:00,5.3768668174744,5,versionA_stim.csv,VC_VersionA.csv,"Version A","VC Version A",MULE,DONKEY,Study2,F,108,154,Test,User,-,,Recall,Recall2,3580,,0,-1,-1,0,0,,,0.167
5c5db292be38480001141cf8,qaevpofiew,"Deep vs Shallow",1,284,2020-07-08T15:20:18-07:00,8.1866610050201,5,versionA_stim.csv,VC_VersionA.csv,"Version A","VC Version A",INCENSE,SMELL,Study2,F,110,174,Test,User,-,,Recall,Recall2,7507,SMELL,100,6483,7130,1,1,,,0.421
5c5db292be38480001141cf8,qaevpofiew,"Deep vs Shallow",1,285,2020-07-08T15:20:23-07:00,5.7149770259857,5,versionA_stim.csv,VC_VersionA.csv,"Version A","VC Version A",STRETCH,CLOTH,Study2,U,157,106,Test,User,-,,Recall,Recall2,5111,,0,-1,-1,0,0,,,1
5c5db292be38480001141cf8,qaevpofiew,"Deep vs Shallow",1,286,2020-07-08T15:20:37-07:00,13.458796024323,5,versionA_stim.csv,VC_VersionA.csv,"Version A","VC Version A",EVEN,REVENGE,Study2,B,122,104,Test,User,-,,Recall,Recall2,12812,,0,-1,-1,0,0,,,0.923
5c5db292be38480001141cf8,qaevpofiew,"Deep vs Shallow",1,287,2020-07-08T15:20:43-07:00,5.900083065033,5,versionA_stim.csv,VC_VersionA.csv,"Version A","VC Version A",ADJOURN,END,Study2,F,101,153,Test,User,-,,Recall,Recall2,5014,SUSPEND,60,3371,4342,0,0,,,1
5c5db292be38480001141cf8,qaevpofiew,"Deep vs Shallow",1,288,2020-07-08T15:20:45-07:00,2.6518189907074,5,versionA_stim.csv,VC_VersionA.csv,"Version A","VC Version A",POP,BALLOON,Study2,B,123,117,Test,User,-,,Recall,Recall2,2042,,0,-1,-1,0,0,,,1
5c5db292be38480001141cf8,qaevpofiew,"Deep vs Shallow",1,289,2020-07-08T15:20:51-07:00,5.4240629673004,5,versionA_stim.csv,VC_VersionA.csv,"Version A","VC Version A",SUN,TAN,Study2,S,155,145,Test,User,-,,Recall,Recall2,4828,NIGHT,25,3740,4378,0,0,,,1
5c5db292be38480001141cf8,qaevpofiew,"Deep vs Shallow",1,290,2020-07-08T15:20:52-07:00,1.7923359870911,5,versionA_stim.csv,VC_VersionA.csv,"Version A","VC Version A",SHEARS,SCISSORS,Study2,F,112,144,Test,User,-,,Recall,Recall2,1288,,0,-1,-1,0,0,,,1
5c5db292be38480001141cf8,qaevpofiew,"Deep vs Shallow",1,291,2020-07-08T15:20:59-07:00,6.3569340705872,5,versionA_stim.csv,VC_VersionA.csv,"Version A","VC Version A",CRACKLE,ABLE,Study2,U,162,101,Test,User,-,,Recall,Recall2,5752,CLICK,22.222222222222,4798,5405,0,0,,,1
5c5db292be38480001141cf8,qaevpofiew,"Deep vs Shallow",1,292,2020-07-08T15:21:03-07:00,3.7839229106903,5,versionA_stim.csv,VC_VersionA.csv,"Version A","VC Version A",RIGHTS,EQUAL,Study2,S,137,102,Test,User,-,,Recall,Recall2,3175,,0,-1,-1,0,0,,,1
5c5db292be38480001141cf8,qaevpofiew,"Deep vs Shallow",1,293,2020-07-08T15:21:06-07:00,3.0668580532074,5,versionA_stim.csv,VC_VersionA.csv,"Version A","VC Version A",CAT,PANTHER,Study2,B,126,125,Test,User,-,,Recall,Recall2,2456,DOG,0,1344,1675,0,0,,,1
5c5db292be38480001141cf8,qaevpofiew,"Deep vs Shallow",1,294,2020-07-08T15:21:18-07:00,12.442956924438,5,versionA_stim.csv,VC_VersionA.csv,"Version A","VC Version A",HONEST,TRUTHFUL,Study2,B,133,100,Test,User,-,,Recall,Recall2,11850,LIES,16.666666666667,3636,11584,0,0,,,1
5c5db292be38480001141cf8,qaevpofiew,"Deep vs Shallow",1,295,2020-07-08T15:21:21-07:00,3.1521849632263,5,versionA_stim.csv,VC_VersionA.csv,"Version A","VC Version A",CHOP,CUT,Study2,F,107,158,Test,User,-,,Recall,Recall2,2269,,0,-1,-1,0,0,,,1
5c5db292be38480001141cf8,qaevpofiew,"Deep vs Shallow",1,296,2020-07-08T15:21:38-07:00,16.359362125397,5,versionA_stim.csv,VC_VersionA.csv,"Version A","VC Version A",MIRROR,CHILDREN,Study2,U,174,124,Test,User,-,,Recall,Recall2,15735,REFLECTION,33.333333333333,12644,14166,0,0,,,0.468
5c5db292be38480001141cf8,qaevpofiew,"Deep vs Shallow",1,297,2020-07-08T15:21:43-07:00,5.0759270191193,5,versionA_stim.csv,VC_VersionA.csv,"Version A","VC Version A",SAFETY,SEATBELT,Study2,S,147,103,Test,User,-,,Recall,Recall2,4151,,0,-1,-1,0,0,,,1
5c5db292be38480001141cf8,qaevpofiew,"Deep vs Shallow",1,298,2020-07-08T15:21:47-07:00,4.5177319049835,5,versionA_stim.csv,VC_VersionA.csv,"Version A","VC Version A",LISTEN,FICTION,Study2,U,164,156,Test,User,-,,Recall,Recall2,3906,HEARD,0,2967,3575,0,0,,,1
5c5db292be38480001141cf8,qaevpofiew,"Deep vs Shallow",1,299,2020-07-08T15:21:51-07:00,3.801283121109,5,versionA_stim.csv,VC_VersionA.csv,"Version A","VC Version A",THREAD,THIMBLE,Study2,B,121,152,Test,User,-,,Recall,Recall2,3189,,0,-1,-1,0,0,,,1
5c5db292be38480001141cf8,qaevpofiew,"Deep vs Shallow",1,300,2020-07-08T15:21:54-07:00,3.3819940090179,5,versionA_stim.csv,VC_VersionA.csv,"Version A","VC Version A",WATER,DRINK,Study2,S,143,137,Test,User,-,,Recall,Recall2,2785,ICE,25,2053,2457,0,0,,,1
5c5db292be38480001141cf8,qaevpofiew,"Deep vs Shallow",1,301,2020-07-08T15:21:57-07:00,2.6920118331909,5,versionA_stim.csv,VC_VersionA.csv,"Version A","VC Version A",RAZOR,SHAVE,Study2,S,136,149,Test,User,-,,Recall,Recall2,2094,CUT,0,1310,1726,0,0,,,1
5c5db292be38480001141cf8,qaevpofiew,"Deep vs Shallow",1,302,2020-07-08T15:21:59-07:00,2.065376996994,5,versionA_stim.csv,VC_VersionA.csv,"Version A","VC Version A",CACTUS,PLANT,Study2,F,98,132,Test,User,-,,Recall,Recall2,1561,,0,-1,-1,0,0,,,1
5c5db292be38480001141cf8,qaevpofiew,"Deep vs Shallow",1,303,2020-07-08T15:22:02-07:00,2.8613920211792,5,versionA_stim.csv,VC_VersionA.csv,"Version A","VC Version A",CANDLE,WAX,Study2,S,139,168,Test,User,-,,Recall,Recall2,2265,LIGHT,0,1150,2014,0,0,,,1
5c5db292be38480001141cf8,qaevpofiew,"Deep vs Shallow",1,304,2020-07-08T15:22:04-07:00,2.425537109375,5,versionA_stim.csv,VC_VersionA.csv,"Version A","VC Version A",STAR,ACTRESS,Study2,B,120,155,Test,User,-,,Recall,Recall2,1803,,0,-1,-1,0,0,,,1
5c5db292be38480001141cf8,qaevpofiew,"Deep vs Shallow",1,305,2020-07-08T15:22:07-07:00,2.1171309947968,5,versionA_stim.csv,VC_VersionA.csv,"Version A","VC Version A",CLUE,GAME,Study2,F,97,119,Test,User,-,,Recall,Recall2,1514,,0,-1,-1,0,0,,,1
5c5db292be38480001141cf8,qaevpofiew,"Deep vs Shallow",1,306,2020-07-08T15:22:17-07:00,10.352001905441,5,versionA_stim.csv,VC_VersionA.csv,"Version A","VC Version A",EXTENSION,LONG,Study2,F,96,138,Test,User,-,,Recall,Recall2,9745,,0,8174,8174,0,0,,,1
5c5db292be38480001141cf8,qaevpofiew,"Deep vs Shallow",1,307,2020-07-08T15:22:20-07:00,2.9381649494171,5,versionA_stim.csv,VC_VersionA.csv,"Version A","VC Version A",VEHICLE,CHARM,Study2,U,160,157,Test,User,-,,Recall,Recall2,2343,DRIVE,20,1418,2116,0,0,,,1
5c5db292be38480001141cf8,qaevpofiew,"Deep vs Shallow",1,308,2020-07-08T15:22:26-07:00,5.7506861686707,5,versionA_stim.csv,VC_VersionA.csv,"Version A","VC Version A",LITTER,TRASH,Study2,F,103,126,Test,User,-,,Recall,Recall2,5149,CLEAN,20,4078,4753,0,0,,,1
5c5db292be38480001141cf8,qaevpofiew,"Deep vs Shallow",1,309,2020-07-08T15:22:29-07:00,3.6559028625488,5,versionA_stim.csv,VC_VersionA.csv,"Version A","VC Version A",BAD,VILLAIN,Study2,B,118,133,Test,User,-,,Recall,Recall2,3060,GOOD,0,1774,2183,0,0,,,1
5c5db292be38480001141cf8,qaevpofiew,"Deep vs Shallow",1,310,2020-07-08T15:22:32-07:00,3.0270540714264,5,versionA_stim.csv,VC_VersionA.csv,"Version A","VC Version A",OWN,HAVE,Study2,S,153,123,Test,User,-,,Recall,Recall2,2428,LOST,0,1589,2084,0,0,,,1
5c5db292be38480001141cf8,qaevpofiew,"Deep vs Shallow",1,311,2020-07-08T15:22:35-07:00,3.0933570861816,5,versionA_stim.csv,VC_VersionA.csv,"Version A","VC Version A",CHILL,COLD,Study2,F,114,147,Test,User,-,,Recall,Recall2,2476,,0,-1,-1,0,0,,,1
5c5db292be38480001141cf8,qaevpofiew,"Deep vs Shallow",1,312,2020-07-08T15:22:39-07:00,3.1434128284454,5,versionA_stim.csv,VC_VersionA.csv,"Version A","VC Version A",NAME,HATE,Study2,U,167,136,Test,User,-,,Recall,Recall2,2529,,0,-1,-1,0,0,,,1
5c5db292be38480001141cf8,qaevpofiew,"Deep vs Shallow",1,313,2020-07-08T15:22:41-07:00,2.083612203598,5,versionA_stim.csv,VC_VersionA.csv,"Version A","VC Version A",MOAT,CLEAR,Study2,U,169,116,Test,User,-,,Recall,Recall2,1578,,0,-1,-1,0,0,,,1
5c5db292be38480001141cf8,qaevpofiew,"Deep vs Shallow",1,314,2020-07-08T15:22:54-07:00,13.532626867294,5,versionA_stim.csv,VC_VersionA.csv,"Version A","VC Version A",FUZZY,BANG,Study2,U,168,105,Test,User,-,,Recall,Recall2,12906,SOFT,0,11954,12443,0,0,,,0.677
5c5db292be38480001141cf8,qaevpofiew,"Deep vs Shallow",1,315,2020-07-08T15:22:57-07:00,2.893049955368,5,versionA_stim.csv,VC_VersionA.csv,"Version A","VC Version A",MASON,JAR,Study2,S,138,141,Test,User,-,,Recall,Recall2,2291,JAR,100,1450,1780,1,1,,,1
5c5db292be38480001141cf8,qaevpofiew,"Deep vs Shallow",1,316,2020-07-08T15:23:00-07:00,2.7277271747589,5,versionA_stim.csv,VC_VersionA.csv,"Version A","VC Version A",KEYS,JOKE,Study2,U,165,121,Test,User,-,,Recall,Recall2,2118,LOCK,50,1449,1832,0,0,,,1
5c5db292be38480001141cf8,qaevpofiew,"Deep vs Shallow",1,317,2020-07-08T15:23:04-07:00,4.5242309570312,5,versionA_stim.csv,VC_VersionA.csv,"Version A","VC Version A",DINE,EAT,Study2,F,111,160,Test,User,-,,Recall,Recall2,3921,,0,-1,-1,0,0,,,1
5c5db292be38480001141cf8,qaevpofiew,"Deep vs Shallow",1,318,2020-07-08T15:23:07-07:00,2.8595578670502,5,versionA_stim.csv,VC_VersionA.csv,"Version A","VC Version A",GIVE,STEAK,Study2,U,158,99,Test,User,-,,Recall,Recall2,2251,TAKE,66.666666666667,1427,1942,0,0,,,1
5c5db292be38480001141cf8,qaevpofiew,"Deep vs Shallow",1,319,2020-07-08T15:23:13-07:00,5.8004851341248,5,versionA_stim.csv,VC_VersionA.csv,"Version A","VC Version A",BASEBALL,LEAGUE,Study2,B,131,142,Test,User,-,,Recall,Recall2,5198,,0,3864,4409,0,0,,,1
5c5db292be38480001141cf8,qaevpofiew,"Deep vs Shallow",1,320,2020-07-08T15:23:23-07:00,10.182126998901,5,versionA_stim.csv,VC_VersionA.csv,"Version A","VC Version A",MONEY,BANKER,Study2,B,132,134,Test,User,-,,Recall,Recall2,9579,PAYMENT,30.769230769231,8440,9264,0,0,,,1
5c5db292be38480001141cf8,qaevpofiew,"Deep vs Shallow",1,321,2020-07-08T15:23:27-07:00,4.1399910449982,5,versionA_stim.csv,VC_VersionA.csv,"Version A","VC Version A",TANTRUM,TEMPER,Study2,S,154,161,Test,User,-,,Recall,Recall2,3472,HAPPY,18.181818181818,2613,3174,0,0,,,1
5c5db292be38480001141cf8,qaevpofiew,"Deep vs Shallow",1,322,2020-07-08T15:23:32-07:00,4.2346220016479,5,versionA_stim.csv,VC_VersionA.csv,"Version A","VC Version A",SCALP,HEAD,Study2,F,105,98,Test,User,-,,Recall,Recall2,3625,,0,-1,-1,0,0,,,1
