Username,ID,ExperimentName,Session,Trial,Date,TimeDif,"Condition Number","Stimuli File","Order File","Condition Description","Condition Notes",Stimuli*Cue,Stimuli*Answer,Stimuli*Shuffle,"Stimuli*Stimuli Notes",Stimuli*Value,Procedure*Item,"Procedure*Trial Type","Procedure*Max Time","Procedure*Min Time",Procedure*Text,"Procedure*Procedure Notes",Procedure*Shuffle,Response*RT,Response*Response,Response*Accuracy,Response*RTfirst,Response*RTlast,Response*strictAcc,Response*lenientAcc,Response*focus,Response*JOL,Response*Focus
960689,y3gbxg6rwd,Nick_Dissertation_EX1b,1,1,2020-04-17T16:38:00-07:00,6.3071029186249,1,versionA_stim.csv,VC_VersionA.csv,"Version A","Version A",,,,,,0,Instruct,-,5,"In this section, you will be presented with a series of word pairs.",Initial_Instruct,Instruct1,6003,,,-1,-1,,,,,1
960689,y3gbxg6rwd,Nick_Dissertation_EX1b,1,2,2020-04-17T16:38:13-07:00,12.969392061234,1,versionA_stim.csv,VC_VersionA.csv,"Version A","Version A",,,,,,0,Instruct,-,5,"As you study, you will be asked to count the total number of vowels (a, e, i, o, u) within the two words. Please note that y is not considered a vowel.",,Instruct13,12280,,,-1,-1,,,,,1
960689,y3gbxg6rwd,Nick_Dissertation_EX1b,1,3,2020-04-17T16:38:27-07:00,14.028579950333,1,versionA_stim.csv,VC_VersionA.csv,"Version A","Version A",,,,,,0,Instruct,-,10,"For example, if you are given the pair CAT - DOG, CAT has one vowel and DOG has one vowel. The correct response would be 2 (1 + 1 = 2). After typing the number, you will press ENTER to move to the next pair.",,Instruct14,13282,,,-1,-1,,,,,1
960689,y3gbxg6rwd,Nick_Dissertation_EX1b,1,4,2020-04-17T16:39:06-07:00,39.016721963882,1,versionA_stim.csv,VC_VersionA.csv,"Version A","Version A",,,,,,0,Instruct,User,-,"You will now begin the study. Press Enter when you are ready to begin.",,Instruct16,5119,,,-1,-1,,,,,0.962
960689,y3gbxg6rwd,Nick_Dissertation_EX1b,1,5,2020-04-17T16:39:21-07:00,14.798400163651,1,versionA_stim.csv,VC_VersionA.csv,"Version A","Version A",PEANUT,BUTTER,BUFFER1,Buffer,3,4,VC,User,-,"How many vowels are the two words combined?|Type your response below and then press Enter.",Study/JOL,BUFFER,12969,,,11579,11579,,,,5,1
960689,y3gbxg6rwd,Nick_Dissertation_EX1b,1,6,2020-04-17T16:39:29-07:00,8.242360830307,1,versionA_stim.csv,VC_VersionA.csv,"Version A","Version A",SPACE,JAM,BUFFER1,Buffer,5,5,VC,User,-,"How many vowels are the two words combined?|Type your response below and then press Enter.",Study/JOL,BUFFER,6814,,,5780,5780,,,,3,1
960689,y3gbxg6rwd,Nick_Dissertation_EX1b,1,7,2020-04-17T16:39:38-07:00,8.604709148407,1,versionA_stim.csv,VC_VersionA.csv,"Version A","Version A",TREES,GREEN,BUFFER1,Buffer,1,3,VC,User,-,"How many vowels are the two words combined?|Type your response below and then press Enter.",Study/JOL,BUFFER,5076,,,4235,4235,,,,4,1
960689,y3gbxg6rwd,Nick_Dissertation_EX1b,1,8,2020-04-17T16:39:45-07:00,7.1662678718567,1,versionA_stim.csv,VC_VersionA.csv,"Version A","Version A",SCARE,HIDE,BUFFER1,Buffer,4,6,VC,User,-,"How many vowels are the two words combined?|Type your response below and then press Enter.",Study/JOL,BUFFER,6135,,,5293,5293,,,,4,1
960689,y3gbxg6rwd,Nick_Dissertation_EX1b,1,9,2020-04-17T16:39:53-07:00,7.6159560680389,1,versionA_stim.csv,VC_VersionA.csv,"Version A","Version A",BASEBALL,CATCHER,BUFFER1,Buffer,2,2,VC,User,-,"How many vowels are the two words combined?|Type your response below and then press Enter.",Study/JOL,BUFFER,5450,,,4547,4547,,,,5,1
960689,y3gbxg6rwd,Nick_Dissertation_EX1b,1,10,2020-04-17T16:40:01-07:00,8.2563629150391,1,versionA_stim.csv,VC_VersionA.csv,"Version A","Version A",DEATH,BUSINESS,Study1,U,72,42,VC,User,-,"How many vowels are the two words combined?|Type your response below and then press Enter.",Study/JOL,"Study Phase",6563,,,5652,5652,,,,5,1
960689,y3gbxg6rwd,Nick_Dissertation_EX1b,1,11,2020-04-17T16:40:06-07:00,4.9158799648285,1,versionA_stim.csv,VC_VersionA.csv,"Version A","Version A",BABY,CHILD,Study1,S,64,85,VC,User,-,"How many vowels are the two words combined?|Type your response below and then press Enter.",Study/JOL,"Study Phase",3707,,,3033,3034,,,,2,1
960689,y3gbxg6rwd,Nick_Dissertation_EX1b,1,12,2020-04-17T16:40:13-07:00,6.8909721374512,1,versionA_stim.csv,VC_VersionA.csv,"Version A","Version A",PARK,HUNGRY,Study1,U,68,36,VC,User,-,"How many vowels are the two words combined?|Type your response below and then press Enter.",Study/JOL,"Study Phase",4495,,,3060,3060,,,,2,1
960689,y3gbxg6rwd,Nick_Dissertation_EX1b,1,13,2020-04-17T16:40:18-07:00,5.0890040397644,1,versionA_stim.csv,VC_VersionA.csv,"Version A","Version A",SOON,BELT,Study1,U,70,39,VC,User,-,"How many vowels are the two words combined?|Type your response below and then press Enter.",Study/JOL,"Study Phase",3178,,,2525,2526,,,,3,1
960689,y3gbxg6rwd,Nick_Dissertation_EX1b,1,14,2020-04-17T16:40:25-07:00,7.0692720413208,1,versionA_stim.csv,VC_VersionA.csv,"Version A","Version A",WINE,CHEESE,Study1,S,57,71,VC,User,-,"How many vowels are the two words combined?|Type your response below and then press Enter.",Study/JOL,"Study Phase",4357,,,3593,3593,,,,5,1
960689,y3gbxg6rwd,Nick_Dissertation_EX1b,1,15,2020-04-17T16:40:37-07:00,12.274558782578,1,versionA_stim.csv,VC_VersionA.csv,"Version A","Version A",HOT,CHILI,Study1,B,37,12,VC,User,-,"How many vowels are the two words combined?|Type your response below and then press Enter.",Study/JOL,"Study Phase",7945,,,6573,6573,,,,3,1
960689,y3gbxg6rwd,Nick_Dissertation_EX1b,1,16,2020-04-17T16:40:48-07:00,11.065836191177,1,versionA_stim.csv,VC_VersionA.csv,"Version A","Version A",SWAN,BIRD,Study1,F,14,79,VC,User,-,"How many vowels are the two words combined?|Type your response below and then press Enter.",Study/JOL,"Study Phase",8332,,,7204,7204,,,,2,1
960689,y3gbxg6rwd,Nick_Dissertation_EX1b,1,17,2020-04-17T16:40:53-07:00,4.3208630084991,1,versionA_stim.csv,VC_VersionA.csv,"Version A","Version A",HIDE,SICK,Study1,U,84,50,VC,User,-,"How many vowels are the two words combined?|Type your response below and then press Enter.",Study/JOL,"Study Phase",3112,,,2560,2560,,,,3,1
960689,y3gbxg6rwd,Nick_Dissertation_EX1b,1,18,2020-04-17T16:41:04-07:00,11.127914905548,1,versionA_stim.csv,VC_VersionA.csv,"Version A","Version A",MEANING,DEFINITION,Study1,S,62,19,VC,User,-,"How many vowels are the two words combined?|Type your response below and then press Enter.",Study/JOL,"Study Phase",8970,,,7993,7993,,,,7,1
960689,y3gbxg6rwd,Nick_Dissertation_EX1b,1,19,2020-04-17T16:41:10-07:00,6.3093719482422,1,versionA_stim.csv,VC_VersionA.csv,"Version A","Version A",HYGIENE,CLEAN,Study1,F,17,15,VC,User,-,"How many vowels are the two words combined?|Type your response below and then press Enter.",Study/JOL,"Study Phase",4899,,,4179,4179,,,,5,1
960689,y3gbxg6rwd,Nick_Dissertation_EX1b,1,20,2020-04-17T16:41:16-07:00,5.8945670127869,1,versionA_stim.csv,VC_VersionA.csv,"Version A","Version A",CIRCLE,ROUND,Study1,S,65,13,VC,User,-,"How many vowels are the two words combined?|Type your response below and then press Enter.",Study/JOL,"Study Phase",4742,,,4175,4175,,,,4,1
960689,y3gbxg6rwd,Nick_Dissertation_EX1b,1,21,2020-04-17T16:41:18-07:00,2.1102759838104,1,versionA_stim.csv,VC_VersionA.csv,"Version A","Version A",BITTER,COLD,Study1,F,12,46,VC,User,-,"How many vowels are the two words combined?|Type your response below and then press Enter.",Study/JOL,"Study Phase",1412,,,-1,-1,,,,,1
960689,y3gbxg6rwd,Nick_Dissertation_EX1b,1,22,2020-04-17T16:41:26-07:00,8.0722131729126,1,versionA_stim.csv,VC_VersionA.csv,"Version A","Version A",CHISEL,HAMMER,Study1,F,9,22,VC,User,-,"How many vowels are the two words combined?|Type your response below and then press Enter.",Study/JOL,"Study Phase",6531,,,5886,5886,,,,4,1
960689,y3gbxg6rwd,Nick_Dissertation_EX1b,1,23,2020-04-17T16:41:32-07:00,5.7901768684387,1,versionA_stim.csv,VC_VersionA.csv,"Version A","Version A",BUG,WASP,Study1,B,32,84,VC,User,-,"How many vowels are the two words combined?|Type your response below and then press Enter.",Study/JOL,"Study Phase",4720,,,3319,3319,,,,2,1
960689,y3gbxg6rwd,Nick_Dissertation_EX1b,1,24,2020-04-17T16:41:40-07:00,8.2585940361023,1,versionA_stim.csv,VC_VersionA.csv,"Version A","Version A",HEIGHT,GROWTH,Study1,B,30,35,VC,User,-,"How many vowels are the two words combined?|Type your response below and then press Enter.",Study/JOL,"Study Phase",5062,,,3581,3581,,,,3,1
960689,y3gbxg6rwd,Nick_Dissertation_EX1b,1,25,2020-04-17T16:41:48-07:00,7.3744950294495,1,versionA_stim.csv,VC_VersionA.csv,"Version A","Version A",BLOW,WIND,Study1,S,55,78,VC,User,-,"How many vowels are the two words combined?|Type your response below and then press Enter.",Study/JOL,"Study Phase",5244,,,4145,4145,,,,2,1
960689,y3gbxg6rwd,Nick_Dissertation_EX1b,1,26,2020-04-17T16:41:54-07:00,6.7236859798431,1,versionA_stim.csv,VC_VersionA.csv,"Version A","Version A",FIX,HAND,Study1,U,75,53,VC,User,-,"How many vowels are the two words combined?|Type your response below and then press Enter.",Study/JOL,"Study Phase",4023,,,3478,3478,,,,2,1
960689,y3gbxg6rwd,Nick_Dissertation_EX1b,1,27,2020-04-17T16:42:09-07:00,14.824501991272,1,versionA_stim.csv,VC_VersionA.csv,"Version A","Version A",SMELL,STENCH,Study1,B,42,66,VC,User,-,"How many vowels are the two words combined?|Type your response below and then press Enter.",Study/JOL,"Study Phase",10065,,,9469,9469,,,,2,1
960689,y3gbxg6rwd,Nick_Dissertation_EX1b,1,28,2020-04-17T16:42:20-07:00,11.364119052887,1,versionA_stim.csv,VC_VersionA.csv,"Version A","Version A",FIRE,BLAZE,Study1,B,45,51,VC,User,-,"How many vowels are the two words combined?|Type your response below and then press Enter.",Study/JOL,"Study Phase",10466,,,8726,9699,,,,4,1
960689,y3gbxg6rwd,Nick_Dissertation_EX1b,1,29,2020-04-17T16:42:31-07:00,10.764261960983,1,versionA_stim.csv,VC_VersionA.csv,"Version A","Version A",HERD,COW,Study1,F,22,18,VC,User,-,"How many vowels are the two words combined?|Type your response below and then press Enter.",Study/JOL,"Study Phase",9670,,,8517,8517,,,,2,1
960689,y3gbxg6rwd,Nick_Dissertation_EX1b,1,30,2020-04-17T16:42:43-07:00,11.732001066208,1,versionA_stim.csv,VC_VersionA.csv,"Version A","Version A",VALLEY,ADD,Study1,U,82,40,VC,User,-,"How many vowels are the two words combined?|Type your response below and then press Enter.",Study/JOL,"Study Phase",9073,,,8458,8459,,,,3,1
960689,y3gbxg6rwd,Nick_Dissertation_EX1b,1,31,2020-04-17T16:42:49-07:00,5.5850639343262,1,versionA_stim.csv,VC_VersionA.csv,"Version A","Version A",CASH,WOULD,Study1,U,83,11,VC,User,-,"How many vowels are the two words combined?|Type your response below and then press Enter.",Study/JOL,"Study Phase",3632,,,2767,2767,,,,3,1
960689,y3gbxg6rwd,Nick_Dissertation_EX1b,1,32,2020-04-17T16:42:55-07:00,6.0023510456085,1,versionA_stim.csv,VC_VersionA.csv,"Version A","Version A",BALL,RACKET,Study1,B,38,21,VC,User,-,"How many vowels are the two words combined?|Type your response below and then press Enter.",Study/JOL,"Study Phase",4193,,,3623,3623,,,,3,1
960689,y3gbxg6rwd,Nick_Dissertation_EX1b,1,33,2020-04-17T16:42:59-07:00,4.9325590133667,1,versionA_stim.csv,VC_VersionA.csv,"Version A","Version A",ARTERY,BRONZE,Study1,U,74,62,VC,User,-,"How many vowels are the two words combined?|Type your response below and then press Enter.",Study/JOL,"Study Phase",4048,,,3409,3409,,,,4,1
960689,y3gbxg6rwd,Nick_Dissertation_EX1b,1,34,2020-04-17T16:43:08-07:00,8.94100689888,1,versionA_stim.csv,VC_VersionA.csv,"Version A","Version A",REVOLUTION,WAR,Study1,F,20,58,VC,User,-,"How many vowels are the two words combined?|Type your response below and then press Enter.",Study/JOL,"Study Phase",7293,,,6370,6370,,,,6,1
960689,y3gbxg6rwd,Nick_Dissertation_EX1b,1,35,2020-04-17T16:43:17-07:00,8.0828859806061,1,versionA_stim.csv,VC_VersionA.csv,"Version A","Version A",ROOT,PLANT,Study1,F,13,65,VC,User,-,"How many vowels are the two words combined?|Type your response below and then press Enter.",Study/JOL,"Study Phase",5244,,,4655,4655,,,,3,1
960689,y3gbxg6rwd,Nick_Dissertation_EX1b,1,36,2020-04-17T16:43:24-07:00,7.4807851314545,1,versionA_stim.csv,VC_VersionA.csv,"Version A","Version A",DELINQUENT,BAD,Study1,F,6,10,VC,User,-,"How many vowels are the two words combined?|Type your response below and then press Enter.",Study/JOL,"Study Phase",6371,,,5889,5889,,,,5,1
960689,y3gbxg6rwd,Nick_Dissertation_EX1b,1,37,2020-04-17T16:43:29-07:00,5.2828009128571,1,versionA_stim.csv,VC_VersionA.csv,"Version A","Version A",LAW,ATTORNEY,Study1,B,34,43,VC,User,-,"How many vowels are the two words combined?|Type your response below and then press Enter.",Study/JOL,"Study Phase",3657,,,2953,2953,,,,4,1
960689,y3gbxg6rwd,Nick_Dissertation_EX1b,1,38,2020-04-17T16:43:35-07:00,6.1495699882507,1,versionA_stim.csv,VC_VersionA.csv,"Version A","Version A",HORNET,STING,Study1,F,11,45,VC,User,-,"How many vowels are the two words combined?|Type your response below and then press Enter.",Study/JOL,"Study Phase",4554,,,3269,3269,,,,3,1
960689,y3gbxg6rwd,Nick_Dissertation_EX1b,1,39,2020-04-17T16:43:41-07:00,6.0193490982056,1,versionA_stim.csv,VC_VersionA.csv,"Version A","Version A",LIFT,WOMAN,Study1,U,69,37,VC,User,-,"How many vowels are the two words combined?|Type your response below and then press Enter.",Study/JOL,"Study Phase",2887,,,2458,2458,,,,3,1
960689,y3gbxg6rwd,Nick_Dissertation_EX1b,1,40,2020-04-17T16:43:49-07:00,7.5008718967438,1,versionA_stim.csv,VC_VersionA.csv,"Version A","Version A",ARCHITECTURE,DESIGN,Study1,S,51,30,VC,User,-,"How many vowels are the two words combined?|Type your response below and then press Enter.",Study/JOL,"Study Phase",6379,,,5874,5874,,,,7,1
960689,y3gbxg6rwd,Nick_Dissertation_EX1b,1,41,2020-04-17T16:44:04-07:00,15.054599046707,1,versionA_stim.csv,VC_VersionA.csv,"Version A","Version A",LETTUCE,SALAD,Study1,S,59,67,VC,User,-,"How many vowels are the two words combined?|Type your response below and then press Enter.",Study/JOL,"Study Phase",10119,,,9774,9774,,,,5,1
960689,y3gbxg6rwd,Nick_Dissertation_EX1b,1,42,2020-04-17T16:44:10-07:00,5.7386128902435,1,versionA_stim.csv,VC_VersionA.csv,"Version A","Version A",MACHINE,POSITION,Study1,U,76,8,VC,User,-,"How many vowels are the two words combined?|Type your response below and then press Enter.",Study/JOL,"Study Phase",4568,,,4357,4357,,,,7,1
960689,y3gbxg6rwd,Nick_Dissertation_EX1b,1,43,2020-04-17T16:44:14-07:00,3.7771761417389,1,versionA_stim.csv,VC_VersionA.csv,"Version A","Version A",HAPPY,CAR,Study1,U,77,81,VC,User,-,"How many vowels are the two words combined?|Type your response below and then press Enter.",Study/JOL,"Study Phase",2677,,,2473,2473,,,,2,1
960689,y3gbxg6rwd,Nick_Dissertation_EX1b,1,44,2020-04-17T16:44:28-07:00,14.74641084671,1,versionA_stim.csv,VC_VersionA.csv,"Version A","Version A",DUMP,WASTE,Study1,S,49,56,VC,User,-,"How many vowels are the two words combined?|Type your response below and then press Enter.",Study/JOL,"Study Phase",4351,,,4010,4010,,,,3,0.955
960689,y3gbxg6rwd,Nick_Dissertation_EX1b,1,45,2020-04-17T16:44:32-07:00,3.6865990161896,1,versionA_stim.csv,VC_VersionA.csv,"Version A","Version A",WAGE,MONEY,Study1,F,8,34,VC,User,-,"How many vowels are the two words combined?|Type your response below and then press Enter.",Study/JOL,"Study Phase",2681,,,2513,2513,,,,4,1
960689,y3gbxg6rwd,Nick_Dissertation_EX1b,1,46,2020-04-17T16:44:37-07:00,4.9189810752869,1,versionA_stim.csv,VC_VersionA.csv,"Version A","Version A",TUNA,FISH,Study1,F,25,83,VC,User,-,"How many vowels are the two words combined?|Type your response below and then press Enter.",Study/JOL,"Study Phase",2672,,,2202,2202,,,,3,1
960689,y3gbxg6rwd,Nick_Dissertation_EX1b,1,47,2020-04-17T16:44:42-07:00,5.2581059932709,1,versionA_stim.csv,VC_VersionA.csv,"Version A","Version A",TAKE,SEIZE,Study1,B,29,68,VC,User,-,"How many vowels are the two words combined?|Type your response below and then press Enter.",Study/JOL,"Study Phase",3581,,,3366,3366,,,,5,1
960689,y3gbxg6rwd,Nick_Dissertation_EX1b,1,48,2020-04-17T16:44:48-07:00,5.8048470020294,1,versionA_stim.csv,VC_VersionA.csv,"Version A","Version A",FULL,ENOUGH,Study1,B,26,49,VC,User,-,"How many vowels are the two words combined?|Type your response below and then press Enter.",Study/JOL,"Study Phase",5019,,,4841,4841,,,,4,1
960689,y3gbxg6rwd,Nick_Dissertation_EX1b,1,49,2020-04-17T16:44:55-07:00,6.7498400211334,1,versionA_stim.csv,VC_VersionA.csv,"Version A","Version A",DUE,ASSIGNMENT,Study1,S,46,27,VC,User,-,"How many vowels are the two words combined?|Type your response below and then press Enter.",Study/JOL,"Study Phase",5048,,,4866,4867,,,,5,1
960689,y3gbxg6rwd,Nick_Dissertation_EX1b,1,50,2020-04-17T16:45:01-07:00,6.4542589187622,1,versionA_stim.csv,VC_VersionA.csv,"Version A","Version A",DIETARY,SACKING,Study1,U,67,32,VC,User,-,"How many vowels are the two words combined?|Type your response below and then press Enter.",Study/JOL,"Study Phase",4928,,,4718,4719,,,,5,1
960689,y3gbxg6rwd,Nick_Dissertation_EX1b,1,51,2020-04-17T16:45:07-07:00,5.8375639915466,1,versionA_stim.csv,VC_VersionA.csv,"Version A","Version A",GEOLOGY,ROCK,Study1,F,19,44,VC,User,-,"How many vowels are the two words combined?|Type your response below and then press Enter.",Study/JOL,"Study Phase",4012,,,3822,3822,,,,4,1
960689,y3gbxg6rwd,Nick_Dissertation_EX1b,1,52,2020-04-17T16:45:12-07:00,4.9415769577026,1,versionA_stim.csv,VC_VersionA.csv,"Version A","Version A",PUSHER,CLUTTER,Study1,U,66,31,VC,User,-,"How many vowels are the two words combined?|Type your response below and then press Enter.",Study/JOL,"Study Phase",3055,,,2858,2859,,,,4,1
960689,y3gbxg6rwd,Nick_Dissertation_EX1b,1,53,2020-04-17T16:45:16-07:00,4.2695181369781,1,versionA_stim.csv,VC_VersionA.csv,"Version A","Version A",WORK,CHORE,Study1,B,39,9,VC,User,-,"How many vowels are the two words combined?|Type your response below and then press Enter.",Study/JOL,"Study Phase",2459,,,2317,2317,,,,3,1
960689,y3gbxg6rwd,Nick_Dissertation_EX1b,1,54,2020-04-17T16:45:21-07:00,4.6051869392395,1,versionA_stim.csv,VC_VersionA.csv,"Version A","Version A",PAW,DOG,Study1,F,15,57,VC,User,-,"How many vowels are the two words combined?|Type your response below and then press Enter.",Study/JOL,"Study Phase",3395,,,1808,2769,,,,2,1
960689,y3gbxg6rwd,Nick_Dissertation_EX1b,1,55,2020-04-17T16:45:26-07:00,5.1536459922791,1,versionA_stim.csv,VC_VersionA.csv,"Version A","Version A",STRONG,ACCIDENT,Study1,U,80,38,VC,User,-,"How many vowels are the two words combined?|Type your response below and then press Enter.",Study/JOL,"Study Phase",3757,,,3580,3580,,,,4,1
960689,y3gbxg6rwd,Nick_Dissertation_EX1b,1,56,2020-04-17T16:45:29-07:00,3.4513289928436,1,versionA_stim.csv,VC_VersionA.csv,"Version A","Version A",DARK,CAVE,Study1,B,28,61,VC,User,-,"How many vowels are the two words combined?|Type your response below and then press Enter.",Study/JOL,"Study Phase",2554,,,2285,2285,,,,3,1
960689,y3gbxg6rwd,Nick_Dissertation_EX1b,1,57,2020-04-17T16:45:49-07:00,19.67938709259,1,versionA_stim.csv,VC_VersionA.csv,"Version A","Version A",BATHROOM,TOILET,Study1,S,58,17,VC,User,-,"How many vowels are the two words combined?|Type your response below and then press Enter.",Study/JOL,"Study Phase",17718,,,17438,17438,,,,6,1
960689,y3gbxg6rwd,Nick_Dissertation_EX1b,1,58,2020-04-17T16:45:55-07:00,6.4328918457031,1,versionA_stim.csv,VC_VersionA.csv,"Version A","Version A",DEBATE,SIGHT,Study1,U,73,48,VC,User,-,"How many vowels are the two words combined?|Type your response below and then press Enter.",Study/JOL,"Study Phase",5066,,,3137,3137,,,,4,1
960689,y3gbxg6rwd,Nick_Dissertation_EX1b,1,59,2020-04-17T16:46:00-07:00,4.6089141368866,1,versionA_stim.csv,VC_VersionA.csv,"Version A","Version A",EDITOR,NEWS,Study1,F,10,72,VC,User,-,"How many vowels are the two words combined?|Type your response below and then press Enter.",Study/JOL,"Study Phase",2876,,,2657,2657,,,,4,1
960689,y3gbxg6rwd,Nick_Dissertation_EX1b,1,60,2020-04-17T16:46:19-07:00,18.430814027786,1,versionA_stim.csv,VC_VersionA.csv,"Version A","Version A",KIDNEY,LIVER,Study1,S,53,55,VC,User,-,"How many vowels are the two words combined?|Type your response below and then press Enter.",Study/JOL,"Study Phase",16610,,,16410,16410,,,,4,1
960689,y3gbxg6rwd,Nick_Dissertation_EX1b,1,61,2020-04-17T16:46:24-07:00,5.8368728160858,1,versionA_stim.csv,VC_VersionA.csv,"Version A","Version A",MATH,DIVISION,Study1,B,33,28,VC,User,-,"How many vowels are the two words combined?|Type your response below and then press Enter.",Study/JOL,"Study Phase",3788,,,3578,3579,,,,4,1
960689,y3gbxg6rwd,Nick_Dissertation_EX1b,1,62,2020-04-17T16:46:30-07:00,5.2226271629333,1,versionA_stim.csv,VC_VersionA.csv,"Version A","Version A",HUNGER,FAMINE,Study1,B,40,75,VC,User,-,"How many vowels are the two words combined?|Type your response below and then press Enter.",Study/JOL,"Study Phase",3776,,,3567,3567,,,,5,1
960689,y3gbxg6rwd,Nick_Dissertation_EX1b,1,63,2020-04-17T16:46:36-07:00,6.763885974884,1,versionA_stim.csv,VC_VersionA.csv,"Version A","Version A",DIGESTION,STOMACH,Study1,F,7,33,VC,User,-,"How many vowels are the two words combined?|Type your response below and then press Enter.",Study/JOL,"Study Phase",4999,,,4810,4810,,,,6,1
960689,y3gbxg6rwd,Nick_Dissertation_EX1b,1,64,2020-04-17T16:46:41-07:00,4.2993249893188,1,versionA_stim.csv,VC_VersionA.csv,"Version A","Version A",HONEY,BEE,Study1,S,63,20,VC,User,-,"How many vowels are the two words combined?|Type your response below and then press Enter.",Study/JOL,"Study Phase",2526,,,2208,2208,,,,4,1
960689,y3gbxg6rwd,Nick_Dissertation_EX1b,1,65,2020-04-17T16:46:46-07:00,5.2222208976746,1,versionA_stim.csv,VC_VersionA.csv,"Version A","Version A",SENTENCE,WORD,Study1,B,31,16,VC,User,-,"How many vowels are the two words combined?|Type your response below and then press Enter.",Study/JOL,"Study Phase",3349,,,3125,3125,,,,4,1
960689,y3gbxg6rwd,Nick_Dissertation_EX1b,1,66,2020-04-17T16:46:49-07:00,3.5630769729614,1,versionA_stim.csv,VC_VersionA.csv,"Version A","Version A",SHOE,FOOT,Study1,S,60,23,VC,User,-,"How many vowels are the two words combined?|Type your response below and then press Enter.",Study/JOL,"Study Phase",1967,,,1757,1757,,,,4,1
960689,y3gbxg6rwd,Nick_Dissertation_EX1b,1,67,2020-04-17T16:46:54-07:00,4.7305910587311,1,versionA_stim.csv,VC_VersionA.csv,"Version A","Version A",SUGAR,RIDDLE,Study1,U,81,26,VC,User,-,"How many vowels are the two words combined?|Type your response below and then press Enter.",Study/JOL,"Study Phase",3049,,,2858,2858,,,,4,1
960689,y3gbxg6rwd,Nick_Dissertation_EX1b,1,68,2020-04-17T16:46:58-07:00,4.30104804039,1,versionA_stim.csv,VC_VersionA.csv,"Version A","Version A",WAY,OUT,Study1,F,16,76,VC,User,-,"How many vowels are the two words combined?|Type your response below and then press Enter.",Study/JOL,"Study Phase",2600,,,2259,2259,,,,3,1
960689,y3gbxg6rwd,Nick_Dissertation_EX1b,1,69,2020-04-17T16:47:03-07:00,4.326896905899,1,versionA_stim.csv,VC_VersionA.csv,"Version A","Version A",ALLOW,TUCK,Study1,U,78,82,VC,User,-,"How many vowels are the two words combined?|Type your response below and then press Enter.",Study/JOL,"Study Phase",2584,,,2372,2372,,,,3,1
960689,y3gbxg6rwd,Nick_Dissertation_EX1b,1,70,2020-04-17T16:47:08-07:00,5.5192420482635,1,versionA_stim.csv,VC_VersionA.csv,"Version A","Version A",GRILL,BAR,Study1,S,52,52,VC,User,-,"How many vowels are the two words combined?|Type your response below and then press Enter.",Study/JOL,"Study Phase",3750,,,3525,3525,,,,2,1
960689,y3gbxg6rwd,Nick_Dissertation_EX1b,1,71,2020-04-17T16:47:13-07:00,4.2874510288239,1,versionA_stim.csv,VC_VersionA.csv,"Version A","Version A",BRIDGE,WATER,Study1,F,18,24,VC,User,-,"How many vowels are the two words combined?|Type your response below and then press Enter.",Study/JOL,"Study Phase",3305,,,3081,3082,,,,4,1
960689,y3gbxg6rwd,Nick_Dissertation_EX1b,1,72,2020-04-17T16:47:19-07:00,6.5719890594482,1,versionA_stim.csv,VC_VersionA.csv,"Version A","Version A",CLOTHES,ATTIRE,Study1,B,43,7,VC,User,-,"How many vowels are the two words combined?|Type your response below and then press Enter.",Study/JOL,"Study Phase",4799,,,4571,4572,,,,5,1
960689,y3gbxg6rwd,Nick_Dissertation_EX1b,1,73,2020-04-17T16:47:24-07:00,4.4911260604858,1,versionA_stim.csv,VC_VersionA.csv,"Version A","Version A",ORCHID,FLOWER,Study1,F,24,25,VC,User,-,"How many vowels are the two words combined?|Type your response below and then press Enter.",Study/JOL,"Study Phase",3636,,,3467,3467,,,,4,1
960689,y3gbxg6rwd,Nick_Dissertation_EX1b,1,74,2020-04-17T16:47:42-07:00,18.734387874603,1,versionA_stim.csv,VC_VersionA.csv,"Version A","Version A",POP,SODA,Study1,S,56,69,VC,User,-,"How many vowels are the two words combined?|Type your response below and then press Enter.",Study/JOL,"Study Phase",6679,,,5981,5981,,,,3,0.971
960689,y3gbxg6rwd,Nick_Dissertation_EX1b,1,75,2020-04-17T16:47:48-07:00,5.8354661464691,1,versionA_stim.csv,VC_VersionA.csv,"Version A","Version A",PAST,FUTURE,Study1,S,61,86,VC,User,-,"How many vowels are the two words combined?|Type your response below and then press Enter.",Study/JOL,"Study Phase",4088,,,3852,3852,,,,4,1
960689,y3gbxg6rwd,Nick_Dissertation_EX1b,1,76,2020-04-17T16:47:57-07:00,8.8492457866669,1,versionA_stim.csv,VC_VersionA.csv,"Version A","Version A",KEY,LATCH,Study1,B,36,14,VC,User,-,"How many vowels are the two words combined?|Type your response below and then press Enter.",Study/JOL,"Study Phase",2336,,,1636,1636,,,,2,0.917
960689,y3gbxg6rwd,Nick_Dissertation_EX1b,1,77,2020-04-17T16:48:07-07:00,9.603077173233,1,versionA_stim.csv,VC_VersionA.csv,"Version A","Version A",CREDIT,CARD,Study1,F,23,80,VC,User,-,"How many vowels are the two words combined?|Type your response below and then press Enter.",Study/JOL,"Study Phase",8526,,,7875,7875,,,,3,1
960689,y3gbxg6rwd,Nick_Dissertation_EX1b,1,78,2020-04-17T16:48:24-07:00,16.875360012054,1,versionA_stim.csv,VC_VersionA.csv,"Version A","Version A",LOCATION,SITE,Study1,S,48,64,VC,User,-,"How many vowels are the two words combined?|Type your response below and then press Enter.",Study/JOL,"Study Phase",15263,,,13429,13429,,,,6,1
960689,y3gbxg6rwd,Nick_Dissertation_EX1b,1,79,2020-04-17T16:48:28-07:00,4.6078269481659,1,versionA_stim.csv,VC_VersionA.csv,"Version A","Version A",ART,LION,Study1,U,79,60,VC,User,-,"How many vowels are the two words combined?|Type your response below and then press Enter.",Study/JOL,"Study Phase",3228,,,2459,2459,,,,3,1
960689,y3gbxg6rwd,Nick_Dissertation_EX1b,1,80,2020-04-17T16:48:35-07:00,6.758111000061,1,versionA_stim.csv,VC_VersionA.csv,"Version A","Version A",NUMBER,AMOUNT,Study1,S,47,74,VC,User,-,"How many vowels are the two words combined?|Type your response below and then press Enter.",Study/JOL,"Study Phase",5087,,,4377,4377,,,,5,1
960689,y3gbxg6rwd,Nick_Dissertation_EX1b,1,81,2020-04-17T16:48:39-07:00,3.9603500366211,1,versionA_stim.csv,VC_VersionA.csv,"Version A","Version A",SLEEP,DROWSY,Study1,B,41,47,VC,User,-,"How many vowels are the two words combined?|Type your response below and then press Enter.",Study/JOL,"Study Phase",3150,,,2696,2696,,,,3,1
960689,y3gbxg6rwd,Nick_Dissertation_EX1b,1,82,2020-04-17T16:48:44-07:00,4.6199450492859,1,versionA_stim.csv,VC_VersionA.csv,"Version A","Version A",BEGIN,END,Study1,S,54,77,VC,User,-,"How many vowels are the two words combined?|Type your response below and then press Enter.",Study/JOL,"Study Phase",3736,,,3074,3074,,,,3,1
960689,y3gbxg6rwd,Nick_Dissertation_EX1b,1,83,2020-04-17T16:48:48-07:00,4.3274748325348,1,versionA_stim.csv,VC_VersionA.csv,"Version A","Version A",KING,VASE,Study1,U,85,73,VC,User,-,"How many vowels are the two words combined?|Type your response below and then press Enter.",Study/JOL,"Study Phase",2910,,,2372,2372,,,,3,1
960689,y3gbxg6rwd,Nick_Dissertation_EX1b,1,84,2020-04-17T16:48:56-07:00,7.6735279560089,1,versionA_stim.csv,VC_VersionA.csv,"Version A","Version A",DISCOVER,FLOOR,Study1,U,71,63,VC,User,-,"How many vowels are the two words combined?|Type your response below and then press Enter.",Study/JOL,"Study Phase",6140,,,5740,5740,,,,5,1
960689,y3gbxg6rwd,Nick_Dissertation_EX1b,1,85,2020-04-17T16:49:00-07:00,4.6132311820984,1,versionA_stim.csv,VC_VersionA.csv,"Version A","Version A",DRINK,SIP,Study1,B,27,59,VC,User,-,"How many vowels are the two words combined?|Type your response below and then press Enter.",Study/JOL,"Study Phase",2591,,,2212,2212,,,,2,1
960689,y3gbxg6rwd,Nick_Dissertation_EX1b,1,86,2020-04-17T16:49:15-07:00,15.358757972717,1,versionA_stim.csv,VC_VersionA.csv,"Version A","Version A",GREAT,FANTASTIC,Study1,B,35,70,VC,User,-,"How many vowels are the two words combined?|Type your response below and then press Enter.",Study/JOL,"Study Phase",12120,,,11458,11458,,,,5,1
960689,y3gbxg6rwd,Nick_Dissertation_EX1b,1,87,2020-04-17T16:49:20-07:00,4.0557408332825,1,versionA_stim.csv,VC_VersionA.csv,"Version A","Version A",TRIAL,JURY,Study1,S,50,54,VC,User,-,"How many vowels are the two words combined?|Type your response below and then press Enter.",Study/JOL,"Study Phase",3194,,,2935,2935,,,,3,1
960689,y3gbxg6rwd,Nick_Dissertation_EX1b,1,88,2020-04-17T16:49:29-07:00,9.3212540149689,1,versionA_stim.csv,VC_VersionA.csv,"Version A","Version A",PLANE,PILOT,Study1,B,44,29,VC,User,-,"How many vowels are the two words combined?|Type your response below and then press Enter.",Study/JOL,"Study Phase",2939,,,1784,1784,,,,4,0.933
960689,y3gbxg6rwd,Nick_Dissertation_EX1b,1,89,2020-04-17T16:49:35-07:00,5.6653861999512,1,versionA_stim.csv,VC_VersionA.csv,"Version A","Version A",DISCUSSION,TALK,Study1,F,21,41,VC,User,-,"How many vowels are the two words combined?|Type your response below and then press Enter.",Study/JOL,"Study Phase",4842,,,3895,3895,,,,5,1
960689,y3gbxg6rwd,Nick_Dissertation_EX1b,1,90,2020-04-17T16:49:40-07:00,5.8689889907837,1,versionA_stim.csv,VC_VersionA.csv,"Version A","Version A",SHERRIF,POLICE,BUFFER2,Buffer,87,91,VC,User,-,"How many vowels are the two words combined?|Type your response below and then press Enter.",Study/JOL,BUFFER2,4666,,,4131,4131,,,,5,1
960689,y3gbxg6rwd,Nick_Dissertation_EX1b,1,91,2020-04-17T16:49:45-07:00,4.5922248363495,1,versionA_stim.csv,VC_VersionA.csv,"Version A","Version A",MOON,SPACE,BUFFER2,Buffer,89,90,VC,User,-,"How many vowels are the two words combined?|Type your response below and then press Enter.",Study/JOL,BUFFER2,3522,,,2307,2307,,,,4,1
960689,y3gbxg6rwd,Nick_Dissertation_EX1b,1,92,2020-04-17T16:49:53-07:00,8.3835000991821,1,versionA_stim.csv,VC_VersionA.csv,"Version A","Version A",GEESE,GOOSE,BUFFER2,Buffer,86,89,VC,User,-,"How many vowels are the two words combined?|Type your response below and then press Enter.",Study/JOL,BUFFER2,6051,,,5403,5403,,,,6,1
960689,y3gbxg6rwd,Nick_Dissertation_EX1b,1,93,2020-04-17T16:49:59-07:00,5.4273419380188,1,versionA_stim.csv,VC_VersionA.csv,"Version A","Version A",THING,STUFF,BUFFER2,Buffer,90,87,VC,User,-,"How many vowels are the two words combined?|Type your response below and then press Enter.",Study/JOL,BUFFER2,3783,,,2828,2828,,,,2,1
960689,y3gbxg6rwd,Nick_Dissertation_EX1b,1,94,2020-04-17T16:50:09-07:00,10.31765794754,1,versionA_stim.csv,VC_VersionA.csv,"Version A","Version A",MALT,CHOCOLATE,BUFFER2,Buffer,88,88,VC,User,-,"How many vowels are the two words combined?|Type your response below and then press Enter.",Study/JOL,BUFFER2,9762,,,8816,8816,,,,5,1
960689,y3gbxg6rwd,Nick_Dissertation_EX1b,1,95,2020-04-17T16:50:13-07:00,3.8114140033722,1,versionA_stim.csv,VC_VersionA.csv,"Version A","Version A",,,,,,0,Instruct,User,-,"You have completed this section. Please press Enter.",Filler_Instruction,Instruct2,2616,,,-1,-1,,,,,1
960689,y3gbxg6rwd,Nick_Dissertation_EX1b,1,96,2020-04-17T16:52:16-07:00,122.89599919319,1,versionA_stim.csv,VC_VersionA.csv,"Version A","Version A",,,,,,0,FreeRecall,120,120,"Please list the 50 US states in alphabetical order. The task will automatically advance to the next screen after two minutes.",,Filler1,120757,"alabama conneticut Denver Georgia hawaii ",0,42396,117380,0,0,,,0.968
960689,y3gbxg6rwd,Nick_Dissertation_EX1b,1,97,2020-04-17T16:52:43-07:00,27.017494916916,1,versionA_stim.csv,VC_VersionA.csv,"Version A","Version A",,,,,,0,Instruct,-,10,"You will now be presented with the first word from each of the previously studied item pairs. Please type the missing word. If you do not know the word, you may guess or press Enter to skip forward to the next pair.",,Instruct3,25591,,,-1,-1,,,,,0.864
960689,y3gbxg6rwd,Nick_Dissertation_EX1b,1,98,2020-04-17T16:52:52-07:00,9.5232880115509,1,versionA_stim.csv,VC_VersionA.csv,"Version A","Version A",KIDNEY,LIVER,Study1,S,53,55,Test,User,-,,Recall,Recall1,7693,stone,20,4850,6104,0,0,,,1
960689,y3gbxg6rwd,Nick_Dissertation_EX1b,1,99,2020-04-17T16:52:57-07:00,4.6107149124146,1,versionA_stim.csv,VC_VersionA.csv,"Version A","Version A",SOON,BELT,Study1,U,70,39,Test,User,-,,Recall,Recall1,2893,,0,-1,-1,0,0,,,1
960689,y3gbxg6rwd,Nick_Dissertation_EX1b,1,100,2020-04-17T16:53:01-07:00,4.2663609981537,1,versionA_stim.csv,VC_VersionA.csv,"Version A","Version A",DRINK,SIP,Study1,B,27,59,Test,User,-,,Recall,Recall1,2827,,0,-1,-1,0,0,,,1
960689,y3gbxg6rwd,Nick_Dissertation_EX1b,1,101,2020-04-17T16:53:03-07:00,1.7954461574554,1,versionA_stim.csv,VC_VersionA.csv,"Version A","Version A",CIRCLE,ROUND,Study1,S,65,13,Test,User,-,,Recall,Recall1,1111,,0,-1,-1,0,0,,,1
960689,y3gbxg6rwd,Nick_Dissertation_EX1b,1,102,2020-04-17T16:53:05-07:00,1.4971687793732,1,versionA_stim.csv,VC_VersionA.csv,"Version A","Version A",GREAT,FANTASTIC,Study1,B,35,70,Test,User,-,,Recall,Recall1,433,,0,-1,-1,0,0,,,1
960689,y3gbxg6rwd,Nick_Dissertation_EX1b,1,103,2020-04-17T16:53:06-07:00,1.1761450767517,1,versionA_stim.csv,VC_VersionA.csv,"Version A","Version A",LAW,ATTORNEY,Study1,B,34,43,Test,User,-,,Recall,Recall1,400,,0,-1,-1,0,0,,,1
960689,y3gbxg6rwd,Nick_Dissertation_EX1b,1,104,2020-04-17T16:53:07-07:00,1.4916839599609,1,versionA_stim.csv,VC_VersionA.csv,"Version A","Version A",ROOT,PLANT,Study1,F,13,65,Test,User,-,,Recall,Recall1,333,,0,-1,-1,0,0,,,1
960689,y3gbxg6rwd,Nick_Dissertation_EX1b,1,105,2020-04-17T16:53:08-07:00,1.2201571464539,1,versionA_stim.csv,VC_VersionA.csv,"Version A","Version A",DIETARY,SACKING,Study1,U,67,32,Test,User,-,,Recall,Recall1,333,,0,-1,-1,0,0,,,1
960689,y3gbxg6rwd,Nick_Dissertation_EX1b,1,106,2020-04-17T16:53:10-07:00,1.5003638267517,1,versionA_stim.csv,VC_VersionA.csv,"Version A","Version A",FIX,HAND,Study1,U,75,53,Test,User,-,,Recall,Recall1,288,,0,-1,-1,0,0,,,1
960689,y3gbxg6rwd,Nick_Dissertation_EX1b,1,107,2020-04-17T16:53:11-07:00,1.4649600982666,1,versionA_stim.csv,VC_VersionA.csv,"Version A","Version A",HEIGHT,GROWTH,Study1,B,30,35,Test,User,-,,Recall,Recall1,238,,0,-1,-1,0,0,,,1
960689,y3gbxg6rwd,Nick_Dissertation_EX1b,1,108,2020-04-17T16:53:13-07:00,1.3307120800018,1,versionA_stim.csv,VC_VersionA.csv,"Version A","Version A",SUGAR,RIDDLE,Study1,U,81,26,Test,User,-,,Recall,Recall1,346,,0,-1,-1,0,0,,,1
960689,y3gbxg6rwd,Nick_Dissertation_EX1b,1,109,2020-04-17T16:53:14-07:00,1.4692208766937,1,versionA_stim.csv,VC_VersionA.csv,"Version A","Version A",MEANING,DEFINITION,Study1,S,62,19,Test,User,-,,Recall,Recall1,266,,0,-1,-1,0,0,,,1
960689,y3gbxg6rwd,Nick_Dissertation_EX1b,1,110,2020-04-17T16:53:16-07:00,1.5200159549713,1,versionA_stim.csv,VC_VersionA.csv,"Version A","Version A",HORNET,STING,Study1,F,11,45,Test,User,-,,Recall,Recall1,258,,0,-1,-1,0,0,,,1
960689,y3gbxg6rwd,Nick_Dissertation_EX1b,1,111,2020-04-17T16:53:17-07:00,1.566623210907,1,versionA_stim.csv,VC_VersionA.csv,"Version A","Version A",SHOE,FOOT,Study1,S,60,23,Test,User,-,,Recall,Recall1,285,,0,-1,-1,0,0,,,1
960689,y3gbxg6rwd,Nick_Dissertation_EX1b,1,112,2020-04-17T16:53:19-07:00,1.2545738220215,1,versionA_stim.csv,VC_VersionA.csv,"Version A","Version A",WINE,CHEESE,Study1,S,57,71,Test,User,-,,Recall,Recall1,322,,0,-1,-1,0,0,,,1
960689,y3gbxg6rwd,Nick_Dissertation_EX1b,1,113,2020-04-17T16:53:20-07:00,1.5359189510345,1,versionA_stim.csv,VC_VersionA.csv,"Version A","Version A",ART,LION,Study1,U,79,60,Test,User,-,,Recall,Recall1,251,,0,-1,-1,0,0,,,1
960689,y3gbxg6rwd,Nick_Dissertation_EX1b,1,114,2020-04-17T16:53:22-07:00,1.4779560565948,1,versionA_stim.csv,VC_VersionA.csv,"Version A","Version A",DISCUSSION,TALK,Study1,F,21,41,Test,User,-,,Recall,Recall1,261,,0,-1,-1,0,0,,,1
960689,y3gbxg6rwd,Nick_Dissertation_EX1b,1,115,2020-04-17T16:53:23-07:00,1.2789471149445,1,versionA_stim.csv,VC_VersionA.csv,"Version A","Version A",SWAN,BIRD,Study1,F,14,79,Test,User,-,,Recall,Recall1,307,,0,-1,-1,0,0,,,1
960689,y3gbxg6rwd,Nick_Dissertation_EX1b,1,116,2020-04-17T16:53:24-07:00,1.4773490428925,1,versionA_stim.csv,VC_VersionA.csv,"Version A","Version A",LETTUCE,SALAD,Study1,S,59,67,Test,User,-,,Recall,Recall1,253,,0,-1,-1,0,0,,,1
960689,y3gbxg6rwd,Nick_Dissertation_EX1b,1,117,2020-04-17T16:53:26-07:00,1.5262749195099,1,versionA_stim.csv,VC_VersionA.csv,"Version A","Version A",FULL,ENOUGH,Study1,B,26,49,Test,User,-,,Recall,Recall1,239,,0,-1,-1,0,0,,,1
960689,y3gbxg6rwd,Nick_Dissertation_EX1b,1,118,2020-04-17T16:53:27-07:00,1.5425388813019,1,versionA_stim.csv,VC_VersionA.csv,"Version A","Version A",BRIDGE,WATER,Study1,F,18,24,Test,User,-,,Recall,Recall1,244,,0,-1,-1,0,0,,,1
960689,y3gbxg6rwd,Nick_Dissertation_EX1b,1,119,2020-04-17T16:53:29-07:00,1.2579100131989,1,versionA_stim.csv,VC_VersionA.csv,"Version A","Version A",VALLEY,ADD,Study1,U,82,40,Test,User,-,,Recall,Recall1,262,,0,-1,-1,0,0,,,1
960689,y3gbxg6rwd,Nick_Dissertation_EX1b,1,120,2020-04-17T16:53:30-07:00,1.2997741699219,1,versionA_stim.csv,VC_VersionA.csv,"Version A","Version A",GRILL,BAR,Study1,S,52,52,Test,User,-,,Recall,Recall1,343,,0,-1,-1,0,0,,,1
960689,y3gbxg6rwd,Nick_Dissertation_EX1b,1,121,2020-04-17T16:53:31-07:00,0.90082502365112,1,versionA_stim.csv,VC_VersionA.csv,"Version A","Version A",PARK,HUNGRY,Study1,U,68,36,Test,User,-,,Recall,Recall1,471,,0,-1,-1,0,0,,,1
960689,y3gbxg6rwd,Nick_Dissertation_EX1b,1,122,2020-04-17T16:53:32-07:00,0.91039490699768,1,versionA_stim.csv,VC_VersionA.csv,"Version A","Version A",STRONG,ACCIDENT,Study1,U,80,38,Test,User,-,,Recall,Recall1,322,,0,-1,-1,0,0,,,1
960689,y3gbxg6rwd,Nick_Dissertation_EX1b,1,123,2020-04-17T16:53:33-07:00,0.85262107849121,1,versionA_stim.csv,VC_VersionA.csv,"Version A","Version A",LOCATION,SITE,Study1,S,48,64,Test,User,-,,Recall,Recall1,506,,0,-1,-1,0,0,,,1
960689,y3gbxg6rwd,Nick_Dissertation_EX1b,1,124,2020-04-17T16:53:33-07:00,0.89222192764282,1,versionA_stim.csv,VC_VersionA.csv,"Version A","Version A",WORK,CHORE,Study1,B,39,9,Test,User,-,,Recall,Recall1,220,,0,-1,-1,0,0,,,1
960689,y3gbxg6rwd,Nick_Dissertation_EX1b,1,125,2020-04-17T16:53:34-07:00,0.99195504188538,1,versionA_stim.csv,VC_VersionA.csv,"Version A","Version A",HUNGER,FAMINE,Study1,B,40,75,Test,User,-,,Recall,Recall1,265,,0,-1,-1,0,0,,,1
960689,y3gbxg6rwd,Nick_Dissertation_EX1b,1,126,2020-04-17T16:53:35-07:00,0.93989181518555,1,versionA_stim.csv,VC_VersionA.csv,"Version A","Version A",ALLOW,TUCK,Study1,U,78,82,Test,User,-,,Recall,Recall1,303,,0,-1,-1,0,0,,,1
960689,y3gbxg6rwd,Nick_Dissertation_EX1b,1,127,2020-04-17T16:53:37-07:00,1.223717212677,1,versionA_stim.csv,VC_VersionA.csv,"Version A","Version A",MATH,DIVISION,Study1,B,33,28,Test,User,-,,Recall,Recall1,303,,0,-1,-1,0,0,,,1
960689,y3gbxg6rwd,Nick_Dissertation_EX1b,1,128,2020-04-17T16:53:38-07:00,1.5411570072174,1,versionA_stim.csv,VC_VersionA.csv,"Version A","Version A",DEBATE,SIGHT,Study1,U,73,48,Test,User,-,,Recall,Recall1,311,,0,-1,-1,0,0,,,1
960689,y3gbxg6rwd,Nick_Dissertation_EX1b,1,129,2020-04-17T16:53:40-07:00,1.5014719963074,1,versionA_stim.csv,VC_VersionA.csv,"Version A","Version A",LIFT,WOMAN,Study1,U,69,37,Test,User,-,,Recall,Recall1,269,,0,-1,-1,0,0,,,1
960689,y3gbxg6rwd,Nick_Dissertation_EX1b,1,130,2020-04-17T16:53:41-07:00,1.706622838974,1,versionA_stim.csv,VC_VersionA.csv,"Version A","Version A",SLEEP,DROWSY,Study1,B,41,47,Test,User,-,,Recall,Recall1,442,,0,-1,-1,0,0,,,1
960689,y3gbxg6rwd,Nick_Dissertation_EX1b,1,131,2020-04-17T16:53:43-07:00,1.46661901474,1,versionA_stim.csv,VC_VersionA.csv,"Version A","Version A",HERD,COW,Study1,F,22,18,Test,User,-,,Recall,Recall1,353,,0,-1,-1,0,0,,,1
960689,y3gbxg6rwd,Nick_Dissertation_EX1b,1,132,2020-04-17T16:53:44-07:00,1.5012519359589,1,versionA_stim.csv,VC_VersionA.csv,"Version A","Version A",SENTENCE,WORD,Study1,B,31,16,Test,User,-,,Recall,Recall1,336,,0,-1,-1,0,0,,,1
960689,y3gbxg6rwd,Nick_Dissertation_EX1b,1,133,2020-04-17T16:53:46-07:00,1.2710020542145,1,versionA_stim.csv,VC_VersionA.csv,"Version A","Version A",PAST,FUTURE,Study1,S,61,86,Test,User,-,,Recall,Recall1,284,,0,-1,-1,0,0,,,1
960689,y3gbxg6rwd,Nick_Dissertation_EX1b,1,134,2020-04-17T16:53:47-07:00,1.5786020755768,1,versionA_stim.csv,VC_VersionA.csv,"Version A","Version A",DELINQUENT,BAD,Study1,F,6,10,Test,User,-,,Recall,Recall1,415,,0,-1,-1,0,0,,,1
960689,y3gbxg6rwd,Nick_Dissertation_EX1b,1,135,2020-04-17T16:53:49-07:00,1.4083969593048,1,versionA_stim.csv,VC_VersionA.csv,"Version A","Version A",FIRE,BLAZE,Study1,B,45,51,Test,User,-,,Recall,Recall1,300,,0,-1,-1,0,0,,,1
960689,y3gbxg6rwd,Nick_Dissertation_EX1b,1,136,2020-04-17T16:53:50-07:00,1.5048739910126,1,versionA_stim.csv,VC_VersionA.csv,"Version A","Version A",TRIAL,JURY,Study1,S,50,54,Test,User,-,,Recall,Recall1,266,,0,-1,-1,0,0,,,1
960689,y3gbxg6rwd,Nick_Dissertation_EX1b,1,137,2020-04-17T16:53:51-07:00,1.0320739746094,1,versionA_stim.csv,VC_VersionA.csv,"Version A","Version A",CREDIT,CARD,Study1,F,23,80,Test,User,-,,Recall,Recall1,369,,0,-1,-1,0,0,,,1
960689,y3gbxg6rwd,Nick_Dissertation_EX1b,1,138,2020-04-17T16:53:52-07:00,1.0328590869904,1,versionA_stim.csv,VC_VersionA.csv,"Version A","Version A",DEATH,BUSINESS,Study1,U,72,42,Test,User,-,,Recall,Recall1,178,,0,-1,-1,0,0,,,1
960689,y3gbxg6rwd,Nick_Dissertation_EX1b,1,139,2020-04-17T16:53:53-07:00,0.87526202201843,1,versionA_stim.csv,VC_VersionA.csv,"Version A","Version A",HONEY,BEE,Study1,S,63,20,Test,User,-,,Recall,Recall1,382,,0,-1,-1,0,0,,,1
960689,y3gbxg6rwd,Nick_Dissertation_EX1b,1,140,2020-04-17T16:53:54-07:00,0.79043889045715,1,versionA_stim.csv,VC_VersionA.csv,"Version A","Version A",PAW,DOG,Study1,F,15,57,Test,User,-,,Recall,Recall1,277,,0,-1,-1,0,0,,,1
960689,y3gbxg6rwd,Nick_Dissertation_EX1b,1,141,2020-04-17T16:53:55-07:00,1.2289550304413,1,versionA_stim.csv,VC_VersionA.csv,"Version A","Version A",BALL,RACKET,Study1,B,38,21,Test,User,-,,Recall,Recall1,294,,0,-1,-1,0,0,,,1
960689,y3gbxg6rwd,Nick_Dissertation_EX1b,1,142,2020-04-17T16:53:57-07:00,1.5370810031891,1,versionA_stim.csv,VC_VersionA.csv,"Version A","Version A",KEY,LATCH,Study1,B,36,14,Test,User,-,,Recall,Recall1,307,,0,-1,-1,0,0,,,1
960689,y3gbxg6rwd,Nick_Dissertation_EX1b,1,143,2020-04-17T16:53:58-07:00,1.5440261363983,1,versionA_stim.csv,VC_VersionA.csv,"Version A","Version A",DUE,ASSIGNMENT,Study1,S,46,27,Test,User,-,,Recall,Recall1,316,,0,-1,-1,0,0,,,1
960689,y3gbxg6rwd,Nick_Dissertation_EX1b,1,144,2020-04-17T16:54:00-07:00,1.5060567855835,1,versionA_stim.csv,VC_VersionA.csv,"Version A","Version A",ORCHID,FLOWER,Study1,F,24,25,Test,User,-,,Recall,Recall1,290,,0,-1,-1,0,0,,,1
960689,y3gbxg6rwd,Nick_Dissertation_EX1b,1,145,2020-04-17T16:54:01-07:00,1.2093269824982,1,versionA_stim.csv,VC_VersionA.csv,"Version A","Version A",WAY,OUT,Study1,F,16,76,Test,User,-,,Recall,Recall1,253,,0,-1,-1,0,0,,,1
960689,y3gbxg6rwd,Nick_Dissertation_EX1b,1,146,2020-04-17T16:54:02-07:00,1.2546470165253,1,versionA_stim.csv,VC_VersionA.csv,"Version A","Version A",BLOW,WIND,Study1,S,55,78,Test,User,-,,Recall,Recall1,283,,0,-1,-1,0,0,,,1
960689,y3gbxg6rwd,Nick_Dissertation_EX1b,1,147,2020-04-17T16:54:11-07:00,8.404657125473,1,versionA_stim.csv,VC_VersionA.csv,"Version A","Version A",TAKE,SEIZE,Study1,B,29,68,Test,User,-,,Recall,Recall1,611,,0,-1,-1,0,0,,,0.667
960689,y3gbxg6rwd,Nick_Dissertation_EX1b,1,148,2020-04-17T16:54:13-07:00,1.986496925354,1,versionA_stim.csv,VC_VersionA.csv,"Version A","Version A",SMELL,STENCH,Study1,B,42,66,Test,User,-,,Recall,Recall1,825,,0,-1,-1,0,0,,,1
960689,y3gbxg6rwd,Nick_Dissertation_EX1b,1,149,2020-04-17T16:54:13-07:00,0.97765398025513,1,versionA_stim.csv,VC_VersionA.csv,"Version A","Version A",DUMP,WASTE,Study1,S,49,56,Test,User,-,,Recall,Recall1,609,,0,-1,-1,0,0,,,1
960689,y3gbxg6rwd,Nick_Dissertation_EX1b,1,150,2020-04-17T16:54:14-07:00,0.90570402145386,1,versionA_stim.csv,VC_VersionA.csv,"Version A","Version A",BABY,CHILD,Study1,S,64,85,Test,User,-,,Recall,Recall1,435,,0,-1,-1,0,0,,,1
960689,y3gbxg6rwd,Nick_Dissertation_EX1b,1,151,2020-04-17T16:54:15-07:00,0.91766715049744,1,versionA_stim.csv,VC_VersionA.csv,"Version A","Version A",CLOTHES,ATTIRE,Study1,B,43,7,Test,User,-,,Recall,Recall1,369,,0,-1,-1,0,0,,,1
960689,y3gbxg6rwd,Nick_Dissertation_EX1b,1,152,2020-04-17T16:54:17-07:00,1.402055978775,1,versionA_stim.csv,VC_VersionA.csv,"Version A","Version A",POP,SODA,Study1,S,56,69,Test,User,-,,Recall,Recall1,458,,0,-1,-1,0,0,,,1
960689,y3gbxg6rwd,Nick_Dissertation_EX1b,1,153,2020-04-17T16:54:18-07:00,1.5742299556732,1,versionA_stim.csv,VC_VersionA.csv,"Version A","Version A",BITTER,COLD,Study1,F,12,46,Test,User,-,,Recall,Recall1,482,,0,-1,-1,0,0,,,1
960689,y3gbxg6rwd,Nick_Dissertation_EX1b,1,154,2020-04-17T16:54:20-07:00,1.4529390335083,1,versionA_stim.csv,VC_VersionA.csv,"Version A","Version A",DARK,CAVE,Study1,B,28,61,Test,User,-,,Recall,Recall1,381,,0,-1,-1,0,0,,,1
960689,y3gbxg6rwd,Nick_Dissertation_EX1b,1,155,2020-04-17T16:54:21-07:00,1.2132308483124,1,versionA_stim.csv,VC_VersionA.csv,"Version A","Version A",BUG,WASP,Study1,B,32,84,Test,User,-,,Recall,Recall1,383,,0,-1,-1,0,0,,,1
960689,y3gbxg6rwd,Nick_Dissertation_EX1b,1,156,2020-04-17T16:54:22-07:00,1.5215561389923,1,versionA_stim.csv,VC_VersionA.csv,"Version A","Version A",PUSHER,CLUTTER,Study1,U,66,31,Test,User,-,,Recall,Recall1,383,,0,-1,-1,0,0,,,1
960689,y3gbxg6rwd,Nick_Dissertation_EX1b,1,157,2020-04-17T16:54:25-07:00,2.8552830219269,1,versionA_stim.csv,VC_VersionA.csv,"Version A","Version A",DISCOVER,FLOOR,Study1,U,71,63,Test,User,-,,Recall,Recall1,466,,0,-1,-1,0,0,,,1
960689,y3gbxg6rwd,Nick_Dissertation_EX1b,1,158,2020-04-17T16:54:27-07:00,1.7847249507904,1,versionA_stim.csv,VC_VersionA.csv,"Version A","Version A",WAGE,MONEY,Study1,F,8,34,Test,User,-,,Recall,Recall1,362,,0,-1,-1,0,0,,,1
960689,y3gbxg6rwd,Nick_Dissertation_EX1b,1,159,2020-04-17T16:54:29-07:00,1.4421780109406,1,versionA_stim.csv,VC_VersionA.csv,"Version A","Version A",HOT,CHILI,Study1,B,37,12,Test,User,-,,Recall,Recall1,308,,0,-1,-1,0,0,,,1
960689,y3gbxg6rwd,Nick_Dissertation_EX1b,1,160,2020-04-17T16:54:32-07:00,3.5263390541077,1,versionA_stim.csv,VC_VersionA.csv,"Version A","Version A",HIDE,SICK,Study1,U,84,50,Test,User,-,,Recall,Recall1,518,,0,-1,-1,0,0,,,1
960689,y3gbxg6rwd,Nick_Dissertation_EX1b,1,161,2020-04-17T16:54:34-07:00,1.7306168079376,1,versionA_stim.csv,VC_VersionA.csv,"Version A","Version A",MACHINE,POSITION,Study1,U,76,8,Test,User,-,,Recall,Recall1,1365,,0,-1,-1,0,0,,,1
960689,y3gbxg6rwd,Nick_Dissertation_EX1b,1,162,2020-04-17T16:54:35-07:00,0.89285612106323,1,versionA_stim.csv,VC_VersionA.csv,"Version A","Version A",CHISEL,HAMMER,Study1,F,9,22,Test,User,-,,Recall,Recall1,322,,0,-1,-1,0,0,,,1
960689,y3gbxg6rwd,Nick_Dissertation_EX1b,1,163,2020-04-17T16:54:36-07:00,1.2379789352417,1,versionA_stim.csv,VC_VersionA.csv,"Version A","Version A",CASH,WOULD,Study1,U,83,11,Test,User,-,,Recall,Recall1,321,,0,-1,-1,0,0,,,1
960689,y3gbxg6rwd,Nick_Dissertation_EX1b,1,164,2020-04-17T16:54:37-07:00,1.2136340141296,1,versionA_stim.csv,VC_VersionA.csv,"Version A","Version A",HYGIENE,CLEAN,Study1,F,17,15,Test,User,-,,Recall,Recall1,302,,0,-1,-1,0,0,,,1
960689,y3gbxg6rwd,Nick_Dissertation_EX1b,1,165,2020-04-17T16:54:39-07:00,1.6784560680389,1,versionA_stim.csv,VC_VersionA.csv,"Version A","Version A",NUMBER,AMOUNT,Study1,S,47,74,Test,User,-,,Recall,Recall1,460,,0,-1,-1,0,0,,,1
960689,y3gbxg6rwd,Nick_Dissertation_EX1b,1,166,2020-04-17T16:54:40-07:00,1.4630770683289,1,versionA_stim.csv,VC_VersionA.csv,"Version A","Version A",ARCHITECTURE,DESIGN,Study1,S,51,30,Test,User,-,,Recall,Recall1,383,,0,-1,-1,0,0,,,1
960689,y3gbxg6rwd,Nick_Dissertation_EX1b,1,167,2020-04-17T16:54:49-07:00,9.1714458465576,1,versionA_stim.csv,VC_VersionA.csv,"Version A","Version A",HAPPY,CAR,Study1,U,77,81,Test,User,-,,Recall,Recall1,857,,0,-1,-1,0,0,,,0.8
960689,y3gbxg6rwd,Nick_Dissertation_EX1b,1,168,2020-04-17T16:54:52-07:00,3.0029821395874,1,versionA_stim.csv,VC_VersionA.csv,"Version A","Version A",ARTERY,BRONZE,Study1,U,74,62,Test,User,-,,Recall,Recall1,2340,,0,-1,-1,0,0,,,1
960689,y3gbxg6rwd,Nick_Dissertation_EX1b,1,169,2020-04-17T16:54:57-07:00,4.3129298686981,1,versionA_stim.csv,VC_VersionA.csv,"Version A","Version A",GEOLOGY,ROCK,Study1,F,19,44,Test,User,-,,Recall,Recall1,2975,,0,-1,-1,0,0,,,1
960689,y3gbxg6rwd,Nick_Dissertation_EX1b,1,170,2020-04-17T16:55:02-07:00,4.919853925705,1,versionA_stim.csv,VC_VersionA.csv,"Version A","Version A",BATHROOM,TOILET,Study1,S,58,17,Test,User,-,,Recall,Recall1,3238,,0,-1,-1,0,0,,,1
960689,y3gbxg6rwd,Nick_Dissertation_EX1b,1,171,2020-04-17T16:55:05-07:00,3.4148001670837,1,versionA_stim.csv,VC_VersionA.csv,"Version A","Version A",EDITOR,NEWS,Study1,F,10,72,Test,User,-,,Recall,Recall1,2485,,0,-1,-1,0,0,,,1
960689,y3gbxg6rwd,Nick_Dissertation_EX1b,1,172,2020-04-17T16:55:16-07:00,10.643028974533,1,versionA_stim.csv,VC_VersionA.csv,"Version A","Version A",BEGIN,END,Study1,S,54,77,Test,User,-,,Recall,Recall1,1339,,0,-1,-1,0,0,,,0.857
960689,y3gbxg6rwd,Nick_Dissertation_EX1b,1,173,2020-04-17T16:55:18-07:00,2.3285789489746,1,versionA_stim.csv,VC_VersionA.csv,"Version A","Version A",DIGESTION,STOMACH,Study1,F,7,33,Test,User,-,,Recall,Recall1,1619,,0,-1,-1,0,0,,,1
960689,y3gbxg6rwd,Nick_Dissertation_EX1b,1,174,2020-04-17T16:55:21-07:00,2.4774849414825,1,versionA_stim.csv,VC_VersionA.csv,"Version A","Version A",REVOLUTION,WAR,Study1,F,20,58,Test,User,-,,Recall,Recall1,1332,,0,-1,-1,0,0,,,1
960689,y3gbxg6rwd,Nick_Dissertation_EX1b,1,175,2020-04-17T16:55:23-07:00,2.5688540935516,1,versionA_stim.csv,VC_VersionA.csv,"Version A","Version A",PLANE,PILOT,Study1,B,44,29,Test,User,-,,Recall,Recall1,1142,,0,-1,-1,0,0,,,1
960689,y3gbxg6rwd,Nick_Dissertation_EX1b,1,176,2020-04-17T16:55:29-07:00,6.2715630531311,1,versionA_stim.csv,VC_VersionA.csv,"Version A","Version A",TUNA,FISH,Study1,F,25,83,Test,User,-,,Recall,Recall1,2919,,0,-1,-1,0,0,,,1
960689,y3gbxg6rwd,Nick_Dissertation_EX1b,1,177,2020-04-17T16:55:37-07:00,7.3121800422668,1,versionA_stim.csv,VC_VersionA.csv,"Version A","Version A",KING,VASE,Study1,U,85,73,Test,User,-,,Recall,Recall1,5117,,0,-1,-1,0,0,,,1
960689,y3gbxg6rwd,Nick_Dissertation_EX1b,1,178,2020-04-17T16:55:51-07:00,14.309457778931,1,versionA_stim.csv,VC_VersionA.csv,"Version A","Version A",,,,,,0,Instruct,-,10,"You will now be presented with a new set of word pairs. Please study each pair. Remember that your memory will be tested! When finished, press Enter to move to the next pair.",Initial_Instruct,Instruct4,13226,,,-1,-1,,,,,1
960689,y3gbxg6rwd,Nick_Dissertation_EX1b,1,179,2020-04-17T16:56:06-07:00,15.166218042374,1,versionA_stim.csv,VC_VersionA.csv,"Version A","Version A",,,,,,0,Instruct,,10,"You will again be asked to count how many vowels the two words contain. Please remember to type this number in the space below each pair.",,Instruct10,13008,,,-1,-1,,,,,1
960689,y3gbxg6rwd,Nick_Dissertation_EX1b,1,180,2020-04-17T16:56:11-07:00,4.9153411388397,1,versionA_stim.csv,VC_VersionA.csv,"Version A","Version A",,,,,,0,Instruct,User,-,"Press Enter when you are readty to begin",,Instruct11,3049,,,-1,-1,,,,,1
960689,y3gbxg6rwd,Nick_Dissertation_EX1b,1,181,2020-04-17T16:56:20-07:00,8.9730048179626,1,versionA_stim.csv,VC_VersionA.csv,"Version A","Version A",SHRIMP,FISH,BUFFER3,Buffer,93,92,VC,User,-,"How many vowels are the two words combined?|Type your response below and then press Enter.",Study/JOL,BUFFER3,8247,,,7750,7751,,,,2,1
960689,y3gbxg6rwd,Nick_Dissertation_EX1b,1,182,2020-04-17T16:56:25-07:00,4.8461830615997,1,versionA_stim.csv,VC_VersionA.csv,"Version A","Version A",ICE,FROZEN,BUFFER3,Buffer,94,94,VC,User,-,"How many vowels are the two words combined?|Type your response below and then press Enter.",Study/JOL,BUFFER3,2658,,,2384,2384,,,,4,1
960689,y3gbxg6rwd,Nick_Dissertation_EX1b,1,183,2020-04-17T16:56:30-07:00,4.9194841384888,1,versionA_stim.csv,VC_VersionA.csv,"Version A","Version A",CAMP,ADVENTURE,BUFFER3,Buffer,95,96,VC,User,-,"How many vowels are the two words combined?|Type your response below and then press Enter.",Study/JOL,BUFFER3,3320,,,2907,2907,,,,5,1
960689,y3gbxg6rwd,Nick_Dissertation_EX1b,1,184,2020-04-17T16:56:36-07:00,5.6767389774323,1,versionA_stim.csv,VC_VersionA.csv,"Version A","Version A",NOODLE,STRING,BUFFER3,Buffer,92,93,VC,User,-,"How many vowels are the two words combined?|Type your response below and then press Enter.",Study/JOL,BUFFER3,4852,,,4566,4566,,,,4,1
960689,y3gbxg6rwd,Nick_Dissertation_EX1b,1,185,2020-04-17T16:56:41-07:00,5.0751328468323,1,versionA_stim.csv,VC_VersionA.csv,"Version A","Version A",CARROT,POTATO,BUFFER3,Buffer,91,95,VC,User,-,"How many vowels are the two words combined?|Type your response below and then press Enter.",Study/JOL,BUFFER3,3595,,,3288,3288,,,,5,1
960689,y3gbxg6rwd,Nick_Dissertation_EX1b,1,186,2020-04-17T16:56:46-07:00,5.2264699935913,1,versionA_stim.csv,VC_VersionA.csv,"Version A","Version A",CAKE,CLOTHES,Study2,U,166,168,VC,User,-,"How many vowels are the two words combined?|Type your response below and then press Enter.",Study/JOL,"Study Phase2",3019,,,2671,2671,,,,4,1
960689,y3gbxg6rwd,Nick_Dissertation_EX1b,1,187,2020-04-17T16:56:50-07:00,4.0002710819244,1,versionA_stim.csv,VC_VersionA.csv,"Version A","Version A",RAZOR,SHAVE,Study2,S,136,144,VC,User,-,"How many vowels are the two words combined?|Type your response below and then press Enter.",Study/JOL,"Study Phase2",2287,,,2053,2053,,,,4,1
960689,y3gbxg6rwd,Nick_Dissertation_EX1b,1,188,2020-04-17T16:56:57-07:00,6.7522001266479,1,versionA_stim.csv,VC_VersionA.csv,"Version A","Version A",POP,BALLOON,Study2,B,123,153,VC,User,-,"How many vowels are the two words combined?|Type your response below and then press Enter.",Study/JOL,"Study Phase2",5231,,,5082,5082,,,,5,1
960689,y3gbxg6rwd,Nick_Dissertation_EX1b,1,189,2020-04-17T16:57:03-07:00,6.7840428352356,1,versionA_stim.csv,VC_VersionA.csv,"Version A","Version A",EARTH,GROUND,Study2,S,144,103,VC,User,-,"How many vowels are the two words combined?|Type your response below and then press Enter.",Study/JOL,"Study Phase2",4162,,,2396,3958,,,,3,1
960689,y3gbxg6rwd,Nick_Dissertation_EX1b,1,190,2020-04-17T16:57:08-07:00,4.2753310203552,1,versionA_stim.csv,VC_VersionA.csv,"Version A","Version A",EXTENSION,LONG,Study2,F,96,170,VC,User,-,"How many vowels are the two words combined?|Type your response below and then press Enter.",Study/JOL,"Study Phase2",2707,,,2508,2508,,,,5,1
960689,y3gbxg6rwd,Nick_Dissertation_EX1b,1,191,2020-04-17T16:57:14-07:00,5.9342579841614,1,versionA_stim.csv,VC_VersionA.csv,"Version A","Version A",FUZZY,BANG,Study2,U,168,121,VC,User,-,"How many vowels are the two words combined?|Type your response below and then press Enter.",Study/JOL,"Study Phase2",5034,,,4741,4742,,,,2,1
960689,y3gbxg6rwd,Nick_Dissertation_EX1b,1,192,2020-04-17T16:57:23-07:00,9.4422459602356,1,versionA_stim.csv,VC_VersionA.csv,"Version A","Version A",SAFETY,SEATBELT,Study2,S,147,172,VC,User,-,"How many vowels are the two words combined?|Type your response below and then press Enter.",Study/JOL,"Study Phase2",8506,,,7792,7792,,,,5,1
960689,y3gbxg6rwd,Nick_Dissertation_EX1b,1,193,2020-04-17T16:57:29-07:00,6.1674301624298,1,versionA_stim.csv,VC_VersionA.csv,"Version A","Version A",STAR,ACTRESS,Study2,B,120,165,VC,User,-,"How many vowels are the two words combined?|Type your response below and then press Enter.",Study/JOL,"Study Phase2",4832,,,4300,4300,,,,3,1
960689,y3gbxg6rwd,Nick_Dissertation_EX1b,1,194,2020-04-17T16:57:33-07:00,3.9541699886322,1,versionA_stim.csv,VC_VersionA.csv,"Version A","Version A",FURRY,DOG,Study2,F,102,148,VC,User,-,"How many vowels are the two words combined?|Type your response below and then press Enter.",Study/JOL,"Study Phase2",2041,,,1846,1846,,,,2,1
960689,y3gbxg6rwd,Nick_Dissertation_EX1b,1,195,2020-04-17T16:57:38-07:00,5.3011679649353,1,versionA_stim.csv,VC_VersionA.csv,"Version A","Version A",LISTEN,FICTION,Study2,U,164,167,VC,User,-,"How many vowels are the two words combined?|Type your response below and then press Enter.",Study/JOL,"Study Phase2",3014,,,2766,2766,,,,5,1
960689,y3gbxg6rwd,Nick_Dissertation_EX1b,1,196,2020-04-17T16:57:42-07:00,3.6139359474182,1,versionA_stim.csv,VC_VersionA.csv,"Version A","Version A",KEYS,JOKE,Study2,U,165,137,VC,User,-,"How many vowels are the two words combined?|Type your response below and then press Enter.",Study/JOL,"Study Phase2",2087,,,1837,1838,,,,3,1
960689,y3gbxg6rwd,Nick_Dissertation_EX1b,1,197,2020-04-17T16:57:45-07:00,3.1040899753571,1,versionA_stim.csv,VC_VersionA.csv,"Version A","Version A",TURN,FLIP,Study2,B,116,175,VC,User,-,"How many vowels are the two words combined?|Type your response below and then press Enter.",Study/JOL,"Study Phase2",2237,,,2016,2016,,,,2,1
960689,y3gbxg6rwd,Nick_Dissertation_EX1b,1,198,2020-04-17T16:57:49-07:00,3.9520411491394,1,versionA_stim.csv,VC_VersionA.csv,"Version A","Version A",RIGHTS,EQUAL,Study2,S,137,118,VC,User,-,"How many vowels are the two words combined?|Type your response below and then press Enter.",Study/JOL,"Study Phase2",2756,,,2523,2523,,,,4,1
960689,y3gbxg6rwd,Nick_Dissertation_EX1b,1,199,2020-04-17T16:57:55-07:00,5.5409719944,1,versionA_stim.csv,VC_VersionA.csv,"Version A","Version A",DETECTIVE,MYSTERY,Study2,F,100,129,VC,User,-,"How many vowels are the two words combined?|Type your response below and then press Enter.",Study/JOL,"Study Phase2",3745,,,2962,2963,,,,5,1
960689,y3gbxg6rwd,Nick_Dissertation_EX1b,1,200,2020-04-17T16:57:58-07:00,3.5743048191071,1,versionA_stim.csv,VC_VersionA.csv,"Version A","Version A",FIGHT,BRAWL,Study2,B,135,100,VC,User,-,"How many vowels are the two words combined?|Type your response below and then press Enter.",Study/JOL,"Study Phase2",2469,,,2279,2279,,,,2,1
960689,y3gbxg6rwd,Nick_Dissertation_EX1b,1,201,2020-04-17T16:58:02-07:00,4.0939061641693,1,versionA_stim.csv,VC_VersionA.csv,"Version A","Version A",VEHICLE,CHARM,Study2,U,160,143,VC,User,-,"How many vowels are the two words combined?|Type your response below and then press Enter.",Study/JOL,"Study Phase2",2909,,,2434,2434,,,,4,1
960689,y3gbxg6rwd,Nick_Dissertation_EX1b,1,202,2020-04-17T16:58:08-07:00,5.2203388214111,1,versionA_stim.csv,VC_VersionA.csv,"Version A","Version A",MIRROR,CHILDREN,Study2,U,174,127,VC,User,-,"How many vowels are the two words combined?|Type your response below and then press Enter.",Study/JOL,"Study Phase2",3942,,,3763,3763,,,,4,1
960689,y3gbxg6rwd,Nick_Dissertation_EX1b,1,203,2020-04-17T16:58:14-07:00,6.1595749855042,1,versionA_stim.csv,VC_VersionA.csv,"Version A","Version A",MAZE,ELECTION,Study2,U,159,161,VC,User,-,"How many vowels are the two words combined?|Type your response below and then press Enter.",Study/JOL,"Study Phase2",4794,,,4140,4140,,,,6,1
960689,y3gbxg6rwd,Nick_Dissertation_EX1b,1,204,2020-04-17T16:58:18-07:00,4.6297860145569,1,versionA_stim.csv,VC_VersionA.csv,"Version A","Version A",LITTER,TRASH,Study2,F,103,102,VC,User,-,"How many vowels are the two words combined?|Type your response below and then press Enter.",Study/JOL,"Study Phase2",3174,,,2982,2982,,,,3,1
960689,y3gbxg6rwd,Nick_Dissertation_EX1b,1,205,2020-04-17T16:58:24-07:00,5.4926841259003,1,versionA_stim.csv,VC_VersionA.csv,"Version A","Version A",CHOP,CUT,Study2,F,107,159,VC,User,-,"How many vowels are the two words combined?|Type your response below and then press Enter.",Study/JOL,"Study Phase2",3527,,,1422,3138,,,,2,1
960689,y3gbxg6rwd,Nick_Dissertation_EX1b,1,206,2020-04-17T16:58:34-07:00,10.159002065659,1,versionA_stim.csv,VC_VersionA.csv,"Version A","Version A",TANTRUM,TEMPER,Study2,S,154,171,VC,User,-,"How many vowels are the two words combined?|Type your response below and then press Enter.",Study/JOL,"Study Phase2",8378,,,6378,6378,,,,4,1
960689,y3gbxg6rwd,Nick_Dissertation_EX1b,1,207,2020-04-17T16:58:51-07:00,17.327575922012,1,versionA_stim.csv,VC_VersionA.csv,"Version A","Version A",PHONE,COMMUNICATION,Study2,S,149,160,VC,User,-,"How many vowels are the two words combined?|Type your response below and then press Enter.",Study/JOL,"Study Phase2",16510,,,16235,16235,,,,8,1
960689,y3gbxg6rwd,Nick_Dissertation_EX1b,1,208,2020-04-17T16:59:01-07:00,9.7653748989105,1,versionA_stim.csv,VC_VersionA.csv,"Version A","Version A",CAT,PANTHER,Study2,B,126,147,VC,User,-,"How many vowels are the two words combined?|Type your response below and then press Enter.",Study/JOL,"Study Phase2",5895,,,5709,5709,,,,3,1
960689,y3gbxg6rwd,Nick_Dissertation_EX1b,1,209,2020-04-17T16:59:10-07:00,8.838742017746,1,versionA_stim.csv,VC_VersionA.csv,"Version A","Version A",SHEARS,SCISSORS,Study2,F,112,155,VC,User,-,"How many vowels are the two words combined?|Type your response below and then press Enter.",Study/JOL,"Study Phase2",6453,,,6204,6204,,,,4,1
960689,y3gbxg6rwd,Nick_Dissertation_EX1b,1,210,2020-04-17T16:59:32-07:00,21.803035974503,1,versionA_stim.csv,VC_VersionA.csv,"Version A","Version A",SCALP,HEAD,Study2,F,105,149,VC,User,-,"How many vowels are the two words combined?|Type your response below and then press Enter.",Study/JOL,"Study Phase2",20257,,,19602,19602,,,,3,1
960689,y3gbxg6rwd,Nick_Dissertation_EX1b,1,211,2020-04-17T16:59:36-07:00,4.3098649978638,1,versionA_stim.csv,VC_VersionA.csv,"Version A","Version A",WATER,DRINK,Study2,S,143,128,VC,User,-,"How many vowels are the two words combined?|Type your response below and then press Enter.",Study/JOL,"Study Phase2",2415,,,2260,2261,,,,3,1
960689,y3gbxg6rwd,Nick_Dissertation_EX1b,1,212,2020-04-17T16:59:41-07:00,5.2539100646973,1,versionA_stim.csv,VC_VersionA.csv,"Version A","Version A",PLANE,AIRCRAFT,Study2,B,129,145,VC,User,-,"How many vowels are the two words combined?|Type your response below and then press Enter.",Study/JOL,"Study Phase2",3691,,,3346,3346,,,,5,1
960689,y3gbxg6rwd,Nick_Dissertation_EX1b,1,213,2020-04-17T16:59:46-07:00,4.3906300067902,1,versionA_stim.csv,VC_VersionA.csv,"Version A","Version A",BIRD,PENGUIN,Study2,B,119,141,VC,User,-,"How many vowels are the two words combined?|Type your response below and then press Enter.",Study/JOL,"Study Phase2",2617,,,2439,2439,,,,4,1
960689,y3gbxg6rwd,Nick_Dissertation_EX1b,1,214,2020-04-17T17:00:02-07:00,16.383665084839,1,versionA_stim.csv,VC_VersionA.csv,"Version A","Version A",BOTH,OUNCE,Study2,U,172,125,VC,User,-,"How many vowels are the two words combined?|Type your response below and then press Enter.",Study/JOL,"Study Phase2",5083,,,4892,4892,,,,4,0.962
960689,y3gbxg6rwd,Nick_Dissertation_EX1b,1,215,2020-04-17T17:00:06-07:00,3.7606060504913,1,versionA_stim.csv,VC_VersionA.csv,"Version A","Version A",CHILL,COLD,Study2,F,114,101,VC,User,-,"How many vowels are the two words combined?|Type your response below and then press Enter.",Study/JOL,"Study Phase2",2412,,,1977,1977,,,,2,1
960689,y3gbxg6rwd,Nick_Dissertation_EX1b,1,216,2020-04-17T17:00:17-07:00,11.060763835907,1,versionA_stim.csv,VC_VersionA.csv,"Version A","Version A",DINE,EAT,Study2,F,111,97,VC,User,-,"How many vowels are the two words combined?|Type your response below and then press Enter.",Study/JOL,"Study Phase2",9537,,,8907,8907,,,,4,1
960689,y3gbxg6rwd,Nick_Dissertation_EX1b,1,217,2020-04-17T17:00:28-07:00,11.266493082047,1,versionA_stim.csv,VC_VersionA.csv,"Version A","Version A",GIVE,STEAK,Study2,U,158,174,VC,User,-,"How many vowels are the two words combined?|Type your response below and then press Enter.",Study/JOL,"Study Phase2",2061,,,1868,1868,,,,4,0.909
960689,y3gbxg6rwd,Nick_Dissertation_EX1b,1,218,2020-04-17T17:00:32-07:00,4.0999820232391,1,versionA_stim.csv,VC_VersionA.csv,"Version A","Version A",ROD,REEL,Study2,S,150,154,VC,User,-,"How many vowels are the two words combined?|Type your response below and then press Enter.",Study/JOL,"Study Phase2",2284,,,2033,2033,,,,3,1
960689,y3gbxg6rwd,Nick_Dissertation_EX1b,1,219,2020-04-17T17:00:39-07:00,6.4679079055786,1,versionA_stim.csv,VC_VersionA.csv,"Version A","Version A",HONEST,TRUTHFUL,Study2,B,133,136,VC,User,-,"How many vowels are the two words combined?|Type your response below and then press Enter.",Study/JOL,"Study Phase2",3939,,,3572,3572,,,,4,1
960689,y3gbxg6rwd,Nick_Dissertation_EX1b,1,220,2020-04-17T17:00:44-07:00,5.2052879333496,1,versionA_stim.csv,VC_VersionA.csv,"Version A","Version A",INCENSE,SMELL,Study2,F,110,108,VC,User,-,"How many vowels are the two words combined?|Type your response below and then press Enter.",Study/JOL,"Study Phase2",2910,,,2707,2707,,,,4,1
960689,y3gbxg6rwd,Nick_Dissertation_EX1b,1,221,2020-04-17T17:00:48-07:00,3.9909131526947,1,versionA_stim.csv,VC_VersionA.csv,"Version A","Version A",MONEY,BANKER,Study2,B,132,107,VC,User,-,"How many vowels are the two words combined?|Type your response below and then press Enter.",Study/JOL,"Study Phase2",2591,,,2416,2416,,,,4,1
960689,y3gbxg6rwd,Nick_Dissertation_EX1b,1,222,2020-04-17T17:00:59-07:00,11.365495920181,1,versionA_stim.csv,VC_VersionA.csv,"Version A","Version A",TEMPERATURE,Morning,Study2,U,173,110,VC,User,-,"How many vowels are the two words combined?|Type your response below and then press Enter.",Study/JOL,"Study Phase2",9720,,,9123,9123,,,,7,1
960689,y3gbxg6rwd,Nick_Dissertation_EX1b,1,223,2020-04-17T17:01:07-07:00,7.3719201087952,1,versionA_stim.csv,VC_VersionA.csv,"Version A","Version A",ADJOURN,END,Study2,F,101,99,VC,User,-,"How many vowels are the two words combined?|Type your response below and then press Enter.",Study/JOL,"Study Phase2",5997,,,5675,5675,,,,4,1
960689,y3gbxg6rwd,Nick_Dissertation_EX1b,1,224,2020-04-17T17:01:15-07:00,8.6027109622955,1,versionA_stim.csv,VC_VersionA.csv,"Version A","Version A",ELEMENT,CARBON,Study2,S,141,142,VC,User,-,"How many vowels are the two words combined?|Type your response below and then press Enter.",Study/JOL,"Study Phase2",6974,,,3334,6787,,,,5,1
960689,y3gbxg6rwd,Nick_Dissertation_EX1b,1,225,2020-04-17T17:01:20-07:00,4.3009798526764,1,versionA_stim.csv,VC_VersionA.csv,"Version A","Version A",DRY,WET,Study2,S,146,116,VC,User,-,"How many vowels are the two words combined?|Type your response below and then press Enter.",Study/JOL,"Study Phase2",3048,,,2758,2758,,,,1,1
960689,y3gbxg6rwd,Nick_Dissertation_EX1b,1,226,2020-04-17T17:01:25-07:00,5.5374891757965,1,versionA_stim.csv,VC_VersionA.csv,"Version A","Version A",AFFECTION,LOVE,Study2,F,115,140,VC,User,-,"How many vowels are the two words combined?|Type your response below and then press Enter.",Study/JOL,"Study Phase2",3925,,,3317,3317,,,,6,1
960689,y3gbxg6rwd,Nick_Dissertation_EX1b,1,227,2020-04-17T17:01:31-07:00,5.5220649242401,1,versionA_stim.csv,VC_VersionA.csv,"Version A","Version A",BAD,VILLAIN,Study2,B,118,173,VC,User,-,"How many vowels are the two words combined?|Type your response below and then press Enter.",Study/JOL,"Study Phase2",3187,,,2586,2586,,,,4,1
960689,y3gbxg6rwd,Nick_Dissertation_EX1b,1,228,2020-04-17T17:01:34-07:00,3.7915251255035,1,versionA_stim.csv,VC_VersionA.csv,"Version A","Version A",Shell,SHAKE,Study2,U,163,124,VC,User,-,"How many vowels are the two words combined?|Type your response below and then press Enter.",Study/JOL,"Study Phase2",2872,,,2637,2637,,,,3,1
960689,y3gbxg6rwd,Nick_Dissertation_EX1b,1,229,2020-04-17T17:01:39-07:00,4.501699924469,1,versionA_stim.csv,VC_VersionA.csv,"Version A","Version A",CRACKLE,ABLE,Study2,U,162,150,VC,User,-,"How many vowels are the two words combined?|Type your response below and then press Enter.",Study/JOL,"Study Phase2",2652,,,2417,2417,,,,4,1
960689,y3gbxg6rwd,Nick_Dissertation_EX1b,1,230,2020-04-17T17:01:45-07:00,6.1556918621063,1,versionA_stim.csv,VC_VersionA.csv,"Version A","Version A",EVEN,REVENGE,Study2,B,122,164,VC,User,-,"How many vowels are the two words combined?|Type your response below and then press Enter.",Study/JOL,"Study Phase2",4808,,,4466,4466,,,,5,1
960689,y3gbxg6rwd,Nick_Dissertation_EX1b,1,231,2020-04-17T17:01:56-07:00,10.74315404892,1,versionA_stim.csv,VC_VersionA.csv,"Version A","Version A",NAME,HATE,Study2,U,167,115,VC,User,-,"How many vowels are the two words combined?|Type your response below and then press Enter.",Study/JOL,"Study Phase2",1956,,,1748,1748,,,,4,0.9
960689,y3gbxg6rwd,Nick_Dissertation_EX1b,1,232,2020-04-17T17:02:00-07:00,4.4738211631775,1,versionA_stim.csv,VC_VersionA.csv,"Version A","Version A",MEAT,OBTAIN,Study2,U,161,104,VC,User,-,"How many vowels are the two words combined?|Type your response below and then press Enter.",Study/JOL,"Study Phase2",2630,,,2425,2425,,,,5,1
960689,y3gbxg6rwd,Nick_Dissertation_EX1b,1,233,2020-04-17T17:02:14-07:00,13.343930006027,1,versionA_stim.csv,VC_VersionA.csv,"Version A","Version A",FRUIT,STRAWBERRY,Study2,B,124,105,VC,User,-,"How many vowels are the two words combined?|Type your response below and then press Enter.",Study/JOL,"Study Phase2",3812,,,3599,3600,,,,4,0.947
960689,y3gbxg6rwd,Nick_Dissertation_EX1b,1,234,2020-04-17T17:02:18-07:00,4.6069598197937,1,versionA_stim.csv,VC_VersionA.csv,"Version A","Version A",DOCUMENT,PAPER,Study2,F,109,131,VC,User,-,"How many vowels are the two words combined?|Type your response below and then press Enter.",Study/JOL,"Study Phase2",3533,,,3355,3355,,,,3,1
960689,y3gbxg6rwd,Nick_Dissertation_EX1b,1,235,2020-04-17T17:02:33-07:00,15.064893007278,1,versionA_stim.csv,VC_VersionA.csv,"Version A","Version A",SUN,TAN,Study2,S,155,133,VC,User,-,"How many vowels are the two words combined?|Type your response below and then press Enter.",Study/JOL,"Study Phase2",2990,,,2604,2604,,,,2,0.933
960689,y3gbxg6rwd,Nick_Dissertation_EX1b,1,236,2020-04-17T17:02:39-07:00,5.5111351013184,1,versionA_stim.csv,VC_VersionA.csv,"Version A","Version A",BEST,FAVORITE,Study2,B,125,134,VC,User,-,"How many vowels are the two words combined?|Type your response below and then press Enter.",Study/JOL,"Study Phase2",3940,,,3716,3716,,,,5,1
960689,y3gbxg6rwd,Nick_Dissertation_EX1b,1,237,2020-04-17T17:02:44-07:00,5.5306880474091,1,versionA_stim.csv,VC_VersionA.csv,"Version A","Version A",CAR,WINDSHIELD,Study2,B,117,158,VC,User,-,"How many vowels are the two words combined?|Type your response below and then press Enter.",Study/JOL,"Study Phase2",4191,,,3876,3876,,,,4,1
960689,y3gbxg6rwd,Nick_Dissertation_EX1b,1,238,2020-04-17T17:02:49-07:00,4.3337960243225,1,versionA_stim.csv,VC_VersionA.csv,"Version A","Version A",GLASS,BREAKABLE,Study2,B,127,163,VC,User,-,"How many vowels are the two words combined?|Type your response below and then press Enter.",Study/JOL,"Study Phase2",3139,,,2854,2854,,,,4,1
960689,y3gbxg6rwd,Nick_Dissertation_EX1b,1,239,2020-04-17T17:02:54-07:00,5.5970458984375,1,versionA_stim.csv,VC_VersionA.csv,"Version A","Version A",CHERRY,RED,Study2,F,104,117,VC,User,-,"How many vowels are the two words combined?|Type your response below and then press Enter.",Study/JOL,"Study Phase2",3009,,,2705,2705,,,,2,1
960689,y3gbxg6rwd,Nick_Dissertation_EX1b,1,240,2020-04-17T17:02:59-07:00,4.3867840766907,1,versionA_stim.csv,VC_VersionA.csv,"Version A","Version A",STRETCH,CLOTH,Study2,U,157,106,VC,User,-,"How many vowels are the two words combined?|Type your response below and then press Enter.",Study/JOL,"Study Phase2",2945,,,2591,2591,,,,2,1
960689,y3gbxg6rwd,Nick_Dissertation_EX1b,1,241,2020-04-17T17:03:10-07:00,11.804245948792,1,versionA_stim.csv,VC_VersionA.csv,"Version A","Version A",TRUTH,LIE,Study2,S,148,126,VC,User,-,"How many vowels are the two words combined?|Type your response below and then press Enter.",Study/JOL,"Study Phase2",2402,,,2181,2181,,,,3,0.917
960689,y3gbxg6rwd,Nick_Dissertation_EX1b,1,242,2020-04-17T17:03:14-07:00,3.3915259838104,1,versionA_stim.csv,VC_VersionA.csv,"Version A","Version A",MASON,JAR,Study2,S,138,139,VC,User,-,"How many vowels are the two words combined?|Type your response below and then press Enter.",Study/JOL,"Study Phase2",2524,,,2271,2271,,,,3,1
960689,y3gbxg6rwd,Nick_Dissertation_EX1b,1,243,2020-04-17T17:03:18-07:00,3.8849229812622,1,versionA_stim.csv,VC_VersionA.csv,"Version A","Version A",FISH,SARDINE,Study2,B,130,112,VC,User,-,"How many vowels are the two words combined?|Type your response below and then press Enter.",Study/JOL,"Study Phase2",2871,,,2575,2575,,,,4,1
960689,y3gbxg6rwd,Nick_Dissertation_EX1b,1,244,2020-04-17T17:03:23-07:00,5.3151218891144,1,versionA_stim.csv,VC_VersionA.csv,"Version A","Version A",CANDLE,WAX,Study2,S,139,146,VC,User,-,"How many vowels are the two words combined?|Type your response below and then press Enter.",Study/JOL,"Study Phase2",4329,,,4056,4056,,,,3,1
960689,y3gbxg6rwd,Nick_Dissertation_EX1b,1,245,2020-04-17T17:03:29-07:00,5.5248031616211,1,versionA_stim.csv,VC_VersionA.csv,"Version A","Version A",THREAD,THIMBLE,Study2,B,121,120,VC,User,-,"How many vowels are the two words combined?|Type your response below and then press Enter.",Study/JOL,"Study Phase2",3981,,,3758,3758,,,,4,1
960689,y3gbxg6rwd,Nick_Dissertation_EX1b,1,246,2020-04-17T17:03:33-07:00,4.1231169700623,1,versionA_stim.csv,VC_VersionA.csv,"Version A","Version A",MAIN,SCAR,Study2,U,175,138,VC,User,-,"How many vowels are the two words combined?|Type your response below and then press Enter.",Study/JOL,"Study Phase2",2644,,,2191,2191,,,,3,1
960689,y3gbxg6rwd,Nick_Dissertation_EX1b,1,247,2020-04-17T17:03:37-07:00,4.4784209728241,1,versionA_stim.csv,VC_VersionA.csv,"Version A","Version A",LOAN,SIGN,Study2,U,171,123,VC,User,-,"How many vowels are the two words combined?|Type your response below and then press Enter.",Study/JOL,"Study Phase2",3026,,,2736,2736,,,,3,1
960689,y3gbxg6rwd,Nick_Dissertation_EX1b,1,248,2020-04-17T17:03:41-07:00,3.709352016449,1,versionA_stim.csv,VC_VersionA.csv,"Version A","Version A",SLEEP,NAP,Study2,B,134,162,VC,User,-,"How many vowels are the two words combined?|Type your response below and then press Enter.",Study/JOL,"Study Phase2",2236,,,1760,1760,,,,3,1
960689,y3gbxg6rwd,Nick_Dissertation_EX1b,1,249,2020-04-17T17:03:46-07:00,4.9061069488525,1,versionA_stim.csv,VC_VersionA.csv,"Version A","Version A",CACTUS,PLANT,Study2,F,98,169,VC,User,-,"How many vowels are the two words combined?|Type your response below and then press Enter.",Study/JOL,"Study Phase2",3745,,,3508,3508,,,,3,1
960689,y3gbxg6rwd,Nick_Dissertation_EX1b,1,250,2020-04-17T17:03:52-07:00,6.1280970573425,1,versionA_stim.csv,VC_VersionA.csv,"Version A","Version A",WRIST,BRACELET,Study2,S,140,176,VC,User,-,"How many vowels are the two words combined?|Type your response below and then press Enter.",Study/JOL,"Study Phase2",4379,,,3978,3978,,,,4,1
960689,y3gbxg6rwd,Nick_Dissertation_EX1b,1,251,2020-04-17T17:04:07-07:00,14.570534944534,1,versionA_stim.csv,VC_VersionA.csv,"Version A","Version A",CLUE,GAME,Study2,F,97,114,VC,User,-,"How many vowels are the two words combined?|Type your response below and then press Enter.",Study/JOL,"Study Phase2",2223,,,1114,1114,,,,4,0.909
960689,y3gbxg6rwd,Nick_Dissertation_EX1b,1,252,2020-04-17T17:04:11-07:00,4.4786529541016,1,versionA_stim.csv,VC_VersionA.csv,"Version A","Version A",FEUD,FIGHT,Study2,F,113,166,VC,User,-,"How many vowels are the two words combined?|Type your response below and then press Enter.",Study/JOL,"Study Phase2",3130,,,2513,2513,,,,3,1
960689,y3gbxg6rwd,Nick_Dissertation_EX1b,1,253,2020-04-17T17:04:16-07:00,5.2363991737366,1,versionA_stim.csv,VC_VersionA.csv,"Version A","Version A",MULE,DONKEY,Study2,F,108,156,VC,User,-,"How many vowels are the two words combined?|Type your response below and then press Enter.",Study/JOL,"Study Phase2",3655,,,2670,2670,,,,4,1
960689,y3gbxg6rwd,Nick_Dissertation_EX1b,1,254,2020-04-17T17:04:20-07:00,3.8719699382782,1,versionA_stim.csv,VC_VersionA.csv,"Version A","Version A",GONE,AWAY,Study2,S,142,135,VC,User,-,"How many vowels are the two words combined?|Type your response below and then press Enter.",Study/JOL,"Study Phase2",2418,,,1856,1856,,,,3,1
960689,y3gbxg6rwd,Nick_Dissertation_EX1b,1,255,2020-04-17T17:04:24-07:00,4.4108638763428,1,versionA_stim.csv,VC_VersionA.csv,"Version A","Version A",MOAT,CLEAR,Study2,U,169,151,VC,User,-,"How many vowels are the two words combined?|Type your response below and then press Enter.",Study/JOL,"Study Phase2",3247,,,2041,2042,,,,4,1
960689,y3gbxg6rwd,Nick_Dissertation_EX1b,1,256,2020-04-17T17:04:30-07:00,5.835930109024,1,versionA_stim.csv,VC_VersionA.csv,"Version A","Version A",DRIVER,CAR,Study2,F,106,157,VC,User,-,"How many vowels are the two words combined?|Type your response below and then press Enter.",Study/JOL,"Study Phase2",3647,,,3026,3026,,,,3,1
960689,y3gbxg6rwd,Nick_Dissertation_EX1b,1,257,2020-04-17T17:04:45-07:00,15.054051876068,1,versionA_stim.csv,VC_VersionA.csv,"Version A","Version A",LEASE,TOIL,Study2,U,170,98,VC,User,-,"How many vowels are the two words combined?|Type your response below and then press Enter.",Study/JOL,"Study Phase2",3829,,,2948,2948,,,,5,0.947
960689,y3gbxg6rwd,Nick_Dissertation_EX1b,1,258,2020-04-17T17:04:58-07:00,12.591366052628,1,versionA_stim.csv,VC_VersionA.csv,"Version A","Version A",SHOELACE,TIE,Study2,F,99,109,VC,User,-,"How many vowels are the two words combined?|Type your response below and then press Enter.",Study/JOL,"Study Phase2",10584,,,9938,9938,,,,6,1
960689,y3gbxg6rwd,Nick_Dissertation_EX1b,1,259,2020-04-17T17:05:07-07:00,8.9136140346527,1,versionA_stim.csv,VC_VersionA.csv,"Version A","Version A",DEAD,COFFIN,Study2,B,128,113,VC,User,-,"How many vowels are the two words combined?|Type your response below and then press Enter.",Study/JOL,"Study Phase2",7563,,,6616,6617,,,,4,1
960689,y3gbxg6rwd,Nick_Dissertation_EX1b,1,260,2020-04-17T17:05:18-07:00,10.76767706871,1,versionA_stim.csv,VC_VersionA.csv,"Version A","Version A",ALONE,LONELY,Study2,S,145,119,VC,User,-,"How many vowels are the two words combined?|Type your response below and then press Enter.",Study/JOL,"Study Phase2",6977,,,5933,5933,,,,5,1
960689,y3gbxg6rwd,Nick_Dissertation_EX1b,1,261,2020-04-17T17:05:23-07:00,5.5102288722992,1,versionA_stim.csv,VC_VersionA.csv,"Version A","Version A",LOUD,NOISE,Study2,S,152,122,VC,User,-,"How many vowels are the two words combined?|Type your response below and then press Enter.",Study/JOL,"Study Phase2",3404,,,2364,2364,,,,5,1
960689,y3gbxg6rwd,Nick_Dissertation_EX1b,1,262,2020-04-17T17:05:30-07:00,7.101291179657,1,versionA_stim.csv,VC_VersionA.csv,"Version A","Version A",JUSTICE,MAROON,Study2,U,156,152,VC,User,-,"How many vowels are the two words combined?|Type your response below and then press Enter.",Study/JOL,"Study Phase2",5697,,,4683,4683,,,,6,1
960689,y3gbxg6rwd,Nick_Dissertation_EX1b,1,263,2020-04-17T17:05:42-07:00,11.33091878891,1,versionA_stim.csv,VC_VersionA.csv,"Version A","Version A",BASEBALL,LEAGUE,Study2,B,131,130,VC,User,-,"How many vowels are the two words combined?|Type your response below and then press Enter.",Study/JOL,"Study Phase2",6265,,,5336,5337,,,,7,1
960689,y3gbxg6rwd,Nick_Dissertation_EX1b,1,264,2020-04-17T17:05:50-07:00,7.9862310886383,1,versionA_stim.csv,VC_VersionA.csv,"Version A","Version A",FLEA,TICK,Study2,S,151,132,VC,User,-,"How many vowels are the two words combined?|Type your response below and then press Enter.",Study/JOL,"Study Phase2",3431,,,2519,2519,,,,3,1
960689,y3gbxg6rwd,Nick_Dissertation_EX1b,1,265,2020-04-17T17:05:55-07:00,5.012708902359,1,versionA_stim.csv,VC_VersionA.csv,"Version A","Version A",OWN,HAVE,Study2,S,153,111,VC,User,-,"How many vowels are the two words combined?|Type your response below and then press Enter.",Study/JOL,"Study Phase2",3769,,,2821,2821,,,,3,1
960689,y3gbxg6rwd,Nick_Dissertation_EX1b,1,266,2020-04-17T17:05:59-07:00,4.5370302200317,1,versionA_stim.csv,VC_VersionA.csv,"Version A","Version A",TOOL,SHED,BUFFER4,Buffer,178,181,VC,User,-,"How many vowels are the two words combined?|Type your response below and then press Enter.",Study/JOL,BUFFER4,3375,,,2614,2614,,,,3,1
960689,y3gbxg6rwd,Nick_Dissertation_EX1b,1,267,2020-04-17T17:06:05-07:00,5.5040647983551,1,versionA_stim.csv,VC_VersionA.csv,"Version A","Version A",SPRING,MARCH,BUFFER4,Buffer,179,177,VC,User,-,"How many vowels are the two words combined?|Type your response below and then press Enter.",Study/JOL,BUFFER4,3341,,,2506,2506,,,,2,1
960689,y3gbxg6rwd,Nick_Dissertation_EX1b,1,268,2020-04-17T17:06:11-07:00,6.1542429924011,1,versionA_stim.csv,VC_VersionA.csv,"Version A","Version A",MONTH,YEAR,BUFFER4,Buffer,177,180,VC,User,-,"How many vowels are the two words combined?|Type your response below and then press Enter.",Study/JOL,BUFFER4,5159,,,4410,4410,,,,3,1
960689,y3gbxg6rwd,Nick_Dissertation_EX1b,1,269,2020-04-17T17:06:31-07:00,19.959179162979,1,versionA_stim.csv,VC_VersionA.csv,"Version A","Version A",DAYS,WEAKS,BUFFER4,Buffer,176,178,VC,User,-,"How many vowels are the two words combined?|Type your response below and then press Enter.",Study/JOL,BUFFER4,15079,,,14235,14235,,,,3,1
960689,y3gbxg6rwd,Nick_Dissertation_EX1b,1,270,2020-04-17T17:06:47-07:00,15.974927902222,1,versionA_stim.csv,VC_VersionA.csv,"Version A","Version A",OCTOBER,SPOOKY,BUFFER4,Buffer,180,179,VC,User,-,"How many vowels are the two words combined?|Type your response below and then press Enter.",Study/JOL,BUFFER4,9804,,,8754,8754,,,,5,1
960689,y3gbxg6rwd,Nick_Dissertation_EX1b,1,271,2020-04-17T17:06:51-07:00,4.2259919643402,1,versionA_stim.csv,VC_VersionA.csv,"Version A","Version A",,,,,,0,Instruct,User,-,"You have completed this section. Please press Enter.",Filler_Instruction,Instruct5,2765,,,-1,-1,,,,,1
960689,y3gbxg6rwd,Nick_Dissertation_EX1b,1,272,2020-04-17T17:08:52-07:00,121.12232398987,1,versionA_stim.csv,VC_VersionA.csv,"Version A","Version A",,,,,,0,FreeRecall,120,120,"Please list the 50 US states in reverse alphabetical order (z - a). The task will automatically advance to the next screen after two minutes.",,Filler2,120003,"Wyoming wisconsin washington utah texas south Dakota South Carolina ",0,86343,119960,0,0,,,0.913
960689,y3gbxg6rwd,Nick_Dissertation_EX1b,1,273,2020-04-17T17:09:23-07:00,31.324508190155,1,versionA_stim.csv,VC_VersionA.csv,"Version A","Version A",,,,,,0,Instruct,-,10,"You will now be presented with the first word from each of the previously studied item pairs. Please type the missing word. If you do not know the word, you may guess or press Enter to skip forward to the next pair.",,Instruct6,29461,,,-1,-1,,,,,0.744
960689,y3gbxg6rwd,Nick_Dissertation_EX1b,1,274,2020-04-17T17:09:27-07:00,3.7065169811249,1,versionA_stim.csv,VC_VersionA.csv,"Version A","Version A",BASEBALL,LEAGUE,Study2,B,131,130,Test,User,-,,Recall,Recall2,2514,,0,-1,-1,0,0,,,1
960689,y3gbxg6rwd,Nick_Dissertation_EX1b,1,275,2020-04-17T17:09:49-07:00,21.483945846558,1,versionA_stim.csv,VC_VersionA.csv,"Version A","Version A",LITTER,TRASH,Study2,F,103,102,Test,User,-,,Recall,Recall2,1536,,0,-1,-1,0,0,,,0.875
960689,y3gbxg6rwd,Nick_Dissertation_EX1b,1,276,2020-04-17T17:09:51-07:00,2.5399451255798,1,versionA_stim.csv,VC_VersionA.csv,"Version A","Version A",BEST,FAVORITE,Study2,B,125,134,Test,User,-,,Recall,Recall2,1571,,0,-1,-1,0,0,,,1
960689,y3gbxg6rwd,Nick_Dissertation_EX1b,1,277,2020-04-17T17:10:02-07:00,11.107398986816,1,versionA_stim.csv,VC_VersionA.csv,"Version A","Version A",SHEARS,SCISSORS,Study2,F,112,155,Test,User,-,,Recall,Recall2,1213,,0,-1,-1,0,0,,,0.833
960689,y3gbxg6rwd,Nick_Dissertation_EX1b,1,278,2020-04-17T17:10:05-07:00,2.541601896286,1,versionA_stim.csv,VC_VersionA.csv,"Version A","Version A",PHONE,COMMUNICATION,Study2,S,149,160,Test,User,-,,Recall,Recall2,1401,,0,-1,-1,0,0,,,1
960689,y3gbxg6rwd,Nick_Dissertation_EX1b,1,279,2020-04-17T17:10:07-07:00,1.7920830249786,1,versionA_stim.csv,VC_VersionA.csv,"Version A","Version A",MIRROR,CHILDREN,Study2,U,174,127,Test,User,-,,Recall,Recall2,746,,0,-1,-1,0,0,,,1
960689,y3gbxg6rwd,Nick_Dissertation_EX1b,1,280,2020-04-17T17:10:08-07:00,1.6458330154419,1,versionA_stim.csv,VC_VersionA.csv,"Version A","Version A",MEAT,OBTAIN,Study2,U,161,104,Test,User,-,,Recall,Recall2,546,,0,-1,-1,0,0,,,1
960689,y3gbxg6rwd,Nick_Dissertation_EX1b,1,281,2020-04-17T17:10:10-07:00,1.6623170375824,1,versionA_stim.csv,VC_VersionA.csv,"Version A","Version A",FISH,SARDINE,Study2,B,130,112,Test,User,-,,Recall,Recall2,672,,0,-1,-1,0,0,,,1
960689,y3gbxg6rwd,Nick_Dissertation_EX1b,1,282,2020-04-17T17:10:12-07:00,1.6872429847717,1,versionA_stim.csv,VC_VersionA.csv,"Version A","Version A",CHERRY,RED,Study2,F,104,117,Test,User,-,,Recall,Recall2,517,,0,-1,-1,0,0,,,1
960689,y3gbxg6rwd,Nick_Dissertation_EX1b,1,283,2020-04-17T17:10:13-07:00,1.6186389923096,1,versionA_stim.csv,VC_VersionA.csv,"Version A","Version A",MAIN,SCAR,Study2,U,175,138,Test,User,-,,Recall,Recall2,1087,,0,-1,-1,0,0,,,1
960689,y3gbxg6rwd,Nick_Dissertation_EX1b,1,284,2020-04-17T17:10:15-07:00,1.9207940101624,1,versionA_stim.csv,VC_VersionA.csv,"Version A","Version A",EARTH,GROUND,Study2,S,144,103,Test,User,-,,Recall,Recall2,975,,0,-1,-1,0,0,,,1
960689,y3gbxg6rwd,Nick_Dissertation_EX1b,1,285,2020-04-17T17:10:17-07:00,1.8337008953094,1,versionA_stim.csv,VC_VersionA.csv,"Version A","Version A",CACTUS,PLANT,Study2,F,98,169,Test,User,-,,Recall,Recall2,667,,0,-1,-1,0,0,,,1
960689,y3gbxg6rwd,Nick_Dissertation_EX1b,1,286,2020-04-17T17:10:19-07:00,1.6332712173462,1,versionA_stim.csv,VC_VersionA.csv,"Version A","Version A",LEASE,TOIL,Study2,U,170,98,Test,User,-,,Recall,Recall2,457,,0,-1,-1,0,0,,,1
960689,y3gbxg6rwd,Nick_Dissertation_EX1b,1,287,2020-04-17T17:10:20-07:00,1.6348159313202,1,versionA_stim.csv,VC_VersionA.csv,"Version A","Version A",LOAN,SIGN,Study2,U,171,123,Test,User,-,,Recall,Recall2,529,,0,-1,-1,0,0,,,1
960689,y3gbxg6rwd,Nick_Dissertation_EX1b,1,288,2020-04-17T17:10:22-07:00,1.5071969032288,1,versionA_stim.csv,VC_VersionA.csv,"Version A","Version A",TANTRUM,TEMPER,Study2,S,154,171,Test,User,-,,Recall,Recall2,526,,0,-1,-1,0,0,,,1
960689,y3gbxg6rwd,Nick_Dissertation_EX1b,1,289,2020-04-17T17:10:24-07:00,2.4699320793152,1,versionA_stim.csv,VC_VersionA.csv,"Version A","Version A",BAD,VILLAIN,Study2,B,118,173,Test,User,-,,Recall,Recall2,1153,,0,-1,-1,0,0,,,1
960689,y3gbxg6rwd,Nick_Dissertation_EX1b,1,290,2020-04-17T17:10:26-07:00,1.5026059150696,1,versionA_stim.csv,VC_VersionA.csv,"Version A","Version A",CAR,WINDSHIELD,Study2,B,117,158,Test,User,-,,Recall,Recall2,510,,0,-1,-1,0,0,,,1
960689,y3gbxg6rwd,Nick_Dissertation_EX1b,1,291,2020-04-17T17:10:27-07:00,1.4691729545593,1,versionA_stim.csv,VC_VersionA.csv,"Version A","Version A",NAME,HATE,Study2,U,167,115,Test,User,-,,Recall,Recall2,441,,0,-1,-1,0,0,,,1
960689,y3gbxg6rwd,Nick_Dissertation_EX1b,1,292,2020-04-17T17:10:28-07:00,1.1683042049408,1,versionA_stim.csv,VC_VersionA.csv,"Version A","Version A",CAKE,CLOTHES,Study2,U,166,168,Test,User,-,,Recall,Recall2,372,,0,-1,-1,0,0,,,1
960689,y3gbxg6rwd,Nick_Dissertation_EX1b,1,293,2020-04-17T17:10:30-07:00,1.5087199211121,1,versionA_stim.csv,VC_VersionA.csv,"Version A","Version A",MULE,DONKEY,Study2,F,108,156,Test,User,-,,Recall,Recall2,358,,0,-1,-1,0,0,,,1
960689,y3gbxg6rwd,Nick_Dissertation_EX1b,1,294,2020-04-17T17:10:31-07:00,1.5352780818939,1,versionA_stim.csv,VC_VersionA.csv,"Version A","Version A",GLASS,BREAKABLE,Study2,B,127,163,Test,User,-,,Recall,Recall2,660,,0,-1,-1,0,0,,,1
960689,y3gbxg6rwd,Nick_Dissertation_EX1b,1,295,2020-04-17T17:10:33-07:00,1.5504608154297,1,versionA_stim.csv,VC_VersionA.csv,"Version A","Version A",FUZZY,BANG,Study2,U,168,121,Test,User,-,,Recall,Recall2,370,,0,-1,-1,0,0,,,1
960689,y3gbxg6rwd,Nick_Dissertation_EX1b,1,296,2020-04-17T17:10:35-07:00,1.5793361663818,1,versionA_stim.csv,VC_VersionA.csv,"Version A","Version A",MAZE,ELECTION,Study2,U,159,161,Test,User,-,,Recall,Recall2,438,,0,-1,-1,0,0,,,1
960689,y3gbxg6rwd,Nick_Dissertation_EX1b,1,297,2020-04-17T17:10:36-07:00,1.2558329105377,1,versionA_stim.csv,VC_VersionA.csv,"Version A","Version A",FRUIT,STRAWBERRY,Study2,B,124,105,Test,User,-,,Recall,Recall2,416,,0,-1,-1,0,0,,,1
960689,y3gbxg6rwd,Nick_Dissertation_EX1b,1,298,2020-04-17T17:10:37-07:00,1.4460809230804,1,versionA_stim.csv,VC_VersionA.csv,"Version A","Version A",AFFECTION,LOVE,Study2,F,115,140,Test,User,-,,Recall,Recall2,336,,0,-1,-1,0,0,,,1
960689,y3gbxg6rwd,Nick_Dissertation_EX1b,1,299,2020-04-17T17:10:39-07:00,1.5036580562592,1,versionA_stim.csv,VC_VersionA.csv,"Version A","Version A",DEAD,COFFIN,Study2,B,128,113,Test,User,-,,Recall,Recall2,318,,0,-1,-1,0,0,,,1
960689,y3gbxg6rwd,Nick_Dissertation_EX1b,1,300,2020-04-17T17:10:41-07:00,1.8084290027618,1,versionA_stim.csv,VC_VersionA.csv,"Version A","Version A",DRIVER,CAR,Study2,F,106,157,Test,User,-,,Recall,Recall2,585,,0,-1,-1,0,0,,,1
960689,y3gbxg6rwd,Nick_Dissertation_EX1b,1,301,2020-04-17T17:10:42-07:00,1.1227021217346,1,versionA_stim.csv,VC_VersionA.csv,"Version A","Version A",CLUE,GAME,Study2,F,97,114,Test,User,-,,Recall,Recall2,483,,0,-1,-1,0,0,,,1
960689,y3gbxg6rwd,Nick_Dissertation_EX1b,1,302,2020-04-17T17:10:43-07:00,1.5847389698029,1,versionA_stim.csv,VC_VersionA.csv,"Version A","Version A",POP,BALLOON,Study2,B,123,153,Test,User,-,,Recall,Recall2,471,,0,-1,-1,0,0,,,1
960689,y3gbxg6rwd,Nick_Dissertation_EX1b,1,303,2020-04-17T17:10:45-07:00,1.3444468975067,1,versionA_stim.csv,VC_VersionA.csv,"Version A","Version A",TRUTH,LIE,Study2,S,148,126,Test,User,-,,Recall,Recall2,337,,0,-1,-1,0,0,,,1
960689,y3gbxg6rwd,Nick_Dissertation_EX1b,1,304,2020-04-17T17:10:47-07:00,1.9839289188385,1,versionA_stim.csv,VC_VersionA.csv,"Version A","Version A",Shell,SHAKE,Study2,U,163,124,Test,User,-,,Recall,Recall2,791,,0,-1,-1,0,0,,,1
960689,y3gbxg6rwd,Nick_Dissertation_EX1b,1,305,2020-04-17T17:10:48-07:00,1.0702741146088,1,versionA_stim.csv,VC_VersionA.csv,"Version A","Version A",EXTENSION,LONG,Study2,F,96,170,Test,User,-,,Recall,Recall2,422,,0,-1,-1,0,0,,,1
960689,y3gbxg6rwd,Nick_Dissertation_EX1b,1,306,2020-04-17T17:10:49-07:00,0.95584797859192,1,versionA_stim.csv,VC_VersionA.csv,"Version A","Version A",FEUD,FIGHT,Study2,F,113,166,Test,User,-,,Recall,Recall2,334,,0,-1,-1,0,0,,,1
960689,y3gbxg6rwd,Nick_Dissertation_EX1b,1,307,2020-04-17T17:10:49-07:00,0.91752910614014,1,versionA_stim.csv,VC_VersionA.csv,"Version A","Version A",THREAD,THIMBLE,Study2,B,121,120,Test,User,-,,Recall,Recall2,354,,0,-1,-1,0,0,,,1
960689,y3gbxg6rwd,Nick_Dissertation_EX1b,1,308,2020-04-17T17:10:50-07:00,0.98945188522339,1,versionA_stim.csv,VC_VersionA.csv,"Version A","Version A",KEYS,JOKE,Study2,U,165,137,Test,User,-,,Recall,Recall2,420,,0,-1,-1,0,0,,,1
960689,y3gbxg6rwd,Nick_Dissertation_EX1b,1,309,2020-04-17T17:10:52-07:00,1.4429259300232,1,versionA_stim.csv,VC_VersionA.csv,"Version A","Version A",DRY,WET,Study2,S,146,116,Test,User,-,,Recall,Recall2,528,,0,-1,-1,0,0,,,1
960689,y3gbxg6rwd,Nick_Dissertation_EX1b,1,310,2020-04-17T17:10:53-07:00,1.0837421417236,1,versionA_stim.csv,VC_VersionA.csv,"Version A","Version A",DOCUMENT,PAPER,Study2,F,109,131,Test,User,-,,Recall,Recall2,486,,0,-1,-1,0,0,,,1
960689,y3gbxg6rwd,Nick_Dissertation_EX1b,1,311,2020-04-17T17:10:54-07:00,1.097128868103,1,versionA_stim.csv,VC_VersionA.csv,"Version A","Version A",MONEY,BANKER,Study2,B,132,107,Test,User,-,,Recall,Recall2,359,,0,-1,-1,0,0,,,1
960689,y3gbxg6rwd,Nick_Dissertation_EX1b,1,312,2020-04-17T17:10:55-07:00,0.94765901565552,1,versionA_stim.csv,VC_VersionA.csv,"Version A","Version A",EVEN,REVENGE,Study2,B,122,164,Test,User,-,,Recall,Recall2,359,,0,-1,-1,0,0,,,1
960689,y3gbxg6rwd,Nick_Dissertation_EX1b,1,313,2020-04-17T17:10:57-07:00,1.4781291484833,1,versionA_stim.csv,VC_VersionA.csv,"Version A","Version A",SLEEP,NAP,Study2,B,134,162,Test,User,-,,Recall,Recall2,326,,0,-1,-1,0,0,,,1
960689,y3gbxg6rwd,Nick_Dissertation_EX1b,1,314,2020-04-17T17:10:58-07:00,1.6003768444061,1,versionA_stim.csv,VC_VersionA.csv,"Version A","Version A",CHOP,CUT,Study2,F,107,159,Test,User,-,,Recall,Recall2,388,,0,-1,-1,0,0,,,1
960689,y3gbxg6rwd,Nick_Dissertation_EX1b,1,315,2020-04-17T17:10:59-07:00,1.1711101531982,1,versionA_stim.csv,VC_VersionA.csv,"Version A","Version A",SHOELACE,TIE,Study2,F,99,109,Test,User,-,,Recall,Recall2,310,,0,-1,-1,0,0,,,1
960689,y3gbxg6rwd,Nick_Dissertation_EX1b,1,316,2020-04-17T17:11:01-07:00,1.571448802948,1,versionA_stim.csv,VC_VersionA.csv,"Version A","Version A",SAFETY,SEATBELT,Study2,S,147,172,Test,User,-,,Recall,Recall2,362,,0,-1,-1,0,0,,,1
960689,y3gbxg6rwd,Nick_Dissertation_EX1b,1,317,2020-04-17T17:11:02-07:00,1.4994010925293,1,versionA_stim.csv,VC_VersionA.csv,"Version A","Version A",HONEST,TRUTHFUL,Study2,B,133,136,Test,User,-,,Recall,Recall2,299,,0,-1,-1,0,0,,,1
960689,y3gbxg6rwd,Nick_Dissertation_EX1b,1,318,2020-04-17T17:11:04-07:00,1.4944460391998,1,versionA_stim.csv,VC_VersionA.csv,"Version A","Version A",LISTEN,FICTION,Study2,U,164,167,Test,User,-,,Recall,Recall2,281,,0,-1,-1,0,0,,,1
960689,y3gbxg6rwd,Nick_Dissertation_EX1b,1,319,2020-04-17T17:11:06-07:00,1.7342278957367,1,versionA_stim.csv,VC_VersionA.csv,"Version A","Version A",ROD,REEL,Study2,S,150,154,Test,User,-,,Recall,Recall2,477,,0,-1,-1,0,0,,,1
960689,y3gbxg6rwd,Nick_Dissertation_EX1b,1,320,2020-04-17T17:11:07-07:00,1.3538010120392,1,versionA_stim.csv,VC_VersionA.csv,"Version A","Version A",BOTH,OUNCE,Study2,U,172,125,Test,User,-,,Recall,Recall2,309,,0,-1,-1,0,0,,,1
960689,y3gbxg6rwd,Nick_Dissertation_EX1b,1,321,2020-04-17T17:11:08-07:00,1.2911601066589,1,versionA_stim.csv,VC_VersionA.csv,"Version A","Version A",CAT,PANTHER,Study2,B,126,147,Test,User,-,,Recall,Recall2,367,,0,-1,-1,0,0,,,1
960689,y3gbxg6rwd,Nick_Dissertation_EX1b,1,322,2020-04-17T17:11:10-07:00,1.5331690311432,1,versionA_stim.csv,VC_VersionA.csv,"Version A","Version A",WRIST,BRACELET,Study2,S,140,176,Test,User,-,,Recall,Recall2,321,,0,-1,-1,0,0,,,1
960689,y3gbxg6rwd,Nick_Dissertation_EX1b,1,323,2020-04-17T17:11:11-07:00,1.4407060146332,1,versionA_stim.csv,VC_VersionA.csv,"Version A","Version A",RIGHTS,EQUAL,Study2,S,137,118,Test,User,-,,Recall,Recall2,265,,0,-1,-1,0,0,,,1
960689,y3gbxg6rwd,Nick_Dissertation_EX1b,1,324,2020-04-17T17:11:13-07:00,1.54243683815,1,versionA_stim.csv,VC_VersionA.csv,"Version A","Version A",MOAT,CLEAR,Study2,U,169,151,Test,User,-,,Recall,Recall2,269,,0,-1,-1,0,0,,,1
960689,y3gbxg6rwd,Nick_Dissertation_EX1b,1,325,2020-04-17T17:11:15-07:00,1.8855321407318,1,versionA_stim.csv,VC_VersionA.csv,"Version A","Version A",CHILL,COLD,Study2,F,114,101,Test,User,-,,Recall,Recall2,925,,0,-1,-1,0,0,,,1
960689,y3gbxg6rwd,Nick_Dissertation_EX1b,1,326,2020-04-17T17:11:16-07:00,1.3721950054169,1,versionA_stim.csv,VC_VersionA.csv,"Version A","Version A",DINE,EAT,Study2,F,111,97,Test,User,-,,Recall,Recall2,408,,0,-1,-1,0,0,,,1
960689,y3gbxg6rwd,Nick_Dissertation_EX1b,1,327,2020-04-17T17:11:18-07:00,1.9613909721375,1,versionA_stim.csv,VC_VersionA.csv,"Version A","Version A",STAR,ACTRESS,Study2,B,120,165,Test,User,-,,Recall,Recall2,317,,0,-1,-1,0,0,,,1
960689,y3gbxg6rwd,Nick_Dissertation_EX1b,1,328,2020-04-17T17:11:19-07:00,1.2475938796997,1,versionA_stim.csv,VC_VersionA.csv,"Version A","Version A",ELEMENT,CARBON,Study2,S,141,142,Test,User,-,,Recall,Recall2,292,,0,-1,-1,0,0,,,1
960689,y3gbxg6rwd,Nick_Dissertation_EX1b,1,329,2020-04-17T17:11:21-07:00,1.6517541408539,1,versionA_stim.csv,VC_VersionA.csv,"Version A","Version A",WATER,DRINK,Study2,S,143,128,Test,User,-,,Recall,Recall2,407,,0,-1,-1,0,0,,,1
960689,y3gbxg6rwd,Nick_Dissertation_EX1b,1,330,2020-04-17T17:11:23-07:00,1.7851619720459,1,versionA_stim.csv,VC_VersionA.csv,"Version A","Version A",BIRD,PENGUIN,Study2,B,119,141,Test,User,-,,Recall,Recall2,657,,0,-1,-1,0,0,,,1
960689,y3gbxg6rwd,Nick_Dissertation_EX1b,1,331,2020-04-17T17:11:24-07:00,1.179939031601,1,versionA_stim.csv,VC_VersionA.csv,"Version A","Version A",DETECTIVE,MYSTERY,Study2,F,100,129,Test,User,-,,Recall,Recall2,295,,0,-1,-1,0,0,,,1
960689,y3gbxg6rwd,Nick_Dissertation_EX1b,1,332,2020-04-17T17:11:25-07:00,1.5486259460449,1,versionA_stim.csv,VC_VersionA.csv,"Version A","Version A",MASON,JAR,Study2,S,138,139,Test,User,-,,Recall,Recall2,296,,0,-1,-1,0,0,,,1
960689,y3gbxg6rwd,Nick_Dissertation_EX1b,1,333,2020-04-17T17:11:27-07:00,1.5314691066742,1,versionA_stim.csv,VC_VersionA.csv,"Version A","Version A",VEHICLE,CHARM,Study2,U,160,143,Test,User,-,,Recall,Recall2,298,,0,-1,-1,0,0,,,1
960689,y3gbxg6rwd,Nick_Dissertation_EX1b,1,334,2020-04-17T17:11:28-07:00,1.5032558441162,1,versionA_stim.csv,VC_VersionA.csv,"Version A","Version A",CRACKLE,ABLE,Study2,U,162,150,Test,User,-,,Recall,Recall2,255,,0,-1,-1,0,0,,,1
960689,y3gbxg6rwd,Nick_Dissertation_EX1b,1,335,2020-04-17T17:11:30-07:00,1.2699060440063,1,versionA_stim.csv,VC_VersionA.csv,"Version A","Version A",GIVE,STEAK,Study2,U,158,174,Test,User,-,,Recall,Recall2,318,,0,-1,-1,0,0,,,1
960689,y3gbxg6rwd,Nick_Dissertation_EX1b,1,336,2020-04-17T17:11:31-07:00,1.0855920314789,1,versionA_stim.csv,VC_VersionA.csv,"Version A","Version A",ADJOURN,END,Study2,F,101,99,Test,User,-,,Recall,Recall2,257,,0,-1,-1,0,0,,,1
960689,y3gbxg6rwd,Nick_Dissertation_EX1b,1,337,2020-04-17T17:11:32-07:00,1.3944818973541,1,versionA_stim.csv,VC_VersionA.csv,"Version A","Version A",FLEA,TICK,Study2,S,151,132,Test,User,-,,Recall,Recall2,336,,0,-1,-1,0,0,,,1
960689,y3gbxg6rwd,Nick_Dissertation_EX1b,1,338,2020-04-17T17:11:34-07:00,1.9298529624939,1,versionA_stim.csv,VC_VersionA.csv,"Version A","Version A",CANDLE,WAX,Study2,S,139,146,Test,User,-,,Recall,Recall2,425,,0,-1,-1,0,0,,,1
960689,y3gbxg6rwd,Nick_Dissertation_EX1b,1,339,2020-04-17T17:11:35-07:00,1.314884185791,1,versionA_stim.csv,VC_VersionA.csv,"Version A","Version A",FURRY,DOG,Study2,F,102,148,Test,User,-,,Recall,Recall2,375,,0,-1,-1,0,0,,,1
960689,y3gbxg6rwd,Nick_Dissertation_EX1b,1,340,2020-04-17T17:11:37-07:00,1.350291967392,1,versionA_stim.csv,VC_VersionA.csv,"Version A","Version A",PLANE,AIRCRAFT,Study2,B,129,145,Test,User,-,,Recall,Recall2,322,,0,-1,-1,0,0,,,1
960689,y3gbxg6rwd,Nick_Dissertation_EX1b,1,341,2020-04-17T17:11:38-07:00,1.5093989372253,1,versionA_stim.csv,VC_VersionA.csv,"Version A","Version A",JUSTICE,MAROON,Study2,U,156,152,Test,User,-,,Recall,Recall2,269,,0,-1,-1,0,0,,,1
960689,y3gbxg6rwd,Nick_Dissertation_EX1b,1,342,2020-04-17T17:11:46-07:00,7.4366130828857,1,versionA_stim.csv,VC_VersionA.csv,"Version A","Version A",OWN,HAVE,Study2,S,153,111,Test,User,-,,Recall,Recall2,585,,0,-1,-1,0,0,,,0.667
960689,y3gbxg6rwd,Nick_Dissertation_EX1b,1,343,2020-04-17T17:11:57-07:00,11.755962848663,1,versionA_stim.csv,VC_VersionA.csv,"Version A","Version A",SUN,TAN,Study2,S,155,133,Test,User,-,,Recall,Recall2,2288,,0,-1,-1,0,0,,,0.917
960689,y3gbxg6rwd,Nick_Dissertation_EX1b,1,344,2020-04-17T17:11:59-07:00,1.6255030632019,1,versionA_stim.csv,VC_VersionA.csv,"Version A","Version A",LOUD,NOISE,Study2,S,152,122,Test,User,-,,Recall,Recall2,807,,0,-1,-1,0,0,,,1
960689,y3gbxg6rwd,Nick_Dissertation_EX1b,1,345,2020-04-17T17:12:01-07:00,1.8397510051727,1,versionA_stim.csv,VC_VersionA.csv,"Version A","Version A",INCENSE,SMELL,Study2,F,110,108,Test,User,-,,Recall,Recall2,829,,0,-1,-1,0,0,,,1
960689,y3gbxg6rwd,Nick_Dissertation_EX1b,1,346,2020-04-17T17:12:02-07:00,1.3802320957184,1,versionA_stim.csv,VC_VersionA.csv,"Version A","Version A",SCALP,HEAD,Study2,F,105,149,Test,User,-,,Recall,Recall2,371,,0,-1,-1,0,0,,,1
960689,y3gbxg6rwd,Nick_Dissertation_EX1b,1,347,2020-04-17T17:12:04-07:00,1.5724070072174,1,versionA_stim.csv,VC_VersionA.csv,"Version A","Version A",TURN,FLIP,Study2,B,116,175,Test,User,-,,Recall,Recall2,397,,0,-1,-1,0,0,,,1
960689,y3gbxg6rwd,Nick_Dissertation_EX1b,1,348,2020-04-17T17:12:05-07:00,1.3892409801483,1,versionA_stim.csv,VC_VersionA.csv,"Version A","Version A",ALONE,LONELY,Study2,S,145,119,Test,User,-,,Recall,Recall2,259,,0,-1,-1,0,0,,,1
960689,y3gbxg6rwd,Nick_Dissertation_EX1b,1,349,2020-04-17T17:12:07-07:00,1.2738859653473,1,versionA_stim.csv,VC_VersionA.csv,"Version A","Version A",RAZOR,SHAVE,Study2,S,136,144,Test,User,-,,Recall,Recall2,311,,0,-1,-1,0,0,,,1
960689,y3gbxg6rwd,Nick_Dissertation_EX1b,1,350,2020-04-17T17:12:08-07:00,0.99620795249939,1,versionA_stim.csv,VC_VersionA.csv,"Version A","Version A",GONE,AWAY,Study2,S,142,135,Test,User,-,,Recall,Recall2,378,,0,-1,-1,0,0,,,1
