Username,ID,ExperimentName,Session,Trial,Date,TimeDif,"Condition Number","Stimuli File","Order File","Condition Description","Condition Notes",Stimuli*Cue,Stimuli*Answer,Stimuli*Shuffle,"Stimuli*Stimuli Notes",Stimuli*Value,Procedure*Item,"Procedure*Trial Type","Procedure*Max Time","Procedure*Min Time",Procedure*Text,"Procedure*Procedure Notes",Procedure*Shuffle,Response*RT,Response*Response,Response*Accuracy,Response*RTfirst,Response*RTlast,Response*strictAcc,Response*lenientAcc,Response*focus,Response*JOL,Response*Focus
w10039944_eec,p49viqewix,Nick_Dissertation_EX1,1,1,2020-05-06T11:18:24-07:00,8.8615210056305,6,versionA_stim.csv,JOLVersionB.csv,"JOL Version B","Dissertation, JOL version B",,,,,,0,Instruct,-,5,"In this section, you will be presented with a series of word pairs.",Initial_Instruct,Instruct1,8703,,,-1,-1,,,,,0.818
w10039944_eec,p49viqewix,Nick_Dissertation_EX1,1,2,2020-05-06T11:18:39-07:00,15.333882808685,6,versionA_stim.csv,JOLVersionB.csv,"JOL Version B","Dissertation, JOL version B",,,,,,0,Instruct,-,10,"As you study, you will be asked to rate your ability to remember the second item in the pair if you were only shown the first at test. You will make these ratings using a 0 to 100 Scale.",,Instruct13,15088,,,-1,-1,,,,,0.803
w10039944_eec,p49viqewix,Nick_Dissertation_EX1,1,3,2020-05-06T11:18:50-07:00,11.444128036499,6,versionA_stim.csv,JOLVersionB.csv,"JOL Version B","Dissertation, JOL version B",,,,,,0,Instruct,-,10,"For example, if you are given the pair CAT - DOG, a rating of 0 indicates that you would not remember DOG at test, while a rating of 100 indicates full certainty that you would remember the word DOG at test.",,Instruct14,11218,,,-1,-1,,,,,1
w10039944_eec,p49viqewix,Nick_Dissertation_EX1,1,4,2020-05-06T11:19:03-07:00,12.175163984299,6,versionA_stim.csv,JOLVersionB.csv,"JOL Version B","Dissertation, JOL version B",,,,,,0,Instruct,-,10,"When making your ratings, it is criticial that you use the full range of the scale. You will be disqualified for only giving ratings of 0 or 100! After making your rating, press Enter to advance to the next pair.",,Instruct15,11948,,,-1,-1,,,,,1
w10039944_eec,p49viqewix,Nick_Dissertation_EX1,1,5,2020-05-06T11:19:05-07:00,2.1719441413879,6,versionA_stim.csv,JOLVersionB.csv,"JOL Version B","Dissertation, JOL version B",,,,,,0,Instruct,User,-,"You will now begin the study. Press Enter when you are ready to begin.",,Instruct16,1874,,,-1,-1,,,,,1
w10039944_eec,p49viqewix,Nick_Dissertation_EX1,1,6,2020-05-06T11:19:12-07:00,6.810436964035,6,versionA_stim.csv,JOLVersionB.csv,"JOL Version B","Dissertation, JOL version B",SHRIMP,FISH,BUFFER3,Buffer,93,92,JOL,User,-,"How likely are you to correctly recall the second item in the pair?|Type your response on a scale from 0-100 and then press Enter.",Study/JOL,BUFFER,6578,,,5630,5998,,,,70,1
w10039944_eec,p49viqewix,Nick_Dissertation_EX1,1,7,2020-05-06T11:19:16-07:00,4.0074489116669,6,versionA_stim.csv,JOLVersionB.csv,"JOL Version B","Dissertation, JOL version B",ICE,FROZEN,BUFFER3,Buffer,94,94,JOL,User,-,"How likely are you to correctly recall the second item in the pair?|Type your response on a scale from 0-100 and then press Enter.",Study/JOL,BUFFER,3732,,,2643,3347,,,,40,1
w10039944_eec,p49viqewix,Nick_Dissertation_EX1,1,8,2020-05-06T11:19:19-07:00,3.6329760551453,6,versionA_stim.csv,JOLVersionB.csv,"JOL Version B","Dissertation, JOL version B",CARROT,POTATO,BUFFER3,Buffer,91,93,JOL,User,-,"How likely are you to correctly recall the second item in the pair?|Type your response on a scale from 0-100 and then press Enter.",Study/JOL,BUFFER,3409,,,2553,3018,,,,50,1
w10039944_eec,p49viqewix,Nick_Dissertation_EX1,1,9,2020-05-06T11:19:24-07:00,4.244588136673,6,versionA_stim.csv,JOLVersionB.csv,"JOL Version B","Dissertation, JOL version B",CAMP,ADVENTURE,BUFFER3,Buffer,95,95,JOL,User,-,"How likely are you to correctly recall the second item in the pair?|Type your response on a scale from 0-100 and then press Enter.",Study/JOL,BUFFER,4027,,,3096,3654,,,,30,1
w10039944_eec,p49viqewix,Nick_Dissertation_EX1,1,10,2020-05-06T11:19:27-07:00,3.0208959579468,6,versionA_stim.csv,JOLVersionB.csv,"JOL Version B","Dissertation, JOL version B",NOODLE,STRING,BUFFER3,Buffer,92,96,JOL,User,-,"How likely are you to correctly recall the second item in the pair?|Type your response on a scale from 0-100 and then press Enter.",Study/JOL,BUFFER,2796,,,1813,2428,,,,20,1
w10039944_eec,p49viqewix,Nick_Dissertation_EX1,1,11,2020-05-06T11:19:29-07:00,2.7821989059448,6,versionA_stim.csv,JOLVersionB.csv,"JOL Version B","Dissertation, JOL version B",ROD,REEL,Study2,S,150,100,JOL,User,-,"How likely are you to correctly recall the second item in the pair?|Type your response on a scale from 0-100 and then press Enter.",Study/JOL,"Study Phase",2555,,,1826,2238,,,,60,1
w10039944_eec,p49viqewix,Nick_Dissertation_EX1,1,12,2020-05-06T11:19:32-07:00,2.8625199794769,6,versionA_stim.csv,JOLVersionB.csv,"JOL Version B","Dissertation, JOL version B",SLEEP,NAP,Study2,B,134,153,JOL,User,-,"How likely are you to correctly recall the second item in the pair?|Type your response on a scale from 0-100 and then press Enter.",Study/JOL,"Study Phase",2631,,,1673,2250,,,,30,1
w10039944_eec,p49viqewix,Nick_Dissertation_EX1,1,13,2020-05-06T11:19:36-07:00,3.6252701282501,6,versionA_stim.csv,JOLVersionB.csv,"JOL Version B","Dissertation, JOL version B",BOTH,OUNCE,Study2,U,172,102,JOL,User,-,"How likely are you to correctly recall the second item in the pair?|Type your response on a scale from 0-100 and then press Enter.",Study/JOL,"Study Phase",3388,,,1959,3004,,,,10,1
w10039944_eec,p49viqewix,Nick_Dissertation_EX1,1,14,2020-05-06T11:19:39-07:00,2.8775858879089,6,versionA_stim.csv,JOLVersionB.csv,"JOL Version B","Dissertation, JOL version B",LOUD,NOISE,Study2,S,152,107,JOL,User,-,"How likely are you to correctly recall the second item in the pair?|Type your response on a scale from 0-100 and then press Enter.",Study/JOL,"Study Phase",2645,,,1789,2299,,,,40,1
w10039944_eec,p49viqewix,Nick_Dissertation_EX1,1,15,2020-05-06T11:19:42-07:00,3.7015409469604,6,versionA_stim.csv,JOLVersionB.csv,"JOL Version B","Dissertation, JOL version B",FURRY,DOG,Study2,F,102,118,JOL,User,-,"How likely are you to correctly recall the second item in the pair?|Type your response on a scale from 0-100 and then press Enter.",Study/JOL,"Study Phase",3472,,,2426,3044,,,,70,1
w10039944_eec,p49viqewix,Nick_Dissertation_EX1,1,16,2020-05-06T11:19:47-07:00,4.3818740844727,6,versionA_stim.csv,JOLVersionB.csv,"JOL Version B","Dissertation, JOL version B",INCENSE,SMELL,Study2,F,110,142,JOL,User,-,"How likely are you to correctly recall the second item in the pair?|Type your response on a scale from 0-100 and then press Enter.",Study/JOL,"Study Phase",4154,,,1535,3791,,,,40,1
w10039944_eec,p49viqewix,Nick_Dissertation_EX1,1,17,2020-05-06T11:19:49-07:00,2.6162710189819,6,versionA_stim.csv,JOLVersionB.csv,"JOL Version B","Dissertation, JOL version B",RAZOR,SHAVE,Study2,S,136,163,JOL,User,-,"How likely are you to correctly recall the second item in the pair?|Type your response on a scale from 0-100 and then press Enter.",Study/JOL,"Study Phase",2387,,,1398,1989,,,,20,1
w10039944_eec,p49viqewix,Nick_Dissertation_EX1,1,18,2020-05-06T11:19:52-07:00,2.4173700809479,6,versionA_stim.csv,JOLVersionB.csv,"JOL Version B","Dissertation, JOL version B",GONE,AWAY,Study2,S,142,98,JOL,User,-,"How likely are you to correctly recall the second item in the pair?|Type your response on a scale from 0-100 and then press Enter.",Study/JOL,"Study Phase",2193,,,1214,1858,,,,40,1
w10039944_eec,p49viqewix,Nick_Dissertation_EX1,1,19,2020-05-06T11:19:54-07:00,1.9784557819366,6,versionA_stim.csv,JOLVersionB.csv,"JOL Version B","Dissertation, JOL version B",EARTH,GROUND,Study2,S,144,133,JOL,User,-,"How likely are you to correctly recall the second item in the pair?|Type your response on a scale from 0-100 and then press Enter.",Study/JOL,"Study Phase",1757,,,1028,1408,,,,70,1
w10039944_eec,p49viqewix,Nick_Dissertation_EX1,1,20,2020-05-06T11:19:56-07:00,1.9283130168915,6,versionA_stim.csv,JOLVersionB.csv,"JOL Version B","Dissertation, JOL version B",LISTEN,FICTION,Study2,U,164,149,JOL,User,-,"How likely are you to correctly recall the second item in the pair?|Type your response on a scale from 0-100 and then press Enter.",Study/JOL,"Study Phase",1698,,,809,1294,,,,50,1
w10039944_eec,p49viqewix,Nick_Dissertation_EX1,1,21,2020-05-06T11:19:58-07:00,2.0530631542206,6,versionA_stim.csv,JOLVersionB.csv,"JOL Version B","Dissertation, JOL version B",FLEA,TICK,Study2,S,151,105,JOL,User,-,"How likely are you to correctly recall the second item in the pair?|Type your response on a scale from 0-100 and then press Enter.",Study/JOL,"Study Phase",1834,,,996,1509,,,,40,1
w10039944_eec,p49viqewix,Nick_Dissertation_EX1,1,22,2020-05-06T11:20:01-07:00,3.4975500106812,6,versionA_stim.csv,JOLVersionB.csv,"JOL Version B","Dissertation, JOL version B",NAME,HATE,Study2,U,167,143,JOL,User,-,"How likely are you to correctly recall the second item in the pair?|Type your response on a scale from 0-100 and then press Enter.",Study/JOL,"Study Phase",3274,,,2251,2864,,,,30,1
w10039944_eec,p49viqewix,Nick_Dissertation_EX1,1,23,2020-05-06T11:20:04-07:00,2.4512889385223,6,versionA_stim.csv,JOLVersionB.csv,"JOL Version B","Dissertation, JOL version B",DINE,EAT,Study2,F,111,175,JOL,User,-,"How likely are you to correctly recall the second item in the pair?|Type your response on a scale from 0-100 and then press Enter.",Study/JOL,"Study Phase",2221,,,1199,1809,,,,20,1
w10039944_eec,p49viqewix,Nick_Dissertation_EX1,1,24,2020-05-06T11:20:07-07:00,3.3583390712738,6,versionA_stim.csv,JOLVersionB.csv,"JOL Version B","Dissertation, JOL version B",LEASE,TOIL,Study2,U,170,171,JOL,User,-,"How likely are you to correctly recall the second item in the pair?|Type your response on a scale from 0-100 and then press Enter.",Study/JOL,"Study Phase",3132,,,1638,2789,,,,0,1
w10039944_eec,p49viqewix,Nick_Dissertation_EX1,1,25,2020-05-06T11:20:10-07:00,2.5779099464417,6,versionA_stim.csv,JOLVersionB.csv,"JOL Version B","Dissertation, JOL version B",TANTRUM,TEMPER,Study2,S,154,110,JOL,User,-,"How likely are you to correctly recall the second item in the pair?|Type your response on a scale from 0-100 and then press Enter.",Study/JOL,"Study Phase",2342,,,1567,2026,,,,50,1
w10039944_eec,p49viqewix,Nick_Dissertation_EX1,1,26,2020-05-06T11:20:13-07:00,3.8229820728302,6,versionA_stim.csv,JOLVersionB.csv,"JOL Version B","Dissertation, JOL version B",ALONE,LONELY,Study2,S,145,151,JOL,User,-,"How likely are you to correctly recall the second item in the pair?|Type your response on a scale from 0-100 and then press Enter.",Study/JOL,"Study Phase",3587,,,2578,3250,,,,20,1
w10039944_eec,p49viqewix,Nick_Dissertation_EX1,1,27,2020-05-06T11:20:16-07:00,2.4153687953949,6,versionA_stim.csv,JOLVersionB.csv,"JOL Version B","Dissertation, JOL version B",THREAD,THIMBLE,Study2,B,121,129,JOL,User,-,"How likely are you to correctly recall the second item in the pair?|Type your response on a scale from 0-100 and then press Enter.",Study/JOL,"Study Phase",2193,,,1245,1826,,,,30,1
w10039944_eec,p49viqewix,Nick_Dissertation_EX1,1,28,2020-05-06T11:20:19-07:00,3.4808061122894,6,versionA_stim.csv,JOLVersionB.csv,"JOL Version B","Dissertation, JOL version B",CANDLE,WAX,Study2,S,139,150,JOL,User,-,"How likely are you to correctly recall the second item in the pair?|Type your response on a scale from 0-100 and then press Enter.",Study/JOL,"Study Phase",2258,,,1378,1837,,,,60,1
w10039944_eec,p49viqewix,Nick_Dissertation_EX1,1,29,2020-05-06T11:20:24-07:00,4.5144889354706,6,versionA_stim.csv,JOLVersionB.csv,"JOL Version B","Dissertation, JOL version B",SHOELACE,TIE,Study2,F,99,152,JOL,User,-,"How likely are you to correctly recall the second item in the pair?|Type your response on a scale from 0-100 and then press Enter.",Study/JOL,"Study Phase",4292,,,3274,3939,,,,20,1
w10039944_eec,p49viqewix,Nick_Dissertation_EX1,1,30,2020-05-06T11:20:26-07:00,2.1912190914154,6,versionA_stim.csv,JOLVersionB.csv,"JOL Version B","Dissertation, JOL version B",AFFECTION,LOVE,Study2,F,115,137,JOL,User,-,"How likely are you to correctly recall the second item in the pair?|Type your response on a scale from 0-100 and then press Enter.",Study/JOL,"Study Phase",1971,,,1104,1623,,,,40,1
w10039944_eec,p49viqewix,Nick_Dissertation_EX1,1,31,2020-05-06T11:20:29-07:00,3.1252748966217,6,versionA_stim.csv,JOLVersionB.csv,"JOL Version B","Dissertation, JOL version B",FUZZY,BANG,Study2,U,168,99,JOL,User,-,"How likely are you to correctly recall the second item in the pair?|Type your response on a scale from 0-100 and then press Enter.",Study/JOL,"Study Phase",2889,,,2545,2545,,,,0,1
w10039944_eec,p49viqewix,Nick_Dissertation_EX1,1,32,2020-05-06T11:20:32-07:00,2.9533531665802,6,versionA_stim.csv,JOLVersionB.csv,"JOL Version B","Dissertation, JOL version B",PHONE,COMMUNICATION,Study2,S,149,161,JOL,User,-,"How likely are you to correctly recall the second item in the pair?|Type your response on a scale from 0-100 and then press Enter.",Study/JOL,"Study Phase",2740,,,2393,2393,,,,0,1
w10039944_eec,p49viqewix,Nick_Dissertation_EX1,1,33,2020-05-06T11:20:35-07:00,3.2723298072815,6,versionA_stim.csv,JOLVersionB.csv,"JOL Version B","Dissertation, JOL version B",CHILL,COLD,Study2,F,114,112,JOL,User,-,"How likely are you to correctly recall the second item in the pair?|Type your response on a scale from 0-100 and then press Enter.",Study/JOL,"Study Phase",2041,,,1116,1658,,,,30,1
w10039944_eec,p49viqewix,Nick_Dissertation_EX1,1,34,2020-05-06T11:20:38-07:00,2.1711301803589,6,versionA_stim.csv,JOLVersionB.csv,"JOL Version B","Dissertation, JOL version B",CHERRY,RED,Study2,F,104,155,JOL,User,-,"How likely are you to correctly recall the second item in the pair?|Type your response on a scale from 0-100 and then press Enter.",Study/JOL,"Study Phase",1928,,,1062,1579,,,,40,1
w10039944_eec,p49viqewix,Nick_Dissertation_EX1,1,35,2020-05-06T11:20:40-07:00,2.5763258934021,6,versionA_stim.csv,JOLVersionB.csv,"JOL Version B","Dissertation, JOL version B",KEYS,JOKE,Study2,U,165,117,JOL,User,-,"How likely are you to correctly recall the second item in the pair?|Type your response on a scale from 0-100 and then press Enter.",Study/JOL,"Study Phase",2327,,,1396,1887,,,,50,1
w10039944_eec,p49viqewix,Nick_Dissertation_EX1,1,36,2020-05-06T11:20:44-07:00,3.3754839897156,6,versionA_stim.csv,JOLVersionB.csv,"JOL Version B","Dissertation, JOL version B",WRIST,BRACELET,Study2,S,140,111,JOL,User,-,"How likely are you to correctly recall the second item in the pair?|Type your response on a scale from 0-100 and then press Enter.",Study/JOL,"Study Phase",2163,,,1212,1832,,,,20,1
w10039944_eec,p49viqewix,Nick_Dissertation_EX1,1,37,2020-05-06T11:20:47-07:00,3.2335910797119,6,versionA_stim.csv,JOLVersionB.csv,"JOL Version B","Dissertation, JOL version B",GLASS,BREAKABLE,Study2,B,127,104,JOL,User,-,"How likely are you to correctly recall the second item in the pair?|Type your response on a scale from 0-100 and then press Enter.",Study/JOL,"Study Phase",2981,,,2305,2638,,,,70,1
w10039944_eec,p49viqewix,Nick_Dissertation_EX1,1,38,2020-05-06T11:20:49-07:00,1.9100539684296,6,versionA_stim.csv,JOLVersionB.csv,"JOL Version B","Dissertation, JOL version B",STAR,ACTRESS,Study2,B,120,170,JOL,User,-,"How likely are you to correctly recall the second item in the pair?|Type your response on a scale from 0-100 and then press Enter.",Study/JOL,"Study Phase",1662,,,850,1318,,,,50,1
w10039944_eec,p49viqewix,Nick_Dissertation_EX1,1,39,2020-05-06T11:20:53-07:00,4.3912539482117,6,versionA_stim.csv,JOLVersionB.csv,"JOL Version B","Dissertation, JOL version B",MULE,DONKEY,Study2,F,108,157,JOL,User,-,"How likely are you to correctly recall the second item in the pair?|Type your response on a scale from 0-100 and then press Enter.",Study/JOL,"Study Phase",4145,,,3660,3852,,,,40,1
w10039944_eec,p49viqewix,Nick_Dissertation_EX1,1,40,2020-05-06T11:20:55-07:00,1.8291311264038,6,versionA_stim.csv,JOLVersionB.csv,"JOL Version B","Dissertation, JOL version B",EVEN,REVENGE,Study2,B,122,114,JOL,User,-,"How likely are you to correctly recall the second item in the pair?|Type your response on a scale from 0-100 and then press Enter.",Study/JOL,"Study Phase",1605,,,1225,1401,,,,20,1
w10039944_eec,p49viqewix,Nick_Dissertation_EX1,1,41,2020-05-06T11:20:57-07:00,2.5513927936554,6,versionA_stim.csv,JOLVersionB.csv,"JOL Version B","Dissertation, JOL version B",LITTER,TRASH,Study2,F,103,156,JOL,User,-,"How likely are you to correctly recall the second item in the pair?|Type your response on a scale from 0-100 and then press Enter.",Study/JOL,"Study Phase",2309,,,1941,2107,,,,30,1
w10039944_eec,p49viqewix,Nick_Dissertation_EX1,1,42,2020-05-06T11:21:01-07:00,3.7885010242462,6,versionA_stim.csv,JOLVersionB.csv,"JOL Version B","Dissertation, JOL version B",MAZE,ELECTION,Study2,U,159,166,JOL,User,-,"How likely are you to correctly recall the second item in the pair?|Type your response on a scale from 0-100 and then press Enter.",Study/JOL,"Study Phase",3553,,,2561,2561,,,,0,1
w10039944_eec,p49viqewix,Nick_Dissertation_EX1,1,43,2020-05-06T11:21:03-07:00,1.6918411254883,6,versionA_stim.csv,JOLVersionB.csv,"JOL Version B","Dissertation, JOL version B",DRY,WET,Study2,S,146,121,JOL,User,-,"How likely are you to correctly recall the second item in the pair?|Type your response on a scale from 0-100 and then press Enter.",Study/JOL,"Study Phase",1452,,,1094,1233,,,,20,1
w10039944_eec,p49viqewix,Nick_Dissertation_EX1,1,44,2020-05-06T11:21:05-07:00,2.2631340026855,6,versionA_stim.csv,JOLVersionB.csv,"JOL Version B","Dissertation, JOL version B",DOCUMENT,PAPER,Study2,F,109,168,JOL,User,-,"How likely are you to correctly recall the second item in the pair?|Type your response on a scale from 0-100 and then press Enter.",Study/JOL,"Study Phase",2040,,,1698,1836,,,,40,1
w10039944_eec,p49viqewix,Nick_Dissertation_EX1,1,45,2020-05-06T11:21:09-07:00,3.4879319667816,6,versionA_stim.csv,JOLVersionB.csv,"JOL Version B","Dissertation, JOL version B",DETECTIVE,MYSTERY,Study2,F,100,122,JOL,User,-,"How likely are you to correctly recall the second item in the pair?|Type your response on a scale from 0-100 and then press Enter.",Study/JOL,"Study Phase",3249,,,2813,2971,,,,90,1
w10039944_eec,p49viqewix,Nick_Dissertation_EX1,1,46,2020-05-06T11:21:11-07:00,2.0817880630493,6,versionA_stim.csv,JOLVersionB.csv,"JOL Version B","Dissertation, JOL version B",DEAD,COFFIN,Study2,B,128,144,JOL,User,-,"How likely are you to correctly recall the second item in the pair?|Type your response on a scale from 0-100 and then press Enter.",Study/JOL,"Study Phase",1868,,,1168,1565,,,,80,1
w10039944_eec,p49viqewix,Nick_Dissertation_EX1,1,47,2020-05-06T11:21:14-07:00,3.1657600402832,6,versionA_stim.csv,JOLVersionB.csv,"JOL Version B","Dissertation, JOL version B",CAKE,CLOTHES,Study2,U,166,125,JOL,User,-,"How likely are you to correctly recall the second item in the pair?|Type your response on a scale from 0-100 and then press Enter.",Study/JOL,"Study Phase",2933,,,1244,2736,,,,0,1
w10039944_eec,p49viqewix,Nick_Dissertation_EX1,1,48,2020-05-06T11:21:17-07:00,3.2804889678955,6,versionA_stim.csv,JOLVersionB.csv,"JOL Version B","Dissertation, JOL version B",CAT,PANTHER,Study2,B,126,176,JOL,User,-,"How likely are you to correctly recall the second item in the pair?|Type your response on a scale from 0-100 and then press Enter.",Study/JOL,"Study Phase",3058,,,2673,2816,,,,30,1
w10039944_eec,p49viqewix,Nick_Dissertation_EX1,1,49,2020-05-06T11:21:20-07:00,2.2946929931641,6,versionA_stim.csv,JOLVersionB.csv,"JOL Version B","Dissertation, JOL version B",MONEY,BANKER,Study2,B,132,113,JOL,User,-,"How likely are you to correctly recall the second item in the pair?|Type your response on a scale from 0-100 and then press Enter.",Study/JOL,"Study Phase",2058,,,1615,1801,,,,20,1
w10039944_eec,p49viqewix,Nick_Dissertation_EX1,1,50,2020-05-06T11:21:21-07:00,1.718936920166,6,versionA_stim.csv,JOLVersionB.csv,"JOL Version B","Dissertation, JOL version B",BIRD,PENGUIN,Study2,B,119,127,JOL,User,-,"How likely are you to correctly recall the second item in the pair?|Type your response on a scale from 0-100 and then press Enter.",Study/JOL,"Study Phase",1493,,,1071,1229,,,,50,1
w10039944_eec,p49viqewix,Nick_Dissertation_EX1,1,51,2020-05-06T11:21:23-07:00,2.0082380771637,6,versionA_stim.csv,JOLVersionB.csv,"JOL Version B","Dissertation, JOL version B",ELEMENT,CARBON,Study2,S,141,138,JOL,User,-,"How likely are you to correctly recall the second item in the pair?|Type your response on a scale from 0-100 and then press Enter.",Study/JOL,"Study Phase",1782,,,1577,1577,,,,0,1
w10039944_eec,p49viqewix,Nick_Dissertation_EX1,1,52,2020-05-06T11:21:26-07:00,3.020045042038,6,versionA_stim.csv,JOLVersionB.csv,"JOL Version B","Dissertation, JOL version B",JUSTICE,MAROON,Study2,U,156,140,JOL,User,-,"How likely are you to correctly recall the second item in the pair?|Type your response on a scale from 0-100 and then press Enter.",Study/JOL,"Study Phase",2773,,,2518,2518,,,,0,1
w10039944_eec,p49viqewix,Nick_Dissertation_EX1,1,53,2020-05-06T11:21:29-07:00,2.596846818924,6,versionA_stim.csv,JOLVersionB.csv,"JOL Version B","Dissertation, JOL version B",TEMPERATURE,Morning,Study2,U,173,160,JOL,User,-,"How likely are you to correctly recall the second item in the pair?|Type your response on a scale from 0-100 and then press Enter.",Study/JOL,"Study Phase",2328,,,1945,2100,,,,20,1
w10039944_eec,p49viqewix,Nick_Dissertation_EX1,1,54,2020-05-06T11:21:31-07:00,1.9868769645691,6,versionA_stim.csv,JOLVersionB.csv,"JOL Version B","Dissertation, JOL version B",FIGHT,BRAWL,Study2,B,135,130,JOL,User,-,"How likely are you to correctly recall the second item in the pair?|Type your response on a scale from 0-100 and then press Enter.",Study/JOL,"Study Phase",1756,,,1349,1508,,,,50,1
w10039944_eec,p49viqewix,Nick_Dissertation_EX1,1,55,2020-05-06T11:21:32-07:00,1.5558140277863,6,versionA_stim.csv,JOLVersionB.csv,"JOL Version B","Dissertation, JOL version B",MAIN,SCAR,Study2,U,175,132,JOL,User,-,"How likely are you to correctly recall the second item in the pair?|Type your response on a scale from 0-100 and then press Enter.",Study/JOL,"Study Phase",1322,,,952,1112,,,,30,1
w10039944_eec,p49viqewix,Nick_Dissertation_EX1,1,56,2020-05-06T11:21:35-07:00,2.6178650856018,6,versionA_stim.csv,JOLVersionB.csv,"JOL Version B","Dissertation, JOL version B",BAD,VILLAIN,Study2,B,118,119,JOL,User,-,"How likely are you to correctly recall the second item in the pair?|Type your response on a scale from 0-100 and then press Enter.",Study/JOL,"Study Phase",2372,,,1997,2136,,,,50,1
w10039944_eec,p49viqewix,Nick_Dissertation_EX1,1,57,2020-05-06T11:21:37-07:00,2.4422791004181,6,versionA_stim.csv,JOLVersionB.csv,"JOL Version B","Dissertation, JOL version B",LOAN,SIGN,Study2,U,171,154,JOL,User,-,"How likely are you to correctly recall the second item in the pair?|Type your response on a scale from 0-100 and then press Enter.",Study/JOL,"Study Phase",2201,,,2004,2004,,,,0,1
w10039944_eec,p49viqewix,Nick_Dissertation_EX1,1,58,2020-05-06T11:21:40-07:00,2.2886319160461,6,versionA_stim.csv,JOLVersionB.csv,"JOL Version B","Dissertation, JOL version B",SAFETY,SEATBELT,Study2,S,147,141,JOL,User,-,"How likely are you to correctly recall the second item in the pair?|Type your response on a scale from 0-100 and then press Enter.",Study/JOL,"Study Phase",2052,,,1661,1826,,,,90,1
w10039944_eec,p49viqewix,Nick_Dissertation_EX1,1,59,2020-05-06T11:21:46-07:00,5.919823884964,6,versionA_stim.csv,JOLVersionB.csv,"JOL Version B","Dissertation, JOL version B",ADJOURN,END,Study2,F,101,109,JOL,User,-,"How likely are you to correctly recall the second item in the pair?|Type your response on a scale from 0-100 and then press Enter.",Study/JOL,"Study Phase",5693,,,5167,5290,,,,70,1
w10039944_eec,p49viqewix,Nick_Dissertation_EX1,1,60,2020-05-06T11:21:47-07:00,1.5577280521393,6,versionA_stim.csv,JOLVersionB.csv,"JOL Version B","Dissertation, JOL version B",DRIVER,CAR,Study2,F,106,135,JOL,User,-,"How likely are you to correctly recall the second item in the pair?|Type your response on a scale from 0-100 and then press Enter.",Study/JOL,"Study Phase",1316,,,984,1120,,,,30,1
w10039944_eec,p49viqewix,Nick_Dissertation_EX1,1,61,2020-05-06T11:21:50-07:00,2.370197057724,6,versionA_stim.csv,JOLVersionB.csv,"JOL Version B","Dissertation, JOL version B",SUN,TAN,Study2,S,155,172,JOL,User,-,"How likely are you to correctly recall the second item in the pair?|Type your response on a scale from 0-100 and then press Enter.",Study/JOL,"Study Phase",2120,,,1738,1866,,,,80,1
w10039944_eec,p49viqewix,Nick_Dissertation_EX1,1,62,2020-05-06T11:21:53-07:00,2.9194049835205,6,versionA_stim.csv,JOLVersionB.csv,"JOL Version B","Dissertation, JOL version B",MASON,JAR,Study2,S,138,173,JOL,User,-,"How likely are you to correctly recall the second item in the pair?|Type your response on a scale from 0-100 and then press Enter.",Study/JOL,"Study Phase",2688,,,2345,2458,,,,30,1
w10039944_eec,p49viqewix,Nick_Dissertation_EX1,1,63,2020-05-06T11:21:58-07:00,5.7421450614929,6,versionA_stim.csv,JOLVersionB.csv,"JOL Version B","Dissertation, JOL version B",VEHICLE,CHARM,Study2,U,160,169,JOL,User,-,"How likely are you to correctly recall the second item in the pair?|Type your response on a scale from 0-100 and then press Enter.",Study/JOL,"Study Phase",5496,,,3858,5300,,,,0,0.786
w10039944_eec,p49viqewix,Nick_Dissertation_EX1,1,64,2020-05-06T11:22:01-07:00,2.6368889808655,6,versionA_stim.csv,JOLVersionB.csv,"JOL Version B","Dissertation, JOL version B",MIRROR,CHILDREN,Study2,U,174,103,JOL,User,-,"How likely are you to correctly recall the second item in the pair?|Type your response on a scale from 0-100 and then press Enter.",Study/JOL,"Study Phase",2394,,,2186,2186,,,,0,1
w10039944_eec,p49viqewix,Nick_Dissertation_EX1,1,65,2020-05-06T11:22:03-07:00,2.4204540252686,6,versionA_stim.csv,JOLVersionB.csv,"JOL Version B","Dissertation, JOL version B",CACTUS,PLANT,Study2,F,98,123,JOL,User,-,"How likely are you to correctly recall the second item in the pair?|Type your response on a scale from 0-100 and then press Enter.",Study/JOL,"Study Phase",2187,,,1804,1954,,,,30,1
w10039944_eec,p49viqewix,Nick_Dissertation_EX1,1,66,2020-05-06T11:22:06-07:00,2.7288298606873,6,versionA_stim.csv,JOLVersionB.csv,"JOL Version B","Dissertation, JOL version B",BEST,FAVORITE,Study2,B,125,158,JOL,User,-,"How likely are you to correctly recall the second item in the pair?|Type your response on a scale from 0-100 and then press Enter.",Study/JOL,"Study Phase",2485,,,2113,2289,,,,50,1
w10039944_eec,p49viqewix,Nick_Dissertation_EX1,1,67,2020-05-06T11:22:09-07:00,2.5909459590912,6,versionA_stim.csv,JOLVersionB.csv,"JOL Version B","Dissertation, JOL version B",MOAT,CLEAR,Study2,U,169,147,JOL,User,-,"How likely are you to correctly recall the second item in the pair?|Type your response on a scale from 0-100 and then press Enter.",Study/JOL,"Study Phase",2362,,,1178,2125,,,,0,1
w10039944_eec,p49viqewix,Nick_Dissertation_EX1,1,68,2020-05-06T11:22:12-07:00,2.959869146347,6,versionA_stim.csv,JOLVersionB.csv,"JOL Version B","Dissertation, JOL version B",SCALP,HEAD,Study2,F,105,136,JOL,User,-,"How likely are you to correctly recall the second item in the pair?|Type your response on a scale from 0-100 and then press Enter.",Study/JOL,"Study Phase",2721,,,2302,2420,,,,60,1
w10039944_eec,p49viqewix,Nick_Dissertation_EX1,1,69,2020-05-06T11:22:17-07:00,5.0777609348297,6,versionA_stim.csv,JOLVersionB.csv,"JOL Version B","Dissertation, JOL version B",TRUTH,LIE,Study2,S,148,115,JOL,User,-,"How likely are you to correctly recall the second item in the pair?|Type your response on a scale from 0-100 and then press Enter.",Study/JOL,"Study Phase",3841,,,1391,3594,,,,50,1
w10039944_eec,p49viqewix,Nick_Dissertation_EX1,1,70,2020-05-06T11:22:23-07:00,5.9454350471497,6,versionA_stim.csv,JOLVersionB.csv,"JOL Version B","Dissertation, JOL version B",CRACKLE,ABLE,Study2,U,162,106,JOL,User,-,"How likely are you to correctly recall the second item in the pair?|Type your response on a scale from 0-100 and then press Enter.",Study/JOL,"Study Phase",5700,,,5226,5226,,,,0,1
w10039944_eec,p49viqewix,Nick_Dissertation_EX1,1,71,2020-05-06T11:22:24-07:00,1.8796539306641,6,versionA_stim.csv,JOLVersionB.csv,"JOL Version B","Dissertation, JOL version B",TURN,FLIP,Study2,B,116,148,JOL,User,-,"How likely are you to correctly recall the second item in the pair?|Type your response on a scale from 0-100 and then press Enter.",Study/JOL,"Study Phase",1649,,,1266,1359,,,,30,1
w10039944_eec,p49viqewix,Nick_Dissertation_EX1,1,72,2020-05-06T11:22:28-07:00,3.0280289649963,6,versionA_stim.csv,JOLVersionB.csv,"JOL Version B","Dissertation, JOL version B",CLUE,GAME,Study2,F,97,108,JOL,User,-,"How likely are you to correctly recall the second item in the pair?|Type your response on a scale from 0-100 and then press Enter.",Study/JOL,"Study Phase",2792,,,2298,2478,,,,40,1
w10039944_eec,p49viqewix,Nick_Dissertation_EX1,1,73,2020-05-06T11:22:30-07:00,2.4025480747223,6,versionA_stim.csv,JOLVersionB.csv,"JOL Version B","Dissertation, JOL version B",MEAT,OBTAIN,Study2,U,161,145,JOL,User,-,"How likely are you to correctly recall the second item in the pair?|Type your response on a scale from 0-100 and then press Enter.",Study/JOL,"Study Phase",2151,,,1528,1528,,,,0,1
w10039944_eec,p49viqewix,Nick_Dissertation_EX1,1,74,2020-05-06T11:22:35-07:00,5.1105000972748,6,versionA_stim.csv,JOLVersionB.csv,"JOL Version B","Dissertation, JOL version B",FRUIT,STRAWBERRY,Study2,B,124,146,JOL,User,-,"How likely are you to correctly recall the second item in the pair?|Type your response on a scale from 0-100 and then press Enter.",Study/JOL,"Study Phase",4878,,,4357,4640,,,,80,1
w10039944_eec,p49viqewix,Nick_Dissertation_EX1,1,75,2020-05-06T11:22:43-07:00,8.0104529857635,6,versionA_stim.csv,JOLVersionB.csv,"JOL Version B","Dissertation, JOL version B",BASEBALL,LEAGUE,Study2,B,131,120,JOL,User,-,"How likely are you to correctly recall the second item in the pair?|Type your response on a scale from 0-100 and then press Enter.",Study/JOL,"Study Phase",7748,,,7348,7508,,,,40,0.641
w10039944_eec,p49viqewix,Nick_Dissertation_EX1,1,76,2020-05-06T11:22:45-07:00,2.0797719955444,6,versionA_stim.csv,JOLVersionB.csv,"JOL Version B","Dissertation, JOL version B",WATER,DRINK,Study2,S,143,124,JOL,User,-,"How likely are you to correctly recall the second item in the pair?|Type your response on a scale from 0-100 and then press Enter.",Study/JOL,"Study Phase",1856,,,1538,1653,,,,80,1
w10039944_eec,p49viqewix,Nick_Dissertation_EX1,1,77,2020-05-06T11:22:49-07:00,3.5939838886261,6,versionA_stim.csv,JOLVersionB.csv,"JOL Version B","Dissertation, JOL version B",FEUD,FIGHT,Study2,F,113,134,JOL,User,-,"How likely are you to correctly recall the second item in the pair?|Type your response on a scale from 0-100 and then press Enter.",Study/JOL,"Study Phase",3364,,,3053,3151,,,,40,1
w10039944_eec,p49viqewix,Nick_Dissertation_EX1,1,78,2020-05-06T11:22:53-07:00,4.1441841125488,6,versionA_stim.csv,JOLVersionB.csv,"JOL Version B","Dissertation, JOL version B",SHEARS,SCISSORS,Study2,F,112,164,JOL,User,-,"How likely are you to correctly recall the second item in the pair?|Type your response on a scale from 0-100 and then press Enter.",Study/JOL,"Study Phase",3904,,,2747,2871,,,,20,1
w10039944_eec,p49viqewix,Nick_Dissertation_EX1,1,79,2020-05-06T11:22:55-07:00,2.0710518360138,6,versionA_stim.csv,JOLVersionB.csv,"JOL Version B","Dissertation, JOL version B",EXTENSION,LONG,Study2,F,96,131,JOL,User,-,"How likely are you to correctly recall the second item in the pair?|Type your response on a scale from 0-100 and then press Enter.",Study/JOL,"Study Phase",1823,,,1419,1567,,,,30,1
w10039944_eec,p49viqewix,Nick_Dissertation_EX1,1,80,2020-05-06T11:22:57-07:00,2.2665650844574,6,versionA_stim.csv,JOLVersionB.csv,"JOL Version B","Dissertation, JOL version B",POP,BALLOON,Study2,B,123,139,JOL,User,-,"How likely are you to correctly recall the second item in the pair?|Type your response on a scale from 0-100 and then press Enter.",Study/JOL,"Study Phase",2028,,,1642,1824,,,,50,1
w10039944_eec,p49viqewix,Nick_Dissertation_EX1,1,81,2020-05-06T11:23:02-07:00,4.9963710308075,6,versionA_stim.csv,JOLVersionB.csv,"JOL Version B","Dissertation, JOL version B",CAR,WINDSHIELD,Study2,B,117,159,JOL,User,-,"How likely are you to correctly recall the second item in the pair?|Type your response on a scale from 0-100 and then press Enter.",Study/JOL,"Study Phase",3750,,,3376,3547,,,,60,1
w10039944_eec,p49viqewix,Nick_Dissertation_EX1,1,82,2020-05-06T11:23:04-07:00,1.7574620246887,6,versionA_stim.csv,JOLVersionB.csv,"JOL Version B","Dissertation, JOL version B",OWN,HAVE,Study2,S,153,174,JOL,User,-,"How likely are you to correctly recall the second item in the pair?|Type your response on a scale from 0-100 and then press Enter.",Study/JOL,"Study Phase",1445,,,1173,1173,,,,0,1
w10039944_eec,p49viqewix,Nick_Dissertation_EX1,1,83,2020-05-06T11:23:10-07:00,6.4618220329285,6,versionA_stim.csv,JOLVersionB.csv,"JOL Version B","Dissertation, JOL version B",GIVE,STEAK,Study2,U,158,97,JOL,User,-,"How likely are you to correctly recall the second item in the pair?|Type your response on a scale from 0-100 and then press Enter.",Study/JOL,"Study Phase",6213,,,5540,5703,,,,50,1
w10039944_eec,p49viqewix,Nick_Dissertation_EX1,1,84,2020-05-06T11:23:13-07:00,2.464026927948,6,versionA_stim.csv,JOLVersionB.csv,"JOL Version B","Dissertation, JOL version B",STRETCH,CLOTH,Study2,U,157,126,JOL,User,-,"How likely are you to correctly recall the second item in the pair?|Type your response on a scale from 0-100 and then press Enter.",Study/JOL,"Study Phase",2233,,,1854,2019,,,,30,1
w10039944_eec,p49viqewix,Nick_Dissertation_EX1,1,85,2020-05-06T11:23:16-07:00,3.4280920028687,6,versionA_stim.csv,JOLVersionB.csv,"JOL Version B","Dissertation, JOL version B",Shell,SHAKE,Study2,U,163,165,JOL,User,-,"How likely are you to correctly recall the second item in the pair?|Type your response on a scale from 0-100 and then press Enter.",Study/JOL,"Study Phase",3200,,,2961,2962,,,,0,1
w10039944_eec,p49viqewix,Nick_Dissertation_EX1,1,86,2020-05-06T11:23:19-07:00,2.9992659091949,6,versionA_stim.csv,JOLVersionB.csv,"JOL Version B","Dissertation, JOL version B",HONEST,TRUTHFUL,Study2,B,133,162,JOL,User,-,"How likely are you to correctly recall the second item in the pair?|Type your response on a scale from 0-100 and then press Enter.",Study/JOL,"Study Phase",2754,,,2223,2501,,,,80,1
w10039944_eec,p49viqewix,Nick_Dissertation_EX1,1,87,2020-05-06T11:23:22-07:00,2.6099240779877,6,versionA_stim.csv,JOLVersionB.csv,"JOL Version B","Dissertation, JOL version B",PLANE,AIRCRAFT,Study2,B,129,116,JOL,User,-,"How likely are you to correctly recall the second item in the pair?|Type your response on a scale from 0-100 and then press Enter.",Study/JOL,"Study Phase",2370,,,1734,2125,,,,50,1
w10039944_eec,p49viqewix,Nick_Dissertation_EX1,1,88,2020-05-06T11:23:26-07:00,4.0209670066833,6,versionA_stim.csv,JOLVersionB.csv,"JOL Version B","Dissertation, JOL version B",FISH,SARDINE,Study2,B,130,101,JOL,User,-,"How likely are you to correctly recall the second item in the pair?|Type your response on a scale from 0-100 and then press Enter.",Study/JOL,"Study Phase",3776,,,3454,3454,,,,0,1
w10039944_eec,p49viqewix,Nick_Dissertation_EX1,1,89,2020-05-06T11:23:29-07:00,2.613245010376,6,versionA_stim.csv,JOLVersionB.csv,"JOL Version B","Dissertation, JOL version B",CHOP,CUT,Study2,F,107,128,JOL,User,-,"How likely are you to correctly recall the second item in the pair?|Type your response on a scale from 0-100 and then press Enter.",Study/JOL,"Study Phase",2365,,,2022,2128,,,,40,1
w10039944_eec,p49viqewix,Nick_Dissertation_EX1,1,90,2020-05-06T11:23:30-07:00,1.7119600772858,6,versionA_stim.csv,JOLVersionB.csv,"JOL Version B","Dissertation, JOL version B",RIGHTS,EQUAL,Study2,S,137,167,JOL,User,-,"How likely are you to correctly recall the second item in the pair?|Type your response on a scale from 0-100 and then press Enter.",Study/JOL,"Study Phase",1470,,,1082,1231,,,,20,1
w10039944_eec,p49viqewix,Nick_Dissertation_EX1,1,91,2020-05-06T11:23:32-07:00,1.9998788833618,6,versionA_stim.csv,JOLVersionB.csv,"JOL Version B","Dissertation, JOL version B",SPRING,MARCH,BUFFER4,Buffer,179,181,JOL,User,-,"How likely are you to correctly recall the second item in the pair?|Type your response on a scale from 0-100 and then press Enter.",Study/JOL,BUFFER2,1755,,,1100,1270,,,,50,1
w10039944_eec,p49viqewix,Nick_Dissertation_EX1,1,92,2020-05-06T11:23:35-07:00,2.9227719306946,6,versionA_stim.csv,JOLVersionB.csv,"JOL Version B","Dissertation, JOL version B",MONTH,YEAR,BUFFER4,Buffer,177,177,JOL,User,-,"How likely are you to correctly recall the second item in the pair?|Type your response on a scale from 0-100 and then press Enter.",Study/JOL,BUFFER2,2689,,,2058,2471,,,,70,1
w10039944_eec,p49viqewix,Nick_Dissertation_EX1,1,93,2020-05-06T11:23:38-07:00,2.8115401268005,6,versionA_stim.csv,JOLVersionB.csv,"JOL Version B","Dissertation, JOL version B",DAYS,WEAKS,BUFFER4,Buffer,176,178,JOL,User,-,"How likely are you to correctly recall the second item in the pair?|Type your response on a scale from 0-100 and then press Enter.",Study/JOL,BUFFER2,2568,,,2220,2220,,,,0,1
w10039944_eec,p49viqewix,Nick_Dissertation_EX1,1,94,2020-05-06T11:23:42-07:00,3.6010448932648,6,versionA_stim.csv,JOLVersionB.csv,"JOL Version B","Dissertation, JOL version B",OCTOBER,SPOOKY,BUFFER4,Buffer,180,180,JOL,User,-,"How likely are you to correctly recall the second item in the pair?|Type your response on a scale from 0-100 and then press Enter.",Study/JOL,BUFFER2,3341,,,2789,2909,,,,60,1
w10039944_eec,p49viqewix,Nick_Dissertation_EX1,1,95,2020-05-06T11:23:43-07:00,1.827269077301,6,versionA_stim.csv,JOLVersionB.csv,"JOL Version B","Dissertation, JOL version B",TOOL,SHED,BUFFER4,Buffer,178,179,JOL,User,-,"How likely are you to correctly recall the second item in the pair?|Type your response on a scale from 0-100 and then press Enter.",Study/JOL,BUFFER2,1497,,,1142,1290,,,,30,1
w10039944_eec,p49viqewix,Nick_Dissertation_EX1,1,96,2020-05-06T11:23:46-07:00,2.1064898967743,6,versionA_stim.csv,JOLVersionB.csv,"JOL Version B","Dissertation, JOL version B",,,,,,0,Instruct,User,-,"You have completed this section. Please press Enter.",Filler_Instruction,Instruct2,1851,,,-1,-1,,,,,1
w10039944_eec,p49viqewix,Nick_Dissertation_EX1,1,97,2020-05-06T11:25:46-07:00,120.26161718369,6,versionA_stim.csv,JOLVersionB.csv,"JOL Version B","Dissertation, JOL version B",,,,,,0,FreeRecall,120,120,"Please list the 50 US states in alphabetical order. The task will automatically advance to the next screen after two minutes.",,Filler1,120003,"alabama alaska arizona arkanas california colorado connecticut delaware georgis florida hawaii idaho illinois indiana iowa kansas kentucky louisiana maine maryland massachusetts michigan minnesota mississippi missouri montana nebraska nevade new jersey new hampsire new mexico new york north carolina north dakata ohio oklahoma oregon pennsylvanis rhode island south carolina south dakota tennes",0,8193,119895,0,0,,,0.98
w10039944_eec,p49viqewix,Nick_Dissertation_EX1,1,98,2020-05-06T11:25:59-07:00,12.954300880432,6,versionA_stim.csv,JOLVersionB.csv,"JOL Version B","Dissertation, JOL version B",,,,,,0,Instruct,-,10,"You will now be presented with the first word from each of the previously studied item pairs. Please type the missing word. If you do not know the word, you may guess or press Enter to skip forward to the next pair.",,Instruct3,11720,,,-1,-1,,,,,1
w10039944_eec,p49viqewix,Nick_Dissertation_EX1,1,99,2020-05-06T11:26:01-07:00,2.3811841011047,6,versionA_stim.csv,JOLVersionB.csv,"JOL Version B","Dissertation, JOL version B",SHOELACE,TIE,Study2,F,99,152,Test,User,-,,Recall,Recall1,2093,tie,100,1541,1960,1,1,,,1
w10039944_eec,p49viqewix,Nick_Dissertation_EX1,1,100,2020-05-06T11:26:04-07:00,3.2973639965057,6,versionA_stim.csv,JOLVersionB.csv,"JOL Version B","Dissertation, JOL version B",LEASE,TOIL,Study2,U,170,171,Test,User,-,,Recall,Recall1,3029,money,22.222222222222,2140,2910,0,0,,,1
w10039944_eec,p49viqewix,Nick_Dissertation_EX1,1,101,2020-05-06T11:26:07-07:00,2.3212368488312,6,versionA_stim.csv,JOLVersionB.csv,"JOL Version B","Dissertation, JOL version B",MAZE,ELECTION,Study2,U,159,166,Test,User,-,,Recall,Recall1,2093,,0,-1,-1,0,0,,,1
w10039944_eec,p49viqewix,Nick_Dissertation_EX1,1,102,2020-05-06T11:26:09-07:00,2.0070731639862,6,versionA_stim.csv,JOLVersionB.csv,"JOL Version B","Dissertation, JOL version B",FURRY,DOG,Study2,F,102,118,Test,User,-,,Recall,Recall1,1759,dog,100,1273,1649,1,1,,,1
w10039944_eec,p49viqewix,Nick_Dissertation_EX1,1,103,2020-05-06T11:26:12-07:00,3.6918408870697,6,versionA_stim.csv,JOLVersionB.csv,"JOL Version B","Dissertation, JOL version B",DETECTIVE,MYSTERY,Study2,F,100,122,Test,User,-,,Recall,Recall1,2439,find,0,1787,2259,0,0,,,1
w10039944_eec,p49viqewix,Nick_Dissertation_EX1,1,104,2020-05-06T11:26:17-07:00,4.108246088028,6,versionA_stim.csv,JOLVersionB.csv,"JOL Version B","Dissertation, JOL version B",ADJOURN,END,Study2,F,101,109,Test,User,-,,Recall,Recall1,3853,end,100,1457,3721,1,1,,,1
w10039944_eec,p49viqewix,Nick_Dissertation_EX1,1,105,2020-05-06T11:26:20-07:00,3.2327098846436,6,versionA_stim.csv,JOLVersionB.csv,"JOL Version B","Dissertation, JOL version B",HONEST,TRUTHFUL,Study2,B,133,162,Test,User,-,,Recall,Recall1,2997,tell,33.333333333333,2324,2813,0,0,,,1
w10039944_eec,p49viqewix,Nick_Dissertation_EX1,1,106,2020-05-06T11:26:22-07:00,2.1051399707794,6,versionA_stim.csv,JOLVersionB.csv,"JOL Version B","Dissertation, JOL version B",LOUD,NOISE,Study2,S,152,107,Test,User,-,,Recall,Recall1,1878,noise,100,1107,1850,1,1,,,1
w10039944_eec,p49viqewix,Nick_Dissertation_EX1,1,107,2020-05-06T11:26:24-07:00,2.0926911830902,6,versionA_stim.csv,JOLVersionB.csv,"JOL Version B","Dissertation, JOL version B",CACTUS,PLANT,Study2,F,98,123,Test,User,-,,Recall,Recall1,1869,plant,100,1000,1655,1,1,,,1
w10039944_eec,p49viqewix,Nick_Dissertation_EX1,1,108,2020-05-06T11:26:27-07:00,3.514408826828,6,versionA_stim.csv,JOLVersionB.csv,"JOL Version B","Dissertation, JOL version B",CRACKLE,ABLE,Study2,U,162,106,Test,User,-,,Recall,Recall1,3270,,0,-1,-1,0,0,,,1
w10039944_eec,p49viqewix,Nick_Dissertation_EX1,1,109,2020-05-06T11:26:37-07:00,9.8478901386261,6,versionA_stim.csv,JOLVersionB.csv,"JOL Version B","Dissertation, JOL version B",OWN,HAVE,Study2,S,153,174,Test,User,-,,Recall,Recall1,9608,lease,22.222222222222,7721,9480,0,0,,,1
w10039944_eec,p49viqewix,Nick_Dissertation_EX1,1,110,2020-05-06T11:26:41-07:00,4.0014669895172,6,versionA_stim.csv,JOLVersionB.csv,"JOL Version B","Dissertation, JOL version B",CHILL,COLD,Study2,F,114,112,Test,User,-,,Recall,Recall1,3730,frozen,20,1747,3178,0,0,,,1
w10039944_eec,p49viqewix,Nick_Dissertation_EX1,1,111,2020-05-06T11:26:43-07:00,1.938178062439,6,versionA_stim.csv,JOLVersionB.csv,"JOL Version B","Dissertation, JOL version B",EXTENSION,LONG,Study2,F,96,131,Test,User,-,,Recall,Recall1,1713,long,100,1071,1564,1,1,,,1
w10039944_eec,p49viqewix,Nick_Dissertation_EX1,1,112,2020-05-06T11:26:46-07:00,2.5410377979279,6,versionA_stim.csv,JOLVersionB.csv,"JOL Version B","Dissertation, JOL version B",STAR,ACTRESS,Study2,B,120,170,Test,User,-,,Recall,Recall1,2304,bright,15.384615384615,1500,2121,0,0,,,1
w10039944_eec,p49viqewix,Nick_Dissertation_EX1,1,113,2020-05-06T11:26:48-07:00,2.134975194931,6,versionA_stim.csv,JOLVersionB.csv,"JOL Version B","Dissertation, JOL version B",DOCUMENT,PAPER,Study2,F,109,168,Test,User,-,,Recall,Recall1,1872,paper,100,1114,1750,1,1,,,1
w10039944_eec,p49viqewix,Nick_Dissertation_EX1,1,114,2020-05-06T11:26:52-07:00,4.0995848178864,6,versionA_stim.csv,JOLVersionB.csv,"JOL Version B","Dissertation, JOL version B",LOAN,SIGN,Study2,U,171,154,Test,User,-,,Recall,Recall1,3848,money,22.222222222222,2932,3751,0,0,,,1
w10039944_eec,p49viqewix,Nick_Dissertation_EX1,1,115,2020-05-06T11:26:54-07:00,2.4105579853058,6,versionA_stim.csv,JOLVersionB.csv,"JOL Version B","Dissertation, JOL version B",TANTRUM,TEMPER,Study2,S,154,110,Test,User,-,,Recall,Recall1,2175,fight,18.181818181818,1474,2015,0,0,,,1
w10039944_eec,p49viqewix,Nick_Dissertation_EX1,1,116,2020-05-06T11:26:57-07:00,2.7883100509644,6,versionA_stim.csv,JOLVersionB.csv,"JOL Version B","Dissertation, JOL version B",RIGHTS,EQUAL,Study2,S,137,167,Test,User,-,,Recall,Recall1,2541,equal,100,1573,2325,1,1,,,1
w10039944_eec,p49viqewix,Nick_Dissertation_EX1,1,117,2020-05-06T11:26:59-07:00,2.1878499984741,6,versionA_stim.csv,JOLVersionB.csv,"JOL Version B","Dissertation, JOL version B",FUZZY,BANG,Study2,U,168,99,Test,User,-,,Recall,Recall1,1928,dog,28.571428571429,1419,1784,0,0,,,1
w10039944_eec,p49viqewix,Nick_Dissertation_EX1,1,118,2020-05-06T11:27:03-07:00,3.7743899822235,6,versionA_stim.csv,JOLVersionB.csv,"JOL Version B","Dissertation, JOL version B",STRETCH,CLOTH,Study2,U,157,126,Test,User,-,,Recall,Recall1,3562,,0,-1,-1,0,0,,,1
w10039944_eec,p49viqewix,Nick_Dissertation_EX1,1,119,2020-05-06T11:27:07-07:00,3.6868419647217,6,versionA_stim.csv,JOLVersionB.csv,"JOL Version B","Dissertation, JOL version B",THREAD,THIMBLE,Study2,B,121,129,Test,User,-,,Recall,Recall1,3429,thimble,100,1903,3194,1,1,,,1
w10039944_eec,p49viqewix,Nick_Dissertation_EX1,1,120,2020-05-06T11:27:11-07:00,3.692812204361,6,versionA_stim.csv,JOLVersionB.csv,"JOL Version B","Dissertation, JOL version B",WATER,DRINK,Study2,S,143,124,Test,User,-,,Recall,Recall1,3362,,0,-1,-1,0,0,,,1
w10039944_eec,p49viqewix,Nick_Dissertation_EX1,1,121,2020-05-06T11:27:13-07:00,2.0038049221039,6,versionA_stim.csv,JOLVersionB.csv,"JOL Version B","Dissertation, JOL version B",MASON,JAR,Study2,S,138,173,Test,User,-,,Recall,Recall1,1731,jar,100,1103,1556,1,1,,,1
w10039944_eec,p49viqewix,Nick_Dissertation_EX1,1,122,2020-05-06T11:27:14-07:00,1.8613090515137,6,versionA_stim.csv,JOLVersionB.csv,"JOL Version B","Dissertation, JOL version B",DRY,WET,Study2,S,146,121,Test,User,-,,Recall,Recall1,1616,wet,100,1057,1487,1,1,,,1
w10039944_eec,p49viqewix,Nick_Dissertation_EX1,1,123,2020-05-06T11:27:18-07:00,3.0879528522491,6,versionA_stim.csv,JOLVersionB.csv,"JOL Version B","Dissertation, JOL version B",ALONE,LONELY,Study2,S,145,151,Test,User,-,,Recall,Recall1,2851,,0,-1,-1,0,0,,,1
w10039944_eec,p49viqewix,Nick_Dissertation_EX1,1,124,2020-05-06T11:27:19-07:00,1.5674891471863,6,versionA_stim.csv,JOLVersionB.csv,"JOL Version B","Dissertation, JOL version B",DEAD,COFFIN,Study2,B,128,144,Test,User,-,,Recall,Recall1,1335,,0,-1,-1,0,0,,,1
w10039944_eec,p49viqewix,Nick_Dissertation_EX1,1,125,2020-05-06T11:27:22-07:00,2.9123499393463,6,versionA_stim.csv,JOLVersionB.csv,"JOL Version B","Dissertation, JOL version B",SHEARS,SCISSORS,Study2,F,112,164,Test,User,-,,Recall,Recall1,2677,scissors,100,1118,2285,1,1,,,1
w10039944_eec,p49viqewix,Nick_Dissertation_EX1,1,126,2020-05-06T11:27:25-07:00,2.6776349544525,6,versionA_stim.csv,JOLVersionB.csv,"JOL Version B","Dissertation, JOL version B",MULE,DONKEY,Study2,F,108,157,Test,User,-,,Recall,Recall1,2454,donkey,100,1214,2279,1,1,,,1
w10039944_eec,p49viqewix,Nick_Dissertation_EX1,1,127,2020-05-06T11:27:27-07:00,2.5082659721375,6,versionA_stim.csv,JOLVersionB.csv,"JOL Version B","Dissertation, JOL version B",FLEA,TICK,Study2,S,151,105,Test,User,-,,Recall,Recall1,2279,tick,100,1471,1990,1,1,,,1
w10039944_eec,p49viqewix,Nick_Dissertation_EX1,1,128,2020-05-06T11:27:30-07:00,3.0384540557861,6,versionA_stim.csv,JOLVersionB.csv,"JOL Version B","Dissertation, JOL version B",BAD,VILLAIN,Study2,B,118,119,Test,User,-,,Recall,Recall1,2797,news,18.181818181818,2090,2649,0,0,,,1
w10039944_eec,p49viqewix,Nick_Dissertation_EX1,1,129,2020-05-06T11:27:34-07:00,3.9945299625397,6,versionA_stim.csv,JOLVersionB.csv,"JOL Version B","Dissertation, JOL version B",TEMPERATURE,Morning,Study2,U,173,160,Test,User,-,,Recall,Recall1,3737,hot,20,3148,3517,0,0,,,1
w10039944_eec,p49viqewix,Nick_Dissertation_EX1,1,130,2020-05-06T11:27:37-07:00,2.561763048172,6,versionA_stim.csv,JOLVersionB.csv,"JOL Version B","Dissertation, JOL version B",BEST,FAVORITE,Study2,B,125,158,Test,User,-,,Recall,Recall1,2330,,0,-1,-1,0,0,,,1
w10039944_eec,p49viqewix,Nick_Dissertation_EX1,1,131,2020-05-06T11:27:44-07:00,7.0356059074402,6,versionA_stim.csv,JOLVersionB.csv,"JOL Version B","Dissertation, JOL version B",Shell,SHAKE,Study2,U,163,165,Test,User,-,,Recall,Recall1,6808,,0,4688,5595,0,0,,,1
w10039944_eec,p49viqewix,Nick_Dissertation_EX1,1,132,2020-05-06T11:27:46-07:00,2.5231790542603,6,versionA_stim.csv,JOLVersionB.csv,"JOL Version B","Dissertation, JOL version B",FEUD,FIGHT,Study2,F,113,134,Test,User,-,,Recall,Recall1,2267,fight,100,1585,2126,1,1,,,1
w10039944_eec,p49viqewix,Nick_Dissertation_EX1,1,133,2020-05-06T11:27:49-07:00,2.5700161457062,6,versionA_stim.csv,JOLVersionB.csv,"JOL Version B","Dissertation, JOL version B",MEAT,OBTAIN,Study2,U,161,145,Test,User,-,,Recall,Recall1,2291,,0,-1,-1,0,0,,,1
w10039944_eec,p49viqewix,Nick_Dissertation_EX1,1,134,2020-05-06T11:27:55-07:00,5.6187958717346,6,versionA_stim.csv,JOLVersionB.csv,"JOL Version B","Dissertation, JOL version B",FIGHT,BRAWL,Study2,B,135,130,Test,User,-,,Recall,Recall1,5395,flea,22.222222222222,4723,5244,0,0,,,1
w10039944_eec,p49viqewix,Nick_Dissertation_EX1,1,135,2020-05-06T11:28:02-07:00,7.4437808990479,6,versionA_stim.csv,JOLVersionB.csv,"JOL Version B","Dissertation, JOL version B",FISH,SARDINE,Study2,B,130,101,Test,User,-,,Recall,Recall1,7195,seafood,28.571428571429,3247,6877,0,0,,,1
w10039944_eec,p49viqewix,Nick_Dissertation_EX1,1,136,2020-05-06T11:28:05-07:00,2.8103601932526,6,versionA_stim.csv,JOLVersionB.csv,"JOL Version B","Dissertation, JOL version B",INCENSE,SMELL,Study2,F,110,142,Test,User,-,,Recall,Recall1,2561,,0,-1,-1,0,0,,,1
w10039944_eec,p49viqewix,Nick_Dissertation_EX1,1,137,2020-05-06T11:28:07-07:00,2.6113169193268,6,versionA_stim.csv,JOLVersionB.csv,"JOL Version B","Dissertation, JOL version B",RAZOR,SHAVE,Study2,S,136,163,Test,User,-,,Recall,Recall1,2378,cut,0,1552,2212,0,0,,,1
w10039944_eec,p49viqewix,Nick_Dissertation_EX1,1,138,2020-05-06T11:28:10-07:00,2.2061550617218,6,versionA_stim.csv,JOLVersionB.csv,"JOL Version B","Dissertation, JOL version B",ELEMENT,CARBON,Study2,S,141,138,Test,User,-,,Recall,Recall1,1977,,0,-1,-1,0,0,,,1
w10039944_eec,p49viqewix,Nick_Dissertation_EX1,1,139,2020-05-06T11:28:14-07:00,3.9647018909454,6,versionA_stim.csv,JOLVersionB.csv,"JOL Version B","Dissertation, JOL version B",BASEBALL,LEAGUE,Study2,B,131,120,Test,User,-,,Recall,Recall1,3739,league,100,2325,3556,1,1,,,1
w10039944_eec,p49viqewix,Nick_Dissertation_EX1,1,140,2020-05-06T11:28:18-07:00,3.9055881500244,6,versionA_stim.csv,JOLVersionB.csv,"JOL Version B","Dissertation, JOL version B",GONE,AWAY,Study2,S,142,98,Test,User,-,,Recall,Recall1,3649,,0,-1,-1,0,0,,,1
w10039944_eec,p49viqewix,Nick_Dissertation_EX1,1,141,2020-05-06T11:28:20-07:00,2.7059299945831,6,versionA_stim.csv,JOLVersionB.csv,"JOL Version B","Dissertation, JOL version B",MONEY,BANKER,Study2,B,132,113,Test,User,-,,Recall,Recall1,2433,loan,40,1314,1884,0,0,,,1
w10039944_eec,p49viqewix,Nick_Dissertation_EX1,1,142,2020-05-06T11:28:22-07:00,2.1158318519592,6,versionA_stim.csv,JOLVersionB.csv,"JOL Version B","Dissertation, JOL version B",DINE,EAT,Study2,F,111,175,Test,User,-,,Recall,Recall1,1870,eat,100,1155,1724,1,1,,,1
w10039944_eec,p49viqewix,Nick_Dissertation_EX1,1,143,2020-05-06T11:28:26-07:00,3.206748008728,6,versionA_stim.csv,JOLVersionB.csv,"JOL Version B","Dissertation, JOL version B",LISTEN,FICTION,Study2,U,164,149,Test,User,-,,Recall,Recall1,2973,,0,-1,-1,0,0,,,1
w10039944_eec,p49viqewix,Nick_Dissertation_EX1,1,144,2020-05-06T11:28:27-07:00,1.6203000545502,6,versionA_stim.csv,JOLVersionB.csv,"JOL Version B","Dissertation, JOL version B",WRIST,BRACELET,Study2,S,140,111,Test,User,-,,Recall,Recall1,1404,,0,-1,-1,0,0,,,1
w10039944_eec,p49viqewix,Nick_Dissertation_EX1,1,145,2020-05-06T11:28:32-07:00,4.9191370010376,6,versionA_stim.csv,JOLVersionB.csv,"JOL Version B","Dissertation, JOL version B",PHONE,COMMUNICATION,Study2,S,149,161,Test,User,-,,Recall,Recall1,4684,numbe,11.111111111111,2229,4386,0,0,,,1
w10039944_eec,p49viqewix,Nick_Dissertation_EX1,1,146,2020-05-06T11:28:41-07:00,8.5442180633545,6,versionA_stim.csv,JOLVersionB.csv,"JOL Version B","Dissertation, JOL version B",JUSTICE,MAROON,Study2,U,156,140,Test,User,-,,Recall,Recall1,8306,,0,-1,-1,0,0,,,1
w10039944_eec,p49viqewix,Nick_Dissertation_EX1,1,147,2020-05-06T11:28:42-07:00,1.3929898738861,6,versionA_stim.csv,JOLVersionB.csv,"JOL Version B","Dissertation, JOL version B",BOTH,OUNCE,Study2,U,172,102,Test,User,-,,Recall,Recall1,1148,,0,-1,-1,0,0,,,1
w10039944_eec,p49viqewix,Nick_Dissertation_EX1,1,148,2020-05-06T11:28:45-07:00,2.511883020401,6,versionA_stim.csv,JOLVersionB.csv,"JOL Version B","Dissertation, JOL version B",BIRD,PENGUIN,Study2,B,119,127,Test,User,-,,Recall,Recall1,2282,,0,-1,-1,0,0,,,1
w10039944_eec,p49viqewix,Nick_Dissertation_EX1,1,149,2020-05-06T11:28:48-07:00,3.8061399459839,6,versionA_stim.csv,JOLVersionB.csv,"JOL Version B","Dissertation, JOL version B",GLASS,BREAKABLE,Study2,B,127,104,Test,User,-,,Recall,Recall1,3578,foot,0,2898,3409,0,0,,,1
w10039944_eec,p49viqewix,Nick_Dissertation_EX1,1,150,2020-05-06T11:28:51-07:00,2.8096671104431,6,versionA_stim.csv,JOLVersionB.csv,"JOL Version B","Dissertation, JOL version B",CANDLE,WAX,Study2,S,139,150,Test,User,-,,Recall,Recall1,2554,jar,33.333333333333,1288,1756,0,0,,,1
w10039944_eec,p49viqewix,Nick_Dissertation_EX1,1,151,2020-05-06T11:28:55-07:00,3.6198740005493,6,versionA_stim.csv,JOLVersionB.csv,"JOL Version B","Dissertation, JOL version B",TRUTH,LIE,Study2,S,148,115,Test,User,-,,Recall,Recall1,3391,,0,-1,-1,0,0,,,1
w10039944_eec,p49viqewix,Nick_Dissertation_EX1,1,152,2020-05-06T11:29:08-07:00,13.044687986374,6,versionA_stim.csv,JOLVersionB.csv,"JOL Version B","Dissertation, JOL version B",EARTH,GROUND,Study2,S,144,133,Test,User,-,,Recall,Recall1,12821,ground,100,3934,12455,1,1,,,1
w10039944_eec,p49viqewix,Nick_Dissertation_EX1,1,153,2020-05-06T11:29:10-07:00,2.0882821083069,6,versionA_stim.csv,JOLVersionB.csv,"JOL Version B","Dissertation, JOL version B",TURN,FLIP,Study2,B,116,148,Test,User,-,,Recall,Recall1,1852,,0,-1,-1,0,0,,,1
w10039944_eec,p49viqewix,Nick_Dissertation_EX1,1,154,2020-05-06T11:29:13-07:00,3.3705739974976,6,versionA_stim.csv,JOLVersionB.csv,"JOL Version B","Dissertation, JOL version B",POP,BALLOON,Study2,B,123,139,Test,User,-,,Recall,Recall1,3138,crackle,28.571428571429,1721,2894,0,0,,,1
w10039944_eec,p49viqewix,Nick_Dissertation_EX1,1,155,2020-05-06T11:29:17-07:00,4.1526999473572,6,versionA_stim.csv,JOLVersionB.csv,"JOL Version B","Dissertation, JOL version B",SAFETY,SEATBELT,Study2,S,147,141,Test,User,-,,Recall,Recall1,3901,seatbelt,100,2034,3695,1,1,,,1
w10039944_eec,p49viqewix,Nick_Dissertation_EX1,1,156,2020-05-06T11:29:20-07:00,2.7892849445343,6,versionA_stim.csv,JOLVersionB.csv,"JOL Version B","Dissertation, JOL version B",CAKE,CLOTHES,Study2,U,166,125,Test,User,-,,Recall,Recall1,2538,,0,-1,-1,0,0,,,1
w10039944_eec,p49viqewix,Nick_Dissertation_EX1,1,157,2020-05-06T11:29:23-07:00,2.3861908912659,6,versionA_stim.csv,JOLVersionB.csv,"JOL Version B","Dissertation, JOL version B",SCALP,HEAD,Study2,F,105,136,Test,User,-,,Recall,Recall1,2154,head,100,1253,1989,1,1,,,1
w10039944_eec,p49viqewix,Nick_Dissertation_EX1,1,158,2020-05-06T11:29:26-07:00,3.3204121589661,6,versionA_stim.csv,JOLVersionB.csv,"JOL Version B","Dissertation, JOL version B",SUN,TAN,Study2,S,155,172,Test,User,-,,Recall,Recall1,3061,hit,33.333333333333,2481,2834,0,0,,,1
w10039944_eec,p49viqewix,Nick_Dissertation_EX1,1,159,2020-05-06T11:29:29-07:00,3.0965678691864,6,versionA_stim.csv,JOLVersionB.csv,"JOL Version B","Dissertation, JOL version B",CLUE,GAME,Study2,F,97,108,Test,User,-,,Recall,Recall1,2815,game,100,2017,2553,1,1,,,1
w10039944_eec,p49viqewix,Nick_Dissertation_EX1,1,160,2020-05-06T11:29:32-07:00,2.6591861248016,6,versionA_stim.csv,JOLVersionB.csv,"JOL Version B","Dissertation, JOL version B",KEYS,JOKE,Study2,U,165,117,Test,User,-,,Recall,Recall1,2423,,0,-1,-1,0,0,,,1
w10039944_eec,p49viqewix,Nick_Dissertation_EX1,1,161,2020-05-06T11:29:34-07:00,2.5231330394745,6,versionA_stim.csv,JOLVersionB.csv,"JOL Version B","Dissertation, JOL version B",CAT,PANTHER,Study2,B,126,176,Test,User,-,,Recall,Recall1,2276,,0,-1,-1,0,0,,,1
w10039944_eec,p49viqewix,Nick_Dissertation_EX1,1,162,2020-05-06T11:29:37-07:00,2.9132628440857,6,versionA_stim.csv,JOLVersionB.csv,"JOL Version B","Dissertation, JOL version B",AFFECTION,LOVE,Study2,F,115,137,Test,User,-,,Recall,Recall1,2679,love,100,1325,2394,1,1,,,1
w10039944_eec,p49viqewix,Nick_Dissertation_EX1,1,163,2020-05-06T11:29:42-07:00,4.4738740921021,6,versionA_stim.csv,JOLVersionB.csv,"JOL Version B","Dissertation, JOL version B",PLANE,AIRCRAFT,Study2,B,129,116,Test,User,-,,Recall,Recall1,4236,,0,-1,-1,0,0,,,1
w10039944_eec,p49viqewix,Nick_Dissertation_EX1,1,164,2020-05-06T11:29:45-07:00,3.4368948936462,6,versionA_stim.csv,JOLVersionB.csv,"JOL Version B","Dissertation, JOL version B",MOAT,CLEAR,Study2,U,169,147,Test,User,-,,Recall,Recall1,3194,clear,100,2257,3018,1,1,,,1
w10039944_eec,p49viqewix,Nick_Dissertation_EX1,1,165,2020-05-06T11:29:47-07:00,2.2355480194092,6,versionA_stim.csv,JOLVersionB.csv,"JOL Version B","Dissertation, JOL version B",CHERRY,RED,Study2,F,104,155,Test,User,-,,Recall,Recall1,1987,red,100,1443,1825,1,1,,,1
w10039944_eec,p49viqewix,Nick_Dissertation_EX1,1,166,2020-05-06T11:29:50-07:00,2.7713980674744,6,versionA_stim.csv,JOLVersionB.csv,"JOL Version B","Dissertation, JOL version B",MIRROR,CHILDREN,Study2,U,174,103,Test,User,-,,Recall,Recall1,2544,,0,-1,-1,0,0,,,1
w10039944_eec,p49viqewix,Nick_Dissertation_EX1,1,167,2020-05-06T11:29:55-07:00,4.7459919452667,6,versionA_stim.csv,JOLVersionB.csv,"JOL Version B","Dissertation, JOL version B",SLEEP,NAP,Study2,B,134,153,Test,User,-,,Recall,Recall1,4500,night,25,3375,4307,0,0,,,1
w10039944_eec,p49viqewix,Nick_Dissertation_EX1,1,168,2020-05-06T11:29:56-07:00,1.5942420959473,6,versionA_stim.csv,JOLVersionB.csv,"JOL Version B","Dissertation, JOL version B",GIVE,STEAK,Study2,U,158,97,Test,User,-,,Recall,Recall1,1361,,0,-1,-1,0,0,,,1
w10039944_eec,p49viqewix,Nick_Dissertation_EX1,1,169,2020-05-06T11:30:00-07:00,4.083911895752,6,versionA_stim.csv,JOLVersionB.csv,"JOL Version B","Dissertation, JOL version B",VEHICLE,CHARM,Study2,U,160,169,Test,User,-,,Recall,Recall1,3834,drive,20,2945,3698,0,0,,,1
w10039944_eec,p49viqewix,Nick_Dissertation_EX1,1,170,2020-05-06T11:30:04-07:00,3.1513700485229,6,versionA_stim.csv,JOLVersionB.csv,"JOL Version B","Dissertation, JOL version B",FRUIT,STRAWBERRY,Study2,B,124,146,Test,User,-,,Recall,Recall1,2920,,0,-1,-1,0,0,,,1
w10039944_eec,p49viqewix,Nick_Dissertation_EX1,1,171,2020-05-06T11:30:05-07:00,1.2179651260376,6,versionA_stim.csv,JOLVersionB.csv,"JOL Version B","Dissertation, JOL version B",NAME,HATE,Study2,U,167,143,Test,User,-,,Recall,Recall1,965,,0,-1,-1,0,0,,,1
w10039944_eec,p49viqewix,Nick_Dissertation_EX1,1,172,2020-05-06T11:30:07-07:00,2.2337009906769,6,versionA_stim.csv,JOLVersionB.csv,"JOL Version B","Dissertation, JOL version B",ROD,REEL,Study2,S,150,100,Test,User,-,,Recall,Recall1,1983,reel,100,1289,1746,1,1,,,1
w10039944_eec,p49viqewix,Nick_Dissertation_EX1,1,173,2020-05-06T11:30:09-07:00,1.7647860050201,6,versionA_stim.csv,JOLVersionB.csv,"JOL Version B","Dissertation, JOL version B",MAIN,SCAR,Study2,U,175,132,Test,User,-,,Recall,Recall1,1537,,0,-1,-1,0,0,,,1
w10039944_eec,p49viqewix,Nick_Dissertation_EX1,1,174,2020-05-06T11:30:13-07:00,4.1254689693451,6,versionA_stim.csv,JOLVersionB.csv,"JOL Version B","Dissertation, JOL version B",DRIVER,CAR,Study2,F,106,135,Test,User,-,,Recall,Recall1,3887,passenger,33.333333333333,2144,3729,0,0,,,1
w10039944_eec,p49viqewix,Nick_Dissertation_EX1,1,175,2020-05-06T11:30:18-07:00,5.4308300018311,6,versionA_stim.csv,JOLVersionB.csv,"JOL Version B","Dissertation, JOL version B",EVEN,REVENGE,Study2,B,122,114,Test,User,-,,Recall,Recall1,5164,,0,-1,-1,0,0,,,1
w10039944_eec,p49viqewix,Nick_Dissertation_EX1,1,176,2020-05-06T11:30:25-07:00,6.6748199462891,6,versionA_stim.csv,JOLVersionB.csv,"JOL Version B","Dissertation, JOL version B",CAR,WINDSHIELD,Study2,B,117,159,Test,User,-,,Recall,Recall1,6433,drive,40,5568,6293,0,0,,,1
w10039944_eec,p49viqewix,Nick_Dissertation_EX1,1,177,2020-05-06T11:30:28-07:00,2.6051530838013,6,versionA_stim.csv,JOLVersionB.csv,"JOL Version B","Dissertation, JOL version B",LITTER,TRASH,Study2,F,103,156,Test,User,-,,Recall,Recall1,2362,box,0,1493,1985,0,0,,,1
w10039944_eec,p49viqewix,Nick_Dissertation_EX1,1,178,2020-05-06T11:30:30-07:00,2.7149679660797,6,versionA_stim.csv,JOLVersionB.csv,"JOL Version B","Dissertation, JOL version B",CHOP,CUT,Study2,F,107,128,Test,User,-,,Recall,Recall1,2456,cut,100,1893,2278,1,1,,,1
w10039944_eec,p49viqewix,Nick_Dissertation_EX1,1,179,2020-05-06T11:30:43-07:00,12.725106954575,6,versionA_stim.csv,JOLVersionB.csv,"JOL Version B","Dissertation, JOL version B",,,,,,0,Instruct,-,10,"You will now be presented with a new set of word pairs. Please study each pair. Remember that your memory will be tested! When finished, press Enter to move to the next pair.",Initial_Instruct,Instruct4,12488,,,-1,-1,,,,,1
w10039944_eec,p49viqewix,Nick_Dissertation_EX1,1,180,2020-05-06T11:30:55-07:00,12.01935505867,6,versionA_stim.csv,JOLVersionB.csv,"JOL Version B","Dissertation, JOL version B",,,,,,0,Instruct,,10,"You will again be asked to rate your ability to remember these items using a 0 to 100 scale. Remember to use the full range of the scale!",,Instruct10,11789,,,-1,-1,,,,,1
w10039944_eec,p49viqewix,Nick_Dissertation_EX1,1,181,2020-05-06T11:30:57-07:00,1.5431089401245,6,versionA_stim.csv,JOLVersionB.csv,"JOL Version B","Dissertation, JOL version B",,,,,,0,Instruct,User,-,"Press Enter when you are readty to begin",,Instruct11,1328,,,-1,-1,,,,,1
w10039944_eec,p49viqewix,Nick_Dissertation_EX1,1,182,2020-05-06T11:31:00-07:00,3.8225610256195,6,versionA_stim.csv,JOLVersionB.csv,"JOL Version B","Dissertation, JOL version B",SCARE,HIDE,BUFFER1,Buffer,4,4,JOL,User,-,"How likely are you to correctly recall the second item in the pair?|Type your response on a scale from 0-100 and then press Enter.",Study/JOL,BUFFER3,3578,,,3204,3362,,,,30,1
w10039944_eec,p49viqewix,Nick_Dissertation_EX1,1,183,2020-05-06T11:31:03-07:00,2.0760350227356,6,versionA_stim.csv,JOLVersionB.csv,"JOL Version B","Dissertation, JOL version B",TREES,GREEN,BUFFER1,Buffer,1,5,JOL,User,-,"How likely are you to correctly recall the second item in the pair?|Type your response on a scale from 0-100 and then press Enter.",Study/JOL,BUFFER3,1860,,,1431,1672,,,,20,1
w10039944_eec,p49viqewix,Nick_Dissertation_EX1,1,184,2020-05-06T11:31:04-07:00,1.9160308837891,6,versionA_stim.csv,JOLVersionB.csv,"JOL Version B","Dissertation, JOL version B",PEANUT,BUTTER,BUFFER1,Buffer,3,3,JOL,User,-,"How likely are you to correctly recall the second item in the pair?|Type your response on a scale from 0-100 and then press Enter.",Study/JOL,BUFFER3,1673,,,1337,1473,,,,60,1
w10039944_eec,p49viqewix,Nick_Dissertation_EX1,1,185,2020-05-06T11:31:07-07:00,2.9906499385834,6,versionA_stim.csv,JOLVersionB.csv,"JOL Version B","Dissertation, JOL version B",SPACE,JAM,BUFFER1,Buffer,5,6,JOL,User,-,"How likely are you to correctly recall the second item in the pair?|Type your response on a scale from 0-100 and then press Enter.",Study/JOL,BUFFER3,2742,,,2432,2565,,,,60,1
w10039944_eec,p49viqewix,Nick_Dissertation_EX1,1,186,2020-05-06T11:31:09-07:00,1.97318816185,6,versionA_stim.csv,JOLVersionB.csv,"JOL Version B","Dissertation, JOL version B",BASEBALL,CATCHER,BUFFER1,Buffer,2,2,JOL,User,-,"How likely are you to correctly recall the second item in the pair?|Type your response on a scale from 0-100 and then press Enter.",Study/JOL,BUFFER3,1732,,,1359,1515,,,,40,1
w10039944_eec,p49viqewix,Nick_Dissertation_EX1,1,187,2020-05-06T11:31:11-07:00,1.7530460357666,6,versionA_stim.csv,JOLVersionB.csv,"JOL Version B","Dissertation, JOL version B",BABY,CHILD,Study1,S,64,16,JOL,User,-,"How likely are you to correctly recall the second item in the pair?|Type your response on a scale from 0-100 and then press Enter.",Study/JOL,"Study Phase2",1516,,,900,1052,,,,30,1
w10039944_eec,p49viqewix,Nick_Dissertation_EX1,1,188,2020-05-06T11:31:14-07:00,2.3759999275208,6,versionA_stim.csv,JOLVersionB.csv,"JOL Version B","Dissertation, JOL version B",ART,LION,Study1,U,79,59,JOL,User,-,"How likely are you to correctly recall the second item in the pair?|Type your response on a scale from 0-100 and then press Enter.",Study/JOL,"Study Phase2",2133,,,1701,1900,,,,20,1
w10039944_eec,p49viqewix,Nick_Dissertation_EX1,1,189,2020-05-06T11:31:16-07:00,2.4525279998779,6,versionA_stim.csv,JOLVersionB.csv,"JOL Version B","Dissertation, JOL version B",HYGIENE,CLEAN,Study1,F,17,26,JOL,User,-,"How likely are you to correctly recall the second item in the pair?|Type your response on a scale from 0-100 and then press Enter.",Study/JOL,"Study Phase2",2191,,,1855,1960,,,,80,1
w10039944_eec,p49viqewix,Nick_Dissertation_EX1,1,190,2020-05-06T11:31:18-07:00,2.1305088996887,6,versionA_stim.csv,JOLVersionB.csv,"JOL Version B","Dissertation, JOL version B",SENTENCE,WORD,Study1,B,31,73,JOL,User,-,"How likely are you to correctly recall the second item in the pair?|Type your response on a scale from 0-100 and then press Enter.",Study/JOL,"Study Phase2",1896,,,1546,1679,,,,40,1
w10039944_eec,p49viqewix,Nick_Dissertation_EX1,1,191,2020-05-06T11:31:20-07:00,2.0711131095886,6,versionA_stim.csv,JOLVersionB.csv,"JOL Version B","Dissertation, JOL version B",ROOT,PLANT,Study1,F,13,44,JOL,User,-,"How likely are you to correctly recall the second item in the pair?|Type your response on a scale from 0-100 and then press Enter.",Study/JOL,"Study Phase2",1828,,,1414,1605,,,,20,1
w10039944_eec,p49viqewix,Nick_Dissertation_EX1,1,192,2020-05-06T11:31:23-07:00,2.4790508747101,6,versionA_stim.csv,JOLVersionB.csv,"JOL Version B","Dissertation, JOL version B",MATH,DIVISION,Study1,B,33,48,JOL,User,-,"How likely are you to correctly recall the second item in the pair?|Type your response on a scale from 0-100 and then press Enter.",Study/JOL,"Study Phase2",2227,,,1856,2016,,,,50,1
w10039944_eec,p49viqewix,Nick_Dissertation_EX1,1,193,2020-05-06T11:31:25-07:00,2.2958791255951,6,versionA_stim.csv,JOLVersionB.csv,"JOL Version B","Dissertation, JOL version B",FIX,HAND,Study1,U,75,28,JOL,User,-,"How likely are you to correctly recall the second item in the pair?|Type your response on a scale from 0-100 and then press Enter.",Study/JOL,"Study Phase2",2043,,,1685,1830,,,,30,1
w10039944_eec,p49viqewix,Nick_Dissertation_EX1,1,194,2020-05-06T11:31:27-07:00,2.2031869888306,6,versionA_stim.csv,JOLVersionB.csv,"JOL Version B","Dissertation, JOL version B",FULL,ENOUGH,Study1,B,26,39,JOL,User,-,"How likely are you to correctly recall the second item in the pair?|Type your response on a scale from 0-100 and then press Enter.",Study/JOL,"Study Phase2",1898,,,1579,1708,,,,20,1
w10039944_eec,p49viqewix,Nick_Dissertation_EX1,1,195,2020-05-06T11:31:29-07:00,2.0734310150146,6,versionA_stim.csv,JOLVersionB.csv,"JOL Version B","Dissertation, JOL version B",BRIDGE,WATER,Study1,F,18,29,JOL,User,-,"How likely are you to correctly recall the second item in the pair?|Type your response on a scale from 0-100 and then press Enter.",Study/JOL,"Study Phase2",1805,,,1448,1563,,,,10,1
w10039944_eec,p49viqewix,Nick_Dissertation_EX1,1,196,2020-05-06T11:31:31-07:00,1.9748320579529,6,versionA_stim.csv,JOLVersionB.csv,"JOL Version B","Dissertation, JOL version B",BITTER,COLD,Study1,F,12,10,JOL,User,-,"How likely are you to correctly recall the second item in the pair?|Type your response on a scale from 0-100 and then press Enter.",Study/JOL,"Study Phase2",1750,,,1380,1532,,,,50,1
w10039944_eec,p49viqewix,Nick_Dissertation_EX1,1,197,2020-05-06T11:31:34-07:00,3.04860496521,6,versionA_stim.csv,JOLVersionB.csv,"JOL Version B","Dissertation, JOL version B",CHISEL,HAMMER,Study1,F,9,43,JOL,User,-,"How likely are you to correctly recall the second item in the pair?|Type your response on a scale from 0-100 and then press Enter.",Study/JOL,"Study Phase2",1824,,,1520,1628,,,,30,1
w10039944_eec,p49viqewix,Nick_Dissertation_EX1,1,198,2020-05-06T11:31:37-07:00,2.5130658149719,6,versionA_stim.csv,JOLVersionB.csv,"JOL Version B","Dissertation, JOL version B",GEOLOGY,ROCK,Study1,F,19,84,JOL,User,-,"How likely are you to correctly recall the second item in the pair?|Type your response on a scale from 0-100 and then press Enter.",Study/JOL,"Study Phase2",2279,,,1938,2069,,,,70,1
w10039944_eec,p49viqewix,Nick_Dissertation_EX1,1,199,2020-05-06T11:31:40-07:00,3.3008050918579,6,versionA_stim.csv,JOLVersionB.csv,"JOL Version B","Dissertation, JOL version B",CIRCLE,ROUND,Study1,S,65,71,JOL,User,-,"How likely are you to correctly recall the second item in the pair?|Type your response on a scale from 0-100 and then press Enter.",Study/JOL,"Study Phase2",3053,,,2714,2845,,,,20,1
w10039944_eec,p49viqewix,Nick_Dissertation_EX1,1,200,2020-05-06T11:31:43-07:00,2.5491061210632,6,versionA_stim.csv,JOLVersionB.csv,"JOL Version B","Dissertation, JOL version B",WAGE,MONEY,Study1,F,8,57,JOL,User,-,"How likely are you to correctly recall the second item in the pair?|Type your response on a scale from 0-100 and then press Enter.",Study/JOL,"Study Phase2",2282,,,1842,2027,,,,50,1
w10039944_eec,p49viqewix,Nick_Dissertation_EX1,1,201,2020-05-06T11:31:45-07:00,2.1092109680176,6,versionA_stim.csv,JOLVersionB.csv,"JOL Version B","Dissertation, JOL version B",HEIGHT,GROWTH,Study1,B,30,54,JOL,User,-,"How likely are you to correctly recall the second item in the pair?|Type your response on a scale from 0-100 and then press Enter.",Study/JOL,"Study Phase2",1807,,,1449,1593,,,,70,1
w10039944_eec,p49viqewix,Nick_Dissertation_EX1,1,202,2020-05-06T11:31:48-07:00,3.526172876358,6,versionA_stim.csv,JOLVersionB.csv,"JOL Version B","Dissertation, JOL version B",DISCOVER,FLOOR,Study1,U,71,60,JOL,User,-,"How likely are you to correctly recall the second item in the pair?|Type your response on a scale from 0-100 and then press Enter.",Study/JOL,"Study Phase2",3282,,,1449,3070,,,,40,1
w10039944_eec,p49viqewix,Nick_Dissertation_EX1,1,203,2020-05-06T11:31:51-07:00,2.6740119457245,6,versionA_stim.csv,JOLVersionB.csv,"JOL Version B","Dissertation, JOL version B",HORNET,STING,Study1,F,11,65,JOL,User,-,"How likely are you to correctly recall the second item in the pair?|Type your response on a scale from 0-100 and then press Enter.",Study/JOL,"Study Phase2",2434,,,2115,2232,,,,60,1
w10039944_eec,p49viqewix,Nick_Dissertation_EX1,1,204,2020-05-06T11:31:54-07:00,3.3516430854797,6,versionA_stim.csv,JOLVersionB.csv,"JOL Version B","Dissertation, JOL version B",LETTUCE,SALAD,Study1,S,59,72,JOL,User,-,"How likely are you to correctly recall the second item in the pair?|Type your response on a scale from 0-100 and then press Enter.",Study/JOL,"Study Phase2",3107,,,1473,2839,,,,50,1
w10039944_eec,p49viqewix,Nick_Dissertation_EX1,1,205,2020-05-06T11:31:57-07:00,2.5158100128174,6,versionA_stim.csv,JOLVersionB.csv,"JOL Version B","Dissertation, JOL version B",SOON,BELT,Study1,U,70,12,JOL,User,-,"How likely are you to correctly recall the second item in the pair?|Type your response on a scale from 0-100 and then press Enter.",Study/JOL,"Study Phase2",2164,,,1792,1933,,,,10,1
w10039944_eec,p49viqewix,Nick_Dissertation_EX1,1,206,2020-05-06T11:31:59-07:00,2.2831320762634,6,versionA_stim.csv,JOLVersionB.csv,"JOL Version B","Dissertation, JOL version B",LOCATION,SITE,Study1,S,48,51,JOL,User,-,"How likely are you to correctly recall the second item in the pair?|Type your response on a scale from 0-100 and then press Enter.",Study/JOL,"Study Phase2",2033,,,1624,1806,,,,60,1
w10039944_eec,p49viqewix,Nick_Dissertation_EX1,1,207,2020-05-06T11:32:01-07:00,1.9774959087372,6,versionA_stim.csv,JOLVersionB.csv,"JOL Version B","Dissertation, JOL version B",HOT,CHILI,Study1,B,37,31,JOL,User,-,"How likely are you to correctly recall the second item in the pair?|Type your response on a scale from 0-100 and then press Enter.",Study/JOL,"Study Phase2",1734,,,1300,1476,,,,30,1
w10039944_eec,p49viqewix,Nick_Dissertation_EX1,1,208,2020-05-06T11:32:04-07:00,3.22052693367,6,versionA_stim.csv,JOLVersionB.csv,"JOL Version B","Dissertation, JOL version B",LIFT,WOMAN,Study1,U,69,22,JOL,User,-,"How likely are you to correctly recall the second item in the pair?|Type your response on a scale from 0-100 and then press Enter.",Study/JOL,"Study Phase2",2966,,,2739,2739,,,,0,1
w10039944_eec,p49viqewix,Nick_Dissertation_EX1,1,209,2020-05-06T11:32:06-07:00,2.0688860416412,6,versionA_stim.csv,JOLVersionB.csv,"JOL Version B","Dissertation, JOL version B",BATHROOM,TOILET,Study1,S,58,50,JOL,User,-,"How likely are you to correctly recall the second item in the pair?|Type your response on a scale from 0-100 and then press Enter.",Study/JOL,"Study Phase2",1830,,,1477,1611,,,,40,1
w10039944_eec,p49viqewix,Nick_Dissertation_EX1,1,210,2020-05-06T11:32:09-07:00,2.9290421009064,6,versionA_stim.csv,JOLVersionB.csv,"JOL Version B","Dissertation, JOL version B",SWAN,BIRD,Study1,F,14,61,JOL,User,-,"How likely are you to correctly recall the second item in the pair?|Type your response on a scale from 0-100 and then press Enter.",Study/JOL,"Study Phase2",2670,,,1050,2434,,,,70,1
w10039944_eec,p49viqewix,Nick_Dissertation_EX1,1,211,2020-05-06T11:32:12-07:00,2.6486258506775,6,versionA_stim.csv,JOLVersionB.csv,"JOL Version B","Dissertation, JOL version B",HUNGER,FAMINE,Study1,B,40,20,JOL,User,-,"How likely are you to correctly recall the second item in the pair?|Type your response on a scale from 0-100 and then press Enter.",Study/JOL,"Study Phase2",2380,,,1970,2140,,,,60,1
w10039944_eec,p49viqewix,Nick_Dissertation_EX1,1,212,2020-05-06T11:32:16-07:00,3.6116421222687,6,versionA_stim.csv,JOLVersionB.csv,"JOL Version B","Dissertation, JOL version B",DELINQUENT,BAD,Study1,F,6,41,JOL,User,-,"How likely are you to correctly recall the second item in the pair?|Type your response on a scale from 0-100 and then press Enter.",Study/JOL,"Study Phase2",3383,,,3048,3177,,,,70,1
w10039944_eec,p49viqewix,Nick_Dissertation_EX1,1,213,2020-05-06T11:32:18-07:00,2.5184381008148,6,versionA_stim.csv,JOLVersionB.csv,"JOL Version B","Dissertation, JOL version B",KEY,LATCH,Study1,B,36,18,JOL,User,-,"How likely are you to correctly recall the second item in the pair?|Type your response on a scale from 0-100 and then press Enter.",Study/JOL,"Study Phase2",2277,,,1953,2070,,,,40,1
w10039944_eec,p49viqewix,Nick_Dissertation_EX1,1,214,2020-05-06T11:32:21-07:00,2.6454107761383,6,versionA_stim.csv,JOLVersionB.csv,"JOL Version B","Dissertation, JOL version B",ALLOW,TUCK,Study1,U,78,21,JOL,User,-,"How likely are you to correctly recall the second item in the pair?|Type your response on a scale from 0-100 and then press Enter.",Study/JOL,"Study Phase2",2396,,,1946,2133,,,,20,1
w10039944_eec,p49viqewix,Nick_Dissertation_EX1,1,215,2020-05-06T11:32:24-07:00,2.9648180007935,6,versionA_stim.csv,JOLVersionB.csv,"JOL Version B","Dissertation, JOL version B",ARTERY,BRONZE,Study1,U,74,83,JOL,User,-,"How likely are you to correctly recall the second item in the pair?|Type your response on a scale from 0-100 and then press Enter.",Study/JOL,"Study Phase2",2704,,,2422,2422,,,,0,1
w10039944_eec,p49viqewix,Nick_Dissertation_EX1,1,216,2020-05-06T11:32:26-07:00,2.0720641613007,6,versionA_stim.csv,JOLVersionB.csv,"JOL Version B","Dissertation, JOL version B",ORCHID,FLOWER,Study1,F,24,9,JOL,User,-,"How likely are you to correctly recall the second item in the pair?|Type your response on a scale from 0-100 and then press Enter.",Study/JOL,"Study Phase2",1838,,,1405,1554,,,,50,1
w10039944_eec,p49viqewix,Nick_Dissertation_EX1,1,217,2020-05-06T11:32:28-07:00,2.1950249671936,6,versionA_stim.csv,JOLVersionB.csv,"JOL Version B","Dissertation, JOL version B",SMELL,STENCH,Study1,B,42,62,JOL,User,-,"How likely are you to correctly recall the second item in the pair?|Type your response on a scale from 0-100 and then press Enter.",Study/JOL,"Study Phase2",1951,,,1586,1710,,,,30,1
w10039944_eec,p49viqewix,Nick_Dissertation_EX1,1,218,2020-05-06T11:32:30-07:00,1.9462199211121,6,versionA_stim.csv,JOLVersionB.csv,"JOL Version B","Dissertation, JOL version B",PARK,HUNGRY,Study1,U,68,66,JOL,User,-,"How likely are you to correctly recall the second item in the pair?|Type your response on a scale from 0-100 and then press Enter.",Study/JOL,"Study Phase2",1685,,,1383,1383,,,,0,1
w10039944_eec,p49viqewix,Nick_Dissertation_EX1,1,219,2020-05-06T11:32:33-07:00,3.1229591369629,6,versionA_stim.csv,JOLVersionB.csv,"JOL Version B","Dissertation, JOL version B",EDITOR,NEWS,Study1,F,10,25,JOL,User,-,"How likely are you to correctly recall the second item in the pair?|Type your response on a scale from 0-100 and then press Enter.",Study/JOL,"Study Phase2",2887,,,2525,2672,,,,70,1
w10039944_eec,p49viqewix,Nick_Dissertation_EX1,1,220,2020-05-06T11:32:35-07:00,2.3371958732605,6,versionA_stim.csv,JOLVersionB.csv,"JOL Version B","Dissertation, JOL version B",PLANE,PILOT,Study1,B,44,56,JOL,User,-,"How likely are you to correctly recall the second item in the pair?|Type your response on a scale from 0-100 and then press Enter.",Study/JOL,"Study Phase2",2080,,,1738,1847,,,,80,1
w10039944_eec,p49viqewix,Nick_Dissertation_EX1,1,221,2020-05-06T11:32:38-07:00,2.1963970661163,6,versionA_stim.csv,JOLVersionB.csv,"JOL Version B","Dissertation, JOL version B",MACHINE,POSITION,Study1,U,76,46,JOL,User,-,"How likely are you to correctly recall the second item in the pair?|Type your response on a scale from 0-100 and then press Enter.",Study/JOL,"Study Phase2",1941,,,1728,1728,,,,0,1
w10039944_eec,p49viqewix,Nick_Dissertation_EX1,1,222,2020-05-06T11:32:41-07:00,3.1442608833313,6,versionA_stim.csv,JOLVersionB.csv,"JOL Version B","Dissertation, JOL version B",PAW,DOG,Study1,F,15,34,JOL,User,-,"How likely are you to correctly recall the second item in the pair?|Type your response on a scale from 0-100 and then press Enter.",Study/JOL,"Study Phase2",2909,,,2302,2448,,,,90,1
w10039944_eec,p49viqewix,Nick_Dissertation_EX1,1,223,2020-05-06T11:32:44-07:00,3.245343208313,6,versionA_stim.csv,JOLVersionB.csv,"JOL Version B","Dissertation, JOL version B",TUNA,FISH,Study1,F,25,33,JOL,User,-,"How likely are you to correctly recall the second item in the pair?|Type your response on a scale from 0-100 and then press Enter.",Study/JOL,"Study Phase2",2995,,,2639,2767,,,,70,1
w10039944_eec,p49viqewix,Nick_Dissertation_EX1,1,224,2020-05-06T11:32:46-07:00,2.1365258693695,6,versionA_stim.csv,JOLVersionB.csv,"JOL Version B","Dissertation, JOL version B",POP,SODA,Study1,S,56,64,JOL,User,-,"How likely are you to correctly recall the second item in the pair?|Type your response on a scale from 0-100 and then press Enter.",Study/JOL,"Study Phase2",1877,,,1539,1689,,,,80,1
w10039944_eec,p49viqewix,Nick_Dissertation_EX1,1,225,2020-05-06T11:32:49-07:00,2.5661070346832,6,versionA_stim.csv,JOLVersionB.csv,"JOL Version B","Dissertation, JOL version B",PUSHER,CLUTTER,Study1,U,66,32,JOL,User,-,"How likely are you to correctly recall the second item in the pair?|Type your response on a scale from 0-100 and then press Enter.",Study/JOL,"Study Phase2",2304,,,1707,1840,,,,30,1
w10039944_eec,p49viqewix,Nick_Dissertation_EX1,1,226,2020-05-06T11:32:51-07:00,2.6173028945923,6,versionA_stim.csv,JOLVersionB.csv,"JOL Version B","Dissertation, JOL version B",KING,VASE,Study1,U,85,45,JOL,User,-,"How likely are you to correctly recall the second item in the pair?|Type your response on a scale from 0-100 and then press Enter.",Study/JOL,"Study Phase2",2328,,,2104,2104,,,,0,1
w10039944_eec,p49viqewix,Nick_Dissertation_EX1,1,227,2020-05-06T11:32:54-07:00,2.6129841804504,6,versionA_stim.csv,JOLVersionB.csv,"JOL Version B","Dissertation, JOL version B",DRINK,SIP,Study1,B,27,30,JOL,User,-,"How likely are you to correctly recall the second item in the pair?|Type your response on a scale from 0-100 and then press Enter.",Study/JOL,"Study Phase2",2337,,,1985,2093,,,,80,1
w10039944_eec,p49viqewix,Nick_Dissertation_EX1,1,228,2020-05-06T11:32:56-07:00,2.0101099014282,6,versionA_stim.csv,JOLVersionB.csv,"JOL Version B","Dissertation, JOL version B",HIDE,SICK,Study1,U,84,42,JOL,User,-,"How likely are you to correctly recall the second item in the pair?|Type your response on a scale from 0-100 and then press Enter.",Study/JOL,"Study Phase2",1779,,,1548,1548,,,,0,1
w10039944_eec,p49viqewix,Nick_Dissertation_EX1,1,229,2020-05-06T11:32:58-07:00,2.0421090126038,6,versionA_stim.csv,JOLVersionB.csv,"JOL Version B","Dissertation, JOL version B",DUE,ASSIGNMENT,Study1,S,46,70,JOL,User,-,"How likely are you to correctly recall the second item in the pair?|Type your response on a scale from 0-100 and then press Enter.",Study/JOL,"Study Phase2",1795,,,1404,1558,,,,40,1
w10039944_eec,p49viqewix,Nick_Dissertation_EX1,1,230,2020-05-06T11:33:00-07:00,2.4171409606934,6,versionA_stim.csv,JOLVersionB.csv,"JOL Version B","Dissertation, JOL version B",CASH,WOULD,Study1,U,83,24,JOL,User,-,"How likely are you to correctly recall the second item in the pair?|Type your response on a scale from 0-100 and then press Enter.",Study/JOL,"Study Phase2",2186,,,1966,1966,,,,0,1
w10039944_eec,p49viqewix,Nick_Dissertation_EX1,1,231,2020-05-06T11:33:03-07:00,2.8502681255341,6,versionA_stim.csv,JOLVersionB.csv,"JOL Version B","Dissertation, JOL version B",GREAT,FANTASTIC,Study1,B,35,55,JOL,User,-,"How likely are you to correctly recall the second item in the pair?|Type your response on a scale from 0-100 and then press Enter.",Study/JOL,"Study Phase2",2615,,,2279,2406,,,,50,1
w10039944_eec,p49viqewix,Nick_Dissertation_EX1,1,232,2020-05-06T11:33:05-07:00,1.7598659992218,6,versionA_stim.csv,JOLVersionB.csv,"JOL Version B","Dissertation, JOL version B",STRONG,ACCIDENT,Study1,U,80,69,JOL,User,-,"How likely are you to correctly recall the second item in the pair?|Type your response on a scale from 0-100 and then press Enter.",Study/JOL,"Study Phase2",1545,,,1292,1292,,,,0,1
w10039944_eec,p49viqewix,Nick_Dissertation_EX1,1,233,2020-05-06T11:33:08-07:00,3.2020919322968,6,versionA_stim.csv,JOLVersionB.csv,"JOL Version B","Dissertation, JOL version B",SHOE,FOOT,Study1,S,60,13,JOL,User,-,"How likely are you to correctly recall the second item in the pair?|Type your response on a scale from 0-100 and then press Enter.",Study/JOL,"Study Phase2",1918,,,1580,1714,,,,50,1
w10039944_eec,p49viqewix,Nick_Dissertation_EX1,1,234,2020-05-06T11:33:10-07:00,2.0554790496826,6,versionA_stim.csv,JOLVersionB.csv,"JOL Version B","Dissertation, JOL version B",LAW,ATTORNEY,Study1,B,34,11,JOL,User,-,"How likely are you to correctly recall the second item in the pair?|Type your response on a scale from 0-100 and then press Enter.",Study/JOL,"Study Phase2",1805,,,1558,1558,,,,0,1
w10039944_eec,p49viqewix,Nick_Dissertation_EX1,1,235,2020-05-06T11:33:13-07:00,3.1086339950562,6,versionA_stim.csv,JOLVersionB.csv,"JOL Version B","Dissertation, JOL version B",ARCHITECTURE,DESIGN,Study1,S,51,8,JOL,User,-,"How likely are you to correctly recall the second item in the pair?|Type your response on a scale from 0-100 and then press Enter.",Study/JOL,"Study Phase2",1855,,,1434,1595,,,,30,1
w10039944_eec,p49viqewix,Nick_Dissertation_EX1,1,236,2020-05-06T11:33:16-07:00,2.2292799949646,6,versionA_stim.csv,JOLVersionB.csv,"JOL Version B","Dissertation, JOL version B",FIRE,BLAZE,Study1,B,45,37,JOL,User,-,"How likely are you to correctly recall the second item in the pair?|Type your response on a scale from 0-100 and then press Enter.",Study/JOL,"Study Phase2",1995,,,1330,1474,,,,50,1
w10039944_eec,p49viqewix,Nick_Dissertation_EX1,1,237,2020-05-06T11:33:18-07:00,2.0737149715424,6,versionA_stim.csv,JOLVersionB.csv,"JOL Version B","Dissertation, JOL version B",CLOTHES,ATTIRE,Study1,B,43,77,JOL,User,-,"How likely are you to correctly recall the second item in the pair?|Type your response on a scale from 0-100 and then press Enter.",Study/JOL,"Study Phase2",1835,,,1566,1566,,,,0,1
w10039944_eec,p49viqewix,Nick_Dissertation_EX1,1,238,2020-05-06T11:33:20-07:00,2.4456260204315,6,versionA_stim.csv,JOLVersionB.csv,"JOL Version B","Dissertation, JOL version B",WINE,CHEESE,Study1,S,57,79,JOL,User,-,"How likely are you to correctly recall the second item in the pair?|Type your response on a scale from 0-100 and then press Enter.",Study/JOL,"Study Phase2",2205,,,1867,1981,,,,80,1
w10039944_eec,p49viqewix,Nick_Dissertation_EX1,1,239,2020-05-06T11:33:23-07:00,2.87619805336,6,versionA_stim.csv,JOLVersionB.csv,"JOL Version B","Dissertation, JOL version B",HAPPY,CAR,Study1,U,77,68,JOL,User,-,"How likely are you to correctly recall the second item in the pair?|Type your response on a scale from 0-100 and then press Enter.",Study/JOL,"Study Phase2",2612,,,1941,2063,,,,50,1
w10039944_eec,p49viqewix,Nick_Dissertation_EX1,1,240,2020-05-06T11:33:25-07:00,2.3847539424896,6,versionA_stim.csv,JOLVersionB.csv,"JOL Version B","Dissertation, JOL version B",HERD,COW,Study1,F,22,49,JOL,User,-,"How likely are you to correctly recall the second item in the pair?|Type your response on a scale from 0-100 and then press Enter.",Study/JOL,"Study Phase2",2144,,,1867,1867,,,,0,1
w10039944_eec,p49viqewix,Nick_Dissertation_EX1,1,241,2020-05-06T11:33:28-07:00,2.4992170333862,6,versionA_stim.csv,JOLVersionB.csv,"JOL Version B","Dissertation, JOL version B",TAKE,SEIZE,Study1,B,29,86,JOL,User,-,"How likely are you to correctly recall the second item in the pair?|Type your response on a scale from 0-100 and then press Enter.",Study/JOL,"Study Phase2",2255,,,2028,2028,,,,0,1
w10039944_eec,p49viqewix,Nick_Dissertation_EX1,1,242,2020-05-06T11:33:32-07:00,3.663430929184,6,versionA_stim.csv,JOLVersionB.csv,"JOL Version B","Dissertation, JOL version B",DEBATE,SIGHT,Study1,U,73,76,JOL,User,-,"How likely are you to correctly recall the second item in the pair?|Type your response on a scale from 0-100 and then press Enter.",Study/JOL,"Study Phase2",2420,,,2051,2198,,,,40,1
w10039944_eec,p49viqewix,Nick_Dissertation_EX1,1,243,2020-05-06T11:33:34-07:00,2.0753030776978,6,versionA_stim.csv,JOLVersionB.csv,"JOL Version B","Dissertation, JOL version B",CREDIT,CARD,Study1,F,23,7,JOL,User,-,"How likely are you to correctly recall the second item in the pair?|Type your response on a scale from 0-100 and then press Enter.",Study/JOL,"Study Phase2",1831,,,1514,1619,,,,70,1
w10039944_eec,p49viqewix,Nick_Dissertation_EX1,1,244,2020-05-06T11:33:37-07:00,3.2213349342346,6,versionA_stim.csv,JOLVersionB.csv,"JOL Version B","Dissertation, JOL version B",BEGIN,END,Study1,S,54,81,JOL,User,-,"How likely are you to correctly recall the second item in the pair?|Type your response on a scale from 0-100 and then press Enter.",Study/JOL,"Study Phase2",2995,,,2569,2695,,,,60,1
w10039944_eec,p49viqewix,Nick_Dissertation_EX1,1,245,2020-05-06T11:33:39-07:00,2.1334869861603,6,versionA_stim.csv,JOLVersionB.csv,"JOL Version B","Dissertation, JOL version B",DUMP,WASTE,Study1,S,49,36,JOL,User,-,"How likely are you to correctly recall the second item in the pair?|Type your response on a scale from 0-100 and then press Enter.",Study/JOL,"Study Phase2",1900,,,1458,1593,,,,30,1
w10039944_eec,p49viqewix,Nick_Dissertation_EX1,1,246,2020-05-06T11:33:42-07:00,3.0536150932312,6,versionA_stim.csv,JOLVersionB.csv,"JOL Version B","Dissertation, JOL version B",TRIAL,JURY,Study1,S,50,53,JOL,User,-,"How likely are you to correctly recall the second item in the pair?|Type your response on a scale from 0-100 and then press Enter.",Study/JOL,"Study Phase2",2804,,,2447,2569,,,,50,1
w10039944_eec,p49viqewix,Nick_Dissertation_EX1,1,247,2020-05-06T11:33:44-07:00,2.3886098861694,6,versionA_stim.csv,JOLVersionB.csv,"JOL Version B","Dissertation, JOL version B",KIDNEY,LIVER,Study1,S,53,38,JOL,User,-,"How likely are you to correctly recall the second item in the pair?|Type your response on a scale from 0-100 and then press Enter.",Study/JOL,"Study Phase2",2143,,,1785,1921,,,,80,1
w10039944_eec,p49viqewix,Nick_Dissertation_EX1,1,248,2020-05-06T11:33:47-07:00,3.0339510440826,6,versionA_stim.csv,JOLVersionB.csv,"JOL Version B","Dissertation, JOL version B",DEATH,BUSINESS,Study1,U,72,80,JOL,User,-,"How likely are you to correctly recall the second item in the pair?|Type your response on a scale from 0-100 and then press Enter.",Study/JOL,"Study Phase2",2792,,,2422,2591,,,,20,1
w10039944_eec,p49viqewix,Nick_Dissertation_EX1,1,249,2020-05-06T11:33:50-07:00,2.2834410667419,6,versionA_stim.csv,JOLVersionB.csv,"JOL Version B","Dissertation, JOL version B",GRILL,BAR,Study1,S,52,35,JOL,User,-,"How likely are you to correctly recall the second item in the pair?|Type your response on a scale from 0-100 and then press Enter.",Study/JOL,"Study Phase2",2052,,,1679,1852,,,,40,1
w10039944_eec,p49viqewix,Nick_Dissertation_EX1,1,250,2020-05-06T11:33:52-07:00,2.4072139263153,6,versionA_stim.csv,JOLVersionB.csv,"JOL Version B","Dissertation, JOL version B",BUG,WASP,Study1,B,32,75,JOL,User,-,"How likely are you to correctly recall the second item in the pair?|Type your response on a scale from 0-100 and then press Enter.",Study/JOL,"Study Phase2",2148,,,1673,1673,,,,0,1
w10039944_eec,p49viqewix,Nick_Dissertation_EX1,1,251,2020-05-06T11:33:54-07:00,1.9703030586243,6,versionA_stim.csv,JOLVersionB.csv,"JOL Version B","Dissertation, JOL version B",VALLEY,ADD,Study1,U,82,17,JOL,User,-,"How likely are you to correctly recall the second item in the pair?|Type your response on a scale from 0-100 and then press Enter.",Study/JOL,"Study Phase2",1711,,,1369,1523,,,,30,1
w10039944_eec,p49viqewix,Nick_Dissertation_EX1,1,252,2020-05-06T11:33:56-07:00,2.3299579620361,6,versionA_stim.csv,JOLVersionB.csv,"JOL Version B","Dissertation, JOL version B",WORK,CHORE,Study1,B,39,82,JOL,User,-,"How likely are you to correctly recall the second item in the pair?|Type your response on a scale from 0-100 and then press Enter.",Study/JOL,"Study Phase2",2068,,,1706,1844,,,,60,1
w10039944_eec,p49viqewix,Nick_Dissertation_EX1,1,253,2020-05-06T11:33:59-07:00,2.3299598693848,6,versionA_stim.csv,JOLVersionB.csv,"JOL Version B","Dissertation, JOL version B",HONEY,BEE,Study1,S,63,14,JOL,User,-,"How likely are you to correctly recall the second item in the pair?|Type your response on a scale from 0-100 and then press Enter.",Study/JOL,"Study Phase2",2051,,,1698,1830,,,,80,1
w10039944_eec,p49viqewix,Nick_Dissertation_EX1,1,254,2020-05-06T11:34:01-07:00,2.5721580982208,6,versionA_stim.csv,JOLVersionB.csv,"JOL Version B","Dissertation, JOL version B",DIETARY,SACKING,Study1,U,67,58,JOL,User,-,"How likely are you to correctly recall the second item in the pair?|Type your response on a scale from 0-100 and then press Enter.",Study/JOL,"Study Phase2",2322,,,2084,2085,,,,0,1
w10039944_eec,p49viqewix,Nick_Dissertation_EX1,1,255,2020-05-06T11:34:04-07:00,2.3848719596863,6,versionA_stim.csv,JOLVersionB.csv,"JOL Version B","Dissertation, JOL version B",WAY,OUT,Study1,F,16,74,JOL,User,-,"How likely are you to correctly recall the second item in the pair?|Type your response on a scale from 0-100 and then press Enter.",Study/JOL,"Study Phase2",2113,,,1686,1836,,,,30,1
w10039944_eec,p49viqewix,Nick_Dissertation_EX1,1,256,2020-05-06T11:34:06-07:00,2.1076469421387,6,versionA_stim.csv,JOLVersionB.csv,"JOL Version B","Dissertation, JOL version B",PAST,FUTURE,Study1,S,61,63,JOL,User,-,"How likely are you to correctly recall the second item in the pair?|Type your response on a scale from 0-100 and then press Enter.",Study/JOL,"Study Phase2",1876,,,1406,1592,,,,50,1
w10039944_eec,p49viqewix,Nick_Dissertation_EX1,1,257,2020-05-06T11:34:08-07:00,2.1206569671631,6,versionA_stim.csv,JOLVersionB.csv,"JOL Version B","Dissertation, JOL version B",DIGESTION,STOMACH,Study1,F,7,23,JOL,User,-,"How likely are you to correctly recall the second item in the pair?|Type your response on a scale from 0-100 and then press Enter.",Study/JOL,"Study Phase2",1873,,,1531,1667,,,,70,1
w10039944_eec,p49viqewix,Nick_Dissertation_EX1,1,258,2020-05-06T11:34:11-07:00,3.3246190547943,6,versionA_stim.csv,JOLVersionB.csv,"JOL Version B","Dissertation, JOL version B",BLOW,WIND,Study1,S,55,19,JOL,User,-,"How likely are you to correctly recall the second item in the pair?|Type your response on a scale from 0-100 and then press Enter.",Study/JOL,"Study Phase2",3080,,,1294,2865,,,,30,1
w10039944_eec,p49viqewix,Nick_Dissertation_EX1,1,259,2020-05-06T11:34:13-07:00,1.8179950714111,6,versionA_stim.csv,JOLVersionB.csv,"JOL Version B","Dissertation, JOL version B",SLEEP,DROWSY,Study1,B,41,85,JOL,User,-,"How likely are you to correctly recall the second item in the pair?|Type your response on a scale from 0-100 and then press Enter.",Study/JOL,"Study Phase2",1571,,,1171,1345,,,,60,1
w10039944_eec,p49viqewix,Nick_Dissertation_EX1,1,260,2020-05-06T11:34:15-07:00,2.2522220611572,6,versionA_stim.csv,JOLVersionB.csv,"JOL Version B","Dissertation, JOL version B",NUMBER,AMOUNT,Study1,S,47,15,JOL,User,-,"How likely are you to correctly recall the second item in the pair?|Type your response on a scale from 0-100 and then press Enter.",Study/JOL,"Study Phase2",2010,,,1624,1755,,,,80,1
w10039944_eec,p49viqewix,Nick_Dissertation_EX1,1,261,2020-05-06T11:34:19-07:00,3.6420059204102,6,versionA_stim.csv,JOLVersionB.csv,"JOL Version B","Dissertation, JOL version B",MEANING,DEFINITION,Study1,S,62,27,JOL,User,-,"How likely are you to correctly recall the second item in the pair?|Type your response on a scale from 0-100 and then press Enter.",Study/JOL,"Study Phase2",2391,,,1491,2147,,,,40,1
w10039944_eec,p49viqewix,Nick_Dissertation_EX1,1,262,2020-05-06T11:34:22-07:00,3.1091260910034,6,versionA_stim.csv,JOLVersionB.csv,"JOL Version B","Dissertation, JOL version B",DISCUSSION,TALK,Study1,F,21,78,JOL,User,-,"How likely are you to correctly recall the second item in the pair?|Type your response on a scale from 0-100 and then press Enter.",Study/JOL,"Study Phase2",2836,,,2422,2587,,,,20,1
w10039944_eec,p49viqewix,Nick_Dissertation_EX1,1,263,2020-05-06T11:34:24-07:00,2.1396608352661,6,versionA_stim.csv,JOLVersionB.csv,"JOL Version B","Dissertation, JOL version B",DARK,CAVE,Study1,B,28,52,JOL,User,-,"How likely are you to correctly recall the second item in the pair?|Type your response on a scale from 0-100 and then press Enter.",Study/JOL,"Study Phase2",1869,,,1491,1651,,,,60,1
w10039944_eec,p49viqewix,Nick_Dissertation_EX1,1,264,2020-05-06T11:34:28-07:00,3.4668869972229,6,versionA_stim.csv,JOLVersionB.csv,"JOL Version B","Dissertation, JOL version B",BALL,RACKET,Study1,B,38,47,JOL,User,-,"How likely are you to correctly recall the second item in the pair?|Type your response on a scale from 0-100 and then press Enter.",Study/JOL,"Study Phase2",3234,,,2862,3017,,,,20,1
w10039944_eec,p49viqewix,Nick_Dissertation_EX1,1,265,2020-05-06T11:34:31-07:00,2.9078869819641,6,versionA_stim.csv,JOLVersionB.csv,"JOL Version B","Dissertation, JOL version B",REVOLUTION,WAR,Study1,F,20,67,JOL,User,-,"How likely are you to correctly recall the second item in the pair?|Type your response on a scale from 0-100 and then press Enter.",Study/JOL,"Study Phase2",2647,,,2229,2451,,,,50,1
w10039944_eec,p49viqewix,Nick_Dissertation_EX1,1,266,2020-05-06T11:34:33-07:00,2.0823900699615,6,versionA_stim.csv,JOLVersionB.csv,"JOL Version B","Dissertation, JOL version B",SUGAR,RIDDLE,Study1,U,81,40,JOL,User,-,"How likely are you to correctly recall the second item in the pair?|Type your response on a scale from 0-100 and then press Enter.",Study/JOL,"Study Phase2",1839,,,1623,1623,,,,0,1
w10039944_eec,p49viqewix,Nick_Dissertation_EX1,1,267,2020-05-06T11:34:35-07:00,2.4744341373444,6,versionA_stim.csv,JOLVersionB.csv,"JOL Version B","Dissertation, JOL version B",MOON,SPACE,BUFFER2,Buffer,89,90,JOL,User,-,"How likely are you to correctly recall the second item in the pair?|Type your response on a scale from 0-100 and then press Enter.",Study/JOL,BUFFER4,2233,,,1844,2019,,,,20,1
w10039944_eec,p49viqewix,Nick_Dissertation_EX1,1,268,2020-05-06T11:34:38-07:00,3.3245069980621,6,versionA_stim.csv,JOLVersionB.csv,"JOL Version B","Dissertation, JOL version B",GEESE,GOOSE,BUFFER2,Buffer,86,88,JOL,User,-,"How likely are you to correctly recall the second item in the pair?|Type your response on a scale from 0-100 and then press Enter.",Study/JOL,BUFFER4,3081,,,2297,2422,,,,60,1
w10039944_eec,p49viqewix,Nick_Dissertation_EX1,1,269,2020-05-06T11:34:41-07:00,2.3080937862396,6,versionA_stim.csv,JOLVersionB.csv,"JOL Version B","Dissertation, JOL version B",SHERRIF,POLICE,BUFFER2,Buffer,87,87,JOL,User,-,"How likely are you to correctly recall the second item in the pair?|Type your response on a scale from 0-100 and then press Enter.",Study/JOL,BUFFER4,2072,,,1398,1822,,,,50,1
w10039944_eec,p49viqewix,Nick_Dissertation_EX1,1,270,2020-05-06T11:34:43-07:00,1.8498589992523,6,versionA_stim.csv,JOLVersionB.csv,"JOL Version B","Dissertation, JOL version B",THING,STUFF,BUFFER2,Buffer,90,89,JOL,User,-,"How likely are you to correctly recall the second item in the pair?|Type your response on a scale from 0-100 and then press Enter.",Study/JOL,BUFFER4,1606,,,1193,1401,,,,60,1
w10039944_eec,p49viqewix,Nick_Dissertation_EX1,1,271,2020-05-06T11:34:45-07:00,2.6384260654449,6,versionA_stim.csv,JOLVersionB.csv,"JOL Version B","Dissertation, JOL version B",MALT,CHOCOLATE,BUFFER2,Buffer,88,91,JOL,User,-,"How likely are you to correctly recall the second item in the pair?|Type your response on a scale from 0-100 and then press Enter.",Study/JOL,BUFFER4,2370,,,1917,2087,,,,70,1
w10039944_eec,p49viqewix,Nick_Dissertation_EX1,1,272,2020-05-06T11:34:48-07:00,2.9597339630127,6,versionA_stim.csv,JOLVersionB.csv,"JOL Version B","Dissertation, JOL version B",,,,,,0,Instruct,User,-,"You have completed this section. Please press Enter.",Filler_Instruction,Instruct5,2704,,,-1,-1,,,,,1
w10039944_eec,p49viqewix,Nick_Dissertation_EX1,1,273,2020-05-06T11:36:48-07:00,120.24673509598,6,versionA_stim.csv,JOLVersionB.csv,"JOL Version B","Dissertation, JOL version B",,,,,,0,FreeRecall,120,120,"Please list the 50 US states in reverse alphabetical order (z - a). The task will automatically advance to the next screen after two minutes.",,Filler2,120002,"wyoming wisconsin west virgina washington virgina vermont utah texas tennesee south dakota south carolina rhode island ",0,12527,119451,0,0,,,1
w10039944_eec,p49viqewix,Nick_Dissertation_EX1,1,274,2020-05-06T11:37:00-07:00,11.567878961563,6,versionA_stim.csv,JOLVersionB.csv,"JOL Version B","Dissertation, JOL version B",,,,,,0,Instruct,-,10,"You will now be presented with the first word from each of the previously studied item pairs. Please type the missing word. If you do not know the word, you may guess or press Enter to skip forward to the next pair.",,Instruct6,11327,,,-1,-1,,,,,0.807
w10039944_eec,p49viqewix,Nick_Dissertation_EX1,1,275,2020-05-06T11:37:05-07:00,4.9397189617157,6,versionA_stim.csv,JOLVersionB.csv,"JOL Version B","Dissertation, JOL version B",VALLEY,ADD,Study1,U,82,17,Test,User,-,,Recall,Recall2,4706,,0,-1,-1,0,0,,,1
w10039944_eec,p49viqewix,Nick_Dissertation_EX1,1,276,2020-05-06T11:37:08-07:00,2.9297800064087,6,versionA_stim.csv,JOLVersionB.csv,"JOL Version B","Dissertation, JOL version B",HAPPY,CAR,Study1,U,77,68,Test,User,-,,Recall,Recall2,2664,car,100,2031,2524,1,1,,,1
w10039944_eec,p49viqewix,Nick_Dissertation_EX1,1,277,2020-05-06T11:37:11-07:00,2.8102531433105,6,versionA_stim.csv,JOLVersionB.csv,"JOL Version B","Dissertation, JOL version B",ARCHITECTURE,DESIGN,Study1,S,51,8,Test,User,-,,Recall,Recall2,2561,design,100,1160,2280,1,1,,,1
